trial_nr	onset	event_type	phase	response	nr_frames	movie_index	movie_duration	movie_file	blank	onset_abs	duration
0	0.15792417526245117	stim	0		174					43.33284020423889	1.450279951095581
0	1.600311040878296	response	0	space						44.775227069854736	
1	1.6082041263580322	stim	0		38673					44.78312015533447	322.27304196357727
1	323.87862396240234	pulse	0	t						367.0535399913788	
1	323.8812460899353	stim	1		1717					367.05616211891174	14.308737993240356
1	325.47359704971313	pulse	1	t						368.6485130786896	
1	327.07331800460815	pulse	1	t						370.2482340335846	
1	328.6739251613617	pulse	1	t						371.84884119033813	
1	330.2735960483551	pulse	1	t						373.44851207733154	
1	331.87359404563904	pulse	1	t						375.0485100746155	
1	333.47348499298096	pulse	1	t						376.6484010219574	
1	335.0734660625458	pulse	1	t						378.2483820915222	
1	336.6734311580658	pulse	1	t						379.84834718704224	
2	338.18998408317566	fix_pre	0		11	0.0	2.5	/experiments/AOT/AOT_stimuli/rescaled_final/0388_rv.mp4	0.0	381.3649001121521	0.09165287017822266
2	338.27354311943054	pulse	0	t		0.0	2.5	/experiments/AOT/AOT_stimuli/rescaled_final/0388_rv.mp4	0.0	381.448459148407	
2	338.2816369533539	movie	1		245	0.0	2.5	/experiments/AOT/AOT_stimuli/rescaled_final/0388_rv.mp4	0.0	381.4565529823303	2.508305072784424
2	339.873074054718	pulse	1	t		0.0	2.5	/experiments/AOT/AOT_stimuli/rescaled_final/0388_rv.mp4	0.0	383.04799008369446	
2	340.7899420261383	fix_post	2		12	0.0	2.5	/experiments/AOT/AOT_stimuli/rescaled_final/0388_rv.mp4	0.0	383.96485805511475	0.1000361442565918
3	340.8899781703949	fix_pre	0		120	1.0	2.5	/experiments/AOT/AOT_stimuli/rescaled_final/1427_rv.mp4	0.0	384.06489419937134	0.9999728202819824
3	341.47348499298096	pulse	0	t		1.0	2.5	/experiments/AOT/AOT_stimuli/rescaled_final/1427_rv.mp4	0.0	384.6484010219574	
3	341.8899509906769	movie	1		246	1.0	2.5	/experiments/AOT/AOT_stimuli/rescaled_final/1427_rv.mp4	0.0	385.0648670196533	2.500141143798828
3	343.0735750198364	pulse	1	t		1.0	2.5	/experiments/AOT/AOT_stimuli/rescaled_final/1427_rv.mp4	0.0	386.24849104881287	
3	344.3900921344757	fix_post	2		12	1.0	2.5	/experiments/AOT/AOT_stimuli/rescaled_final/1427_rv.mp4	0.0	387.56500816345215	0.09953498840332031
4	344.489627122879	fix_pre	0		120	2.0	2.5	/experiments/AOT/AOT_stimuli/rescaled_final/0540_fw.mp4	0.0	387.66454315185547	1.0003700256347656
4	344.6734721660614	pulse	0	t		2.0	2.5	/experiments/AOT/AOT_stimuli/rescaled_final/0540_fw.mp4	0.0	387.84838819503784	
4	345.4899971485138	movie	1		245	2.0	2.5	/experiments/AOT/AOT_stimuli/rescaled_final/0540_fw.mp4	0.0	388.66491317749023	2.4995839595794678
4	346.27345514297485	pulse	1	t		2.0	2.5	/experiments/AOT/AOT_stimuli/rescaled_final/0540_fw.mp4	0.0	389.4483711719513	
4	347.8735320568085	pulse	1	t		2.0	2.5	/experiments/AOT/AOT_stimuli/rescaled_final/0540_fw.mp4	0.0	391.0484480857849	
4	347.98958110809326	fix_post	2		12	2.0	2.5	/experiments/AOT/AOT_stimuli/rescaled_final/0540_fw.mp4	0.0	391.1644971370697	0.10038590431213379
5	348.0899670124054	fix_pre	0		120	3.0	2.5	/experiments/AOT/AOT_stimuli/rescaled_final/1858_rv.mp4	0.0	391.26488304138184	1.0000550746917725
5	349.09002208709717	movie	1		243	3.0	2.5	/experiments/AOT/AOT_stimuli/rescaled_final/1858_rv.mp4	0.0	392.2649381160736	2.499980926513672
5	349.4742741584778	pulse	1	t		3.0	2.5	/experiments/AOT/AOT_stimuli/rescaled_final/1858_rv.mp4	0.0	392.6491901874542	
5	351.07340908050537	pulse	1	t		3.0	2.5	/experiments/AOT/AOT_stimuli/rescaled_final/1858_rv.mp4	0.0	394.2483251094818	
5	351.59000301361084	fix_post	2		12	3.0	2.5	/experiments/AOT/AOT_stimuli/rescaled_final/1858_rv.mp4	0.0	394.7649190425873	0.09999299049377441
6	351.6899960041046	fix_pre	0		119	4.0	2.5	/experiments/AOT/AOT_stimuli/rescaled_final/0200_fw.mp4	0.0	394.86491203308105	0.9915881156921387
6	352.6733911037445	pulse	0	t		4.0	2.5	/experiments/AOT/AOT_stimuli/rescaled_final/0200_fw.mp4	0.0	395.84830713272095	
6	352.68158411979675	movie	1		247	4.0	2.5	/experiments/AOT/AOT_stimuli/rescaled_final/0200_fw.mp4	0.0	395.8565001487732	2.508370876312256
6	354.2738871574402	pulse	1	t		4.0	2.5	/experiments/AOT/AOT_stimuli/rescaled_final/0200_fw.mp4	0.0	397.4488031864166	
6	355.189954996109	fix_post	2		12	4.0	2.5	/experiments/AOT/AOT_stimuli/rescaled_final/0200_fw.mp4	0.0	398.36487102508545	0.09989404678344727
7	355.28984904289246	fix_pre	0		120	5.0	2.5	/experiments/AOT/AOT_stimuli/rescaled_final/1341_fw.mp4	0.0	398.4647650718689	1.0001580715179443
7	355.87460708618164	pulse	0	t		5.0	2.5	/experiments/AOT/AOT_stimuli/rescaled_final/1341_fw.mp4	0.0	399.0495231151581	
7	356.2900071144104	movie	1		244	5.0	2.5	/experiments/AOT/AOT_stimuli/rescaled_final/1341_fw.mp4	0.0	399.46492314338684	2.4999308586120605
7	357.4735231399536	pulse	1	t		5.0	2.5	/experiments/AOT/AOT_stimuli/rescaled_final/1341_fw.mp4	0.0	400.64843916893005	
7	358.78993797302246	fix_post	2		12	5.0	2.5	/experiments/AOT/AOT_stimuli/rescaled_final/1341_fw.mp4	0.0	401.9648540019989	0.0999441146850586
8	358.8898820877075	fix_pre	0		120	6.0	2.5	/experiments/AOT/AOT_stimuli/rescaled_final/1713_fw.mp4	0.0	402.06479811668396	1.000082015991211
8	359.0734100341797	pulse	0	t		6.0	2.5	/experiments/AOT/AOT_stimuli/rescaled_final/1713_fw.mp4	0.0	402.2483260631561	
8	359.88996410369873	movie	1		246	6.0	2.5	/experiments/AOT/AOT_stimuli/rescaled_final/1713_fw.mp4	0.0	403.06488013267517	2.5000009536743164
8	360.6734790802002	pulse	1	t		6.0	2.5	/experiments/AOT/AOT_stimuli/rescaled_final/1713_fw.mp4	0.0	403.84839510917664	
8	362.27198815345764	pulse	1	t		6.0	2.5	/experiments/AOT/AOT_stimuli/rescaled_final/1713_fw.mp4	0.0	405.4469041824341	
8	362.38996505737305	fix_post	2		12	6.0	2.5	/experiments/AOT/AOT_stimuli/rescaled_final/1713_fw.mp4	0.0	405.5648810863495	0.09992003440856934
9	362.4898850917816	fix_pre	0		120	7.0	2.5	blank	1.0	405.66480112075806	1.0000040531158447
9	363.48988914489746	movie	1		300	7.0	2.5	blank	1.0	406.6648051738739	2.5000100135803223
9	363.8733751773834	pulse	1	t		7.0	2.5	blank	1.0	407.04829120635986	
9	365.47340297698975	pulse	1	t		7.0	2.5	blank	1.0	408.6483190059662	
9	365.9898991584778	fix_post	2		12	7.0	2.5	blank	1.0	409.1648151874542	0.09996795654296875
10	366.08986711502075	fix_pre	0		119	8.0	2.5	/experiments/AOT/AOT_stimuli/rescaled_final/2060_rv.mp4	0.0	409.2647831439972	0.9916610717773438
10	367.0733389854431	pulse	0	t		8.0	2.5	/experiments/AOT/AOT_stimuli/rescaled_final/2060_rv.mp4	0.0	410.24825501441956	
10	367.0815281867981	movie	1		244	8.0	2.5	/experiments/AOT/AOT_stimuli/rescaled_final/2060_rv.mp4	0.0	410.25644421577454	2.508267879486084
10	368.6728940010071	pulse	1	t		8.0	2.5	/experiments/AOT/AOT_stimuli/rescaled_final/2060_rv.mp4	0.0	411.8478100299835	
10	369.5897960662842	fix_post	2		12	8.0	2.5	/experiments/AOT/AOT_stimuli/rescaled_final/2060_rv.mp4	0.0	412.7647120952606	0.10003900527954102
11	369.6898350715637	fix_pre	0		120	9.0	2.5	/experiments/AOT/AOT_stimuli/rescaled_final/2060_fw.mp4	0.0	412.86475110054016	0.9999330043792725
11	370.273353099823	pulse	0	t		9.0	2.5	/experiments/AOT/AOT_stimuli/rescaled_final/2060_fw.mp4	0.0	413.44826912879944	
11	370.689768075943	movie	1		243	9.0	2.5	/experiments/AOT/AOT_stimuli/rescaled_final/2060_fw.mp4	0.0	413.86468410491943	2.4996988773345947
11	371.8734140396118	pulse	1	t		9.0	2.5	/experiments/AOT/AOT_stimuli/rescaled_final/2060_fw.mp4	0.0	415.04833006858826	
11	373.1894669532776	fix_post	2		12	9.0	2.5	/experiments/AOT/AOT_stimuli/rescaled_final/2060_fw.mp4	0.0	416.364382982254	0.1004781723022461
12	373.28994512557983	fix_pre	0		120	10.0	2.5	/experiments/AOT/AOT_stimuli/rescaled_final/0244_rv.mp4	0.0	416.4648611545563	0.9998888969421387
12	373.4733121395111	pulse	0	t		10.0	2.5	/experiments/AOT/AOT_stimuli/rescaled_final/0244_rv.mp4	0.0	416.64822816848755	
12	374.289834022522	movie	1		244	10.0	2.5	/experiments/AOT/AOT_stimuli/rescaled_final/0244_rv.mp4	0.0	417.4647500514984	2.499953031539917
12	375.07333111763	pulse	1	t		10.0	2.5	/experiments/AOT/AOT_stimuli/rescaled_final/0244_rv.mp4	0.0	418.24824714660645	
12	376.67190313339233	pulse	1	t		10.0	2.5	/experiments/AOT/AOT_stimuli/rescaled_final/0244_rv.mp4	0.0	419.8468191623688	
12	376.7897870540619	fix_post	2		12	10.0	2.5	/experiments/AOT/AOT_stimuli/rescaled_final/0244_rv.mp4	0.0	419.96470308303833	0.10005497932434082
13	376.88984203338623	fix_pre	0		120	11.0	2.5	/experiments/AOT/AOT_stimuli/rescaled_final/0159_fw.mp4	0.0	420.06475806236267	0.9999301433563232
13	377.88977217674255	movie	1		243	11.0	2.5	/experiments/AOT/AOT_stimuli/rescaled_final/0159_fw.mp4	0.0	421.064688205719	2.500062942504883
13	378.27289509773254	pulse	1	t		11.0	2.5	/experiments/AOT/AOT_stimuli/rescaled_final/0159_fw.mp4	0.0	421.447811126709	
13	379.8733229637146	pulse	1	t		11.0	2.5	/experiments/AOT/AOT_stimuli/rescaled_final/0159_fw.mp4	0.0	423.04823899269104	
13	380.38983511924744	fix_post	2		12	11.0	2.5	/experiments/AOT/AOT_stimuli/rescaled_final/0159_fw.mp4	0.0	423.5647511482239	0.10004186630249023
14	380.4898769855499	fix_pre	0		119	12.0	2.5	blank	1.0	423.66479301452637	0.9911601543426514
14	381.4728829860687	pulse	0	t		12.0	2.5	blank	1.0	424.64779901504517	
14	381.4810371398926	movie	1		301	12.0	2.5	blank	1.0	424.655953168869	2.5086119174957275
14	383.07304310798645	pulse	1	t		12.0	2.5	blank	1.0	426.2479591369629	
14	383.9896490573883	fix_post	2		12	12.0	2.5	blank	1.0	427.16456508636475	0.0999901294708252
15	384.08963918685913	fix_pre	0		120	13.0	2.5	/experiments/AOT/AOT_stimuli/rescaled_final/0213_rv.mp4	0.0	427.26455521583557	1.0002408027648926
15	384.67323112487793	pulse	0	t		13.0	2.5	/experiments/AOT/AOT_stimuli/rescaled_final/0213_rv.mp4	0.0	427.84814715385437	
15	385.089879989624	movie	1		245	13.0	2.5	/experiments/AOT/AOT_stimuli/rescaled_final/0213_rv.mp4	0.0	428.26479601860046	2.4994640350341797
15	386.27331614494324	pulse	1	t		13.0	2.5	/experiments/AOT/AOT_stimuli/rescaled_final/0213_rv.mp4	0.0	429.4482321739197	
15	387.5893440246582	fix_post	2		12	13.0	2.5	/experiments/AOT/AOT_stimuli/rescaled_final/0213_rv.mp4	0.0	430.76426005363464	0.10038304328918457
16	387.6897270679474	fix_pre	0		120	14.0	2.5	/experiments/AOT/AOT_stimuli/rescaled_final/0946_rv.mp4	0.0	430.8646430969238	1.0000770092010498
16	387.87331199645996	pulse	0	t		14.0	2.5	/experiments/AOT/AOT_stimuli/rescaled_final/0946_rv.mp4	0.0	431.0482280254364	
16	388.68980407714844	movie	1		243	14.0	2.5	/experiments/AOT/AOT_stimuli/rescaled_final/0946_rv.mp4	0.0	431.8647201061249	2.4999680519104004
16	389.4732301235199	pulse	1	t		14.0	2.5	/experiments/AOT/AOT_stimuli/rescaled_final/0946_rv.mp4	0.0	432.64814615249634	
16	391.0816490650177	pulse	1	t		14.0	2.5	/experiments/AOT/AOT_stimuli/rescaled_final/0946_rv.mp4	0.0	434.25656509399414	
16	391.18977212905884	fix_post	2		12	14.0	2.5	/experiments/AOT/AOT_stimuli/rescaled_final/0946_rv.mp4	0.0	434.3646881580353	0.10004496574401855
17	391.28981709480286	fix_pre	0		120	15.0	2.5	/experiments/AOT/AOT_stimuli/rescaled_final/0214_rv.mp4	0.0	434.4647331237793	0.9999868869781494
17	392.289803981781	movie	1		243	15.0	2.5	/experiments/AOT/AOT_stimuli/rescaled_final/0214_rv.mp4	0.0	435.46472001075745	2.4999141693115234
17	392.67303013801575	pulse	1	t		15.0	2.5	/experiments/AOT/AOT_stimuli/rescaled_final/0214_rv.mp4	0.0	435.8479461669922	
17	394.27317905426025	pulse	1	t		15.0	2.5	/experiments/AOT/AOT_stimuli/rescaled_final/0214_rv.mp4	0.0	437.4480950832367	
17	394.78971815109253	fix_post	2		12	15.0	2.5	/experiments/AOT/AOT_stimuli/rescaled_final/0214_rv.mp4	0.0	437.96463418006897	0.09964895248413086
18	394.88936710357666	fix_pre	0		119	16.0	2.5	/experiments/AOT/AOT_stimuli/rescaled_final/1173_fw.mp4	0.0	438.0642831325531	0.992042064666748
18	395.87320017814636	pulse	0	t		16.0	2.5	/experiments/AOT/AOT_stimuli/rescaled_final/1173_fw.mp4	0.0	439.0481162071228	
18	395.8814091682434	movie	1		246	16.0	2.5	/experiments/AOT/AOT_stimuli/rescaled_final/1173_fw.mp4	0.0	439.05632519721985	2.5083038806915283
18	397.4727120399475	pulse	1	t		16.0	2.5	/experiments/AOT/AOT_stimuli/rescaled_final/1173_fw.mp4	0.0	440.64762806892395	
18	398.38971304893494	fix_post	2		12	16.0	2.5	/experiments/AOT/AOT_stimuli/rescaled_final/1173_fw.mp4	0.0	441.5646290779114	0.10005807876586914
19	398.4897711277008	fix_pre	0		120	17.0	2.5	/experiments/AOT/AOT_stimuli/rescaled_final/0561_fw.mp4	0.0	441.66468715667725	0.9999039173126221
19	399.0734360218048	pulse	0	t		17.0	2.5	/experiments/AOT/AOT_stimuli/rescaled_final/0561_fw.mp4	0.0	442.24835205078125	
19	399.4896750450134	movie	1		243	17.0	2.5	/experiments/AOT/AOT_stimuli/rescaled_final/0561_fw.mp4	0.0	442.66459107398987	2.500046968460083
19	400.6732611656189	pulse	1	t		17.0	2.5	/experiments/AOT/AOT_stimuli/rescaled_final/0561_fw.mp4	0.0	443.84817719459534	
19	401.9897220134735	fix_post	2		12	17.0	2.5	/experiments/AOT/AOT_stimuli/rescaled_final/0561_fw.mp4	0.0	445.16463804244995	0.10000205039978027
20	402.0897240638733	fix_pre	0		120	18.0	2.5	/experiments/AOT/AOT_stimuli/rescaled_final/1462_fw.mp4	0.0	445.26464009284973	0.9999411106109619
20	402.2731981277466	pulse	0	t		18.0	2.5	/experiments/AOT/AOT_stimuli/rescaled_final/1462_fw.mp4	0.0	445.448114156723	
20	403.08966517448425	movie	1		249	18.0	2.5	/experiments/AOT/AOT_stimuli/rescaled_final/1462_fw.mp4	0.0	446.2645812034607	2.500077962875366
20	403.87323904037476	pulse	1	t		18.0	2.5	/experiments/AOT/AOT_stimuli/rescaled_final/1462_fw.mp4	0.0	447.0481550693512	
20	405.4732849597931	pulse	1	t		18.0	2.5	/experiments/AOT/AOT_stimuli/rescaled_final/1462_fw.mp4	0.0	448.64820098876953	
20	405.5897431373596	fix_post	2		12	18.0	2.5	/experiments/AOT/AOT_stimuli/rescaled_final/1462_fw.mp4	0.0	448.76465916633606	0.09996795654296875
21	405.6897110939026	fix_pre	0		120	19.0	2.5	/experiments/AOT/AOT_stimuli/rescaled_final/0746_rv.mp4	0.0	448.864627122879	1.000035047531128
21	406.6897461414337	movie	1		247	19.0	2.5	/experiments/AOT/AOT_stimuli/rescaled_final/0746_rv.mp4	0.0	449.86466217041016	2.499929904937744
21	407.0729081630707	pulse	1	t		19.0	2.5	/experiments/AOT/AOT_stimuli/rescaled_final/0746_rv.mp4	0.0	450.2478241920471	
21	408.67319416999817	pulse	1	t		19.0	2.5	/experiments/AOT/AOT_stimuli/rescaled_final/0746_rv.mp4	0.0	451.8481101989746	
21	409.18967604637146	fix_post	2		12	19.0	2.5	/experiments/AOT/AOT_stimuli/rescaled_final/0746_rv.mp4	0.0	452.3645920753479	0.09996604919433594
22	409.2896420955658	fix_pre	0		119	20.0	2.5	blank	1.0	452.46455812454224	0.9916648864746094
22	410.27319407463074	pulse	0	t		20.0	2.5	blank	1.0	453.4481101036072	
22	410.2813069820404	movie	1		301	20.0	2.5	blank	1.0	453.45622301101685	2.5084261894226074
22	411.8731429576874	pulse	1	t		20.0	2.5	blank	1.0	455.0480589866638	
22	412.789733171463	fix_post	2		12	20.0	2.5	blank	1.0	455.96464920043945	0.1000208854675293
23	412.88975405693054	fix_pre	0		120	21.0	2.5	/experiments/AOT/AOT_stimuli/rescaled_final/0669_rv.mp4	0.0	456.064670085907	0.9999680519104004
23	413.47317814826965	pulse	0	t		21.0	2.5	/experiments/AOT/AOT_stimuli/rescaled_final/0669_rv.mp4	0.0	456.6480941772461	
23	413.88972210884094	movie	1		244	21.0	2.5	/experiments/AOT/AOT_stimuli/rescaled_final/0669_rv.mp4	0.0	457.0646381378174	2.4995310306549072
23	415.07324409484863	pulse	1	t		21.0	2.5	/experiments/AOT/AOT_stimuli/rescaled_final/0669_rv.mp4	0.0	458.2481601238251	
23	416.38925313949585	fix_post	2		12	21.0	2.5	/experiments/AOT/AOT_stimuli/rescaled_final/0669_rv.mp4	0.0	459.5641691684723	0.10040998458862305
24	416.4896631240845	fix_pre	0		120	22.0	2.5	/experiments/AOT/AOT_stimuli/rescaled_final/2087_rv.mp4	0.0	459.6645791530609	0.9999940395355225
24	416.67316818237305	pulse	0	t		22.0	2.5	/experiments/AOT/AOT_stimuli/rescaled_final/2087_rv.mp4	0.0	459.8480842113495	
24	417.48965716362	movie	1		243	22.0	2.5	/experiments/AOT/AOT_stimuli/rescaled_final/2087_rv.mp4	0.0	460.66457319259644	2.499971866607666
24	418.2731339931488	pulse	1	t		22.0	2.5	/experiments/AOT/AOT_stimuli/rescaled_final/2087_rv.mp4	0.0	461.44805002212524	
24	419.8814811706543	pulse	1	t		22.0	2.5	/experiments/AOT/AOT_stimuli/rescaled_final/2087_rv.mp4	0.0	463.05639719963074	
24	419.98962903022766	fix_post	2		12	22.0	2.5	/experiments/AOT/AOT_stimuli/rescaled_final/2087_rv.mp4	0.0	463.1645450592041	0.1000051498413086
25	420.08963418006897	fix_pre	0		120	23.0	2.5	/experiments/AOT/AOT_stimuli/rescaled_final/0444_fw.mp4	0.0	463.2645502090454	1.0001518726348877
25	421.08978605270386	movie	1		243	23.0	2.5	/experiments/AOT/AOT_stimuli/rescaled_final/0444_fw.mp4	0.0	464.2647020816803	2.499462127685547
25	421.472815990448	pulse	1	t		23.0	2.5	/experiments/AOT/AOT_stimuli/rescaled_final/0444_fw.mp4	0.0	464.64773201942444	
25	423.0730621814728	pulse	1	t		23.0	2.5	/experiments/AOT/AOT_stimuli/rescaled_final/0444_fw.mp4	0.0	466.2479782104492	
25	423.5892481803894	fix_post	2		12	23.0	2.5	/experiments/AOT/AOT_stimuli/rescaled_final/0444_fw.mp4	0.0	466.76416420936584	0.10033679008483887
26	423.68958497047424	fix_pre	0		119	24.0	2.5	/experiments/AOT/AOT_stimuli/rescaled_final/1355_rv.mp4	0.0	466.8645009994507	0.9917240142822266
26	424.67310404777527	pulse	0	t		24.0	2.5	/experiments/AOT/AOT_stimuli/rescaled_final/1355_rv.mp4	0.0	467.8480200767517	
26	424.68130898475647	movie	1		246	24.0	2.5	/experiments/AOT/AOT_stimuli/rescaled_final/1355_rv.mp4	0.0	467.8562250137329	2.508305072784424
26	426.272803068161	pulse	1	t		24.0	2.5	/experiments/AOT/AOT_stimuli/rescaled_final/1355_rv.mp4	0.0	469.44771909713745	
26	427.1896140575409	fix_post	2		12	24.0	2.5	/experiments/AOT/AOT_stimuli/rescaled_final/1355_rv.mp4	0.0	470.36453008651733	0.09998106956481934
27	427.2895951271057	fix_pre	0		120	25.0	2.5	/experiments/AOT/AOT_stimuli/rescaled_final/0946_rv.mp4	0.0	470.46451115608215	1.0000219345092773
27	427.87318205833435	pulse	0	t		25.0	2.5	/experiments/AOT/AOT_stimuli/rescaled_final/0946_rv.mp4	0.0	471.0480980873108	
27	428.289617061615	movie	1		243	25.0	2.5	/experiments/AOT/AOT_stimuli/rescaled_final/0946_rv.mp4	0.0	471.46453309059143	2.4999589920043945
27	429.47314500808716	pulse	1	t		25.0	2.5	/experiments/AOT/AOT_stimuli/rescaled_final/0946_rv.mp4	0.0	472.6480610370636	
27	430.7895760536194	fix_post	2		12	25.0	2.5	/experiments/AOT/AOT_stimuli/rescaled_final/0946_rv.mp4	0.0	473.9644920825958	0.10002398490905762
28	430.88960003852844	fix_pre	0		120	26.0	2.5	/experiments/AOT/AOT_stimuli/rescaled_final/1958_fw.mp4	0.0	474.0645160675049	0.9999821186065674
28	431.0731451511383	pulse	0	t		26.0	2.5	/experiments/AOT/AOT_stimuli/rescaled_final/1958_fw.mp4	0.0	474.24806118011475	
28	431.889582157135	movie	1		243	26.0	2.5	/experiments/AOT/AOT_stimuli/rescaled_final/1958_fw.mp4	0.0	475.06449818611145	2.500013828277588
28	432.6730761528015	pulse	1	t		26.0	2.5	/experiments/AOT/AOT_stimuli/rescaled_final/1958_fw.mp4	0.0	475.84799218177795	
28	434.28137016296387	pulse	1	t		26.0	2.5	/experiments/AOT/AOT_stimuli/rescaled_final/1958_fw.mp4	0.0	477.4562861919403	
28	434.3895959854126	fix_post	2		12	26.0	2.5	/experiments/AOT/AOT_stimuli/rescaled_final/1958_fw.mp4	0.0	477.56451201438904	0.09995102882385254
29	434.48954701423645	fix_pre	0		120	27.0	2.5	blank	1.0	477.6644630432129	1.0000150203704834
29	435.48956203460693	movie	1		300	27.0	2.5	blank	1.0	478.6644780635834	2.5000181198120117
29	435.8730671405792	pulse	1	t		27.0	2.5	blank	1.0	479.04798316955566	
29	437.47303104400635	pulse	1	t		27.0	2.5	blank	1.0	480.6479470729828	
29	437.98958015441895	fix_post	2		12	27.0	2.5	blank	1.0	481.1644961833954	0.09957480430603027
30	438.089154958725	fix_pre	0		119	28.0	2.5	/experiments/AOT/AOT_stimuli/rescaled_final/1580_rv.mp4	0.0	481.2640709877014	0.9918022155761719
30	439.07273602485657	pulse	0	t		28.0	2.5	/experiments/AOT/AOT_stimuli/rescaled_final/1580_rv.mp4	0.0	482.247652053833	
30	439.08095717430115	movie	1		245	28.0	2.5	/experiments/AOT/AOT_stimuli/rescaled_final/1580_rv.mp4	0.0	482.2558732032776	2.5086398124694824
30	440.6724441051483	pulse	1	t		28.0	2.5	/experiments/AOT/AOT_stimuli/rescaled_final/1580_rv.mp4	0.0	483.84736013412476	
30	441.58959698677063	fix_post	2		12	28.0	2.5	/experiments/AOT/AOT_stimuli/rescaled_final/1580_rv.mp4	0.0	484.76451301574707	0.09992814064025879
31	441.6895251274109	fix_pre	0		120	29.0	2.5	/experiments/AOT/AOT_stimuli/rescaled_final/0115_fw.mp4	0.0	484.86444115638733	1.0000178813934326
31	442.27299404144287	pulse	0	t		29.0	2.5	/experiments/AOT/AOT_stimuli/rescaled_final/0115_fw.mp4	0.0	485.4479100704193	
31	442.6895430088043	movie	1		245	29.0	2.5	/experiments/AOT/AOT_stimuli/rescaled_final/0115_fw.mp4	0.0	485.86445903778076	2.500067949295044
31	443.8729910850525	pulse	1	t		29.0	2.5	/experiments/AOT/AOT_stimuli/rescaled_final/0115_fw.mp4	0.0	487.04790711402893	
31	445.18961095809937	fix_post	2		12	29.0	2.5	/experiments/AOT/AOT_stimuli/rescaled_final/0115_fw.mp4	0.0	488.3645269870758	0.09991621971130371
32	445.28952717781067	fix_pre	0		120	30.0	2.5	/experiments/AOT/AOT_stimuli/rescaled_final/1553_fw.mp4	0.0	488.4644432067871	0.9995639324188232
32	445.47306203842163	pulse	0	t		30.0	2.5	/experiments/AOT/AOT_stimuli/rescaled_final/1553_fw.mp4	0.0	488.64797806739807	
32	446.2890911102295	movie	1		248	30.0	2.5	/experiments/AOT/AOT_stimuli/rescaled_final/1553_fw.mp4	0.0	489.46400713920593	2.5000219345092773
32	447.0729761123657	pulse	1	t		30.0	2.5	/experiments/AOT/AOT_stimuli/rescaled_final/1553_fw.mp4	0.0	490.24789214134216	
32	448.67245411872864	pulse	1	t		30.0	2.5	/experiments/AOT/AOT_stimuli/rescaled_final/1553_fw.mp4	0.0	491.8473701477051	
32	448.78911304473877	fix_post	2		12	30.0	2.5	/experiments/AOT/AOT_stimuli/rescaled_final/1553_fw.mp4	0.0	491.9640290737152	0.10036110877990723
33	448.8894741535187	fix_pre	0		120	31.0	2.5	/experiments/AOT/AOT_stimuli/rescaled_final/1638_rv.mp4	0.0	492.0643901824951	0.9999969005584717
33	449.88947105407715	movie	1		246	31.0	2.5	/experiments/AOT/AOT_stimuli/rescaled_final/1638_rv.mp4	0.0	493.0643870830536	2.5000619888305664
33	450.2723059654236	pulse	1	t		31.0	2.5	/experiments/AOT/AOT_stimuli/rescaled_final/1638_rv.mp4	0.0	493.4472219944	
33	451.87295508384705	pulse	1	t		31.0	2.5	/experiments/AOT/AOT_stimuli/rescaled_final/1638_rv.mp4	0.0	495.0478711128235	
33	452.3895330429077	fix_post	2		12	31.0	2.5	/experiments/AOT/AOT_stimuli/rescaled_final/1638_rv.mp4	0.0	495.56444907188416	0.09993100166320801
34	452.4894640445709	fix_pre	0		119	32.0	2.5	/experiments/AOT/AOT_stimuli/rescaled_final/0951_fw.mp4	0.0	495.66438007354736	0.9916489124298096
34	453.47287106513977	pulse	0	t		32.0	2.5	/experiments/AOT/AOT_stimuli/rescaled_final/0951_fw.mp4	0.0	496.6477870941162	
34	453.48111295700073	movie	1		247	32.0	2.5	/experiments/AOT/AOT_stimuli/rescaled_final/0951_fw.mp4	0.0	496.6560289859772	2.508305072784424
34	455.07273411750793	pulse	1	t		32.0	2.5	/experiments/AOT/AOT_stimuli/rescaled_final/0951_fw.mp4	0.0	498.2476501464844	
34	455.98941802978516	fix_post	2		12	32.0	2.5	/experiments/AOT/AOT_stimuli/rescaled_final/0951_fw.mp4	0.0	499.1643340587616	0.09998703002929688
35	456.08940505981445	fix_pre	0		120	33.0	2.5	/experiments/AOT/AOT_stimuli/rescaled_final/1336_rv.mp4	0.0	499.2643210887909	1.0000579357147217
35	456.672975063324	pulse	0	t		33.0	2.5	/experiments/AOT/AOT_stimuli/rescaled_final/1336_rv.mp4	0.0	499.8478910923004	
35	457.0894629955292	movie	1		244	33.0	2.5	/experiments/AOT/AOT_stimuli/rescaled_final/1336_rv.mp4	0.0	500.2643790245056	2.5000531673431396
35	458.2729890346527	pulse	1	t		33.0	2.5	/experiments/AOT/AOT_stimuli/rescaled_final/1336_rv.mp4	0.0	501.44790506362915	
35	459.5895161628723	fix_post	2		12	33.0	2.5	/experiments/AOT/AOT_stimuli/rescaled_final/1336_rv.mp4	0.0	502.76443219184875	0.09992384910583496
36	459.68944001197815	fix_pre	0		120	34.0	2.5	blank	1.0	502.8643560409546	1.0000269412994385
36	459.87289595603943	pulse	0	t		34.0	2.5	blank	1.0	503.04781198501587	
36	460.6894669532776	movie	1		300	34.0	2.5	blank	1.0	503.864382982254	2.4999091625213623
36	461.47291016578674	pulse	1	t		34.0	2.5	blank	1.0	504.6478261947632	
36	463.0729241371155	pulse	1	t		34.0	2.5	blank	1.0	506.2478401660919	
36	463.18937611579895	fix_post	2		12	34.0	2.5	blank	1.0	506.3642921447754	0.09999895095825195
37	463.2893750667572	fix_pre	0		120	35.0	2.5	/experiments/AOT/AOT_stimuli/rescaled_final/0051_rv.mp4	0.0	506.46429109573364	1.000046968460083
37	464.2894220352173	movie	1		243	35.0	2.5	/experiments/AOT/AOT_stimuli/rescaled_final/0051_rv.mp4	0.0	507.4643380641937	2.499937057495117
37	464.67259097099304	pulse	1	t		35.0	2.5	/experiments/AOT/AOT_stimuli/rescaled_final/0051_rv.mp4	0.0	507.8475069999695	
37	466.2728819847107	pulse	1	t		35.0	2.5	/experiments/AOT/AOT_stimuli/rescaled_final/0051_rv.mp4	0.0	509.44779801368713	
37	466.7893590927124	fix_post	2		12	35.0	2.5	/experiments/AOT/AOT_stimuli/rescaled_final/0051_rv.mp4	0.0	509.96427512168884	0.09999608993530273
38	466.8893551826477	fix_pre	0		119	36.0	2.5	/experiments/AOT/AOT_stimuli/rescaled_final/1768_fw.mp4	0.0	510.06427121162415	0.9916388988494873
38	467.8729090690613	pulse	0	t		36.0	2.5	/experiments/AOT/AOT_stimuli/rescaled_final/1768_fw.mp4	0.0	511.0478250980377	
38	467.8809940814972	movie	1		246	36.0	2.5	/experiments/AOT/AOT_stimuli/rescaled_final/1768_fw.mp4	0.0	511.05591011047363	2.5083539485931396
38	469.4724111557007	pulse	1	t		36.0	2.5	/experiments/AOT/AOT_stimuli/rescaled_final/1768_fw.mp4	0.0	512.6473271846771	
38	470.38934803009033	fix_post	2		12	36.0	2.5	/experiments/AOT/AOT_stimuli/rescaled_final/1768_fw.mp4	0.0	513.5642640590668	0.10007715225219727
39	470.48942518234253	fix_pre	0		120	37.0	2.5	/experiments/AOT/AOT_stimuli/rescaled_final/0732_rv.mp4	0.0	513.664341211319	0.9999198913574219
39	471.072890996933	pulse	0	t		37.0	2.5	/experiments/AOT/AOT_stimuli/rescaled_final/0732_rv.mp4	0.0	514.2478070259094	
39	471.48934507369995	movie	1		246	37.0	2.5	/experiments/AOT/AOT_stimuli/rescaled_final/0732_rv.mp4	0.0	514.6642611026764	2.5001189708709717
39	472.6728551387787	pulse	1	t		37.0	2.5	/experiments/AOT/AOT_stimuli/rescaled_final/0732_rv.mp4	0.0	515.8477711677551	
39	473.9894640445709	fix_post	2		12	37.0	2.5	/experiments/AOT/AOT_stimuli/rescaled_final/0732_rv.mp4	0.0	517.1643800735474	0.09992194175720215
40	474.0893859863281	fix_pre	0		120	38.0	2.5	/experiments/AOT/AOT_stimuli/rescaled_final/0017_fw.mp4	0.0	517.2643020153046	1.0000641345977783
40	474.27278995513916	pulse	0	t		38.0	2.5	/experiments/AOT/AOT_stimuli/rescaled_final/0017_fw.mp4	0.0	517.4477059841156	
40	475.0894501209259	movie	1		244	38.0	2.5	/experiments/AOT/AOT_stimuli/rescaled_final/0017_fw.mp4	0.0	518.2643661499023	2.4999148845672607
40	475.8728530406952	pulse	1	t		38.0	2.5	/experiments/AOT/AOT_stimuli/rescaled_final/0017_fw.mp4	0.0	519.0477690696716	
40	477.47289299964905	pulse	1	t		38.0	2.5	/experiments/AOT/AOT_stimuli/rescaled_final/0017_fw.mp4	0.0	520.6478090286255	
40	477.58936500549316	fix_post	2		12	38.0	2.5	/experiments/AOT/AOT_stimuli/rescaled_final/0017_fw.mp4	0.0	520.7642810344696	0.10004901885986328
41	477.689414024353	fix_pre	0		120	39.0	2.5	/experiments/AOT/AOT_stimuli/rescaled_final/1467_fw.mp4	0.0	520.8643300533295	0.9999570846557617
41	478.6893711090088	movie	1		245	39.0	2.5	/experiments/AOT/AOT_stimuli/rescaled_final/1467_fw.mp4	0.0	521.8642871379852	2.4995169639587402
41	479.0725109577179	pulse	1	t		39.0	2.5	/experiments/AOT/AOT_stimuli/rescaled_final/1467_fw.mp4	0.0	522.2474269866943	
41	480.6728081703186	pulse	1	t		39.0	2.5	/experiments/AOT/AOT_stimuli/rescaled_final/1467_fw.mp4	0.0	523.847724199295	
41	481.18888807296753	fix_post	2		12	39.0	2.5	/experiments/AOT/AOT_stimuli/rescaled_final/1467_fw.mp4	0.0	524.363804101944	0.10047197341918945
42	481.2893600463867	fix_pre	0		119	40.0	2.5	/experiments/AOT/AOT_stimuli/rescaled_final/0732_rv.mp4	0.0	524.4642760753632	0.9915759563446045
42	482.27288913726807	pulse	0	t		40.0	2.5	/experiments/AOT/AOT_stimuli/rescaled_final/0732_rv.mp4	0.0	525.4478051662445	
42	482.2809360027313	movie	1		246	40.0	2.5	/experiments/AOT/AOT_stimuli/rescaled_final/0732_rv.mp4	0.0	525.4558520317078	2.508380174636841
42	483.8724880218506	pulse	1	t		40.0	2.5	/experiments/AOT/AOT_stimuli/rescaled_final/0732_rv.mp4	0.0	527.047404050827	
42	484.78931617736816	fix_post	2		12	40.0	2.5	/experiments/AOT/AOT_stimuli/rescaled_final/0732_rv.mp4	0.0	527.9642322063446	0.09999585151672363
43	484.8893120288849	fix_pre	0		120	41.0	2.5	blank	1.0	528.0642280578613	1.0000450611114502
43	485.47283411026	pulse	0	t		41.0	2.5	blank	1.0	528.6477501392365	
43	485.88935708999634	movie	1		300	41.0	2.5	blank	1.0	529.0642731189728	2.4998779296875
43	487.07282304763794	pulse	1	t		41.0	2.5	blank	1.0	530.2477390766144	
43	488.38923501968384	fix_post	2		12	41.0	2.5	blank	1.0	531.5641510486603	0.10009098052978516
44	488.4893260002136	fix_pre	0		120	42.0	2.5	/experiments/AOT/AOT_stimuli/rescaled_final/1298_fw.mp4	0.0	531.6642420291901	0.9999380111694336
44	488.67277908325195	pulse	0	t		42.0	2.5	/experiments/AOT/AOT_stimuli/rescaled_final/1298_fw.mp4	0.0	531.8476951122284	
44	489.48926401138306	movie	1		243	42.0	2.5	/experiments/AOT/AOT_stimuli/rescaled_final/1298_fw.mp4	0.0	532.6641800403595	2.500075101852417
44	490.2727680206299	pulse	1	t		42.0	2.5	/experiments/AOT/AOT_stimuli/rescaled_final/1298_fw.mp4	0.0	533.4476840496063	
44	491.88127398490906	pulse	1	t		42.0	2.5	/experiments/AOT/AOT_stimuli/rescaled_final/1298_fw.mp4	0.0	535.0561900138855	
44	491.9893391132355	fix_post	2		12	42.0	2.5	/experiments/AOT/AOT_stimuli/rescaled_final/1298_fw.mp4	0.0	535.1642551422119	0.09989404678344727
45	492.0892331600189	fix_pre	0		120	43.0	2.5	/experiments/AOT/AOT_stimuli/rescaled_final/1427_rv.mp4	0.0	535.2641491889954	1.0000178813934326
45	493.08925104141235	movie	1		247	43.0	2.5	/experiments/AOT/AOT_stimuli/rescaled_final/1427_rv.mp4	0.0	536.2641670703888	2.5003130435943604
45	493.4736080169678	pulse	1	t		43.0	2.5	/experiments/AOT/AOT_stimuli/rescaled_final/1427_rv.mp4	0.0	536.6485240459442	
45	495.0724711418152	pulse	1	t		43.0	2.5	/experiments/AOT/AOT_stimuli/rescaled_final/1427_rv.mp4	0.0	538.2473871707916	
45	495.5895640850067	fix_post	2		12	43.0	2.5	/experiments/AOT/AOT_stimuli/rescaled_final/1427_rv.mp4	0.0	538.7644801139832	0.0999600887298584
46	495.6895241737366	fix_pre	0		119	44.0	2.5	/experiments/AOT/AOT_stimuli/rescaled_final/0903_fw.mp4	0.0	538.864440202713	0.9914779663085938
46	496.6727330684662	pulse	0	t		44.0	2.5	/experiments/AOT/AOT_stimuli/rescaled_final/0903_fw.mp4	0.0	539.8476490974426	
46	496.68100214004517	movie	1		248	44.0	2.5	/experiments/AOT/AOT_stimuli/rescaled_final/0903_fw.mp4	0.0	539.8559181690216	2.507869005203247
46	498.2724030017853	pulse	1	t		44.0	2.5	/experiments/AOT/AOT_stimuli/rescaled_final/0903_fw.mp4	0.0	541.4473190307617	
46	499.1888711452484	fix_post	2		12	44.0	2.5	/experiments/AOT/AOT_stimuli/rescaled_final/0903_fw.mp4	0.0	542.3637871742249	0.10045599937438965
47	499.2893271446228	fix_pre	0		120	45.0	2.5	/experiments/AOT/AOT_stimuli/rescaled_final/2169_fw.mp4	0.0	542.4642431735992	0.9996058940887451
47	499.87408995628357	pulse	0	t		45.0	2.5	/experiments/AOT/AOT_stimuli/rescaled_final/2169_fw.mp4	0.0	543.04900598526	
47	500.28893303871155	movie	1		244	45.0	2.5	/experiments/AOT/AOT_stimuli/rescaled_final/2169_fw.mp4	0.0	543.463849067688	2.50034499168396
47	501.47289299964905	pulse	1	t		45.0	2.5	/experiments/AOT/AOT_stimuli/rescaled_final/2169_fw.mp4	0.0	544.6478090286255	
47	502.7892780303955	fix_post	2		12	45.0	2.5	/experiments/AOT/AOT_stimuli/rescaled_final/2169_fw.mp4	0.0	545.964194059372	0.10004210472106934
48	502.8893201351166	fix_pre	0		120	46.0	2.5	/experiments/AOT/AOT_stimuli/rescaled_final/0124_fw.mp4	0.0	546.064236164093	0.9999279975891113
48	503.0727450847626	pulse	0	t		46.0	2.5	/experiments/AOT/AOT_stimuli/rescaled_final/0124_fw.mp4	0.0	546.247661113739	
48	503.8892481327057	movie	1		243	46.0	2.5	/experiments/AOT/AOT_stimuli/rescaled_final/0124_fw.mp4	0.0	547.0641641616821	2.499600887298584
48	504.6727120876312	pulse	1	t		46.0	2.5	/experiments/AOT/AOT_stimuli/rescaled_final/0124_fw.mp4	0.0	547.8476281166077	
48	506.2812361717224	pulse	1	t		46.0	2.5	/experiments/AOT/AOT_stimuli/rescaled_final/0124_fw.mp4	0.0	549.4561522006989	
48	506.3888490200043	fix_post	2		12	46.0	2.5	/experiments/AOT/AOT_stimuli/rescaled_final/0124_fw.mp4	0.0	549.5637650489807	0.10035300254821777
49	506.4892020225525	fix_pre	0		120	47.0	2.5	/experiments/AOT/AOT_stimuli/rescaled_final/1943_fw.mp4	0.0	549.6641180515289	0.9996380805969238
49	507.4888401031494	movie	1		243	47.0	2.5	/experiments/AOT/AOT_stimuli/rescaled_final/1943_fw.mp4	0.0	550.6637561321259	2.4999899864196777
49	507.87291407585144	pulse	1	t		47.0	2.5	/experiments/AOT/AOT_stimuli/rescaled_final/1943_fw.mp4	0.0	551.0478301048279	
49	509.47264218330383	pulse	1	t		47.0	2.5	/experiments/AOT/AOT_stimuli/rescaled_final/1943_fw.mp4	0.0	552.6475582122803	
49	509.9888300895691	fix_post	2		12	47.0	2.5	/experiments/AOT/AOT_stimuli/rescaled_final/1943_fw.mp4	0.0	553.1637461185455	0.10040497779846191
50	510.08923506736755	fix_pre	0		119	48.0	2.5	/experiments/AOT/AOT_stimuli/rescaled_final/1665_fw.mp4	0.0	553.264151096344	0.991642951965332
50	511.07274103164673	pulse	0	t		48.0	2.5	/experiments/AOT/AOT_stimuli/rescaled_final/1665_fw.mp4	0.0	554.2476570606232	
50	511.0808780193329	movie	1		244	48.0	2.5	/experiments/AOT/AOT_stimuli/rescaled_final/1665_fw.mp4	0.0	554.2557940483093	2.508419990539551
50	512.6739041805267	pulse	1	t		48.0	2.5	/experiments/AOT/AOT_stimuli/rescaled_final/1665_fw.mp4	0.0	555.8488202095032	
50	513.5892980098724	fix_post	2		12	48.0	2.5	/experiments/AOT/AOT_stimuli/rescaled_final/1665_fw.mp4	0.0	556.7642140388489	0.09990215301513672
51	513.6892001628876	fix_pre	0		120	49.0	2.5	blank	1.0	556.864116191864	0.9999690055847168
51	514.2725491523743	pulse	0	t		49.0	2.5	blank	1.0	557.4474651813507	
51	514.6891691684723	movie	1		300	49.0	2.5	blank	1.0	557.8640851974487	2.4999659061431885
51	515.8727221488953	pulse	1	t		49.0	2.5	blank	1.0	559.0476381778717	
51	517.1891350746155	fix_post	2		12	49.0	2.5	blank	1.0	560.3640511035919	0.10010504722595215
52	517.2892401218414	fix_pre	0		120	50.0	2.5	/experiments/AOT/AOT_stimuli/rescaled_final/0124_fw.mp4	0.0	560.4641561508179	0.9995620250701904
52	517.4727091789246	pulse	0	t		50.0	2.5	/experiments/AOT/AOT_stimuli/rescaled_final/0124_fw.mp4	0.0	560.647625207901	
52	518.2888021469116	movie	1		244	50.0	2.5	/experiments/AOT/AOT_stimuli/rescaled_final/0124_fw.mp4	0.0	561.4637181758881	2.5004239082336426
52	519.072695016861	pulse	1	t		50.0	2.5	/experiments/AOT/AOT_stimuli/rescaled_final/0124_fw.mp4	0.0	562.2476110458374	
52	520.6726720333099	pulse	1	t		50.0	2.5	/experiments/AOT/AOT_stimuli/rescaled_final/0124_fw.mp4	0.0	563.8475880622864	
52	520.7892260551453	fix_post	2		12	50.0	2.5	/experiments/AOT/AOT_stimuli/rescaled_final/0124_fw.mp4	0.0	563.9641420841217	0.10001492500305176
53	520.8892409801483	fix_pre	0		120	51.0	2.5	/experiments/AOT/AOT_stimuli/rescaled_final/0388_rv.mp4	0.0	564.0641570091248	1.0000061988830566
53	521.8892471790314	movie	1		245	51.0	2.5	/experiments/AOT/AOT_stimuli/rescaled_final/0388_rv.mp4	0.0	565.0641632080078	2.4999918937683105
53	522.2733910083771	pulse	1	t		51.0	2.5	/experiments/AOT/AOT_stimuli/rescaled_final/0388_rv.mp4	0.0	565.4483070373535	
53	523.872663974762	pulse	1	t		51.0	2.5	/experiments/AOT/AOT_stimuli/rescaled_final/0388_rv.mp4	0.0	567.0475800037384	
53	524.3892390727997	fix_post	2		12	51.0	2.5	/experiments/AOT/AOT_stimuli/rescaled_final/0388_rv.mp4	0.0	567.5641551017761	0.09998202323913574
54	524.4892210960388	fix_pre	0		119	52.0	2.5	/experiments/AOT/AOT_stimuli/rescaled_final/1517_rv.mp4	0.0	567.6641371250153	0.9916350841522217
54	525.472697019577	pulse	0	t		52.0	2.5	/experiments/AOT/AOT_stimuli/rescaled_final/1517_rv.mp4	0.0	568.6476130485535	
54	525.480856180191	movie	1		244	52.0	2.5	/experiments/AOT/AOT_stimuli/rescaled_final/1517_rv.mp4	0.0	568.6557722091675	2.5083258152008057
54	527.0810880661011	pulse	1	t		52.0	2.5	/experiments/AOT/AOT_stimuli/rescaled_final/1517_rv.mp4	0.0	570.2560040950775	
54	527.9891819953918	fix_post	2		12	52.0	2.5	/experiments/AOT/AOT_stimuli/rescaled_final/1517_rv.mp4	0.0	571.1640980243683	0.10001897811889648
55	528.0892009735107	fix_pre	0		120	53.0	2.5	/experiments/AOT/AOT_stimuli/rescaled_final/0091_rv.mp4	0.0	571.2641170024872	0.9995121955871582
55	528.6726710796356	pulse	0	t		53.0	2.5	/experiments/AOT/AOT_stimuli/rescaled_final/0091_rv.mp4	0.0	571.8475871086121	
55	529.0887131690979	movie	1		246	53.0	2.5	/experiments/AOT/AOT_stimuli/rescaled_final/0091_rv.mp4	0.0	572.2636291980743	2.500067949295044
55	530.2727479934692	pulse	1	t		53.0	2.5	/experiments/AOT/AOT_stimuli/rescaled_final/0091_rv.mp4	0.0	573.4476640224457	
55	531.588781118393	fix_post	2		12	53.0	2.5	/experiments/AOT/AOT_stimuli/rescaled_final/0091_rv.mp4	0.0	574.7636971473694	0.10048985481262207
56	531.6892709732056	fix_pre	0		120	54.0	2.5	/experiments/AOT/AOT_stimuli/rescaled_final/1181_rv.mp4	0.0	574.864187002182	0.9998819828033447
56	531.8726890087128	pulse	0	t		54.0	2.5	/experiments/AOT/AOT_stimuli/rescaled_final/1181_rv.mp4	0.0	575.0476050376892	
56	532.6891529560089	movie	1		243	54.0	2.5	/experiments/AOT/AOT_stimuli/rescaled_final/1181_rv.mp4	0.0	575.8640689849854	2.499566078186035
56	533.4726209640503	pulse	1	t		54.0	2.5	/experiments/AOT/AOT_stimuli/rescaled_final/1181_rv.mp4	0.0	576.6475369930267	
56	535.0809631347656	pulse	1	t		54.0	2.5	/experiments/AOT/AOT_stimuli/rescaled_final/1181_rv.mp4	0.0	578.2558791637421	
56	535.188719034195	fix_post	2		12	54.0	2.5	/experiments/AOT/AOT_stimuli/rescaled_final/1181_rv.mp4	0.0	578.3636350631714	0.10042905807495117
57	535.2891480922699	fix_pre	0		120	55.0	2.5	blank	1.0	578.4640641212463	1.000074863433838
57	536.2892229557037	movie	1		300	55.0	2.5	blank	1.0	579.4641389846802	2.4994301795959473
57	536.6726720333099	pulse	1	t		55.0	2.5	blank	1.0	579.8475880622864	
57	538.2725830078125	pulse	1	t		55.0	2.5	blank	1.0	581.4474990367889	
57	538.7886531352997	fix_post	2		12	55.0	2.5	blank	1.0	581.9635691642761	0.10051202774047852
58	538.8891651630402	fix_pre	0		119	56.0	2.5	/experiments/AOT/AOT_stimuli/rescaled_final/0089_fw.mp4	0.0	582.0640811920166	0.9916319847106934
58	539.8726360797882	pulse	0	t		56.0	2.5	/experiments/AOT/AOT_stimuli/rescaled_final/0089_fw.mp4	0.0	583.0475521087646	
58	539.8807971477509	movie	1		246	56.0	2.5	/experiments/AOT/AOT_stimuli/rescaled_final/0089_fw.mp4	0.0	583.0557131767273	2.507882833480835
58	541.4721081256866	pulse	1	t		56.0	2.5	/experiments/AOT/AOT_stimuli/rescaled_final/0089_fw.mp4	0.0	584.6470241546631	
58	542.3886799812317	fix_post	2		12	56.0	2.5	/experiments/AOT/AOT_stimuli/rescaled_final/0089_fw.mp4	0.0	585.5635960102081	0.10043597221374512
59	542.4891159534454	fix_pre	0		120	57.0	2.5	/experiments/AOT/AOT_stimuli/rescaled_final/1580_fw.mp4	0.0	585.6640319824219	1.0000061988830566
59	543.0725951194763	pulse	0	t		57.0	2.5	/experiments/AOT/AOT_stimuli/rescaled_final/1580_fw.mp4	0.0	586.2475111484528	
59	543.4891221523285	movie	1		244	57.0	2.5	/experiments/AOT/AOT_stimuli/rescaled_final/1580_fw.mp4	0.0	586.6640381813049	2.49954891204834
59	544.6725990772247	pulse	1	t		57.0	2.5	/experiments/AOT/AOT_stimuli/rescaled_final/1580_fw.mp4	0.0	587.8475151062012	
59	545.9886710643768	fix_post	2		12	57.0	2.5	/experiments/AOT/AOT_stimuli/rescaled_final/1580_fw.mp4	0.0	589.1635870933533	0.10039496421813965
60	546.089066028595	fix_pre	0		120	58.0	2.5	/experiments/AOT/AOT_stimuli/rescaled_final/2013_rv.mp4	0.0	589.2639820575714	0.9999630451202393
60	546.2725200653076	pulse	0	t		58.0	2.5	/experiments/AOT/AOT_stimuli/rescaled_final/2013_rv.mp4	0.0	589.4474360942841	
60	547.0890290737152	movie	1		246	58.0	2.5	/experiments/AOT/AOT_stimuli/rescaled_final/2013_rv.mp4	0.0	590.2639451026917	2.5000150203704834
60	547.8726170063019	pulse	1	t		58.0	2.5	/experiments/AOT/AOT_stimuli/rescaled_final/2013_rv.mp4	0.0	591.0475330352783	
60	549.4725229740143	pulse	1	t		58.0	2.5	/experiments/AOT/AOT_stimuli/rescaled_final/2013_rv.mp4	0.0	592.6474390029907	
60	549.5890440940857	fix_post	2		12	58.0	2.5	/experiments/AOT/AOT_stimuli/rescaled_final/2013_rv.mp4	0.0	592.7639601230621	0.10002994537353516
61	549.6890740394592	fix_pre	0		120	59.0	2.5	/experiments/AOT/AOT_stimuli/rescaled_final/0951_fw.mp4	0.0	592.8639900684357	1.000082015991211
61	550.6891560554504	movie	1		246	59.0	2.5	/experiments/AOT/AOT_stimuli/rescaled_final/0951_fw.mp4	0.0	593.8640720844269	2.4998559951782227
61	551.0722811222076	pulse	1	t		59.0	2.5	/experiments/AOT/AOT_stimuli/rescaled_final/0951_fw.mp4	0.0	594.2471971511841	
61	552.6726009845734	pulse	1	t		59.0	2.5	/experiments/AOT/AOT_stimuli/rescaled_final/0951_fw.mp4	0.0	595.8475170135498	
61	553.1890120506287	fix_post	2		12	59.0	2.5	/experiments/AOT/AOT_stimuli/rescaled_final/0951_fw.mp4	0.0	596.3639280796051	0.10004806518554688
62	553.2890601158142	fix_pre	0		119	60.0	2.5	/experiments/AOT/AOT_stimuli/rescaled_final/1364_rv.mp4	0.0	596.4639761447906	0.9916279315948486
62	554.2724261283875	pulse	0	t		60.0	2.5	/experiments/AOT/AOT_stimuli/rescaled_final/1364_rv.mp4	0.0	597.4473421573639	
62	554.2806880474091	movie	1		246	60.0	2.5	/experiments/AOT/AOT_stimuli/rescaled_final/1364_rv.mp4	0.0	597.4556040763855	2.5083110332489014
62	555.8722879886627	pulse	1	t		60.0	2.5	/experiments/AOT/AOT_stimuli/rescaled_final/1364_rv.mp4	0.0	599.0472040176392	
62	556.788999080658	fix_post	2		12	60.0	2.5	/experiments/AOT/AOT_stimuli/rescaled_final/1364_rv.mp4	0.0	599.9639151096344	0.09991788864135742
63	556.8889169692993	fix_pre	0		120	61.0	2.5	/experiments/AOT/AOT_stimuli/rescaled_final/1733_fw.mp4	0.0	600.0638329982758	1.000042200088501
63	557.4731891155243	pulse	0	t		61.0	2.5	/experiments/AOT/AOT_stimuli/rescaled_final/1733_fw.mp4	0.0	600.6481051445007	
63	557.8889591693878	movie	1		243	61.0	2.5	/experiments/AOT/AOT_stimuli/rescaled_final/1733_fw.mp4	0.0	601.0638751983643	2.49995493888855
63	559.0725450515747	pulse	1	t		61.0	2.5	/experiments/AOT/AOT_stimuli/rescaled_final/1733_fw.mp4	0.0	602.2474610805511	
63	560.3889141082764	fix_post	2		12	61.0	2.5	/experiments/AOT/AOT_stimuli/rescaled_final/1733_fw.mp4	0.0	603.5638301372528	0.10003495216369629
64	560.4889490604401	fix_pre	0		120	62.0	2.5	blank	1.0	603.6638650894165	0.9999699592590332
64	560.6724350452423	pulse	0	t		62.0	2.5	blank	1.0	603.8473510742188	
64	561.4889190196991	movie	1		300	62.0	2.5	blank	1.0	604.6638350486755	2.499997138977051
64	562.2723941802979	pulse	1	t		62.0	2.5	blank	1.0	605.4473102092743	
64	563.872416973114	pulse	1	t		62.0	2.5	blank	1.0	607.0473330020905	
64	563.9889161586761	fix_post	2		12	62.0	2.5	blank	1.0	607.1638321876526	0.1000068187713623
65	564.0889229774475	fix_pre	0		120	63.0	2.5	/experiments/AOT/AOT_stimuli/rescaled_final/1505_rv.mp4	0.0	607.263839006424	1.0000040531158447
65	565.0889270305634	movie	1		245	63.0	2.5	/experiments/AOT/AOT_stimuli/rescaled_final/1505_rv.mp4	0.0	608.2638430595398	2.499994993209839
65	565.4808349609375	pulse	1	t		63.0	2.5	/experiments/AOT/AOT_stimuli/rescaled_final/1505_rv.mp4	0.0	608.6557509899139	
65	567.0723550319672	pulse	1	t		63.0	2.5	/experiments/AOT/AOT_stimuli/rescaled_final/1505_rv.mp4	0.0	610.2472710609436	
65	567.5889220237732	fix_post	2		12	63.0	2.5	/experiments/AOT/AOT_stimuli/rescaled_final/1505_rv.mp4	0.0	610.7638380527496	0.10001111030578613
66	567.688933134079	fix_pre	0		119	64.0	2.5	/experiments/AOT/AOT_stimuli/rescaled_final/1653_fw.mp4	0.0	610.8638491630554	0.9915988445281982
66	568.6724259853363	pulse	0	t		64.0	2.5	/experiments/AOT/AOT_stimuli/rescaled_final/1653_fw.mp4	0.0	611.8473420143127	
66	568.6805319786072	movie	1		246	64.0	2.5	/experiments/AOT/AOT_stimuli/rescaled_final/1653_fw.mp4	0.0	611.8554480075836	2.5081000328063965
66	570.2719440460205	pulse	1	t		64.0	2.5	/experiments/AOT/AOT_stimuli/rescaled_final/1653_fw.mp4	0.0	613.446860074997	
66	571.1886320114136	fix_post	2		12	64.0	2.5	/experiments/AOT/AOT_stimuli/rescaled_final/1653_fw.mp4	0.0	614.36354804039	0.10032105445861816
67	571.2889530658722	fix_pre	0		120	65.0	2.5	/experiments/AOT/AOT_stimuli/rescaled_final/0914_fw.mp4	0.0	614.4638690948486	1.0000219345092773
67	571.8724141120911	pulse	0	t		65.0	2.5	/experiments/AOT/AOT_stimuli/rescaled_final/0914_fw.mp4	0.0	615.0473301410675	
67	572.2889750003815	movie	1		246	65.0	2.5	/experiments/AOT/AOT_stimuli/rescaled_final/0914_fw.mp4	0.0	615.4638910293579	2.499994993209839
67	573.4724071025848	pulse	1	t		65.0	2.5	/experiments/AOT/AOT_stimuli/rescaled_final/0914_fw.mp4	0.0	616.6473231315613	
67	574.7889699935913	fix_post	2		12	65.0	2.5	/experiments/AOT/AOT_stimuli/rescaled_final/0914_fw.mp4	0.0	617.9638860225677	0.09998917579650879
68	574.8889591693878	fix_pre	0		120	66.0	2.5	/experiments/AOT/AOT_stimuli/rescaled_final/2126_fw.mp4	0.0	618.0638751983643	0.9999468326568604
68	575.0726001262665	pulse	0	t		66.0	2.5	/experiments/AOT/AOT_stimuli/rescaled_final/2126_fw.mp4	0.0	618.2475161552429	
68	575.8889060020447	movie	1		243	66.0	2.5	/experiments/AOT/AOT_stimuli/rescaled_final/2126_fw.mp4	0.0	619.0638220310211	2.4999890327453613
68	576.6732301712036	pulse	1	t		66.0	2.5	/experiments/AOT/AOT_stimuli/rescaled_final/2126_fw.mp4	0.0	619.84814620018	
68	578.2809391021729	pulse	1	t		66.0	2.5	/experiments/AOT/AOT_stimuli/rescaled_final/2126_fw.mp4	0.0	621.4558551311493	
68	578.38889503479	fix_post	2		12	66.0	2.5	/experiments/AOT/AOT_stimuli/rescaled_final/2126_fw.mp4	0.0	621.5638110637665	0.09992694854736328
69	578.4888219833374	fix_pre	0		120	67.0	2.5	/experiments/AOT/AOT_stimuli/rescaled_final/1443_fw.mp4	0.0	621.6637380123138	1.0000941753387451
69	579.4889161586761	movie	1		244	67.0	2.5	/experiments/AOT/AOT_stimuli/rescaled_final/1443_fw.mp4	0.0	622.6638321876526	2.4998998641967773
69	579.8807141780853	pulse	1	t		67.0	2.5	/experiments/AOT/AOT_stimuli/rescaled_final/1443_fw.mp4	0.0	623.0556302070618	
69	581.4723410606384	pulse	1	t		67.0	2.5	/experiments/AOT/AOT_stimuli/rescaled_final/1443_fw.mp4	0.0	624.6472570896149	
69	581.9888160228729	fix_post	2		12	67.0	2.5	/experiments/AOT/AOT_stimuli/rescaled_final/1443_fw.mp4	0.0	625.1637320518494	0.10006499290466309
70	582.0888810157776	fix_pre	0		119	68.0	2.5	/experiments/AOT/AOT_stimuli/rescaled_final/0158_rv.mp4	0.0	625.263797044754	0.9916081428527832
70	583.0723481178284	pulse	0	t		68.0	2.5	/experiments/AOT/AOT_stimuli/rescaled_final/0158_rv.mp4	0.0	626.2472641468048	
70	583.0804891586304	movie	1		244	68.0	2.5	/experiments/AOT/AOT_stimuli/rescaled_final/0158_rv.mp4	0.0	626.2554051876068	2.5084450244903564
70	584.6721880435944	pulse	1	t		68.0	2.5	/experiments/AOT/AOT_stimuli/rescaled_final/0158_rv.mp4	0.0	627.8471040725708	
70	585.5889341831207	fix_post	2		12	68.0	2.5	/experiments/AOT/AOT_stimuli/rescaled_final/0158_rv.mp4	0.0	628.7638502120972	0.09994697570800781
71	585.6888811588287	fix_pre	0		120	69.0	2.5	/experiments/AOT/AOT_stimuli/rescaled_final/0777_rv.mp4	0.0	628.8637971878052	1.0000669956207275
71	586.2723300457001	pulse	0	t		69.0	2.5	/experiments/AOT/AOT_stimuli/rescaled_final/0777_rv.mp4	0.0	629.4472460746765	
71	586.6889481544495	movie	1		244	69.0	2.5	/experiments/AOT/AOT_stimuli/rescaled_final/0777_rv.mp4	0.0	629.8638641834259	2.499990940093994
71	587.872437953949	pulse	1	t		69.0	2.5	/experiments/AOT/AOT_stimuli/rescaled_final/0777_rv.mp4	0.0	631.0473539829254	
71	589.1889390945435	fix_post	2		12	69.0	2.5	/experiments/AOT/AOT_stimuli/rescaled_final/0777_rv.mp4	0.0	632.3638551235199	0.09993696212768555
72	589.2888760566711	fix_pre	0		120	70.0	2.5	blank	1.0	632.4637920856476	1.000025987625122
72	589.4723610877991	pulse	0	t		70.0	2.5	blank	1.0	632.6472771167755	
72	590.2889020442963	movie	1		300	70.0	2.5	blank	1.0	633.4638180732727	2.499946117401123
72	591.0731730461121	pulse	1	t		70.0	2.5	blank	1.0	634.2480890750885	
72	592.6723160743713	pulse	1	t		70.0	2.5	blank	1.0	635.8472321033478	
72	592.7888481616974	fix_post	2		12	70.0	2.5	blank	1.0	635.9637641906738	0.09996891021728516
73	592.8888170719147	fix_pre	0		120	71.0	2.5	/experiments/AOT/AOT_stimuli/rescaled_final/1517_fw.mp4	0.0	636.0637331008911	1.000046968460083
73	593.8888640403748	movie	1		244	71.0	2.5	/experiments/AOT/AOT_stimuli/rescaled_final/1517_fw.mp4	0.0	637.0637800693512	2.5000410079956055
73	594.2729170322418	pulse	1	t		71.0	2.5	/experiments/AOT/AOT_stimuli/rescaled_final/1517_fw.mp4	0.0	637.4478330612183	
73	595.8723311424255	pulse	1	t		71.0	2.5	/experiments/AOT/AOT_stimuli/rescaled_final/1517_fw.mp4	0.0	639.047247171402	
73	596.3889050483704	fix_post	2		12	71.0	2.5	/experiments/AOT/AOT_stimuli/rescaled_final/1517_fw.mp4	0.0	639.5638210773468	0.0999290943145752
74	596.4888341426849	fix_pre	0		119	72.0	2.5	/experiments/AOT/AOT_stimuli/rescaled_final/2013_fw.mp4	0.0	639.6637501716614	0.9916789531707764
74	597.4723241329193	pulse	0	t		72.0	2.5	/experiments/AOT/AOT_stimuli/rescaled_final/2013_fw.mp4	0.0	640.6472401618958	
74	597.4805130958557	movie	1		247	72.0	2.5	/experiments/AOT/AOT_stimuli/rescaled_final/2013_fw.mp4	0.0	640.6554291248322	2.5083370208740234
74	599.0724680423737	pulse	1	t		72.0	2.5	/experiments/AOT/AOT_stimuli/rescaled_final/2013_fw.mp4	0.0	642.2473840713501	
74	599.9888501167297	fix_post	2		12	72.0	2.5	/experiments/AOT/AOT_stimuli/rescaled_final/2013_fw.mp4	0.0	643.1637661457062	0.10003805160522461
75	600.088888168335	fix_pre	0		120	73.0	2.5	/experiments/AOT/AOT_stimuli/rescaled_final/0336_rv.mp4	0.0	643.2638041973114	0.9999778270721436
75	600.6723051071167	pulse	0	t		73.0	2.5	/experiments/AOT/AOT_stimuli/rescaled_final/0336_rv.mp4	0.0	643.8472211360931	
75	601.0888659954071	movie	1		243	73.0	2.5	/experiments/AOT/AOT_stimuli/rescaled_final/0336_rv.mp4	0.0	644.2637820243835	2.499937057495117
75	602.2723970413208	pulse	1	t		73.0	2.5	/experiments/AOT/AOT_stimuli/rescaled_final/0336_rv.mp4	0.0	645.4473130702972	
75	603.5888030529022	fix_post	2		12	73.0	2.5	/experiments/AOT/AOT_stimuli/rescaled_final/0336_rv.mp4	0.0	646.7637190818787	0.09998512268066406
76	603.6887881755829	fix_pre	0		120	74.0	2.5	/experiments/AOT/AOT_stimuli/rescaled_final/0388_fw.mp4	0.0	646.8637042045593	0.99997878074646
76	603.8724250793457	pulse	0	t		74.0	2.5	/experiments/AOT/AOT_stimuli/rescaled_final/0388_fw.mp4	0.0	647.0473411083221	
76	604.6887669563293	movie	1		246	74.0	2.5	/experiments/AOT/AOT_stimuli/rescaled_final/0388_fw.mp4	0.0	647.8636829853058	2.5003061294555664
76	605.471745967865	pulse	1	t		74.0	2.5	/experiments/AOT/AOT_stimuli/rescaled_final/0388_fw.mp4	0.0	648.6466619968414	
76	607.0780210494995	pulse	1	t		74.0	2.5	/experiments/AOT/AOT_stimuli/rescaled_final/0388_fw.mp4	0.0	650.252937078476	
76	607.1890730857849	fix_post	2		12	74.0	2.5	/experiments/AOT/AOT_stimuli/rescaled_final/0388_fw.mp4	0.0	650.3639891147614	0.0999600887298584
77	607.2890331745148	fix_pre	0		120	75.0	2.5	blank	1.0	650.4639492034912	0.99981689453125
77	608.288850069046	movie	1		300	75.0	2.5	blank	1.0	651.4637660980225	2.49993896484375
77	608.6731700897217	pulse	1	t		75.0	2.5	blank	1.0	651.8480861186981	
77	610.2729170322418	pulse	1	t		75.0	2.5	blank	1.0	653.4478330612183	
77	610.7887890338898	fix_post	2		12	75.0	2.5	blank	1.0	653.9637050628662	0.09998703002929688
78	610.8887760639191	fix_pre	0		119	76.0	2.5	/experiments/AOT/AOT_stimuli/rescaled_final/1447_rv.mp4	0.0	654.0636920928955	0.9916260242462158
78	611.8722620010376	pulse	0	t		76.0	2.5	/experiments/AOT/AOT_stimuli/rescaled_final/1447_rv.mp4	0.0	655.047178030014	
78	611.8804020881653	movie	1		247	76.0	2.5	/experiments/AOT/AOT_stimuli/rescaled_final/1447_rv.mp4	0.0	655.0553181171417	2.5082969665527344
78	613.4805500507355	pulse	1	t		76.0	2.5	/experiments/AOT/AOT_stimuli/rescaled_final/1447_rv.mp4	0.0	656.6554660797119	
78	614.388699054718	fix_post	2		12	76.0	2.5	/experiments/AOT/AOT_stimuli/rescaled_final/1447_rv.mp4	0.0	657.5636150836945	0.1000981330871582
79	614.4887971878052	fix_pre	0		120	77.0	2.5	/experiments/AOT/AOT_stimuli/rescaled_final/0708_fw.mp4	0.0	657.6637132167816	0.9998788833618164
79	615.0722010135651	pulse	0	t		77.0	2.5	/experiments/AOT/AOT_stimuli/rescaled_final/0708_fw.mp4	0.0	658.2471170425415	
79	615.488676071167	movie	1		248	77.0	2.5	/experiments/AOT/AOT_stimuli/rescaled_final/0708_fw.mp4	0.0	658.6635921001434	2.5000391006469727
79	616.6722090244293	pulse	1	t		77.0	2.5	/experiments/AOT/AOT_stimuli/rescaled_final/0708_fw.mp4	0.0	659.8471250534058	
79	617.988715171814	fix_post	2		12	77.0	2.5	/experiments/AOT/AOT_stimuli/rescaled_final/0708_fw.mp4	0.0	661.1636312007904	0.09993195533752441
80	618.0886471271515	fix_pre	0		120	78.0	2.5	/experiments/AOT/AOT_stimuli/rescaled_final/0326_fw.mp4	0.0	661.2635631561279	1.0001189708709717
80	618.2721161842346	pulse	0	t		78.0	2.5	/experiments/AOT/AOT_stimuli/rescaled_final/0326_fw.mp4	0.0	661.4470322132111	
80	619.0887660980225	movie	1		247	78.0	2.5	/experiments/AOT/AOT_stimuli/rescaled_final/0326_fw.mp4	0.0	662.2636821269989	2.499856948852539
80	619.8723301887512	pulse	1	t		78.0	2.5	/experiments/AOT/AOT_stimuli/rescaled_final/0326_fw.mp4	0.0	663.0472462177277	
80	621.4721961021423	pulse	1	t		78.0	2.5	/experiments/AOT/AOT_stimuli/rescaled_final/0326_fw.mp4	0.0	664.6471121311188	
80	621.588623046875	fix_post	2		12	78.0	2.5	/experiments/AOT/AOT_stimuli/rescaled_final/0326_fw.mp4	0.0	664.7635390758514	0.10009098052978516
81	621.6887140274048	fix_pre	0		120	79.0	2.5	/experiments/AOT/AOT_stimuli/rescaled_final/1358_rv.mp4	0.0	664.8636300563812	0.9999990463256836
81	622.6887130737305	movie	1		243	79.0	2.5	/experiments/AOT/AOT_stimuli/rescaled_final/1358_rv.mp4	0.0	665.8636291027069	2.4999730587005615
81	623.080502986908	pulse	1	t		79.0	2.5	/experiments/AOT/AOT_stimuli/rescaled_final/1358_rv.mp4	0.0	666.2554190158844	
81	624.6729340553284	pulse	1	t		79.0	2.5	/experiments/AOT/AOT_stimuli/rescaled_final/1358_rv.mp4	0.0	667.8478500843048	
81	625.188686132431	fix_post	2		12	79.0	2.5	/experiments/AOT/AOT_stimuli/rescaled_final/1358_rv.mp4	0.0	668.3636021614075	0.09992694854736328
82	625.2886130809784	fix_pre	0		120	80.0	2.5	/experiments/AOT/AOT_stimuli/rescaled_final/1588_rv.mp4	0.0	668.4635291099548	1.0000219345092773
82	626.2729151248932	pulse	0	t		80.0	2.5	/experiments/AOT/AOT_stimuli/rescaled_final/1588_rv.mp4	0.0	669.4478311538696	
82	626.2886350154877	movie	1		247	80.0	2.5	/experiments/AOT/AOT_stimuli/rescaled_final/1588_rv.mp4	0.0	669.4635510444641	2.508327007293701
82	627.8799819946289	pulse	1	t		80.0	2.5	/experiments/AOT/AOT_stimuli/rescaled_final/1588_rv.mp4	0.0	671.0548980236053	
82	628.7969620227814	fix_post	2		12	80.0	2.5	/experiments/AOT/AOT_stimuli/rescaled_final/1588_rv.mp4	0.0	671.9718780517578	0.09998202323913574
83	628.8969440460205	fix_pre	0		120	81.0	2.5	/experiments/AOT/AOT_stimuli/rescaled_final/1886_fw.mp4	0.0	672.071860074997	1.0000710487365723
83	629.4728600978851	pulse	0	t		81.0	2.5	/experiments/AOT/AOT_stimuli/rescaled_final/1886_fw.mp4	0.0	672.6477761268616	
83	629.8970150947571	movie	1		245	81.0	2.5	/experiments/AOT/AOT_stimuli/rescaled_final/1886_fw.mp4	0.0	673.0719311237335	2.5000200271606445
83	631.0805010795593	pulse	1	t		81.0	2.5	/experiments/AOT/AOT_stimuli/rescaled_final/1886_fw.mp4	0.0	674.2554171085358	
83	632.3970351219177	fix_post	2		12	81.0	2.5	/experiments/AOT/AOT_stimuli/rescaled_final/1886_fw.mp4	0.0	675.5719511508942	0.09990596771240234
84	632.4969410896301	fix_pre	0		120	82.0	2.5	/experiments/AOT/AOT_stimuli/rescaled_final/1301_fw.mp4	0.0	675.6718571186066	1.000032901763916
84	632.6720840930939	pulse	0	t		82.0	2.5	/experiments/AOT/AOT_stimuli/rescaled_final/1301_fw.mp4	0.0	675.8470001220703	
84	633.496973991394	movie	1		245	82.0	2.5	/experiments/AOT/AOT_stimuli/rescaled_final/1301_fw.mp4	0.0	676.6718900203705	2.499974012374878
84	634.2720651626587	pulse	1	t		82.0	2.5	/experiments/AOT/AOT_stimuli/rescaled_final/1301_fw.mp4	0.0	677.4469811916351	
84	635.8724131584167	pulse	1	t		82.0	2.5	/experiments/AOT/AOT_stimuli/rescaled_final/1301_fw.mp4	0.0	679.0473291873932	
84	635.9969480037689	fix_post	2		12	82.0	2.5	/experiments/AOT/AOT_stimuli/rescaled_final/1301_fw.mp4	0.0	679.1718640327454	0.09995508193969727
85	636.0969030857086	fix_pre	0		120	83.0	2.5	blank	1.0	679.2718191146851	1.0000309944152832
85	637.0969340801239	movie	1		300	83.0	2.5	blank	1.0	680.2718501091003	2.499955892562866
85	637.4721150398254	pulse	1	t		83.0	2.5	blank	1.0	680.6470310688019	
85	639.0729520320892	pulse	1	t		83.0	2.5	blank	1.0	682.2478680610657	
85	639.5968899726868	fix_post	2		12	83.0	2.5	blank	1.0	682.7718060016632	0.09998607635498047
87	639.6968760490417	stim	0		1716					682.8717920780182	14.300024032592773
87	640.673171043396	pulse	0	t						683.8480870723724	
87	642.2730259895325	pulse	0	t						685.4479420185089	
87	643.8730120658875	pulse	0	t						687.0479280948639	
87	645.4730200767517	pulse	0	t						688.6479361057281	
87	647.0731060504913	pulse	0	t						690.2480220794678	
87	648.6720349788666	pulse	0	t						691.846951007843	
87	650.2720561027527	pulse	0	t						693.4469721317291	
87	651.8719861507416	pulse	0	t						695.046902179718	
87	653.471999168396	pulse	0	t						696.6469151973724	
