trial_nr	onset	event_type	phase	response	nr_frames	movie_index	movie_duration	movie_file	blank	onset_abs	duration
0	0.20840096473693848	stim	0		109					27.244964838027954	0.9083189964294434
0	1.108577013015747	response	0	space						28.145140886306763	
1	1.1167199611663818	stim	0		4696					28.153283834457397	39.151875019073486
1	40.253801107406616	pulse	0	t						67.29036498069763	
1	40.26859498023987	stim	1		1715					67.30515885353088	14.297810077667236
1	41.848042011260986	pulse	1	t						68.884605884552	
1	43.44821906089783	pulse	1	t						70.48478293418884	
1	45.04848098754883	pulse	1	t						72.08504486083984	
1	46.6487820148468	pulse	1	t						73.68534588813782	
1	48.248920917510986	pulse	1	t						75.285484790802	
1	49.84909200668335	pulse	1	t						76.88565587997437	
1	51.44937491416931	pulse	1	t						78.48593878746033	
1	53.04969906806946	pulse	1	t						80.08626294136047	
2	54.566405057907104	fix_pre	0		11	0.0	2.5	/experiments/knapen_AOT/AOT_stimuli/rescaled_final/0664_rv.mp4	0.0	81.60296893119812	0.09163689613342285
2	54.6500039100647	pulse	0	t		0.0	2.5	/experiments/knapen_AOT/AOT_stimuli/rescaled_final/0664_rv.mp4	0.0	81.68656778335571	
2	54.65804195404053	movie	1		244	0.0	2.5	/experiments/knapen_AOT/AOT_stimuli/rescaled_final/0664_rv.mp4	0.0	81.69460582733154	2.5086910724639893
2	56.25049591064453	pulse	1	t		0.0	2.5	/experiments/knapen_AOT/AOT_stimuli/rescaled_final/0664_rv.mp4	0.0	83.28705978393555	
2	57.16673302650452	fix_post	2		12	0.0	2.5	/experiments/knapen_AOT/AOT_stimuli/rescaled_final/0664_rv.mp4	0.0	84.20329689979553	0.1000058650970459
3	57.26673889160156	fix_pre	0		120	1.0	2.5	/experiments/knapen_AOT/AOT_stimuli/rescaled_final/1536_fw.mp4	0.0	84.30330276489258	1.000150203704834
3	57.85044503211975	pulse	0	t		1.0	2.5	/experiments/knapen_AOT/AOT_stimuli/rescaled_final/1536_fw.mp4	0.0	84.88700890541077	
3	58.2668890953064	movie	1		244	1.0	2.5	/experiments/knapen_AOT/AOT_stimuli/rescaled_final/1536_fw.mp4	0.0	85.30345296859741	2.5004029273986816
3	59.450786113739014	pulse	1	t		1.0	2.5	/experiments/knapen_AOT/AOT_stimuli/rescaled_final/1536_fw.mp4	0.0	86.48734998703003	
3	60.76729202270508	fix_post	2		12	1.0	2.5	/experiments/knapen_AOT/AOT_stimuli/rescaled_final/1536_fw.mp4	0.0	87.8038558959961	0.09998297691345215
4	60.86727499961853	fix_pre	0		120	2.0	2.5	/experiments/knapen_AOT/AOT_stimuli/rescaled_final/0981_rv.mp4	0.0	87.90383887290955	1.0001890659332275
4	61.05088400840759	pulse	0	t		2.0	2.5	/experiments/knapen_AOT/AOT_stimuli/rescaled_final/0981_rv.mp4	0.0	88.08744788169861	
4	61.86746406555176	movie	1		244	2.0	2.5	/experiments/knapen_AOT/AOT_stimuli/rescaled_final/0981_rv.mp4	0.0	88.90402793884277	2.500319004058838
4	62.64388394355774	pulse	1	t		2.0	2.5	/experiments/knapen_AOT/AOT_stimuli/rescaled_final/0981_rv.mp4	0.0	89.68044781684875	
4	64.25128507614136	pulse	1	t		2.0	2.5	/experiments/knapen_AOT/AOT_stimuli/rescaled_final/0981_rv.mp4	0.0	91.28784894943237	
4	64.3677830696106	fix_post	2		12	2.0	2.5	/experiments/knapen_AOT/AOT_stimuli/rescaled_final/0981_rv.mp4	0.0	91.40434694290161	0.10003089904785156
5	64.46781396865845	fix_pre	0		120	3.0	2.5	/experiments/knapen_AOT/AOT_stimuli/rescaled_final/0883_fw.mp4	0.0	91.50437784194946	1.0001370906829834
5	65.46795105934143	movie	1		243	3.0	2.5	/experiments/knapen_AOT/AOT_stimuli/rescaled_final/0883_fw.mp4	0.0	92.50451493263245	2.4920499324798584
5	65.85222792625427	pulse	1	t		3.0	2.5	/experiments/knapen_AOT/AOT_stimuli/rescaled_final/0883_fw.mp4	0.0	92.88879179954529	
5	67.44455289840698	pulse	1	t		3.0	2.5	/experiments/knapen_AOT/AOT_stimuli/rescaled_final/0883_fw.mp4	0.0	94.481116771698	
5	67.96000099182129	fix_post	2		12	3.0	2.5	/experiments/knapen_AOT/AOT_stimuli/rescaled_final/0883_fw.mp4	0.0	94.9965648651123	0.10004091262817383
6	68.06004190444946	fix_pre	0		119	4.0	2.5	/experiments/knapen_AOT/AOT_stimuli/rescaled_final/0893_fw.mp4	0.0	95.09660577774048	0.9917991161346436
6	69.043781042099	pulse	0	t		4.0	2.5	/experiments/knapen_AOT/AOT_stimuli/rescaled_final/0893_fw.mp4	0.0	96.08034491539001	
6	69.0518410205841	movie	1		244	4.0	2.5	/experiments/knapen_AOT/AOT_stimuli/rescaled_final/0893_fw.mp4	0.0	96.08840489387512	2.5087740421295166
6	70.64532089233398	pulse	1	t		4.0	2.5	/experiments/knapen_AOT/AOT_stimuli/rescaled_final/0893_fw.mp4	0.0	97.681884765625	
6	71.56061506271362	fix_post	2		12	4.0	2.5	/experiments/knapen_AOT/AOT_stimuli/rescaled_final/0893_fw.mp4	0.0	98.59717893600464	0.0999908447265625
7	71.66060590744019	fix_pre	0		120	5.0	2.5	blank	1.0	98.6971697807312	1.000136137008667
7	72.24425411224365	pulse	0	t		5.0	2.5	blank	1.0	99.28081798553467	
7	72.66074204444885	movie	1		300	5.0	2.5	blank	1.0	99.69730591773987	2.500380039215088
7	73.84442400932312	pulse	1	t		5.0	2.5	blank	1.0	100.88098788261414	
7	75.16112208366394	fix_post	2		12	5.0	2.5	blank	1.0	102.19768595695496	0.09999203681945801
8	75.2611141204834	fix_pre	0		120	6.0	2.5	/experiments/knapen_AOT/AOT_stimuli/rescaled_final/2114_fw.mp4	0.0	102.29767799377441	1.000133991241455
8	75.44472289085388	pulse	0	t		6.0	2.5	/experiments/knapen_AOT/AOT_stimuli/rescaled_final/2114_fw.mp4	0.0	102.4812867641449	
8	76.26124811172485	movie	1		245	6.0	2.5	/experiments/knapen_AOT/AOT_stimuli/rescaled_final/2114_fw.mp4	0.0	103.29781198501587	2.500469923019409
8	77.04494595527649	pulse	1	t		6.0	2.5	/experiments/knapen_AOT/AOT_stimuli/rescaled_final/2114_fw.mp4	0.0	104.0815098285675	
8	78.6451370716095	pulse	1	t		6.0	2.5	/experiments/knapen_AOT/AOT_stimuli/rescaled_final/2114_fw.mp4	0.0	105.68170094490051	
8	78.76171803474426	fix_post	2		12	6.0	2.5	/experiments/knapen_AOT/AOT_stimuli/rescaled_final/2114_fw.mp4	0.0	105.79828190803528	0.09992504119873047
9	78.861643075943	fix_pre	0		120	7.0	2.5	/experiments/knapen_AOT/AOT_stimuli/rescaled_final/1493_fw.mp4	0.0	105.89820694923401	1.0001418590545654
9	79.86178493499756	movie	1		243	7.0	2.5	/experiments/knapen_AOT/AOT_stimuli/rescaled_final/1493_fw.mp4	0.0	106.89834880828857	2.4920620918273926
9	80.24665999412537	pulse	1	t		7.0	2.5	/experiments/knapen_AOT/AOT_stimuli/rescaled_final/1493_fw.mp4	0.0	107.28322386741638	
9	81.84561610221863	pulse	1	t		7.0	2.5	/experiments/knapen_AOT/AOT_stimuli/rescaled_final/1493_fw.mp4	0.0	108.88217997550964	
9	82.35384702682495	fix_post	2		12	7.0	2.5	/experiments/knapen_AOT/AOT_stimuli/rescaled_final/1493_fw.mp4	0.0	109.39041090011597	0.0999898910522461
10	82.4538369178772	fix_pre	0		120	8.0	2.5	/experiments/knapen_AOT/AOT_stimuli/rescaled_final/0478_rv.mp4	0.0	109.49040079116821	1.0001380443572998
10	83.44590401649475	pulse	0	t		8.0	2.5	/experiments/knapen_AOT/AOT_stimuli/rescaled_final/0478_rv.mp4	0.0	110.48246788978577	
10	83.4539749622345	movie	1		246	8.0	2.5	/experiments/knapen_AOT/AOT_stimuli/rescaled_final/0478_rv.mp4	0.0	110.49053883552551	2.508692979812622
10	85.04672598838806	pulse	1	t		8.0	2.5	/experiments/knapen_AOT/AOT_stimuli/rescaled_final/0478_rv.mp4	0.0	112.08328986167908	
10	85.96266794204712	fix_post	2		12	8.0	2.5	/experiments/knapen_AOT/AOT_stimuli/rescaled_final/0478_rv.mp4	0.0	112.99923181533813	0.100067138671875
11	86.062735080719	fix_pre	0		120	9.0	2.5	/experiments/knapen_AOT/AOT_stimuli/rescaled_final/1894_rv.mp4	0.0	113.09929895401001	1.0001659393310547
11	86.64643001556396	pulse	0	t		9.0	2.5	/experiments/knapen_AOT/AOT_stimuli/rescaled_final/1894_rv.mp4	0.0	113.68299388885498	
11	87.06290102005005	movie	1		245	9.0	2.5	/experiments/knapen_AOT/AOT_stimuli/rescaled_final/1894_rv.mp4	0.0	114.09946489334106	2.5003139972686768
11	88.24670910835266	pulse	1	t		9.0	2.5	/experiments/knapen_AOT/AOT_stimuli/rescaled_final/1894_rv.mp4	0.0	115.28327298164368	
11	89.56321501731873	fix_post	2		12	9.0	2.5	/experiments/knapen_AOT/AOT_stimuli/rescaled_final/1894_rv.mp4	0.0	116.59977889060974	0.10019493103027344
12	89.663409948349	fix_pre	0		119	10.0	2.5	/experiments/knapen_AOT/AOT_stimuli/rescaled_final/1984_fw.mp4	0.0	116.69997382164001	0.9999909400939941
12	89.84682488441467	pulse	0	t		10.0	2.5	/experiments/knapen_AOT/AOT_stimuli/rescaled_final/1984_fw.mp4	0.0	116.88338875770569	
12	90.663400888443	movie	1		244	10.0	2.5	/experiments/knapen_AOT/AOT_stimuli/rescaled_final/1984_fw.mp4	0.0	117.69996476173401	2.5003771781921387
12	91.44701290130615	pulse	1	t		10.0	2.5	/experiments/knapen_AOT/AOT_stimuli/rescaled_final/1984_fw.mp4	0.0	118.48357677459717	
12	93.04724192619324	pulse	1	t		10.0	2.5	/experiments/knapen_AOT/AOT_stimuli/rescaled_final/1984_fw.mp4	0.0	120.08380579948425	
12	93.16377806663513	fix_post	2		12	10.0	2.5	/experiments/knapen_AOT/AOT_stimuli/rescaled_final/1984_fw.mp4	0.0	120.20034193992615	0.10000395774841309
13	93.26378202438354	fix_pre	0		120	11.0	2.5	/experiments/knapen_AOT/AOT_stimuli/rescaled_final/1193_fw.mp4	0.0	120.30034589767456	1.0001468658447266
13	94.26392889022827	movie	1		242	11.0	2.5	/experiments/knapen_AOT/AOT_stimuli/rescaled_final/1193_fw.mp4	0.0	121.30049276351929	2.492091178894043
13	94.64879107475281	pulse	1	t		11.0	2.5	/experiments/knapen_AOT/AOT_stimuli/rescaled_final/1193_fw.mp4	0.0	121.68535494804382	
13	96.24776291847229	pulse	1	t		11.0	2.5	/experiments/knapen_AOT/AOT_stimuli/rescaled_final/1193_fw.mp4	0.0	123.2843267917633	
13	96.75602006912231	fix_post	2		12	11.0	2.5	/experiments/knapen_AOT/AOT_stimuli/rescaled_final/1193_fw.mp4	0.0	123.79258394241333	0.09996294975280762
14	96.85598301887512	fix_pre	0		120	12.0	2.5	/experiments/knapen_AOT/AOT_stimuli/rescaled_final/1802_fw.mp4	0.0	123.89254689216614	1.0001580715179443
14	97.84801411628723	pulse	0	t		12.0	2.5	/experiments/knapen_AOT/AOT_stimuli/rescaled_final/1802_fw.mp4	0.0	124.88457798957825	
14	97.85614109039307	movie	1		245	12.0	2.5	/experiments/knapen_AOT/AOT_stimuli/rescaled_final/1802_fw.mp4	0.0	124.89270496368408	2.508673906326294
14	99.44879603385925	pulse	1	t		12.0	2.5	/experiments/knapen_AOT/AOT_stimuli/rescaled_final/1802_fw.mp4	0.0	126.48535990715027	
14	100.36481499671936	fix_post	2		12	12.0	2.5	/experiments/knapen_AOT/AOT_stimuli/rescaled_final/1802_fw.mp4	0.0	127.40137887001038	0.10004711151123047
15	100.46486210823059	fix_pre	0		120	13.0	2.5	blank	1.0	127.5014259815216	1.000135898590088
15	101.0486159324646	pulse	0	t		13.0	2.5	blank	1.0	128.08517980575562	
15	101.46499800682068	movie	1		300	13.0	2.5	blank	1.0	128.5015618801117	2.500437021255493
15	102.64872789382935	pulse	1	t		13.0	2.5	blank	1.0	129.68529176712036	
15	103.96543502807617	fix_post	2		12	13.0	2.5	blank	1.0	131.0019989013672	0.09995698928833008
16	104.0653920173645	fix_pre	0		120	14.0	2.5	/experiments/knapen_AOT/AOT_stimuli/rescaled_final/0276_rv.mp4	0.0	131.10195589065552	1.0001580715179443
16	104.24893403053284	pulse	0	t		14.0	2.5	/experiments/knapen_AOT/AOT_stimuli/rescaled_final/0276_rv.mp4	0.0	131.28549790382385	
16	105.06555008888245	movie	1		244	14.0	2.5	/experiments/knapen_AOT/AOT_stimuli/rescaled_final/0276_rv.mp4	0.0	132.10211396217346	2.5003418922424316
16	105.8492820262909	pulse	1	t		14.0	2.5	/experiments/knapen_AOT/AOT_stimuli/rescaled_final/0276_rv.mp4	0.0	132.8858458995819	
16	107.45199298858643	pulse	1	t		14.0	2.5	/experiments/knapen_AOT/AOT_stimuli/rescaled_final/0276_rv.mp4	0.0	134.48855686187744	
16	107.56589198112488	fix_post	2		12	14.0	2.5	/experiments/knapen_AOT/AOT_stimuli/rescaled_final/0276_rv.mp4	0.0	134.6024558544159	0.10005998611450195
17	107.66595196723938	fix_pre	0		120	15.0	2.5	/experiments/knapen_AOT/AOT_stimuli/rescaled_final/0071_rv.mp4	0.0	134.7025158405304	1.0001440048217773
17	108.66609597206116	movie	1		245	15.0	2.5	/experiments/knapen_AOT/AOT_stimuli/rescaled_final/0071_rv.mp4	0.0	135.70265984535217	2.4920120239257812
17	109.05023002624512	pulse	1	t		15.0	2.5	/experiments/knapen_AOT/AOT_stimuli/rescaled_final/0071_rv.mp4	0.0	136.08679389953613	
17	110.64990901947021	pulse	1	t		15.0	2.5	/experiments/knapen_AOT/AOT_stimuli/rescaled_final/0071_rv.mp4	0.0	137.68647289276123	
17	111.15810799598694	fix_post	2		12	15.0	2.5	/experiments/knapen_AOT/AOT_stimuli/rescaled_final/0071_rv.mp4	0.0	138.19467186927795	0.1001439094543457
18	111.25825190544128	fix_pre	0		120	16.0	2.5	/experiments/knapen_AOT/AOT_stimuli/rescaled_final/1892_rv.mp4	0.0	138.2948157787323	1.0000410079956055
18	112.25022006034851	pulse	0	t		16.0	2.5	/experiments/knapen_AOT/AOT_stimuli/rescaled_final/1892_rv.mp4	0.0	139.28678393363953	
18	112.25829291343689	movie	1		245	16.0	2.5	/experiments/knapen_AOT/AOT_stimuli/rescaled_final/1892_rv.mp4	0.0	139.2948567867279	2.5087029933929443
18	113.85152196884155	pulse	1	t		16.0	2.5	/experiments/knapen_AOT/AOT_stimuli/rescaled_final/1892_rv.mp4	0.0	140.88808584213257	
18	114.76699590682983	fix_post	2		12	16.0	2.5	/experiments/knapen_AOT/AOT_stimuli/rescaled_final/1892_rv.mp4	0.0	141.80355978012085	0.10003304481506348
19	114.8670289516449	fix_pre	0		120	17.0	2.5	/experiments/knapen_AOT/AOT_stimuli/rescaled_final/0071_fw.mp4	0.0	141.9035928249359	1.0001299381256104
19	115.44315791130066	pulse	0	t		17.0	2.5	/experiments/knapen_AOT/AOT_stimuli/rescaled_final/0071_fw.mp4	0.0	142.47972178459167	
19	115.86715888977051	movie	1		247	17.0	2.5	/experiments/knapen_AOT/AOT_stimuli/rescaled_final/0071_fw.mp4	0.0	142.90372276306152	2.5003581047058105
19	117.0510139465332	pulse	1	t		17.0	2.5	/experiments/knapen_AOT/AOT_stimuli/rescaled_final/0071_fw.mp4	0.0	144.08757781982422	
19	118.36751699447632	fix_post	2		12	17.0	2.5	/experiments/knapen_AOT/AOT_stimuli/rescaled_final/0071_fw.mp4	0.0	145.40408086776733	0.10005712509155273
20	118.46757411956787	fix_pre	0		120	18.0	2.5	/experiments/knapen_AOT/AOT_stimuli/rescaled_final/1996_fw.mp4	0.0	145.5041379928589	1.0001938343048096
20	118.64371490478516	pulse	0	t		18.0	2.5	/experiments/knapen_AOT/AOT_stimuli/rescaled_final/1996_fw.mp4	0.0	145.68027877807617	
20	119.46776795387268	movie	1		244	18.0	2.5	/experiments/knapen_AOT/AOT_stimuli/rescaled_final/1996_fw.mp4	0.0	146.5043318271637	2.500296115875244
20	120.24390602111816	pulse	1	t		18.0	2.5	/experiments/knapen_AOT/AOT_stimuli/rescaled_final/1996_fw.mp4	0.0	147.28046989440918	
20	121.8433849811554	pulse	1	t		18.0	2.5	/experiments/knapen_AOT/AOT_stimuli/rescaled_final/1996_fw.mp4	0.0	148.8799488544464	
20	121.96806406974792	fix_post	2		12	18.0	2.5	/experiments/knapen_AOT/AOT_stimuli/rescaled_final/1996_fw.mp4	0.0	149.00462794303894	0.10001993179321289
21	122.06808400154114	fix_pre	0		120	19.0	2.5	blank	1.0	149.10464787483215	1.0001530647277832
21	123.06823706626892	movie	1		299	19.0	2.5	blank	1.0	150.10480093955994	2.4920690059661865
21	123.44343090057373	pulse	1	t		19.0	2.5	blank	1.0	150.47999477386475	
21	125.04379892349243	pulse	1	t		19.0	2.5	blank	1.0	152.08036279678345	
21	125.56030607223511	fix_post	2		12	19.0	2.5	blank	1.0	152.59686994552612	0.0999758243560791
22	125.66028189659119	fix_pre	0		119	20.0	2.5	/experiments/knapen_AOT/AOT_stimuli/rescaled_final/0250_rv.mp4	0.0	152.6968457698822	0.9918420314788818
22	126.64393091201782	pulse	0	t		20.0	2.5	/experiments/knapen_AOT/AOT_stimuli/rescaled_final/0250_rv.mp4	0.0	153.68049478530884	
22	126.65212392807007	movie	1		246	20.0	2.5	/experiments/knapen_AOT/AOT_stimuli/rescaled_final/0250_rv.mp4	0.0	153.68868780136108	2.5086770057678223
22	128.24482011795044	pulse	1	t		20.0	2.5	/experiments/knapen_AOT/AOT_stimuli/rescaled_final/0250_rv.mp4	0.0	155.28138399124146	
22	129.1608009338379	fix_post	2		12	20.0	2.5	/experiments/knapen_AOT/AOT_stimuli/rescaled_final/0250_rv.mp4	0.0	156.1973648071289	0.10001707077026367
23	129.26081800460815	fix_pre	0		120	21.0	2.5	/experiments/knapen_AOT/AOT_stimuli/rescaled_final/1903_rv.mp4	0.0	156.29738187789917	1.0001630783081055
23	129.84455394744873	pulse	0	t		21.0	2.5	/experiments/knapen_AOT/AOT_stimuli/rescaled_final/1903_rv.mp4	0.0	156.88111782073975	
23	130.26098108291626	movie	1		245	21.0	2.5	/experiments/knapen_AOT/AOT_stimuli/rescaled_final/1903_rv.mp4	0.0	157.29754495620728	2.500393867492676
23	131.44483494758606	pulse	1	t		21.0	2.5	/experiments/knapen_AOT/AOT_stimuli/rescaled_final/1903_rv.mp4	0.0	158.48139882087708	
23	132.76137495040894	fix_post	2		12	21.0	2.5	/experiments/knapen_AOT/AOT_stimuli/rescaled_final/1903_rv.mp4	0.0	159.79793882369995	0.09998607635498047
24	132.86136102676392	fix_pre	0		120	22.0	2.5	/experiments/knapen_AOT/AOT_stimuli/rescaled_final/1322_fw.mp4	0.0	159.89792490005493	1.0001640319824219
24	133.04488492012024	pulse	0	t		22.0	2.5	/experiments/knapen_AOT/AOT_stimuli/rescaled_final/1322_fw.mp4	0.0	160.08144879341125	
24	133.86152505874634	movie	1		244	22.0	2.5	/experiments/knapen_AOT/AOT_stimuli/rescaled_final/1322_fw.mp4	0.0	160.89808893203735	2.5003509521484375
24	134.6451280117035	pulse	1	t		22.0	2.5	/experiments/knapen_AOT/AOT_stimuli/rescaled_final/1322_fw.mp4	0.0	161.6816918849945	
24	136.2454319000244	pulse	1	t		22.0	2.5	/experiments/knapen_AOT/AOT_stimuli/rescaled_final/1322_fw.mp4	0.0	163.28199577331543	
24	136.36187601089478	fix_post	2		12	22.0	2.5	/experiments/knapen_AOT/AOT_stimuli/rescaled_final/1322_fw.mp4	0.0	163.3984398841858	0.10005307197570801
25	136.46192908287048	fix_pre	0		119	23.0	2.5	/experiments/knapen_AOT/AOT_stimuli/rescaled_final/0152_rv.mp4	0.0	163.4984929561615	0.9917728900909424
25	137.45370197296143	movie	1		244	23.0	2.5	/experiments/knapen_AOT/AOT_stimuli/rescaled_final/0152_rv.mp4	0.0	164.49026584625244	2.5003950595855713
25	137.8457589149475	pulse	1	t		23.0	2.5	/experiments/knapen_AOT/AOT_stimuli/rescaled_final/0152_rv.mp4	0.0	164.88232278823853	
25	139.4459149837494	pulse	1	t		23.0	2.5	/experiments/knapen_AOT/AOT_stimuli/rescaled_final/0152_rv.mp4	0.0	166.4824788570404	
25	139.954097032547	fix_post	2		12	23.0	2.5	/experiments/knapen_AOT/AOT_stimuli/rescaled_final/0152_rv.mp4	0.0	166.990660905838	0.10000205039978027
26	140.05409908294678	fix_pre	0		120	24.0	2.5	/experiments/knapen_AOT/AOT_stimuli/rescaled_final/0254_fw.mp4	0.0	167.0906629562378	1.0002169609069824
26	141.04615592956543	pulse	0	t		24.0	2.5	/experiments/knapen_AOT/AOT_stimuli/rescaled_final/0254_fw.mp4	0.0	168.08271980285645	
26	141.05431604385376	movie	1		246	24.0	2.5	/experiments/knapen_AOT/AOT_stimuli/rescaled_final/0254_fw.mp4	0.0	168.09087991714478	2.5086300373077393
26	142.6467399597168	pulse	1	t		24.0	2.5	/experiments/knapen_AOT/AOT_stimuli/rescaled_final/0254_fw.mp4	0.0	169.6833038330078	
26	143.5629460811615	fix_post	2		12	24.0	2.5	/experiments/knapen_AOT/AOT_stimuli/rescaled_final/0254_fw.mp4	0.0	170.59950995445251	0.10001897811889648
27	143.6629650592804	fix_pre	0		120	25.0	2.5	/experiments/knapen_AOT/AOT_stimuli/rescaled_final/1010_rv.mp4	0.0	170.6995289325714	1.000148057937622
27	144.24673008918762	pulse	0	t		25.0	2.5	/experiments/knapen_AOT/AOT_stimuli/rescaled_final/1010_rv.mp4	0.0	171.28329396247864	
27	144.66311311721802	movie	1		244	25.0	2.5	/experiments/knapen_AOT/AOT_stimuli/rescaled_final/1010_rv.mp4	0.0	171.69967699050903	2.500389814376831
27	145.84692907333374	pulse	1	t		25.0	2.5	/experiments/knapen_AOT/AOT_stimuli/rescaled_final/1010_rv.mp4	0.0	172.88349294662476	
27	147.16350293159485	fix_post	2		12	25.0	2.5	/experiments/knapen_AOT/AOT_stimuli/rescaled_final/1010_rv.mp4	0.0	174.20006680488586	0.09998512268066406
28	147.2634880542755	fix_pre	0		120	26.0	2.5	blank	1.0	174.30005192756653	1.000201940536499
28	147.4470670223236	pulse	0	t		26.0	2.5	blank	1.0	174.48363089561462	
28	148.263689994812	movie	1		300	26.0	2.5	blank	1.0	175.30025386810303	2.5003371238708496
28	149.0473210811615	pulse	1	t		26.0	2.5	blank	1.0	176.08388495445251	
28	150.64762091636658	pulse	1	t		26.0	2.5	blank	1.0	177.6841847896576	
28	150.76402711868286	fix_post	2		12	26.0	2.5	blank	1.0	177.80059099197388	0.10055685043334961
29	150.8645839691162	fix_pre	0		118	27.0	2.5	/experiments/knapen_AOT/AOT_stimuli/rescaled_final/0291_rv.mp4	0.0	177.90114784240723	0.999704122543335
29	151.86428809165955	movie	1		245	27.0	2.5	/experiments/knapen_AOT/AOT_stimuli/rescaled_final/0291_rv.mp4	0.0	178.90085196495056	2.491931915283203
29	152.24899911880493	pulse	1	t		27.0	2.5	/experiments/knapen_AOT/AOT_stimuli/rescaled_final/0291_rv.mp4	0.0	179.28556299209595	
29	153.8480179309845	pulse	1	t		27.0	2.5	/experiments/knapen_AOT/AOT_stimuli/rescaled_final/0291_rv.mp4	0.0	180.8845818042755	
29	154.35622000694275	fix_post	2		12	27.0	2.5	/experiments/knapen_AOT/AOT_stimuli/rescaled_final/0291_rv.mp4	0.0	181.39278388023376	0.10005688667297363
30	154.45627689361572	fix_pre	0		120	28.0	2.5	/experiments/knapen_AOT/AOT_stimuli/rescaled_final/1489_fw.mp4	0.0	181.49284076690674	1.0001130104064941
30	155.4484190940857	pulse	0	t		28.0	2.5	/experiments/knapen_AOT/AOT_stimuli/rescaled_final/1489_fw.mp4	0.0	182.4849829673767	
30	155.45638990402222	movie	1		244	28.0	2.5	/experiments/knapen_AOT/AOT_stimuli/rescaled_final/1489_fw.mp4	0.0	182.49295377731323	2.5086991786956787
30	157.05314898490906	pulse	1	t		28.0	2.5	/experiments/knapen_AOT/AOT_stimuli/rescaled_final/1489_fw.mp4	0.0	184.08971285820007	
30	157.9650890827179	fix_post	2		12	28.0	2.5	/experiments/knapen_AOT/AOT_stimuli/rescaled_final/1489_fw.mp4	0.0	185.0016529560089	0.10007286071777344
31	158.06516194343567	fix_pre	0		120	29.0	2.5	/experiments/knapen_AOT/AOT_stimuli/rescaled_final/1737_rv.mp4	0.0	185.10172581672668	1.000101089477539
31	158.64884901046753	pulse	0	t		29.0	2.5	/experiments/knapen_AOT/AOT_stimuli/rescaled_final/1737_rv.mp4	0.0	185.68541288375854	
31	159.0652630329132	movie	1		243	29.0	2.5	/experiments/knapen_AOT/AOT_stimuli/rescaled_final/1737_rv.mp4	0.0	186.10182690620422	2.5004169940948486
31	160.2491490840912	pulse	1	t		29.0	2.5	/experiments/knapen_AOT/AOT_stimuli/rescaled_final/1737_rv.mp4	0.0	187.2857129573822	
31	161.56568002700806	fix_post	2		12	29.0	2.5	/experiments/knapen_AOT/AOT_stimuli/rescaled_final/1737_rv.mp4	0.0	188.60224390029907	0.09999990463256836
32	161.66567993164062	fix_pre	0		120	30.0	2.5	/experiments/knapen_AOT/AOT_stimuli/rescaled_final/1855_fw.mp4	0.0	188.70224380493164	1.0001521110534668
32	161.84924292564392	pulse	0	t		30.0	2.5	/experiments/knapen_AOT/AOT_stimuli/rescaled_final/1855_fw.mp4	0.0	188.88580679893494	
32	162.6658320426941	movie	1		244	30.0	2.5	/experiments/knapen_AOT/AOT_stimuli/rescaled_final/1855_fw.mp4	0.0	189.7023959159851	2.500321865081787
32	163.44947791099548	pulse	1	t		30.0	2.5	/experiments/knapen_AOT/AOT_stimuli/rescaled_final/1855_fw.mp4	0.0	190.4860417842865	
32	165.05309200286865	pulse	1	t		30.0	2.5	/experiments/knapen_AOT/AOT_stimuli/rescaled_final/1855_fw.mp4	0.0	192.08965587615967	
32	165.16615390777588	fix_post	2		12	30.0	2.5	/experiments/knapen_AOT/AOT_stimuli/rescaled_final/1855_fw.mp4	0.0	192.2027177810669	0.10002899169921875
33	165.2661828994751	fix_pre	0		120	31.0	2.5	/experiments/knapen_AOT/AOT_stimuli/rescaled_final/0480_rv.mp4	0.0	192.3027467727661	1.0001552104949951
33	166.2663381099701	movie	1		245	31.0	2.5	/experiments/knapen_AOT/AOT_stimuli/rescaled_final/0480_rv.mp4	0.0	193.3029019832611	2.4920477867126465
33	166.65046095848083	pulse	1	t		31.0	2.5	/experiments/knapen_AOT/AOT_stimuli/rescaled_final/0480_rv.mp4	0.0	193.68702483177185	
33	168.2502200603485	pulse	1	t		31.0	2.5	/experiments/knapen_AOT/AOT_stimuli/rescaled_final/0480_rv.mp4	0.0	195.28678393363953	
33	168.75838589668274	fix_post	2		12	31.0	2.5	/experiments/knapen_AOT/AOT_stimuli/rescaled_final/0480_rv.mp4	0.0	195.79494976997375	0.09999918937683105
34	168.85838508605957	fix_pre	0		120	32.0	2.5	/experiments/knapen_AOT/AOT_stimuli/rescaled_final/0010_fw.mp4	0.0	195.8949489593506	1.0002179145812988
34	169.85037803649902	pulse	0	t		32.0	2.5	/experiments/knapen_AOT/AOT_stimuli/rescaled_final/0010_fw.mp4	0.0	196.88694190979004	
34	169.85860300064087	movie	1		246	32.0	2.5	/experiments/knapen_AOT/AOT_stimuli/rescaled_final/0010_fw.mp4	0.0	196.89516687393188	2.508629083633423
34	171.45112895965576	pulse	1	t		32.0	2.5	/experiments/knapen_AOT/AOT_stimuli/rescaled_final/0010_fw.mp4	0.0	198.48769283294678	
34	172.3672320842743	fix_post	2		12	32.0	2.5	/experiments/knapen_AOT/AOT_stimuli/rescaled_final/0010_fw.mp4	0.0	199.4037959575653	0.10004901885986328
35	172.46728110313416	fix_pre	0		120	33.0	2.5	blank	1.0	199.50384497642517	1.0001089572906494
35	173.05092692375183	pulse	0	t		33.0	2.5	blank	1.0	200.08749079704285	
35	173.4673900604248	movie	1		300	33.0	2.5	blank	1.0	200.50395393371582	2.5004138946533203
35	174.6511299610138	pulse	1	t		33.0	2.5	blank	1.0	201.6876938343048	
35	175.96780395507812	fix_post	2		12	33.0	2.5	blank	1.0	203.00436782836914	0.1000051498413086
36	176.06780910491943	fix_pre	0		120	34.0	2.5	/experiments/knapen_AOT/AOT_stimuli/rescaled_final/1728_rv.mp4	0.0	203.10437297821045	1.0001440048217773
36	176.25148701667786	pulse	0	t		34.0	2.5	/experiments/knapen_AOT/AOT_stimuli/rescaled_final/1728_rv.mp4	0.0	203.28805088996887	
36	177.0679531097412	movie	1		244	34.0	2.5	/experiments/knapen_AOT/AOT_stimuli/rescaled_final/1728_rv.mp4	0.0	204.10451698303223	2.5003597736358643
36	177.84425401687622	pulse	1	t		34.0	2.5	/experiments/knapen_AOT/AOT_stimuli/rescaled_final/1728_rv.mp4	0.0	204.88081789016724	
36	179.45208096504211	pulse	1	t		34.0	2.5	/experiments/knapen_AOT/AOT_stimuli/rescaled_final/1728_rv.mp4	0.0	206.48864483833313	
36	179.56831288337708	fix_post	2		12	34.0	2.5	/experiments/knapen_AOT/AOT_stimuli/rescaled_final/1728_rv.mp4	0.0	206.6048767566681	0.10005807876586914
37	179.66837096214294	fix_pre	0		120	35.0	2.5	/experiments/knapen_AOT/AOT_stimuli/rescaled_final/1503_fw.mp4	0.0	206.70493483543396	1.0001239776611328
37	180.66849493980408	movie	1		244	35.0	2.5	/experiments/knapen_AOT/AOT_stimuli/rescaled_final/1503_fw.mp4	0.0	207.7050588130951	2.4920411109924316
37	181.05662894248962	pulse	1	t		35.0	2.5	/experiments/knapen_AOT/AOT_stimuli/rescaled_final/1503_fw.mp4	0.0	208.09319281578064	
37	182.64423298835754	pulse	1	t		35.0	2.5	/experiments/knapen_AOT/AOT_stimuli/rescaled_final/1503_fw.mp4	0.0	209.68079686164856	
37	183.1605360507965	fix_post	2		12	35.0	2.5	/experiments/knapen_AOT/AOT_stimuli/rescaled_final/1503_fw.mp4	0.0	210.19709992408752	0.10002303123474121
38	183.26055908203125	fix_pre	0		119	36.0	2.5	/experiments/knapen_AOT/AOT_stimuli/rescaled_final/0709_rv.mp4	0.0	210.29712295532227	0.9918069839477539
38	184.24419689178467	pulse	0	t		36.0	2.5	/experiments/knapen_AOT/AOT_stimuli/rescaled_final/0709_rv.mp4	0.0	211.28076076507568	
38	184.252366065979	movie	1		245	36.0	2.5	/experiments/knapen_AOT/AOT_stimuli/rescaled_final/0709_rv.mp4	0.0	211.28892993927002	2.508715867996216
38	185.84889006614685	pulse	1	t		36.0	2.5	/experiments/knapen_AOT/AOT_stimuli/rescaled_final/0709_rv.mp4	0.0	212.88545393943787	
38	186.76108193397522	fix_post	2		12	36.0	2.5	/experiments/knapen_AOT/AOT_stimuli/rescaled_final/0709_rv.mp4	0.0	213.79764580726624	0.10000205039978027
39	186.861083984375	fix_pre	0		120	37.0	2.5	/experiments/knapen_AOT/AOT_stimuli/rescaled_final/1429_fw.mp4	0.0	213.89764785766602	1.0001800060272217
39	187.44473600387573	pulse	0	t		37.0	2.5	/experiments/knapen_AOT/AOT_stimuli/rescaled_final/1429_fw.mp4	0.0	214.48129987716675	
39	187.86126399040222	movie	1		245	37.0	2.5	/experiments/knapen_AOT/AOT_stimuli/rescaled_final/1429_fw.mp4	0.0	214.89782786369324	2.500373125076294
39	189.04506397247314	pulse	1	t		37.0	2.5	/experiments/knapen_AOT/AOT_stimuli/rescaled_final/1429_fw.mp4	0.0	216.08162784576416	
39	190.36163711547852	fix_post	2		12	37.0	2.5	/experiments/knapen_AOT/AOT_stimuli/rescaled_final/1429_fw.mp4	0.0	217.39820098876953	0.09999489784240723
40	190.46163201332092	fix_pre	0		120	38.0	2.5	/experiments/knapen_AOT/AOT_stimuli/rescaled_final/1649_rv.mp4	0.0	217.49819588661194	1.0001471042633057
40	190.6451621055603	pulse	0	t		38.0	2.5	/experiments/knapen_AOT/AOT_stimuli/rescaled_final/1649_rv.mp4	0.0	217.68172597885132	
40	191.46177911758423	movie	1		244	38.0	2.5	/experiments/knapen_AOT/AOT_stimuli/rescaled_final/1649_rv.mp4	0.0	218.49834299087524	2.5003609657287598
40	192.24548196792603	pulse	1	t		38.0	2.5	/experiments/knapen_AOT/AOT_stimuli/rescaled_final/1649_rv.mp4	0.0	219.28204584121704	
40	193.84565806388855	pulse	1	t		38.0	2.5	/experiments/knapen_AOT/AOT_stimuli/rescaled_final/1649_rv.mp4	0.0	220.88222193717957	
40	193.962140083313	fix_post	2		12	38.0	2.5	/experiments/knapen_AOT/AOT_stimuli/rescaled_final/1649_rv.mp4	0.0	220.998703956604	0.10000085830688477
41	194.06214094161987	fix_pre	0		120	39.0	2.5	/experiments/knapen_AOT/AOT_stimuli/rescaled_final/1140_rv.mp4	0.0	221.0987048149109	1.0001530647277832
41	195.06229400634766	movie	1		242	39.0	2.5	/experiments/knapen_AOT/AOT_stimuli/rescaled_final/1140_rv.mp4	0.0	222.09885787963867	2.492016077041626
41	195.44642806053162	pulse	1	t		39.0	2.5	/experiments/knapen_AOT/AOT_stimuli/rescaled_final/1140_rv.mp4	0.0	222.48299193382263	
41	197.04613590240479	pulse	1	t		39.0	2.5	/experiments/knapen_AOT/AOT_stimuli/rescaled_final/1140_rv.mp4	0.0	224.0826997756958	
41	197.55431008338928	fix_post	2		12	39.0	2.5	/experiments/knapen_AOT/AOT_stimuli/rescaled_final/1140_rv.mp4	0.0	224.5908739566803	0.10005688667297363
42	197.65436697006226	fix_pre	0		120	40.0	2.5	/experiments/knapen_AOT/AOT_stimuli/rescaled_final/1415_rv.mp4	0.0	224.69093084335327	1.000143051147461
42	198.64651489257812	pulse	0	t		40.0	2.5	/experiments/knapen_AOT/AOT_stimuli/rescaled_final/1415_rv.mp4	0.0	225.68307876586914	
42	198.65451002120972	movie	1		245	40.0	2.5	/experiments/knapen_AOT/AOT_stimuli/rescaled_final/1415_rv.mp4	0.0	225.69107389450073	2.5087080001831055
42	200.24787306785583	pulse	1	t		40.0	2.5	/experiments/knapen_AOT/AOT_stimuli/rescaled_final/1415_rv.mp4	0.0	227.28443694114685	
42	201.16321802139282	fix_post	2		12	40.0	2.5	/experiments/knapen_AOT/AOT_stimuli/rescaled_final/1415_rv.mp4	0.0	228.19978189468384	0.10002303123474121
43	201.26324105262756	fix_pre	0		120	41.0	2.5	/experiments/knapen_AOT/AOT_stimuli/rescaled_final/2078_rv.mp4	0.0	228.29980492591858	1.000140905380249
43	201.84688210487366	pulse	0	t		41.0	2.5	/experiments/knapen_AOT/AOT_stimuli/rescaled_final/2078_rv.mp4	0.0	228.88344597816467	
43	202.2633819580078	movie	1		244	41.0	2.5	/experiments/knapen_AOT/AOT_stimuli/rescaled_final/2078_rv.mp4	0.0	229.29994583129883	2.5003440380096436
43	203.4472939968109	pulse	1	t		41.0	2.5	/experiments/knapen_AOT/AOT_stimuli/rescaled_final/2078_rv.mp4	0.0	230.48385787010193	
43	204.76372599601746	fix_post	2		12	41.0	2.5	/experiments/knapen_AOT/AOT_stimuli/rescaled_final/2078_rv.mp4	0.0	231.80028986930847	0.1000359058380127
44	204.86376190185547	fix_pre	0		120	42.0	2.5	blank	1.0	231.90032577514648	1.0001699924468994
44	205.04744601249695	pulse	0	t		42.0	2.5	blank	1.0	232.08400988578796	
44	205.86393189430237	movie	1		300	42.0	2.5	blank	1.0	232.90049576759338	2.5003809928894043
44	206.64768290519714	pulse	1	t		42.0	2.5	blank	1.0	233.68424677848816	
44	208.247878074646	pulse	1	t		42.0	2.5	blank	1.0	235.284441947937	
44	208.36431288719177	fix_post	2		12	42.0	2.5	blank	1.0	235.4008767604828	0.09997200965881348
45	208.4642848968506	fix_pre	0		120	43.0	2.5	/experiments/knapen_AOT/AOT_stimuli/rescaled_final/1335_rv.mp4	0.0	235.5008487701416	1.0001461505889893
45	209.46443104743958	movie	1		243	43.0	2.5	/experiments/knapen_AOT/AOT_stimuli/rescaled_final/1335_rv.mp4	0.0	236.5009949207306	2.49214506149292
45	209.84851598739624	pulse	1	t		43.0	2.5	/experiments/knapen_AOT/AOT_stimuli/rescaled_final/1335_rv.mp4	0.0	236.88507986068726	
45	211.4483780860901	pulse	1	t		43.0	2.5	/experiments/knapen_AOT/AOT_stimuli/rescaled_final/1335_rv.mp4	0.0	238.4849419593811	
45	211.9565761089325	fix_post	2		12	43.0	2.5	/experiments/knapen_AOT/AOT_stimuli/rescaled_final/1335_rv.mp4	0.0	238.9931399822235	0.09994077682495117
46	212.05651688575745	fix_pre	0		117	44.0	2.5	/experiments/knapen_AOT/AOT_stimuli/rescaled_final/1258_rv.mp4	0.0	239.09308075904846	1.0001630783081055
46	213.04864406585693	pulse	0	t		44.0	2.5	/experiments/knapen_AOT/AOT_stimuli/rescaled_final/1258_rv.mp4	0.0	240.08520793914795	
46	213.05667996406555	movie	1		249	44.0	2.5	/experiments/knapen_AOT/AOT_stimuli/rescaled_final/1258_rv.mp4	0.0	240.09324383735657	2.508697032928467
46	214.64937710762024	pulse	1	t		44.0	2.5	/experiments/knapen_AOT/AOT_stimuli/rescaled_final/1258_rv.mp4	0.0	241.68594098091125	
46	215.56537699699402	fix_post	2		12	44.0	2.5	/experiments/knapen_AOT/AOT_stimuli/rescaled_final/1258_rv.mp4	0.0	242.60194087028503	0.10002708435058594
47	215.6654040813446	fix_pre	0		120	45.0	2.5	/experiments/knapen_AOT/AOT_stimuli/rescaled_final/1855_fw.mp4	0.0	242.70196795463562	1.0001788139343262
47	216.24893498420715	pulse	0	t		45.0	2.5	/experiments/knapen_AOT/AOT_stimuli/rescaled_final/1855_fw.mp4	0.0	243.28549885749817	
47	216.66558289527893	movie	1		247	45.0	2.5	/experiments/knapen_AOT/AOT_stimuli/rescaled_final/1855_fw.mp4	0.0	243.70214676856995	2.500324010848999
47	217.8493070602417	pulse	1	t		45.0	2.5	/experiments/knapen_AOT/AOT_stimuli/rescaled_final/1855_fw.mp4	0.0	244.88587093353271	
47	219.16590690612793	fix_post	2		12	45.0	2.5	/experiments/knapen_AOT/AOT_stimuli/rescaled_final/1855_fw.mp4	0.0	246.20247077941895	0.10000920295715332
48	219.26591610908508	fix_pre	0		120	46.0	2.5	/experiments/knapen_AOT/AOT_stimuli/rescaled_final/0024_fw.mp4	0.0	246.3024799823761	1.0002429485321045
48	219.4495029449463	pulse	0	t		46.0	2.5	/experiments/knapen_AOT/AOT_stimuli/rescaled_final/0024_fw.mp4	0.0	246.4860668182373	
48	220.2661590576172	movie	1		248	46.0	2.5	/experiments/knapen_AOT/AOT_stimuli/rescaled_final/0024_fw.mp4	0.0	247.3027229309082	2.50028395652771
48	221.04979300498962	pulse	1	t		46.0	2.5	/experiments/knapen_AOT/AOT_stimuli/rescaled_final/0024_fw.mp4	0.0	248.08635687828064	
48	222.64996099472046	pulse	1	t		46.0	2.5	/experiments/knapen_AOT/AOT_stimuli/rescaled_final/0024_fw.mp4	0.0	249.68652486801147	
48	222.7664430141449	fix_post	2		12	46.0	2.5	/experiments/knapen_AOT/AOT_stimuli/rescaled_final/0024_fw.mp4	0.0	249.8030068874359	0.09999799728393555
49	222.86644101142883	fix_pre	0		120	47.0	2.5	blank	1.0	249.90300488471985	1.0002150535583496
49	223.86665606498718	movie	1		299	47.0	2.5	blank	1.0	250.9032199382782	2.491986036300659
49	224.25027990341187	pulse	1	t		47.0	2.5	blank	1.0	251.28684377670288	
49	225.85056495666504	pulse	1	t		47.0	2.5	blank	1.0	252.88712882995605	
49	226.35864210128784	fix_post	2		12	47.0	2.5	blank	1.0	253.39520597457886	0.10000801086425781
50	226.4586501121521	fix_pre	0		120	48.0	2.5	/experiments/knapen_AOT/AOT_stimuli/rescaled_final/0619_rv.mp4	0.0	253.49521398544312	1.0001800060272217
50	227.45074009895325	pulse	0	t		48.0	2.5	/experiments/knapen_AOT/AOT_stimuli/rescaled_final/0619_rv.mp4	0.0	254.48730397224426	
50	227.45883011817932	movie	1		246	48.0	2.5	/experiments/knapen_AOT/AOT_stimuli/rescaled_final/0619_rv.mp4	0.0	254.49539399147034	2.508668899536133
50	229.05139303207397	pulse	1	t		48.0	2.5	/experiments/knapen_AOT/AOT_stimuli/rescaled_final/0619_rv.mp4	0.0	256.087956905365	
50	229.96749901771545	fix_post	2		12	48.0	2.5	/experiments/knapen_AOT/AOT_stimuli/rescaled_final/0619_rv.mp4	0.0	257.00406289100647	0.10005402565002441
51	230.06755304336548	fix_pre	0		120	49.0	2.5	/experiments/knapen_AOT/AOT_stimuli/rescaled_final/1493_fw.mp4	0.0	257.1041169166565	1.000148057937622
51	230.64356398582458	pulse	0	t		49.0	2.5	/experiments/knapen_AOT/AOT_stimuli/rescaled_final/1493_fw.mp4	0.0	257.6801278591156	
51	231.0677011013031	movie	1		244	49.0	2.5	/experiments/knapen_AOT/AOT_stimuli/rescaled_final/1493_fw.mp4	0.0	258.1042649745941	2.5003809928894043
51	232.24383211135864	pulse	1	t		49.0	2.5	/experiments/knapen_AOT/AOT_stimuli/rescaled_final/1493_fw.mp4	0.0	259.28039598464966	
51	233.5680820941925	fix_post	2		12	49.0	2.5	/experiments/knapen_AOT/AOT_stimuli/rescaled_final/1493_fw.mp4	0.0	260.6046459674835	0.09997391700744629
52	233.66805601119995	fix_pre	0		120	50.0	2.5	/experiments/knapen_AOT/AOT_stimuli/rescaled_final/0024_rv.mp4	0.0	260.70461988449097	1.0001640319824219
52	233.84408402442932	pulse	0	t		50.0	2.5	/experiments/knapen_AOT/AOT_stimuli/rescaled_final/0024_rv.mp4	0.0	260.88064789772034	
52	234.66822004318237	movie	1		247	50.0	2.5	/experiments/knapen_AOT/AOT_stimuli/rescaled_final/0024_rv.mp4	0.0	261.7047839164734	2.5003390312194824
52	235.44442009925842	pulse	1	t		50.0	2.5	/experiments/knapen_AOT/AOT_stimuli/rescaled_final/0024_rv.mp4	0.0	262.48098397254944	
52	237.04396796226501	pulse	1	t		50.0	2.5	/experiments/knapen_AOT/AOT_stimuli/rescaled_final/0024_rv.mp4	0.0	264.08053183555603	
52	237.16855907440186	fix_post	2		12	50.0	2.5	/experiments/knapen_AOT/AOT_stimuli/rescaled_final/0024_rv.mp4	0.0	264.20512294769287	0.10003781318664551
53	237.2685968875885	fix_pre	0		120	51.0	2.5	/experiments/knapen_AOT/AOT_stimuli/rescaled_final/1852_fw.mp4	0.0	264.3051607608795	1.0001661777496338
53	238.26876306533813	movie	1		243	51.0	2.5	/experiments/knapen_AOT/AOT_stimuli/rescaled_final/1852_fw.mp4	0.0	265.30532693862915	2.4920170307159424
53	238.64395093917847	pulse	1	t		51.0	2.5	/experiments/knapen_AOT/AOT_stimuli/rescaled_final/1852_fw.mp4	0.0	265.6805148124695	
53	240.24442291259766	pulse	1	t		51.0	2.5	/experiments/knapen_AOT/AOT_stimuli/rescaled_final/1852_fw.mp4	0.0	267.2809867858887	
53	240.76078009605408	fix_post	2		12	51.0	2.5	/experiments/knapen_AOT/AOT_stimuli/rescaled_final/1852_fw.mp4	0.0	267.7973439693451	0.10001897811889648
54	240.86079907417297	fix_pre	0		119	52.0	2.5	/experiments/knapen_AOT/AOT_stimuli/rescaled_final/0480_rv.mp4	0.0	267.897362947464	0.9918248653411865
54	241.84452295303345	pulse	0	t		52.0	2.5	/experiments/knapen_AOT/AOT_stimuli/rescaled_final/0480_rv.mp4	0.0	268.88108682632446	
54	241.85262393951416	movie	1		247	52.0	2.5	/experiments/knapen_AOT/AOT_stimuli/rescaled_final/0480_rv.mp4	0.0	268.8891878128052	2.5087380409240723
54	243.4455370903015	pulse	1	t		52.0	2.5	/experiments/knapen_AOT/AOT_stimuli/rescaled_final/0480_rv.mp4	0.0	270.48210096359253	
54	244.36136198043823	fix_post	2		12	52.0	2.5	/experiments/knapen_AOT/AOT_stimuli/rescaled_final/0480_rv.mp4	0.0	271.39792585372925	0.09997010231018066
55	244.4613320827484	fix_pre	0		120	53.0	2.5	/experiments/knapen_AOT/AOT_stimuli/rescaled_final/0010_rv.mp4	0.0	271.49789595603943	1.0001389980316162
55	245.04495406150818	pulse	0	t		53.0	2.5	/experiments/knapen_AOT/AOT_stimuli/rescaled_final/0010_rv.mp4	0.0	272.0815179347992	
55	245.46147108078003	movie	1		245	53.0	2.5	/experiments/knapen_AOT/AOT_stimuli/rescaled_final/0010_rv.mp4	0.0	272.49803495407104	2.500398874282837
55	246.64528703689575	pulse	1	t		53.0	2.5	/experiments/knapen_AOT/AOT_stimuli/rescaled_final/0010_rv.mp4	0.0	273.68185091018677	
55	247.96186995506287	fix_post	2		12	53.0	2.5	/experiments/knapen_AOT/AOT_stimuli/rescaled_final/0010_rv.mp4	0.0	274.9984338283539	0.10001897811889648
56	248.06188893318176	fix_pre	0		120	54.0	2.5	/experiments/knapen_AOT/AOT_stimuli/rescaled_final/1318_fw.mp4	0.0	275.0984528064728	1.0001111030578613
56	248.24546909332275	pulse	0	t		54.0	2.5	/experiments/knapen_AOT/AOT_stimuli/rescaled_final/1318_fw.mp4	0.0	275.28203296661377	
56	249.06200003623962	movie	1		244	54.0	2.5	/experiments/knapen_AOT/AOT_stimuli/rescaled_final/1318_fw.mp4	0.0	276.09856390953064	2.5003910064697266
56	249.84579992294312	pulse	1	t		54.0	2.5	/experiments/knapen_AOT/AOT_stimuli/rescaled_final/1318_fw.mp4	0.0	276.88236379623413	
56	251.4458339214325	pulse	1	t		54.0	2.5	/experiments/knapen_AOT/AOT_stimuli/rescaled_final/1318_fw.mp4	0.0	278.4823977947235	
56	251.56239104270935	fix_post	2		12	54.0	2.5	/experiments/knapen_AOT/AOT_stimuli/rescaled_final/1318_fw.mp4	0.0	278.59895491600037	0.10009193420410156
57	251.66248297691345	fix_pre	0		120	55.0	2.5	blank	1.0	278.69904685020447	1.0001459121704102
57	252.66262888908386	movie	1		299	55.0	2.5	blank	1.0	279.6991927623749	2.4920101165771484
57	253.04615592956543	pulse	1	t		55.0	2.5	blank	1.0	280.08271980285645	
57	254.64636301994324	pulse	1	t		55.0	2.5	blank	1.0	281.68292689323425	
57	255.154639005661	fix_post	2		12	55.0	2.5	blank	1.0	282.191202878952	0.10001206398010254
58	255.2546510696411	fix_pre	0		120	56.0	2.5	/experiments/knapen_AOT/AOT_stimuli/rescaled_final/1384_rv.mp4	0.0	282.29121494293213	1.0001139640808105
58	256.24675989151	pulse	0	t		56.0	2.5	/experiments/knapen_AOT/AOT_stimuli/rescaled_final/1384_rv.mp4	0.0	283.283323764801	
58	256.2547650337219	movie	1		245	56.0	2.5	/experiments/knapen_AOT/AOT_stimuli/rescaled_final/1384_rv.mp4	0.0	283.29132890701294	2.5087180137634277
58	257.8481969833374	pulse	1	t		56.0	2.5	/experiments/knapen_AOT/AOT_stimuli/rescaled_final/1384_rv.mp4	0.0	284.8847608566284	
58	258.76348304748535	fix_post	2		12	56.0	2.5	/experiments/knapen_AOT/AOT_stimuli/rescaled_final/1384_rv.mp4	0.0	285.80004692077637	0.1000359058380127
59	258.86351895332336	fix_pre	0		120	57.0	2.5	/experiments/knapen_AOT/AOT_stimuli/rescaled_final/1854_fw.mp4	0.0	285.9000828266144	1.0001051425933838
59	259.447144985199	pulse	0	t		57.0	2.5	/experiments/knapen_AOT/AOT_stimuli/rescaled_final/1854_fw.mp4	0.0	286.48370885849	
59	259.86362409591675	movie	1		244	57.0	2.5	/experiments/knapen_AOT/AOT_stimuli/rescaled_final/1854_fw.mp4	0.0	286.90018796920776	2.5003650188446045
59	261.04747104644775	pulse	1	t		57.0	2.5	/experiments/knapen_AOT/AOT_stimuli/rescaled_final/1854_fw.mp4	0.0	288.08403491973877	
59	262.36398911476135	fix_post	2		12	57.0	2.5	/experiments/knapen_AOT/AOT_stimuli/rescaled_final/1854_fw.mp4	0.0	289.40055298805237	0.10002684593200684
60	262.46401596069336	fix_pre	0		120	58.0	2.5	/experiments/knapen_AOT/AOT_stimuli/rescaled_final/1322_rv.mp4	0.0	289.5005798339844	1.0001630783081055
60	262.6476540565491	pulse	0	t		58.0	2.5	/experiments/knapen_AOT/AOT_stimuli/rescaled_final/1322_rv.mp4	0.0	289.6842179298401	
60	263.46417903900146	movie	1		245	58.0	2.5	/experiments/knapen_AOT/AOT_stimuli/rescaled_final/1322_rv.mp4	0.0	290.5007429122925	2.5005099773406982
60	264.24783205986023	pulse	1	t		58.0	2.5	/experiments/knapen_AOT/AOT_stimuli/rescaled_final/1322_rv.mp4	0.0	291.28439593315125	
60	265.84603905677795	pulse	1	t		58.0	2.5	/experiments/knapen_AOT/AOT_stimuli/rescaled_final/1322_rv.mp4	0.0	292.88260293006897	
60	265.96468901634216	fix_post	2		12	58.0	2.5	/experiments/knapen_AOT/AOT_stimuli/rescaled_final/1322_rv.mp4	0.0	293.0012528896332	0.09988903999328613
61	266.06457805633545	fix_pre	0		120	59.0	2.5	/experiments/knapen_AOT/AOT_stimuli/rescaled_final/0945_rv.mp4	0.0	293.10114192962646	1.000166893005371
61	267.0647449493408	movie	1		243	59.0	2.5	/experiments/knapen_AOT/AOT_stimuli/rescaled_final/0945_rv.mp4	0.0	294.10130882263184	2.4919991493225098
61	267.44975090026855	pulse	1	t		59.0	2.5	/experiments/knapen_AOT/AOT_stimuli/rescaled_final/0945_rv.mp4	0.0	294.48631477355957	
61	269.0486629009247	pulse	1	t		59.0	2.5	/experiments/knapen_AOT/AOT_stimuli/rescaled_final/0945_rv.mp4	0.0	296.0852267742157	
61	269.55674409866333	fix_post	2		12	59.0	2.5	/experiments/knapen_AOT/AOT_stimuli/rescaled_final/0945_rv.mp4	0.0	296.59330797195435	0.10006284713745117
62	269.6568069458008	fix_pre	0		120	60.0	2.5	/experiments/knapen_AOT/AOT_stimuli/rescaled_final/1445_rv.mp4	0.0	296.6933708190918	1.0001089572906494
62	270.6488060951233	pulse	0	t		60.0	2.5	/experiments/knapen_AOT/AOT_stimuli/rescaled_final/1445_rv.mp4	0.0	297.6853699684143	
62	270.65691590309143	movie	1		245	60.0	2.5	/experiments/knapen_AOT/AOT_stimuli/rescaled_final/1445_rv.mp4	0.0	297.69347977638245	2.508707046508789
62	272.2496449947357	pulse	1	t		60.0	2.5	/experiments/knapen_AOT/AOT_stimuli/rescaled_final/1445_rv.mp4	0.0	299.28620886802673	
62	273.1656229496002	fix_post	2		12	60.0	2.5	/experiments/knapen_AOT/AOT_stimuli/rescaled_final/1445_rv.mp4	0.0	300.20218682289124	0.10003399848937988
63	273.2656569480896	fix_pre	0		120	61.0	2.5	/experiments/knapen_AOT/AOT_stimuli/rescaled_final/2145_rv.mp4	0.0	300.3022208213806	1.0001411437988281
63	273.8493309020996	pulse	0	t		61.0	2.5	/experiments/knapen_AOT/AOT_stimuli/rescaled_final/2145_rv.mp4	0.0	300.8858947753906	
63	274.2657980918884	movie	1		243	61.0	2.5	/experiments/knapen_AOT/AOT_stimuli/rescaled_final/2145_rv.mp4	0.0	301.30236196517944	2.5004148483276367
63	275.4495840072632	pulse	1	t		61.0	2.5	/experiments/knapen_AOT/AOT_stimuli/rescaled_final/2145_rv.mp4	0.0	302.4861478805542	
63	276.76621294021606	fix_post	2		12	61.0	2.5	/experiments/knapen_AOT/AOT_stimuli/rescaled_final/2145_rv.mp4	0.0	303.8027768135071	0.0999290943145752
64	276.86614203453064	fix_pre	0		120	62.0	2.5	blank	1.0	303.90270590782166	1.0001559257507324
64	277.0497419834137	pulse	0	t		62.0	2.5	blank	1.0	304.0863058567047	
64	277.8662979602814	movie	1		300	62.0	2.5	blank	1.0	304.9028618335724	2.500434160232544
64	278.6499960422516	pulse	1	t		62.0	2.5	blank	1.0	305.6865599155426	
64	280.25027990341187	pulse	1	t		62.0	2.5	blank	1.0	307.2868437767029	
64	280.3667321205139	fix_post	2		12	62.0	2.5	blank	1.0	307.40329599380493	0.09996986389160156
65	280.4667019844055	fix_pre	0		120	63.0	2.5	/experiments/knapen_AOT/AOT_stimuli/rescaled_final/0884_fw.mp4	0.0	307.50326585769653	1.0001931190490723
65	281.4668951034546	movie	1		244	63.0	2.5	/experiments/knapen_AOT/AOT_stimuli/rescaled_final/0884_fw.mp4	0.0	308.5034589767456	2.4920248985290527
65	281.85180401802063	pulse	1	t		63.0	2.5	/experiments/knapen_AOT/AOT_stimuli/rescaled_final/0884_fw.mp4	0.0	308.88836789131165	
65	283.450777053833	pulse	1	t		63.0	2.5	/experiments/knapen_AOT/AOT_stimuli/rescaled_final/0884_fw.mp4	0.0	310.487340927124	
65	283.95892000198364	fix_post	2		12	63.0	2.5	/experiments/knapen_AOT/AOT_stimuli/rescaled_final/0884_fw.mp4	0.0	310.99548387527466	0.0999898910522461
66	284.0589098930359	fix_pre	0		120	64.0	2.5	/experiments/knapen_AOT/AOT_stimuli/rescaled_final/1281_rv.mp4	0.0	311.0954737663269	1.00018310546875
66	285.0508749485016	pulse	0	t		64.0	2.5	/experiments/knapen_AOT/AOT_stimuli/rescaled_final/1281_rv.mp4	0.0	312.0874388217926	
66	285.05909299850464	movie	1		247	64.0	2.5	/experiments/knapen_AOT/AOT_stimuli/rescaled_final/1281_rv.mp4	0.0	312.09565687179565	2.5086441040039062
66	286.6516969203949	pulse	1	t		64.0	2.5	/experiments/knapen_AOT/AOT_stimuli/rescaled_final/1281_rv.mp4	0.0	313.6882607936859	
66	287.56773710250854	fix_post	2		12	64.0	2.5	/experiments/knapen_AOT/AOT_stimuli/rescaled_final/1281_rv.mp4	0.0	314.60430097579956	0.1000509262084961
67	287.66778802871704	fix_pre	0		120	65.0	2.5	/experiments/knapen_AOT/AOT_stimuli/rescaled_final/2145_rv.mp4	0.0	314.70435190200806	1.0001459121704102
67	288.2438220977783	pulse	0	t		65.0	2.5	/experiments/knapen_AOT/AOT_stimuli/rescaled_final/2145_rv.mp4	0.0	315.28038597106934	
67	288.66793394088745	movie	1		245	65.0	2.5	/experiments/knapen_AOT/AOT_stimuli/rescaled_final/2145_rv.mp4	0.0	315.70449781417847	2.5004050731658936
67	289.84351992607117	pulse	1	t		65.0	2.5	/experiments/knapen_AOT/AOT_stimuli/rescaled_final/2145_rv.mp4	0.0	316.8800837993622	
67	291.16833901405334	fix_post	2		12	65.0	2.5	/experiments/knapen_AOT/AOT_stimuli/rescaled_final/2145_rv.mp4	0.0	318.20490288734436	0.09998703002929688
68	291.26832604408264	fix_pre	0		120	66.0	2.5	/experiments/knapen_AOT/AOT_stimuli/rescaled_final/0945_rv.mp4	0.0	318.30488991737366	1.0001599788665771
68	291.44353890419006	pulse	0	t		66.0	2.5	/experiments/knapen_AOT/AOT_stimuli/rescaled_final/0945_rv.mp4	0.0	318.4801027774811	
68	292.2684860229492	movie	1		244	66.0	2.5	/experiments/knapen_AOT/AOT_stimuli/rescaled_final/0945_rv.mp4	0.0	319.30504989624023	2.500380039215088
68	293.04376006126404	pulse	1	t		66.0	2.5	/experiments/knapen_AOT/AOT_stimuli/rescaled_final/0945_rv.mp4	0.0	320.08032393455505	
68	294.64395689964294	pulse	1	t		66.0	2.5	/experiments/knapen_AOT/AOT_stimuli/rescaled_final/0945_rv.mp4	0.0	321.68052077293396	
68	294.7688660621643	fix_post	2		12	66.0	2.5	/experiments/knapen_AOT/AOT_stimuli/rescaled_final/0945_rv.mp4	0.0	321.8054299354553	0.10001087188720703
69	294.8688769340515	fix_pre	0		119	67.0	2.5	/experiments/knapen_AOT/AOT_stimuli/rescaled_final/0478_fw.mp4	0.0	321.90544080734253	0.9918081760406494
69	295.86068511009216	movie	1		245	67.0	2.5	/experiments/knapen_AOT/AOT_stimuli/rescaled_final/0478_fw.mp4	0.0	322.8972489833832	2.500330924987793
69	296.24546694755554	pulse	1	t		67.0	2.5	/experiments/knapen_AOT/AOT_stimuli/rescaled_final/0478_fw.mp4	0.0	323.28203082084656	
69	297.84461402893066	pulse	1	t		67.0	2.5	/experiments/knapen_AOT/AOT_stimuli/rescaled_final/0478_fw.mp4	0.0	324.8811779022217	
69	298.36101603507996	fix_post	2		12	67.0	2.5	/experiments/knapen_AOT/AOT_stimuli/rescaled_final/0478_fw.mp4	0.0	325.397579908371	0.10003185272216797
70	298.4610478878021	fix_pre	0		119	68.0	2.5	blank	1.0	325.49761176109314	0.9918341636657715
70	299.44477701187134	pulse	0	t		68.0	2.5	blank	1.0	326.48134088516235	
70	299.4528820514679	movie	1		301	68.0	2.5	blank	1.0	326.4894459247589	2.5087530612945557
70	301.0449640750885	pulse	1	t		68.0	2.5	blank	1.0	328.0815279483795	
70	301.96163511276245	fix_post	2		12	68.0	2.5	blank	1.0	328.99819898605347	0.09996581077575684
71	302.0616009235382	fix_pre	0		120	69.0	2.5	/experiments/knapen_AOT/AOT_stimuli/rescaled_final/1536_rv.mp4	0.0	329.0981647968292	1.0001420974731445
71	302.64530205726624	pulse	0	t		69.0	2.5	/experiments/knapen_AOT/AOT_stimuli/rescaled_final/1536_rv.mp4	0.0	329.68186593055725	
71	303.06174302101135	movie	1		245	69.0	2.5	/experiments/knapen_AOT/AOT_stimuli/rescaled_final/1536_rv.mp4	0.0	330.09830689430237	2.5004029273986816
71	304.24566292762756	pulse	1	t		69.0	2.5	/experiments/knapen_AOT/AOT_stimuli/rescaled_final/1536_rv.mp4	0.0	331.2822268009186	
71	305.56214594841003	fix_post	2		12	69.0	2.5	/experiments/knapen_AOT/AOT_stimuli/rescaled_final/1536_rv.mp4	0.0	332.59870982170105	0.10000014305114746
72	305.6621460914612	fix_pre	0		120	70.0	2.5	/experiments/knapen_AOT/AOT_stimuli/rescaled_final/1337_fw.mp4	0.0	332.6987099647522	1.0001599788665771
72	305.8458240032196	pulse	0	t		70.0	2.5	/experiments/knapen_AOT/AOT_stimuli/rescaled_final/1337_fw.mp4	0.0	332.8823878765106	
72	306.66230607032776	movie	1		244	70.0	2.5	/experiments/knapen_AOT/AOT_stimuli/rescaled_final/1337_fw.mp4	0.0	333.6988699436188	2.5003600120544434
72	307.445955991745	pulse	1	t		70.0	2.5	/experiments/knapen_AOT/AOT_stimuli/rescaled_final/1337_fw.mp4	0.0	334.482519865036	
72	309.0460379123688	pulse	1	t		70.0	2.5	/experiments/knapen_AOT/AOT_stimuli/rescaled_final/1337_fw.mp4	0.0	336.0826017856598	
72	309.1626660823822	fix_post	2		12	70.0	2.5	/experiments/knapen_AOT/AOT_stimuli/rescaled_final/1337_fw.mp4	0.0	336.1992299556732	0.10001182556152344
73	309.2626779079437	fix_pre	0		119	71.0	2.5	/experiments/knapen_AOT/AOT_stimuli/rescaled_final/2137_fw.mp4	0.0	336.29924178123474	0.9918150901794434
73	310.25449299812317	movie	1		245	71.0	2.5	/experiments/knapen_AOT/AOT_stimuli/rescaled_final/2137_fw.mp4	0.0	337.2910568714142	2.5004019737243652
73	310.64652395248413	pulse	1	t		71.0	2.5	/experiments/knapen_AOT/AOT_stimuli/rescaled_final/2137_fw.mp4	0.0	337.68308782577515	
73	312.24674010276794	pulse	1	t		71.0	2.5	/experiments/knapen_AOT/AOT_stimuli/rescaled_final/2137_fw.mp4	0.0	339.28330397605896	
73	312.75489497184753	fix_post	2		12	71.0	2.5	/experiments/knapen_AOT/AOT_stimuli/rescaled_final/2137_fw.mp4	0.0	339.79145884513855	0.09999394416809082
74	312.8548889160156	fix_pre	0		120	72.0	2.5	/experiments/knapen_AOT/AOT_stimuli/rescaled_final/1401_fw.mp4	0.0	339.89145278930664	1.0001251697540283
74	313.84693789482117	pulse	0	t		72.0	2.5	/experiments/knapen_AOT/AOT_stimuli/rescaled_final/1401_fw.mp4	0.0	340.8835017681122	
74	313.85501408576965	movie	1		245	72.0	2.5	/experiments/knapen_AOT/AOT_stimuli/rescaled_final/1401_fw.mp4	0.0	340.89157795906067	2.5087168216705322
74	315.45193791389465	pulse	1	t		72.0	2.5	/experiments/knapen_AOT/AOT_stimuli/rescaled_final/1401_fw.mp4	0.0	342.48850178718567	
74	316.3637309074402	fix_post	2		12	72.0	2.5	/experiments/knapen_AOT/AOT_stimuli/rescaled_final/1401_fw.mp4	0.0	343.4002947807312	0.10003900527954102
75	316.4637699127197	fix_pre	0		120	73.0	2.5	/experiments/knapen_AOT/AOT_stimuli/rescaled_final/1489_rv.mp4	0.0	343.50033378601074	1.000169038772583
75	317.04743909835815	pulse	0	t		73.0	2.5	/experiments/knapen_AOT/AOT_stimuli/rescaled_final/1489_rv.mp4	0.0	344.08400297164917	
75	317.4639389514923	movie	1		244	73.0	2.5	/experiments/knapen_AOT/AOT_stimuli/rescaled_final/1489_rv.mp4	0.0	344.5005028247833	2.500326156616211
75	318.64781308174133	pulse	1	t		73.0	2.5	/experiments/knapen_AOT/AOT_stimuli/rescaled_final/1489_rv.mp4	0.0	345.68437695503235	
75	319.9642651081085	fix_post	2		12	73.0	2.5	/experiments/knapen_AOT/AOT_stimuli/rescaled_final/1489_rv.mp4	0.0	347.00082898139954	0.10009598731994629
76	320.06436109542847	fix_pre	0		120	74.0	2.5	/experiments/knapen_AOT/AOT_stimuli/rescaled_final/0801_fw.mp4	0.0	347.1009249687195	1.0000770092010498
76	320.247976064682	pulse	0	t		74.0	2.5	/experiments/knapen_AOT/AOT_stimuli/rescaled_final/0801_fw.mp4	0.0	347.284539937973	
76	321.0644381046295	movie	1		245	74.0	2.5	/experiments/knapen_AOT/AOT_stimuli/rescaled_final/0801_fw.mp4	0.0	348.10100197792053	2.5003838539123535
76	321.8482201099396	pulse	1	t		74.0	2.5	/experiments/knapen_AOT/AOT_stimuli/rescaled_final/0801_fw.mp4	0.0	348.8847839832306	
76	323.4457609653473	pulse	1	t		74.0	2.5	/experiments/knapen_AOT/AOT_stimuli/rescaled_final/0801_fw.mp4	0.0	350.4823248386383	
76	323.56482195854187	fix_post	2		12	74.0	2.5	/experiments/knapen_AOT/AOT_stimuli/rescaled_final/0801_fw.mp4	0.0	350.6013858318329	0.10000300407409668
77	323.66482496261597	fix_pre	0		120	75.0	2.5	/experiments/knapen_AOT/AOT_stimuli/rescaled_final/0814_fw.mp4	0.0	350.701388835907	1.0001671314239502
77	324.6649920940399	movie	1		244	75.0	2.5	/experiments/knapen_AOT/AOT_stimuli/rescaled_final/0814_fw.mp4	0.0	351.70155596733093	2.492003917694092
77	325.04895305633545	pulse	1	t		75.0	2.5	/experiments/knapen_AOT/AOT_stimuli/rescaled_final/0814_fw.mp4	0.0	352.08551692962646	
77	326.64893198013306	pulse	1	t		75.0	2.5	/experiments/knapen_AOT/AOT_stimuli/rescaled_final/0814_fw.mp4	0.0	353.6854958534241	
77	327.156996011734	fix_post	2		12	75.0	2.5	/experiments/knapen_AOT/AOT_stimuli/rescaled_final/0814_fw.mp4	0.0	354.193559885025	0.10002589225769043
78	327.2570219039917	fix_pre	0		120	76.0	2.5	/experiments/knapen_AOT/AOT_stimuli/rescaled_final/0333_rv.mp4	0.0	354.2935857772827	1.0001721382141113
78	328.24905800819397	pulse	0	t		76.0	2.5	/experiments/knapen_AOT/AOT_stimuli/rescaled_final/0333_rv.mp4	0.0	355.285621881485	
78	328.2571940422058	movie	1		246	76.0	2.5	/experiments/knapen_AOT/AOT_stimuli/rescaled_final/0333_rv.mp4	0.0	355.2937579154968	2.508697986602783
78	329.849760055542	pulse	1	t		76.0	2.5	/experiments/knapen_AOT/AOT_stimuli/rescaled_final/0333_rv.mp4	0.0	356.886323928833	
78	330.7658920288086	fix_post	2		12	76.0	2.5	/experiments/knapen_AOT/AOT_stimuli/rescaled_final/0333_rv.mp4	0.0	357.8024559020996	0.09999895095825195
79	330.86589097976685	fix_pre	0		120	77.0	2.5	blank	1.0	357.90245485305786	1.000195026397705
79	331.4495439529419	pulse	0	t		77.0	2.5	blank	1.0	358.4861078262329	
79	331.86608600616455	movie	1		300	77.0	2.5	blank	1.0	358.90264987945557	2.500570058822632
79	333.0498399734497	pulse	1	t		77.0	2.5	blank	1.0	360.0864038467407	
79	334.3666560649872	fix_post	2		10	77.0	2.5	blank	1.0	361.4032199382782	0.09980893135070801
80	334.4664649963379	fix_pre	0		120	78.0	2.5	/experiments/knapen_AOT/AOT_stimuli/rescaled_final/0223_rv.mp4	0.0	361.5030288696289	1.0001189708709717
80	334.6499710083008	pulse	0	t		78.0	2.5	/experiments/knapen_AOT/AOT_stimuli/rescaled_final/0223_rv.mp4	0.0	361.6865348815918	
80	335.46658396720886	movie	1		243	78.0	2.5	/experiments/knapen_AOT/AOT_stimuli/rescaled_final/0223_rv.mp4	0.0	362.5031478404999	2.500343084335327
80	336.25037908554077	pulse	1	t		78.0	2.5	/experiments/knapen_AOT/AOT_stimuli/rescaled_final/0223_rv.mp4	0.0	363.2869429588318	
80	337.8503510951996	pulse	1	t		78.0	2.5	/experiments/knapen_AOT/AOT_stimuli/rescaled_final/0223_rv.mp4	0.0	364.8869149684906	
80	337.9669270515442	fix_post	2		12	78.0	2.5	/experiments/knapen_AOT/AOT_stimuli/rescaled_final/0223_rv.mp4	0.0	365.0034909248352	0.10005903244018555
81	338.0669860839844	fix_pre	0		119	79.0	2.5	/experiments/knapen_AOT/AOT_stimuli/rescaled_final/1043_rv.mp4	0.0	365.1035499572754	0.9919300079345703
81	339.05891609191895	movie	1		245	79.0	2.5	/experiments/knapen_AOT/AOT_stimuli/rescaled_final/1043_rv.mp4	0.0	366.09547996520996	2.5002689361572266
81	339.44682693481445	pulse	1	t		79.0	2.5	/experiments/knapen_AOT/AOT_stimuli/rescaled_final/1043_rv.mp4	0.0	366.48339080810547	
81	341.05095291137695	pulse	1	t		79.0	2.5	/experiments/knapen_AOT/AOT_stimuli/rescaled_final/1043_rv.mp4	0.0	368.08751678466797	
81	341.5591850280762	fix_post	2		12	79.0	2.5	/experiments/knapen_AOT/AOT_stimuli/rescaled_final/1043_rv.mp4	0.0	368.5957489013672	0.09998297691345215
82	341.6591680049896	fix_pre	0		120	80.0	2.5	/experiments/knapen_AOT/AOT_stimuli/rescaled_final/1332_fw.mp4	0.0	368.69573187828064	1.0001540184020996
82	342.6512439250946	pulse	0	t		80.0	2.5	/experiments/knapen_AOT/AOT_stimuli/rescaled_final/1332_fw.mp4	0.0	369.6878077983856	
82	342.6593220233917	movie	1		245	80.0	2.5	/experiments/knapen_AOT/AOT_stimuli/rescaled_final/1332_fw.mp4	0.0	369.69588589668274	2.5086870193481445
82	344.25207591056824	pulse	1	t		80.0	2.5	/experiments/knapen_AOT/AOT_stimuli/rescaled_final/1332_fw.mp4	0.0	371.28863978385925	
82	345.16800904273987	fix_post	2		12	80.0	2.5	/experiments/knapen_AOT/AOT_stimuli/rescaled_final/1332_fw.mp4	0.0	372.2045729160309	0.10007095336914062
83	345.268079996109	fix_pre	0		120	81.0	2.5	/experiments/knapen_AOT/AOT_stimuli/rescaled_final/1489_fw.mp4	0.0	372.3046438694	1.0001239776611328
83	345.84419202804565	pulse	0	t		81.0	2.5	/experiments/knapen_AOT/AOT_stimuli/rescaled_final/1489_fw.mp4	0.0	372.88075590133667	
83	346.26820397377014	movie	1		244	81.0	2.5	/experiments/knapen_AOT/AOT_stimuli/rescaled_final/1489_fw.mp4	0.0	373.30476784706116	2.500433921813965
83	347.4445250034332	pulse	1	t		81.0	2.5	/experiments/knapen_AOT/AOT_stimuli/rescaled_final/1489_fw.mp4	0.0	374.48108887672424	
83	348.7686378955841	fix_post	2		12	81.0	2.5	/experiments/knapen_AOT/AOT_stimuli/rescaled_final/1489_fw.mp4	0.0	375.8052017688751	0.09996318817138672
84	348.8686010837555	fix_pre	0		120	82.0	2.5	/experiments/knapen_AOT/AOT_stimuli/rescaled_final/1894_fw.mp4	0.0	375.9051649570465	1.000140905380249
84	349.0448079109192	pulse	0	t		82.0	2.5	/experiments/knapen_AOT/AOT_stimuli/rescaled_final/1894_fw.mp4	0.0	376.0813717842102	
84	349.86874198913574	movie	1		245	82.0	2.5	/experiments/knapen_AOT/AOT_stimuli/rescaled_final/1894_fw.mp4	0.0	376.90530586242676	2.5003840923309326
84	350.64409708976746	pulse	1	t		82.0	2.5	/experiments/knapen_AOT/AOT_stimuli/rescaled_final/1894_fw.mp4	0.0	377.6806609630585	
84	352.24426102638245	pulse	1	t		82.0	2.5	/experiments/knapen_AOT/AOT_stimuli/rescaled_final/1894_fw.mp4	0.0	379.28082489967346	
84	352.3691260814667	fix_post	2		12	82.0	2.5	/experiments/knapen_AOT/AOT_stimuli/rescaled_final/1894_fw.mp4	0.0	379.4056899547577	0.10008883476257324
85	352.46921491622925	fix_pre	0		120	83.0	2.5	blank	1.0	379.50577878952026	1.0000309944152832
85	353.46924591064453	movie	1		299	83.0	2.5	blank	1.0	380.50580978393555	2.4920849800109863
85	353.8444700241089	pulse	1	t		83.0	2.5	blank	1.0	380.8810338973999	
85	355.4448459148407	pulse	1	t		83.0	2.5	blank	1.0	382.4814097881317	
85	355.9613308906555	fix_post	2		12	83.0	2.5	blank	1.0	382.99789476394653	0.09999203681945801
87	356.061322927475	stim	0		1716					383.097886800766	14.302219152450562
87	357.04496693611145	pulse	0	t						384.08153080940247	
87	358.64519906044006	pulse	0	t						385.6817629337311	
87	360.2454319000244	pulse	0	t						387.28199577331543	
87	361.8456859588623	pulse	0	t						388.8822498321533	
87	363.44590497016907	pulse	0	t						390.4824688434601	
87	365.0461869239807	pulse	0	t						392.08275079727173	
87	366.6464009284973	pulse	0	t						393.68296480178833	
87	368.2466130256653	pulse	0	t						395.2831768989563	
87	369.8468849658966	pulse	0	t						396.8834488391876	
