trial_nr	onset	event_type	phase	response	nr_frames	movie_index	movie_duration	movie_file	blank	onset_abs	duration
0	0.1498548984527588	stim	0		19					20.77232789993286	0.1583712100982666
0	0.3001890182495117	response	0	space						20.922662019729614	
1	0.3082261085510254	stim	0		4660					20.930699110031128	38.83311080932617
1	39.13331890106201	pulse	0	t						59.755791902542114	
1	39.1413369178772	stim	1		1717					59.7638099193573	14.308374166488647
1	40.73316407203674	pulse	1	t						61.355637073516846	
1	42.33315706253052	pulse	1	t						62.95563006401062	
1	43.933149099349976	pulse	1	t						64.55562210083008	
1	45.53313207626343	pulse	1	t						66.15560507774353	
1	47.13324189186096	pulse	1	t						67.75571489334106	
1	48.733129024505615	pulse	1	t						69.35560202598572	
1	50.33322310447693	pulse	1	t						70.95569610595703	
1	51.93310499191284	pulse	1	t						72.55557799339294	
2	53.449711084365845	fix_pre	0		11	0.0	2.5	/experiments/AOT/AOT_stimuli/rescaled_final/1488_fw.mp4	0.0	74.07218408584595	0.09157991409301758
2	53.53317904472351	pulse	0	t		0.0	2.5	/experiments/AOT/AOT_stimuli/rescaled_final/1488_fw.mp4	0.0	74.15565204620361	
2	53.54129099845886	movie	1		244	0.0	2.5	/experiments/AOT/AOT_stimuli/rescaled_final/1488_fw.mp4	0.0	74.16376399993896	2.507956027984619
2	55.13281297683716	pulse	1	t		0.0	2.5	/experiments/AOT/AOT_stimuli/rescaled_final/1488_fw.mp4	0.0	75.75528597831726	
2	56.04924702644348	fix_post	2		12	0.0	2.5	/experiments/AOT/AOT_stimuli/rescaled_final/1488_fw.mp4	0.0	76.67172002792358	0.1004948616027832
3	56.149741888046265	fix_pre	0		120	1.0	2.5	/experiments/AOT/AOT_stimuli/rescaled_final/0807_fw.mp4	0.0	76.77221488952637	0.9999840259552002
3	56.73322010040283	pulse	0	t		1.0	2.5	/experiments/AOT/AOT_stimuli/rescaled_final/0807_fw.mp4	0.0	77.35569310188293	
3	57.149725914001465	movie	1		242	1.0	2.5	/experiments/AOT/AOT_stimuli/rescaled_final/0807_fw.mp4	0.0	77.77219891548157	2.499847173690796
3	58.333106994628906	pulse	1	t		1.0	2.5	/experiments/AOT/AOT_stimuli/rescaled_final/0807_fw.mp4	0.0	78.95557999610901	
3	59.64957308769226	fix_post	2		12	1.0	2.5	/experiments/AOT/AOT_stimuli/rescaled_final/0807_fw.mp4	0.0	80.27204608917236	0.10004782676696777
4	59.74962091445923	fix_pre	0		120	2.0	2.5	/experiments/AOT/AOT_stimuli/rescaled_final/0006_rv.mp4	0.0	80.37209391593933	0.9999561309814453
4	59.93314290046692	pulse	0	t		2.0	2.5	/experiments/AOT/AOT_stimuli/rescaled_final/0006_rv.mp4	0.0	80.55561590194702	
4	60.749577045440674	movie	1		243	2.0	2.5	/experiments/AOT/AOT_stimuli/rescaled_final/0006_rv.mp4	0.0	81.37205004692078	2.499640941619873
4	61.53312397003174	pulse	1	t		2.0	2.5	/experiments/AOT/AOT_stimuli/rescaled_final/0006_rv.mp4	0.0	82.15559697151184	
4	63.131824016571045	pulse	1	t		2.0	2.5	/experiments/AOT/AOT_stimuli/rescaled_final/0006_rv.mp4	0.0	83.75429701805115	
4	63.24921798706055	fix_post	2		12	2.0	2.5	/experiments/AOT/AOT_stimuli/rescaled_final/0006_rv.mp4	0.0	83.87169098854065	0.09993195533752441
5	63.34914994239807	fix_pre	0		120	3.0	2.5	/experiments/AOT/AOT_stimuli/rescaled_final/1645_rv.mp4	0.0	83.97162294387817	1.0004379749298096
5	64.34958791732788	movie	1		245	3.0	2.5	/experiments/AOT/AOT_stimuli/rescaled_final/1645_rv.mp4	0.0	84.97206091880798	2.500005006790161
5	64.7325189113617	pulse	1	t		3.0	2.5	/experiments/AOT/AOT_stimuli/rescaled_final/1645_rv.mp4	0.0	85.3549919128418	
5	66.33311891555786	pulse	1	t		3.0	2.5	/experiments/AOT/AOT_stimuli/rescaled_final/1645_rv.mp4	0.0	86.95559191703796	
5	66.84959292411804	fix_post	2		12	3.0	2.5	/experiments/AOT/AOT_stimuli/rescaled_final/1645_rv.mp4	0.0	87.47206592559814	0.10008907318115234
6	66.9496819972992	fix_pre	0		119	4.0	2.5	/experiments/AOT/AOT_stimuli/rescaled_final/1152_fw.mp4	0.0	87.5721549987793	0.9915370941162109
6	67.93302893638611	pulse	0	t		4.0	2.5	/experiments/AOT/AOT_stimuli/rescaled_final/1152_fw.mp4	0.0	88.55550193786621	
6	67.9412190914154	movie	1		245	4.0	2.5	/experiments/AOT/AOT_stimuli/rescaled_final/1152_fw.mp4	0.0	88.56369209289551	2.5084547996520996
6	69.5332260131836	pulse	1	t		4.0	2.5	/experiments/AOT/AOT_stimuli/rescaled_final/1152_fw.mp4	0.0	90.1556990146637	
6	70.4496738910675	fix_post	2		12	4.0	2.5	/experiments/AOT/AOT_stimuli/rescaled_final/1152_fw.mp4	0.0	91.07214689254761	0.09991002082824707
7	70.54958391189575	fix_pre	0		120	5.0	2.5	/experiments/AOT/AOT_stimuli/rescaled_final/0476_rv.mp4	0.0	91.17205691337585	1.000007152557373
7	71.13307690620422	pulse	0	t		5.0	2.5	/experiments/AOT/AOT_stimuli/rescaled_final/0476_rv.mp4	0.0	91.75554990768433	
7	71.54959106445312	movie	1		245	5.0	2.5	/experiments/AOT/AOT_stimuli/rescaled_final/0476_rv.mp4	0.0	92.17206406593323	2.499898910522461
7	72.73266196250916	pulse	1	t		5.0	2.5	/experiments/AOT/AOT_stimuli/rescaled_final/0476_rv.mp4	0.0	93.35513496398926	
7	74.04948997497559	fix_post	2		12	5.0	2.5	/experiments/AOT/AOT_stimuli/rescaled_final/0476_rv.mp4	0.0	94.67196297645569	0.10001802444458008
8	74.14950799942017	fix_pre	0		120	6.0	2.5	/experiments/AOT/AOT_stimuli/rescaled_final/0559_fw.mp4	0.0	94.77198100090027	1.0004630088806152
8	74.332937002182	pulse	0	t		6.0	2.5	/experiments/AOT/AOT_stimuli/rescaled_final/0559_fw.mp4	0.0	94.95541000366211	
8	75.14997100830078	movie	1		243	6.0	2.5	/experiments/AOT/AOT_stimuli/rescaled_final/0559_fw.mp4	0.0	95.77244400978088	2.499666929244995
8	75.93317103385925	pulse	1	t		6.0	2.5	/experiments/AOT/AOT_stimuli/rescaled_final/0559_fw.mp4	0.0	96.55564403533936	
8	77.54150199890137	pulse	1	t		6.0	2.5	/experiments/AOT/AOT_stimuli/rescaled_final/0559_fw.mp4	0.0	98.16397500038147	
8	77.64963793754578	fix_post	2		12	6.0	2.5	/experiments/AOT/AOT_stimuli/rescaled_final/0559_fw.mp4	0.0	98.27211093902588	0.09993505477905273
9	77.74957299232483	fix_pre	0		120	7.0	2.5	blank	1.0	98.37204599380493	1.000025987625122
9	78.74959897994995	movie	1		300	7.0	2.5	blank	1.0	99.37207198143005	2.499958038330078
9	79.1331160068512	pulse	1	t		7.0	2.5	blank	1.0	99.7555890083313	
9	80.73295998573303	pulse	1	t		7.0	2.5	blank	1.0	101.35543298721313	
9	81.24955701828003	fix_post	2		12	7.0	2.5	blank	1.0	101.87203001976013	0.10003805160522461
10	81.34959506988525	fix_pre	0		119	8.0	2.5	/experiments/AOT/AOT_stimuli/rescaled_final/0778_rv.mp4	0.0	101.97206807136536	0.991614818572998
10	82.33295798301697	pulse	0	t		8.0	2.5	/experiments/AOT/AOT_stimuli/rescaled_final/0778_rv.mp4	0.0	102.95543098449707	
10	82.34120988845825	movie	1		245	8.0	2.5	/experiments/AOT/AOT_stimuli/rescaled_final/0778_rv.mp4	0.0	102.96368288993835	2.5079760551452637
10	83.93270492553711	pulse	1	t		8.0	2.5	/experiments/AOT/AOT_stimuli/rescaled_final/0778_rv.mp4	0.0	104.55517792701721	
10	84.84918594360352	fix_post	2		12	8.0	2.5	/experiments/AOT/AOT_stimuli/rescaled_final/0778_rv.mp4	0.0	105.47165894508362	0.1002960205078125
11	84.94948196411133	fix_pre	0		120	9.0	2.5	/experiments/AOT/AOT_stimuli/rescaled_final/1566_rv.mp4	0.0	105.57195496559143	0.9996979236602783
11	85.53294897079468	pulse	0	t		9.0	2.5	/experiments/AOT/AOT_stimuli/rescaled_final/1566_rv.mp4	0.0	106.15542197227478	
11	85.9491798877716	movie	1		246	9.0	2.5	/experiments/AOT/AOT_stimuli/rescaled_final/1566_rv.mp4	0.0	106.57165288925171	2.5003662109375
11	87.13307309150696	pulse	1	t		9.0	2.5	/experiments/AOT/AOT_stimuli/rescaled_final/1566_rv.mp4	0.0	107.75554609298706	
11	88.4495460987091	fix_post	2		12	9.0	2.5	/experiments/AOT/AOT_stimuli/rescaled_final/1566_rv.mp4	0.0	109.07201910018921	0.10001993179321289
12	88.54956603050232	fix_pre	0		120	10.0	2.5	/experiments/AOT/AOT_stimuli/rescaled_final/1669_rv.mp4	0.0	109.17203903198242	0.9999740123748779
12	88.73302412033081	pulse	0	t		10.0	2.5	/experiments/AOT/AOT_stimuli/rescaled_final/1669_rv.mp4	0.0	109.35549712181091	
12	89.5495400428772	movie	1		246	10.0	2.5	/experiments/AOT/AOT_stimuli/rescaled_final/1669_rv.mp4	0.0	110.1720130443573	2.4999380111694336
12	90.33307194709778	pulse	1	t		10.0	2.5	/experiments/AOT/AOT_stimuli/rescaled_final/1669_rv.mp4	0.0	110.95554494857788	
12	91.93169808387756	pulse	1	t		10.0	2.5	/experiments/AOT/AOT_stimuli/rescaled_final/1669_rv.mp4	0.0	112.55417108535767	
12	92.04947805404663	fix_post	2		12	10.0	2.5	/experiments/AOT/AOT_stimuli/rescaled_final/1669_rv.mp4	0.0	112.67195105552673	0.0999610424041748
13	92.1494390964508	fix_pre	0		120	11.0	2.5	/experiments/AOT/AOT_stimuli/rescaled_final/1451_fw.mp4	0.0	112.77191209793091	1.000126838684082
13	93.14956593513489	movie	1		245	11.0	2.5	/experiments/AOT/AOT_stimuli/rescaled_final/1451_fw.mp4	0.0	113.77203893661499	2.4994959831237793
13	93.53317308425903	pulse	1	t		11.0	2.5	/experiments/AOT/AOT_stimuli/rescaled_final/1451_fw.mp4	0.0	114.15564608573914	
13	95.13312101364136	pulse	1	t		11.0	2.5	/experiments/AOT/AOT_stimuli/rescaled_final/1451_fw.mp4	0.0	115.75559401512146	
13	95.64906191825867	fix_post	2		12	11.0	2.5	/experiments/AOT/AOT_stimuli/rescaled_final/1451_fw.mp4	0.0	116.27153491973877	0.10038018226623535
14	95.7494421005249	fix_pre	0		119	12.0	2.5	/experiments/AOT/AOT_stimuli/rescaled_final/1086_fw.mp4	0.0	116.371915102005	0.9916889667510986
14	96.73298001289368	pulse	0	t		12.0	2.5	/experiments/AOT/AOT_stimuli/rescaled_final/1086_fw.mp4	0.0	117.35545301437378	
14	96.741131067276	movie	1		246	12.0	2.5	/experiments/AOT/AOT_stimuli/rescaled_final/1086_fw.mp4	0.0	117.3636040687561	2.5084328651428223
14	98.3340699672699	pulse	1	t		12.0	2.5	/experiments/AOT/AOT_stimuli/rescaled_final/1086_fw.mp4	0.0	118.95654296875	
14	99.24956393241882	fix_post	2		12	12.0	2.5	/experiments/AOT/AOT_stimuli/rescaled_final/1086_fw.mp4	0.0	119.87203693389893	0.09993410110473633
15	99.34949803352356	fix_pre	0		120	13.0	2.5	blank	1.0	119.97197103500366	1.0000028610229492
15	99.93299889564514	pulse	0	t		13.0	2.5	blank	1.0	120.55547189712524	
15	100.34950089454651	movie	1		300	13.0	2.5	blank	1.0	120.97197389602661	2.5000290870666504
15	101.53294491767883	pulse	1	t		13.0	2.5	blank	1.0	122.15541791915894	
15	102.84952998161316	fix_post	2		12	13.0	2.5	blank	1.0	123.47200298309326	0.09994792938232422
16	102.94947791099548	fix_pre	0		120	14.0	2.5	/experiments/AOT/AOT_stimuli/rescaled_final/1569_rv.mp4	0.0	123.57195091247559	1.0001280307769775
16	103.1329779624939	pulse	0	t		14.0	2.5	/experiments/AOT/AOT_stimuli/rescaled_final/1569_rv.mp4	0.0	123.755450963974	
16	103.94960594177246	movie	1		243	14.0	2.5	/experiments/AOT/AOT_stimuli/rescaled_final/1569_rv.mp4	0.0	124.57207894325256	2.499894142150879
16	104.73295211791992	pulse	1	t		14.0	2.5	/experiments/AOT/AOT_stimuli/rescaled_final/1569_rv.mp4	0.0	125.35542511940002	
16	106.33174109458923	pulse	1	t		14.0	2.5	/experiments/AOT/AOT_stimuli/rescaled_final/1569_rv.mp4	0.0	126.95421409606934	
16	106.44950008392334	fix_post	2		12	14.0	2.5	/experiments/AOT/AOT_stimuli/rescaled_final/1569_rv.mp4	0.0	127.07197308540344	0.09998488426208496
17	106.54948496818542	fix_pre	0		120	15.0	2.5	/experiments/AOT/AOT_stimuli/rescaled_final/1086_rv.mp4	0.0	127.17195796966553	0.9999260902404785
17	107.5494110584259	movie	1		246	15.0	2.5	/experiments/AOT/AOT_stimuli/rescaled_final/1086_rv.mp4	0.0	128.171884059906	2.5000338554382324
17	107.93239688873291	pulse	1	t		15.0	2.5	/experiments/AOT/AOT_stimuli/rescaled_final/1086_rv.mp4	0.0	128.554869890213	
17	109.5328540802002	pulse	1	t		15.0	2.5	/experiments/AOT/AOT_stimuli/rescaled_final/1086_rv.mp4	0.0	130.1553270816803	
17	110.04944491386414	fix_post	2		12	15.0	2.5	/experiments/AOT/AOT_stimuli/rescaled_final/1086_rv.mp4	0.0	130.67191791534424	0.10008001327514648
18	110.14952492713928	fix_pre	0		119	16.0	2.5	/experiments/AOT/AOT_stimuli/rescaled_final/0401_rv.mp4	0.0	130.77199792861938	0.991610050201416
18	111.13290095329285	pulse	0	t		16.0	2.5	/experiments/AOT/AOT_stimuli/rescaled_final/0401_rv.mp4	0.0	131.75537395477295	
18	111.1411349773407	movie	1		246	16.0	2.5	/experiments/AOT/AOT_stimuli/rescaled_final/0401_rv.mp4	0.0	131.7636079788208	2.508341073989868
18	112.73237204551697	pulse	1	t		16.0	2.5	/experiments/AOT/AOT_stimuli/rescaled_final/0401_rv.mp4	0.0	133.35484504699707	
18	113.64947605133057	fix_post	2		12	16.0	2.5	/experiments/AOT/AOT_stimuli/rescaled_final/0401_rv.mp4	0.0	134.27194905281067	0.09998488426208496
19	113.74946093559265	fix_pre	0		120	17.0	2.5	/experiments/AOT/AOT_stimuli/rescaled_final/1681_rv.mp4	0.0	134.37193393707275	1.0000591278076172
19	114.33295202255249	pulse	0	t		17.0	2.5	/experiments/AOT/AOT_stimuli/rescaled_final/1681_rv.mp4	0.0	134.9554250240326	
19	114.74952006340027	movie	1		245	17.0	2.5	/experiments/AOT/AOT_stimuli/rescaled_final/1681_rv.mp4	0.0	135.37199306488037	2.499858856201172
19	115.93296599388123	pulse	1	t		17.0	2.5	/experiments/AOT/AOT_stimuli/rescaled_final/1681_rv.mp4	0.0	136.55543899536133	
19	117.24937891960144	fix_post	2		12	17.0	2.5	/experiments/AOT/AOT_stimuli/rescaled_final/1681_rv.mp4	0.0	137.87185192108154	0.10012006759643555
20	117.34949898719788	fix_pre	0		120	18.0	2.5	/experiments/AOT/AOT_stimuli/rescaled_final/1152_rv.mp4	0.0	137.97197198867798	0.9995040893554688
20	117.53290510177612	pulse	0	t		18.0	2.5	/experiments/AOT/AOT_stimuli/rescaled_final/1152_rv.mp4	0.0	138.15537810325623	
20	118.34900307655334	movie	1		245	18.0	2.5	/experiments/AOT/AOT_stimuli/rescaled_final/1152_rv.mp4	0.0	138.97147607803345	2.500412940979004
20	119.13286805152893	pulse	1	t		18.0	2.5	/experiments/AOT/AOT_stimuli/rescaled_final/1152_rv.mp4	0.0	139.75534105300903	
20	120.73158192634583	pulse	1	t		18.0	2.5	/experiments/AOT/AOT_stimuli/rescaled_final/1152_rv.mp4	0.0	141.35405492782593	
20	120.84941601753235	fix_post	2		12	18.0	2.5	/experiments/AOT/AOT_stimuli/rescaled_final/1152_rv.mp4	0.0	141.47188901901245	0.09997391700744629
21	120.9493899345398	fix_pre	0		120	19.0	2.5	/experiments/AOT/AOT_stimuli/rescaled_final/0197_fw.mp4	0.0	141.5718629360199	1.0001320838928223
21	121.94952201843262	movie	1		243	19.0	2.5	/experiments/AOT/AOT_stimuli/rescaled_final/0197_fw.mp4	0.0	142.57199501991272	2.4999380111694336
21	122.3329689502716	pulse	1	t		19.0	2.5	/experiments/AOT/AOT_stimuli/rescaled_final/0197_fw.mp4	0.0	142.9554419517517	
21	123.93288993835449	pulse	1	t		19.0	2.5	/experiments/AOT/AOT_stimuli/rescaled_final/0197_fw.mp4	0.0	144.5553629398346	
21	124.44946002960205	fix_post	2		12	19.0	2.5	/experiments/AOT/AOT_stimuli/rescaled_final/0197_fw.mp4	0.0	145.07193303108215	0.0995020866394043
22	124.54896211624146	fix_pre	0		119	20.0	2.5	/experiments/AOT/AOT_stimuli/rescaled_final/1580_fw.mp4	0.0	145.17143511772156	0.9921658039093018
22	125.53288698196411	pulse	0	t		20.0	2.5	/experiments/AOT/AOT_stimuli/rescaled_final/1580_fw.mp4	0.0	146.1553599834442	
22	125.54112792015076	movie	1		248	20.0	2.5	/experiments/AOT/AOT_stimuli/rescaled_final/1580_fw.mp4	0.0	146.16360092163086	2.5079071521759033
22	127.1322090625763	pulse	1	t		20.0	2.5	/experiments/AOT/AOT_stimuli/rescaled_final/1580_fw.mp4	0.0	147.7546820640564	
22	128.04903507232666	fix_post	2		12	20.0	2.5	/experiments/AOT/AOT_stimuli/rescaled_final/1580_fw.mp4	0.0	148.67150807380676	0.10038089752197266
23	128.14941596984863	fix_pre	0		120	21.0	2.5	blank	1.0	148.77188897132874	0.999748945236206
23	128.73235893249512	pulse	0	t		21.0	2.5	blank	1.0	149.35483193397522	
23	129.14916491508484	movie	1		300	21.0	2.5	blank	1.0	149.77163791656494	2.5002200603485107
23	130.33306694030762	pulse	1	t		21.0	2.5	blank	1.0	150.95553994178772	
23	131.64938497543335	fix_post	2		12	21.0	2.5	blank	1.0	152.27185797691345	0.10014891624450684
24	131.74953389167786	fix_pre	0		120	22.0	2.5	/experiments/AOT/AOT_stimuli/rescaled_final/0616_fw.mp4	0.0	152.37200689315796	0.9999511241912842
24	131.93289399147034	pulse	0	t		22.0	2.5	/experiments/AOT/AOT_stimuli/rescaled_final/0616_fw.mp4	0.0	152.55536699295044	
24	132.74948501586914	movie	1		245	22.0	2.5	/experiments/AOT/AOT_stimuli/rescaled_final/0616_fw.mp4	0.0	153.37195801734924	2.4998528957366943
24	133.5327661037445	pulse	1	t		22.0	2.5	/experiments/AOT/AOT_stimuli/rescaled_final/0616_fw.mp4	0.0	154.1552391052246	
24	135.13277101516724	pulse	1	t		22.0	2.5	/experiments/AOT/AOT_stimuli/rescaled_final/0616_fw.mp4	0.0	155.75524401664734	
24	135.24933791160583	fix_post	2		12	22.0	2.5	/experiments/AOT/AOT_stimuli/rescaled_final/0616_fw.mp4	0.0	155.87181091308594	0.10001015663146973
25	135.3493480682373	fix_pre	0		120	23.0	2.5	/experiments/AOT/AOT_stimuli/rescaled_final/2178_rv.mp4	0.0	155.9718210697174	0.9999740123748779
25	136.34932208061218	movie	1		244	23.0	2.5	/experiments/AOT/AOT_stimuli/rescaled_final/2178_rv.mp4	0.0	156.97179508209229	2.500048875808716
25	136.73238110542297	pulse	1	t		23.0	2.5	/experiments/AOT/AOT_stimuli/rescaled_final/2178_rv.mp4	0.0	157.35485410690308	
25	138.33276891708374	pulse	1	t		23.0	2.5	/experiments/AOT/AOT_stimuli/rescaled_final/2178_rv.mp4	0.0	158.95524191856384	
25	138.8493709564209	fix_post	2		12	23.0	2.5	/experiments/AOT/AOT_stimuli/rescaled_final/2178_rv.mp4	0.0	159.471843957901	0.09997797012329102
26	138.9493489265442	fix_pre	0		119	24.0	2.5	/experiments/AOT/AOT_stimuli/rescaled_final/1393_fw.mp4	0.0	159.5718219280243	0.9915900230407715
26	139.93279910087585	pulse	0	t		24.0	2.5	/experiments/AOT/AOT_stimuli/rescaled_final/1393_fw.mp4	0.0	160.55527210235596	
26	139.94093894958496	movie	1		246	24.0	2.5	/experiments/AOT/AOT_stimuli/rescaled_final/1393_fw.mp4	0.0	160.56341195106506	2.5083630084991455
26	141.53283500671387	pulse	1	t		24.0	2.5	/experiments/AOT/AOT_stimuli/rescaled_final/1393_fw.mp4	0.0	162.15530800819397	
26	142.4493019580841	fix_post	2		12	24.0	2.5	/experiments/AOT/AOT_stimuli/rescaled_final/1393_fw.mp4	0.0	163.0717749595642	0.1000521183013916
27	142.5493540763855	fix_pre	0		120	25.0	2.5	/experiments/AOT/AOT_stimuli/rescaled_final/1915_rv.mp4	0.0	163.1718270778656	0.9999048709869385
27	143.13268303871155	pulse	0	t		25.0	2.5	/experiments/AOT/AOT_stimuli/rescaled_final/1915_rv.mp4	0.0	163.75515604019165	
27	143.54925894737244	movie	1		243	25.0	2.5	/experiments/AOT/AOT_stimuli/rescaled_final/1915_rv.mp4	0.0	164.17173194885254	2.500035047531128
27	144.73295497894287	pulse	1	t		25.0	2.5	/experiments/AOT/AOT_stimuli/rescaled_final/1915_rv.mp4	0.0	165.35542798042297	
27	146.04929399490356	fix_post	2		12	25.0	2.5	/experiments/AOT/AOT_stimuli/rescaled_final/1915_rv.mp4	0.0	166.67176699638367	0.09953999519348145
28	146.14883399009705	fix_pre	0		120	26.0	2.5	/experiments/AOT/AOT_stimuli/rescaled_final/1149_rv.mp4	0.0	166.77130699157715	1.000201940536499
28	146.33269691467285	pulse	0	t		26.0	2.5	/experiments/AOT/AOT_stimuli/rescaled_final/1149_rv.mp4	0.0	166.95516991615295	
28	147.14903593063354	movie	1		242	26.0	2.5	/experiments/AOT/AOT_stimuli/rescaled_final/1149_rv.mp4	0.0	167.77150893211365	2.499873161315918
28	147.9327108860016	pulse	1	t		26.0	2.5	/experiments/AOT/AOT_stimuli/rescaled_final/1149_rv.mp4	0.0	168.5551838874817	
28	149.54104804992676	pulse	1	t		26.0	2.5	/experiments/AOT/AOT_stimuli/rescaled_final/1149_rv.mp4	0.0	170.16352105140686	
28	149.64890909194946	fix_post	2		12	26.0	2.5	/experiments/AOT/AOT_stimuli/rescaled_final/1149_rv.mp4	0.0	170.27138209342957	0.10033392906188965
29	149.74924302101135	fix_pre	0		120	27.0	2.5	/experiments/AOT/AOT_stimuli/rescaled_final/1271_fw.mp4	0.0	170.37171602249146	0.9996280670166016
29	150.74887108802795	movie	1		244	27.0	2.5	/experiments/AOT/AOT_stimuli/rescaled_final/1271_fw.mp4	0.0	171.37134408950806	2.5000689029693604
29	151.13270592689514	pulse	1	t		27.0	2.5	/experiments/AOT/AOT_stimuli/rescaled_final/1271_fw.mp4	0.0	171.75517892837524	
29	152.73275589942932	pulse	1	t		27.0	2.5	/experiments/AOT/AOT_stimuli/rescaled_final/1271_fw.mp4	0.0	173.35522890090942	
29	153.24893999099731	fix_post	2		12	27.0	2.5	/experiments/AOT/AOT_stimuli/rescaled_final/1271_fw.mp4	0.0	173.87141299247742	0.10033202171325684
30	153.34927201271057	fix_pre	0		119	28.0	2.5	blank	1.0	173.97174501419067	0.9916369915008545
30	154.3327760696411	pulse	0	t		28.0	2.5	blank	1.0	174.95524907112122	
30	154.34090900421143	movie	1		301	28.0	2.5	blank	1.0	174.96338200569153	2.5083370208740234
30	155.93284010887146	pulse	1	t		28.0	2.5	blank	1.0	176.55531311035156	
30	156.84924602508545	fix_post	2		12	28.0	2.5	blank	1.0	177.47171902656555	0.10004305839538574
31	156.94928908348083	fix_pre	0		120	29.0	2.5	/experiments/AOT/AOT_stimuli/rescaled_final/0707_fw.mp4	0.0	177.57176208496094	0.9995808601379395
31	157.53277802467346	pulse	0	t		29.0	2.5	/experiments/AOT/AOT_stimuli/rescaled_final/0707_fw.mp4	0.0	178.15525102615356	
31	157.94886994361877	movie	1		245	29.0	2.5	/experiments/AOT/AOT_stimuli/rescaled_final/0707_fw.mp4	0.0	178.57134294509888	2.5000290870666504
31	159.13272905349731	pulse	1	t		29.0	2.5	/experiments/AOT/AOT_stimuli/rescaled_final/0707_fw.mp4	0.0	179.75520205497742	
31	160.44889903068542	fix_post	2		12	29.0	2.5	/experiments/AOT/AOT_stimuli/rescaled_final/0707_fw.mp4	0.0	181.07137203216553	0.09997296333312988
32	160.54887199401855	fix_pre	0		120	30.0	2.5	/experiments/AOT/AOT_stimuli/rescaled_final/1569_fw.mp4	0.0	181.17134499549866	1.0004520416259766
32	160.73278188705444	pulse	0	t		30.0	2.5	/experiments/AOT/AOT_stimuli/rescaled_final/1569_fw.mp4	0.0	181.35525488853455	
32	161.54932403564453	movie	1		245	30.0	2.5	/experiments/AOT/AOT_stimuli/rescaled_final/1569_fw.mp4	0.0	182.17179703712463	2.4995250701904297
32	162.33270001411438	pulse	1	t		30.0	2.5	/experiments/AOT/AOT_stimuli/rescaled_final/1569_fw.mp4	0.0	182.95517301559448	
32	163.94105005264282	pulse	1	t		30.0	2.5	/experiments/AOT/AOT_stimuli/rescaled_final/1569_fw.mp4	0.0	184.56352305412292	
32	164.04884910583496	fix_post	2		12	30.0	2.5	/experiments/AOT/AOT_stimuli/rescaled_final/1569_fw.mp4	0.0	184.67132210731506	0.10047078132629395
33	164.14931988716125	fix_pre	0		120	31.0	2.5	/experiments/AOT/AOT_stimuli/rescaled_final/0957_rv.mp4	0.0	184.77179288864136	1.0000112056732178
33	165.14933109283447	movie	1		243	31.0	2.5	/experiments/AOT/AOT_stimuli/rescaled_final/0957_rv.mp4	0.0	185.77180409431458	2.500013828277588
33	165.53226804733276	pulse	1	t		31.0	2.5	/experiments/AOT/AOT_stimuli/rescaled_final/0957_rv.mp4	0.0	186.15474104881287	
33	167.13266396522522	pulse	1	t		31.0	2.5	/experiments/AOT/AOT_stimuli/rescaled_final/0957_rv.mp4	0.0	187.75513696670532	
33	167.64934492111206	fix_post	2		12	31.0	2.5	/experiments/AOT/AOT_stimuli/rescaled_final/0957_rv.mp4	0.0	188.27181792259216	0.09992599487304688
34	167.7492709159851	fix_pre	0		119	32.0	2.5	/experiments/AOT/AOT_stimuli/rescaled_final/1102_rv.mp4	0.0	188.3717439174652	0.9915781021118164
34	168.7326729297638	pulse	0	t		32.0	2.5	/experiments/AOT/AOT_stimuli/rescaled_final/1102_rv.mp4	0.0	189.3551459312439	
34	168.74084901809692	movie	1		244	32.0	2.5	/experiments/AOT/AOT_stimuli/rescaled_final/1102_rv.mp4	0.0	189.36332201957703	2.50797700881958
34	170.33256006240845	pulse	1	t		32.0	2.5	/experiments/AOT/AOT_stimuli/rescaled_final/1102_rv.mp4	0.0	190.95503306388855	
34	171.2488260269165	fix_post	2		12	32.0	2.5	/experiments/AOT/AOT_stimuli/rescaled_final/1102_rv.mp4	0.0	191.8712990283966	0.1000669002532959
35	171.3488929271698	fix_pre	0		120	33.0	2.5	blank	1.0	191.9713659286499	1.000365972518921
35	171.93273091316223	pulse	0	t		33.0	2.5	blank	1.0	192.55520391464233	
35	172.34925889968872	movie	1		300	33.0	2.5	blank	1.0	192.97173190116882	2.500056028366089
35	173.53275990486145	pulse	1	t		33.0	2.5	blank	1.0	194.15523290634155	
35	174.8493149280548	fix_post	2		12	33.0	2.5	blank	1.0	195.4717879295349	0.09943509101867676
36	174.9487500190735	fix_pre	0		120	34.0	2.5	/experiments/AOT/AOT_stimuli/rescaled_final/2077_rv.mp4	0.0	195.5712230205536	1.0005168914794922
36	175.13265895843506	pulse	0	t		34.0	2.5	/experiments/AOT/AOT_stimuli/rescaled_final/2077_rv.mp4	0.0	195.75513195991516	
36	175.94926691055298	movie	1		243	34.0	2.5	/experiments/AOT/AOT_stimuli/rescaled_final/2077_rv.mp4	0.0	196.57173991203308	2.4999752044677734
36	176.73266196250916	pulse	1	t		34.0	2.5	/experiments/AOT/AOT_stimuli/rescaled_final/2077_rv.mp4	0.0	197.35513496398926	
36	178.34103393554688	pulse	1	t		34.0	2.5	/experiments/AOT/AOT_stimuli/rescaled_final/2077_rv.mp4	0.0	198.96350693702698	
36	178.44924211502075	fix_post	2		12	34.0	2.5	/experiments/AOT/AOT_stimuli/rescaled_final/2077_rv.mp4	0.0	199.07171511650085	0.09993290901184082
37	178.5491750240326	fix_pre	0		120	35.0	2.5	/experiments/AOT/AOT_stimuli/rescaled_final/0937_fw.mp4	0.0	199.1716480255127	1.0000770092010498
37	179.54925203323364	movie	1		243	35.0	2.5	/experiments/AOT/AOT_stimuli/rescaled_final/0937_fw.mp4	0.0	200.17172503471375	2.499993085861206
37	179.93219304084778	pulse	1	t		35.0	2.5	/experiments/AOT/AOT_stimuli/rescaled_final/0937_fw.mp4	0.0	200.55466604232788	
37	181.5325629711151	pulse	1	t		35.0	2.5	/experiments/AOT/AOT_stimuli/rescaled_final/0937_fw.mp4	0.0	202.15503597259521	
37	182.04924511909485	fix_post	2		12	35.0	2.5	/experiments/AOT/AOT_stimuli/rescaled_final/0937_fw.mp4	0.0	202.67171812057495	0.10001397132873535
38	182.14925909042358	fix_pre	0		119	36.0	2.5	/experiments/AOT/AOT_stimuli/rescaled_final/0761_rv.mp4	0.0	202.7717320919037	0.9916539192199707
38	183.13271307945251	pulse	0	t		36.0	2.5	/experiments/AOT/AOT_stimuli/rescaled_final/0761_rv.mp4	0.0	203.75518608093262	
38	183.14091300964355	movie	1		246	36.0	2.5	/experiments/AOT/AOT_stimuli/rescaled_final/0761_rv.mp4	0.0	203.76338601112366	2.5084869861602783
38	184.73198699951172	pulse	1	t		36.0	2.5	/experiments/AOT/AOT_stimuli/rescaled_final/0761_rv.mp4	0.0	205.35446000099182	
38	185.64939999580383	fix_post	2		12	36.0	2.5	/experiments/AOT/AOT_stimuli/rescaled_final/0761_rv.mp4	0.0	206.27187299728394	0.0996100902557373
39	185.74901008605957	fix_pre	0		120	37.0	2.5	/experiments/AOT/AOT_stimuli/rescaled_final/1514_rv.mp4	0.0	206.37148308753967	1.0002260208129883
39	186.3328959941864	pulse	0	t		37.0	2.5	/experiments/AOT/AOT_stimuli/rescaled_final/1514_rv.mp4	0.0	206.9553689956665	
39	186.74923610687256	movie	1		243	37.0	2.5	/experiments/AOT/AOT_stimuli/rescaled_final/1514_rv.mp4	0.0	207.37170910835266	2.4999659061431885
39	187.93264889717102	pulse	1	t		37.0	2.5	/experiments/AOT/AOT_stimuli/rescaled_final/1514_rv.mp4	0.0	208.55512189865112	
39	189.24920201301575	fix_post	2		12	37.0	2.5	/experiments/AOT/AOT_stimuli/rescaled_final/1514_rv.mp4	0.0	209.87167501449585	0.09999895095825195
40	189.349200963974	fix_pre	0		120	38.0	2.5	/experiments/AOT/AOT_stimuli/rescaled_final/1032_fw.mp4	0.0	209.9716739654541	0.9999649524688721
40	189.53264594078064	pulse	0	t		38.0	2.5	/experiments/AOT/AOT_stimuli/rescaled_final/1032_fw.mp4	0.0	210.15511894226074	
40	190.34916591644287	movie	1		243	38.0	2.5	/experiments/AOT/AOT_stimuli/rescaled_final/1032_fw.mp4	0.0	210.97163891792297	2.499567985534668
40	191.13268995285034	pulse	1	t		38.0	2.5	/experiments/AOT/AOT_stimuli/rescaled_final/1032_fw.mp4	0.0	211.75516295433044	
40	192.74092507362366	pulse	1	t		38.0	2.5	/experiments/AOT/AOT_stimuli/rescaled_final/1032_fw.mp4	0.0	213.36339807510376	
40	192.84873390197754	fix_post	2		12	38.0	2.5	/experiments/AOT/AOT_stimuli/rescaled_final/1032_fw.mp4	0.0	213.47120690345764	0.10039114952087402
41	192.9491250514984	fix_pre	0		120	39.0	2.5	/experiments/AOT/AOT_stimuli/rescaled_final/0243_rv.mp4	0.0	213.57159805297852	0.9999599456787109
41	193.94908499717712	movie	1		245	39.0	2.5	/experiments/AOT/AOT_stimuli/rescaled_final/0243_rv.mp4	0.0	214.57155799865723	2.500020980834961
41	194.33209609985352	pulse	1	t		39.0	2.5	/experiments/AOT/AOT_stimuli/rescaled_final/0243_rv.mp4	0.0	214.95456910133362	
41	195.93253803253174	pulse	1	t		39.0	2.5	/experiments/AOT/AOT_stimuli/rescaled_final/0243_rv.mp4	0.0	216.55501103401184	
41	196.44910597801208	fix_post	2		12	39.0	2.5	/experiments/AOT/AOT_stimuli/rescaled_final/0243_rv.mp4	0.0	217.0715789794922	0.1000211238861084
42	196.5491271018982	fix_pre	0		119	40.0	2.5	/experiments/AOT/AOT_stimuli/rescaled_final/0945_rv.mp4	0.0	217.1716001033783	0.9916248321533203
42	197.53261494636536	pulse	0	t		40.0	2.5	/experiments/AOT/AOT_stimuli/rescaled_final/0945_rv.mp4	0.0	218.15508794784546	
42	197.5407519340515	movie	1		243	40.0	2.5	/experiments/AOT/AOT_stimuli/rescaled_final/0945_rv.mp4	0.0	218.16322493553162	2.50832200050354
42	199.13223099708557	pulse	1	t		40.0	2.5	/experiments/AOT/AOT_stimuli/rescaled_final/0945_rv.mp4	0.0	219.75470399856567	
42	200.04907393455505	fix_post	2		12	40.0	2.5	/experiments/AOT/AOT_stimuli/rescaled_final/0945_rv.mp4	0.0	220.67154693603516	0.10000896453857422
43	200.14908289909363	fix_pre	0		120	41.0	2.5	blank	1.0	220.77155590057373	1.0000181198120117
43	200.73258805274963	pulse	0	t		41.0	2.5	blank	1.0	221.35506105422974	
43	201.14910101890564	movie	1		300	41.0	2.5	blank	1.0	221.77157402038574	2.499958038330078
43	202.33266305923462	pulse	1	t		41.0	2.5	blank	1.0	222.95513606071472	
43	203.64905905723572	fix_post	2		12	41.0	2.5	blank	1.0	224.27153205871582	0.10003089904785156
44	203.74908995628357	fix_pre	0		120	42.0	2.5	/experiments/AOT/AOT_stimuli/rescaled_final/1645_fw.mp4	0.0	224.37156295776367	1.0000169277191162
44	203.93252396583557	pulse	0	t		42.0	2.5	/experiments/AOT/AOT_stimuli/rescaled_final/1645_fw.mp4	0.0	224.55499696731567	
44	204.74910688400269	movie	1		246	42.0	2.5	/experiments/AOT/AOT_stimuli/rescaled_final/1645_fw.mp4	0.0	225.3715798854828	2.499594211578369
44	205.5325469970703	pulse	1	t		42.0	2.5	/experiments/AOT/AOT_stimuli/rescaled_final/1645_fw.mp4	0.0	226.15501999855042	
44	207.1321370601654	pulse	1	t		42.0	2.5	/experiments/AOT/AOT_stimuli/rescaled_final/1645_fw.mp4	0.0	227.7546100616455	
44	207.24870109558105	fix_post	2		12	42.0	2.5	/experiments/AOT/AOT_stimuli/rescaled_final/1645_fw.mp4	0.0	227.87117409706116	0.10040497779846191
45	207.34910607337952	fix_pre	0		120	43.0	2.5	/experiments/AOT/AOT_stimuli/rescaled_final/1731_rv.mp4	0.0	227.97157907485962	0.9999239444732666
45	208.34903001785278	movie	1		243	43.0	2.5	/experiments/AOT/AOT_stimuli/rescaled_final/1731_rv.mp4	0.0	228.97150301933289	2.4996049404144287
45	208.73247408866882	pulse	1	t		43.0	2.5	/experiments/AOT/AOT_stimuli/rescaled_final/1731_rv.mp4	0.0	229.35494709014893	
45	210.3325080871582	pulse	1	t		43.0	2.5	/experiments/AOT/AOT_stimuli/rescaled_final/1731_rv.mp4	0.0	230.9549810886383	
45	210.8486349582672	fix_post	2		12	43.0	2.5	/experiments/AOT/AOT_stimuli/rescaled_final/1731_rv.mp4	0.0	231.47110795974731	0.10043597221374512
46	210.94907093048096	fix_pre	0		119	44.0	2.5	/experiments/AOT/AOT_stimuli/rescaled_final/1018_rv.mp4	0.0	231.57154393196106	0.9916191101074219
46	211.93252396583557	pulse	0	t		44.0	2.5	/experiments/AOT/AOT_stimuli/rescaled_final/1018_rv.mp4	0.0	232.55499696731567	
46	211.94069004058838	movie	1		247	44.0	2.5	/experiments/AOT/AOT_stimuli/rescaled_final/1018_rv.mp4	0.0	232.56316304206848	2.5083260536193848
46	213.5320179462433	pulse	1	t		44.0	2.5	/experiments/AOT/AOT_stimuli/rescaled_final/1018_rv.mp4	0.0	234.1544909477234	
46	214.44901609420776	fix_post	2		12	44.0	2.5	/experiments/AOT/AOT_stimuli/rescaled_final/1018_rv.mp4	0.0	235.07148909568787	0.10001087188720703
47	214.54902696609497	fix_pre	0		120	45.0	2.5	/experiments/AOT/AOT_stimuli/rescaled_final/1783_fw.mp4	0.0	235.17149996757507	1.0000309944152832
47	215.1337718963623	pulse	0	t		45.0	2.5	/experiments/AOT/AOT_stimuli/rescaled_final/1783_fw.mp4	0.0	235.7562448978424	
47	215.54905796051025	movie	1		243	45.0	2.5	/experiments/AOT/AOT_stimuli/rescaled_final/1783_fw.mp4	0.0	236.17153096199036	2.5000030994415283
47	216.7325279712677	pulse	1	t		45.0	2.5	/experiments/AOT/AOT_stimuli/rescaled_final/1783_fw.mp4	0.0	237.3550009727478	
47	218.04906105995178	fix_post	2		12	45.0	2.5	/experiments/AOT/AOT_stimuli/rescaled_final/1783_fw.mp4	0.0	238.67153406143188	0.09999895095825195
48	218.14906001091003	fix_pre	0		120	46.0	2.5	/experiments/AOT/AOT_stimuli/rescaled_final/1064_rv.mp4	0.0	238.77153301239014	0.9995529651641846
48	218.33252596855164	pulse	0	t		46.0	2.5	/experiments/AOT/AOT_stimuli/rescaled_final/1064_rv.mp4	0.0	238.95499897003174	
48	219.14861297607422	movie	1		244	46.0	2.5	/experiments/AOT/AOT_stimuli/rescaled_final/1064_rv.mp4	0.0	239.77108597755432	2.5004119873046875
48	219.93263411521912	pulse	1	t		46.0	2.5	/experiments/AOT/AOT_stimuli/rescaled_final/1064_rv.mp4	0.0	240.55510711669922	
48	221.54095005989075	pulse	1	t		46.0	2.5	/experiments/AOT/AOT_stimuli/rescaled_final/1064_rv.mp4	0.0	242.16342306137085	
48	221.6490249633789	fix_post	2		12	46.0	2.5	/experiments/AOT/AOT_stimuli/rescaled_final/1064_rv.mp4	0.0	242.271497964859	0.09958100318908691
49	221.748605966568	fix_pre	0		120	47.0	2.5	/experiments/AOT/AOT_stimuli/rescaled_final/0616_rv.mp4	0.0	242.3710789680481	1.0004961490631104
49	222.7491021156311	movie	1		245	47.0	2.5	/experiments/AOT/AOT_stimuli/rescaled_final/0616_rv.mp4	0.0	243.3715751171112	2.5002388954162598
49	223.1319329738617	pulse	1	t		47.0	2.5	/experiments/AOT/AOT_stimuli/rescaled_final/0616_rv.mp4	0.0	243.7544059753418	
49	224.73247504234314	pulse	1	t		47.0	2.5	/experiments/AOT/AOT_stimuli/rescaled_final/0616_rv.mp4	0.0	245.35494804382324	
49	225.24934101104736	fix_post	2		12	47.0	2.5	/experiments/AOT/AOT_stimuli/rescaled_final/0616_rv.mp4	0.0	245.87181401252747	0.09973788261413574
50	225.3490788936615	fix_pre	0		119	48.0	2.5	/experiments/AOT/AOT_stimuli/rescaled_final/2085_rv.mp4	0.0	245.9715518951416	0.9916331768035889
50	226.3324179649353	pulse	0	t		48.0	2.5	/experiments/AOT/AOT_stimuli/rescaled_final/2085_rv.mp4	0.0	246.9548909664154	
50	226.3407120704651	movie	1		246	48.0	2.5	/experiments/AOT/AOT_stimuli/rescaled_final/2085_rv.mp4	0.0	246.9631850719452	2.508375883102417
50	227.93250107765198	pulse	1	t		48.0	2.5	/experiments/AOT/AOT_stimuli/rescaled_final/2085_rv.mp4	0.0	248.55497407913208	
50	228.8490879535675	fix_post	2		12	48.0	2.5	/experiments/AOT/AOT_stimuli/rescaled_final/2085_rv.mp4	0.0	249.4715609550476	0.09985494613647461
51	228.94894289970398	fix_pre	0		120	49.0	2.5	blank	1.0	249.57141590118408	1.000028133392334
51	229.53237295150757	pulse	0	t		49.0	2.5	blank	1.0	250.15484595298767	
51	229.9489710330963	movie	1		300	49.0	2.5	blank	1.0	250.57144403457642	2.499661922454834
51	231.13253498077393	pulse	1	t		49.0	2.5	blank	1.0	251.75500798225403	
51	232.44863295555115	fix_post	2		12	49.0	2.5	blank	1.0	253.07110595703125	0.10037612915039062
52	232.54900908470154	fix_pre	0		120	50.0	2.5	/experiments/AOT/AOT_stimuli/rescaled_final/2081_rv.mp4	0.0	253.17148208618164	1.0000648498535156
52	232.7324459552765	pulse	0	t		50.0	2.5	/experiments/AOT/AOT_stimuli/rescaled_final/2081_rv.mp4	0.0	253.3549189567566	
52	233.54907393455505	movie	1		244	50.0	2.5	/experiments/AOT/AOT_stimuli/rescaled_final/2081_rv.mp4	0.0	254.17154693603516	2.4994940757751465
52	234.3324089050293	pulse	1	t		50.0	2.5	/experiments/AOT/AOT_stimuli/rescaled_final/2081_rv.mp4	0.0	254.9548819065094	
52	235.93105602264404	pulse	1	t		50.0	2.5	/experiments/AOT/AOT_stimuli/rescaled_final/2081_rv.mp4	0.0	256.55352902412415	
52	236.0485680103302	fix_post	2		12	50.0	2.5	/experiments/AOT/AOT_stimuli/rescaled_final/2081_rv.mp4	0.0	256.6710410118103	0.10042595863342285
53	236.14899396896362	fix_pre	0		120	51.0	2.5	/experiments/AOT/AOT_stimuli/rescaled_final/1645_fw.mp4	0.0	256.7714669704437	0.9995579719543457
53	237.14855194091797	movie	1		246	51.0	2.5	/experiments/AOT/AOT_stimuli/rescaled_final/1645_fw.mp4	0.0	257.77102494239807	2.5004310607910156
53	237.53261709213257	pulse	1	t		51.0	2.5	/experiments/AOT/AOT_stimuli/rescaled_final/1645_fw.mp4	0.0	258.15509009361267	
53	239.13249492645264	pulse	1	t		51.0	2.5	/experiments/AOT/AOT_stimuli/rescaled_final/1645_fw.mp4	0.0	259.75496792793274	
53	239.64898300170898	fix_post	2		12	51.0	2.5	/experiments/AOT/AOT_stimuli/rescaled_final/1645_fw.mp4	0.0	260.2714560031891	0.09994697570800781
54	239.748929977417	fix_pre	0		119	52.0	2.5	/experiments/AOT/AOT_stimuli/rescaled_final/1381_rv.mp4	0.0	260.3714029788971	0.9914360046386719
54	240.73216104507446	pulse	0	t		52.0	2.5	/experiments/AOT/AOT_stimuli/rescaled_final/1381_rv.mp4	0.0	261.35463404655457	
54	240.74036598205566	movie	1		245	52.0	2.5	/experiments/AOT/AOT_stimuli/rescaled_final/1381_rv.mp4	0.0	261.36283898353577	2.508655071258545
54	242.33203291893005	pulse	1	t		52.0	2.5	/experiments/AOT/AOT_stimuli/rescaled_final/1381_rv.mp4	0.0	262.95450592041016	
54	243.2490210533142	fix_post	2		12	52.0	2.5	/experiments/AOT/AOT_stimuli/rescaled_final/1381_rv.mp4	0.0	263.8714940547943	0.09994792938232422
55	243.34896898269653	fix_pre	0		120	53.0	2.5	/experiments/AOT/AOT_stimuli/rescaled_final/1804_rv.mp4	0.0	263.97144198417664	0.9999809265136719
55	243.93242001533508	pulse	0	t		53.0	2.5	/experiments/AOT/AOT_stimuli/rescaled_final/1804_rv.mp4	0.0	264.5548930168152	
55	244.3489499092102	movie	1		249	53.0	2.5	/experiments/AOT/AOT_stimuli/rescaled_final/1804_rv.mp4	0.0	264.9714229106903	2.4995601177215576
55	245.53243589401245	pulse	1	t		53.0	2.5	/experiments/AOT/AOT_stimuli/rescaled_final/1804_rv.mp4	0.0	266.15490889549255	
55	246.84851002693176	fix_post	2		12	53.0	2.5	/experiments/AOT/AOT_stimuli/rescaled_final/1804_rv.mp4	0.0	267.47098302841187	0.10045194625854492
56	246.9489619731903	fix_pre	0		120	54.0	2.5	/experiments/AOT/AOT_stimuli/rescaled_final/0778_fw.mp4	0.0	267.5714349746704	0.999535083770752
56	247.13237595558167	pulse	0	t		54.0	2.5	/experiments/AOT/AOT_stimuli/rescaled_final/0778_fw.mp4	0.0	267.75484895706177	
56	247.94849705696106	movie	1		246	54.0	2.5	/experiments/AOT/AOT_stimuli/rescaled_final/0778_fw.mp4	0.0	268.57097005844116	2.500380039215088
56	248.7323079109192	pulse	1	t		54.0	2.5	/experiments/AOT/AOT_stimuli/rescaled_final/0778_fw.mp4	0.0	269.3547809123993	
56	250.3323850631714	pulse	1	t		54.0	2.5	/experiments/AOT/AOT_stimuli/rescaled_final/0778_fw.mp4	0.0	270.9548580646515	
56	250.44887709617615	fix_post	2		12	54.0	2.5	/experiments/AOT/AOT_stimuli/rescaled_final/0778_fw.mp4	0.0	271.07135009765625	0.1001429557800293
57	250.54902005195618	fix_pre	0		120	55.0	2.5	/experiments/AOT/AOT_stimuli/rescaled_final/0006_rv.mp4	0.0	271.1714930534363	0.9999618530273438
57	251.54898190498352	movie	1		245	55.0	2.5	/experiments/AOT/AOT_stimuli/rescaled_final/0006_rv.mp4	0.0	272.1714549064636	2.4999279975891113
57	251.94078588485718	pulse	1	t		55.0	2.5	/experiments/AOT/AOT_stimuli/rescaled_final/0006_rv.mp4	0.0	272.5632588863373	
57	253.53231501579285	pulse	1	t		55.0	2.5	/experiments/AOT/AOT_stimuli/rescaled_final/0006_rv.mp4	0.0	274.15478801727295	
57	254.04890990257263	fix_post	2		12	55.0	2.5	/experiments/AOT/AOT_stimuli/rescaled_final/0006_rv.mp4	0.0	274.67138290405273	0.10000109672546387
58	254.1489109992981	fix_pre	0		119	56.0	2.5	blank	1.0	274.7713840007782	0.9916119575500488
58	255.13236808776855	pulse	0	t		56.0	2.5	blank	1.0	275.75484108924866	
58	255.14052295684814	movie	1		301	56.0	2.5	blank	1.0	275.76299595832825	2.5083401203155518
58	256.73236107826233	pulse	1	t		56.0	2.5	blank	1.0	277.35483407974243	
58	257.6488630771637	fix_post	2		12	56.0	2.5	blank	1.0	278.2713360786438	0.09998798370361328
59	257.7488510608673	fix_pre	0		120	57.0	2.5	/experiments/AOT/AOT_stimuli/rescaled_final/1664_rv.mp4	0.0	278.3713240623474	1.0000548362731934
59	258.33235788345337	pulse	0	t		57.0	2.5	/experiments/AOT/AOT_stimuli/rescaled_final/1664_rv.mp4	0.0	278.9548308849335	
59	258.7489058971405	movie	1		243	57.0	2.5	/experiments/AOT/AOT_stimuli/rescaled_final/1664_rv.mp4	0.0	279.3713788986206	2.4999840259552
59	259.9323470592499	pulse	1	t		57.0	2.5	/experiments/AOT/AOT_stimuli/rescaled_final/1664_rv.mp4	0.0	280.55482006073	
59	261.2488899230957	fix_post	2		12	57.0	2.5	/experiments/AOT/AOT_stimuli/rescaled_final/1664_rv.mp4	0.0	281.8713629245758	0.10001206398010254
60	261.3489019870758	fix_pre	0		120	58.0	2.5	/experiments/AOT/AOT_stimuli/rescaled_final/0376_rv.mp4	0.0	281.9713749885559	0.9999439716339111
60	261.532350063324	pulse	0	t		58.0	2.5	/experiments/AOT/AOT_stimuli/rescaled_final/0376_rv.mp4	0.0	282.1548230648041	
60	262.3488459587097	movie	1		244	58.0	2.5	/experiments/AOT/AOT_stimuli/rescaled_final/0376_rv.mp4	0.0	282.9713189601898	2.500033140182495
60	263.13234996795654	pulse	1	t		58.0	2.5	/experiments/AOT/AOT_stimuli/rescaled_final/0376_rv.mp4	0.0	283.75482296943665	
60	264.7407441139221	pulse	1	t		58.0	2.5	/experiments/AOT/AOT_stimuli/rescaled_final/0376_rv.mp4	0.0	285.3632171154022	
60	264.8488790988922	fix_post	2		12	58.0	2.5	/experiments/AOT/AOT_stimuli/rescaled_final/0376_rv.mp4	0.0	285.4713521003723	0.09993481636047363
61	264.9488139152527	fix_pre	0		120	59.0	2.5	/experiments/AOT/AOT_stimuli/rescaled_final/1505_fw.mp4	0.0	285.5712869167328	1.000040054321289
61	265.948853969574	movie	1		246	59.0	2.5	/experiments/AOT/AOT_stimuli/rescaled_final/1505_fw.mp4	0.0	286.5713269710541	2.4999630451202393
61	266.33199191093445	pulse	1	t		59.0	2.5	/experiments/AOT/AOT_stimuli/rescaled_final/1505_fw.mp4	0.0	286.95446491241455	
61	267.93227100372314	pulse	1	t		59.0	2.5	/experiments/AOT/AOT_stimuli/rescaled_final/1505_fw.mp4	0.0	288.55474400520325	
61	268.4488170146942	fix_post	2		12	59.0	2.5	/experiments/AOT/AOT_stimuli/rescaled_final/1505_fw.mp4	0.0	289.0712900161743	0.09999489784240723
62	268.5488119125366	fix_pre	0		119	60.0	2.5	/experiments/AOT/AOT_stimuli/rescaled_final/1197_fw.mp4	0.0	289.1712849140167	0.9916841983795166
62	269.53226494789124	pulse	0	t		60.0	2.5	/experiments/AOT/AOT_stimuli/rescaled_final/1197_fw.mp4	0.0	290.15473794937134	
62	269.54049611091614	movie	1		246	60.0	2.5	/experiments/AOT/AOT_stimuli/rescaled_final/1197_fw.mp4	0.0	290.16296911239624	2.5083298683166504
62	271.13195991516113	pulse	1	t		60.0	2.5	/experiments/AOT/AOT_stimuli/rescaled_final/1197_fw.mp4	0.0	291.75443291664124	
62	272.0488259792328	fix_post	2		12	60.0	2.5	/experiments/AOT/AOT_stimuli/rescaled_final/1197_fw.mp4	0.0	292.6712989807129	0.09959793090820312
63	272.148423910141	fix_pre	0		120	61.0	2.5	/experiments/AOT/AOT_stimuli/rescaled_final/1336_rv.mp4	0.0	292.7708969116211	1.000380039215088
63	272.73231291770935	pulse	0	t		61.0	2.5	/experiments/AOT/AOT_stimuli/rescaled_final/1336_rv.mp4	0.0	293.35478591918945	
63	273.1488039493561	movie	1		245	61.0	2.5	/experiments/AOT/AOT_stimuli/rescaled_final/1336_rv.mp4	0.0	293.7712769508362	2.499979019165039
63	274.33237409591675	pulse	1	t		61.0	2.5	/experiments/AOT/AOT_stimuli/rescaled_final/1336_rv.mp4	0.0	294.95484709739685	
63	275.6487829685211	fix_post	2		12	61.0	2.5	/experiments/AOT/AOT_stimuli/rescaled_final/1336_rv.mp4	0.0	296.2712559700012	0.09995007514953613
64	275.74873304367065	fix_pre	0		120	62.0	2.5	blank	1.0	296.37120604515076	0.9996628761291504
64	275.9322609901428	pulse	0	t		62.0	2.5	blank	1.0	296.5547339916229	
64	276.7483959197998	movie	1		300	62.0	2.5	blank	1.0	297.3708689212799	2.500488042831421
64	277.53230905532837	pulse	1	t		62.0	2.5	blank	1.0	298.1547820568085	
64	279.1323080062866	pulse	1	t		62.0	2.5	blank	1.0	299.7547810077667	
64	279.2488839626312	fix_post	2		12	62.0	2.5	blank	1.0	299.8713569641113	0.09994101524353027
65	279.34882497787476	fix_pre	0		120	63.0	2.5	/experiments/AOT/AOT_stimuli/rescaled_final/1664_fw.mp4	0.0	299.97129797935486	1.000075101852417
65	280.3489000797272	movie	1		244	63.0	2.5	/experiments/AOT/AOT_stimuli/rescaled_final/1664_fw.mp4	0.0	300.9713730812073	2.4999918937683105
65	280.73225498199463	pulse	1	t		63.0	2.5	/experiments/AOT/AOT_stimuli/rescaled_final/1664_fw.mp4	0.0	301.35472798347473	
65	282.3321840763092	pulse	1	t		63.0	2.5	/experiments/AOT/AOT_stimuli/rescaled_final/1664_fw.mp4	0.0	302.9546570777893	
65	282.8488919734955	fix_post	2		12	63.0	2.5	/experiments/AOT/AOT_stimuli/rescaled_final/1664_fw.mp4	0.0	303.4713649749756	0.09999704360961914
66	282.9488890171051	fix_pre	0		119	64.0	2.5	/experiments/AOT/AOT_stimuli/rescaled_final/0734_fw.mp4	0.0	303.5713620185852	0.9915809631347656
66	283.93227100372314	pulse	0	t		64.0	2.5	/experiments/AOT/AOT_stimuli/rescaled_final/0734_fw.mp4	0.0	304.55474400520325	
66	283.94046998023987	movie	1		246	64.0	2.5	/experiments/AOT/AOT_stimuli/rescaled_final/0734_fw.mp4	0.0	304.56294298171997	2.508368968963623
66	285.54065990448	pulse	1	t		64.0	2.5	/experiments/AOT/AOT_stimuli/rescaled_final/0734_fw.mp4	0.0	306.1631329059601	
66	286.4488389492035	fix_post	2		12	64.0	2.5	/experiments/AOT/AOT_stimuli/rescaled_final/0734_fw.mp4	0.0	307.0713119506836	0.0999760627746582
67	286.54881501197815	fix_pre	0		120	65.0	2.5	/experiments/AOT/AOT_stimuli/rescaled_final/2081_fw.mp4	0.0	307.17128801345825	1.0000100135803223
67	287.1322109699249	pulse	0	t		65.0	2.5	/experiments/AOT/AOT_stimuli/rescaled_final/2081_fw.mp4	0.0	307.75468397140503	
67	287.5488250255585	movie	1		245	65.0	2.5	/experiments/AOT/AOT_stimuli/rescaled_final/2081_fw.mp4	0.0	308.1712980270386	2.499885082244873
67	288.73228192329407	pulse	1	t		65.0	2.5	/experiments/AOT/AOT_stimuli/rescaled_final/2081_fw.mp4	0.0	309.35475492477417	
67	290.04871010780334	fix_post	2		12	65.0	2.5	/experiments/AOT/AOT_stimuli/rescaled_final/2081_fw.mp4	0.0	310.67118310928345	0.09999990463256836
68	290.1487100124359	fix_pre	0		120	66.0	2.5	/experiments/AOT/AOT_stimuli/rescaled_final/1473_rv.mp4	0.0	310.771183013916	1.0000488758087158
68	290.33214497566223	pulse	0	t		66.0	2.5	/experiments/AOT/AOT_stimuli/rescaled_final/1473_rv.mp4	0.0	310.95461797714233	
68	291.14875888824463	movie	1		245	66.0	2.5	/experiments/AOT/AOT_stimuli/rescaled_final/1473_rv.mp4	0.0	311.77123188972473	2.5000181198120117
68	291.9322199821472	pulse	1	t		66.0	2.5	/experiments/AOT/AOT_stimuli/rescaled_final/1473_rv.mp4	0.0	312.5546929836273	
68	293.53222703933716	pulse	1	t		66.0	2.5	/experiments/AOT/AOT_stimuli/rescaled_final/1473_rv.mp4	0.0	314.15470004081726	
68	293.64877700805664	fix_post	2		12	66.0	2.5	/experiments/AOT/AOT_stimuli/rescaled_final/1473_rv.mp4	0.0	314.27125000953674	0.10000109672546387
69	293.7487781047821	fix_pre	0		120	67.0	2.5	/experiments/AOT/AOT_stimuli/rescaled_final/0923_rv.mp4	0.0	314.3712511062622	1.0000338554382324
69	294.74881196022034	movie	1		246	67.0	2.5	/experiments/AOT/AOT_stimuli/rescaled_final/0923_rv.mp4	0.0	315.37128496170044	2.499711036682129
69	295.14012908935547	pulse	1	t		67.0	2.5	/experiments/AOT/AOT_stimuli/rescaled_final/0923_rv.mp4	0.0	315.76260209083557	
69	296.7317841053009	pulse	1	t		67.0	2.5	/experiments/AOT/AOT_stimuli/rescaled_final/0923_rv.mp4	0.0	317.354257106781	
69	297.24852299690247	fix_post	2		12	67.0	2.5	/experiments/AOT/AOT_stimuli/rescaled_final/0923_rv.mp4	0.0	317.87099599838257	0.1004939079284668
70	297.34901690483093	fix_pre	0		119	68.0	2.5	/experiments/AOT/AOT_stimuli/rescaled_final/0856_rv.mp4	0.0	317.97148990631104	0.9916751384735107
70	298.3321759700775	pulse	0	t		68.0	2.5	/experiments/AOT/AOT_stimuli/rescaled_final/0856_rv.mp4	0.0	318.9546489715576	
70	298.34069204330444	movie	1		247	68.0	2.5	/experiments/AOT/AOT_stimuli/rescaled_final/0856_rv.mp4	0.0	318.96316504478455	2.508017063140869
70	299.9336540699005	pulse	1	t		68.0	2.5	/experiments/AOT/AOT_stimuli/rescaled_final/0856_rv.mp4	0.0	320.5561270713806	
70	300.8487091064453	fix_post	2		12	68.0	2.5	/experiments/AOT/AOT_stimuli/rescaled_final/0856_rv.mp4	0.0	321.4711821079254	0.10006380081176758
71	300.9487729072571	fix_pre	0		120	69.0	2.5	/experiments/AOT/AOT_stimuli/rescaled_final/1540_fw.mp4	0.0	321.5712459087372	0.9999370574951172
71	301.5321819782257	pulse	0	t		69.0	2.5	/experiments/AOT/AOT_stimuli/rescaled_final/1540_fw.mp4	0.0	322.1546549797058	
71	301.9487099647522	movie	1		246	69.0	2.5	/experiments/AOT/AOT_stimuli/rescaled_final/1540_fw.mp4	0.0	322.5711829662323	2.4995949268341064
71	303.1322228908539	pulse	1	t		69.0	2.5	/experiments/AOT/AOT_stimuli/rescaled_final/1540_fw.mp4	0.0	323.754695892334	
71	304.4483048915863	fix_post	2		12	69.0	2.5	/experiments/AOT/AOT_stimuli/rescaled_final/1540_fw.mp4	0.0	325.0707778930664	0.10037422180175781
72	304.54867911338806	fix_pre	0		120	70.0	2.5	blank	1.0	325.17115211486816	1.000032901763916
72	304.7320590019226	pulse	0	t		70.0	2.5	blank	1.0	325.3545320034027	
72	305.548712015152	movie	1		300	70.0	2.5	blank	1.0	326.1711850166321	2.4999840259552
72	306.33209705352783	pulse	1	t		70.0	2.5	blank	1.0	326.95457005500793	
72	307.9321138858795	pulse	1	t		70.0	2.5	blank	1.0	328.5545868873596	
72	308.0486960411072	fix_post	2		12	70.0	2.5	blank	1.0	328.6711690425873	0.09997391700744629
73	308.1486699581146	fix_pre	0		120	71.0	2.5	/experiments/AOT/AOT_stimuli/rescaled_final/1805_fw.mp4	0.0	328.7711429595947	0.9999511241912842
73	309.1486210823059	movie	1		246	71.0	2.5	/experiments/AOT/AOT_stimuli/rescaled_final/1805_fw.mp4	0.0	329.771094083786	2.4999048709869385
73	309.54062008857727	pulse	1	t		71.0	2.5	/experiments/AOT/AOT_stimuli/rescaled_final/1805_fw.mp4	0.0	330.1630930900574	
73	311.13211488723755	pulse	1	t		71.0	2.5	/experiments/AOT/AOT_stimuli/rescaled_final/1805_fw.mp4	0.0	331.75458788871765	
73	311.64852595329285	fix_post	2		12	71.0	2.5	/experiments/AOT/AOT_stimuli/rescaled_final/1805_fw.mp4	0.0	332.27099895477295	0.10016798973083496
74	311.7486939430237	fix_pre	0		119	72.0	2.5	/experiments/AOT/AOT_stimuli/rescaled_final/1082_fw.mp4	0.0	332.3711669445038	0.9916040897369385
74	312.73212695121765	pulse	0	t		72.0	2.5	/experiments/AOT/AOT_stimuli/rescaled_final/1082_fw.mp4	0.0	333.35459995269775	
74	312.7402980327606	movie	1		249	72.0	2.5	/experiments/AOT/AOT_stimuli/rescaled_final/1082_fw.mp4	0.0	333.3627710342407	2.5083248615264893
74	314.332181930542	pulse	1	t		72.0	2.5	/experiments/AOT/AOT_stimuli/rescaled_final/1082_fw.mp4	0.0	334.9546549320221	
74	315.2486228942871	fix_post	2		12	72.0	2.5	/experiments/AOT/AOT_stimuli/rescaled_final/1082_fw.mp4	0.0	335.8710958957672	0.10006904602050781
75	315.3486919403076	fix_pre	0		120	73.0	2.5	/experiments/AOT/AOT_stimuli/rescaled_final/0473_fw.mp4	0.0	335.9711649417877	1.0000250339508057
75	315.9321839809418	pulse	0	t		73.0	2.5	/experiments/AOT/AOT_stimuli/rescaled_final/0473_fw.mp4	0.0	336.5546569824219	
75	316.3487169742584	movie	1		246	73.0	2.5	/experiments/AOT/AOT_stimuli/rescaled_final/0473_fw.mp4	0.0	336.9711899757385	2.4999821186065674
75	317.5322051048279	pulse	1	t		73.0	2.5	/experiments/AOT/AOT_stimuli/rescaled_final/0473_fw.mp4	0.0	338.154678106308	
75	318.848699092865	fix_post	2		12	73.0	2.5	/experiments/AOT/AOT_stimuli/rescaled_final/0473_fw.mp4	0.0	339.4711720943451	0.0999608039855957
76	318.9486598968506	fix_pre	0		120	74.0	2.5	/experiments/AOT/AOT_stimuli/rescaled_final/1056_fw.mp4	0.0	339.5711328983307	0.9999790191650391
76	319.1320888996124	pulse	0	t		74.0	2.5	/experiments/AOT/AOT_stimuli/rescaled_final/1056_fw.mp4	0.0	339.75456190109253	
76	319.9486389160156	movie	1		243	74.0	2.5	/experiments/AOT/AOT_stimuli/rescaled_final/1056_fw.mp4	0.0	340.5711119174957	2.4996910095214844
76	320.732125043869	pulse	1	t		74.0	2.5	/experiments/AOT/AOT_stimuli/rescaled_final/1056_fw.mp4	0.0	341.3545980453491	
76	322.34048295021057	pulse	1	t		74.0	2.5	/experiments/AOT/AOT_stimuli/rescaled_final/1056_fw.mp4	0.0	342.9629559516907	
76	322.4483299255371	fix_post	2		12	74.0	2.5	/experiments/AOT/AOT_stimuli/rescaled_final/1056_fw.mp4	0.0	343.0708029270172	0.10026907920837402
77	322.5485990047455	fix_pre	0		120	75.0	2.5	/experiments/AOT/AOT_stimuli/rescaled_final/1722_fw.mp4	0.0	343.1710720062256	1.0000081062316895
77	323.5486071109772	movie	1		244	75.0	2.5	/experiments/AOT/AOT_stimuli/rescaled_final/1722_fw.mp4	0.0	344.1710801124573	2.4999618530273438
77	323.9319019317627	pulse	1	t		75.0	2.5	/experiments/AOT/AOT_stimuli/rescaled_final/1722_fw.mp4	0.0	344.5543749332428	
77	325.5320460796356	pulse	1	t		75.0	2.5	/experiments/AOT/AOT_stimuli/rescaled_final/1722_fw.mp4	0.0	346.1545190811157	
77	326.0485689640045	fix_post	2		12	75.0	2.5	/experiments/AOT/AOT_stimuli/rescaled_final/1722_fw.mp4	0.0	346.6710419654846	0.09995508193969727
78	326.1485240459442	fix_pre	0		119	76.0	2.5	blank	1.0	346.7709970474243	0.9916889667510986
78	327.13196897506714	pulse	0	t		76.0	2.5	blank	1.0	347.75444197654724	
78	327.1402130126953	movie	1		301	76.0	2.5	blank	1.0	347.7626860141754	2.5083699226379395
78	328.7320840358734	pulse	1	t		76.0	2.5	blank	1.0	349.3545570373535	
78	329.64858293533325	fix_post	2		12	76.0	2.5	blank	1.0	350.27105593681335	0.09960198402404785
79	329.7481849193573	fix_pre	0		120	77.0	2.5	/experiments/AOT/AOT_stimuli/rescaled_final/0795_rv.mp4	0.0	350.3706579208374	1.0004260540008545
79	330.33205699920654	pulse	0	t		77.0	2.5	/experiments/AOT/AOT_stimuli/rescaled_final/0795_rv.mp4	0.0	350.95453000068665	
79	330.74861097335815	movie	1		246	77.0	2.5	/experiments/AOT/AOT_stimuli/rescaled_final/0795_rv.mp4	0.0	351.37108397483826	2.4995319843292236
79	331.93212890625	pulse	1	t		77.0	2.5	/experiments/AOT/AOT_stimuli/rescaled_final/0795_rv.mp4	0.0	352.5546019077301	
79	333.2481429576874	fix_post	2		12	77.0	2.5	/experiments/AOT/AOT_stimuli/rescaled_final/0795_rv.mp4	0.0	353.8706159591675	0.10045099258422852
80	333.3485939502716	fix_pre	0		120	78.0	2.5	/experiments/AOT/AOT_stimuli/rescaled_final/1642_rv.mp4	0.0	353.9710669517517	0.9996271133422852
80	333.5329329967499	pulse	0	t		78.0	2.5	/experiments/AOT/AOT_stimuli/rescaled_final/1642_rv.mp4	0.0	354.15540599823	
80	334.3482210636139	movie	1		245	78.0	2.5	/experiments/AOT/AOT_stimuli/rescaled_final/1642_rv.mp4	0.0	354.970694065094	2.499845027923584
80	335.1329290866852	pulse	1	t		78.0	2.5	/experiments/AOT/AOT_stimuli/rescaled_final/1642_rv.mp4	0.0	355.7554020881653	
80	336.7325038909912	pulse	1	t		78.0	2.5	/experiments/AOT/AOT_stimuli/rescaled_final/1642_rv.mp4	0.0	357.3549768924713	
80	336.8480660915375	fix_post	2		12	78.0	2.5	/experiments/AOT/AOT_stimuli/rescaled_final/1642_rv.mp4	0.0	357.4705390930176	0.10041689872741699
81	336.9484829902649	fix_pre	0		120	79.0	2.5	/experiments/AOT/AOT_stimuli/rescaled_final/1237_fw.mp4	0.0	357.570955991745	1.0000970363616943
81	337.9485800266266	movie	1		245	79.0	2.5	/experiments/AOT/AOT_stimuli/rescaled_final/1237_fw.mp4	0.0	358.5710530281067	2.499908924102783
81	338.34035205841064	pulse	1	t		79.0	2.5	/experiments/AOT/AOT_stimuli/rescaled_final/1237_fw.mp4	0.0	358.96282505989075	
81	339.93200397491455	pulse	1	t		79.0	2.5	/experiments/AOT/AOT_stimuli/rescaled_final/1237_fw.mp4	0.0	360.55447697639465	
81	340.44848895072937	fix_post	2		12	79.0	2.5	/experiments/AOT/AOT_stimuli/rescaled_final/1237_fw.mp4	0.0	361.0709619522095	0.10007905960083008
82	340.5485680103302	fix_pre	0		119	80.0	2.5	/experiments/AOT/AOT_stimuli/rescaled_final/0074_rv.mp4	0.0	361.1710410118103	0.9915549755096436
82	341.5320041179657	pulse	0	t		80.0	2.5	/experiments/AOT/AOT_stimuli/rescaled_final/0074_rv.mp4	0.0	362.1544771194458	
82	341.54012298583984	movie	1		247	80.0	2.5	/experiments/AOT/AOT_stimuli/rescaled_final/0074_rv.mp4	0.0	362.16259598731995	2.508373975753784
82	343.1318790912628	pulse	1	t		80.0	2.5	/experiments/AOT/AOT_stimuli/rescaled_final/0074_rv.mp4	0.0	363.7543520927429	
82	344.0484969615936	fix_post	2		12	80.0	2.5	/experiments/AOT/AOT_stimuli/rescaled_final/0074_rv.mp4	0.0	364.67096996307373	0.09999394416809082
83	344.1484909057617	fix_pre	0		120	81.0	2.5	/experiments/AOT/AOT_stimuli/rescaled_final/0149_rv.mp4	0.0	364.7709639072418	1.0000851154327393
83	344.73197388648987	pulse	0	t		81.0	2.5	/experiments/AOT/AOT_stimuli/rescaled_final/0149_rv.mp4	0.0	365.35444688796997	
83	345.14857602119446	movie	1		245	81.0	2.5	/experiments/AOT/AOT_stimuli/rescaled_final/0149_rv.mp4	0.0	365.77104902267456	2.4999380111694336
83	346.33194303512573	pulse	1	t		81.0	2.5	/experiments/AOT/AOT_stimuli/rescaled_final/0149_rv.mp4	0.0	366.95441603660583	
83	347.6485140323639	fix_post	2		12	81.0	2.5	/experiments/AOT/AOT_stimuli/rescaled_final/0149_rv.mp4	0.0	368.270987033844	0.1000058650970459
84	347.74851989746094	fix_pre	0		120	82.0	2.5	blank	1.0	368.37099289894104	0.9999251365661621
84	347.931911945343	pulse	0	t		82.0	2.5	blank	1.0	368.5543849468231	
84	348.7484450340271	movie	1		300	82.0	2.5	blank	1.0	369.3709180355072	2.4996628761291504
84	349.5327699184418	pulse	1	t		82.0	2.5	blank	1.0	370.1552429199219	
84	351.13230991363525	pulse	1	t		82.0	2.5	blank	1.0	371.75478291511536	
84	351.24810791015625	fix_post	2		12	82.0	2.5	blank	1.0	371.87058091163635	0.10000205039978027
85	351.34810996055603	fix_pre	0		120	83.0	2.5	/experiments/AOT/AOT_stimuli/rescaled_final/1244_rv.mp4	0.0	371.97058296203613	1.0000231266021729
85	352.3481330871582	movie	1		247	83.0	2.5	/experiments/AOT/AOT_stimuli/rescaled_final/1244_rv.mp4	0.0	372.9706060886383	2.4999008178710938
85	352.73994302749634	pulse	1	t		83.0	2.5	/experiments/AOT/AOT_stimuli/rescaled_final/1244_rv.mp4	0.0	373.36241602897644	
85	354.3321568965912	pulse	1	t		83.0	2.5	/experiments/AOT/AOT_stimuli/rescaled_final/1244_rv.mp4	0.0	374.9546298980713	
85	354.8480339050293	fix_post	2		12	83.0	2.5	/experiments/AOT/AOT_stimuli/rescaled_final/1244_rv.mp4	0.0	375.4705069065094	0.10058999061584473
87	354.94862389564514	stim	0		1716					375.57109689712524	14.299791097640991
87	355.9319291114807	pulse	0	t						376.5544021129608	
87	357.53181409835815	pulse	0	t						378.15428709983826	
87	359.13181805610657	pulse	0	t						379.75429105758667	
87	360.7317941188812	pulse	0	t						381.3542671203613	
87	362.3317859172821	pulse	0	t						382.9542589187622	
87	363.93188309669495	pulse	0	t						384.55435609817505	
87	365.5328459739685	pulse	0	t						386.1553189754486	
87	367.1327610015869	pulse	0	t						387.755234003067	
87	368.7326970100403	pulse	0	t						389.3551700115204	
