trial_nr	onset	event_type	phase	response	nr_frames	movie_index	movie_duration	movie_file	blank	onset_abs	duration
0	0.15830683708190918	stim	0		1					16.478824377059937	0.008242368698120117
0	0.09607553482055664	response	0	space						16.416593074798584	
1	0.1665492057800293	stim	0		4601					16.487066745758057	38.356916666030884
1	38.51376032829285	pulse	0	t						54.834277868270874	
1	38.52346587181091	stim	1		1715					54.84398341178894	14.300854921340942
1	40.098036766052246	pulse	1	t						56.41855430603027	
1	41.69801187515259	pulse	1	t						58.018529415130615	
1	43.2980694770813	pulse	1	t						59.618587017059326	
1	44.89834237098694	pulse	1	t						61.218859910964966	
1	46.49855017662048	pulse	1	t						62.81906771659851	
1	48.098793745040894	pulse	1	t						64.41931128501892	
1	49.6991081237793	pulse	1	t						66.01962566375732	
1	51.2993049621582	pulse	1	t						67.61982250213623	
2	52.824320793151855	fix_pre	0		10	0.0	2.5	/experiments/Knapen_AOT/AOT_stimuli/rescaled_final/2074_rv.mp4	0.0	69.14483833312988	0.10008907318115234
2	52.89956307411194	pulse	0	t		0.0	2.5	/experiments/Knapen_AOT/AOT_stimuli/rescaled_final/2074_rv.mp4	0.0	69.22008061408997	
2	52.92440986633301	movie	1		292	0.0	2.5	/experiments/Knapen_AOT/AOT_stimuli/rescaled_final/2074_rv.mp4	0.0	69.24492740631104	2.492064952850342
2	54.498080253601074	pulse	1	t		0.0	2.5	/experiments/Knapen_AOT/AOT_stimuli/rescaled_final/2074_rv.mp4	0.0	70.8185977935791	
2	55.41647481918335	fix_post	2		12	0.0	2.5	/experiments/Knapen_AOT/AOT_stimuli/rescaled_final/2074_rv.mp4	0.0	71.73699235916138	0.09991455078125
3	55.5163893699646	fix_pre	0		120	1.0	2.5	/experiments/Knapen_AOT/AOT_stimuli/rescaled_final/0663_fw.mp4	0.0	71.83690690994263	1.008502721786499
3	56.10005784034729	pulse	0	t		1.0	2.5	/experiments/Knapen_AOT/AOT_stimuli/rescaled_final/0663_fw.mp4	0.0	72.42057538032532	
3	56.5248920917511	movie	1		283	1.0	2.5	/experiments/Knapen_AOT/AOT_stimuli/rescaled_final/0663_fw.mp4	0.0	72.84540963172913	2.492035150527954
3	57.69819760322571	pulse	1	t		1.0	2.5	/experiments/Knapen_AOT/AOT_stimuli/rescaled_final/0663_fw.mp4	0.0	74.01871514320374	
3	59.01692724227905	fix_post	2		12	1.0	2.5	/experiments/Knapen_AOT/AOT_stimuli/rescaled_final/0663_fw.mp4	0.0	75.33744478225708	0.1000051498413086
4	59.11693239212036	fix_pre	0		120	2.0	2.5	/experiments/Knapen_AOT/AOT_stimuli/rescaled_final/1464_rv.mp4	0.0	75.43744993209839	1.0085229873657227
4	59.300469636917114	pulse	0	t		2.0	2.5	/experiments/Knapen_AOT/AOT_stimuli/rescaled_final/1464_rv.mp4	0.0	75.62098717689514	
4	60.125455379486084	movie	1		289	2.0	2.5	/experiments/Knapen_AOT/AOT_stimuli/rescaled_final/1464_rv.mp4	0.0	76.44597291946411	2.491992712020874
4	60.898929595947266	pulse	1	t		2.0	2.5	/experiments/Knapen_AOT/AOT_stimuli/rescaled_final/1464_rv.mp4	0.0	77.2194471359253	
4	62.49929475784302	pulse	1	t		2.0	2.5	/experiments/Knapen_AOT/AOT_stimuli/rescaled_final/1464_rv.mp4	0.0	78.81981229782104	
4	62.61744809150696	fix_post	2		12	2.0	2.5	/experiments/Knapen_AOT/AOT_stimuli/rescaled_final/1464_rv.mp4	0.0	78.93796563148499	0.10001873970031738
5	62.717466831207275	fix_pre	0		120	3.0	2.5	/experiments/Knapen_AOT/AOT_stimuli/rescaled_final/0398_fw.mp4	0.0	79.0379843711853	1.0085265636444092
5	63.725993394851685	movie	1		286	3.0	2.5	/experiments/Knapen_AOT/AOT_stimuli/rescaled_final/0398_fw.mp4	0.0	80.04651093482971	2.4920313358306885
5	64.0995261669159	pulse	1	t		3.0	2.5	/experiments/Knapen_AOT/AOT_stimuli/rescaled_final/0398_fw.mp4	0.0	80.42004370689392	
5	65.69930982589722	pulse	1	t		3.0	2.5	/experiments/Knapen_AOT/AOT_stimuli/rescaled_final/0398_fw.mp4	0.0	82.01982736587524	
5	66.21802473068237	fix_post	2		12	3.0	2.5	/experiments/Knapen_AOT/AOT_stimuli/rescaled_final/0398_fw.mp4	0.0	82.5385422706604	0.10004639625549316
6	66.31807112693787	fix_pre	0		119	4.0	2.5	/experiments/Knapen_AOT/AOT_stimuli/rescaled_final/1457_fw.mp4	0.0	82.6385886669159	1.0001003742218018
6	67.30167603492737	pulse	0	t		4.0	2.5	/experiments/Knapen_AOT/AOT_stimuli/rescaled_final/1457_fw.mp4	0.0	83.6221935749054	
6	67.31817150115967	movie	1		294	4.0	2.5	/experiments/Knapen_AOT/AOT_stimuli/rescaled_final/1457_fw.mp4	0.0	83.6386890411377	2.5003695487976074
6	68.90042567253113	pulse	1	t		4.0	2.5	/experiments/Knapen_AOT/AOT_stimuli/rescaled_final/1457_fw.mp4	0.0	85.22094321250916	
6	69.81854104995728	fix_post	2		12	4.0	2.5	/experiments/Knapen_AOT/AOT_stimuli/rescaled_final/1457_fw.mp4	0.0	86.1390585899353	0.10001230239868164
7	69.91855335235596	fix_pre	0		120	5.0	2.5	/experiments/Knapen_AOT/AOT_stimuli/rescaled_final/1233_rv.mp4	0.0	86.23907089233398	1.0084996223449707
7	70.50216507911682	pulse	0	t		5.0	2.5	/experiments/Knapen_AOT/AOT_stimuli/rescaled_final/1233_rv.mp4	0.0	86.82268261909485	
7	70.92705297470093	movie	1		278	5.0	2.5	/experiments/Knapen_AOT/AOT_stimuli/rescaled_final/1233_rv.mp4	0.0	87.24757051467896	2.4921395778656006
7	72.10065531730652	pulse	1	t		5.0	2.5	/experiments/Knapen_AOT/AOT_stimuli/rescaled_final/1233_rv.mp4	0.0	88.42117285728455	
7	73.41919255256653	fix_post	2		12	5.0	2.5	/experiments/Knapen_AOT/AOT_stimuli/rescaled_final/1233_rv.mp4	0.0	89.73971009254456	0.09990310668945312
8	73.51909565925598	fix_pre	0		120	6.0	2.5	blank	1.0	89.83961319923401	1.0001239776611328
8	73.70267844200134	pulse	0	t		6.0	2.5	blank	1.0	90.02319598197937	
8	74.51921963691711	movie	1		300	6.0	2.5	blank	1.0	90.83973717689514	2.500379800796509
8	75.3028814792633	pulse	1	t		6.0	2.5	blank	1.0	91.62339901924133	
8	76.90316462516785	pulse	1	t		6.0	2.5	blank	1.0	93.22368216514587	
8	77.01959943771362	fix_post	2		12	6.0	2.5	blank	1.0	93.34011697769165	0.10007905960083008
9	77.11967849731445	fix_pre	0		120	7.0	2.5	/experiments/Knapen_AOT/AOT_stimuli/rescaled_final/1748_fw.mp4	0.0	93.44019603729248	1.008467435836792
9	78.12814593315125	movie	1		266	7.0	2.5	/experiments/Knapen_AOT/AOT_stimuli/rescaled_final/1748_fw.mp4	0.0	94.44866347312927	2.4920058250427246
9	78.50193738937378	pulse	1	t		7.0	2.5	/experiments/Knapen_AOT/AOT_stimuli/rescaled_final/1748_fw.mp4	0.0	94.8224549293518	
9	80.10135316848755	pulse	1	t		7.0	2.5	/experiments/Knapen_AOT/AOT_stimuli/rescaled_final/1748_fw.mp4	0.0	96.42187070846558	
9	80.62015175819397	fix_post	2		12	7.0	2.5	/experiments/Knapen_AOT/AOT_stimuli/rescaled_final/1748_fw.mp4	0.0	96.940669298172	0.10013580322265625
10	80.72028756141663	fix_pre	0		119	8.0	2.5	/experiments/Knapen_AOT/AOT_stimuli/rescaled_final/1630_rv.mp4	0.0	97.04080510139465	1.0000629425048828
10	81.70386052131653	pulse	0	t		8.0	2.5	/experiments/Knapen_AOT/AOT_stimuli/rescaled_final/1630_rv.mp4	0.0	98.02437806129456	
10	81.72035050392151	movie	1		291	8.0	2.5	/experiments/Knapen_AOT/AOT_stimuli/rescaled_final/1630_rv.mp4	0.0	98.04086804389954	2.5003809928894043
10	83.3023476600647	pulse	1	t		8.0	2.5	/experiments/Knapen_AOT/AOT_stimuli/rescaled_final/1630_rv.mp4	0.0	99.62286520004272	
10	84.22073149681091	fix_post	2		12	8.0	2.5	/experiments/Knapen_AOT/AOT_stimuli/rescaled_final/1630_rv.mp4	0.0	100.54124903678894	0.10000729560852051
11	84.32073879241943	fix_pre	0		120	9.0	2.5	/experiments/Knapen_AOT/AOT_stimuli/rescaled_final/1600_fw.mp4	0.0	100.64125633239746	1.0084755420684814
11	84.90435266494751	pulse	0	t		9.0	2.5	/experiments/Knapen_AOT/AOT_stimuli/rescaled_final/1600_fw.mp4	0.0	101.22487020492554	
11	85.32921433448792	movie	1		278	9.0	2.5	/experiments/Knapen_AOT/AOT_stimuli/rescaled_final/1600_fw.mp4	0.0	101.64973187446594	2.4920332431793213
11	86.50274658203125	pulse	1	t		9.0	2.5	/experiments/Knapen_AOT/AOT_stimuli/rescaled_final/1600_fw.mp4	0.0	102.82326412200928	
11	87.82124757766724	fix_post	2		12	9.0	2.5	/experiments/Knapen_AOT/AOT_stimuli/rescaled_final/1600_fw.mp4	0.0	104.14176511764526	0.10001516342163086
12	87.92126274108887	fix_pre	0		120	10.0	2.5	/experiments/Knapen_AOT/AOT_stimuli/rescaled_final/1075_rv.mp4	0.0	104.2417802810669	1.008538007736206
12	88.10487723350525	pulse	0	t		10.0	2.5	/experiments/Knapen_AOT/AOT_stimuli/rescaled_final/1075_rv.mp4	0.0	104.42539477348328	
12	88.92980074882507	movie	1		282	10.0	2.5	/experiments/Knapen_AOT/AOT_stimuli/rescaled_final/1075_rv.mp4	0.0	105.2503182888031	2.491994619369507
12	89.70299792289734	pulse	1	t		10.0	2.5	/experiments/Knapen_AOT/AOT_stimuli/rescaled_final/1075_rv.mp4	0.0	106.02351546287537	
12	91.30338740348816	pulse	1	t		10.0	2.5	/experiments/Knapen_AOT/AOT_stimuli/rescaled_final/1075_rv.mp4	0.0	107.62390494346619	
12	91.42179536819458	fix_post	2		12	10.0	2.5	/experiments/Knapen_AOT/AOT_stimuli/rescaled_final/1075_rv.mp4	0.0	107.74231290817261	0.10005927085876465
13	91.52185463905334	fix_pre	0		120	11.0	2.5	/experiments/Knapen_AOT/AOT_stimuli/rescaled_final/1326_fw.mp4	0.0	107.84237217903137	1.0084433555603027
13	92.53029799461365	movie	1		279	11.0	2.5	/experiments/Knapen_AOT/AOT_stimuli/rescaled_final/1326_fw.mp4	0.0	108.85081553459167	2.4920105934143066
13	92.90461945533752	pulse	1	t		11.0	2.5	/experiments/Knapen_AOT/AOT_stimuli/rescaled_final/1326_fw.mp4	0.0	109.22513699531555	
13	94.50357627868652	pulse	1	t		11.0	2.5	/experiments/Knapen_AOT/AOT_stimuli/rescaled_final/1326_fw.mp4	0.0	110.82409381866455	
13	95.02230858802795	fix_post	2		12	11.0	2.5	/experiments/Knapen_AOT/AOT_stimuli/rescaled_final/1326_fw.mp4	0.0	111.34282612800598	0.10002589225769043
14	95.12233448028564	fix_pre	0		119	12.0	2.5	blank	1.0	111.44285202026367	0.9918484687805176
14	96.10617446899414	pulse	0	t		12.0	2.5	blank	1.0	112.42669200897217	
14	96.11418294906616	movie	1		301	12.0	2.5	blank	1.0	112.43470048904419	2.5087485313415527
14	97.70626187324524	pulse	1	t		12.0	2.5	blank	1.0	114.02677941322327	
14	98.62293148040771	fix_post	2		12	12.0	2.5	blank	1.0	114.94344902038574	0.09997868537902832
15	98.72291016578674	fix_pre	0		120	13.0	2.5	/experiments/Knapen_AOT/AOT_stimuli/rescaled_final/1806_rv.mp4	0.0	115.04342770576477	1.0084741115570068
15	99.29856514930725	pulse	0	t		13.0	2.5	/experiments/Knapen_AOT/AOT_stimuli/rescaled_final/1806_rv.mp4	0.0	115.61908268928528	
15	99.73138427734375	movie	1		281	13.0	2.5	/experiments/Knapen_AOT/AOT_stimuli/rescaled_final/1806_rv.mp4	0.0	116.05190181732178	2.4920191764831543
15	100.89864087104797	pulse	1	t		13.0	2.5	/experiments/Knapen_AOT/AOT_stimuli/rescaled_final/1806_rv.mp4	0.0	117.219158411026	
15	102.2234034538269	fix_post	2		12	13.0	2.5	/experiments/Knapen_AOT/AOT_stimuli/rescaled_final/1806_rv.mp4	0.0	118.54392099380493	0.10001873970031738
16	102.32342219352722	fix_pre	0		120	14.0	2.5	/experiments/Knapen_AOT/AOT_stimuli/rescaled_final/0818_fw.mp4	0.0	118.64393973350525	1.0085537433624268
16	102.49887657165527	pulse	0	t		14.0	2.5	/experiments/Knapen_AOT/AOT_stimuli/rescaled_final/0818_fw.mp4	0.0	118.8193941116333	
16	103.33197593688965	movie	1		281	14.0	2.5	/experiments/Knapen_AOT/AOT_stimuli/rescaled_final/0818_fw.mp4	0.0	119.65249347686768	2.4920051097869873
16	104.09904456138611	pulse	1	t		14.0	2.5	/experiments/Knapen_AOT/AOT_stimuli/rescaled_final/0818_fw.mp4	0.0	120.41956210136414	
16	105.69932103157043	pulse	1	t		14.0	2.5	/experiments/Knapen_AOT/AOT_stimuli/rescaled_final/0818_fw.mp4	0.0	122.01983857154846	
16	105.82398104667664	fix_post	2		12	14.0	2.5	/experiments/Knapen_AOT/AOT_stimuli/rescaled_final/0818_fw.mp4	0.0	122.14449858665466	0.10003542900085449
17	105.92401647567749	fix_pre	0		120	15.0	2.5	/experiments/Knapen_AOT/AOT_stimuli/rescaled_final/0256_fw.mp4	0.0	122.24453401565552	1.0084660053253174
17	106.93248248100281	movie	1		291	15.0	2.5	/experiments/Knapen_AOT/AOT_stimuli/rescaled_final/0256_fw.mp4	0.0	123.25300002098083	2.492072820663452
17	107.29950952529907	pulse	1	t		15.0	2.5	/experiments/Knapen_AOT/AOT_stimuli/rescaled_final/0256_fw.mp4	0.0	123.6200270652771	
17	108.89961886405945	pulse	1	t		15.0	2.5	/experiments/Knapen_AOT/AOT_stimuli/rescaled_final/0256_fw.mp4	0.0	125.22013640403748	
17	109.42455530166626	fix_post	2		12	15.0	2.5	/experiments/Knapen_AOT/AOT_stimuli/rescaled_final/0256_fw.mp4	0.0	125.74507284164429	0.09999537467956543
18	109.52455067634583	fix_pre	0		118	16.0	2.5	/experiments/Knapen_AOT/AOT_stimuli/rescaled_final/2172_rv.mp4	0.0	125.84506821632385	0.9917895793914795
18	110.49995851516724	pulse	0	t		16.0	2.5	/experiments/Knapen_AOT/AOT_stimuli/rescaled_final/2172_rv.mp4	0.0	126.82047605514526	
18	110.5163402557373	movie	1		284	16.0	2.5	/experiments/Knapen_AOT/AOT_stimuli/rescaled_final/2172_rv.mp4	0.0	126.83685779571533	2.5003488063812256
18	112.09956169128418	pulse	1	t		16.0	2.5	/experiments/Knapen_AOT/AOT_stimuli/rescaled_final/2172_rv.mp4	0.0	128.4200792312622	
18	113.01668906211853	fix_post	2		12	16.0	2.5	/experiments/Knapen_AOT/AOT_stimuli/rescaled_final/2172_rv.mp4	0.0	129.33720660209656	0.10010838508605957
19	113.11679744720459	fix_pre	0		120	17.0	2.5	/experiments/Knapen_AOT/AOT_stimuli/rescaled_final/1984_rv.mp4	0.0	129.43731498718262	1.0084352493286133
19	113.70097064971924	pulse	0	t		17.0	2.5	/experiments/Knapen_AOT/AOT_stimuli/rescaled_final/1984_rv.mp4	0.0	130.02148818969727	
19	114.1252326965332	movie	1		283	17.0	2.5	/experiments/Knapen_AOT/AOT_stimuli/rescaled_final/1984_rv.mp4	0.0	130.44575023651123	2.4921817779541016
19	115.2986900806427	pulse	1	t		17.0	2.5	/experiments/Knapen_AOT/AOT_stimuli/rescaled_final/1984_rv.mp4	0.0	131.61920762062073	
19	116.6174144744873	fix_post	2		12	17.0	2.5	/experiments/Knapen_AOT/AOT_stimuli/rescaled_final/1984_rv.mp4	0.0	132.93793201446533	0.09984397888183594
20	116.71725845336914	fix_pre	0		120	18.0	2.5	/experiments/Knapen_AOT/AOT_stimuli/rescaled_final/0782_rv.mp4	0.0	133.03777599334717	1.0085346698760986
20	116.90084862709045	pulse	0	t		18.0	2.5	/experiments/Knapen_AOT/AOT_stimuli/rescaled_final/0782_rv.mp4	0.0	133.22136616706848	
20	117.72579312324524	movie	1		289	18.0	2.5	/experiments/Knapen_AOT/AOT_stimuli/rescaled_final/0782_rv.mp4	0.0	134.04631066322327	2.4920084476470947
20	118.49897193908691	pulse	1	t		18.0	2.5	/experiments/Knapen_AOT/AOT_stimuli/rescaled_final/0782_rv.mp4	0.0	134.81948947906494	
20	120.09917402267456	pulse	1	t		18.0	2.5	/experiments/Knapen_AOT/AOT_stimuli/rescaled_final/0782_rv.mp4	0.0	136.4196915626526	
20	120.21780157089233	fix_post	2		12	18.0	2.5	/experiments/Knapen_AOT/AOT_stimuli/rescaled_final/0782_rv.mp4	0.0	136.53831911087036	0.09998464584350586
21	120.31778621673584	fix_pre	0		120	19.0	2.5	/experiments/Knapen_AOT/AOT_stimuli/rescaled_final/0782_fw.mp4	0.0	136.63830375671387	1.0085184574127197
21	121.32630467414856	movie	1		281	19.0	2.5	/experiments/Knapen_AOT/AOT_stimuli/rescaled_final/0782_fw.mp4	0.0	137.6468222141266	2.492037057876587
21	121.7000002861023	pulse	1	t		19.0	2.5	/experiments/Knapen_AOT/AOT_stimuli/rescaled_final/0782_fw.mp4	0.0	138.02051782608032	
21	123.29977560043335	pulse	1	t		19.0	2.5	/experiments/Knapen_AOT/AOT_stimuli/rescaled_final/0782_fw.mp4	0.0	139.62029314041138	
21	123.81834173202515	fix_post	2		12	19.0	2.5	/experiments/Knapen_AOT/AOT_stimuli/rescaled_final/0782_fw.mp4	0.0	140.13885927200317	0.09999537467956543
22	123.91833710670471	fix_pre	0		119	20.0	2.5	/experiments/Knapen_AOT/AOT_stimuli/rescaled_final/1220_rv.mp4	0.0	140.23885464668274	1.0001499652862549
22	124.9020688533783	pulse	0	t		20.0	2.5	/experiments/Knapen_AOT/AOT_stimuli/rescaled_final/1220_rv.mp4	0.0	141.22258639335632	
22	124.91848707199097	movie	1		282	20.0	2.5	/experiments/Knapen_AOT/AOT_stimuli/rescaled_final/1220_rv.mp4	0.0	141.239004611969	2.500415563583374
22	126.5005395412445	pulse	1	t		20.0	2.5	/experiments/Knapen_AOT/AOT_stimuli/rescaled_final/1220_rv.mp4	0.0	142.82105708122253	
22	127.41890263557434	fix_post	2		12	20.0	2.5	/experiments/Knapen_AOT/AOT_stimuli/rescaled_final/1220_rv.mp4	0.0	143.73942017555237	0.09997797012329102
23	127.51888060569763	fix_pre	0		120	21.0	2.5	blank	1.0	143.83939814567566	1.000192642211914
23	128.1025369167328	pulse	0	t		21.0	2.5	blank	1.0	144.42305445671082	
23	128.51907324790955	movie	1		300	21.0	2.5	blank	1.0	144.83959078788757	2.500337839126587
23	129.70282340049744	pulse	1	t		21.0	2.5	blank	1.0	146.02334094047546	
23	131.01941108703613	fix_post	2		12	21.0	2.5	blank	1.0	147.33992862701416	0.10003376007080078
24	131.11944484710693	fix_pre	0		120	22.0	2.5	/experiments/Knapen_AOT/AOT_stimuli/rescaled_final/1235_fw.mp4	0.0	147.43996238708496	1.008521556854248
24	131.30317306518555	pulse	0	t		22.0	2.5	/experiments/Knapen_AOT/AOT_stimuli/rescaled_final/1235_fw.mp4	0.0	147.62369060516357	
24	132.12796640396118	movie	1		285	22.0	2.5	/experiments/Knapen_AOT/AOT_stimuli/rescaled_final/1235_fw.mp4	0.0	148.4484839439392	2.4920461177825928
24	132.90132594108582	pulse	1	t		22.0	2.5	/experiments/Knapen_AOT/AOT_stimuli/rescaled_final/1235_fw.mp4	0.0	149.22184348106384	
24	134.50164413452148	pulse	1	t		22.0	2.5	/experiments/Knapen_AOT/AOT_stimuli/rescaled_final/1235_fw.mp4	0.0	150.8221616744995	
24	134.62001252174377	fix_post	2		12	22.0	2.5	/experiments/Knapen_AOT/AOT_stimuli/rescaled_final/1235_fw.mp4	0.0	150.9405300617218	0.09992027282714844
25	134.71993279457092	fix_pre	0		120	23.0	2.5	/experiments/Knapen_AOT/AOT_stimuli/rescaled_final/0264_rv.mp4	0.0	151.04045033454895	1.0085558891296387
25	135.72848868370056	movie	1		278	23.0	2.5	/experiments/Knapen_AOT/AOT_stimuli/rescaled_final/0264_rv.mp4	0.0	152.0490062236786	2.491994619369507
25	136.10190153121948	pulse	1	t		23.0	2.5	/experiments/Knapen_AOT/AOT_stimuli/rescaled_final/0264_rv.mp4	0.0	152.4224190711975	
25	137.7019624710083	pulse	1	t		23.0	2.5	/experiments/Knapen_AOT/AOT_stimuli/rescaled_final/0264_rv.mp4	0.0	154.02248001098633	
25	138.22048330307007	fix_post	2		12	23.0	2.5	/experiments/Knapen_AOT/AOT_stimuli/rescaled_final/0264_rv.mp4	0.0	154.5410008430481	0.10000872611999512
26	138.32049202919006	fix_pre	0		119	24.0	2.5	/experiments/Knapen_AOT/AOT_stimuli/rescaled_final/0846_rv.mp4	0.0	154.6410095691681	1.0085551738739014
26	139.3042492866516	pulse	0	t		24.0	2.5	/experiments/Knapen_AOT/AOT_stimuli/rescaled_final/0846_rv.mp4	0.0	155.62476682662964	
26	139.32904720306396	movie	1		286	24.0	2.5	/experiments/Knapen_AOT/AOT_stimuli/rescaled_final/0846_rv.mp4	0.0	155.649564743042	2.49200701713562
26	140.90290665626526	pulse	1	t		24.0	2.5	/experiments/Knapen_AOT/AOT_stimuli/rescaled_final/0846_rv.mp4	0.0	157.2234241962433	
26	141.82105422019958	fix_post	2		12	24.0	2.5	/experiments/Knapen_AOT/AOT_stimuli/rescaled_final/0846_rv.mp4	0.0	158.1415717601776	0.09998035430908203
27	141.92103457450867	fix_pre	0		120	25.0	2.5	/experiments/Knapen_AOT/AOT_stimuli/rescaled_final/1235_rv.mp4	0.0	158.2415521144867	1.008516788482666
27	142.50467491149902	pulse	0	t		25.0	2.5	/experiments/Knapen_AOT/AOT_stimuli/rescaled_final/1235_rv.mp4	0.0	158.82519245147705	
27	142.92955136299133	movie	1		283	25.0	2.5	/experiments/Knapen_AOT/AOT_stimuli/rescaled_final/1235_rv.mp4	0.0	159.25006890296936	2.492009401321411
27	144.10333442687988	pulse	1	t		25.0	2.5	/experiments/Knapen_AOT/AOT_stimuli/rescaled_final/1235_rv.mp4	0.0	160.4238519668579	
27	145.42156076431274	fix_post	2		12	25.0	2.5	/experiments/Knapen_AOT/AOT_stimuli/rescaled_final/1235_rv.mp4	0.0	161.74207830429077	0.10002517700195312
28	145.5215859413147	fix_pre	0		120	26.0	2.5	/experiments/Knapen_AOT/AOT_stimuli/rescaled_final/0876_rv.mp4	0.0	161.84210348129272	1.0084953308105469
28	145.7050952911377	pulse	0	t		26.0	2.5	/experiments/Knapen_AOT/AOT_stimuli/rescaled_final/0876_rv.mp4	0.0	162.02561283111572	
28	146.53008127212524	movie	1		274	26.0	2.5	/experiments/Knapen_AOT/AOT_stimuli/rescaled_final/0876_rv.mp4	0.0	162.85059881210327	2.4920456409454346
28	147.30358910560608	pulse	1	t		26.0	2.5	/experiments/Knapen_AOT/AOT_stimuli/rescaled_final/0876_rv.mp4	0.0	163.6241066455841	
28	148.90359544754028	pulse	1	t		26.0	2.5	/experiments/Knapen_AOT/AOT_stimuli/rescaled_final/0876_rv.mp4	0.0	165.2241129875183	
28	149.02212691307068	fix_post	2		12	26.0	2.5	/experiments/Knapen_AOT/AOT_stimuli/rescaled_final/0876_rv.mp4	0.0	165.3426444530487	0.09999918937683105
29	149.1221261024475	fix_pre	0		120	27.0	2.5	/experiments/Knapen_AOT/AOT_stimuli/rescaled_final/0356_rv.mp4	0.0	165.44264364242554	1.0085253715515137
29	150.13065147399902	movie	1		287	27.0	2.5	/experiments/Knapen_AOT/AOT_stimuli/rescaled_final/0356_rv.mp4	0.0	166.45116901397705	2.4919960498809814
29	150.5045404434204	pulse	1	t		27.0	2.5	/experiments/Knapen_AOT/AOT_stimuli/rescaled_final/0356_rv.mp4	0.0	166.82505798339844	
29	152.10419058799744	pulse	1	t		27.0	2.5	/experiments/Knapen_AOT/AOT_stimuli/rescaled_final/0356_rv.mp4	0.0	168.42470812797546	
29	152.62264752388	fix_post	2		12	27.0	2.5	/experiments/Knapen_AOT/AOT_stimuli/rescaled_final/0356_rv.mp4	0.0	168.94316506385803	0.10002398490905762
30	152.72267150878906	fix_pre	0		119	28.0	2.5	blank	1.0	169.0431890487671	0.9918527603149414
30	153.69922971725464	pulse	0	t		28.0	2.5	blank	1.0	170.01974725723267	
30	153.714524269104	movie	1		301	28.0	2.5	blank	1.0	170.03504180908203	2.508678674697876
30	155.29901123046875	pulse	1	t		28.0	2.5	blank	1.0	171.61952877044678	
30	156.22320294380188	fix_post	2		12	28.0	2.5	blank	1.0	172.5437204837799	0.10001182556152344
31	156.3232147693634	fix_pre	0		120	29.0	2.5	/experiments/Knapen_AOT/AOT_stimuli/rescaled_final/2098_rv.mp4	0.0	172.64373230934143	1.0085022449493408
31	156.89894270896912	pulse	0	t		29.0	2.5	/experiments/Knapen_AOT/AOT_stimuli/rescaled_final/2098_rv.mp4	0.0	173.21946024894714	
31	157.33171701431274	movie	1		279	29.0	2.5	/experiments/Knapen_AOT/AOT_stimuli/rescaled_final/2098_rv.mp4	0.0	173.65223455429077	2.4920036792755127
31	158.49906373023987	pulse	1	t		29.0	2.5	/experiments/Knapen_AOT/AOT_stimuli/rescaled_final/2098_rv.mp4	0.0	174.8195812702179	
31	159.82372069358826	fix_post	2		12	29.0	2.5	/experiments/Knapen_AOT/AOT_stimuli/rescaled_final/2098_rv.mp4	0.0	176.14423823356628	0.10005450248718262
32	159.92377519607544	fix_pre	0		120	30.0	2.5	/experiments/Knapen_AOT/AOT_stimuli/rescaled_final/0519_fw.mp4	0.0	176.24429273605347	1.0085489749908447
32	160.09903192520142	pulse	0	t		30.0	2.5	/experiments/Knapen_AOT/AOT_stimuli/rescaled_final/0519_fw.mp4	0.0	176.41954946517944	
32	160.93232417106628	movie	1		284	30.0	2.5	/experiments/Knapen_AOT/AOT_stimuli/rescaled_final/0519_fw.mp4	0.0	177.2528417110443	2.492006540298462
32	161.69923996925354	pulse	1	t		30.0	2.5	/experiments/Knapen_AOT/AOT_stimuli/rescaled_final/0519_fw.mp4	0.0	178.01975750923157	
32	163.2994487285614	pulse	1	t		30.0	2.5	/experiments/Knapen_AOT/AOT_stimuli/rescaled_final/0519_fw.mp4	0.0	179.61996626853943	
32	163.42433071136475	fix_post	2		12	30.0	2.5	/experiments/Knapen_AOT/AOT_stimuli/rescaled_final/0519_fw.mp4	0.0	179.74484825134277	0.09995841979980469
33	163.52428913116455	fix_pre	0		120	31.0	2.5	/experiments/Knapen_AOT/AOT_stimuli/rescaled_final/0347_rv.mp4	0.0	179.84480667114258	1.0085945129394531
33	164.532883644104	movie	1		284	31.0	2.5	/experiments/Knapen_AOT/AOT_stimuli/rescaled_final/0347_rv.mp4	0.0	180.85340118408203	2.491931915283203
33	164.8998794555664	pulse	1	t		31.0	2.5	/experiments/Knapen_AOT/AOT_stimuli/rescaled_final/0347_rv.mp4	0.0	181.22039699554443	
33	166.49998235702515	pulse	1	t		31.0	2.5	/experiments/Knapen_AOT/AOT_stimuli/rescaled_final/0347_rv.mp4	0.0	182.82049989700317	
33	167.0248155593872	fix_post	2		12	31.0	2.5	/experiments/Knapen_AOT/AOT_stimuli/rescaled_final/0347_rv.mp4	0.0	183.34533309936523	0.1000213623046875
34	167.1248369216919	fix_pre	0		118	32.0	2.5	/experiments/Knapen_AOT/AOT_stimuli/rescaled_final/1396_rv.mp4	0.0	183.44535446166992	0.9918167591094971
34	168.10019493103027	pulse	0	t		32.0	2.5	/experiments/Knapen_AOT/AOT_stimuli/rescaled_final/1396_rv.mp4	0.0	184.4207124710083	
34	168.1166536808014	movie	1		286	32.0	2.5	/experiments/Knapen_AOT/AOT_stimuli/rescaled_final/1396_rv.mp4	0.0	184.43717122077942	2.5003700256347656
34	169.7005259990692	pulse	1	t		32.0	2.5	/experiments/Knapen_AOT/AOT_stimuli/rescaled_final/1396_rv.mp4	0.0	186.02104353904724	
34	170.61702370643616	fix_post	2		12	32.0	2.5	/experiments/Knapen_AOT/AOT_stimuli/rescaled_final/1396_rv.mp4	0.0	186.93754124641418	0.10011816024780273
35	170.71714186668396	fix_pre	0		120	33.0	2.5	/experiments/Knapen_AOT/AOT_stimuli/rescaled_final/1600_rv.mp4	0.0	187.037659406662	1.008406639099121
35	171.30068349838257	pulse	0	t		33.0	2.5	/experiments/Knapen_AOT/AOT_stimuli/rescaled_final/1600_rv.mp4	0.0	187.6212010383606	
35	171.72554850578308	movie	1		292	33.0	2.5	/experiments/Knapen_AOT/AOT_stimuli/rescaled_final/1600_rv.mp4	0.0	188.0460660457611	2.4920032024383545
35	172.8989291191101	pulse	1	t		33.0	2.5	/experiments/Knapen_AOT/AOT_stimuli/rescaled_final/1600_rv.mp4	0.0	189.21944665908813	
35	174.21755170822144	fix_post	2		12	33.0	2.5	/experiments/Knapen_AOT/AOT_stimuli/rescaled_final/1600_rv.mp4	0.0	190.53806924819946	0.10003232955932617
36	174.31758403778076	fix_pre	0		120	34.0	2.5	blank	1.0	190.6381015777588	1.0001726150512695
36	174.501136302948	pulse	0	t		34.0	2.5	blank	1.0	190.82165384292603	
36	175.31775665283203	movie	1		300	34.0	2.5	blank	1.0	191.63827419281006	2.5003409385681152
36	176.10138845443726	pulse	1	t		34.0	2.5	blank	1.0	192.42190599441528	
36	177.7015733718872	pulse	1	t		34.0	2.5	blank	1.0	194.02209091186523	
36	177.81809759140015	fix_post	2		12	34.0	2.5	blank	1.0	194.13861513137817	0.10010576248168945
37	177.91820335388184	fix_pre	0		120	35.0	2.5	/experiments/Knapen_AOT/AOT_stimuli/rescaled_final/1241_rv.mp4	0.0	194.23872089385986	1.0084354877471924
37	178.92663884162903	movie	1		283	35.0	2.5	/experiments/Knapen_AOT/AOT_stimuli/rescaled_final/1241_rv.mp4	0.0	195.24715638160706	2.492008924484253
37	179.3004789352417	pulse	1	t		35.0	2.5	/experiments/Knapen_AOT/AOT_stimuli/rescaled_final/1241_rv.mp4	0.0	195.62099647521973	
37	180.90222263336182	pulse	1	t		35.0	2.5	/experiments/Knapen_AOT/AOT_stimuli/rescaled_final/1241_rv.mp4	0.0	197.22274017333984	
37	181.41864776611328	fix_post	2		12	35.0	2.5	/experiments/Knapen_AOT/AOT_stimuli/rescaled_final/1241_rv.mp4	0.0	197.7391653060913	0.10002994537353516
38	181.51867771148682	fix_pre	0		119	36.0	2.5	/experiments/Knapen_AOT/AOT_stimuli/rescaled_final/0314_fw.mp4	0.0	197.83919525146484	1.0001676082611084
38	182.50239253044128	pulse	0	t		36.0	2.5	/experiments/Knapen_AOT/AOT_stimuli/rescaled_final/0314_fw.mp4	0.0	198.8229100704193	
38	182.51884531974792	movie	1		292	36.0	2.5	/experiments/Knapen_AOT/AOT_stimuli/rescaled_final/0314_fw.mp4	0.0	198.83936285972595	2.5003626346588135
38	184.10130047798157	pulse	1	t		36.0	2.5	/experiments/Knapen_AOT/AOT_stimuli/rescaled_final/0314_fw.mp4	0.0	200.4218180179596	
38	185.01920795440674	fix_post	2		12	36.0	2.5	/experiments/Knapen_AOT/AOT_stimuli/rescaled_final/0314_fw.mp4	0.0	201.33972549438477	0.10020256042480469
39	185.11941051483154	fix_pre	0		120	37.0	2.5	/experiments/Knapen_AOT/AOT_stimuli/rescaled_final/0885_fw.mp4	0.0	201.43992805480957	1.008392333984375
39	185.7028467655182	pulse	0	t		37.0	2.5	/experiments/Knapen_AOT/AOT_stimuli/rescaled_final/0885_fw.mp4	0.0	202.02336430549622	
39	186.12780284881592	movie	1		288	37.0	2.5	/experiments/Knapen_AOT/AOT_stimuli/rescaled_final/0885_fw.mp4	0.0	202.44832038879395	2.491931438446045
39	187.30162286758423	pulse	1	t		37.0	2.5	/experiments/Knapen_AOT/AOT_stimuli/rescaled_final/0885_fw.mp4	0.0	203.62214040756226	
39	188.61973428726196	fix_post	2		12	37.0	2.5	/experiments/Knapen_AOT/AOT_stimuli/rescaled_final/0885_fw.mp4	0.0	204.94025182724	0.10002279281616211
40	188.71975708007812	fix_pre	0		120	38.0	2.5	/experiments/Knapen_AOT/AOT_stimuli/rescaled_final/2098_fw.mp4	0.0	205.04027462005615	1.0086286067962646
40	188.90326690673828	pulse	0	t		38.0	2.5	/experiments/Knapen_AOT/AOT_stimuli/rescaled_final/2098_fw.mp4	0.0	205.2237844467163	
40	189.7283856868744	movie	1		288	38.0	2.5	/experiments/Knapen_AOT/AOT_stimuli/rescaled_final/2098_fw.mp4	0.0	206.04890322685242	2.4919254779815674
40	190.50185203552246	pulse	1	t		38.0	2.5	/experiments/Knapen_AOT/AOT_stimuli/rescaled_final/2098_fw.mp4	0.0	206.8223695755005	
40	192.10232377052307	pulse	1	t		38.0	2.5	/experiments/Knapen_AOT/AOT_stimuli/rescaled_final/2098_fw.mp4	0.0	208.4228413105011	
40	192.22031116485596	fix_post	2		12	38.0	2.5	/experiments/Knapen_AOT/AOT_stimuli/rescaled_final/2098_fw.mp4	0.0	208.54082870483398	0.10000967979431152
41	192.32032084465027	fix_pre	0		120	39.0	2.5	/experiments/Knapen_AOT/AOT_stimuli/rescaled_final/0846_fw.mp4	0.0	208.6408383846283	1.0084755420684814
41	193.32879638671875	movie	1		277	39.0	2.5	/experiments/Knapen_AOT/AOT_stimuli/rescaled_final/0846_fw.mp4	0.0	209.64931392669678	2.4920074939727783
41	193.70265364646912	pulse	1	t		39.0	2.5	/experiments/Knapen_AOT/AOT_stimuli/rescaled_final/0846_fw.mp4	0.0	210.02317118644714	
41	195.3025417327881	pulse	1	t		39.0	2.5	/experiments/Knapen_AOT/AOT_stimuli/rescaled_final/0846_fw.mp4	0.0	211.6230592727661	
41	195.82080388069153	fix_post	2		12	39.0	2.5	/experiments/Knapen_AOT/AOT_stimuli/rescaled_final/0846_fw.mp4	0.0	212.14132142066956	0.10001945495605469
42	195.92082333564758	fix_pre	0		119	40.0	2.5	/experiments/Knapen_AOT/AOT_stimuli/rescaled_final/1396_fw.mp4	0.0	212.2413408756256	1.00856614112854
42	196.90459442138672	pulse	0	t		40.0	2.5	/experiments/Knapen_AOT/AOT_stimuli/rescaled_final/1396_fw.mp4	0.0	213.22511196136475	
42	196.92938947677612	movie	1		289	40.0	2.5	/experiments/Knapen_AOT/AOT_stimuli/rescaled_final/1396_fw.mp4	0.0	213.24990701675415	2.4919755458831787
42	198.50342392921448	pulse	1	t		40.0	2.5	/experiments/Knapen_AOT/AOT_stimuli/rescaled_final/1396_fw.mp4	0.0	214.8239414691925	
42	199.4213650226593	fix_post	2		12	40.0	2.5	/experiments/Knapen_AOT/AOT_stimuli/rescaled_final/1396_fw.mp4	0.0	215.74188256263733	0.10000181198120117
43	199.5213668346405	fix_pre	0		120	41.0	2.5	/experiments/Knapen_AOT/AOT_stimuli/rescaled_final/0398_rv.mp4	0.0	215.84188437461853	1.0085101127624512
43	200.10536217689514	pulse	0	t		41.0	2.5	/experiments/Knapen_AOT/AOT_stimuli/rescaled_final/0398_rv.mp4	0.0	216.42587971687317	
43	200.52987694740295	movie	1		290	41.0	2.5	/experiments/Knapen_AOT/AOT_stimuli/rescaled_final/0398_rv.mp4	0.0	216.85039448738098	2.4920742511749268
43	201.70337438583374	pulse	1	t		41.0	2.5	/experiments/Knapen_AOT/AOT_stimuli/rescaled_final/0398_rv.mp4	0.0	218.02389192581177	
43	203.02195119857788	fix_post	2		12	41.0	2.5	/experiments/Knapen_AOT/AOT_stimuli/rescaled_final/0398_rv.mp4	0.0	219.3424687385559	0.09994745254516602
44	203.12189865112305	fix_pre	0		120	42.0	2.5	blank	1.0	219.44241619110107	1.0001652240753174
44	203.30546641349792	pulse	0	t		42.0	2.5	blank	1.0	219.62598395347595	
44	204.12206387519836	movie	1		300	42.0	2.5	blank	1.0	220.4425814151764	2.5003936290740967
44	204.90574669837952	pulse	1	t		42.0	2.5	blank	1.0	221.22626423835754	
44	206.5059494972229	pulse	1	t		42.0	2.5	blank	1.0	222.82646703720093	
44	206.62245750427246	fix_post	2		12	42.0	2.5	blank	1.0	222.9429750442505	0.10001826286315918
45	206.72247576713562	fix_pre	0		120	43.0	2.5	/experiments/Knapen_AOT/AOT_stimuli/rescaled_final/0951_rv.mp4	0.0	223.04299330711365	1.0084853172302246
45	207.73096108436584	movie	1		266	43.0	2.5	/experiments/Knapen_AOT/AOT_stimuli/rescaled_final/0951_rv.mp4	0.0	224.05147862434387	2.4920034408569336
45	208.105854511261	pulse	1	t		43.0	2.5	/experiments/Knapen_AOT/AOT_stimuli/rescaled_final/0951_rv.mp4	0.0	224.426372051239	
45	209.69826531410217	pulse	1	t		43.0	2.5	/experiments/Knapen_AOT/AOT_stimuli/rescaled_final/0951_rv.mp4	0.0	226.0187828540802	
45	210.22296452522278	fix_post	2		12	43.0	2.5	/experiments/Knapen_AOT/AOT_stimuli/rescaled_final/0951_rv.mp4	0.0	226.5434820652008	0.10001754760742188
46	210.3229820728302	fix_pre	0		118	44.0	2.5	/experiments/Knapen_AOT/AOT_stimuli/rescaled_final/2016_fw.mp4	0.0	226.64349961280823	0.9918713569641113
46	211.29853343963623	pulse	0	t		44.0	2.5	/experiments/Knapen_AOT/AOT_stimuli/rescaled_final/2016_fw.mp4	0.0	227.61905097961426	
46	211.3148534297943	movie	1		289	44.0	2.5	/experiments/Knapen_AOT/AOT_stimuli/rescaled_final/2016_fw.mp4	0.0	227.63537096977234	2.500358819961548
46	212.89877605438232	pulse	1	t		44.0	2.5	/experiments/Knapen_AOT/AOT_stimuli/rescaled_final/2016_fw.mp4	0.0	229.21929359436035	
46	213.81521224975586	fix_post	2		12	44.0	2.5	/experiments/Knapen_AOT/AOT_stimuli/rescaled_final/2016_fw.mp4	0.0	230.1357297897339	0.1000053882598877
47	213.91521763801575	fix_pre	0		120	45.0	2.5	/experiments/Knapen_AOT/AOT_stimuli/rescaled_final/0347_rv.mp4	0.0	230.23573517799377	1.0084924697875977
47	214.49886798858643	pulse	0	t		45.0	2.5	/experiments/Knapen_AOT/AOT_stimuli/rescaled_final/0347_rv.mp4	0.0	230.81938552856445	
47	214.92371010780334	movie	1		283	45.0	2.5	/experiments/Knapen_AOT/AOT_stimuli/rescaled_final/0347_rv.mp4	0.0	231.24422764778137	2.4920101165771484
47	216.09914016723633	pulse	1	t		45.0	2.5	/experiments/Knapen_AOT/AOT_stimuli/rescaled_final/0347_rv.mp4	0.0	232.41965770721436	
47	217.4157202243805	fix_post	2		12	45.0	2.5	/experiments/Knapen_AOT/AOT_stimuli/rescaled_final/0347_rv.mp4	0.0	233.73623776435852	0.10004305839538574
48	217.51576328277588	fix_pre	0		104	46.0	2.5	/experiments/Knapen_AOT/AOT_stimuli/rescaled_final/0553_rv.mp4	0.0	233.8362808227539	1.0084879398345947
48	217.69944071769714	pulse	0	t		46.0	2.5	/experiments/Knapen_AOT/AOT_stimuli/rescaled_final/0553_rv.mp4	0.0	234.01995825767517	
48	218.52425122261047	movie	1		276	46.0	2.5	/experiments/Knapen_AOT/AOT_stimuli/rescaled_final/0553_rv.mp4	0.0	234.8447687625885	2.492022752761841
48	219.29963278770447	pulse	1	t		46.0	2.5	/experiments/Knapen_AOT/AOT_stimuli/rescaled_final/0553_rv.mp4	0.0	235.6201503276825	
48	220.89847612380981	pulse	1	t		46.0	2.5	/experiments/Knapen_AOT/AOT_stimuli/rescaled_final/0553_rv.mp4	0.0	237.21899366378784	
48	221.01627397537231	fix_post	2		12	46.0	2.5	/experiments/Knapen_AOT/AOT_stimuli/rescaled_final/0553_rv.mp4	0.0	237.33679151535034	0.10001397132873535
49	221.11628794670105	fix_pre	0		120	47.0	2.5	blank	1.0	237.43680548667908	1.0001530647277832
49	222.11644101142883	movie	1		300	47.0	2.5	blank	1.0	238.43695855140686	2.500361680984497
49	222.50006818771362	pulse	1	t		47.0	2.5	blank	1.0	238.82058572769165	
49	224.1002471446991	pulse	1	t		47.0	2.5	blank	1.0	240.42076468467712	
49	224.61680269241333	fix_post	2		12	47.0	2.5	blank	1.0	240.93732023239136	0.10009074211120605
50	224.71689343452454	fix_pre	0		119	48.0	2.5	/experiments/Knapen_AOT/AOT_stimuli/rescaled_final/0373_rv.mp4	0.0	241.03741097450256	1.000131368637085
50	225.7005808353424	pulse	0	t		48.0	2.5	/experiments/Knapen_AOT/AOT_stimuli/rescaled_final/0373_rv.mp4	0.0	242.02109837532043	
50	225.71702480316162	movie	1		288	48.0	2.5	/experiments/Knapen_AOT/AOT_stimuli/rescaled_final/0373_rv.mp4	0.0	242.03754234313965	2.5003316402435303
50	227.299218416214	pulse	1	t		48.0	2.5	/experiments/Knapen_AOT/AOT_stimuli/rescaled_final/0373_rv.mp4	0.0	243.61973595619202	
50	228.21735644340515	fix_post	2		12	48.0	2.5	/experiments/Knapen_AOT/AOT_stimuli/rescaled_final/0373_rv.mp4	0.0	244.53787398338318	0.10000824928283691
51	228.317364692688	fix_pre	0		120	49.0	2.5	/experiments/Knapen_AOT/AOT_stimuli/rescaled_final/1603_fw.mp4	0.0	244.63788223266602	1.0085773468017578
51	228.90096879005432	pulse	0	t		49.0	2.5	/experiments/Knapen_AOT/AOT_stimuli/rescaled_final/1603_fw.mp4	0.0	245.22148633003235	
51	229.32594203948975	movie	1		287	49.0	2.5	/experiments/Knapen_AOT/AOT_stimuli/rescaled_final/1603_fw.mp4	0.0	245.64645957946777	2.49196195602417
51	230.49944067001343	pulse	1	t		49.0	2.5	/experiments/Knapen_AOT/AOT_stimuli/rescaled_final/1603_fw.mp4	0.0	246.81995820999146	
51	231.81790399551392	fix_post	2		12	49.0	2.5	/experiments/Knapen_AOT/AOT_stimuli/rescaled_final/1603_fw.mp4	0.0	248.13842153549194	0.10003066062927246
52	231.9179346561432	fix_pre	0		120	50.0	2.5	/experiments/Knapen_AOT/AOT_stimuli/rescaled_final/1897_rv.mp4	0.0	248.23845219612122	1.008469820022583
52	232.10147500038147	pulse	0	t		50.0	2.5	/experiments/Knapen_AOT/AOT_stimuli/rescaled_final/1897_rv.mp4	0.0	248.4219925403595	
52	232.92640447616577	movie	1		276	50.0	2.5	/experiments/Knapen_AOT/AOT_stimuli/rescaled_final/1897_rv.mp4	0.0	249.2469220161438	2.49204158782959
52	233.70030236244202	pulse	1	t		50.0	2.5	/experiments/Knapen_AOT/AOT_stimuli/rescaled_final/1897_rv.mp4	0.0	250.02081990242004	
52	235.29983496665955	pulse	1	t		50.0	2.5	/experiments/Knapen_AOT/AOT_stimuli/rescaled_final/1897_rv.mp4	0.0	251.62035250663757	
52	235.41844606399536	fix_post	2		12	50.0	2.5	/experiments/Knapen_AOT/AOT_stimuli/rescaled_final/1897_rv.mp4	0.0	251.7389636039734	0.10000300407409668
53	235.51844906806946	fix_pre	0		120	51.0	2.5	/experiments/Knapen_AOT/AOT_stimuli/rescaled_final/1847_rv.mp4	0.0	251.83896660804749	1.0086748600006104
53	236.52712392807007	movie	1		284	51.0	2.5	/experiments/Knapen_AOT/AOT_stimuli/rescaled_final/1847_rv.mp4	0.0	252.8476414680481	2.4918737411499023
53	236.90056252479553	pulse	1	t		51.0	2.5	/experiments/Knapen_AOT/AOT_stimuli/rescaled_final/1847_rv.mp4	0.0	253.22108006477356	
53	238.50066828727722	pulse	1	t		51.0	2.5	/experiments/Knapen_AOT/AOT_stimuli/rescaled_final/1847_rv.mp4	0.0	254.82118582725525	
53	239.01899766921997	fix_post	2		12	51.0	2.5	/experiments/Knapen_AOT/AOT_stimuli/rescaled_final/1847_rv.mp4	0.0	255.339515209198	0.1000063419342041
54	239.11900401115417	fix_pre	0		119	52.0	2.5	/experiments/Knapen_AOT/AOT_stimuli/rescaled_final/0336_rv.mp4	0.0	255.4395215511322	1.0002102851867676
54	240.10295963287354	pulse	0	t		52.0	2.5	/experiments/Knapen_AOT/AOT_stimuli/rescaled_final/0336_rv.mp4	0.0	256.42347717285156	
54	240.11921429634094	movie	1		279	52.0	2.5	/experiments/Knapen_AOT/AOT_stimuli/rescaled_final/0336_rv.mp4	0.0	256.43973183631897	2.500291109085083
54	241.70302033424377	pulse	1	t		52.0	2.5	/experiments/Knapen_AOT/AOT_stimuli/rescaled_final/0336_rv.mp4	0.0	258.0235378742218	
54	242.61950540542603	fix_post	2		12	52.0	2.5	/experiments/Knapen_AOT/AOT_stimuli/rescaled_final/0336_rv.mp4	0.0	258.94002294540405	0.10004878044128418
55	242.7195541858673	fix_pre	0		120	53.0	2.5	/experiments/Knapen_AOT/AOT_stimuli/rescaled_final/0951_rv.mp4	0.0	259.04007172584534	1.0084609985351562
55	243.30313658714294	pulse	0	t		53.0	2.5	/experiments/Knapen_AOT/AOT_stimuli/rescaled_final/0951_rv.mp4	0.0	259.623654127121	
55	243.72801518440247	movie	1		284	53.0	2.5	/experiments/Knapen_AOT/AOT_stimuli/rescaled_final/0951_rv.mp4	0.0	260.0485327243805	2.4920783042907715
55	244.90168476104736	pulse	1	t		53.0	2.5	/experiments/Knapen_AOT/AOT_stimuli/rescaled_final/0951_rv.mp4	0.0	261.2222023010254	
55	246.22009348869324	fix_post	2		12	53.0	2.5	/experiments/Knapen_AOT/AOT_stimuli/rescaled_final/0951_rv.mp4	0.0	262.54061102867126	0.09998655319213867
56	246.32008004188538	fix_pre	0		120	54.0	2.5	/experiments/Knapen_AOT/AOT_stimuli/rescaled_final/1504_rv.mp4	0.0	262.6405975818634	1.0085268020629883
56	246.50362610816956	pulse	0	t		54.0	2.5	/experiments/Knapen_AOT/AOT_stimuli/rescaled_final/1504_rv.mp4	0.0	262.8241436481476	
56	247.32860684394836	movie	1		282	54.0	2.5	/experiments/Knapen_AOT/AOT_stimuli/rescaled_final/1504_rv.mp4	0.0	263.6491243839264	2.4919989109039307
56	248.10170531272888	pulse	1	t		54.0	2.5	/experiments/Knapen_AOT/AOT_stimuli/rescaled_final/1504_rv.mp4	0.0	264.4222228527069	
56	249.70220375061035	pulse	1	t		54.0	2.5	/experiments/Knapen_AOT/AOT_stimuli/rescaled_final/1504_rv.mp4	0.0	266.0227212905884	
56	249.8206057548523	fix_post	2		12	54.0	2.5	/experiments/Knapen_AOT/AOT_stimuli/rescaled_final/1504_rv.mp4	0.0	266.1411232948303	0.10000467300415039
57	249.92061042785645	fix_pre	0		120	55.0	2.5	blank	1.0	266.2411279678345	1.0001435279846191
57	250.92075395584106	movie	1		300	55.0	2.5	blank	1.0	267.2412714958191	2.5003926753997803
57	251.30447959899902	pulse	1	t		55.0	2.5	blank	1.0	267.62499713897705	
57	252.90490412712097	pulse	1	t		55.0	2.5	blank	1.0	269.225421667099	
57	253.42114663124084	fix_post	2		12	55.0	2.5	blank	1.0	269.7416641712189	0.10006332397460938
58	253.52120995521545	fix_pre	0		119	56.0	2.5	/experiments/Knapen_AOT/AOT_stimuli/rescaled_final/2039_fw.mp4	0.0	269.8417274951935	1.0084600448608398
58	254.5051417350769	pulse	0	t		56.0	2.5	/experiments/Knapen_AOT/AOT_stimuli/rescaled_final/2039_fw.mp4	0.0	270.82565927505493	
58	254.5296700000763	movie	1		288	56.0	2.5	/experiments/Knapen_AOT/AOT_stimuli/rescaled_final/2039_fw.mp4	0.0	270.8501875400543	2.4920225143432617
58	256.1033945083618	pulse	1	t		56.0	2.5	/experiments/Knapen_AOT/AOT_stimuli/rescaled_final/2039_fw.mp4	0.0	272.42391204833984	
58	257.02169251441956	fix_post	2		12	56.0	2.5	/experiments/Knapen_AOT/AOT_stimuli/rescaled_final/2039_fw.mp4	0.0	273.3422100543976	0.09997248649597168
59	257.1216650009155	fix_pre	0		120	57.0	2.5	/experiments/Knapen_AOT/AOT_stimuli/rescaled_final/0010_fw.mp4	0.0	273.44218254089355	1.008533239364624
59	257.70548486709595	pulse	0	t		57.0	2.5	/experiments/Knapen_AOT/AOT_stimuli/rescaled_final/0010_fw.mp4	0.0	274.026002407074	
59	258.13019824028015	movie	1		283	57.0	2.5	/experiments/Knapen_AOT/AOT_stimuli/rescaled_final/0010_fw.mp4	0.0	274.4507157802582	2.492030620574951
59	259.30406641960144	pulse	1	t		57.0	2.5	/experiments/Knapen_AOT/AOT_stimuli/rescaled_final/0010_fw.mp4	0.0	275.62458395957947	
59	260.6222288608551	fix_post	2		12	57.0	2.5	/experiments/Knapen_AOT/AOT_stimuli/rescaled_final/0010_fw.mp4	0.0	276.94274640083313	0.10001254081726074
60	260.72224140167236	fix_pre	0		120	58.0	2.5	/experiments/Knapen_AOT/AOT_stimuli/rescaled_final/0347_fw.mp4	0.0	277.0427589416504	1.008479356765747
60	260.9058258533478	pulse	0	t		58.0	2.5	/experiments/Knapen_AOT/AOT_stimuli/rescaled_final/0347_fw.mp4	0.0	277.2263433933258	
60	261.7307207584381	movie	1		282	58.0	2.5	/experiments/Knapen_AOT/AOT_stimuli/rescaled_final/0347_fw.mp4	0.0	278.05123829841614	2.4920494556427
60	262.50397419929504	pulse	1	t		58.0	2.5	/experiments/Knapen_AOT/AOT_stimuli/rescaled_final/0347_fw.mp4	0.0	278.82449173927307	
60	264.1045262813568	pulse	1	t		58.0	2.5	/experiments/Knapen_AOT/AOT_stimuli/rescaled_final/0347_fw.mp4	0.0	280.42504382133484	
60	264.2227702140808	fix_post	2		12	58.0	2.5	/experiments/Knapen_AOT/AOT_stimuli/rescaled_final/0347_fw.mp4	0.0	280.54328775405884	0.1000356674194336
61	264.32280588150024	fix_pre	0		120	59.0	2.5	/experiments/Knapen_AOT/AOT_stimuli/rescaled_final/1303_fw.mp4	0.0	280.64332342147827	1.0084974765777588
61	265.331303358078	movie	1		270	59.0	2.5	/experiments/Knapen_AOT/AOT_stimuli/rescaled_final/1303_fw.mp4	0.0	281.65182089805603	2.4919819831848145
61	265.70475792884827	pulse	1	t		59.0	2.5	/experiments/Knapen_AOT/AOT_stimuli/rescaled_final/1303_fw.mp4	0.0	282.0252754688263	
61	267.29880023002625	pulse	1	t		59.0	2.5	/experiments/Knapen_AOT/AOT_stimuli/rescaled_final/1303_fw.mp4	0.0	283.6193177700043	
61	267.8232853412628	fix_post	2		12	59.0	2.5	/experiments/Knapen_AOT/AOT_stimuli/rescaled_final/1303_fw.mp4	0.0	284.14380288124084	0.10001873970031738
62	267.92330408096313	fix_pre	0		118	60.0	2.5	/experiments/Knapen_AOT/AOT_stimuli/rescaled_final/0876_fw.mp4	0.0	284.24382162094116	0.9918763637542725
62	268.8989062309265	pulse	0	t		60.0	2.5	/experiments/Knapen_AOT/AOT_stimuli/rescaled_final/0876_fw.mp4	0.0	285.21942377090454	
62	268.9151804447174	movie	1		289	60.0	2.5	/experiments/Knapen_AOT/AOT_stimuli/rescaled_final/0876_fw.mp4	0.0	285.23569798469543	2.500347375869751
62	270.4989776611328	pulse	1	t		60.0	2.5	/experiments/Knapen_AOT/AOT_stimuli/rescaled_final/0876_fw.mp4	0.0	286.81949520111084	
62	271.41552782058716	fix_post	2		12	60.0	2.5	/experiments/Knapen_AOT/AOT_stimuli/rescaled_final/0876_fw.mp4	0.0	287.7360453605652	0.10003328323364258
63	271.5155611038208	fix_pre	0		120	61.0	2.5	/experiments/Knapen_AOT/AOT_stimuli/rescaled_final/0687_fw.mp4	0.0	287.8360786437988	1.0084664821624756
63	272.09933400154114	pulse	0	t		61.0	2.5	/experiments/Knapen_AOT/AOT_stimuli/rescaled_final/0687_fw.mp4	0.0	288.41985154151917	
63	272.5240275859833	movie	1		283	61.0	2.5	/experiments/Knapen_AOT/AOT_stimuli/rescaled_final/0687_fw.mp4	0.0	288.8445451259613	2.492103099822998
63	273.6995413303375	pulse	1	t		61.0	2.5	/experiments/Knapen_AOT/AOT_stimuli/rescaled_final/0687_fw.mp4	0.0	290.02005887031555	
63	275.0161306858063	fix_post	2		12	61.0	2.5	/experiments/Knapen_AOT/AOT_stimuli/rescaled_final/0687_fw.mp4	0.0	291.3366482257843	0.09994339942932129
64	275.1160740852356	fix_pre	0		120	62.0	2.5	/experiments/Knapen_AOT/AOT_stimuli/rescaled_final/0885_rv.mp4	0.0	291.4365916252136	1.0084795951843262
64	275.2998597621918	pulse	0	t		62.0	2.5	/experiments/Knapen_AOT/AOT_stimuli/rescaled_final/0885_rv.mp4	0.0	291.6203773021698	
64	276.1245536804199	movie	1		283	62.0	2.5	/experiments/Knapen_AOT/AOT_stimuli/rescaled_final/0885_rv.mp4	0.0	292.44507122039795	2.4921023845672607
64	276.9001443386078	pulse	1	t		62.0	2.5	/experiments/Knapen_AOT/AOT_stimuli/rescaled_final/0885_rv.mp4	0.0	293.2206618785858	
64	278.5001516342163	pulse	1	t		62.0	2.5	/experiments/Knapen_AOT/AOT_stimuli/rescaled_final/0885_rv.mp4	0.0	294.82066917419434	
64	278.6166560649872	fix_post	2		12	62.0	2.5	/experiments/Knapen_AOT/AOT_stimuli/rescaled_final/0885_rv.mp4	0.0	294.9371736049652	0.09996271133422852
65	278.7166187763214	fix_pre	0		120	63.0	2.5	blank	1.0	295.03713631629944	1.0001230239868164
65	279.7167418003082	movie	1		300	63.0	2.5	blank	1.0	296.03725934028625	2.500396728515625
65	280.10040307044983	pulse	1	t		63.0	2.5	blank	1.0	296.42092061042786	
65	281.7006537914276	pulse	1	t		63.0	2.5	blank	1.0	298.02117133140564	
65	282.21713852882385	fix_post	2		12	63.0	2.5	blank	1.0	298.5376560688019	0.10001516342163086
66	282.3171536922455	fix_pre	0		119	64.0	2.5	/experiments/Knapen_AOT/AOT_stimuli/rescaled_final/0048_fw.mp4	0.0	298.6376712322235	1.0001425743103027
66	283.3008198738098	pulse	0	t		64.0	2.5	/experiments/Knapen_AOT/AOT_stimuli/rescaled_final/0048_fw.mp4	0.0	299.62133741378784	
66	283.3172962665558	movie	1		290	64.0	2.5	/experiments/Knapen_AOT/AOT_stimuli/rescaled_final/0048_fw.mp4	0.0	299.6378138065338	2.5003890991210938
66	284.9003818035126	pulse	1	t		64.0	2.5	/experiments/Knapen_AOT/AOT_stimuli/rescaled_final/0048_fw.mp4	0.0	301.2208993434906	
66	285.8176853656769	fix_post	2		12	64.0	2.5	/experiments/Knapen_AOT/AOT_stimuli/rescaled_final/0048_fw.mp4	0.0	302.1382029056549	0.10001230239868164
67	285.91769766807556	fix_pre	0		120	65.0	2.5	/experiments/Knapen_AOT/AOT_stimuli/rescaled_final/1125_fw.mp4	0.0	302.2382152080536	1.008507251739502
67	286.50161814689636	pulse	0	t		65.0	2.5	/experiments/Knapen_AOT/AOT_stimuli/rescaled_final/1125_fw.mp4	0.0	302.8221356868744	
67	286.92620491981506	movie	1		265	65.0	2.5	/experiments/Knapen_AOT/AOT_stimuli/rescaled_final/1125_fw.mp4	0.0	303.2467224597931	2.4920248985290527
67	288.0999753475189	pulse	1	t		65.0	2.5	/experiments/Knapen_AOT/AOT_stimuli/rescaled_final/1125_fw.mp4	0.0	304.42049288749695	
67	289.4182298183441	fix_post	2		12	65.0	2.5	/experiments/Knapen_AOT/AOT_stimuli/rescaled_final/1125_fw.mp4	0.0	305.73874735832214	0.10007476806640625
68	289.5183045864105	fix_pre	0		120	66.0	2.5	/experiments/Knapen_AOT/AOT_stimuli/rescaled_final/1743_rv.mp4	0.0	305.83882212638855	1.008437156677246
68	289.70175194740295	pulse	0	t		66.0	2.5	/experiments/Knapen_AOT/AOT_stimuli/rescaled_final/1743_rv.mp4	0.0	306.022269487381	
68	290.52674174308777	movie	1		275	66.0	2.5	/experiments/Knapen_AOT/AOT_stimuli/rescaled_final/1743_rv.mp4	0.0	306.8472592830658	2.4920096397399902
68	291.3000679016113	pulse	1	t		66.0	2.5	/experiments/Knapen_AOT/AOT_stimuli/rescaled_final/1743_rv.mp4	0.0	307.62058544158936	
68	292.9014301300049	pulse	1	t		66.0	2.5	/experiments/Knapen_AOT/AOT_stimuli/rescaled_final/1743_rv.mp4	0.0	309.2219476699829	
68	293.01875138282776	fix_post	2		12	66.0	2.5	/experiments/Knapen_AOT/AOT_stimuli/rescaled_final/1743_rv.mp4	0.0	309.3392689228058	0.10002684593200684
69	293.11877822875977	fix_pre	0		120	67.0	2.5	/experiments/Knapen_AOT/AOT_stimuli/rescaled_final/0264_rv.mp4	0.0	309.4392957687378	1.0085334777832031
69	294.12731170654297	movie	1		277	67.0	2.5	/experiments/Knapen_AOT/AOT_stimuli/rescaled_final/0264_rv.mp4	0.0	310.447829246521	2.491987943649292
69	294.50103783607483	pulse	1	t		67.0	2.5	/experiments/Knapen_AOT/AOT_stimuli/rescaled_final/0264_rv.mp4	0.0	310.82155537605286	
69	296.10095834732056	pulse	1	t		67.0	2.5	/experiments/Knapen_AOT/AOT_stimuli/rescaled_final/0264_rv.mp4	0.0	312.4214758872986	
69	296.61929965019226	fix_post	2		12	67.0	2.5	/experiments/Knapen_AOT/AOT_stimuli/rescaled_final/0264_rv.mp4	0.0	312.9398171901703	0.10002708435058594
70	296.71932673454285	fix_pre	0		119	68.0	2.5	/experiments/Knapen_AOT/AOT_stimuli/rescaled_final/1630_fw.mp4	0.0	313.0398442745209	1.0001623630523682
70	297.7030601501465	pulse	0	t		68.0	2.5	/experiments/Knapen_AOT/AOT_stimuli/rescaled_final/1630_fw.mp4	0.0	314.0235776901245	
70	297.7194890975952	movie	1		282	68.0	2.5	/experiments/Knapen_AOT/AOT_stimuli/rescaled_final/1630_fw.mp4	0.0	314.04000663757324	2.500401020050049
70	299.3019299507141	pulse	1	t		68.0	2.5	/experiments/Knapen_AOT/AOT_stimuli/rescaled_final/1630_fw.mp4	0.0	315.62244749069214	
70	300.21989011764526	fix_post	2		12	68.0	2.5	/experiments/Knapen_AOT/AOT_stimuli/rescaled_final/1630_fw.mp4	0.0	316.5404076576233	0.10003066062927246
71	300.31992077827454	fix_pre	0		120	69.0	2.5	blank	1.0	316.64043831825256	1.0000767707824707
71	300.90354585647583	pulse	0	t		69.0	2.5	blank	1.0	317.22406339645386	
71	301.319997549057	movie	1		300	69.0	2.5	blank	1.0	317.64051508903503	2.500447988510132
71	302.5037648677826	pulse	1	t		69.0	2.5	blank	1.0	318.8242824077606	
71	303.82044553756714	fix_post	2		12	69.0	2.5	blank	1.0	320.14096307754517	0.09995245933532715
72	303.92039799690247	fix_pre	0		120	70.0	2.5	/experiments/Knapen_AOT/AOT_stimuli/rescaled_final/1818_fw.mp4	0.0	320.2409155368805	1.0084912776947021
72	304.10410237312317	pulse	0	t		70.0	2.5	/experiments/Knapen_AOT/AOT_stimuli/rescaled_final/1818_fw.mp4	0.0	320.4246199131012	
72	304.92888927459717	movie	1		267	70.0	2.5	/experiments/Knapen_AOT/AOT_stimuli/rescaled_final/1818_fw.mp4	0.0	321.2494068145752	2.4920573234558105
72	305.7046673297882	pulse	1	t		70.0	2.5	/experiments/Knapen_AOT/AOT_stimuli/rescaled_final/1818_fw.mp4	0.0	322.02518486976624	
72	307.3035967350006	pulse	1	t		70.0	2.5	/experiments/Knapen_AOT/AOT_stimuli/rescaled_final/1818_fw.mp4	0.0	323.62411427497864	
72	307.420946598053	fix_post	2		12	70.0	2.5	/experiments/Knapen_AOT/AOT_stimuli/rescaled_final/1818_fw.mp4	0.0	323.741464138031	0.10012674331665039
73	307.52107334136963	fix_pre	0		120	71.0	2.5	/experiments/Knapen_AOT/AOT_stimuli/rescaled_final/1185_rv.mp4	0.0	323.84159088134766	1.0083885192871094
73	308.52946186065674	movie	1		270	71.0	2.5	/experiments/Knapen_AOT/AOT_stimuli/rescaled_final/1185_rv.mp4	0.0	324.84997940063477	2.4919936656951904
73	308.9030590057373	pulse	1	t		71.0	2.5	/experiments/Knapen_AOT/AOT_stimuli/rescaled_final/1185_rv.mp4	0.0	325.22357654571533	
73	310.50271368026733	pulse	1	t		71.0	2.5	/experiments/Knapen_AOT/AOT_stimuli/rescaled_final/1185_rv.mp4	0.0	326.82323122024536	
73	311.02145552635193	fix_post	2		12	71.0	2.5	/experiments/Knapen_AOT/AOT_stimuli/rescaled_final/1185_rv.mp4	0.0	327.34197306632996	0.10001993179321289
74	311.12147545814514	fix_pre	0		119	72.0	2.5	/experiments/Knapen_AOT/AOT_stimuli/rescaled_final/1048_fw.mp4	0.0	327.44199299812317	1.0003387928009033
74	312.105176448822	pulse	0	t		72.0	2.5	/experiments/Knapen_AOT/AOT_stimuli/rescaled_final/1048_fw.mp4	0.0	328.42569398880005	
74	312.12181425094604	movie	1		277	72.0	2.5	/experiments/Knapen_AOT/AOT_stimuli/rescaled_final/1048_fw.mp4	0.0	328.4423317909241	2.500237226486206
74	313.70391821861267	pulse	1	t		72.0	2.5	/experiments/Knapen_AOT/AOT_stimuli/rescaled_final/1048_fw.mp4	0.0	330.0244357585907	
74	314.62205147743225	fix_post	2		12	72.0	2.5	/experiments/Knapen_AOT/AOT_stimuli/rescaled_final/1048_fw.mp4	0.0	330.9425690174103	0.09997749328613281
75	314.7220289707184	fix_pre	0		120	73.0	2.5	/experiments/Knapen_AOT/AOT_stimuli/rescaled_final/0517_fw.mp4	0.0	331.0425465106964	1.0085294246673584
75	315.30563616752625	pulse	0	t		73.0	2.5	/experiments/Knapen_AOT/AOT_stimuli/rescaled_final/0517_fw.mp4	0.0	331.6261537075043	
75	315.73055839538574	movie	1		288	73.0	2.5	/experiments/Knapen_AOT/AOT_stimuli/rescaled_final/0517_fw.mp4	0.0	332.05107593536377	2.4919838905334473
75	316.9039957523346	pulse	1	t		73.0	2.5	/experiments/Knapen_AOT/AOT_stimuli/rescaled_final/0517_fw.mp4	0.0	333.2245132923126	
75	318.2225422859192	fix_post	2		12	73.0	2.5	/experiments/Knapen_AOT/AOT_stimuli/rescaled_final/0517_fw.mp4	0.0	334.5430598258972	0.10002827644348145
76	318.32257056236267	fix_pre	0		120	74.0	2.5	/experiments/Knapen_AOT/AOT_stimuli/rescaled_final/2074_fw.mp4	0.0	334.6430881023407	1.008563756942749
76	318.50619769096375	pulse	0	t		74.0	2.5	/experiments/Knapen_AOT/AOT_stimuli/rescaled_final/2074_fw.mp4	0.0	334.8267152309418	
76	319.3311343193054	movie	1		278	74.0	2.5	/experiments/Knapen_AOT/AOT_stimuli/rescaled_final/2074_fw.mp4	0.0	335.65165185928345	2.4919445514678955
76	320.1042149066925	pulse	1	t		74.0	2.5	/experiments/Knapen_AOT/AOT_stimuli/rescaled_final/2074_fw.mp4	0.0	336.42473244667053	
76	321.7048192024231	pulse	1	t		74.0	2.5	/experiments/Knapen_AOT/AOT_stimuli/rescaled_final/2074_fw.mp4	0.0	338.0253367424011	
76	321.8230788707733	fix_post	2		12	74.0	2.5	/experiments/Knapen_AOT/AOT_stimuli/rescaled_final/2074_fw.mp4	0.0	338.14359641075134	0.10002875328063965
77	321.92310762405396	fix_pre	0		120	75.0	2.5	blank	1.0	338.243625164032	1.0001928806304932
77	322.92330050468445	movie	1		300	75.0	2.5	blank	1.0	339.2438180446625	2.5003159046173096
77	323.2993769645691	pulse	1	t		75.0	2.5	blank	1.0	339.6198945045471	
77	324.89919996261597	pulse	1	t		75.0	2.5	blank	1.0	341.219717502594	
77	325.42361640930176	fix_post	2		12	75.0	2.5	blank	1.0	341.7441339492798	0.1000823974609375
78	325.5236988067627	fix_pre	0		118	76.0	2.5	/experiments/Knapen_AOT/AOT_stimuli/rescaled_final/1748_rv.mp4	0.0	341.8442163467407	0.9917738437652588
78	326.4992799758911	pulse	0	t		76.0	2.5	/experiments/Knapen_AOT/AOT_stimuli/rescaled_final/1748_rv.mp4	0.0	342.81979751586914	
78	326.51547265052795	movie	1		268	76.0	2.5	/experiments/Knapen_AOT/AOT_stimuli/rescaled_final/1748_rv.mp4	0.0	342.835990190506	2.500345230102539
78	328.09967827796936	pulse	1	t		76.0	2.5	/experiments/Knapen_AOT/AOT_stimuli/rescaled_final/1748_rv.mp4	0.0	344.4201958179474	
78	329.0158178806305	fix_post	2		12	76.0	2.5	/experiments/Knapen_AOT/AOT_stimuli/rescaled_final/1748_rv.mp4	0.0	345.3363354206085	0.1000833511352539
79	329.11590123176575	fix_pre	0		120	77.0	2.5	/experiments/Knapen_AOT/AOT_stimuli/rescaled_final/0201_rv.mp4	0.0	345.4364187717438	1.0084867477416992
79	329.6995458602905	pulse	0	t		77.0	2.5	/experiments/Knapen_AOT/AOT_stimuli/rescaled_final/0201_rv.mp4	0.0	346.02006340026855	
79	330.12438797950745	movie	1		271	77.0	2.5	/experiments/Knapen_AOT/AOT_stimuli/rescaled_final/0201_rv.mp4	0.0	346.4449055194855	2.491999864578247
79	331.299414396286	pulse	1	t		77.0	2.5	/experiments/Knapen_AOT/AOT_stimuli/rescaled_final/0201_rv.mp4	0.0	347.61993193626404	
79	332.6163878440857	fix_post	2		12	77.0	2.5	/experiments/Knapen_AOT/AOT_stimuli/rescaled_final/0201_rv.mp4	0.0	348.9369053840637	0.10000848770141602
80	332.7163963317871	fix_pre	0		120	78.0	2.5	/experiments/Knapen_AOT/AOT_stimuli/rescaled_final/0093_fw.mp4	0.0	349.03691387176514	1.0085365772247314
80	332.8999762535095	pulse	0	t		78.0	2.5	/experiments/Knapen_AOT/AOT_stimuli/rescaled_final/0093_fw.mp4	0.0	349.22049379348755	
80	333.72493290901184	movie	1		274	78.0	2.5	/experiments/Knapen_AOT/AOT_stimuli/rescaled_final/0093_fw.mp4	0.0	350.04545044898987	2.4919841289520264
80	334.49935483932495	pulse	1	t		78.0	2.5	/experiments/Knapen_AOT/AOT_stimuli/rescaled_final/0093_fw.mp4	0.0	350.819872379303	
80	336.10042333602905	pulse	1	t		78.0	2.5	/experiments/Knapen_AOT/AOT_stimuli/rescaled_final/0093_fw.mp4	0.0	352.4209408760071	
80	336.21691703796387	fix_post	2		12	78.0	2.5	/experiments/Knapen_AOT/AOT_stimuli/rescaled_final/0093_fw.mp4	0.0	352.5374345779419	0.10002493858337402
81	336.31694197654724	fix_pre	0		120	79.0	2.5	/experiments/Knapen_AOT/AOT_stimuli/rescaled_final/1984_rv.mp4	0.0	352.63745951652527	1.0085349082946777
81	337.3254768848419	movie	1		277	79.0	2.5	/experiments/Knapen_AOT/AOT_stimuli/rescaled_final/1984_rv.mp4	0.0	353.64599442481995	2.491983652114868
81	337.69932651519775	pulse	1	t		79.0	2.5	/experiments/Knapen_AOT/AOT_stimuli/rescaled_final/1984_rv.mp4	0.0	354.0198440551758	
81	339.3011095523834	pulse	1	t		79.0	2.5	/experiments/Knapen_AOT/AOT_stimuli/rescaled_final/1984_rv.mp4	0.0	355.62162709236145	
81	339.8174605369568	fix_post	2		12	79.0	2.5	/experiments/Knapen_AOT/AOT_stimuli/rescaled_final/1984_rv.mp4	0.0	356.1379780769348	0.10004329681396484
82	339.91750383377075	fix_pre	0		119	80.0	2.5	/experiments/Knapen_AOT/AOT_stimuli/rescaled_final/0487_rv.mp4	0.0	356.2380213737488	1.0001640319824219
82	340.9012110233307	pulse	0	t		80.0	2.5	/experiments/Knapen_AOT/AOT_stimuli/rescaled_final/0487_rv.mp4	0.0	357.2217285633087	
82	340.9176678657532	movie	1		278	80.0	2.5	/experiments/Knapen_AOT/AOT_stimuli/rescaled_final/0487_rv.mp4	0.0	357.2381854057312	2.500335454940796
82	342.5001392364502	pulse	1	t		80.0	2.5	/experiments/Knapen_AOT/AOT_stimuli/rescaled_final/0487_rv.mp4	0.0	358.8206567764282	
82	343.41800332069397	fix_post	2		12	80.0	2.5	/experiments/Knapen_AOT/AOT_stimuli/rescaled_final/0487_rv.mp4	0.0	359.738520860672	0.10001015663146973
83	343.51801347732544	fix_pre	0		120	81.0	2.5	/experiments/Knapen_AOT/AOT_stimuli/rescaled_final/1429_rv.mp4	0.0	359.83853101730347	1.0084939002990723
83	344.1017484664917	pulse	0	t		81.0	2.5	/experiments/Knapen_AOT/AOT_stimuli/rescaled_final/1429_rv.mp4	0.0	360.4222660064697	
83	344.5265073776245	movie	1		285	81.0	2.5	/experiments/Knapen_AOT/AOT_stimuli/rescaled_final/1429_rv.mp4	0.0	360.84702491760254	2.4920766353607178
83	345.6998381614685	pulse	1	t		81.0	2.5	/experiments/Knapen_AOT/AOT_stimuli/rescaled_final/1429_rv.mp4	0.0	362.02035570144653	
83	347.01858401298523	fix_post	2		12	81.0	2.5	/experiments/Knapen_AOT/AOT_stimuli/rescaled_final/1429_rv.mp4	0.0	363.33910155296326	0.09996795654296875
84	347.1185519695282	fix_pre	0		120	82.0	2.5	/experiments/Knapen_AOT/AOT_stimuli/rescaled_final/1335_fw.mp4	0.0	363.4390695095062	1.0085365772247314
84	347.30210733413696	pulse	0	t		82.0	2.5	/experiments/Knapen_AOT/AOT_stimuli/rescaled_final/1335_fw.mp4	0.0	363.622624874115	
84	348.12708854675293	movie	1		284	82.0	2.5	/experiments/Knapen_AOT/AOT_stimuli/rescaled_final/1335_fw.mp4	0.0	364.44760608673096	2.491997003555298
84	348.9010899066925	pulse	1	t		82.0	2.5	/experiments/Knapen_AOT/AOT_stimuli/rescaled_final/1335_fw.mp4	0.0	365.22160744667053	
84	350.50076031684875	pulse	1	t		82.0	2.5	/experiments/Knapen_AOT/AOT_stimuli/rescaled_final/1335_fw.mp4	0.0	366.8212778568268	
84	350.6190855503082	fix_post	2		12	82.0	2.5	/experiments/Knapen_AOT/AOT_stimuli/rescaled_final/1335_fw.mp4	0.0	366.93960309028625	0.10004353523254395
85	350.71912908554077	fix_pre	0		120	83.0	2.5	blank	1.0	367.0396466255188	1.0001275539398193
85	351.7192566394806	movie	1		300	83.0	2.5	blank	1.0	368.0397741794586	2.5003530979156494
85	352.1028399467468	pulse	1	t		83.0	2.5	blank	1.0	368.42335748672485	
85	353.70352578163147	pulse	1	t		83.0	2.5	blank	1.0	370.0240433216095	
85	354.21960973739624	fix_post	2		12	83.0	2.5	blank	1.0	370.54012727737427	0.1000204086303711
87	354.3196301460266	stim	0		1715					370.64014768600464	14.293831586837769
87	355.30376076698303	pulse	0	t						371.62427830696106	
87	356.9037961959839	pulse	0	t						373.2243137359619	
87	358.5039768218994	pulse	0	t						374.82449436187744	
87	360.1043186187744	pulse	0	t						376.42483615875244	
87	361.70466136932373	pulse	0	t						378.02517890930176	
87	363.3047685623169	pulse	0	t						379.6252861022949	
87	364.9047713279724	pulse	0	t						381.22528886795044	
87	366.5053663253784	pulse	0	t						382.82588386535645	
87	368.10527992248535	pulse	0	t						384.4257974624634	
