trial_nr	onset	event_type	phase	response	nr_frames	movie_index	movie_duration	movie_file	blank	onset_abs	duration
0	0.16673541069030762	stim	0		1					24.497361421585083	0.01662611961364746
0	0.1195993423461914	response	0	space						24.450225353240967	
1	0.18336153030395508	stim	0		4705					24.51398754119873	39.227466344833374
1	39.395588636398315	pulse	0	t						63.72621464729309	
1	39.41082787513733	stim	1		1714					63.741453886032104	14.297079801559448
1	40.98960876464844	pulse	1	t						65.32023477554321	
1	42.589895486831665	pulse	1	t						66.92052149772644	
1	44.19001340866089	pulse	1	t						68.52063941955566	
1	45.790223598480225	pulse	1	t						70.120849609375	
1	47.39043378829956	pulse	1	t						71.72105979919434	
1	48.9907488822937	pulse	1	t						73.32137489318848	
1	50.59104633331299	pulse	1	t						74.92167234420776	
1	52.19128465652466	pulse	1	t						76.52191066741943	
2	53.70790767669678	fix_pre	0		11	0.0	2.5	/experiments/knapen_AOT/AOT_stimuli/rescaled_final/0245_fw.mp4	0.0	78.03853368759155	0.11686038970947266
2	53.791457414627075	pulse	0	t		0.0	2.5	/experiments/knapen_AOT/AOT_stimuli/rescaled_final/0245_fw.mp4	0.0	78.12208342552185	
2	53.82476806640625	movie	1		270	0.0	2.5	/experiments/knapen_AOT/AOT_stimuli/rescaled_final/0245_fw.mp4	0.0	78.15539407730103	2.4835355281829834
2	55.39006328582764	pulse	1	t		0.0	2.5	/experiments/knapen_AOT/AOT_stimuli/rescaled_final/0245_fw.mp4	0.0	79.72068929672241	
2	56.30830359458923	fix_post	2		12	0.0	2.5	/experiments/knapen_AOT/AOT_stimuli/rescaled_final/0245_fw.mp4	0.0	80.63892960548401	0.1000368595123291
3	56.40834045410156	fix_pre	0		120	1.0	2.5	/experiments/knapen_AOT/AOT_stimuli/rescaled_final/1059_rv.mp4	0.0	80.73896646499634	1.0084562301635742
3	56.99199342727661	pulse	0	t		1.0	2.5	/experiments/knapen_AOT/AOT_stimuli/rescaled_final/1059_rv.mp4	0.0	81.32261943817139	
3	57.41679668426514	movie	1		276	1.0	2.5	/experiments/knapen_AOT/AOT_stimuli/rescaled_final/1059_rv.mp4	0.0	81.74742269515991	2.492035388946533
3	58.59031820297241	pulse	1	t		1.0	2.5	/experiments/knapen_AOT/AOT_stimuli/rescaled_final/1059_rv.mp4	0.0	82.92094421386719	
3	59.90883207321167	fix_post	2		12	1.0	2.5	/experiments/knapen_AOT/AOT_stimuli/rescaled_final/1059_rv.mp4	0.0	84.23945808410645	0.10013031959533691
4	60.00896239280701	fix_pre	0		120	2.0	2.5	/experiments/knapen_AOT/AOT_stimuli/rescaled_final/1945_rv.mp4	0.0	84.33958840370178	1.0083816051483154
4	60.18471360206604	pulse	0	t		2.0	2.5	/experiments/knapen_AOT/AOT_stimuli/rescaled_final/1945_rv.mp4	0.0	84.51533961296082	
4	61.01734399795532	movie	1		280	2.0	2.5	/experiments/knapen_AOT/AOT_stimuli/rescaled_final/1945_rv.mp4	0.0	85.3479700088501	2.4920239448547363
4	61.78455305099487	pulse	1	t		2.0	2.5	/experiments/knapen_AOT/AOT_stimuli/rescaled_final/1945_rv.mp4	0.0	86.11517906188965	
4	63.38464713096619	pulse	1	t		2.0	2.5	/experiments/knapen_AOT/AOT_stimuli/rescaled_final/1945_rv.mp4	0.0	87.71527314186096	
4	63.50936794281006	fix_post	2		12	2.0	2.5	/experiments/knapen_AOT/AOT_stimuli/rescaled_final/1945_rv.mp4	0.0	87.83999395370483	0.10001349449157715
5	63.609381437301636	fix_pre	0		120	3.0	2.5	/experiments/knapen_AOT/AOT_stimuli/rescaled_final/0039_fw.mp4	0.0	87.94000744819641	1.0084946155548096
5	64.61787605285645	movie	1		271	3.0	2.5	/experiments/knapen_AOT/AOT_stimuli/rescaled_final/0039_fw.mp4	0.0	88.94850206375122	2.492041826248169
5	64.98496150970459	pulse	1	t		3.0	2.5	/experiments/knapen_AOT/AOT_stimuli/rescaled_final/0039_fw.mp4	0.0	89.31558752059937	
5	66.58520889282227	pulse	1	t		3.0	2.5	/experiments/knapen_AOT/AOT_stimuli/rescaled_final/0039_fw.mp4	0.0	90.91583490371704	
5	67.10991787910461	fix_post	2		12	3.0	2.5	/experiments/knapen_AOT/AOT_stimuli/rescaled_final/0039_fw.mp4	0.0	91.44054388999939	0.10000205039978027
6	67.2099199295044	fix_pre	0		118	4.0	2.5	/experiments/knapen_AOT/AOT_stimuli/rescaled_final/1112_fw.mp4	0.0	91.54054594039917	0.9918298721313477
6	68.1853358745575	pulse	0	t		4.0	2.5	/experiments/knapen_AOT/AOT_stimuli/rescaled_final/1112_fw.mp4	0.0	92.51596188545227	
6	68.20174980163574	movie	1		280	4.0	2.5	/experiments/knapen_AOT/AOT_stimuli/rescaled_final/1112_fw.mp4	0.0	92.53237581253052	2.5003697872161865
6	69.78367590904236	pulse	1	t		4.0	2.5	/experiments/knapen_AOT/AOT_stimuli/rescaled_final/1112_fw.mp4	0.0	94.11430191993713	
6	70.70211958885193	fix_post	2		12	4.0	2.5	/experiments/knapen_AOT/AOT_stimuli/rescaled_final/1112_fw.mp4	0.0	95.0327455997467	0.1000056266784668
7	70.8021252155304	fix_pre	0		120	5.0	2.5	blank	1.0	95.13275122642517	1.0001492500305176
7	71.38577675819397	pulse	0	t		5.0	2.5	blank	1.0	95.71640276908875	
7	71.80227446556091	movie	1		300	5.0	2.5	blank	1.0	96.13290047645569	2.500399589538574
7	72.98603057861328	pulse	1	t		5.0	2.5	blank	1.0	97.31665658950806	
7	74.30267405509949	fix_post	2		12	5.0	2.5	blank	1.0	98.63330006599426	0.10000133514404297
8	74.40267539024353	fix_pre	0		120	6.0	2.5	/experiments/knapen_AOT/AOT_stimuli/rescaled_final/0511_rv.mp4	0.0	98.7333014011383	1.00848388671875
8	74.58625888824463	pulse	0	t		6.0	2.5	/experiments/knapen_AOT/AOT_stimuli/rescaled_final/0511_rv.mp4	0.0	98.9168848991394	
8	75.41115927696228	movie	1		281	6.0	2.5	/experiments/knapen_AOT/AOT_stimuli/rescaled_final/0511_rv.mp4	0.0	99.74178528785706	2.4920763969421387
8	76.1858606338501	pulse	1	t		6.0	2.5	/experiments/knapen_AOT/AOT_stimuli/rescaled_final/0511_rv.mp4	0.0	100.51648664474487	
8	77.78458285331726	pulse	1	t		6.0	2.5	/experiments/knapen_AOT/AOT_stimuli/rescaled_final/0511_rv.mp4	0.0	102.11520886421204	
8	77.90323567390442	fix_post	2		12	6.0	2.5	/experiments/knapen_AOT/AOT_stimuli/rescaled_final/0511_rv.mp4	0.0	102.2338616847992	0.09997677803039551
9	78.00321245193481	fix_pre	0		120	7.0	2.5	/experiments/knapen_AOT/AOT_stimuli/rescaled_final/0113_rv.mp4	0.0	102.33383846282959	1.0085515975952148
9	79.01176404953003	movie	1		275	7.0	2.5	/experiments/knapen_AOT/AOT_stimuli/rescaled_final/0113_rv.mp4	0.0	103.3423900604248	2.4919772148132324
9	79.3862738609314	pulse	1	t		7.0	2.5	/experiments/knapen_AOT/AOT_stimuli/rescaled_final/0113_rv.mp4	0.0	103.71689987182617	
9	80.9867434501648	pulse	1	t		7.0	2.5	/experiments/knapen_AOT/AOT_stimuli/rescaled_final/0113_rv.mp4	0.0	105.31736946105957	
9	81.50374126434326	fix_post	2		12	7.0	2.5	/experiments/knapen_AOT/AOT_stimuli/rescaled_final/0113_rv.mp4	0.0	105.83436727523804	0.10001277923583984
10	81.6037540435791	fix_pre	0		119	8.0	2.5	/experiments/knapen_AOT/AOT_stimuli/rescaled_final/0480_rv.mp4	0.0	105.93438005447388	1.000176191329956
10	82.58751034736633	pulse	0	t		8.0	2.5	/experiments/knapen_AOT/AOT_stimuli/rescaled_final/0480_rv.mp4	0.0	106.91813635826111	
10	82.60393023490906	movie	1		269	8.0	2.5	/experiments/knapen_AOT/AOT_stimuli/rescaled_final/0480_rv.mp4	0.0	106.93455624580383	2.500349521636963
10	84.185959815979	pulse	1	t		8.0	2.5	/experiments/knapen_AOT/AOT_stimuli/rescaled_final/0480_rv.mp4	0.0	108.51658582687378	
10	85.10427975654602	fix_post	2		12	8.0	2.5	/experiments/knapen_AOT/AOT_stimuli/rescaled_final/0480_rv.mp4	0.0	109.4349057674408	0.10001730918884277
11	85.20429706573486	fix_pre	0		120	9.0	2.5	/experiments/knapen_AOT/AOT_stimuli/rescaled_final/0654_fw.mp4	0.0	109.53492307662964	1.0084822177886963
11	85.78791308403015	pulse	0	t		9.0	2.5	/experiments/knapen_AOT/AOT_stimuli/rescaled_final/0654_fw.mp4	0.0	110.11853909492493	
11	86.21277928352356	movie	1		278	9.0	2.5	/experiments/knapen_AOT/AOT_stimuli/rescaled_final/0654_fw.mp4	0.0	110.54340529441833	2.492037534713745
11	87.38629698753357	pulse	1	t		9.0	2.5	/experiments/knapen_AOT/AOT_stimuli/rescaled_final/0654_fw.mp4	0.0	111.71692299842834	
11	88.7048168182373	fix_post	2		12	9.0	2.5	/experiments/knapen_AOT/AOT_stimuli/rescaled_final/0654_fw.mp4	0.0	113.03544282913208	0.10001492500305176
12	88.80483174324036	fix_pre	0		120	10.0	2.5	/experiments/knapen_AOT/AOT_stimuli/rescaled_final/2096_rv.mp4	0.0	113.13545775413513	1.008545160293579
12	88.9884397983551	pulse	0	t		10.0	2.5	/experiments/knapen_AOT/AOT_stimuli/rescaled_final/2096_rv.mp4	0.0	113.31906580924988	
12	89.81337690353394	movie	1		271	10.0	2.5	/experiments/knapen_AOT/AOT_stimuli/rescaled_final/2096_rv.mp4	0.0	114.14400291442871	2.491978883743286
12	90.58706331253052	pulse	1	t		10.0	2.5	/experiments/knapen_AOT/AOT_stimuli/rescaled_final/2096_rv.mp4	0.0	114.9176893234253	
12	92.1870493888855	pulse	1	t		10.0	2.5	/experiments/knapen_AOT/AOT_stimuli/rescaled_final/2096_rv.mp4	0.0	116.51767539978027	
12	92.30535578727722	fix_post	2		12	10.0	2.5	/experiments/knapen_AOT/AOT_stimuli/rescaled_final/2096_rv.mp4	0.0	116.635981798172	0.10002017021179199
13	92.40537595748901	fix_pre	0		120	11.0	2.5	/experiments/knapen_AOT/AOT_stimuli/rescaled_final/1145_rv.mp4	0.0	116.73600196838379	1.0085341930389404
13	93.41391015052795	movie	1		272	11.0	2.5	/experiments/knapen_AOT/AOT_stimuli/rescaled_final/1145_rv.mp4	0.0	117.74453616142273	2.4920053482055664
13	93.78755497932434	pulse	1	t		11.0	2.5	/experiments/knapen_AOT/AOT_stimuli/rescaled_final/1145_rv.mp4	0.0	118.11818099021912	
13	95.38948631286621	pulse	1	t		11.0	2.5	/experiments/knapen_AOT/AOT_stimuli/rescaled_final/1145_rv.mp4	0.0	119.72011232376099	
13	95.90591549873352	fix_post	2		12	11.0	2.5	/experiments/knapen_AOT/AOT_stimuli/rescaled_final/1145_rv.mp4	0.0	120.2365415096283	0.10000205039978027
14	96.0059175491333	fix_pre	0		119	12.0	2.5	blank	1.0	120.33654356002808	0.9918167591094971
14	96.98960900306702	pulse	0	t		12.0	2.5	blank	1.0	121.32023501396179	
14	96.9977343082428	movie	1		301	12.0	2.5	blank	1.0	121.32836031913757	2.5087039470672607
14	98.58985781669617	pulse	1	t		12.0	2.5	blank	1.0	122.92048382759094	
14	99.50643825531006	fix_post	2		12	12.0	2.5	blank	1.0	123.83706426620483	0.10001897811889648
15	99.60645723342896	fix_pre	0		120	13.0	2.5	/experiments/knapen_AOT/AOT_stimuli/rescaled_final/0636_fw.mp4	0.0	123.93708324432373	1.0085198879241943
15	100.19016313552856	pulse	0	t		13.0	2.5	/experiments/knapen_AOT/AOT_stimuli/rescaled_final/0636_fw.mp4	0.0	124.52078914642334	
15	100.61497712135315	movie	1		269	13.0	2.5	/experiments/knapen_AOT/AOT_stimuli/rescaled_final/0636_fw.mp4	0.0	124.94560313224792	2.49202299118042
15	101.79057097434998	pulse	1	t		13.0	2.5	/experiments/knapen_AOT/AOT_stimuli/rescaled_final/0636_fw.mp4	0.0	126.12119698524475	
15	103.10700011253357	fix_post	2		12	13.0	2.5	/experiments/knapen_AOT/AOT_stimuli/rescaled_final/0636_fw.mp4	0.0	127.43762612342834	0.10018181800842285
16	103.20718193054199	fix_pre	0		120	14.0	2.5	/experiments/knapen_AOT/AOT_stimuli/rescaled_final/1259_rv.mp4	0.0	127.53780794143677	1.0083458423614502
16	103.39051580429077	pulse	0	t		14.0	2.5	/experiments/knapen_AOT/AOT_stimuli/rescaled_final/1259_rv.mp4	0.0	127.72114181518555	
16	104.21552777290344	movie	1		282	14.0	2.5	/experiments/knapen_AOT/AOT_stimuli/rescaled_final/1259_rv.mp4	0.0	128.54615378379822	2.492004156112671
16	104.98845958709717	pulse	1	t		14.0	2.5	/experiments/knapen_AOT/AOT_stimuli/rescaled_final/1259_rv.mp4	0.0	129.31908559799194	
16	106.58902883529663	pulse	1	t		14.0	2.5	/experiments/knapen_AOT/AOT_stimuli/rescaled_final/1259_rv.mp4	0.0	130.9196548461914	
16	106.70753192901611	fix_post	2		12	14.0	2.5	/experiments/knapen_AOT/AOT_stimuli/rescaled_final/1259_rv.mp4	0.0	131.0381579399109	0.10001873970031738
17	106.80755066871643	fix_pre	0		120	15.0	2.5	/experiments/knapen_AOT/AOT_stimuli/rescaled_final/0369_fw.mp4	0.0	131.1381766796112	1.008498191833496
17	107.81604886054993	movie	1		270	15.0	2.5	/experiments/knapen_AOT/AOT_stimuli/rescaled_final/0369_fw.mp4	0.0	132.1466748714447	2.4920156002044678
17	108.19039368629456	pulse	1	t		15.0	2.5	/experiments/knapen_AOT/AOT_stimuli/rescaled_final/0369_fw.mp4	0.0	132.52101969718933	
17	109.78946805000305	pulse	1	t		15.0	2.5	/experiments/knapen_AOT/AOT_stimuli/rescaled_final/0369_fw.mp4	0.0	134.12009406089783	
17	110.3080644607544	fix_post	2		12	15.0	2.5	/experiments/knapen_AOT/AOT_stimuli/rescaled_final/0369_fw.mp4	0.0	134.63869047164917	0.1000204086303711
18	110.40808486938477	fix_pre	0		118	16.0	2.5	/experiments/knapen_AOT/AOT_stimuli/rescaled_final/0096_fw.mp4	0.0	134.73871088027954	0.9918379783630371
18	111.38381886482239	pulse	0	t		16.0	2.5	/experiments/knapen_AOT/AOT_stimuli/rescaled_final/0096_fw.mp4	0.0	135.71444487571716	
18	111.3999228477478	movie	1		266	16.0	2.5	/experiments/knapen_AOT/AOT_stimuli/rescaled_final/0096_fw.mp4	0.0	135.73054885864258	2.500363826751709
18	112.98398756980896	pulse	1	t		16.0	2.5	/experiments/knapen_AOT/AOT_stimuli/rescaled_final/0096_fw.mp4	0.0	137.31461358070374	
18	113.90028667449951	fix_post	2		12	16.0	2.5	/experiments/knapen_AOT/AOT_stimuli/rescaled_final/0096_fw.mp4	0.0	138.2309126853943	0.10002803802490234
19	114.00031471252441	fix_pre	0		120	17.0	2.5	/experiments/knapen_AOT/AOT_stimuli/rescaled_final/1623_fw.mp4	0.0	138.3309407234192	1.0084822177886963
19	114.58393287658691	pulse	0	t		17.0	2.5	/experiments/knapen_AOT/AOT_stimuli/rescaled_final/1623_fw.mp4	0.0	138.9145588874817	
19	115.00879693031311	movie	1		262	17.0	2.5	/experiments/knapen_AOT/AOT_stimuli/rescaled_final/1623_fw.mp4	0.0	139.33942294120789	2.4920194149017334
19	116.18419575691223	pulse	1	t		17.0	2.5	/experiments/knapen_AOT/AOT_stimuli/rescaled_final/1623_fw.mp4	0.0	140.514821767807	
19	117.50081634521484	fix_post	2		12	17.0	2.5	/experiments/knapen_AOT/AOT_stimuli/rescaled_final/1623_fw.mp4	0.0	141.83144235610962	0.10001683235168457
20	117.60083317756653	fix_pre	0		120	18.0	2.5	/experiments/knapen_AOT/AOT_stimuli/rescaled_final/1043_rv.mp4	0.0	141.9314591884613	1.0085082054138184
20	117.78440880775452	pulse	0	t		18.0	2.5	/experiments/knapen_AOT/AOT_stimuli/rescaled_final/1043_rv.mp4	0.0	142.1150348186493	
20	118.60934138298035	movie	1		273	18.0	2.5	/experiments/knapen_AOT/AOT_stimuli/rescaled_final/1043_rv.mp4	0.0	142.93996739387512	2.492030620574951
20	119.38463997840881	pulse	1	t		18.0	2.5	/experiments/knapen_AOT/AOT_stimuli/rescaled_final/1043_rv.mp4	0.0	143.7152659893036	
20	120.98521518707275	pulse	1	t		18.0	2.5	/experiments/knapen_AOT/AOT_stimuli/rescaled_final/1043_rv.mp4	0.0	145.31584119796753	
20	121.1013720035553	fix_post	2		12	18.0	2.5	/experiments/knapen_AOT/AOT_stimuli/rescaled_final/1043_rv.mp4	0.0	145.43199801445007	0.10001564025878906
21	121.20138764381409	fix_pre	0		120	19.0	2.5	/experiments/knapen_AOT/AOT_stimuli/rescaled_final/0319_rv.mp4	0.0	145.53201365470886	1.0084807872772217
21	122.20986843109131	movie	1		274	19.0	2.5	/experiments/knapen_AOT/AOT_stimuli/rescaled_final/0319_rv.mp4	0.0	146.54049444198608	2.492042064666748
21	122.58520698547363	pulse	1	t		19.0	2.5	/experiments/knapen_AOT/AOT_stimuli/rescaled_final/0319_rv.mp4	0.0	146.9158329963684	
21	124.18567705154419	pulse	1	t		19.0	2.5	/experiments/knapen_AOT/AOT_stimuli/rescaled_final/0319_rv.mp4	0.0	148.51630306243896	
21	124.70191049575806	fix_post	2		12	19.0	2.5	/experiments/knapen_AOT/AOT_stimuli/rescaled_final/0319_rv.mp4	0.0	149.03253650665283	0.100006103515625
22	124.80191659927368	fix_pre	0		119	20.0	2.5	blank	1.0	149.13254261016846	0.991793155670166
22	125.78583908081055	pulse	0	t		20.0	2.5	blank	1.0	150.11646509170532	
22	125.79370975494385	movie	1		301	20.0	2.5	blank	1.0	150.12433576583862	2.5087504386901855
22	127.3858437538147	pulse	1	t		20.0	2.5	blank	1.0	151.71646976470947	
22	128.30246019363403	fix_post	2		12	20.0	2.5	blank	1.0	152.6330862045288	0.10000967979431152
23	128.40246987342834	fix_pre	0		120	21.0	2.5	/experiments/knapen_AOT/AOT_stimuli/rescaled_final/1845_rv.mp4	0.0	152.73309588432312	1.008547067642212
23	128.98609375953674	pulse	0	t		21.0	2.5	/experiments/knapen_AOT/AOT_stimuli/rescaled_final/1845_rv.mp4	0.0	153.31671977043152	
23	129.41101694107056	movie	1		270	21.0	2.5	/experiments/knapen_AOT/AOT_stimuli/rescaled_final/1845_rv.mp4	0.0	153.74164295196533	2.49200177192688
23	130.58655881881714	pulse	1	t		21.0	2.5	/experiments/knapen_AOT/AOT_stimuli/rescaled_final/1845_rv.mp4	0.0	154.9171848297119	
23	131.90301871299744	fix_post	2		12	21.0	2.5	/experiments/knapen_AOT/AOT_stimuli/rescaled_final/1845_rv.mp4	0.0	156.2336447238922	0.1000361442565918
24	132.00305485725403	fix_pre	0		120	22.0	2.5	/experiments/knapen_AOT/AOT_stimuli/rescaled_final/1043_rv.mp4	0.0	156.3336808681488	1.0084655284881592
24	132.1865930557251	pulse	0	t		22.0	2.5	/experiments/knapen_AOT/AOT_stimuli/rescaled_final/1043_rv.mp4	0.0	156.51721906661987	
24	133.0115203857422	movie	1		279	22.0	2.5	/experiments/knapen_AOT/AOT_stimuli/rescaled_final/1043_rv.mp4	0.0	157.34214639663696	2.491997003555298
24	133.78471302986145	pulse	1	t		22.0	2.5	/experiments/knapen_AOT/AOT_stimuli/rescaled_final/1043_rv.mp4	0.0	158.11533904075623	
24	135.38506484031677	pulse	1	t		22.0	2.5	/experiments/knapen_AOT/AOT_stimuli/rescaled_final/1043_rv.mp4	0.0	159.71569085121155	
24	135.50351738929749	fix_post	2		12	22.0	2.5	/experiments/knapen_AOT/AOT_stimuli/rescaled_final/1043_rv.mp4	0.0	159.83414340019226	0.10002470016479492
25	135.60354208946228	fix_pre	0		120	23.0	2.5	/experiments/knapen_AOT/AOT_stimuli/rescaled_final/2096_rv.mp4	0.0	159.93416810035706	1.0085060596466064
25	136.6120481491089	movie	1		276	23.0	2.5	/experiments/knapen_AOT/AOT_stimuli/rescaled_final/2096_rv.mp4	0.0	160.94267416000366	2.4920053482055664
25	136.98551726341248	pulse	1	t		23.0	2.5	/experiments/knapen_AOT/AOT_stimuli/rescaled_final/2096_rv.mp4	0.0	161.31614327430725	
25	138.58711051940918	pulse	1	t		23.0	2.5	/experiments/knapen_AOT/AOT_stimuli/rescaled_final/2096_rv.mp4	0.0	162.91773653030396	
25	139.10405349731445	fix_post	2		12	23.0	2.5	/experiments/knapen_AOT/AOT_stimuli/rescaled_final/2096_rv.mp4	0.0	163.43467950820923	0.1000204086303711
26	139.20407390594482	fix_pre	0		119	24.0	2.5	/experiments/knapen_AOT/AOT_stimuli/rescaled_final/0118_rv.mp4	0.0	163.5346999168396	1.0001356601715088
26	140.18781995773315	pulse	0	t		24.0	2.5	/experiments/knapen_AOT/AOT_stimuli/rescaled_final/0118_rv.mp4	0.0	164.51844596862793	
26	140.20420956611633	movie	1		285	24.0	2.5	/experiments/knapen_AOT/AOT_stimuli/rescaled_final/0118_rv.mp4	0.0	164.5348355770111	2.500473737716675
26	141.78637957572937	pulse	1	t		24.0	2.5	/experiments/knapen_AOT/AOT_stimuli/rescaled_final/0118_rv.mp4	0.0	166.11700558662415	
26	142.704683303833	fix_post	2		12	24.0	2.5	/experiments/knapen_AOT/AOT_stimuli/rescaled_final/0118_rv.mp4	0.0	167.03530931472778	0.09994673728942871
27	142.80463004112244	fix_pre	0		120	25.0	2.5	/experiments/knapen_AOT/AOT_stimuli/rescaled_final/1951_fw.mp4	0.0	167.1352560520172	1.008495807647705
27	143.38828921318054	pulse	0	t		25.0	2.5	/experiments/knapen_AOT/AOT_stimuli/rescaled_final/1951_fw.mp4	0.0	167.71891522407532	
27	143.81312584877014	movie	1		277	25.0	2.5	/experiments/knapen_AOT/AOT_stimuli/rescaled_final/1951_fw.mp4	0.0	168.14375185966492	2.4920127391815186
27	144.98675632476807	pulse	1	t		25.0	2.5	/experiments/knapen_AOT/AOT_stimuli/rescaled_final/1951_fw.mp4	0.0	169.31738233566284	
27	146.30513858795166	fix_post	2		12	25.0	2.5	/experiments/knapen_AOT/AOT_stimuli/rescaled_final/1951_fw.mp4	0.0	170.63576459884644	0.10003161430358887
28	146.40517020225525	fix_pre	0		120	26.0	2.5	/experiments/knapen_AOT/AOT_stimuli/rescaled_final/0165_fw.mp4	0.0	170.73579621315002	1.0084874629974365
28	146.58871793746948	pulse	0	t		26.0	2.5	/experiments/knapen_AOT/AOT_stimuli/rescaled_final/0165_fw.mp4	0.0	170.91934394836426	
28	147.41365766525269	movie	1		277	26.0	2.5	/experiments/knapen_AOT/AOT_stimuli/rescaled_final/0165_fw.mp4	0.0	171.74428367614746	2.4921092987060547
28	148.1866238117218	pulse	1	t		26.0	2.5	/experiments/knapen_AOT/AOT_stimuli/rescaled_final/0165_fw.mp4	0.0	172.51724982261658	
28	149.7873775959015	pulse	1	t		26.0	2.5	/experiments/knapen_AOT/AOT_stimuli/rescaled_final/0165_fw.mp4	0.0	174.11800360679626	
28	149.90576696395874	fix_post	2		12	26.0	2.5	/experiments/knapen_AOT/AOT_stimuli/rescaled_final/0165_fw.mp4	0.0	174.23639297485352	0.09995841979980469
29	150.00572538375854	fix_pre	0		120	27.0	2.5	/experiments/knapen_AOT/AOT_stimuli/rescaled_final/1845_rv.mp4	0.0	174.33635139465332	1.0086643695831299
29	151.01438975334167	movie	1		268	27.0	2.5	/experiments/knapen_AOT/AOT_stimuli/rescaled_final/1845_rv.mp4	0.0	175.34501576423645	2.4918439388275146
29	151.38785195350647	pulse	1	t		27.0	2.5	/experiments/knapen_AOT/AOT_stimuli/rescaled_final/1845_rv.mp4	0.0	175.71847796440125	
29	152.98816752433777	pulse	1	t		27.0	2.5	/experiments/knapen_AOT/AOT_stimuli/rescaled_final/1845_rv.mp4	0.0	177.31879353523254	
29	153.5062336921692	fix_post	2		12	27.0	2.5	/experiments/knapen_AOT/AOT_stimuli/rescaled_final/1845_rv.mp4	0.0	177.83685970306396	0.1000525951385498
30	153.60628628730774	fix_pre	0		119	28.0	2.5	blank	1.0	177.93691229820251	0.9917595386505127
30	154.58996605873108	pulse	0	t		28.0	2.5	blank	1.0	178.92059206962585	
30	154.59804582595825	movie	1		301	28.0	2.5	blank	1.0	178.92867183685303	2.5087597370147705
30	156.19017386436462	pulse	1	t		28.0	2.5	blank	1.0	180.5207998752594	
30	157.10680556297302	fix_post	2		12	28.0	2.5	blank	1.0	181.4374315738678	0.09998941421508789
31	157.2067949771881	fix_pre	0		120	29.0	2.5	/experiments/knapen_AOT/AOT_stimuli/rescaled_final/1655_fw.mp4	0.0	181.53742098808289	1.0085291862487793
31	157.79044651985168	pulse	0	t		29.0	2.5	/experiments/knapen_AOT/AOT_stimuli/rescaled_final/1655_fw.mp4	0.0	182.12107253074646	
31	158.2153241634369	movie	1		285	29.0	2.5	/experiments/knapen_AOT/AOT_stimuli/rescaled_final/1655_fw.mp4	0.0	182.54595017433167	2.4920270442962646
31	159.3889148235321	pulse	1	t		29.0	2.5	/experiments/knapen_AOT/AOT_stimuli/rescaled_final/1655_fw.mp4	0.0	183.71954083442688	
31	160.70735120773315	fix_post	2		12	29.0	2.5	/experiments/knapen_AOT/AOT_stimuli/rescaled_final/1655_fw.mp4	0.0	185.03797721862793	0.10000276565551758
32	160.80735397338867	fix_pre	0		120	30.0	2.5	/experiments/knapen_AOT/AOT_stimuli/rescaled_final/2145_fw.mp4	0.0	185.13797998428345	1.0084826946258545
32	160.9909782409668	pulse	0	t		30.0	2.5	/experiments/knapen_AOT/AOT_stimuli/rescaled_final/2145_fw.mp4	0.0	185.32160425186157	
32	161.81583666801453	movie	1		277	30.0	2.5	/experiments/knapen_AOT/AOT_stimuli/rescaled_final/2145_fw.mp4	0.0	186.1464626789093	2.4920291900634766
32	162.58891487121582	pulse	1	t		30.0	2.5	/experiments/knapen_AOT/AOT_stimuli/rescaled_final/2145_fw.mp4	0.0	186.9195408821106	
32	164.18950295448303	pulse	1	t		30.0	2.5	/experiments/knapen_AOT/AOT_stimuli/rescaled_final/2145_fw.mp4	0.0	188.5201289653778	
32	164.307865858078	fix_post	2		12	30.0	2.5	/experiments/knapen_AOT/AOT_stimuli/rescaled_final/2145_fw.mp4	0.0	188.63849186897278	0.10002779960632324
33	164.40789365768433	fix_pre	0		120	31.0	2.5	/experiments/knapen_AOT/AOT_stimuli/rescaled_final/1547_rv.mp4	0.0	188.7385196685791	1.008460283279419
33	165.41635394096375	movie	1		285	31.0	2.5	/experiments/knapen_AOT/AOT_stimuli/rescaled_final/1547_rv.mp4	0.0	189.74697995185852	2.492030382156372
33	165.79024291038513	pulse	1	t		31.0	2.5	/experiments/knapen_AOT/AOT_stimuli/rescaled_final/1547_rv.mp4	0.0	190.1208689212799	
33	167.38969230651855	pulse	1	t		31.0	2.5	/experiments/knapen_AOT/AOT_stimuli/rescaled_final/1547_rv.mp4	0.0	191.72031831741333	
33	167.90838432312012	fix_post	2		12	31.0	2.5	/experiments/knapen_AOT/AOT_stimuli/rescaled_final/1547_rv.mp4	0.0	192.2390103340149	0.10001420974731445
34	168.00839853286743	fix_pre	0		119	32.0	2.5	/experiments/knapen_AOT/AOT_stimuli/rescaled_final/2136_rv.mp4	0.0	192.3390245437622	1.000312089920044
34	168.9846715927124	pulse	0	t		32.0	2.5	/experiments/knapen_AOT/AOT_stimuli/rescaled_final/2136_rv.mp4	0.0	193.31529760360718	
34	169.00871062278748	movie	1		296	32.0	2.5	/experiments/knapen_AOT/AOT_stimuli/rescaled_final/2136_rv.mp4	0.0	193.33933663368225	2.500239133834839
34	170.58447432518005	pulse	1	t		32.0	2.5	/experiments/knapen_AOT/AOT_stimuli/rescaled_final/2136_rv.mp4	0.0	194.91510033607483	
34	171.50894975662231	fix_post	2		12	32.0	2.5	/experiments/knapen_AOT/AOT_stimuli/rescaled_final/2136_rv.mp4	0.0	195.8395757675171	0.10002756118774414
35	171.60897731781006	fix_pre	0		120	33.0	2.5	/experiments/knapen_AOT/AOT_stimuli/rescaled_final/0113_fw.mp4	0.0	195.93960332870483	1.0084891319274902
35	172.18455410003662	pulse	0	t		33.0	2.5	/experiments/knapen_AOT/AOT_stimuli/rescaled_final/0113_fw.mp4	0.0	196.5151801109314	
35	172.61746644973755	movie	1		276	33.0	2.5	/experiments/knapen_AOT/AOT_stimuli/rescaled_final/0113_fw.mp4	0.0	196.94809246063232	2.4920132160186768
35	173.78470611572266	pulse	1	t		33.0	2.5	/experiments/knapen_AOT/AOT_stimuli/rescaled_final/0113_fw.mp4	0.0	198.11533212661743	
35	175.10947966575623	fix_post	2		12	33.0	2.5	/experiments/knapen_AOT/AOT_stimuli/rescaled_final/0113_fw.mp4	0.0	199.440105676651	0.10001349449157715
36	175.2094931602478	fix_pre	0		120	34.0	2.5	/experiments/knapen_AOT/AOT_stimuli/rescaled_final/0369_rv.mp4	0.0	199.54011917114258	1.0085582733154297
36	175.3847689628601	pulse	0	t		34.0	2.5	/experiments/knapen_AOT/AOT_stimuli/rescaled_final/0369_rv.mp4	0.0	199.71539497375488	
36	176.21805143356323	movie	1		271	34.0	2.5	/experiments/knapen_AOT/AOT_stimuli/rescaled_final/0369_rv.mp4	0.0	200.548677444458	2.4919724464416504
36	176.9853274822235	pulse	1	t		34.0	2.5	/experiments/knapen_AOT/AOT_stimuli/rescaled_final/0369_rv.mp4	0.0	201.3159534931183	
36	178.58536553382874	pulse	1	t		34.0	2.5	/experiments/knapen_AOT/AOT_stimuli/rescaled_final/0369_rv.mp4	0.0	202.9159915447235	
36	178.71002388000488	fix_post	2		12	34.0	2.5	/experiments/knapen_AOT/AOT_stimuli/rescaled_final/0369_rv.mp4	0.0	203.04064989089966	0.10008120536804199
37	178.81010508537292	fix_pre	0		120	35.0	2.5	blank	1.0	203.1407310962677	1.000218152999878
37	179.8103232383728	movie	1		300	35.0	2.5	blank	1.0	204.14094924926758	2.5002269744873047
37	180.18550062179565	pulse	1	t		35.0	2.5	blank	1.0	204.51612663269043	
37	181.78570699691772	pulse	1	t		35.0	2.5	blank	1.0	206.1163330078125	
37	182.3105502128601	fix_post	2		12	35.0	2.5	blank	1.0	206.64117622375488	0.1000678539276123
38	182.41061806678772	fix_pre	0		118	36.0	2.5	/experiments/knapen_AOT/AOT_stimuli/rescaled_final/0084_rv.mp4	0.0	206.7412440776825	0.9917662143707275
38	183.3859794139862	pulse	0	t		36.0	2.5	/experiments/knapen_AOT/AOT_stimuli/rescaled_final/0084_rv.mp4	0.0	207.71660542488098	
38	183.40238428115845	movie	1		279	36.0	2.5	/experiments/knapen_AOT/AOT_stimuli/rescaled_final/0084_rv.mp4	0.0	207.73301029205322	2.5004329681396484
38	184.98446488380432	pulse	1	t		36.0	2.5	/experiments/knapen_AOT/AOT_stimuli/rescaled_final/0084_rv.mp4	0.0	209.3150908946991	
38	185.9028172492981	fix_post	2		12	36.0	2.5	/experiments/knapen_AOT/AOT_stimuli/rescaled_final/0084_rv.mp4	0.0	210.23344326019287	0.09997725486755371
39	186.00279450416565	fix_pre	0		120	37.0	2.5	/experiments/knapen_AOT/AOT_stimuli/rescaled_final/0369_fw.mp4	0.0	210.33342051506042	1.0085320472717285
39	186.58659625053406	pulse	0	t		37.0	2.5	/experiments/knapen_AOT/AOT_stimuli/rescaled_final/0369_fw.mp4	0.0	210.91722226142883	
39	187.01132655143738	movie	1		278	37.0	2.5	/experiments/knapen_AOT/AOT_stimuli/rescaled_final/0369_fw.mp4	0.0	211.34195256233215	2.4920156002044678
39	188.18457412719727	pulse	1	t		37.0	2.5	/experiments/knapen_AOT/AOT_stimuli/rescaled_final/0369_fw.mp4	0.0	212.51520013809204	
39	189.50334215164185	fix_post	2		12	37.0	2.5	/experiments/knapen_AOT/AOT_stimuli/rescaled_final/0369_fw.mp4	0.0	213.83396816253662	0.10005402565002441
40	189.60339617729187	fix_pre	0		120	38.0	2.5	/experiments/knapen_AOT/AOT_stimuli/rescaled_final/0681_fw.mp4	0.0	213.93402218818665	1.008408546447754
40	189.78690934181213	pulse	0	t		38.0	2.5	/experiments/knapen_AOT/AOT_stimuli/rescaled_final/0681_fw.mp4	0.0	214.1175353527069	
40	190.61180472373962	movie	1		258	38.0	2.5	/experiments/knapen_AOT/AOT_stimuli/rescaled_final/0681_fw.mp4	0.0	214.9424307346344	2.4920623302459717
40	191.3871729373932	pulse	1	t		38.0	2.5	/experiments/knapen_AOT/AOT_stimuli/rescaled_final/0681_fw.mp4	0.0	215.71779894828796	
40	192.98792243003845	pulse	1	t		38.0	2.5	/experiments/knapen_AOT/AOT_stimuli/rescaled_final/0681_fw.mp4	0.0	217.31854844093323	
40	193.1038670539856	fix_post	2		11	38.0	2.5	/experiments/knapen_AOT/AOT_stimuli/rescaled_final/0681_fw.mp4	0.0	217.43449306488037	0.09999537467956543
41	193.20386242866516	fix_pre	0		120	39.0	2.5	/experiments/knapen_AOT/AOT_stimuli/rescaled_final/0111_fw.mp4	0.0	217.53448843955994	1.0084888935089111
41	194.21235132217407	movie	1		271	39.0	2.5	/experiments/knapen_AOT/AOT_stimuli/rescaled_final/0111_fw.mp4	0.0	218.54297733306885	2.4920814037323
41	194.5870008468628	pulse	1	t		39.0	2.5	/experiments/knapen_AOT/AOT_stimuli/rescaled_final/0111_fw.mp4	0.0	218.91762685775757	
41	196.18588972091675	pulse	1	t		39.0	2.5	/experiments/knapen_AOT/AOT_stimuli/rescaled_final/0111_fw.mp4	0.0	220.51651573181152	
41	196.70443272590637	fix_post	2		12	39.0	2.5	/experiments/knapen_AOT/AOT_stimuli/rescaled_final/0111_fw.mp4	0.0	221.03505873680115	0.09993314743041992
42	196.8043658733368	fix_pre	0		119	40.0	2.5	/experiments/knapen_AOT/AOT_stimuli/rescaled_final/0826_rv.mp4	0.0	221.13499188423157	1.008692979812622
42	197.78817653656006	pulse	0	t		40.0	2.5	/experiments/knapen_AOT/AOT_stimuli/rescaled_final/0826_rv.mp4	0.0	222.11880254745483	
42	197.8130588531494	movie	1		274	40.0	2.5	/experiments/knapen_AOT/AOT_stimuli/rescaled_final/0826_rv.mp4	0.0	222.1436848640442	2.4918837547302246
42	199.38668394088745	pulse	1	t		40.0	2.5	/experiments/knapen_AOT/AOT_stimuli/rescaled_final/0826_rv.mp4	0.0	223.71730995178223	
42	200.30494260787964	fix_post	2		12	40.0	2.5	/experiments/knapen_AOT/AOT_stimuli/rescaled_final/0826_rv.mp4	0.0	224.6355686187744	0.10004353523254395
43	200.40498614311218	fix_pre	0		120	41.0	2.5	blank	1.0	224.73561215400696	1.0001020431518555
43	200.98878598213196	pulse	0	t		41.0	2.5	blank	1.0	225.31941199302673	
43	201.40508818626404	movie	1		300	41.0	2.5	blank	1.0	225.7357141971588	2.5004305839538574
43	202.588791847229	pulse	1	t		41.0	2.5	blank	1.0	226.91941785812378	
43	203.9055187702179	fix_post	2		12	41.0	2.5	blank	1.0	228.23614478111267	0.09999942779541016
44	204.0055181980133	fix_pre	0		120	42.0	2.5	/experiments/knapen_AOT/AOT_stimuli/rescaled_final/0865_fw.mp4	0.0	228.33614420890808	1.0084741115570068
44	204.1891462802887	pulse	0	t		42.0	2.5	/experiments/knapen_AOT/AOT_stimuli/rescaled_final/0865_fw.mp4	0.0	228.51977229118347	
44	205.0139923095703	movie	1		275	42.0	2.5	/experiments/knapen_AOT/AOT_stimuli/rescaled_final/0865_fw.mp4	0.0	229.3446183204651	2.500389337539673
44	205.78726530075073	pulse	1	t		42.0	2.5	/experiments/knapen_AOT/AOT_stimuli/rescaled_final/0865_fw.mp4	0.0	230.1178913116455	
44	207.387690782547	pulse	1	t		42.0	2.5	/experiments/knapen_AOT/AOT_stimuli/rescaled_final/0865_fw.mp4	0.0	231.71831679344177	
44	207.51438164710999	fix_post	2		11	42.0	2.5	/experiments/knapen_AOT/AOT_stimuli/rescaled_final/0865_fw.mp4	0.0	231.84500765800476	0.09169197082519531
45	207.60607361793518	fix_pre	0		120	43.0	2.5	/experiments/knapen_AOT/AOT_stimuli/rescaled_final/1642_fw.mp4	0.0	231.93669962882996	1.008526086807251
45	208.61459970474243	movie	1		279	43.0	2.5	/experiments/knapen_AOT/AOT_stimuli/rescaled_final/1642_fw.mp4	0.0	232.9452257156372	2.4919962882995605
45	208.98815989494324	pulse	1	t		43.0	2.5	/experiments/knapen_AOT/AOT_stimuli/rescaled_final/1642_fw.mp4	0.0	233.318785905838	
45	210.58809804916382	pulse	1	t		43.0	2.5	/experiments/knapen_AOT/AOT_stimuli/rescaled_final/1642_fw.mp4	0.0	234.9187240600586	
45	211.106595993042	fix_post	2		12	43.0	2.5	/experiments/knapen_AOT/AOT_stimuli/rescaled_final/1642_fw.mp4	0.0	235.43722200393677	0.10001301765441895
46	211.2066090106964	fix_pre	0		119	44.0	2.5	/experiments/knapen_AOT/AOT_stimuli/rescaled_final/0905_rv.mp4	0.0	235.5372350215912	1.000112533569336
46	212.1903374195099	pulse	0	t		44.0	2.5	/experiments/knapen_AOT/AOT_stimuli/rescaled_final/0905_rv.mp4	0.0	236.52096343040466	
46	212.20672154426575	movie	1		285	44.0	2.5	/experiments/knapen_AOT/AOT_stimuli/rescaled_final/0905_rv.mp4	0.0	236.53734755516052	2.5003585815429688
46	213.7904863357544	pulse	1	t		44.0	2.5	/experiments/knapen_AOT/AOT_stimuli/rescaled_final/0905_rv.mp4	0.0	238.12111234664917	
46	214.70708012580872	fix_post	2		12	44.0	2.5	/experiments/knapen_AOT/AOT_stimuli/rescaled_final/0905_rv.mp4	0.0	239.0377061367035	0.09999704360961914
47	214.80707716941833	fix_pre	0		120	45.0	2.5	/experiments/knapen_AOT/AOT_stimuli/rescaled_final/1381_rv.mp4	0.0	239.1377031803131	1.008554220199585
47	215.39070177078247	pulse	0	t		45.0	2.5	/experiments/knapen_AOT/AOT_stimuli/rescaled_final/1381_rv.mp4	0.0	239.72132778167725	
47	215.81563138961792	movie	1		282	45.0	2.5	/experiments/knapen_AOT/AOT_stimuli/rescaled_final/1381_rv.mp4	0.0	240.1462574005127	2.4920504093170166
47	216.98934769630432	pulse	1	t		45.0	2.5	/experiments/knapen_AOT/AOT_stimuli/rescaled_final/1381_rv.mp4	0.0	241.3199737071991	
47	218.30768179893494	fix_post	2		12	45.0	2.5	/experiments/knapen_AOT/AOT_stimuli/rescaled_final/1381_rv.mp4	0.0	242.6383078098297	0.1000070571899414
48	218.40768885612488	fix_pre	0		120	46.0	2.5	/experiments/knapen_AOT/AOT_stimuli/rescaled_final/2174_rv.mp4	0.0	242.73831486701965	1.008465051651001
48	218.59128999710083	pulse	0	t		46.0	2.5	/experiments/knapen_AOT/AOT_stimuli/rescaled_final/2174_rv.mp4	0.0	242.9219160079956	
48	219.41615390777588	movie	1		261	46.0	2.5	/experiments/knapen_AOT/AOT_stimuli/rescaled_final/2174_rv.mp4	0.0	243.74677991867065	2.492030143737793
48	220.18912434577942	pulse	1	t		46.0	2.5	/experiments/knapen_AOT/AOT_stimuli/rescaled_final/2174_rv.mp4	0.0	244.5197503566742	
48	221.7907304763794	pulse	1	t		46.0	2.5	/experiments/knapen_AOT/AOT_stimuli/rescaled_final/2174_rv.mp4	0.0	246.12135648727417	
48	221.90818405151367	fix_post	2		12	46.0	2.5	/experiments/knapen_AOT/AOT_stimuli/rescaled_final/2174_rv.mp4	0.0	246.23881006240845	0.10001373291015625
49	222.00819778442383	fix_pre	0		120	47.0	2.5	/experiments/knapen_AOT/AOT_stimuli/rescaled_final/1179_rv.mp4	0.0	246.3388237953186	1.0085670948028564
49	223.01676487922668	movie	1		286	47.0	2.5	/experiments/knapen_AOT/AOT_stimuli/rescaled_final/1179_rv.mp4	0.0	247.34739089012146	2.491989850997925
49	223.390310049057	pulse	1	t		47.0	2.5	/experiments/knapen_AOT/AOT_stimuli/rescaled_final/1179_rv.mp4	0.0	247.72093605995178	
49	224.99011778831482	pulse	1	t		47.0	2.5	/experiments/knapen_AOT/AOT_stimuli/rescaled_final/1179_rv.mp4	0.0	249.3207437992096	
49	225.5087547302246	fix_post	2		12	47.0	2.5	/experiments/knapen_AOT/AOT_stimuli/rescaled_final/1179_rv.mp4	0.0	249.83938074111938	0.10000014305114746
50	225.60875487327576	fix_pre	0		119	48.0	2.5	blank	1.0	249.93938088417053	0.9917852878570557
50	226.58473944664001	pulse	0	t		48.0	2.5	blank	1.0	250.9153654575348	
50	226.6005401611328	movie	1		301	48.0	2.5	blank	1.0	250.9311661720276	2.5087220668792725
50	228.18471431732178	pulse	1	t		48.0	2.5	blank	1.0	252.51534032821655	
50	229.10926222801208	fix_post	2		12	48.0	2.5	blank	1.0	253.43988823890686	0.10005903244018555
51	229.20932126045227	fix_pre	0		119	49.0	2.5	/experiments/knapen_AOT/AOT_stimuli/rescaled_final/0172_fw.mp4	0.0	253.53994727134705	1.0084507465362549
51	229.78521132469177	pulse	0	t		49.0	2.5	/experiments/knapen_AOT/AOT_stimuli/rescaled_final/0172_fw.mp4	0.0	254.11583733558655	
51	230.21777200698853	movie	1		280	49.0	2.5	/experiments/knapen_AOT/AOT_stimuli/rescaled_final/0172_fw.mp4	0.0	254.5483980178833	2.4920783042907715
51	231.38482451438904	pulse	1	t		49.0	2.5	/experiments/knapen_AOT/AOT_stimuli/rescaled_final/0172_fw.mp4	0.0	255.7154505252838	
51	232.7098503112793	fix_post	2		12	49.0	2.5	/experiments/knapen_AOT/AOT_stimuli/rescaled_final/0172_fw.mp4	0.0	257.0404763221741	0.10001659393310547
52	232.8098669052124	fix_pre	0		120	50.0	2.5	/experiments/knapen_AOT/AOT_stimuli/rescaled_final/1448_rv.mp4	0.0	257.1404929161072	1.0084619522094727
52	232.98502564430237	pulse	0	t		50.0	2.5	/experiments/knapen_AOT/AOT_stimuli/rescaled_final/1448_rv.mp4	0.0	257.31565165519714	
52	233.81832885742188	movie	1		288	50.0	2.5	/experiments/knapen_AOT/AOT_stimuli/rescaled_final/1448_rv.mp4	0.0	258.14895486831665	2.4920899868011475
52	234.58525276184082	pulse	1	t		50.0	2.5	/experiments/knapen_AOT/AOT_stimuli/rescaled_final/1448_rv.mp4	0.0	258.9158787727356	
52	236.18559575080872	pulse	1	t		50.0	2.5	/experiments/knapen_AOT/AOT_stimuli/rescaled_final/1448_rv.mp4	0.0	260.5162217617035	
52	236.31041884422302	fix_post	2		12	50.0	2.5	/experiments/knapen_AOT/AOT_stimuli/rescaled_final/1448_rv.mp4	0.0	260.6410448551178	0.09993696212768555
53	236.4103558063507	fix_pre	0		120	51.0	2.5	/experiments/knapen_AOT/AOT_stimuli/rescaled_final/1043_fw.mp4	0.0	260.7409818172455	1.0085561275482178
53	237.41891193389893	movie	1		260	51.0	2.5	/experiments/knapen_AOT/AOT_stimuli/rescaled_final/1043_fw.mp4	0.0	261.7495379447937	2.4920525550842285
53	237.78587222099304	pulse	1	t		51.0	2.5	/experiments/knapen_AOT/AOT_stimuli/rescaled_final/1043_fw.mp4	0.0	262.1164982318878	
53	239.3859486579895	pulse	1	t		51.0	2.5	/experiments/knapen_AOT/AOT_stimuli/rescaled_final/1043_fw.mp4	0.0	263.7165746688843	
53	239.91096448898315	fix_post	2		12	51.0	2.5	/experiments/knapen_AOT/AOT_stimuli/rescaled_final/1043_fw.mp4	0.0	264.24159049987793	0.09997105598449707
54	240.01093554496765	fix_pre	0		118	52.0	2.5	/experiments/knapen_AOT/AOT_stimuli/rescaled_final/1171_fw.mp4	0.0	264.3415615558624	0.9917895793914795
54	240.98620176315308	pulse	0	t		52.0	2.5	/experiments/knapen_AOT/AOT_stimuli/rescaled_final/1171_fw.mp4	0.0	265.31682777404785	
54	241.00272512435913	movie	1		284	52.0	2.5	/experiments/knapen_AOT/AOT_stimuli/rescaled_final/1171_fw.mp4	0.0	265.3333511352539	2.5003671646118164
54	242.58540892601013	pulse	1	t		52.0	2.5	/experiments/knapen_AOT/AOT_stimuli/rescaled_final/1171_fw.mp4	0.0	266.9160349369049	
54	243.50309228897095	fix_post	2		12	52.0	2.5	/experiments/knapen_AOT/AOT_stimuli/rescaled_final/1171_fw.mp4	0.0	267.8337182998657	0.10005497932434082
55	243.6031472682953	fix_pre	0		120	53.0	2.5	/experiments/knapen_AOT/AOT_stimuli/rescaled_final/1171_rv.mp4	0.0	267.93377327919006	1.0084238052368164
55	244.18665099143982	pulse	0	t		53.0	2.5	/experiments/knapen_AOT/AOT_stimuli/rescaled_final/1171_rv.mp4	0.0	268.5172770023346	
55	244.6115710735321	movie	1		283	53.0	2.5	/experiments/knapen_AOT/AOT_stimuli/rescaled_final/1171_rv.mp4	0.0	268.9421970844269	2.492053270339966
55	245.78711128234863	pulse	1	t		53.0	2.5	/experiments/knapen_AOT/AOT_stimuli/rescaled_final/1171_rv.mp4	0.0	270.1177372932434	
55	247.10362434387207	fix_post	2		12	53.0	2.5	/experiments/knapen_AOT/AOT_stimuli/rescaled_final/1171_rv.mp4	0.0	271.43425035476685	0.10013556480407715
56	247.20375990867615	fix_pre	0		120	54.0	2.5	/experiments/knapen_AOT/AOT_stimuli/rescaled_final/0352_fw.mp4	0.0	271.5343859195709	1.008413314819336
56	247.38724160194397	pulse	0	t		54.0	2.5	/experiments/knapen_AOT/AOT_stimuli/rescaled_final/0352_fw.mp4	0.0	271.71786761283875	
56	248.21217322349548	movie	1		272	54.0	2.5	/experiments/knapen_AOT/AOT_stimuli/rescaled_final/0352_fw.mp4	0.0	272.54279923439026	2.4920156002044678
56	248.9865698814392	pulse	1	t		54.0	2.5	/experiments/knapen_AOT/AOT_stimuli/rescaled_final/0352_fw.mp4	0.0	273.317195892334	
56	250.58600640296936	pulse	1	t		54.0	2.5	/experiments/knapen_AOT/AOT_stimuli/rescaled_final/0352_fw.mp4	0.0	274.91663241386414	
56	250.70418882369995	fix_post	2		12	54.0	2.5	/experiments/knapen_AOT/AOT_stimuli/rescaled_final/0352_fw.mp4	0.0	275.0348148345947	0.10007309913635254
57	250.8042619228363	fix_pre	0		120	55.0	2.5	blank	1.0	275.1348879337311	1.00007963180542
57	251.80434155464172	movie	1		300	55.0	2.5	blank	1.0	276.1349675655365	2.50040602684021
57	252.18815732002258	pulse	1	t		55.0	2.5	blank	1.0	276.51878333091736	
57	253.7881269454956	pulse	1	t		55.0	2.5	blank	1.0	278.1187529563904	
57	254.30474758148193	fix_post	2		12	55.0	2.5	blank	1.0	278.6353735923767	0.09999418258666992
58	254.4047417640686	fix_pre	0		119	56.0	2.5	/experiments/knapen_AOT/AOT_stimuli/rescaled_final/1549_fw.mp4	0.0	278.7353677749634	1.0002772808074951
58	255.38837790489197	pulse	0	t		56.0	2.5	/experiments/knapen_AOT/AOT_stimuli/rescaled_final/1549_fw.mp4	0.0	279.71900391578674	
58	255.4050190448761	movie	1		286	56.0	2.5	/experiments/knapen_AOT/AOT_stimuli/rescaled_final/1549_fw.mp4	0.0	279.7356450557709	2.5002477169036865
58	256.987065076828	pulse	1	t		56.0	2.5	/experiments/knapen_AOT/AOT_stimuli/rescaled_final/1549_fw.mp4	0.0	281.3176910877228	
58	257.9052667617798	fix_post	2		12	56.0	2.5	/experiments/knapen_AOT/AOT_stimuli/rescaled_final/1549_fw.mp4	0.0	282.23589277267456	0.10005807876586914
59	258.00532484054565	fix_pre	0		120	57.0	2.5	/experiments/knapen_AOT/AOT_stimuli/rescaled_final/1152_rv.mp4	0.0	282.33595085144043	1.0084624290466309
59	258.5888285636902	pulse	0	t		57.0	2.5	/experiments/knapen_AOT/AOT_stimuli/rescaled_final/1152_rv.mp4	0.0	282.91945457458496	
59	259.0137872695923	movie	1		282	57.0	2.5	/experiments/knapen_AOT/AOT_stimuli/rescaled_final/1152_rv.mp4	0.0	283.34441328048706	2.4920148849487305
59	260.1871819496155	pulse	1	t		57.0	2.5	/experiments/knapen_AOT/AOT_stimuli/rescaled_final/1152_rv.mp4	0.0	284.51780796051025	
59	261.505802154541	fix_post	2		12	57.0	2.5	/experiments/knapen_AOT/AOT_stimuli/rescaled_final/1152_rv.mp4	0.0	285.8364281654358	0.10000944137573242
60	261.60581159591675	fix_pre	0		120	58.0	2.5	/experiments/knapen_AOT/AOT_stimuli/rescaled_final/0834_fw.mp4	0.0	285.9364376068115	1.0084927082061768
60	261.7893662452698	pulse	0	t		58.0	2.5	/experiments/knapen_AOT/AOT_stimuli/rescaled_final/0834_fw.mp4	0.0	286.11999225616455	
60	262.6143043041229	movie	1		276	58.0	2.5	/experiments/knapen_AOT/AOT_stimuli/rescaled_final/0834_fw.mp4	0.0	286.9449303150177	2.4920313358306885
60	263.3874125480652	pulse	1	t		58.0	2.5	/experiments/knapen_AOT/AOT_stimuli/rescaled_final/0834_fw.mp4	0.0	287.71803855895996	
60	264.9878125190735	pulse	1	t		58.0	2.5	/experiments/knapen_AOT/AOT_stimuli/rescaled_final/0834_fw.mp4	0.0	289.31843852996826	
60	265.1063356399536	fix_post	2		12	58.0	2.5	/experiments/knapen_AOT/AOT_stimuli/rescaled_final/0834_fw.mp4	0.0	289.4369616508484	0.10002827644348145
61	265.2063639163971	fix_pre	0		120	59.0	2.5	/experiments/knapen_AOT/AOT_stimuli/rescaled_final/0641_fw.mp4	0.0	289.53698992729187	1.0084850788116455
61	266.21484899520874	movie	1		280	59.0	2.5	/experiments/knapen_AOT/AOT_stimuli/rescaled_final/0641_fw.mp4	0.0	290.5454750061035	2.4920666217803955
61	266.5895793437958	pulse	1	t		59.0	2.5	/experiments/knapen_AOT/AOT_stimuli/rescaled_final/0641_fw.mp4	0.0	290.92020535469055	
61	268.18805980682373	pulse	1	t		59.0	2.5	/experiments/knapen_AOT/AOT_stimuli/rescaled_final/0641_fw.mp4	0.0	292.5186858177185	
61	268.70691561698914	fix_post	2		12	59.0	2.5	/experiments/knapen_AOT/AOT_stimuli/rescaled_final/0641_fw.mp4	0.0	293.0375416278839	0.1000056266784668
62	268.8069212436676	fix_pre	0		119	60.0	2.5	/experiments/knapen_AOT/AOT_stimuli/rescaled_final/1179_fw.mp4	0.0	293.1375472545624	1.0002763271331787
62	269.7905879020691	pulse	0	t		60.0	2.5	/experiments/knapen_AOT/AOT_stimuli/rescaled_final/1179_fw.mp4	0.0	294.12121391296387	
62	269.8071975708008	movie	1		273	60.0	2.5	/experiments/knapen_AOT/AOT_stimuli/rescaled_final/1179_fw.mp4	0.0	294.13782358169556	2.500241756439209
62	271.3891649246216	pulse	1	t		60.0	2.5	/experiments/knapen_AOT/AOT_stimuli/rescaled_final/1179_fw.mp4	0.0	295.71979093551636	
62	272.30743932724	fix_post	2		12	60.0	2.5	/experiments/knapen_AOT/AOT_stimuli/rescaled_final/1179_fw.mp4	0.0	296.63806533813477	0.1000068187713623
63	272.40744614601135	fix_pre	0		120	61.0	2.5	/experiments/knapen_AOT/AOT_stimuli/rescaled_final/0844_rv.mp4	0.0	296.7380721569061	1.0085151195526123
63	272.9910249710083	pulse	0	t		61.0	2.5	/experiments/knapen_AOT/AOT_stimuli/rescaled_final/0844_rv.mp4	0.0	297.3216509819031	
63	273.41596126556396	movie	1		264	61.0	2.5	/experiments/knapen_AOT/AOT_stimuli/rescaled_final/0844_rv.mp4	0.0	297.74658727645874	2.492180585861206
63	274.5892415046692	pulse	1	t		61.0	2.5	/experiments/knapen_AOT/AOT_stimuli/rescaled_final/0844_rv.mp4	0.0	298.91986751556396	
63	275.90814185142517	fix_post	2		12	61.0	2.5	/experiments/knapen_AOT/AOT_stimuli/rescaled_final/0844_rv.mp4	0.0	300.23876786231995	0.09989070892333984
64	276.0080325603485	fix_pre	0		120	62.0	2.5	blank	1.0	300.3386585712433	1.0001194477081299
64	276.19150471687317	pulse	0	t		62.0	2.5	blank	1.0	300.52213072776794	
64	277.00815200805664	movie	1		300	62.0	2.5	blank	1.0	301.3387780189514	2.500359296798706
64	277.78396916389465	pulse	1	t		62.0	2.5	blank	1.0	302.11459517478943	
64	279.38401985168457	pulse	1	t		62.0	2.5	blank	1.0	303.71464586257935	
64	279.50851130485535	fix_post	2		12	62.0	2.5	blank	1.0	303.8391373157501	0.10002636909484863
65	279.6085376739502	fix_pre	0		120	63.0	2.5	/experiments/knapen_AOT/AOT_stimuli/rescaled_final/0734_rv.mp4	0.0	303.93916368484497	1.0084936618804932
65	280.6170313358307	movie	1		274	63.0	2.5	/experiments/knapen_AOT/AOT_stimuli/rescaled_final/0734_rv.mp4	0.0	304.94765734672546	2.4921188354492188
65	280.9842758178711	pulse	1	t		63.0	2.5	/experiments/knapen_AOT/AOT_stimuli/rescaled_final/0734_rv.mp4	0.0	305.31490182876587	
65	282.5841829776764	pulse	1	t		63.0	2.5	/experiments/knapen_AOT/AOT_stimuli/rescaled_final/0734_rv.mp4	0.0	306.91480898857117	
65	283.1091501712799	fix_post	2		12	63.0	2.5	/experiments/knapen_AOT/AOT_stimuli/rescaled_final/0734_rv.mp4	0.0	307.4397761821747	0.09995722770690918
66	283.2091073989868	fix_pre	0		118	64.0	2.5	/experiments/knapen_AOT/AOT_stimuli/rescaled_final/1382_fw.mp4	0.0	307.5397334098816	0.9918642044067383
66	284.18445467948914	pulse	0	t		64.0	2.5	/experiments/knapen_AOT/AOT_stimuli/rescaled_final/1382_fw.mp4	0.0	308.5150806903839	
66	284.20097160339355	movie	1		290	64.0	2.5	/experiments/knapen_AOT/AOT_stimuli/rescaled_final/1382_fw.mp4	0.0	308.53159761428833	2.500293254852295
66	285.7847809791565	pulse	1	t		64.0	2.5	/experiments/knapen_AOT/AOT_stimuli/rescaled_final/1382_fw.mp4	0.0	310.11540699005127	
66	286.70126485824585	fix_post	2		12	64.0	2.5	/experiments/knapen_AOT/AOT_stimuli/rescaled_final/1382_fw.mp4	0.0	311.0318908691406	0.10001373291015625
67	286.801278591156	fix_pre	0		120	65.0	2.5	/experiments/knapen_AOT/AOT_stimuli/rescaled_final/1026_rv.mp4	0.0	311.1319046020508	1.0085549354553223
67	287.3848729133606	pulse	0	t		65.0	2.5	/experiments/knapen_AOT/AOT_stimuli/rescaled_final/1026_rv.mp4	0.0	311.71549892425537	
67	287.8098335266113	movie	1		273	65.0	2.5	/experiments/knapen_AOT/AOT_stimuli/rescaled_final/1026_rv.mp4	0.0	312.1404595375061	2.491966962814331
67	288.98513746261597	pulse	1	t		65.0	2.5	/experiments/knapen_AOT/AOT_stimuli/rescaled_final/1026_rv.mp4	0.0	313.31576347351074	
67	290.30180048942566	fix_post	2		12	65.0	2.5	/experiments/knapen_AOT/AOT_stimuli/rescaled_final/1026_rv.mp4	0.0	314.63242650032043	0.10002374649047852
68	290.40182423591614	fix_pre	0		120	66.0	2.5	/experiments/knapen_AOT/AOT_stimuli/rescaled_final/1937_rv.mp4	0.0	314.7324502468109	1.0085134506225586
68	290.5854341983795	pulse	0	t		66.0	2.5	/experiments/knapen_AOT/AOT_stimuli/rescaled_final/1937_rv.mp4	0.0	314.9160602092743	
68	291.4103376865387	movie	1		287	66.0	2.5	/experiments/knapen_AOT/AOT_stimuli/rescaled_final/1937_rv.mp4	0.0	315.7409636974335	2.492025375366211
68	292.18559527397156	pulse	1	t		66.0	2.5	/experiments/knapen_AOT/AOT_stimuli/rescaled_final/1937_rv.mp4	0.0	316.51622128486633	
68	293.7859890460968	pulse	1	t		66.0	2.5	/experiments/knapen_AOT/AOT_stimuli/rescaled_final/1937_rv.mp4	0.0	318.1166150569916	
68	293.9023630619049	fix_post	2		12	66.0	2.5	/experiments/knapen_AOT/AOT_stimuli/rescaled_final/1937_rv.mp4	0.0	318.2329890727997	0.10000395774841309
69	294.0023670196533	fix_pre	0		120	67.0	2.5	/experiments/knapen_AOT/AOT_stimuli/rescaled_final/0854_rv.mp4	0.0	318.3329930305481	1.0084724426269531
69	295.0108394622803	movie	1		275	67.0	2.5	/experiments/knapen_AOT/AOT_stimuli/rescaled_final/0854_rv.mp4	0.0	319.34146547317505	2.4920654296875
69	295.3854281902313	pulse	1	t		67.0	2.5	/experiments/knapen_AOT/AOT_stimuli/rescaled_final/0854_rv.mp4	0.0	319.7160542011261	
69	296.98626923561096	pulse	1	t		67.0	2.5	/experiments/knapen_AOT/AOT_stimuli/rescaled_final/0854_rv.mp4	0.0	321.31689524650574	
69	297.5029048919678	fix_post	2		12	67.0	2.5	/experiments/knapen_AOT/AOT_stimuli/rescaled_final/0854_rv.mp4	0.0	321.83353090286255	0.10000491142272949
70	297.6029098033905	fix_pre	0		119	68.0	2.5	/experiments/knapen_AOT/AOT_stimuli/rescaled_final/0953_rv.mp4	0.0	321.9335358142853	1.0001730918884277
70	298.586553812027	pulse	0	t		68.0	2.5	/experiments/knapen_AOT/AOT_stimuli/rescaled_final/0953_rv.mp4	0.0	322.91717982292175	
70	298.60308289527893	movie	1		273	68.0	2.5	/experiments/knapen_AOT/AOT_stimuli/rescaled_final/0953_rv.mp4	0.0	322.9337089061737	2.5004000663757324
70	300.1864411830902	pulse	1	t		68.0	2.5	/experiments/knapen_AOT/AOT_stimuli/rescaled_final/0953_rv.mp4	0.0	324.517067193985	
70	301.10348296165466	fix_post	2		12	68.0	2.5	/experiments/knapen_AOT/AOT_stimuli/rescaled_final/0953_rv.mp4	0.0	325.43410897254944	0.09998178482055664
71	301.2034647464752	fix_pre	0		120	69.0	2.5	blank	1.0	325.53409075737	1.000114917755127
71	301.7869920730591	pulse	0	t		69.0	2.5	blank	1.0	326.11761808395386	
71	302.20357966423035	movie	1		300	69.0	2.5	blank	1.0	326.5342056751251	2.5004022121429443
71	303.38750195503235	pulse	1	t		69.0	2.5	blank	1.0	327.7181279659271	
71	304.7039818763733	fix_post	2		12	69.0	2.5	blank	1.0	329.03460788726807	0.10021138191223145
72	304.8041932582855	fix_pre	0		120	70.0	2.5	/experiments/knapen_AOT/AOT_stimuli/rescaled_final/1035_fw.mp4	0.0	329.1348192691803	1.0082929134368896
72	304.98754835128784	pulse	0	t		70.0	2.5	/experiments/knapen_AOT/AOT_stimuli/rescaled_final/1035_fw.mp4	0.0	329.3181743621826	
72	305.8124861717224	movie	1		281	70.0	2.5	/experiments/knapen_AOT/AOT_stimuli/rescaled_final/1035_fw.mp4	0.0	330.1431121826172	2.492035150527954
72	306.5873439311981	pulse	1	t		70.0	2.5	/experiments/knapen_AOT/AOT_stimuli/rescaled_final/1035_fw.mp4	0.0	330.9179699420929	
72	308.1860845088959	pulse	1	t		70.0	2.5	/experiments/knapen_AOT/AOT_stimuli/rescaled_final/1035_fw.mp4	0.0	332.51671051979065	
72	308.30452132225037	fix_post	2		12	70.0	2.5	/experiments/knapen_AOT/AOT_stimuli/rescaled_final/1035_fw.mp4	0.0	332.63514733314514	0.1000208854675293
73	308.4045422077179	fix_pre	0		120	71.0	2.5	/experiments/knapen_AOT/AOT_stimuli/rescaled_final/0525_rv.mp4	0.0	332.73516821861267	1.0084962844848633
73	309.41303849220276	movie	1		279	71.0	2.5	/experiments/knapen_AOT/AOT_stimuli/rescaled_final/0525_rv.mp4	0.0	333.74366450309753	2.4921412467956543
73	309.786413192749	pulse	1	t		71.0	2.5	/experiments/knapen_AOT/AOT_stimuli/rescaled_final/0525_rv.mp4	0.0	334.1170392036438	
73	311.38634276390076	pulse	1	t		71.0	2.5	/experiments/knapen_AOT/AOT_stimuli/rescaled_final/0525_rv.mp4	0.0	335.71696877479553	
73	311.9051797389984	fix_post	2		12	71.0	2.5	/experiments/knapen_AOT/AOT_stimuli/rescaled_final/0525_rv.mp4	0.0	336.2358057498932	0.0998990535736084
74	312.005078792572	fix_pre	0		119	72.0	2.5	/experiments/knapen_AOT/AOT_stimuli/rescaled_final/1661_rv.mp4	0.0	336.3357048034668	1.0085475444793701
74	312.98890137672424	pulse	0	t		72.0	2.5	/experiments/knapen_AOT/AOT_stimuli/rescaled_final/1661_rv.mp4	0.0	337.319527387619	
74	313.0136263370514	movie	1		280	72.0	2.5	/experiments/knapen_AOT/AOT_stimuli/rescaled_final/1661_rv.mp4	0.0	337.34425234794617	2.4919872283935547
74	314.5874001979828	pulse	1	t		72.0	2.5	/experiments/knapen_AOT/AOT_stimuli/rescaled_final/1661_rv.mp4	0.0	338.91802620887756	
74	315.50561356544495	fix_post	2		12	72.0	2.5	/experiments/knapen_AOT/AOT_stimuli/rescaled_final/1661_rv.mp4	0.0	339.8362395763397	0.09998798370361328
75	315.60560154914856	fix_pre	0		120	73.0	2.5	/experiments/knapen_AOT/AOT_stimuli/rescaled_final/1152_rv.mp4	0.0	339.93622756004333	1.0085313320159912
75	316.18924617767334	pulse	0	t		73.0	2.5	/experiments/knapen_AOT/AOT_stimuli/rescaled_final/1152_rv.mp4	0.0	340.5198721885681	
75	316.61413288116455	movie	1		277	73.0	2.5	/experiments/knapen_AOT/AOT_stimuli/rescaled_final/1152_rv.mp4	0.0	340.9447588920593	2.492013454437256
75	317.7892270088196	pulse	1	t		73.0	2.5	/experiments/knapen_AOT/AOT_stimuli/rescaled_final/1152_rv.mp4	0.0	342.11985301971436	
75	319.1061463356018	fix_post	2		12	73.0	2.5	/experiments/knapen_AOT/AOT_stimuli/rescaled_final/1152_rv.mp4	0.0	343.4367723464966	0.10001087188720703
76	319.206157207489	fix_pre	0		120	74.0	2.5	/experiments/knapen_AOT/AOT_stimuli/rescaled_final/0322_rv.mp4	0.0	343.5367832183838	1.0085170269012451
76	319.38973236083984	pulse	0	t		74.0	2.5	/experiments/knapen_AOT/AOT_stimuli/rescaled_final/0322_rv.mp4	0.0	343.7203583717346	
76	320.21467423439026	movie	1		269	74.0	2.5	/experiments/knapen_AOT/AOT_stimuli/rescaled_final/0322_rv.mp4	0.0	344.54530024528503	2.4920151233673096
76	320.9878194332123	pulse	1	t		74.0	2.5	/experiments/knapen_AOT/AOT_stimuli/rescaled_final/0322_rv.mp4	0.0	345.31844544410706	
76	322.5884783267975	pulse	1	t		74.0	2.5	/experiments/knapen_AOT/AOT_stimuli/rescaled_final/0322_rv.mp4	0.0	346.91910433769226	
76	322.70668935775757	fix_post	2		12	74.0	2.5	/experiments/knapen_AOT/AOT_stimuli/rescaled_final/0322_rv.mp4	0.0	347.03731536865234	0.10001349449157715
77	322.80670285224915	fix_pre	0		120	75.0	2.5	/experiments/knapen_AOT/AOT_stimuli/rescaled_final/0616_rv.mp4	0.0	347.1373288631439	1.0085163116455078
77	323.81521916389465	movie	1		285	75.0	2.5	/experiments/knapen_AOT/AOT_stimuli/rescaled_final/0616_rv.mp4	0.0	348.14584517478943	2.4920401573181152
77	324.1889853477478	pulse	1	t		75.0	2.5	/experiments/knapen_AOT/AOT_stimuli/rescaled_final/0616_rv.mp4	0.0	348.5196113586426	
77	325.78862857818604	pulse	1	t		75.0	2.5	/experiments/knapen_AOT/AOT_stimuli/rescaled_final/0616_rv.mp4	0.0	350.1192545890808	
77	326.30725932121277	fix_post	2		12	75.0	2.5	/experiments/knapen_AOT/AOT_stimuli/rescaled_final/0616_rv.mp4	0.0	350.63788533210754	0.0999915599822998
78	326.40725088119507	fix_pre	0		119	76.0	2.5	/experiments/knapen_AOT/AOT_stimuli/rescaled_final/1399_fw.mp4	0.0	350.73787689208984	1.0086033344268799
78	327.3909983634949	pulse	0	t		76.0	2.5	/experiments/knapen_AOT/AOT_stimuli/rescaled_final/1399_fw.mp4	0.0	351.72162437438965	
78	327.41585421562195	movie	1		275	76.0	2.5	/experiments/knapen_AOT/AOT_stimuli/rescaled_final/1399_fw.mp4	0.0	351.7464802265167	2.491960287094116
78	328.9926483631134	pulse	1	t		76.0	2.5	/experiments/knapen_AOT/AOT_stimuli/rescaled_final/1399_fw.mp4	0.0	353.3232743740082	
78	329.90781450271606	fix_post	2		12	76.0	2.5	/experiments/knapen_AOT/AOT_stimuli/rescaled_final/1399_fw.mp4	0.0	354.23844051361084	0.09998798370361328
79	330.0078024864197	fix_pre	0		120	77.0	2.5	blank	1.0	354.33842849731445	1.0001633167266846
79	330.59147810935974	pulse	0	t		77.0	2.5	blank	1.0	354.9221041202545	
79	331.00796580314636	movie	1		300	77.0	2.5	blank	1.0	355.33859181404114	2.5003645420074463
79	332.1919102668762	pulse	1	t		77.0	2.5	blank	1.0	356.522536277771	
79	333.5083303451538	fix_post	2		12	77.0	2.5	blank	1.0	357.8389563560486	0.10003161430358887
80	333.6083619594574	fix_pre	0		120	78.0	2.5	/experiments/knapen_AOT/AOT_stimuli/rescaled_final/0698_fw.mp4	0.0	357.9389879703522	1.008491039276123
80	333.78511786460876	pulse	0	t		78.0	2.5	/experiments/knapen_AOT/AOT_stimuli/rescaled_final/0698_fw.mp4	0.0	358.11574387550354	
80	334.6168529987335	movie	1		278	78.0	2.5	/experiments/knapen_AOT/AOT_stimuli/rescaled_final/0698_fw.mp4	0.0	358.9474790096283	2.492011308670044
80	335.3904404640198	pulse	1	t		78.0	2.5	/experiments/knapen_AOT/AOT_stimuli/rescaled_final/0698_fw.mp4	0.0	359.72106647491455	
80	336.9905517101288	pulse	1	t		78.0	2.5	/experiments/knapen_AOT/AOT_stimuli/rescaled_final/0698_fw.mp4	0.0	361.32117772102356	
80	337.10886430740356	fix_post	2		12	78.0	2.5	/experiments/knapen_AOT/AOT_stimuli/rescaled_final/0698_fw.mp4	0.0	361.43949031829834	0.10003495216369629
81	337.20889925956726	fix_pre	0		120	79.0	2.5	/experiments/knapen_AOT/AOT_stimuli/rescaled_final/0034_fw.mp4	0.0	361.53952527046204	1.0084333419799805
81	338.21733260154724	movie	1		271	79.0	2.5	/experiments/knapen_AOT/AOT_stimuli/rescaled_final/0034_fw.mp4	0.0	362.547958612442	2.4920811653137207
81	338.5844638347626	pulse	1	t		79.0	2.5	/experiments/knapen_AOT/AOT_stimuli/rescaled_final/0034_fw.mp4	0.0	362.91508984565735	
81	340.1844766139984	pulse	1	t		79.0	2.5	/experiments/knapen_AOT/AOT_stimuli/rescaled_final/0034_fw.mp4	0.0	364.5151026248932	
81	340.70941376686096	fix_post	2		12	79.0	2.5	/experiments/knapen_AOT/AOT_stimuli/rescaled_final/0034_fw.mp4	0.0	365.04003977775574	0.10001134872436523
82	340.8094251155853	fix_pre	0		118	80.0	2.5	/experiments/knapen_AOT/AOT_stimuli/rescaled_final/1664_rv.mp4	0.0	365.1400511264801	0.991851806640625
82	341.7848515510559	pulse	0	t		80.0	2.5	/experiments/knapen_AOT/AOT_stimuli/rescaled_final/1664_rv.mp4	0.0	366.1154775619507	
82	341.80127692222595	movie	1		283	80.0	2.5	/experiments/knapen_AOT/AOT_stimuli/rescaled_final/1664_rv.mp4	0.0	366.1319029331207	2.5003392696380615
82	343.3847277164459	pulse	1	t		80.0	2.5	/experiments/knapen_AOT/AOT_stimuli/rescaled_final/1664_rv.mp4	0.0	367.7153537273407	
82	344.301616191864	fix_post	2		12	80.0	2.5	/experiments/knapen_AOT/AOT_stimuli/rescaled_final/1664_rv.mp4	0.0	368.6322422027588	0.10001134872436523
83	344.4016275405884	fix_pre	0		120	81.0	2.5	/experiments/knapen_AOT/AOT_stimuli/rescaled_final/2033_rv.mp4	0.0	368.73225355148315	1.0084969997406006
83	344.98533844947815	pulse	0	t		81.0	2.5	/experiments/knapen_AOT/AOT_stimuli/rescaled_final/2033_rv.mp4	0.0	369.3159644603729	
83	345.410124540329	movie	1		258	81.0	2.5	/experiments/knapen_AOT/AOT_stimuli/rescaled_final/2033_rv.mp4	0.0	369.74075055122375	2.4920811653137207
83	346.58549189567566	pulse	1	t		81.0	2.5	/experiments/knapen_AOT/AOT_stimuli/rescaled_final/2033_rv.mp4	0.0	370.91611790657043	
83	347.9022057056427	fix_post	2		12	81.0	2.5	/experiments/knapen_AOT/AOT_stimuli/rescaled_final/2033_rv.mp4	0.0	372.2328317165375	0.09997320175170898
84	348.0021789073944	fix_pre	0		120	82.0	2.5	/experiments/knapen_AOT/AOT_stimuli/rescaled_final/0692_rv.mp4	0.0	372.3328049182892	1.0084950923919678
84	348.1857023239136	pulse	0	t		82.0	2.5	/experiments/knapen_AOT/AOT_stimuli/rescaled_final/0692_rv.mp4	0.0	372.51632833480835	
84	349.0106739997864	movie	1		272	82.0	2.5	/experiments/knapen_AOT/AOT_stimuli/rescaled_final/0692_rv.mp4	0.0	373.34130001068115	2.492020845413208
84	349.78597140312195	pulse	1	t		82.0	2.5	/experiments/knapen_AOT/AOT_stimuli/rescaled_final/0692_rv.mp4	0.0	374.1165974140167	
84	351.38639402389526	pulse	1	t		82.0	2.5	/experiments/knapen_AOT/AOT_stimuli/rescaled_final/0692_rv.mp4	0.0	375.71702003479004	
84	351.5026948451996	fix_post	2		12	82.0	2.5	/experiments/knapen_AOT/AOT_stimuli/rescaled_final/0692_rv.mp4	0.0	375.83332085609436	0.10000872611999512
85	351.6027035713196	fix_pre	0		120	83.0	2.5	blank	1.0	375.93332958221436	1.0001575946807861
85	352.60286116600037	movie	1		300	83.0	2.5	blank	1.0	376.93348717689514	2.500373363494873
85	352.9864830970764	pulse	1	t		83.0	2.5	blank	1.0	377.3171091079712	
85	354.58668851852417	pulse	1	t		83.0	2.5	blank	1.0	378.91731452941895	
85	355.10323452949524	fix_post	2		12	83.0	2.5	blank	1.0	379.43386054039	0.10001683235168457
87	355.2032513618469	stim	0		1715					379.5338773727417	14.293822288513184
87	356.1869080066681	pulse	0	t						380.51753401756287	
87	357.78759360313416	pulse	0	t						382.11821961402893	
87	359.38761830329895	pulse	0	t						383.7182443141937	
87	360.98795557022095	pulse	0	t						385.3185815811157	
87	362.5880653858185	pulse	0	t						386.91869139671326	
87	364.188369512558	pulse	0	t						388.51899552345276	
87	365.7884736061096	pulse	0	t						390.1190996170044	
87	367.3890335559845	pulse	0	t						391.7196595668793	
87	368.98900032043457	pulse	0	t						393.31962633132935	
