trial_nr	onset	event_type	phase	response	nr_frames	movie_index	movie_duration	movie_file	blank	onset_abs	duration
0	0.13318800926208496	stim	0		147					43.90990114212036	1.2258961200714111
0	1.3510382175445557	response	0	space						45.12775135040283	
1	1.359084129333496	stim	0		4702					45.13579726219177	39.182246923446655
1	40.536747217178345	pulse	0	t						84.31346035003662	
1	40.54133105278015	stim	1		1717					84.31804418563843	14.308314085006714
1	42.13322710990906	pulse	1	t						85.90994024276733	
1	43.73323702812195	pulse	1	t						87.50995016098022	
1	45.33318305015564	pulse	1	t						89.10989618301392	
1	46.93318200111389	pulse	1	t						90.70989513397217	
1	48.533226013183594	pulse	1	t						92.30993914604187	
1	50.13312101364136	pulse	1	t						93.90983414649963	
1	51.73322010040283	pulse	1	t						95.50993323326111	
1	53.3331401348114	pulse	1	t						97.10985326766968	
2	54.849645137786865	fix_pre	0		11	0.0	2.5	/experiments/AOT/AOT_stimuli/rescaled_final/0188_rv.mp4	0.0	98.62635827064514	0.09208297729492188
2	54.93272399902344	pulse	0	t		0.0	2.5	/experiments/AOT/AOT_stimuli/rescaled_final/0188_rv.mp4	0.0	98.70943713188171	
2	54.94172811508179	movie	1		242	0.0	2.5	/experiments/AOT/AOT_stimuli/rescaled_final/0188_rv.mp4	0.0	98.71844124794006	2.507519006729126
2	56.53261709213257	pulse	1	t		0.0	2.5	/experiments/AOT/AOT_stimuli/rescaled_final/0188_rv.mp4	0.0	100.30933022499084	
2	57.44924712181091	fix_post	2		12	0.0	2.5	/experiments/AOT/AOT_stimuli/rescaled_final/0188_rv.mp4	0.0	101.22596025466919	0.10047388076782227
3	57.549721002578735	fix_pre	0		120	1.0	2.5	/experiments/AOT/AOT_stimuli/rescaled_final/1692_fw.mp4	0.0	101.32643413543701	0.9994661808013916
3	58.13264513015747	pulse	0	t		1.0	2.5	/experiments/AOT/AOT_stimuli/rescaled_final/1692_fw.mp4	0.0	101.90935826301575	
3	58.54918718338013	movie	1		242	1.0	2.5	/experiments/AOT/AOT_stimuli/rescaled_final/1692_fw.mp4	0.0	102.3259003162384	2.5008490085601807
3	59.73317313194275	pulse	1	t		1.0	2.5	/experiments/AOT/AOT_stimuli/rescaled_final/1692_fw.mp4	0.0	103.50988626480103	
3	61.05003619194031	fix_post	2		12	1.0	2.5	/experiments/AOT/AOT_stimuli/rescaled_final/1692_fw.mp4	0.0	104.82674932479858	0.09949493408203125
4	61.14953112602234	fix_pre	0		120	2.0	2.5	/experiments/AOT/AOT_stimuli/rescaled_final/0737_fw.mp4	0.0	104.92624425888062	0.9996120929718018
4	61.33313822746277	pulse	0	t		2.0	2.5	/experiments/AOT/AOT_stimuli/rescaled_final/0737_fw.mp4	0.0	105.10985136032104	
4	62.14914321899414	movie	1		246	2.0	2.5	/experiments/AOT/AOT_stimuli/rescaled_final/0737_fw.mp4	0.0	105.92585635185242	2.500889778137207
4	62.93347716331482	pulse	1	t		2.0	2.5	/experiments/AOT/AOT_stimuli/rescaled_final/0737_fw.mp4	0.0	106.7101902961731	
4	64.53140211105347	pulse	1	t		2.0	2.5	/experiments/AOT/AOT_stimuli/rescaled_final/0737_fw.mp4	0.0	108.30811524391174	
4	64.65003299713135	fix_post	2		12	2.0	2.5	/experiments/AOT/AOT_stimuli/rescaled_final/0737_fw.mp4	0.0	108.42674612998962	0.09922409057617188
5	64.74925708770752	fix_pre	0		120	3.0	2.5	/experiments/AOT/AOT_stimuli/rescaled_final/1201_rv.mp4	0.0	108.5259702205658	1.0015671253204346
5	65.75082421302795	movie	1		244	3.0	2.5	/experiments/AOT/AOT_stimuli/rescaled_final/1201_rv.mp4	0.0	109.52753734588623	2.4992167949676514
5	66.1329460144043	pulse	1	t		3.0	2.5	/experiments/AOT/AOT_stimuli/rescaled_final/1201_rv.mp4	0.0	109.90965914726257	
5	67.73310112953186	pulse	1	t		3.0	2.5	/experiments/AOT/AOT_stimuli/rescaled_final/1201_rv.mp4	0.0	111.50981426239014	
5	68.2500410079956	fix_post	2		12	3.0	2.5	/experiments/AOT/AOT_stimuli/rescaled_final/1201_rv.mp4	0.0	112.02675414085388	0.09906411170959473
6	68.3491051197052	fix_pre	0		119	4.0	2.5	/experiments/AOT/AOT_stimuli/rescaled_final/0668_fw.mp4	0.0	112.12581825256348	0.9930589199066162
6	69.33402609825134	pulse	0	t		4.0	2.5	/experiments/AOT/AOT_stimuli/rescaled_final/0668_fw.mp4	0.0	113.11073923110962	
6	69.34216403961182	movie	1		242	4.0	2.5	/experiments/AOT/AOT_stimuli/rescaled_final/0668_fw.mp4	0.0	113.11887717247009	2.5082180500030518
6	70.93316006660461	pulse	1	t		4.0	2.5	/experiments/AOT/AOT_stimuli/rescaled_final/0668_fw.mp4	0.0	114.70987319946289	
6	71.85038208961487	fix_post	2		12	4.0	2.5	/experiments/AOT/AOT_stimuli/rescaled_final/0668_fw.mp4	0.0	115.62709522247314	0.09927105903625488
7	71.94965314865112	fix_pre	0		120	5.0	2.5	/experiments/AOT/AOT_stimuli/rescaled_final/0820_rv.mp4	0.0	115.7263662815094	1.0009229183197021
7	72.53365516662598	pulse	0	t		5.0	2.5	/experiments/AOT/AOT_stimuli/rescaled_final/0820_rv.mp4	0.0	116.31036829948425	
7	72.95057606697083	movie	1		245	5.0	2.5	/experiments/AOT/AOT_stimuli/rescaled_final/0820_rv.mp4	0.0	116.7272891998291	2.499418020248413
7	74.13353705406189	pulse	1	t		5.0	2.5	/experiments/AOT/AOT_stimuli/rescaled_final/0820_rv.mp4	0.0	117.91025018692017	
7	75.44999408721924	fix_post	2		12	5.0	2.5	/experiments/AOT/AOT_stimuli/rescaled_final/0820_rv.mp4	0.0	119.22670722007751	0.0994880199432373
8	75.54948210716248	fix_pre	0		120	6.0	2.5	/experiments/AOT/AOT_stimuli/rescaled_final/1700_fw.mp4	0.0	119.32619524002075	1.0009961128234863
8	75.73295521736145	pulse	0	t		6.0	2.5	/experiments/AOT/AOT_stimuli/rescaled_final/1700_fw.mp4	0.0	119.50966835021973	
8	76.55047821998596	movie	1		244	6.0	2.5	/experiments/AOT/AOT_stimuli/rescaled_final/1700_fw.mp4	0.0	120.32719135284424	2.4986488819122314
8	77.33263111114502	pulse	1	t		6.0	2.5	/experiments/AOT/AOT_stimuli/rescaled_final/1700_fw.mp4	0.0	121.1093442440033	
8	78.93153500556946	pulse	1	t		6.0	2.5	/experiments/AOT/AOT_stimuli/rescaled_final/1700_fw.mp4	0.0	122.70824813842773	
8	79.0491271018982	fix_post	2		12	6.0	2.5	/experiments/AOT/AOT_stimuli/rescaled_final/1700_fw.mp4	0.0	122.82584023475647	0.10035991668701172
9	79.1494870185852	fix_pre	0		120	7.0	2.5	blank	1.0	122.92620015144348	1.0005311965942383
9	80.15001821517944	movie	1		300	7.0	2.5	blank	1.0	123.92673134803772	2.4994168281555176
9	80.53313302993774	pulse	1	t		7.0	2.5	blank	1.0	124.30984616279602	
9	82.13302803039551	pulse	1	t		7.0	2.5	blank	1.0	125.90974116325378	
9	82.64943504333496	fix_post	2		12	7.0	2.5	blank	1.0	126.42614817619324	0.1008310317993164
10	82.75026607513428	fix_pre	0		119	8.0	2.5	/experiments/AOT/AOT_stimuli/rescaled_final/0975_fw.mp4	0.0	126.52697920799255	0.9913311004638672
10	83.73340511322021	pulse	0	t		8.0	2.5	/experiments/AOT/AOT_stimuli/rescaled_final/0975_fw.mp4	0.0	127.51011824607849	
10	83.74159717559814	movie	1		242	8.0	2.5	/experiments/AOT/AOT_stimuli/rescaled_final/0975_fw.mp4	0.0	127.51831030845642	2.508417844772339
10	85.33269309997559	pulse	1	t		8.0	2.5	/experiments/AOT/AOT_stimuli/rescaled_final/0975_fw.mp4	0.0	129.10940623283386	
10	86.25001502037048	fix_post	2		12	8.0	2.5	/experiments/AOT/AOT_stimuli/rescaled_final/0975_fw.mp4	0.0	130.02672815322876	0.09904098510742188
11	86.3490560054779	fix_pre	0		120	9.0	2.5	/experiments/AOT/AOT_stimuli/rescaled_final/0355_rv.mp4	0.0	130.12576913833618	1.0009992122650146
11	86.9334352016449	pulse	0	t		9.0	2.5	/experiments/AOT/AOT_stimuli/rescaled_final/0355_rv.mp4	0.0	130.71014833450317	
11	87.35005521774292	movie	1		244	9.0	2.5	/experiments/AOT/AOT_stimuli/rescaled_final/0355_rv.mp4	0.0	131.1267683506012	2.4998369216918945
11	88.53398108482361	pulse	1	t		9.0	2.5	/experiments/AOT/AOT_stimuli/rescaled_final/0355_rv.mp4	0.0	132.31069421768188	
11	89.84989213943481	fix_post	2		12	9.0	2.5	/experiments/AOT/AOT_stimuli/rescaled_final/0355_rv.mp4	0.0	133.6266052722931	0.09956789016723633
12	89.94946002960205	fix_pre	0		120	10.0	2.5	/experiments/AOT/AOT_stimuli/rescaled_final/1116_rv.mp4	0.0	133.72617316246033	1.0004351139068604
12	90.13298416137695	pulse	0	t		10.0	2.5	/experiments/AOT/AOT_stimuli/rescaled_final/1116_rv.mp4	0.0	133.90969729423523	
12	90.94989514350891	movie	1		242	10.0	2.5	/experiments/AOT/AOT_stimuli/rescaled_final/1116_rv.mp4	0.0	134.7266082763672	2.4999840259552
12	91.73337817192078	pulse	1	t		10.0	2.5	/experiments/AOT/AOT_stimuli/rescaled_final/1116_rv.mp4	0.0	135.51009130477905	
12	93.33121418952942	pulse	1	t		10.0	2.5	/experiments/AOT/AOT_stimuli/rescaled_final/1116_rv.mp4	0.0	137.1079273223877	
12	93.44987916946411	fix_post	2		12	10.0	2.5	/experiments/AOT/AOT_stimuli/rescaled_final/1116_rv.mp4	0.0	137.2265923023224	0.09960794448852539
13	93.54948711395264	fix_pre	0		120	11.0	2.5	/experiments/AOT/AOT_stimuli/rescaled_final/1769_rv.mp4	0.0	137.3262002468109	1.0005090236663818
13	94.54999613761902	movie	1		245	11.0	2.5	/experiments/AOT/AOT_stimuli/rescaled_final/1769_rv.mp4	0.0	138.3267092704773	2.5003490447998047
13	94.93244504928589	pulse	1	t		11.0	2.5	/experiments/AOT/AOT_stimuli/rescaled_final/1769_rv.mp4	0.0	138.70915818214417	
13	96.53299713134766	pulse	1	t		11.0	2.5	/experiments/AOT/AOT_stimuli/rescaled_final/1769_rv.mp4	0.0	140.30971026420593	
13	97.05034518241882	fix_post	2		12	11.0	2.5	/experiments/AOT/AOT_stimuli/rescaled_final/1769_rv.mp4	0.0	140.8270583152771	0.09917783737182617
14	97.14952301979065	fix_pre	0		119	12.0	2.5	blank	1.0	140.92623615264893	0.9925060272216797
14	98.13336515426636	pulse	0	t		12.0	2.5	blank	1.0	141.91007828712463	
14	98.14202904701233	movie	1		301	12.0	2.5	blank	1.0	141.9187421798706	2.507498025894165
14	99.73295402526855	pulse	1	t		12.0	2.5	blank	1.0	143.50966715812683	
14	100.6495270729065	fix_post	2		12	12.0	2.5	blank	1.0	144.42624020576477	0.10036206245422363
15	100.74988913536072	fix_pre	0		120	13.0	2.5	/experiments/AOT/AOT_stimuli/rescaled_final/0391_rv.mp4	0.0	144.526602268219	1.0000040531158447
15	101.33332920074463	pulse	0	t		13.0	2.5	/experiments/AOT/AOT_stimuli/rescaled_final/0391_rv.mp4	0.0	145.1100423336029	
15	101.74989318847656	movie	1		244	13.0	2.5	/experiments/AOT/AOT_stimuli/rescaled_final/0391_rv.mp4	0.0	145.52660632133484	2.5003910064697266
15	102.93337321281433	pulse	1	t		13.0	2.5	/experiments/AOT/AOT_stimuli/rescaled_final/0391_rv.mp4	0.0	146.7100863456726	
15	104.25028419494629	fix_post	2		12	13.0	2.5	/experiments/AOT/AOT_stimuli/rescaled_final/0391_rv.mp4	0.0	148.02699732780457	0.09910702705383301
16	104.34939122200012	fix_pre	0		120	14.0	2.5	/experiments/AOT/AOT_stimuli/rescaled_final/1969_fw.mp4	0.0	148.1261043548584	1.0008177757263184
16	104.53285622596741	pulse	0	t		14.0	2.5	/experiments/AOT/AOT_stimuli/rescaled_final/1969_fw.mp4	0.0	148.30956935882568	
16	105.35020899772644	movie	1		244	14.0	2.5	/experiments/AOT/AOT_stimuli/rescaled_final/1969_fw.mp4	0.0	149.12692213058472	2.499573230743408
16	106.13324117660522	pulse	1	t		14.0	2.5	/experiments/AOT/AOT_stimuli/rescaled_final/1969_fw.mp4	0.0	149.9099543094635	
16	107.73163199424744	pulse	1	t		14.0	2.5	/experiments/AOT/AOT_stimuli/rescaled_final/1969_fw.mp4	0.0	151.5083451271057	
16	107.84978222846985	fix_post	2		12	14.0	2.5	/experiments/AOT/AOT_stimuli/rescaled_final/1969_fw.mp4	0.0	151.62649536132812	0.09959077835083008
17	107.94937300682068	fix_pre	0		120	15.0	2.5	/experiments/AOT/AOT_stimuli/rescaled_final/2094_rv.mp4	0.0	151.72608613967896	1.0007810592651367
17	108.95015406608582	movie	1		243	15.0	2.5	/experiments/AOT/AOT_stimuli/rescaled_final/2094_rv.mp4	0.0	152.7268671989441	2.5001220703125
17	109.33273100852966	pulse	1	t		15.0	2.5	/experiments/AOT/AOT_stimuli/rescaled_final/2094_rv.mp4	0.0	153.10944414138794	
17	110.93280601501465	pulse	1	t		15.0	2.5	/experiments/AOT/AOT_stimuli/rescaled_final/2094_rv.mp4	0.0	154.70951914787292	
17	111.45027613639832	fix_post	2		12	15.0	2.5	/experiments/AOT/AOT_stimuli/rescaled_final/2094_rv.mp4	0.0	155.2269892692566	0.09909486770629883
18	111.54937100410461	fix_pre	0		119	16.0	2.5	/experiments/AOT/AOT_stimuli/rescaled_final/2021_rv.mp4	0.0	155.3260841369629	0.992699146270752
18	112.53330206871033	pulse	0	t		16.0	2.5	/experiments/AOT/AOT_stimuli/rescaled_final/2021_rv.mp4	0.0	156.3100152015686	
18	112.54207015037537	movie	1		244	16.0	2.5	/experiments/AOT/AOT_stimuli/rescaled_final/2021_rv.mp4	0.0	156.31878328323364	2.506978988647461
18	114.13261604309082	pulse	1	t		16.0	2.5	/experiments/AOT/AOT_stimuli/rescaled_final/2021_rv.mp4	0.0	157.9093291759491	
18	115.04904913902283	fix_post	2		12	16.0	2.5	/experiments/AOT/AOT_stimuli/rescaled_final/2021_rv.mp4	0.0	158.8257622718811	0.09985589981079102
19	115.14890503883362	fix_pre	0		120	17.0	2.5	/experiments/AOT/AOT_stimuli/rescaled_final/1851_rv.mp4	0.0	158.9256181716919	1.0012400150299072
19	115.73326301574707	pulse	0	t		17.0	2.5	/experiments/AOT/AOT_stimuli/rescaled_final/1851_rv.mp4	0.0	159.50997614860535	
19	116.15014505386353	movie	1		244	17.0	2.5	/experiments/AOT/AOT_stimuli/rescaled_final/1851_rv.mp4	0.0	159.9268581867218	2.499178171157837
19	117.33287501335144	pulse	1	t		17.0	2.5	/experiments/AOT/AOT_stimuli/rescaled_final/1851_rv.mp4	0.0	161.10958814620972	
19	118.64932322502136	fix_post	2		12	17.0	2.5	/experiments/AOT/AOT_stimuli/rescaled_final/1851_rv.mp4	0.0	162.42603635787964	0.10004281997680664
20	118.74936604499817	fix_pre	0		120	18.0	2.5	/experiments/AOT/AOT_stimuli/rescaled_final/1886_fw.mp4	0.0	162.52607917785645	0.9999690055847168
20	118.93287706375122	pulse	0	t		18.0	2.5	/experiments/AOT/AOT_stimuli/rescaled_final/1886_fw.mp4	0.0	162.7095901966095	
20	119.74933505058289	movie	1		245	18.0	2.5	/experiments/AOT/AOT_stimuli/rescaled_final/1886_fw.mp4	0.0	163.52604818344116	2.5003299713134766
20	120.53364706039429	pulse	1	t		18.0	2.5	/experiments/AOT/AOT_stimuli/rescaled_final/1886_fw.mp4	0.0	164.31036019325256	
20	122.13098001480103	pulse	1	t		18.0	2.5	/experiments/AOT/AOT_stimuli/rescaled_final/1886_fw.mp4	0.0	165.9076931476593	
20	122.24966502189636	fix_post	2		12	18.0	2.5	/experiments/AOT/AOT_stimuli/rescaled_final/1886_fw.mp4	0.0	166.02637815475464	0.09954214096069336
21	122.34920716285706	fix_pre	0		120	19.0	2.5	/experiments/AOT/AOT_stimuli/rescaled_final/0207_fw.mp4	0.0	166.12592029571533	1.000525951385498
21	123.34973311424255	movie	1		245	19.0	2.5	/experiments/AOT/AOT_stimuli/rescaled_final/0207_fw.mp4	0.0	167.12644624710083	2.500014066696167
21	123.73234605789185	pulse	1	t		19.0	2.5	/experiments/AOT/AOT_stimuli/rescaled_final/0207_fw.mp4	0.0	167.50905919075012	
21	125.33282613754272	pulse	1	t		19.0	2.5	/experiments/AOT/AOT_stimuli/rescaled_final/0207_fw.mp4	0.0	169.109539270401	
21	125.84974718093872	fix_post	2		12	19.0	2.5	/experiments/AOT/AOT_stimuli/rescaled_final/0207_fw.mp4	0.0	169.626460313797	0.09914398193359375
22	125.94889116287231	fix_pre	0		119	20.0	2.5	/experiments/AOT/AOT_stimuli/rescaled_final/1717_rv.mp4	0.0	169.7256042957306	0.9921920299530029
22	126.93284320831299	pulse	0	t		20.0	2.5	/experiments/AOT/AOT_stimuli/rescaled_final/1717_rv.mp4	0.0	170.70955634117126	
22	126.94108319282532	movie	1		245	20.0	2.5	/experiments/AOT/AOT_stimuli/rescaled_final/1717_rv.mp4	0.0	170.7177963256836	2.508262872695923
22	128.53286814689636	pulse	1	t		20.0	2.5	/experiments/AOT/AOT_stimuli/rescaled_final/1717_rv.mp4	0.0	172.30958127975464	
22	129.44934606552124	fix_post	2		12	20.0	2.5	/experiments/AOT/AOT_stimuli/rescaled_final/1717_rv.mp4	0.0	173.22605919837952	0.0999140739440918
23	129.54926013946533	fix_pre	0		120	21.0	2.5	blank	1.0	173.3259732723236	1.000025987625122
23	130.13321614265442	pulse	0	t		21.0	2.5	blank	1.0	173.9099292755127	
23	130.54928612709045	movie	1		300	21.0	2.5	blank	1.0	174.32599925994873	2.4999430179595947
23	131.73320317268372	pulse	1	t		21.0	2.5	blank	1.0	175.509916305542	
23	133.04922914505005	fix_post	2		12	21.0	2.5	blank	1.0	176.82594227790833	0.10035896301269531
24	133.14958810806274	fix_pre	0		120	22.0	2.5	/experiments/AOT/AOT_stimuli/rescaled_final/1459_rv.mp4	0.0	176.92630124092102	1.0001659393310547
24	133.33283805847168	pulse	0	t		22.0	2.5	/experiments/AOT/AOT_stimuli/rescaled_final/1459_rv.mp4	0.0	177.10955119132996	
24	134.1497540473938	movie	1		244	22.0	2.5	/experiments/AOT/AOT_stimuli/rescaled_final/1459_rv.mp4	0.0	177.92646718025208	2.4995059967041016
24	134.93231320381165	pulse	1	t		22.0	2.5	/experiments/AOT/AOT_stimuli/rescaled_final/1459_rv.mp4	0.0	178.70902633666992	
24	136.53114008903503	pulse	1	t		22.0	2.5	/experiments/AOT/AOT_stimuli/rescaled_final/1459_rv.mp4	0.0	180.3078532218933	
24	136.6492600440979	fix_post	2		12	22.0	2.5	/experiments/AOT/AOT_stimuli/rescaled_final/1459_rv.mp4	0.0	180.42597317695618	0.09994697570800781
25	136.7492070198059	fix_pre	0		120	23.0	2.5	/experiments/AOT/AOT_stimuli/rescaled_final/0315_fw.mp4	0.0	180.52592015266418	1.0004961490631104
25	137.74970316886902	movie	1		247	23.0	2.5	/experiments/AOT/AOT_stimuli/rescaled_final/0315_fw.mp4	0.0	181.5264163017273	2.499130964279175
25	138.1339361667633	pulse	1	t		23.0	2.5	/experiments/AOT/AOT_stimuli/rescaled_final/0315_fw.mp4	0.0	181.91064929962158	
25	139.7326340675354	pulse	1	t		23.0	2.5	/experiments/AOT/AOT_stimuli/rescaled_final/0315_fw.mp4	0.0	183.50934720039368	
25	140.2488341331482	fix_post	2		12	23.0	2.5	/experiments/AOT/AOT_stimuli/rescaled_final/0315_fw.mp4	0.0	184.02554726600647	0.1004490852355957
26	140.3492832183838	fix_pre	0		119	24.0	2.5	/experiments/AOT/AOT_stimuli/rescaled_final/0085_rv.mp4	0.0	184.12599635124207	0.991588830947876
26	141.33235812187195	pulse	0	t		24.0	2.5	/experiments/AOT/AOT_stimuli/rescaled_final/0085_rv.mp4	0.0	185.10907125473022	
26	141.34087204933167	movie	1		245	24.0	2.5	/experiments/AOT/AOT_stimuli/rescaled_final/0085_rv.mp4	0.0	185.11758518218994	2.50787615776062
26	142.93257212638855	pulse	1	t		24.0	2.5	/experiments/AOT/AOT_stimuli/rescaled_final/0085_rv.mp4	0.0	186.70928525924683	
26	143.84874820709229	fix_post	2		12	24.0	2.5	/experiments/AOT/AOT_stimuli/rescaled_final/0085_rv.mp4	0.0	187.62546133995056	0.10042500495910645
27	143.9491732120514	fix_pre	0		120	25.0	2.5	/experiments/AOT/AOT_stimuli/rescaled_final/1784_fw.mp4	0.0	187.72588634490967	1.0004799365997314
27	144.53228116035461	pulse	0	t		25.0	2.5	/experiments/AOT/AOT_stimuli/rescaled_final/1784_fw.mp4	0.0	188.3089942932129	
27	144.94965314865112	movie	1		245	25.0	2.5	/experiments/AOT/AOT_stimuli/rescaled_final/1784_fw.mp4	0.0	188.7263662815094	2.499084949493408
27	146.13231921195984	pulse	1	t		25.0	2.5	/experiments/AOT/AOT_stimuli/rescaled_final/1784_fw.mp4	0.0	189.90903234481812	
27	147.44873809814453	fix_post	2		12	25.0	2.5	/experiments/AOT/AOT_stimuli/rescaled_final/1784_fw.mp4	0.0	191.2254512310028	0.10048294067382812
28	147.54922103881836	fix_pre	0		120	26.0	2.5	blank	1.0	191.32593417167664	0.9995219707489014
28	147.73258709907532	pulse	0	t		26.0	2.5	blank	1.0	191.5093002319336	
28	148.54874300956726	movie	1		300	26.0	2.5	blank	1.0	192.32545614242554	2.500441074371338
28	149.33311319351196	pulse	1	t		26.0	2.5	blank	1.0	193.10982632637024	
28	150.9326491355896	pulse	1	t		26.0	2.5	blank	1.0	194.70936226844788	
28	151.0491840839386	fix_post	2		12	26.0	2.5	blank	1.0	194.82589721679688	0.09958600997924805
29	151.14877009391785	fix_pre	0		120	27.0	2.5	/experiments/AOT/AOT_stimuli/rescaled_final/1916_fw.mp4	0.0	194.92548322677612	1.0007729530334473
29	152.1495430469513	movie	1		243	27.0	2.5	/experiments/AOT/AOT_stimuli/rescaled_final/1916_fw.mp4	0.0	195.92625617980957	2.500102996826172
29	152.53276014328003	pulse	1	t		27.0	2.5	/experiments/AOT/AOT_stimuli/rescaled_final/1916_fw.mp4	0.0	196.3094732761383	
29	154.1326150894165	pulse	1	t		27.0	2.5	/experiments/AOT/AOT_stimuli/rescaled_final/1916_fw.mp4	0.0	197.90932822227478	
29	154.64964604377747	fix_post	2		12	27.0	2.5	/experiments/AOT/AOT_stimuli/rescaled_final/1916_fw.mp4	0.0	198.42635917663574	0.09948110580444336
30	154.7491271495819	fix_pre	0		119	28.0	2.5	/experiments/AOT/AOT_stimuli/rescaled_final/0578_fw.mp4	0.0	198.52584028244019	0.992150068283081
30	155.7330961227417	pulse	0	t		28.0	2.5	/experiments/AOT/AOT_stimuli/rescaled_final/0578_fw.mp4	0.0	199.50980925559998	
30	155.741277217865	movie	1		244	28.0	2.5	/experiments/AOT/AOT_stimuli/rescaled_final/0578_fw.mp4	0.0	199.51799035072327	2.5085599422454834
30	157.3323311805725	pulse	1	t		28.0	2.5	/experiments/AOT/AOT_stimuli/rescaled_final/0578_fw.mp4	0.0	201.1090443134308	
30	158.24983716011047	fix_post	2		12	28.0	2.5	/experiments/AOT/AOT_stimuli/rescaled_final/0578_fw.mp4	0.0	202.02655029296875	0.09919595718383789
31	158.3490331172943	fix_pre	0		120	29.0	2.5	/experiments/AOT/AOT_stimuli/rescaled_final/1958_fw.mp4	0.0	202.1257462501526	0.9996531009674072
31	158.93221712112427	pulse	0	t		29.0	2.5	/experiments/AOT/AOT_stimuli/rescaled_final/1958_fw.mp4	0.0	202.70893025398254	
31	159.34868621826172	movie	1		245	29.0	2.5	/experiments/AOT/AOT_stimuli/rescaled_final/1958_fw.mp4	0.0	203.12539935112	2.5010910034179688
31	160.53317713737488	pulse	1	t		29.0	2.5	/experiments/AOT/AOT_stimuli/rescaled_final/1958_fw.mp4	0.0	204.30989027023315	
31	161.8497772216797	fix_post	2		12	29.0	2.5	/experiments/AOT/AOT_stimuli/rescaled_final/1958_fw.mp4	0.0	205.62649035453796	0.09936380386352539
32	161.9491410255432	fix_pre	0		120	30.0	2.5	/experiments/AOT/AOT_stimuli/rescaled_final/1856_fw.mp4	0.0	205.7258541584015	1.0009591579437256
32	162.13273906707764	pulse	0	t		30.0	2.5	/experiments/AOT/AOT_stimuli/rescaled_final/1856_fw.mp4	0.0	205.9094521999359	
32	162.95010018348694	movie	1		243	30.0	2.5	/experiments/AOT/AOT_stimuli/rescaled_final/1856_fw.mp4	0.0	206.72681331634521	2.499506950378418
32	163.73224711418152	pulse	1	t		30.0	2.5	/experiments/AOT/AOT_stimuli/rescaled_final/1856_fw.mp4	0.0	207.5089602470398	
32	165.33141016960144	pulse	1	t		30.0	2.5	/experiments/AOT/AOT_stimuli/rescaled_final/1856_fw.mp4	0.0	209.10812330245972	
32	165.44960713386536	fix_post	2		12	30.0	2.5	/experiments/AOT/AOT_stimuli/rescaled_final/1856_fw.mp4	0.0	209.22632026672363	0.09951090812683105
33	165.5491180419922	fix_pre	0		120	31.0	2.5	/experiments/AOT/AOT_stimuli/rescaled_final/1943_rv.mp4	0.0	209.32583117485046	0.9996449947357178
33	166.5487630367279	movie	1		244	31.0	2.5	/experiments/AOT/AOT_stimuli/rescaled_final/1943_rv.mp4	0.0	210.32547616958618	2.5007500648498535
33	166.9320421218872	pulse	1	t		31.0	2.5	/experiments/AOT/AOT_stimuli/rescaled_final/1943_rv.mp4	0.0	210.70875525474548	
33	168.5325620174408	pulse	1	t		31.0	2.5	/experiments/AOT/AOT_stimuli/rescaled_final/1943_rv.mp4	0.0	212.30927515029907	
33	169.04951310157776	fix_post	2		12	31.0	2.5	/experiments/AOT/AOT_stimuli/rescaled_final/1943_rv.mp4	0.0	212.82622623443604	0.09948110580444336
34	169.1489942073822	fix_pre	0		119	32.0	2.5	/experiments/AOT/AOT_stimuli/rescaled_final/2171_fw.mp4	0.0	212.92570734024048	0.9926137924194336
34	170.1331741809845	pulse	0	t		32.0	2.5	/experiments/AOT/AOT_stimuli/rescaled_final/2171_fw.mp4	0.0	213.90988731384277	
34	170.14160799980164	movie	1		244	32.0	2.5	/experiments/AOT/AOT_stimuli/rescaled_final/2171_fw.mp4	0.0	213.9183211326599	2.5079400539398193
34	171.7318971157074	pulse	1	t		32.0	2.5	/experiments/AOT/AOT_stimuli/rescaled_final/2171_fw.mp4	0.0	215.50861024856567	
34	172.64954805374146	fix_post	2		12	32.0	2.5	/experiments/AOT/AOT_stimuli/rescaled_final/2171_fw.mp4	0.0	216.42626118659973	0.0995180606842041
35	172.74906611442566	fix_pre	0		120	33.0	2.5	/experiments/AOT/AOT_stimuli/rescaled_final/0975_rv.mp4	0.0	216.52577924728394	1.0004498958587646
35	173.33303904533386	pulse	0	t		33.0	2.5	/experiments/AOT/AOT_stimuli/rescaled_final/0975_rv.mp4	0.0	217.10975217819214	
35	173.74951601028442	movie	1		245	33.0	2.5	/experiments/AOT/AOT_stimuli/rescaled_final/0975_rv.mp4	0.0	217.5262291431427	2.4999802112579346
35	174.9321551322937	pulse	1	t		33.0	2.5	/experiments/AOT/AOT_stimuli/rescaled_final/0975_rv.mp4	0.0	218.70886826515198	
35	176.24949622154236	fix_post	2		12	33.0	2.5	/experiments/AOT/AOT_stimuli/rescaled_final/0975_rv.mp4	0.0	220.02620935440063	0.09922385215759277
36	176.34872007369995	fix_pre	0		120	34.0	2.5	blank	1.0	220.12543320655823	1.0013689994812012
36	176.53270411491394	pulse	0	t		34.0	2.5	blank	1.0	220.30941724777222	
36	177.35008907318115	movie	1		300	34.0	2.5	blank	1.0	221.12680220603943	2.4989190101623535
36	178.13334321975708	pulse	1	t		34.0	2.5	blank	1.0	221.91005635261536	
36	179.73254919052124	pulse	1	t		34.0	2.5	blank	1.0	223.50926232337952	
36	179.8490080833435	fix_post	2		12	34.0	2.5	blank	1.0	223.62572121620178	0.10089993476867676
37	179.94990801811218	fix_pre	0		120	35.0	2.5	/experiments/AOT/AOT_stimuli/rescaled_final/0448_rv.mp4	0.0	223.72662115097046	0.9996140003204346
37	180.94952201843262	movie	1		245	35.0	2.5	/experiments/AOT/AOT_stimuli/rescaled_final/0448_rv.mp4	0.0	224.7262351512909	2.499962091445923
37	181.33243107795715	pulse	1	t		35.0	2.5	/experiments/AOT/AOT_stimuli/rescaled_final/0448_rv.mp4	0.0	225.10914421081543	
37	182.93234300613403	pulse	1	t		35.0	2.5	/experiments/AOT/AOT_stimuli/rescaled_final/0448_rv.mp4	0.0	226.7090561389923	
37	183.44948410987854	fix_post	2		12	35.0	2.5	/experiments/AOT/AOT_stimuli/rescaled_final/0448_rv.mp4	0.0	227.22619724273682	0.09955310821533203
38	183.54903721809387	fix_pre	0		119	36.0	2.5	/experiments/AOT/AOT_stimuli/rescaled_final/0333_rv.mp4	0.0	227.32575035095215	0.9920988082885742
38	184.5334300994873	pulse	0	t		36.0	2.5	/experiments/AOT/AOT_stimuli/rescaled_final/0333_rv.mp4	0.0	228.31014323234558	
38	184.54113602638245	movie	1		247	36.0	2.5	/experiments/AOT/AOT_stimuli/rescaled_final/0333_rv.mp4	0.0	228.31784915924072	2.508247137069702
38	186.13203120231628	pulse	1	t		36.0	2.5	/experiments/AOT/AOT_stimuli/rescaled_final/0333_rv.mp4	0.0	229.90874433517456	
38	187.04938316345215	fix_post	2		12	36.0	2.5	/experiments/AOT/AOT_stimuli/rescaled_final/0333_rv.mp4	0.0	230.82609629631042	0.09956693649291992
39	187.14895009994507	fix_pre	0		120	37.0	2.5	/experiments/AOT/AOT_stimuli/rescaled_final/0345_rv.mp4	0.0	230.92566323280334	1.0009279251098633
39	187.73295307159424	pulse	0	t		37.0	2.5	/experiments/AOT/AOT_stimuli/rescaled_final/0345_rv.mp4	0.0	231.50966620445251	
39	188.14987802505493	movie	1		245	37.0	2.5	/experiments/AOT/AOT_stimuli/rescaled_final/0345_rv.mp4	0.0	231.9265911579132	2.499476194381714
39	189.33291602134705	pulse	1	t		37.0	2.5	/experiments/AOT/AOT_stimuli/rescaled_final/0345_rv.mp4	0.0	233.10962915420532	
39	190.64935421943665	fix_post	2		12	37.0	2.5	/experiments/AOT/AOT_stimuli/rescaled_final/0345_rv.mp4	0.0	234.42606735229492	0.09961295127868652
40	190.74896717071533	fix_pre	0		120	38.0	2.5	/experiments/AOT/AOT_stimuli/rescaled_final/1022_rv.mp4	0.0	234.5256803035736	1.0008549690246582
40	190.93238615989685	pulse	0	t		38.0	2.5	/experiments/AOT/AOT_stimuli/rescaled_final/1022_rv.mp4	0.0	234.70909929275513	
40	191.74982213974	movie	1		246	38.0	2.5	/experiments/AOT/AOT_stimuli/rescaled_final/1022_rv.mp4	0.0	235.52653527259827	2.4999959468841553
40	192.53339314460754	pulse	1	t		38.0	2.5	/experiments/AOT/AOT_stimuli/rescaled_final/1022_rv.mp4	0.0	236.31010627746582	
40	194.13078022003174	pulse	1	t		38.0	2.5	/experiments/AOT/AOT_stimuli/rescaled_final/1022_rv.mp4	0.0	237.90749335289001	
40	194.24981808662415	fix_post	2		12	38.0	2.5	/experiments/AOT/AOT_stimuli/rescaled_final/1022_rv.mp4	0.0	238.02653121948242	0.09916090965270996
41	194.34897899627686	fix_pre	0		120	39.0	2.5	/experiments/AOT/AOT_stimuli/rescaled_final/1391_fw.mp4	0.0	238.12569212913513	1.0008940696716309
41	195.3498730659485	movie	1		244	39.0	2.5	/experiments/AOT/AOT_stimuli/rescaled_final/1391_fw.mp4	0.0	239.12658619880676	2.499467134475708
41	195.73202109336853	pulse	1	t		39.0	2.5	/experiments/AOT/AOT_stimuli/rescaled_final/1391_fw.mp4	0.0	239.5087342262268	
41	197.33238005638123	pulse	1	t		39.0	2.5	/experiments/AOT/AOT_stimuli/rescaled_final/1391_fw.mp4	0.0	241.1090931892395	
41	197.8493402004242	fix_post	2		12	39.0	2.5	/experiments/AOT/AOT_stimuli/rescaled_final/1391_fw.mp4	0.0	241.62605333328247	0.09959602355957031
42	197.94893622398376	fix_pre	0		119	40.0	2.5	/experiments/AOT/AOT_stimuli/rescaled_final/0399_rv.mp4	0.0	241.72564935684204	0.992175817489624
42	198.93324208259583	pulse	0	t		40.0	2.5	/experiments/AOT/AOT_stimuli/rescaled_final/0399_rv.mp4	0.0	242.7099552154541	
42	198.9411120414734	movie	1		245	40.0	2.5	/experiments/AOT/AOT_stimuli/rescaled_final/0399_rv.mp4	0.0	242.71782517433167	2.5082480907440186
42	200.5320680141449	pulse	1	t		40.0	2.5	/experiments/AOT/AOT_stimuli/rescaled_final/0399_rv.mp4	0.0	244.30878114700317	
42	201.4493601322174	fix_post	2		12	40.0	2.5	/experiments/AOT/AOT_stimuli/rescaled_final/0399_rv.mp4	0.0	245.22607326507568	0.09955906867980957
43	201.54891920089722	fix_pre	0		120	41.0	2.5	blank	1.0	245.3256323337555	1.0004448890686035
43	202.1333122253418	pulse	0	t		41.0	2.5	blank	1.0	245.91002535820007	
43	202.54936408996582	movie	1		300	41.0	2.5	blank	1.0	246.3260772228241	2.4996049404144287
43	203.73322200775146	pulse	1	t		41.0	2.5	blank	1.0	247.50993514060974	
43	205.04896903038025	fix_post	2		12	41.0	2.5	blank	1.0	248.82568216323853	0.10036110877990723
44	205.14933013916016	fix_pre	0		120	42.0	2.5	/experiments/AOT/AOT_stimuli/rescaled_final/0585_fw.mp4	0.0	248.92604327201843	1.0003490447998047
44	205.33236002922058	pulse	0	t		42.0	2.5	/experiments/AOT/AOT_stimuli/rescaled_final/0585_fw.mp4	0.0	249.10907316207886	
44	206.14967918395996	movie	1		245	42.0	2.5	/experiments/AOT/AOT_stimuli/rescaled_final/0585_fw.mp4	0.0	249.92639231681824	2.5000498294830322
44	206.93328499794006	pulse	1	t		42.0	2.5	/experiments/AOT/AOT_stimuli/rescaled_final/0585_fw.mp4	0.0	250.70999813079834	
44	208.53110122680664	pulse	1	t		42.0	2.5	/experiments/AOT/AOT_stimuli/rescaled_final/0585_fw.mp4	0.0	252.30781435966492	
44	208.649729013443	fix_post	2		12	42.0	2.5	/experiments/AOT/AOT_stimuli/rescaled_final/0585_fw.mp4	0.0	252.42644214630127	0.09915900230407715
45	208.74888801574707	fix_pre	0		120	43.0	2.5	/experiments/AOT/AOT_stimuli/rescaled_final/0838_fw.mp4	0.0	252.52560114860535	1.0004160404205322
45	209.7493040561676	movie	1		246	43.0	2.5	/experiments/AOT/AOT_stimuli/rescaled_final/0838_fw.mp4	0.0	253.52601718902588	2.5001790523529053
45	210.1319510936737	pulse	1	t		43.0	2.5	/experiments/AOT/AOT_stimuli/rescaled_final/0838_fw.mp4	0.0	253.90866422653198	
45	211.73237419128418	pulse	1	t		43.0	2.5	/experiments/AOT/AOT_stimuli/rescaled_final/0838_fw.mp4	0.0	255.50908732414246	
45	212.2494831085205	fix_post	2		12	43.0	2.5	/experiments/AOT/AOT_stimuli/rescaled_final/0838_fw.mp4	0.0	256.0261962413788	0.09938597679138184
46	212.3488690853119	fix_pre	0		119	44.0	2.5	/experiments/AOT/AOT_stimuli/rescaled_final/0289_fw.mp4	0.0	256.12558221817017	0.9920749664306641
46	213.33275699615479	pulse	0	t		44.0	2.5	/experiments/AOT/AOT_stimuli/rescaled_final/0289_fw.mp4	0.0	257.10947012901306	
46	213.34094405174255	movie	1		247	44.0	2.5	/experiments/AOT/AOT_stimuli/rescaled_final/0289_fw.mp4	0.0	257.11765718460083	2.507884979248047
46	214.93184304237366	pulse	1	t		44.0	2.5	/experiments/AOT/AOT_stimuli/rescaled_final/0289_fw.mp4	0.0	258.70855617523193	
46	215.8488290309906	fix_post	2		12	44.0	2.5	/experiments/AOT/AOT_stimuli/rescaled_final/0289_fw.mp4	0.0	259.6255421638489	0.10003304481506348
47	215.94886207580566	fix_pre	0		120	45.0	2.5	/experiments/AOT/AOT_stimuli/rescaled_final/0181_rv.mp4	0.0	259.72557520866394	1.000568151473999
47	216.5327250957489	pulse	0	t		45.0	2.5	/experiments/AOT/AOT_stimuli/rescaled_final/0181_rv.mp4	0.0	260.3094382286072	
47	216.94943022727966	movie	1		245	45.0	2.5	/experiments/AOT/AOT_stimuli/rescaled_final/0181_rv.mp4	0.0	260.72614336013794	2.4989969730377197
47	218.13244009017944	pulse	1	t		45.0	2.5	/experiments/AOT/AOT_stimuli/rescaled_final/0181_rv.mp4	0.0	261.9091532230377	
47	219.44842720031738	fix_post	2		12	45.0	2.5	/experiments/AOT/AOT_stimuli/rescaled_final/0181_rv.mp4	0.0	263.22514033317566	0.10037493705749512
48	219.54880213737488	fix_pre	0		120	46.0	2.5	/experiments/AOT/AOT_stimuli/rescaled_final/1116_rv.mp4	0.0	263.32551527023315	1.0004100799560547
48	219.73237419128418	pulse	0	t		46.0	2.5	/experiments/AOT/AOT_stimuli/rescaled_final/1116_rv.mp4	0.0	263.50908732414246	
48	220.54921221733093	movie	1		242	46.0	2.5	/experiments/AOT/AOT_stimuli/rescaled_final/1116_rv.mp4	0.0	264.3259253501892	2.4995789527893066
48	221.33233904838562	pulse	1	t		46.0	2.5	/experiments/AOT/AOT_stimuli/rescaled_final/1116_rv.mp4	0.0	265.1090521812439	
48	222.9308431148529	pulse	1	t		46.0	2.5	/experiments/AOT/AOT_stimuli/rescaled_final/1116_rv.mp4	0.0	266.7075562477112	
48	223.04879117012024	fix_post	2		12	46.0	2.5	/experiments/AOT/AOT_stimuli/rescaled_final/1116_rv.mp4	0.0	266.8255043029785	0.10056686401367188
49	223.1493580341339	fix_pre	0		120	47.0	2.5	blank	1.0	266.9260711669922	0.999953031539917
49	224.14931106567383	movie	1		300	47.0	2.5	blank	1.0	267.9260241985321	2.499506950378418
49	224.53226613998413	pulse	1	t		47.0	2.5	blank	1.0	268.3089792728424	
49	226.13227105140686	pulse	1	t		47.0	2.5	blank	1.0	269.90898418426514	
49	226.64881801605225	fix_post	2		12	47.0	2.5	blank	1.0	270.4255311489105	0.10052609443664551
50	226.7493441104889	fix_pre	0		119	48.0	2.5	/experiments/AOT/AOT_stimuli/rescaled_final/2054_rv.mp4	0.0	270.52605724334717	0.9911859035491943
50	227.7327060699463	pulse	0	t		48.0	2.5	/experiments/AOT/AOT_stimuli/rescaled_final/2054_rv.mp4	0.0	271.50941920280457	
50	227.7405300140381	movie	1		245	48.0	2.5	/experiments/AOT/AOT_stimuli/rescaled_final/2054_rv.mp4	0.0	271.51724314689636	2.5083601474761963
50	229.3325002193451	pulse	1	t		48.0	2.5	/experiments/AOT/AOT_stimuli/rescaled_final/2054_rv.mp4	0.0	273.10921335220337	
50	230.24889016151428	fix_post	2		12	48.0	2.5	/experiments/AOT/AOT_stimuli/rescaled_final/2054_rv.mp4	0.0	274.02560329437256	0.09996485710144043
51	230.34885501861572	fix_pre	0		120	49.0	2.5	/experiments/AOT/AOT_stimuli/rescaled_final/1316_fw.mp4	0.0	274.125568151474	1.0004692077636719
51	230.9328100681305	pulse	0	t		49.0	2.5	/experiments/AOT/AOT_stimuli/rescaled_final/1316_fw.mp4	0.0	274.70952320098877	
51	231.3493242263794	movie	1		245	49.0	2.5	/experiments/AOT/AOT_stimuli/rescaled_final/1316_fw.mp4	0.0	275.12603735923767	2.499778985977173
51	232.53282403945923	pulse	1	t		49.0	2.5	/experiments/AOT/AOT_stimuli/rescaled_final/1316_fw.mp4	0.0	276.3095371723175	
51	233.84910321235657	fix_post	2		12	49.0	2.5	/experiments/AOT/AOT_stimuli/rescaled_final/1316_fw.mp4	0.0	277.62581634521484	0.09999680519104004
52	233.9491000175476	fix_pre	0		120	50.0	2.5	/experiments/AOT/AOT_stimuli/rescaled_final/0309_rv.mp4	0.0	277.7258131504059	0.999934196472168
52	234.1325821876526	pulse	0	t		50.0	2.5	/experiments/AOT/AOT_stimuli/rescaled_final/0309_rv.mp4	0.0	277.90929532051086	
52	234.94903421401978	movie	1		245	50.0	2.5	/experiments/AOT/AOT_stimuli/rescaled_final/0309_rv.mp4	0.0	278.72574734687805	2.4998278617858887
52	235.73267221450806	pulse	1	t		50.0	2.5	/experiments/AOT/AOT_stimuli/rescaled_final/0309_rv.mp4	0.0	279.50938534736633	
52	237.34065008163452	pulse	1	t		50.0	2.5	/experiments/AOT/AOT_stimuli/rescaled_final/0309_rv.mp4	0.0	281.1173632144928	
52	237.44886207580566	fix_post	2		12	50.0	2.5	/experiments/AOT/AOT_stimuli/rescaled_final/0309_rv.mp4	0.0	281.22557520866394	0.09996199607849121
53	237.54882407188416	fix_pre	0		120	51.0	2.5	/experiments/AOT/AOT_stimuli/rescaled_final/1162_fw.mp4	0.0	281.32553720474243	0.999514102935791
53	238.54833817481995	movie	1		246	51.0	2.5	/experiments/AOT/AOT_stimuli/rescaled_final/1162_fw.mp4	0.0	282.3250513076782	2.499994993209839
53	238.9317982196808	pulse	1	t		51.0	2.5	/experiments/AOT/AOT_stimuli/rescaled_final/1162_fw.mp4	0.0	282.70851135253906	
53	240.53215718269348	pulse	1	t		51.0	2.5	/experiments/AOT/AOT_stimuli/rescaled_final/1162_fw.mp4	0.0	284.30887031555176	
53	241.04833316802979	fix_post	2		12	51.0	2.5	/experiments/AOT/AOT_stimuli/rescaled_final/1162_fw.mp4	0.0	284.82504630088806	0.10052490234375
54	241.14885807037354	fix_pre	0		119	52.0	2.5	/experiments/AOT/AOT_stimuli/rescaled_final/0289_rv.mp4	0.0	284.9255712032318	0.9919230937957764
54	242.13260316848755	pulse	0	t		52.0	2.5	/experiments/AOT/AOT_stimuli/rescaled_final/0289_rv.mp4	0.0	285.9093163013458	
54	242.1407811641693	movie	1		248	52.0	2.5	/experiments/AOT/AOT_stimuli/rescaled_final/0289_rv.mp4	0.0	285.9174942970276	2.507504940032959
54	243.73199915885925	pulse	1	t		52.0	2.5	/experiments/AOT/AOT_stimuli/rescaled_final/0289_rv.mp4	0.0	287.50871229171753	
54	244.64828610420227	fix_post	2		12	52.0	2.5	/experiments/AOT/AOT_stimuli/rescaled_final/0289_rv.mp4	0.0	288.42499923706055	0.10007309913635254
55	244.74835920333862	fix_pre	0		120	53.0	2.5	/experiments/AOT/AOT_stimuli/rescaled_final/1886_rv.mp4	0.0	288.5250723361969	1.0000298023223877
55	245.3326451778412	pulse	0	t		53.0	2.5	/experiments/AOT/AOT_stimuli/rescaled_final/1886_rv.mp4	0.0	289.10935831069946	
55	245.748389005661	movie	1		244	53.0	2.5	/experiments/AOT/AOT_stimuli/rescaled_final/1886_rv.mp4	0.0	289.5251021385193	2.501160144805908
55	246.9317970275879	pulse	1	t		53.0	2.5	/experiments/AOT/AOT_stimuli/rescaled_final/1886_rv.mp4	0.0	290.70851016044617	
55	248.24954915046692	fix_post	2		12	53.0	2.5	/experiments/AOT/AOT_stimuli/rescaled_final/1886_rv.mp4	0.0	292.0262622833252	0.09911894798278809
56	248.3486680984497	fix_pre	0		120	54.0	2.5	blank	1.0	292.125381231308	0.9996321201324463
56	248.53218817710876	pulse	0	t		54.0	2.5	blank	1.0	292.30890130996704	
56	249.34830021858215	movie	1		300	54.0	2.5	blank	1.0	293.12501335144043	2.500389814376831
56	250.13169312477112	pulse	1	t		54.0	2.5	blank	1.0	293.9084062576294	
56	251.73226308822632	pulse	1	t		54.0	2.5	blank	1.0	295.5089762210846	
56	251.84869003295898	fix_post	2		12	54.0	2.5	blank	1.0	295.62540316581726	0.09954404830932617
57	251.9482340812683	fix_pre	0		120	55.0	2.5	/experiments/AOT/AOT_stimuli/rescaled_final/0229_fw.mp4	0.0	295.7249472141266	1.0014569759368896
57	252.9496910572052	movie	1		245	55.0	2.5	/experiments/AOT/AOT_stimuli/rescaled_final/0229_fw.mp4	0.0	296.7264041900635	2.4993960857391357
57	253.33188104629517	pulse	1	t		55.0	2.5	/experiments/AOT/AOT_stimuli/rescaled_final/0229_fw.mp4	0.0	297.10859417915344	
57	254.93229007720947	pulse	1	t		55.0	2.5	/experiments/AOT/AOT_stimuli/rescaled_final/0229_fw.mp4	0.0	298.70900321006775	
57	255.44908714294434	fix_post	2		12	55.0	2.5	/experiments/AOT/AOT_stimuli/rescaled_final/0229_fw.mp4	0.0	299.2258002758026	0.09956908226013184
58	255.54865622520447	fix_pre	0		119	56.0	2.5	/experiments/AOT/AOT_stimuli/rescaled_final/0166_fw.mp4	0.0	299.32536935806274	0.9921789169311523
58	256.5317590236664	pulse	0	t		56.0	2.5	/experiments/AOT/AOT_stimuli/rescaled_final/0166_fw.mp4	0.0	300.30847215652466	
58	256.5408351421356	movie	1		246	56.0	2.5	/experiments/AOT/AOT_stimuli/rescaled_final/0166_fw.mp4	0.0	300.3175482749939	2.5082578659057617
58	258.13187623023987	pulse	1	t		56.0	2.5	/experiments/AOT/AOT_stimuli/rescaled_final/0166_fw.mp4	0.0	301.90858936309814	
58	259.0490930080414	fix_post	2		12	56.0	2.5	/experiments/AOT/AOT_stimuli/rescaled_final/0166_fw.mp4	0.0	302.82580614089966	0.09953999519348145
59	259.14863300323486	fix_pre	0		120	57.0	2.5	/experiments/AOT/AOT_stimuli/rescaled_final/0438_rv.mp4	0.0	302.92534613609314	1.0004971027374268
59	259.73259711265564	pulse	0	t		57.0	2.5	/experiments/AOT/AOT_stimuli/rescaled_final/0438_rv.mp4	0.0	303.5093102455139	
59	260.1491301059723	movie	1		244	57.0	2.5	/experiments/AOT/AOT_stimuli/rescaled_final/0438_rv.mp4	0.0	303.92584323883057	2.499039888381958
59	261.3325970172882	pulse	1	t		57.0	2.5	/experiments/AOT/AOT_stimuli/rescaled_final/0438_rv.mp4	0.0	305.1093101501465	
59	262.64816999435425	fix_post	2		12	57.0	2.5	/experiments/AOT/AOT_stimuli/rescaled_final/0438_rv.mp4	0.0	306.4248831272125	0.10046815872192383
60	262.7486381530762	fix_pre	0		120	58.0	2.5	/experiments/AOT/AOT_stimuli/rescaled_final/1795_rv.mp4	0.0	306.52535128593445	1.0004498958587646
60	262.9321391582489	pulse	0	t		58.0	2.5	/experiments/AOT/AOT_stimuli/rescaled_final/1795_rv.mp4	0.0	306.7088522911072	
60	263.74908804893494	movie	1		244	58.0	2.5	/experiments/AOT/AOT_stimuli/rescaled_final/1795_rv.mp4	0.0	307.5258011817932	2.4999711513519287
60	264.53259110450745	pulse	1	t		58.0	2.5	/experiments/AOT/AOT_stimuli/rescaled_final/1795_rv.mp4	0.0	308.3093042373657	
60	266.14043521881104	pulse	1	t		58.0	2.5	/experiments/AOT/AOT_stimuli/rescaled_final/1795_rv.mp4	0.0	309.9171483516693	
60	266.24905920028687	fix_post	2		12	58.0	2.5	/experiments/AOT/AOT_stimuli/rescaled_final/1795_rv.mp4	0.0	310.02577233314514	0.09959292411804199
61	266.3486521244049	fix_pre	0		120	59.0	2.5	/experiments/AOT/AOT_stimuli/rescaled_final/0924_rv.mp4	0.0	310.1253652572632	0.999553918838501
61	267.3482060432434	movie	1		244	59.0	2.5	/experiments/AOT/AOT_stimuli/rescaled_final/0924_rv.mp4	0.0	311.1249191761017	2.5004520416259766
61	267.7325611114502	pulse	1	t		59.0	2.5	/experiments/AOT/AOT_stimuli/rescaled_final/0924_rv.mp4	0.0	311.5092742443085	
61	269.3320150375366	pulse	1	t		59.0	2.5	/experiments/AOT/AOT_stimuli/rescaled_final/0924_rv.mp4	0.0	313.1087281703949	
61	269.8486580848694	fix_post	2		12	59.0	2.5	/experiments/AOT/AOT_stimuli/rescaled_final/0924_rv.mp4	0.0	313.62537121772766	0.09991312026977539
62	269.94857120513916	fix_pre	0		119	60.0	2.5	/experiments/AOT/AOT_stimuli/rescaled_final/1851_rv.mp4	0.0	313.72528433799744	0.9916369915008545
62	270.9321200847626	pulse	0	t		60.0	2.5	/experiments/AOT/AOT_stimuli/rescaled_final/1851_rv.mp4	0.0	314.70883321762085	
62	270.94020819664	movie	1		244	60.0	2.5	/experiments/AOT/AOT_stimuli/rescaled_final/1851_rv.mp4	0.0	314.7169213294983	2.5083868503570557
62	272.5333881378174	pulse	1	t		60.0	2.5	/experiments/AOT/AOT_stimuli/rescaled_final/1851_rv.mp4	0.0	316.31010127067566	
62	273.44859504699707	fix_post	2		12	60.0	2.5	/experiments/AOT/AOT_stimuli/rescaled_final/1851_rv.mp4	0.0	317.22530817985535	0.1000511646270752
63	273.54864621162415	fix_pre	0		120	61.0	2.5	/experiments/AOT/AOT_stimuli/rescaled_final/0530_fw.mp4	0.0	317.3253593444824	0.9998469352722168
63	274.1320381164551	pulse	0	t		61.0	2.5	/experiments/AOT/AOT_stimuli/rescaled_final/0530_fw.mp4	0.0	317.90875124931335	
63	274.54849314689636	movie	1		243	61.0	2.5	/experiments/AOT/AOT_stimuli/rescaled_final/0530_fw.mp4	0.0	318.32520627975464	2.499682903289795
63	275.73212003707886	pulse	1	t		61.0	2.5	/experiments/AOT/AOT_stimuli/rescaled_final/0530_fw.mp4	0.0	319.50883316993713	
63	277.04817605018616	fix_post	2		12	61.0	2.5	/experiments/AOT/AOT_stimuli/rescaled_final/0530_fw.mp4	0.0	320.82488918304443	0.1004030704498291
64	277.148579120636	fix_pre	0		120	62.0	2.5	/experiments/AOT/AOT_stimuli/rescaled_final/0422_fw.mp4	0.0	320.92529225349426	1.0000250339508057
64	277.33205914497375	pulse	0	t		62.0	2.5	/experiments/AOT/AOT_stimuli/rescaled_final/0422_fw.mp4	0.0	321.10877227783203	
64	278.1486041545868	movie	1		244	62.0	2.5	/experiments/AOT/AOT_stimuli/rescaled_final/0422_fw.mp4	0.0	321.92531728744507	2.4999499320983887
64	278.931969165802	pulse	1	t		62.0	2.5	/experiments/AOT/AOT_stimuli/rescaled_final/0422_fw.mp4	0.0	322.7086822986603	
64	280.54045009613037	pulse	1	t		62.0	2.5	/experiments/AOT/AOT_stimuli/rescaled_final/0422_fw.mp4	0.0	324.31716322898865	
64	280.6485540866852	fix_post	2		12	62.0	2.5	/experiments/AOT/AOT_stimuli/rescaled_final/0422_fw.mp4	0.0	324.42526721954346	0.09967899322509766
65	280.7482330799103	fix_pre	0		120	63.0	2.5	blank	1.0	324.52494621276855	1.000417947769165
65	281.74865102767944	movie	1		300	63.0	2.5	blank	1.0	325.5253641605377	2.4998819828033447
65	282.1321141719818	pulse	1	t		63.0	2.5	blank	1.0	325.9088273048401	
65	283.7319390773773	pulse	1	t		63.0	2.5	blank	1.0	327.5086522102356	
65	284.2485330104828	fix_post	2		12	63.0	2.5	blank	1.0	328.02524614334106	0.09999203681945801
66	284.34852504730225	fix_pre	0		119	64.0	2.5	/experiments/AOT/AOT_stimuli/rescaled_final/0081_fw.mp4	0.0	328.1252381801605	0.9916980266571045
66	285.3319790363312	pulse	0	t		64.0	2.5	/experiments/AOT/AOT_stimuli/rescaled_final/0081_fw.mp4	0.0	329.10869216918945	
66	285.34022307395935	movie	1		246	64.0	2.5	/experiments/AOT/AOT_stimuli/rescaled_final/0081_fw.mp4	0.0	329.1169362068176	2.5079710483551025
66	286.9313130378723	pulse	1	t		64.0	2.5	/experiments/AOT/AOT_stimuli/rescaled_final/0081_fw.mp4	0.0	330.7080261707306	
66	287.84819412231445	fix_post	2		12	64.0	2.5	/experiments/AOT/AOT_stimuli/rescaled_final/0081_fw.mp4	0.0	331.62490725517273	0.10001492500305176
67	287.9482090473175	fix_pre	0		120	65.0	2.5	/experiments/AOT/AOT_stimuli/rescaled_final/0557_rv.mp4	0.0	331.7249221801758	1.0000700950622559
67	288.53212308883667	pulse	0	t		65.0	2.5	/experiments/AOT/AOT_stimuli/rescaled_final/0557_rv.mp4	0.0	332.30883622169495	
67	288.94827914237976	movie	1		243	65.0	2.5	/experiments/AOT/AOT_stimuli/rescaled_final/0557_rv.mp4	0.0	332.72499227523804	2.4998269081115723
67	290.13207721710205	pulse	1	t		65.0	2.5	/experiments/AOT/AOT_stimuli/rescaled_final/0557_rv.mp4	0.0	333.9087903499603	
67	291.44810605049133	fix_post	2		12	65.0	2.5	/experiments/AOT/AOT_stimuli/rescaled_final/0557_rv.mp4	0.0	335.2248191833496	0.10037398338317871
68	291.5484800338745	fix_pre	0		120	66.0	2.5	/experiments/AOT/AOT_stimuli/rescaled_final/0140_fw.mp4	0.0	335.3251931667328	1.0001540184020996
68	291.7319710254669	pulse	0	t		66.0	2.5	/experiments/AOT/AOT_stimuli/rescaled_final/0140_fw.mp4	0.0	335.5086841583252	
68	292.5486340522766	movie	1		246	66.0	2.5	/experiments/AOT/AOT_stimuli/rescaled_final/0140_fw.mp4	0.0	336.3253471851349	2.4998080730438232
68	293.33194303512573	pulse	1	t		66.0	2.5	/experiments/AOT/AOT_stimuli/rescaled_final/0140_fw.mp4	0.0	337.108656167984	
68	294.94028902053833	pulse	1	t		66.0	2.5	/experiments/AOT/AOT_stimuli/rescaled_final/0140_fw.mp4	0.0	338.7170021533966	
68	295.04844212532043	fix_post	2		12	66.0	2.5	/experiments/AOT/AOT_stimuli/rescaled_final/0140_fw.mp4	0.0	338.8251552581787	0.10013604164123535
69	295.14857816696167	fix_pre	0		120	67.0	2.5	/experiments/AOT/AOT_stimuli/rescaled_final/2138_fw.mp4	0.0	338.92529129981995	0.9999010562896729
69	296.14847922325134	movie	1		243	67.0	2.5	/experiments/AOT/AOT_stimuli/rescaled_final/2138_fw.mp4	0.0	339.9251923561096	2.5000247955322266
69	296.5313341617584	pulse	1	t		67.0	2.5	/experiments/AOT/AOT_stimuli/rescaled_final/2138_fw.mp4	0.0	340.3080472946167	
69	298.1319100856781	pulse	1	t		67.0	2.5	/experiments/AOT/AOT_stimuli/rescaled_final/2138_fw.mp4	0.0	341.9086232185364	
69	298.64850401878357	fix_post	2		12	67.0	2.5	/experiments/AOT/AOT_stimuli/rescaled_final/2138_fw.mp4	0.0	342.42521715164185	0.09955215454101562
70	298.7480561733246	fix_pre	0		119	68.0	2.5	blank	1.0	342.52476930618286	0.9920058250427246
70	299.73195815086365	pulse	0	t		68.0	2.5	blank	1.0	343.5086712837219	
70	299.7400619983673	movie	1		301	68.0	2.5	blank	1.0	343.5167751312256	2.5083770751953125
70	301.3319191932678	pulse	1	t		68.0	2.5	blank	1.0	345.1086323261261	
70	302.2484390735626	fix_post	2		12	68.0	2.5	blank	1.0	346.0251522064209	0.09999799728393555
71	302.34843707084656	fix_pre	0		120	69.0	2.5	/experiments/AOT/AOT_stimuli/rescaled_final/0896_rv.mp4	0.0	346.12515020370483	1.000115156173706
71	302.9318850040436	pulse	0	t		69.0	2.5	/experiments/AOT/AOT_stimuli/rescaled_final/0896_rv.mp4	0.0	346.70859813690186	
71	303.34855222702026	movie	1		243	69.0	2.5	/experiments/AOT/AOT_stimuli/rescaled_final/0896_rv.mp4	0.0	347.12526535987854	2.4999258518218994
71	304.53199315071106	pulse	1	t		69.0	2.5	/experiments/AOT/AOT_stimuli/rescaled_final/0896_rv.mp4	0.0	348.30870628356934	
71	305.84847807884216	fix_post	2		12	69.0	2.5	/experiments/AOT/AOT_stimuli/rescaled_final/0896_rv.mp4	0.0	349.62519121170044	0.09996700286865234
72	305.9484450817108	fix_pre	0		120	70.0	2.5	/experiments/AOT/AOT_stimuli/rescaled_final/0399_fw.mp4	0.0	349.7251582145691	1.0000030994415283
72	306.13193821907043	pulse	0	t		70.0	2.5	/experiments/AOT/AOT_stimuli/rescaled_final/0399_fw.mp4	0.0	349.9086513519287	
72	306.94844818115234	movie	1		244	70.0	2.5	/experiments/AOT/AOT_stimuli/rescaled_final/0399_fw.mp4	0.0	350.7251613140106	2.4999430179595947
72	307.7318902015686	pulse	1	t		70.0	2.5	/experiments/AOT/AOT_stimuli/rescaled_final/0399_fw.mp4	0.0	351.5086033344269	
72	309.34034609794617	pulse	1	t		70.0	2.5	/experiments/AOT/AOT_stimuli/rescaled_final/0399_fw.mp4	0.0	353.11705923080444	
72	309.44839119911194	fix_post	2		12	70.0	2.5	/experiments/AOT/AOT_stimuli/rescaled_final/0399_fw.mp4	0.0	353.2251043319702	0.10005784034729004
73	309.54844903945923	fix_pre	0		120	71.0	2.5	/experiments/AOT/AOT_stimuli/rescaled_final/1345_fw.mp4	0.0	353.3251621723175	0.9995930194854736
73	310.5480420589447	movie	1		244	71.0	2.5	/experiments/AOT/AOT_stimuli/rescaled_final/1345_fw.mp4	0.0	354.324755191803	2.5003139972686768
73	310.9320352077484	pulse	1	t		71.0	2.5	/experiments/AOT/AOT_stimuli/rescaled_final/1345_fw.mp4	0.0	354.7087483406067	
73	312.5319311618805	pulse	1	t		71.0	2.5	/experiments/AOT/AOT_stimuli/rescaled_final/1345_fw.mp4	0.0	356.30864429473877	
73	313.0483560562134	fix_post	2		12	71.0	2.5	/experiments/AOT/AOT_stimuli/rescaled_final/1345_fw.mp4	0.0	356.82506918907166	0.10007500648498535
74	313.14843106269836	fix_pre	0		119	72.0	2.5	/experiments/AOT/AOT_stimuli/rescaled_final/1795_fw.mp4	0.0	356.92514419555664	0.99167799949646
74	314.13190507888794	pulse	0	t		72.0	2.5	/experiments/AOT/AOT_stimuli/rescaled_final/1795_fw.mp4	0.0	357.9086182117462	
74	314.1401090621948	movie	1		245	72.0	2.5	/experiments/AOT/AOT_stimuli/rescaled_final/1795_fw.mp4	0.0	357.9168221950531	2.5083301067352295
74	315.73196721076965	pulse	1	t		72.0	2.5	/experiments/AOT/AOT_stimuli/rescaled_final/1795_fw.mp4	0.0	359.50868034362793	
74	316.64843916893005	fix_post	2		12	72.0	2.5	/experiments/AOT/AOT_stimuli/rescaled_final/1795_fw.mp4	0.0	360.42515230178833	0.09992504119873047
75	316.7483642101288	fix_pre	0		120	73.0	2.5	/experiments/AOT/AOT_stimuli/rescaled_final/0333_fw.mp4	0.0	360.52507734298706	1.0000228881835938
75	317.33190512657166	pulse	0	t		73.0	2.5	/experiments/AOT/AOT_stimuli/rescaled_final/0333_fw.mp4	0.0	361.10861825942993	
75	317.7483870983124	movie	1		244	73.0	2.5	/experiments/AOT/AOT_stimuli/rescaled_final/0333_fw.mp4	0.0	361.52510023117065	2.500056028366089
75	318.93193912506104	pulse	1	t		73.0	2.5	/experiments/AOT/AOT_stimuli/rescaled_final/0333_fw.mp4	0.0	362.7086522579193	
75	320.24844312667847	fix_post	2		12	73.0	2.5	/experiments/AOT/AOT_stimuli/rescaled_final/0333_fw.mp4	0.0	364.02515625953674	0.09996700286865234
76	320.3484101295471	fix_pre	0		120	74.0	2.5	/experiments/AOT/AOT_stimuli/rescaled_final/2021_rv.mp4	0.0	364.1251232624054	0.99993896484375
76	320.5318431854248	pulse	0	t		74.0	2.5	/experiments/AOT/AOT_stimuli/rescaled_final/2021_rv.mp4	0.0	364.3085563182831	
76	321.34834909439087	movie	1		247	74.0	2.5	/experiments/AOT/AOT_stimuli/rescaled_final/2021_rv.mp4	0.0	365.12506222724915	2.4999890327453613
76	322.13188099861145	pulse	1	t		74.0	2.5	/experiments/AOT/AOT_stimuli/rescaled_final/2021_rv.mp4	0.0	365.9085941314697	
76	323.7314112186432	pulse	1	t		74.0	2.5	/experiments/AOT/AOT_stimuli/rescaled_final/2021_rv.mp4	0.0	367.50812435150146	
76	323.84833812713623	fix_post	2		12	74.0	2.5	/experiments/AOT/AOT_stimuli/rescaled_final/2021_rv.mp4	0.0	367.6250512599945	0.09960389137268066
77	323.9479420185089	fix_pre	0		120	75.0	2.5	/experiments/AOT/AOT_stimuli/rescaled_final/0602_fw.mp4	0.0	367.7246551513672	1.0004441738128662
77	324.9483861923218	movie	1		246	75.0	2.5	/experiments/AOT/AOT_stimuli/rescaled_final/0602_fw.mp4	0.0	368.72509932518005	2.4995458126068115
77	325.33146619796753	pulse	1	t		75.0	2.5	/experiments/AOT/AOT_stimuli/rescaled_final/0602_fw.mp4	0.0	369.1081793308258	
77	326.9318630695343	pulse	1	t		75.0	2.5	/experiments/AOT/AOT_stimuli/rescaled_final/0602_fw.mp4	0.0	370.7085762023926	
77	327.4479320049286	fix_post	2		12	75.0	2.5	/experiments/AOT/AOT_stimuli/rescaled_final/0602_fw.mp4	0.0	371.22464513778687	0.10032415390014648
78	327.54825615882874	fix_pre	0		119	76.0	2.5	blank	1.0	371.324969291687	0.9917469024658203
78	328.5318570137024	pulse	0	t		76.0	2.5	blank	1.0	372.30857014656067	
78	328.54000306129456	movie	1		301	76.0	2.5	blank	1.0	372.31671619415283	2.5082321166992188
78	330.13182520866394	pulse	1	t		76.0	2.5	blank	1.0	373.9085383415222	
78	331.0482351779938	fix_post	2		12	76.0	2.5	blank	1.0	374.82494831085205	0.10002303123474121
79	331.1482582092285	fix_pre	0		120	77.0	2.5	/experiments/AOT/AOT_stimuli/rescaled_final/1504_rv.mp4	0.0	374.9249713420868	0.9999959468841553
79	331.73189210891724	pulse	0	t		77.0	2.5	/experiments/AOT/AOT_stimuli/rescaled_final/1504_rv.mp4	0.0	375.5086052417755	
79	332.14825415611267	movie	1		245	77.0	2.5	/experiments/AOT/AOT_stimuli/rescaled_final/1504_rv.mp4	0.0	375.92496728897095	2.500001907348633
79	333.33186507225037	pulse	1	t		77.0	2.5	/experiments/AOT/AOT_stimuli/rescaled_final/1504_rv.mp4	0.0	377.10857820510864	
79	334.6482560634613	fix_post	2		12	77.0	2.5	/experiments/AOT/AOT_stimuli/rescaled_final/1504_rv.mp4	0.0	378.4249691963196	0.09997916221618652
80	334.7482352256775	fix_pre	0		120	78.0	2.5	/experiments/AOT/AOT_stimuli/rescaled_final/0188_fw.mp4	0.0	378.52494835853577	1.0000808238983154
80	334.9318280220032	pulse	0	t		78.0	2.5	/experiments/AOT/AOT_stimuli/rescaled_final/0188_fw.mp4	0.0	378.70854115486145	
80	335.7483160495758	movie	1		244	78.0	2.5	/experiments/AOT/AOT_stimuli/rescaled_final/0188_fw.mp4	0.0	379.5250291824341	2.499958038330078
80	336.53182315826416	pulse	1	t		78.0	2.5	/experiments/AOT/AOT_stimuli/rescaled_final/0188_fw.mp4	0.0	380.30853629112244	
80	338.13184905052185	pulse	1	t		78.0	2.5	/experiments/AOT/AOT_stimuli/rescaled_final/0188_fw.mp4	0.0	381.9085621833801	
80	338.2482740879059	fix_post	2		12	78.0	2.5	/experiments/AOT/AOT_stimuli/rescaled_final/0188_fw.mp4	0.0	382.02498722076416	0.1000070571899414
81	338.3482811450958	fix_pre	0		120	79.0	2.5	/experiments/AOT/AOT_stimuli/rescaled_final/0126_rv.mp4	0.0	382.1249942779541	0.9999399185180664
81	339.3482210636139	movie	1		243	79.0	2.5	/experiments/AOT/AOT_stimuli/rescaled_final/0126_rv.mp4	0.0	383.12493419647217	2.4996349811553955
81	339.73134303092957	pulse	1	t		79.0	2.5	/experiments/AOT/AOT_stimuli/rescaled_final/0126_rv.mp4	0.0	383.50805616378784	
81	341.3317542076111	pulse	1	t		79.0	2.5	/experiments/AOT/AOT_stimuli/rescaled_final/0126_rv.mp4	0.0	385.10846734046936	
81	341.8478560447693	fix_post	2		12	79.0	2.5	/experiments/AOT/AOT_stimuli/rescaled_final/0126_rv.mp4	0.0	385.62456917762756	0.10043001174926758
82	341.94828605651855	fix_pre	0		119	80.0	2.5	/experiments/AOT/AOT_stimuli/rescaled_final/0714_rv.mp4	0.0	385.72499918937683	0.9916610717773438
82	342.93134212493896	pulse	0	t		80.0	2.5	/experiments/AOT/AOT_stimuli/rescaled_final/0714_rv.mp4	0.0	386.70805525779724	
82	342.9399471282959	movie	1		247	80.0	2.5	/experiments/AOT/AOT_stimuli/rescaled_final/0714_rv.mp4	0.0	386.7166602611542	2.5081870555877686
82	344.5315761566162	pulse	1	t		80.0	2.5	/experiments/AOT/AOT_stimuli/rescaled_final/0714_rv.mp4	0.0	388.3082892894745	
82	345.44813418388367	fix_post	2		12	80.0	2.5	/experiments/AOT/AOT_stimuli/rescaled_final/0714_rv.mp4	0.0	389.22484731674194	0.09999489784240723
83	345.5481290817261	fix_pre	0		120	81.0	2.5	/experiments/AOT/AOT_stimuli/rescaled_final/0519_rv.mp4	0.0	389.32484221458435	1.0001530647277832
83	346.13172721862793	pulse	0	t		81.0	2.5	/experiments/AOT/AOT_stimuli/rescaled_final/0519_rv.mp4	0.0	389.9084403514862	
83	346.54828214645386	movie	1		246	81.0	2.5	/experiments/AOT/AOT_stimuli/rescaled_final/0519_rv.mp4	0.0	390.32499527931213	2.5000500679016113
83	347.73183608055115	pulse	1	t		81.0	2.5	/experiments/AOT/AOT_stimuli/rescaled_final/0519_rv.mp4	0.0	391.5085492134094	
83	349.04833221435547	fix_post	2		12	81.0	2.5	/experiments/AOT/AOT_stimuli/rescaled_final/0519_rv.mp4	0.0	392.82504534721375	0.09991979598999023
84	349.14825201034546	fix_pre	0		120	82.0	2.5	/experiments/AOT/AOT_stimuli/rescaled_final/0960_rv.mp4	0.0	392.92496514320374	0.9999899864196777
84	349.3317000865936	pulse	0	t		82.0	2.5	/experiments/AOT/AOT_stimuli/rescaled_final/0960_rv.mp4	0.0	393.1084132194519	
84	350.14824199676514	movie	1		243	82.0	2.5	/experiments/AOT/AOT_stimuli/rescaled_final/0960_rv.mp4	0.0	393.9249551296234	2.499990224838257
84	350.9316260814667	pulse	1	t		82.0	2.5	/experiments/AOT/AOT_stimuli/rescaled_final/0960_rv.mp4	0.0	394.70833921432495	
84	352.5400960445404	pulse	1	t		82.0	2.5	/experiments/AOT/AOT_stimuli/rescaled_final/0960_rv.mp4	0.0	396.3168091773987	
84	352.6482322216034	fix_post	2		12	82.0	2.5	/experiments/AOT/AOT_stimuli/rescaled_final/0960_rv.mp4	0.0	396.42494535446167	0.10009384155273438
85	352.7483260631561	fix_pre	0		120	83.0	2.5	blank	1.0	396.5250391960144	0.999439001083374
85	353.7477650642395	movie	1		300	83.0	2.5	blank	1.0	397.5244781970978	2.5003321170806885
85	354.1317021846771	pulse	1	t		83.0	2.5	blank	1.0	397.9084153175354	
85	355.7315881252289	pulse	1	t		83.0	2.5	blank	1.0	399.50830125808716	
85	356.2480971813202	fix_post	2		12	83.0	2.5	blank	1.0	400.02481031417847	0.10006284713745117
87	356.34816002845764	stim	0		1716					400.1248731613159	14.300042152404785
87	357.33165311813354	pulse	0	t						401.1083662509918	
87	358.9316530227661	pulse	0	t						402.7083661556244	
87	360.531622171402	pulse	0	t						404.30833530426025	
87	362.1317071914673	pulse	0	t						405.90842032432556	
87	363.7316620349884	pulse	0	t						407.5083751678467	
87	365.3316011428833	pulse	0	t						409.1083142757416	
87	366.9316530227661	pulse	0	t						410.7083661556244	
87	368.53163719177246	pulse	0	t						412.30835032463074	
87	370.1315801143646	pulse	0	t						413.9082932472229	
