trial_nr	onset	event_type	phase	response	nr_frames	movie_index	movie_duration	movie_file	blank	onset_abs	duration
0	0.1498720645904541	stim	0		148					21.612287998199463	1.2334389686584473
0	1.3752710819244385	response	0	space						22.837687015533447	
1	1.3833110332489014	stim	0		2820					22.84572696685791	23.49981188774109
1	24.879003047943115	pulse	0	t						46.341418981552124	
1	24.88312292098999	stim	1		1717					46.345538854599	14.307847023010254
1	26.47502303123474	pulse	1	t						47.93743896484375	
1	28.075031042099	pulse	1	t						49.53744697570801	
1	29.674933910369873	pulse	1	t						51.13734984397888	
1	31.27495503425598	pulse	1	t						52.73737096786499	
1	32.87494206428528	pulse	1	t						54.33735799789429	
1	34.474931955337524	pulse	1	t						55.93734788894653	
1	36.07500600814819	pulse	1	t						57.5374219417572	
1	37.674968004226685	pulse	1	t						59.13738393783569	
2	39.190969944000244	fix_pre	0		11	0.0	2.5	/experiments/AOT/AOT_stimuli/rescaled_final/1729_fw.mp4	0.0	60.65338587760925	0.0916740894317627
2	39.274532079696655	pulse	0	t		0.0	2.5	/experiments/AOT/AOT_stimuli/rescaled_final/1729_fw.mp4	0.0	60.736948013305664	
2	39.28264403343201	movie	1		243	0.0	2.5	/experiments/AOT/AOT_stimuli/rescaled_final/1729_fw.mp4	0.0	60.745059967041016	2.508708953857422
2	40.87417197227478	pulse	1	t		0.0	2.5	/experiments/AOT/AOT_stimuli/rescaled_final/1729_fw.mp4	0.0	62.33658790588379	
2	41.79135298728943	fix_post	2		12	0.0	2.5	/experiments/AOT/AOT_stimuli/rescaled_final/1729_fw.mp4	0.0	63.25376892089844	0.09999799728393555
3	41.891350984573364	fix_pre	0		120	1.0	2.5	/experiments/AOT/AOT_stimuli/rescaled_final/1543_rv.mp4	0.0	63.35376691818237	1.0001740455627441
3	42.47497797012329	pulse	0	t		1.0	2.5	/experiments/AOT/AOT_stimuli/rescaled_final/1543_rv.mp4	0.0	63.9373939037323	
3	42.89152503013611	movie	1		244	1.0	2.5	/experiments/AOT/AOT_stimuli/rescaled_final/1543_rv.mp4	0.0	64.35394096374512	2.4999139308929443
3	44.0750470161438	pulse	1	t		1.0	2.5	/experiments/AOT/AOT_stimuli/rescaled_final/1543_rv.mp4	0.0	65.53746294975281	
3	45.39143896102905	fix_post	2		12	1.0	2.5	/experiments/AOT/AOT_stimuli/rescaled_final/1543_rv.mp4	0.0	66.85385489463806	0.10009407997131348
4	45.491533041000366	fix_pre	0		120	2.0	2.5	/experiments/AOT/AOT_stimuli/rescaled_final/0267_fw.mp4	0.0	66.95394897460938	0.9998648166656494
4	45.6748480796814	pulse	0	t		2.0	2.5	/experiments/AOT/AOT_stimuli/rescaled_final/0267_fw.mp4	0.0	67.1372640132904	
4	46.491397857666016	movie	1		245	2.0	2.5	/experiments/AOT/AOT_stimuli/rescaled_final/0267_fw.mp4	0.0	67.95381379127502	2.499652147293091
4	47.274823904037476	pulse	1	t		2.0	2.5	/experiments/AOT/AOT_stimuli/rescaled_final/0267_fw.mp4	0.0	68.73723983764648	
4	48.87092995643616	pulse	1	t		2.0	2.5	/experiments/AOT/AOT_stimuli/rescaled_final/0267_fw.mp4	0.0	70.33334589004517	
4	48.991050004959106	fix_post	2		12	2.0	2.5	/experiments/AOT/AOT_stimuli/rescaled_final/0267_fw.mp4	0.0	70.45346593856812	0.10027098655700684
5	49.09132099151611	fix_pre	0		120	3.0	2.5	/experiments/AOT/AOT_stimuli/rescaled_final/1705_rv.mp4	0.0	70.55373692512512	0.9999949932098389
5	50.09131598472595	movie	1		245	3.0	2.5	/experiments/AOT/AOT_stimuli/rescaled_final/1705_rv.mp4	0.0	71.55373191833496	2.500051975250244
5	50.4759578704834	pulse	1	t		3.0	2.5	/experiments/AOT/AOT_stimuli/rescaled_final/1705_rv.mp4	0.0	71.93837380409241	
5	52.074886083602905	pulse	1	t		3.0	2.5	/experiments/AOT/AOT_stimuli/rescaled_final/1705_rv.mp4	0.0	73.53730201721191	
5	52.591367959976196	fix_post	2		12	3.0	2.5	/experiments/AOT/AOT_stimuli/rescaled_final/1705_rv.mp4	0.0	74.0537838935852	0.09996891021728516
6	52.69133687019348	fix_pre	0		119	4.0	2.5	/experiments/AOT/AOT_stimuli/rescaled_final/0267_rv.mp4	0.0	74.15375280380249	0.9917211532592773
6	53.67480397224426	pulse	0	t		4.0	2.5	/experiments/AOT/AOT_stimuli/rescaled_final/0267_rv.mp4	0.0	75.13721990585327	
6	53.68305802345276	movie	1		248	4.0	2.5	/experiments/AOT/AOT_stimuli/rescaled_final/0267_rv.mp4	0.0	75.14547395706177	2.5083110332489014
6	55.27610802650452	pulse	1	t		4.0	2.5	/experiments/AOT/AOT_stimuli/rescaled_final/0267_rv.mp4	0.0	76.73852396011353	
6	56.19136905670166	fix_post	2		12	4.0	2.5	/experiments/AOT/AOT_stimuli/rescaled_final/0267_rv.mp4	0.0	77.65378499031067	0.0999608039855957
7	56.291329860687256	fix_pre	0		120	5.0	2.5	/experiments/AOT/AOT_stimuli/rescaled_final/2029_rv.mp4	0.0	77.75374579429626	1.000063180923462
7	56.87483096122742	pulse	0	t		5.0	2.5	/experiments/AOT/AOT_stimuli/rescaled_final/2029_rv.mp4	0.0	78.33724689483643	
7	57.29139304161072	movie	1		247	5.0	2.5	/experiments/AOT/AOT_stimuli/rescaled_final/2029_rv.mp4	0.0	78.75380897521973	2.5000059604644775
7	58.47493386268616	pulse	1	t		5.0	2.5	/experiments/AOT/AOT_stimuli/rescaled_final/2029_rv.mp4	0.0	79.93734979629517	
7	59.791399002075195	fix_post	2		12	5.0	2.5	/experiments/AOT/AOT_stimuli/rescaled_final/2029_rv.mp4	0.0	81.2538149356842	0.09993791580200195
8	59.8913369178772	fix_pre	0		120	6.0	2.5	blank	1.0	81.3537528514862	0.9999780654907227
8	60.07483887672424	pulse	0	t		6.0	2.5	blank	1.0	81.53725481033325	
8	60.89131498336792	movie	1		300	6.0	2.5	blank	1.0	82.35373091697693	2.5000030994415283
8	61.67482900619507	pulse	1	t		6.0	2.5	blank	1.0	83.13724493980408	
8	63.27480387687683	pulse	1	t		6.0	2.5	blank	1.0	84.73721981048584	
8	63.39131808280945	fix_post	2		12	6.0	2.5	blank	1.0	84.85373401641846	0.1000068187713623
9	63.49132490158081	fix_pre	0		120	7.0	2.5	/experiments/AOT/AOT_stimuli/rescaled_final/0708_rv.mp4	0.0	84.95374083518982	0.9999501705169678
9	64.49127507209778	movie	1		244	7.0	2.5	/experiments/AOT/AOT_stimuli/rescaled_final/0708_rv.mp4	0.0	85.95369100570679	2.4996678829193115
9	64.87440800666809	pulse	1	t		7.0	2.5	/experiments/AOT/AOT_stimuli/rescaled_final/0708_rv.mp4	0.0	86.3368239402771	
9	66.47488903999329	pulse	1	t		7.0	2.5	/experiments/AOT/AOT_stimuli/rescaled_final/0708_rv.mp4	0.0	87.9373049736023	
9	66.99094295501709	fix_post	2		12	7.0	2.5	/experiments/AOT/AOT_stimuli/rescaled_final/0708_rv.mp4	0.0	88.4533588886261	0.10037899017333984
10	67.09132194519043	fix_pre	0		119	8.0	2.5	/experiments/AOT/AOT_stimuli/rescaled_final/0193_rv.mp4	0.0	88.55373787879944	0.99161696434021
10	68.07479906082153	pulse	0	t		8.0	2.5	/experiments/AOT/AOT_stimuli/rescaled_final/0193_rv.mp4	0.0	89.53721499443054	
10	68.08293890953064	movie	1		244	8.0	2.5	/experiments/AOT/AOT_stimuli/rescaled_final/0193_rv.mp4	0.0	89.54535484313965	2.5082759857177734
10	69.67447805404663	pulse	1	t		8.0	2.5	/experiments/AOT/AOT_stimuli/rescaled_final/0193_rv.mp4	0.0	91.13689398765564	
10	70.59121489524841	fix_post	2		12	8.0	2.5	/experiments/AOT/AOT_stimuli/rescaled_final/0193_rv.mp4	0.0	92.05363082885742	0.10012102127075195
11	70.69133591651917	fix_pre	0		120	9.0	2.5	/experiments/AOT/AOT_stimuli/rescaled_final/1387_fw.mp4	0.0	92.15375185012817	0.9999940395355225
11	71.27477192878723	pulse	0	t		9.0	2.5	/experiments/AOT/AOT_stimuli/rescaled_final/1387_fw.mp4	0.0	92.73718786239624	
11	71.69132995605469	movie	1		245	9.0	2.5	/experiments/AOT/AOT_stimuli/rescaled_final/1387_fw.mp4	0.0	93.1537458896637	2.4999289512634277
11	72.87484407424927	pulse	1	t		9.0	2.5	/experiments/AOT/AOT_stimuli/rescaled_final/1387_fw.mp4	0.0	94.33726000785828	
11	74.19125890731812	fix_post	2		12	9.0	2.5	/experiments/AOT/AOT_stimuli/rescaled_final/1387_fw.mp4	0.0	95.65367484092712	0.09994316101074219
12	74.29120206832886	fix_pre	0		120	10.0	2.5	/experiments/AOT/AOT_stimuli/rescaled_final/1387_rv.mp4	0.0	95.75361800193787	1.0000529289245605
12	74.47469687461853	pulse	0	t		10.0	2.5	/experiments/AOT/AOT_stimuli/rescaled_final/1387_rv.mp4	0.0	95.93711280822754	
12	75.29125499725342	movie	1		245	10.0	2.5	/experiments/AOT/AOT_stimuli/rescaled_final/1387_rv.mp4	0.0	96.75367093086243	2.499959945678711
12	76.0748028755188	pulse	1	t		10.0	2.5	/experiments/AOT/AOT_stimuli/rescaled_final/1387_rv.mp4	0.0	97.53721880912781	
12	77.67337989807129	pulse	1	t		10.0	2.5	/experiments/AOT/AOT_stimuli/rescaled_final/1387_rv.mp4	0.0	99.1357958316803	
12	77.79121494293213	fix_post	2		12	10.0	2.5	/experiments/AOT/AOT_stimuli/rescaled_final/1387_rv.mp4	0.0	99.25363087654114	0.10007405281066895
13	77.8912889957428	fix_pre	0		120	11.0	2.5	/experiments/AOT/AOT_stimuli/rescaled_final/0644_rv.mp4	0.0	99.3537049293518	0.9998970031738281
13	78.89118599891663	movie	1		245	11.0	2.5	/experiments/AOT/AOT_stimuli/rescaled_final/0644_rv.mp4	0.0	100.35360193252563	2.500002861022949
13	79.27474188804626	pulse	1	t		11.0	2.5	/experiments/AOT/AOT_stimuli/rescaled_final/0644_rv.mp4	0.0	100.73715782165527	
13	80.87476992607117	pulse	1	t		11.0	2.5	/experiments/AOT/AOT_stimuli/rescaled_final/0644_rv.mp4	0.0	102.33718585968018	
13	81.39118885993958	fix_post	2		12	11.0	2.5	/experiments/AOT/AOT_stimuli/rescaled_final/0644_rv.mp4	0.0	102.85360479354858	0.10005521774291992
14	81.4912440776825	fix_pre	0		119	12.0	2.5	/experiments/AOT/AOT_stimuli/rescaled_final/1852_rv.mp4	0.0	102.9536600112915	0.991588830947876
14	82.47474884986877	pulse	0	t		12.0	2.5	/experiments/AOT/AOT_stimuli/rescaled_final/1852_rv.mp4	0.0	103.93716478347778	
14	82.48283290863037	movie	1		246	12.0	2.5	/experiments/AOT/AOT_stimuli/rescaled_final/1852_rv.mp4	0.0	103.94524884223938	2.5083670616149902
14	84.0745689868927	pulse	1	t		12.0	2.5	/experiments/AOT/AOT_stimuli/rescaled_final/1852_rv.mp4	0.0	105.53698492050171	
14	84.99119997024536	fix_post	2		12	12.0	2.5	/experiments/AOT/AOT_stimuli/rescaled_final/1852_rv.mp4	0.0	106.45361590385437	0.10001492500305176
15	85.09121489524841	fix_pre	0		120	13.0	2.5	blank	1.0	106.55363082885742	1.0000519752502441
15	85.67470908164978	pulse	0	t		13.0	2.5	blank	1.0	107.13712501525879	
15	86.09126687049866	movie	1		300	13.0	2.5	blank	1.0	107.55368280410767	2.4998960494995117
15	87.27474999427795	pulse	1	t		13.0	2.5	blank	1.0	108.73716592788696	
15	88.59116291999817	fix_post	2		12	13.0	2.5	blank	1.0	110.05357885360718	0.10010313987731934
16	88.69126605987549	fix_pre	0		120	14.0	2.5	/experiments/AOT/AOT_stimuli/rescaled_final/0477_rv.mp4	0.0	110.1536819934845	0.9998979568481445
16	88.87476205825806	pulse	0	t		14.0	2.5	/experiments/AOT/AOT_stimuli/rescaled_final/0477_rv.mp4	0.0	110.33717799186707	
16	89.69116401672363	movie	1		243	14.0	2.5	/experiments/AOT/AOT_stimuli/rescaled_final/0477_rv.mp4	0.0	111.15357995033264	2.500138998031616
16	90.4746470451355	pulse	1	t		14.0	2.5	/experiments/AOT/AOT_stimuli/rescaled_final/0477_rv.mp4	0.0	111.9370629787445	
16	92.07342386245728	pulse	1	t		14.0	2.5	/experiments/AOT/AOT_stimuli/rescaled_final/0477_rv.mp4	0.0	113.53583979606628	
16	92.19130301475525	fix_post	2		12	14.0	2.5	/experiments/AOT/AOT_stimuli/rescaled_final/0477_rv.mp4	0.0	113.65371894836426	0.0997769832611084
17	92.29107999801636	fix_pre	0		120	15.0	2.5	/experiments/AOT/AOT_stimuli/rescaled_final/1309_rv.mp4	0.0	113.75349593162537	1.0001978874206543
17	93.29127788543701	movie	1		246	15.0	2.5	/experiments/AOT/AOT_stimuli/rescaled_final/1309_rv.mp4	0.0	114.75369381904602	2.4995791912078857
17	93.67485690116882	pulse	1	t		15.0	2.5	/experiments/AOT/AOT_stimuli/rescaled_final/1309_rv.mp4	0.0	115.13727283477783	
17	95.2745749950409	pulse	1	t		15.0	2.5	/experiments/AOT/AOT_stimuli/rescaled_final/1309_rv.mp4	0.0	116.7369909286499	
17	95.7908570766449	fix_post	2		12	15.0	2.5	/experiments/AOT/AOT_stimuli/rescaled_final/1309_rv.mp4	0.0	117.2532730102539	0.0999448299407959
18	95.8908019065857	fix_pre	0		119	16.0	2.5	/experiments/AOT/AOT_stimuli/rescaled_final/1091_rv.mp4	0.0	117.3532178401947	0.992264986038208
18	96.87445092201233	pulse	0	t		16.0	2.5	/experiments/AOT/AOT_stimuli/rescaled_final/1091_rv.mp4	0.0	118.33686685562134	
18	96.8830668926239	movie	1		246	16.0	2.5	/experiments/AOT/AOT_stimuli/rescaled_final/1091_rv.mp4	0.0	118.34548282623291	2.508082151412964
18	98.47433590888977	pulse	1	t		16.0	2.5	/experiments/AOT/AOT_stimuli/rescaled_final/1091_rv.mp4	0.0	119.93675184249878	
18	99.39114904403687	fix_post	2		12	16.0	2.5	/experiments/AOT/AOT_stimuli/rescaled_final/1091_rv.mp4	0.0	120.85356497764587	0.09951591491699219
19	99.49066495895386	fix_pre	0		120	17.0	2.5	/experiments/AOT/AOT_stimuli/rescaled_final/0389_fw.mp4	0.0	120.95308089256287	1.0005040168762207
19	100.0746009349823	pulse	0	t		17.0	2.5	/experiments/AOT/AOT_stimuli/rescaled_final/0389_fw.mp4	0.0	121.53701686859131	
19	100.49116897583008	movie	1		245	17.0	2.5	/experiments/AOT/AOT_stimuli/rescaled_final/0389_fw.mp4	0.0	121.95358490943909	2.499979019165039
19	101.67465305328369	pulse	1	t		17.0	2.5	/experiments/AOT/AOT_stimuli/rescaled_final/0389_fw.mp4	0.0	123.1370689868927	
19	102.99114799499512	fix_post	2		12	17.0	2.5	/experiments/AOT/AOT_stimuli/rescaled_final/0389_fw.mp4	0.0	124.45356392860413	0.09997987747192383
20	103.09112787246704	fix_pre	0		120	18.0	2.5	/experiments/AOT/AOT_stimuli/rescaled_final/0724_fw.mp4	0.0	124.55354380607605	0.9999151229858398
20	103.27460789680481	pulse	0	t		18.0	2.5	/experiments/AOT/AOT_stimuli/rescaled_final/0724_fw.mp4	0.0	124.73702383041382	
20	104.09104299545288	movie	1		248	18.0	2.5	/experiments/AOT/AOT_stimuli/rescaled_final/0724_fw.mp4	0.0	125.55345892906189	2.500072956085205
20	104.87454605102539	pulse	1	t		18.0	2.5	/experiments/AOT/AOT_stimuli/rescaled_final/0724_fw.mp4	0.0	126.3369619846344	
20	106.47458791732788	pulse	1	t		18.0	2.5	/experiments/AOT/AOT_stimuli/rescaled_final/0724_fw.mp4	0.0	127.93700385093689	
20	106.59111595153809	fix_post	2		12	18.0	2.5	/experiments/AOT/AOT_stimuli/rescaled_final/0724_fw.mp4	0.0	128.0535318851471	0.09996891021728516
21	106.69108486175537	fix_pre	0		120	19.0	2.5	/experiments/AOT/AOT_stimuli/rescaled_final/1395_rv.mp4	0.0	128.15350079536438	1.0000030994415283
21	107.6910879611969	movie	1		243	19.0	2.5	/experiments/AOT/AOT_stimuli/rescaled_final/1395_rv.mp4	0.0	129.1535038948059	2.4999771118164062
21	108.0742540359497	pulse	1	t		19.0	2.5	/experiments/AOT/AOT_stimuli/rescaled_final/1395_rv.mp4	0.0	129.53666996955872	
21	109.67457699775696	pulse	1	t		19.0	2.5	/experiments/AOT/AOT_stimuli/rescaled_final/1395_rv.mp4	0.0	131.13699293136597	
21	110.1910650730133	fix_post	2		12	19.0	2.5	/experiments/AOT/AOT_stimuli/rescaled_final/1395_rv.mp4	0.0	131.65348100662231	0.1000068187713623
22	110.29107189178467	fix_pre	0		119	20.0	2.5	blank	1.0	131.75348782539368	0.9916391372680664
22	111.27453804016113	pulse	0	t		20.0	2.5	blank	1.0	132.73695397377014	
22	111.28271102905273	movie	1		301	20.0	2.5	blank	1.0	132.74512696266174	2.508384943008423
22	112.87458086013794	pulse	1	t		20.0	2.5	blank	1.0	134.33699679374695	
22	113.79109597206116	fix_post	2		12	20.0	2.5	blank	1.0	135.25351190567017	0.09996294975280762
23	113.89105892181396	fix_pre	0		120	21.0	2.5	/experiments/AOT/AOT_stimuli/rescaled_final/0400_fw.mp4	0.0	135.35347485542297	0.9999771118164062
23	114.47452688217163	pulse	0	t		21.0	2.5	/experiments/AOT/AOT_stimuli/rescaled_final/0400_fw.mp4	0.0	135.93694281578064	
23	114.89103603363037	movie	1		246	21.0	2.5	/experiments/AOT/AOT_stimuli/rescaled_final/0400_fw.mp4	0.0	136.35345196723938	2.500035047531128
23	116.07459688186646	pulse	1	t		21.0	2.5	/experiments/AOT/AOT_stimuli/rescaled_final/0400_fw.mp4	0.0	137.53701281547546	
23	117.3910710811615	fix_post	2		12	21.0	2.5	/experiments/AOT/AOT_stimuli/rescaled_final/0400_fw.mp4	0.0	138.8534870147705	0.10010385513305664
24	117.49117493629456	fix_pre	0		120	22.0	2.5	/experiments/AOT/AOT_stimuli/rescaled_final/0486_fw.mp4	0.0	138.95359086990356	0.99989914894104
24	117.67455291748047	pulse	0	t		22.0	2.5	/experiments/AOT/AOT_stimuli/rescaled_final/0486_fw.mp4	0.0	139.13696885108948	
24	118.4910740852356	movie	1		245	22.0	2.5	/experiments/AOT/AOT_stimuli/rescaled_final/0486_fw.mp4	0.0	139.9534900188446	2.4999499320983887
24	119.2745590209961	pulse	1	t		22.0	2.5	/experiments/AOT/AOT_stimuli/rescaled_final/0486_fw.mp4	0.0	140.7369749546051	
24	120.87302708625793	pulse	1	t		22.0	2.5	/experiments/AOT/AOT_stimuli/rescaled_final/0486_fw.mp4	0.0	142.33544301986694	
24	120.99102401733398	fix_post	2		12	22.0	2.5	/experiments/AOT/AOT_stimuli/rescaled_final/0486_fw.mp4	0.0	142.453439950943	0.09995198249816895
25	121.09097599983215	fix_pre	0		120	23.0	2.5	/experiments/AOT/AOT_stimuli/rescaled_final/0419_fw.mp4	0.0	142.55339193344116	1.0000910758972168
25	122.09106707572937	movie	1		244	23.0	2.5	/experiments/AOT/AOT_stimuli/rescaled_final/0419_fw.mp4	0.0	143.55348300933838	2.500034809112549
25	122.47404098510742	pulse	1	t		23.0	2.5	/experiments/AOT/AOT_stimuli/rescaled_final/0419_fw.mp4	0.0	143.93645691871643	
25	124.07440304756165	pulse	1	t		23.0	2.5	/experiments/AOT/AOT_stimuli/rescaled_final/0419_fw.mp4	0.0	145.53681898117065	
25	124.59110188484192	fix_post	2		12	23.0	2.5	/experiments/AOT/AOT_stimuli/rescaled_final/0419_fw.mp4	0.0	146.05351781845093	0.09990811347961426
26	124.69100999832153	fix_pre	0		119	24.0	2.5	/experiments/AOT/AOT_stimuli/rescaled_final/1885_rv.mp4	0.0	146.15342593193054	0.9916799068450928
26	125.67453789710999	pulse	0	t		24.0	2.5	/experiments/AOT/AOT_stimuli/rescaled_final/1885_rv.mp4	0.0	147.136953830719	
26	125.68268990516663	movie	1		245	24.0	2.5	/experiments/AOT/AOT_stimuli/rescaled_final/1885_rv.mp4	0.0	147.14510583877563	2.5083839893341064
26	127.27419304847717	pulse	1	t		24.0	2.5	/experiments/AOT/AOT_stimuli/rescaled_final/1885_rv.mp4	0.0	148.73660898208618	
26	128.19107389450073	fix_post	2		12	24.0	2.5	/experiments/AOT/AOT_stimuli/rescaled_final/1885_rv.mp4	0.0	149.65348982810974	0.09994697570800781
27	128.29102087020874	fix_pre	0		120	25.0	2.5	/experiments/AOT/AOT_stimuli/rescaled_final/1008_rv.mp4	0.0	149.75343680381775	1.0000500679016113
27	128.87450194358826	pulse	0	t		25.0	2.5	/experiments/AOT/AOT_stimuli/rescaled_final/1008_rv.mp4	0.0	150.33691787719727	
27	129.29107093811035	movie	1		243	25.0	2.5	/experiments/AOT/AOT_stimuli/rescaled_final/1008_rv.mp4	0.0	150.75348687171936	2.499527931213379
27	130.47460103034973	pulse	1	t		25.0	2.5	/experiments/AOT/AOT_stimuli/rescaled_final/1008_rv.mp4	0.0	151.93701696395874	
27	131.79059886932373	fix_post	2		12	25.0	2.5	/experiments/AOT/AOT_stimuli/rescaled_final/1008_rv.mp4	0.0	153.25301480293274	0.1003870964050293
28	131.89098596572876	fix_pre	0		120	26.0	2.5	blank	1.0	153.35340189933777	1.0000131130218506
28	132.07453799247742	pulse	0	t		26.0	2.5	blank	1.0	153.53695392608643	
28	132.8909990787506	movie	1		300	26.0	2.5	blank	1.0	154.35341501235962	2.5000109672546387
28	133.67451906204224	pulse	1	t		26.0	2.5	blank	1.0	155.13693499565125	
28	135.2744059562683	pulse	1	t		26.0	2.5	blank	1.0	156.73682188987732	
28	135.39101004600525	fix_post	2		12	26.0	2.5	blank	1.0	156.85342597961426	0.10006093978881836
29	135.49107098579407	fix_pre	0		120	27.0	2.5	/experiments/AOT/AOT_stimuli/rescaled_final/1227_fw.mp4	0.0	156.95348691940308	0.9998769760131836
29	136.49094796180725	movie	1		245	27.0	2.5	/experiments/AOT/AOT_stimuli/rescaled_final/1227_fw.mp4	0.0	157.95336389541626	2.500041961669922
29	136.8747010231018	pulse	1	t		27.0	2.5	/experiments/AOT/AOT_stimuli/rescaled_final/1227_fw.mp4	0.0	158.33711695671082	
29	138.47445702552795	pulse	1	t		27.0	2.5	/experiments/AOT/AOT_stimuli/rescaled_final/1227_fw.mp4	0.0	159.93687295913696	
29	138.99098992347717	fix_post	2		12	27.0	2.5	/experiments/AOT/AOT_stimuli/rescaled_final/1227_fw.mp4	0.0	160.45340585708618	0.09999704360961914
30	139.0909869670868	fix_pre	0		119	28.0	2.5	/experiments/AOT/AOT_stimuli/rescaled_final/1885_fw.mp4	0.0	160.5534029006958	0.9916579723358154
30	140.07444596290588	pulse	0	t		28.0	2.5	/experiments/AOT/AOT_stimuli/rescaled_final/1885_fw.mp4	0.0	161.5368618965149	
30	140.0826449394226	movie	1		245	28.0	2.5	/experiments/AOT/AOT_stimuli/rescaled_final/1885_fw.mp4	0.0	161.54506087303162	2.507810115814209
30	141.67396903038025	pulse	1	t		28.0	2.5	/experiments/AOT/AOT_stimuli/rescaled_final/1885_fw.mp4	0.0	163.13638496398926	
30	142.59045505523682	fix_post	2		12	28.0	2.5	/experiments/AOT/AOT_stimuli/rescaled_final/1885_fw.mp4	0.0	164.05287098884583	0.10044693946838379
31	142.6909019947052	fix_pre	0		120	29.0	2.5	/experiments/AOT/AOT_stimuli/rescaled_final/1889_fw.mp4	0.0	164.1533179283142	1.0000479221343994
31	143.27443504333496	pulse	0	t		29.0	2.5	/experiments/AOT/AOT_stimuli/rescaled_final/1889_fw.mp4	0.0	164.73685097694397	
31	143.6909499168396	movie	1		245	29.0	2.5	/experiments/AOT/AOT_stimuli/rescaled_final/1889_fw.mp4	0.0	165.1533658504486	2.4999821186065674
31	144.87443494796753	pulse	1	t		29.0	2.5	/experiments/AOT/AOT_stimuli/rescaled_final/1889_fw.mp4	0.0	166.33685088157654	
31	146.19093203544617	fix_post	2		12	29.0	2.5	/experiments/AOT/AOT_stimuli/rescaled_final/1889_fw.mp4	0.0	167.65334796905518	0.09999203681945801
32	146.29092407226562	fix_pre	0		120	30.0	2.5	/experiments/AOT/AOT_stimuli/rescaled_final/1481_rv.mp4	0.0	167.75334000587463	1.0000648498535156
32	146.47442889213562	pulse	0	t		30.0	2.5	/experiments/AOT/AOT_stimuli/rescaled_final/1481_rv.mp4	0.0	167.93684482574463	
32	147.29098892211914	movie	1		243	30.0	2.5	/experiments/AOT/AOT_stimuli/rescaled_final/1481_rv.mp4	0.0	168.75340485572815	2.49989914894104
32	148.07443284988403	pulse	1	t		30.0	2.5	/experiments/AOT/AOT_stimuli/rescaled_final/1481_rv.mp4	0.0	169.53684878349304	
32	149.67269897460938	pulse	1	t		30.0	2.5	/experiments/AOT/AOT_stimuli/rescaled_final/1481_rv.mp4	0.0	171.13511490821838	
32	149.79088807106018	fix_post	2		12	30.0	2.5	/experiments/AOT/AOT_stimuli/rescaled_final/1481_rv.mp4	0.0	171.2533040046692	0.09997081756591797
33	149.8908588886261	fix_pre	0		120	31.0	2.5	/experiments/AOT/AOT_stimuli/rescaled_final/1555_fw.mp4	0.0	171.3532748222351	0.999993085861206
33	150.8908519744873	movie	1		244	31.0	2.5	/experiments/AOT/AOT_stimuli/rescaled_final/1555_fw.mp4	0.0	172.3532679080963	2.499898910522461
33	151.27358603477478	pulse	1	t		31.0	2.5	/experiments/AOT/AOT_stimuli/rescaled_final/1555_fw.mp4	0.0	172.7360019683838	
33	152.87459802627563	pulse	1	t		31.0	2.5	/experiments/AOT/AOT_stimuli/rescaled_final/1555_fw.mp4	0.0	174.33701395988464	
33	153.39075088500977	fix_post	2		12	31.0	2.5	/experiments/AOT/AOT_stimuli/rescaled_final/1555_fw.mp4	0.0	174.85316681861877	0.10043597221374512
34	153.4911868572235	fix_pre	0		119	32.0	2.5	/experiments/AOT/AOT_stimuli/rescaled_final/1851_fw.mp4	0.0	174.95360279083252	0.9913811683654785
34	154.47439789772034	pulse	0	t		32.0	2.5	/experiments/AOT/AOT_stimuli/rescaled_final/1851_fw.mp4	0.0	175.93681383132935	
34	154.482568025589	movie	1		246	32.0	2.5	/experiments/AOT/AOT_stimuli/rescaled_final/1851_fw.mp4	0.0	175.944983959198	2.508323907852173
34	156.07378792762756	pulse	1	t		32.0	2.5	/experiments/AOT/AOT_stimuli/rescaled_final/1851_fw.mp4	0.0	177.53620386123657	
34	156.99089193344116	fix_post	2		12	32.0	2.5	/experiments/AOT/AOT_stimuli/rescaled_final/1851_fw.mp4	0.0	178.45330786705017	0.10000109672546387
35	157.09089303016663	fix_pre	0		120	33.0	2.5	/experiments/AOT/AOT_stimuli/rescaled_final/1511_fw.mp4	0.0	178.55330896377563	0.9999518394470215
35	157.67437386512756	pulse	0	t		33.0	2.5	/experiments/AOT/AOT_stimuli/rescaled_final/1511_fw.mp4	0.0	179.13678979873657	
35	158.09084486961365	movie	1		242	33.0	2.5	/experiments/AOT/AOT_stimuli/rescaled_final/1511_fw.mp4	0.0	179.55326080322266	2.500073194503784
35	159.27442908287048	pulse	1	t		33.0	2.5	/experiments/AOT/AOT_stimuli/rescaled_final/1511_fw.mp4	0.0	180.7368450164795	
35	160.59091806411743	fix_post	2		12	33.0	2.5	/experiments/AOT/AOT_stimuli/rescaled_final/1511_fw.mp4	0.0	182.05333399772644	0.09981584548950195
36	160.69073390960693	fix_pre	0		120	34.0	2.5	/experiments/AOT/AOT_stimuli/rescaled_final/0419_fw.mp4	0.0	182.15314984321594	1.0001471042633057
36	160.87428498268127	pulse	0	t		34.0	2.5	/experiments/AOT/AOT_stimuli/rescaled_final/0419_fw.mp4	0.0	182.33670091629028	
36	161.69088101387024	movie	1		244	34.0	2.5	/experiments/AOT/AOT_stimuli/rescaled_final/0419_fw.mp4	0.0	183.15329694747925	2.4999139308929443
36	162.4743309020996	pulse	1	t		34.0	2.5	/experiments/AOT/AOT_stimuli/rescaled_final/0419_fw.mp4	0.0	183.93674683570862	
36	164.07309007644653	pulse	1	t		34.0	2.5	/experiments/AOT/AOT_stimuli/rescaled_final/0419_fw.mp4	0.0	185.53550601005554	
36	164.19079494476318	fix_post	2		12	34.0	2.5	/experiments/AOT/AOT_stimuli/rescaled_final/0419_fw.mp4	0.0	185.6532108783722	0.10000395774841309
37	164.2907989025116	fix_pre	0		120	35.0	2.5	blank	1.0	185.7532148361206	1.0000410079956055
37	165.2908399105072	movie	1		300	35.0	2.5	blank	1.0	186.7532558441162	2.4999959468841553
37	165.67425894737244	pulse	1	t		35.0	2.5	blank	1.0	187.13667488098145	
37	167.2743399143219	pulse	1	t		35.0	2.5	blank	1.0	188.7367558479309	
37	167.79083585739136	fix_post	2		12	35.0	2.5	blank	1.0	189.25325179100037	0.09992814064025879
38	167.89076399803162	fix_pre	0		119	36.0	2.5	/experiments/AOT/AOT_stimuli/rescaled_final/0350_rv.mp4	0.0	189.35317993164062	0.9916269779205322
38	168.87431287765503	pulse	0	t		36.0	2.5	/experiments/AOT/AOT_stimuli/rescaled_final/0350_rv.mp4	0.0	190.33672881126404	
38	168.88239097595215	movie	1		244	36.0	2.5	/experiments/AOT/AOT_stimuli/rescaled_final/0350_rv.mp4	0.0	190.34480690956116	2.5083329677581787
38	170.47395491600037	pulse	1	t		36.0	2.5	/experiments/AOT/AOT_stimuli/rescaled_final/0350_rv.mp4	0.0	191.93637084960938	
38	171.39072394371033	fix_post	2		12	36.0	2.5	/experiments/AOT/AOT_stimuli/rescaled_final/0350_rv.mp4	0.0	192.85313987731934	0.10000395774841309
39	171.49072790145874	fix_pre	0		120	37.0	2.5	/experiments/AOT/AOT_stimuli/rescaled_final/0986_fw.mp4	0.0	192.95314383506775	0.9999990463256836
39	172.074383020401	pulse	0	t		37.0	2.5	/experiments/AOT/AOT_stimuli/rescaled_final/0986_fw.mp4	0.0	193.53679895401	
39	172.49072694778442	movie	1		245	37.0	2.5	/experiments/AOT/AOT_stimuli/rescaled_final/0986_fw.mp4	0.0	193.95314288139343	2.4999709129333496
39	173.67443799972534	pulse	1	t		37.0	2.5	/experiments/AOT/AOT_stimuli/rescaled_final/0986_fw.mp4	0.0	195.13685393333435	
39	174.99069786071777	fix_post	2		12	37.0	2.5	/experiments/AOT/AOT_stimuli/rescaled_final/0986_fw.mp4	0.0	196.45311379432678	0.10007309913635254
40	175.09077095985413	fix_pre	0		120	38.0	2.5	/experiments/AOT/AOT_stimuli/rescaled_final/1166_rv.mp4	0.0	196.55318689346313	0.9999949932098389
40	175.27435994148254	pulse	0	t		38.0	2.5	/experiments/AOT/AOT_stimuli/rescaled_final/1166_rv.mp4	0.0	196.73677587509155	
40	176.09076595306396	movie	1		243	38.0	2.5	/experiments/AOT/AOT_stimuli/rescaled_final/1166_rv.mp4	0.0	197.55318188667297	2.49993896484375
40	176.87420105934143	pulse	1	t		38.0	2.5	/experiments/AOT/AOT_stimuli/rescaled_final/1166_rv.mp4	0.0	198.33661699295044	
40	178.47269201278687	pulse	1	t		38.0	2.5	/experiments/AOT/AOT_stimuli/rescaled_final/1166_rv.mp4	0.0	199.93510794639587	
40	178.59070491790771	fix_post	2		12	38.0	2.5	/experiments/AOT/AOT_stimuli/rescaled_final/1166_rv.mp4	0.0	200.05312085151672	0.10002398490905762
41	178.69072890281677	fix_pre	0		120	39.0	2.5	/experiments/AOT/AOT_stimuli/rescaled_final/0492_fw.mp4	0.0	200.15314483642578	0.999993085861206
41	179.69072198867798	movie	1		243	39.0	2.5	/experiments/AOT/AOT_stimuli/rescaled_final/0492_fw.mp4	0.0	201.153137922287	2.5000429153442383
41	180.07418489456177	pulse	1	t		39.0	2.5	/experiments/AOT/AOT_stimuli/rescaled_final/0492_fw.mp4	0.0	201.53660082817078	
41	181.67414593696594	pulse	1	t		39.0	2.5	/experiments/AOT/AOT_stimuli/rescaled_final/0492_fw.mp4	0.0	203.13656187057495	
41	182.19076490402222	fix_post	2		12	39.0	2.5	/experiments/AOT/AOT_stimuli/rescaled_final/0492_fw.mp4	0.0	203.65318083763123	0.10013699531555176
42	182.29090189933777	fix_pre	0		119	40.0	2.5	/experiments/AOT/AOT_stimuli/rescaled_final/2122_fw.mp4	0.0	203.75331783294678	0.9914250373840332
42	183.27425599098206	pulse	0	t		40.0	2.5	/experiments/AOT/AOT_stimuli/rescaled_final/2122_fw.mp4	0.0	204.73667192459106	
42	183.2823269367218	movie	1		244	40.0	2.5	/experiments/AOT/AOT_stimuli/rescaled_final/2122_fw.mp4	0.0	204.7447428703308	2.5083470344543457
42	184.87457394599915	pulse	1	t		40.0	2.5	/experiments/AOT/AOT_stimuli/rescaled_final/2122_fw.mp4	0.0	206.33698987960815	
42	185.79067397117615	fix_post	2		12	40.0	2.5	/experiments/AOT/AOT_stimuli/rescaled_final/2122_fw.mp4	0.0	207.25308990478516	0.10004711151123047
43	185.89072108268738	fix_pre	0		120	41.0	2.5	/experiments/AOT/AOT_stimuli/rescaled_final/0447_fw.mp4	0.0	207.3531370162964	1.000020980834961
43	186.47423791885376	pulse	0	t		41.0	2.5	/experiments/AOT/AOT_stimuli/rescaled_final/0447_fw.mp4	0.0	207.93665385246277	
43	186.89074206352234	movie	1		246	41.0	2.5	/experiments/AOT/AOT_stimuli/rescaled_final/0447_fw.mp4	0.0	208.35315799713135	2.5000078678131104
43	188.07416701316833	pulse	1	t		41.0	2.5	/experiments/AOT/AOT_stimuli/rescaled_final/0447_fw.mp4	0.0	209.53658294677734	
43	189.39074993133545	fix_post	2		12	41.0	2.5	/experiments/AOT/AOT_stimuli/rescaled_final/0447_fw.mp4	0.0	210.85316586494446	0.0999901294708252
44	189.49074006080627	fix_pre	0		120	42.0	2.5	blank	1.0	210.95315599441528	0.9999988079071045
44	189.67422604560852	pulse	0	t		42.0	2.5	blank	1.0	211.13664197921753	
44	190.49073886871338	movie	1		300	42.0	2.5	blank	1.0	211.9531548023224	2.4999711513519287
44	191.27412295341492	pulse	1	t		42.0	2.5	blank	1.0	212.73653888702393	
44	192.87416005134583	pulse	1	t		42.0	2.5	blank	1.0	214.33657598495483	
44	192.9907100200653	fix_post	2		12	42.0	2.5	blank	1.0	214.45312595367432	0.09992194175720215
45	193.0906319618225	fix_pre	0		120	43.0	2.5	/experiments/AOT/AOT_stimuli/rescaled_final/0437_fw.mp4	0.0	214.55304789543152	1.0000650882720947
45	194.0906970500946	movie	1		243	43.0	2.5	/experiments/AOT/AOT_stimuli/rescaled_final/0437_fw.mp4	0.0	215.5531129837036	2.5000150203704834
45	194.47401094436646	pulse	1	t		43.0	2.5	/experiments/AOT/AOT_stimuli/rescaled_final/0437_fw.mp4	0.0	215.93642687797546	
45	196.07434391975403	pulse	1	t		43.0	2.5	/experiments/AOT/AOT_stimuli/rescaled_final/0437_fw.mp4	0.0	217.53675985336304	
45	196.5907120704651	fix_post	2		12	43.0	2.5	/experiments/AOT/AOT_stimuli/rescaled_final/0437_fw.mp4	0.0	218.0531280040741	0.10000395774841309
46	196.6907160282135	fix_pre	0		119	44.0	2.5	/experiments/AOT/AOT_stimuli/rescaled_final/0472_rv.mp4	0.0	218.1531319618225	0.9915978908538818
46	197.6741349697113	pulse	0	t		44.0	2.5	/experiments/AOT/AOT_stimuli/rescaled_final/0472_rv.mp4	0.0	219.1365509033203	
46	197.68231391906738	movie	1		245	44.0	2.5	/experiments/AOT/AOT_stimuli/rescaled_final/0472_rv.mp4	0.0	219.1447298526764	2.508366107940674
46	199.27394795417786	pulse	1	t		44.0	2.5	/experiments/AOT/AOT_stimuli/rescaled_final/0472_rv.mp4	0.0	220.73636388778687	
46	200.19068002700806	fix_post	2		12	44.0	2.5	/experiments/AOT/AOT_stimuli/rescaled_final/0472_rv.mp4	0.0	221.65309596061707	0.09993791580200195
47	200.29061794281006	fix_pre	0		120	45.0	2.5	/experiments/AOT/AOT_stimuli/rescaled_final/0715_rv.mp4	0.0	221.75303387641907	1.0000379085540771
47	200.87413501739502	pulse	0	t		45.0	2.5	/experiments/AOT/AOT_stimuli/rescaled_final/0715_rv.mp4	0.0	222.33655095100403	
47	201.29065585136414	movie	1		243	45.0	2.5	/experiments/AOT/AOT_stimuli/rescaled_final/0715_rv.mp4	0.0	222.75307178497314	2.499876022338867
47	202.47421097755432	pulse	1	t		45.0	2.5	/experiments/AOT/AOT_stimuli/rescaled_final/0715_rv.mp4	0.0	223.93662691116333	
47	203.790531873703	fix_post	2		12	45.0	2.5	/experiments/AOT/AOT_stimuli/rescaled_final/0715_rv.mp4	0.0	225.252947807312	0.10012316703796387
48	203.89065504074097	fix_pre	0		120	46.0	2.5	/experiments/AOT/AOT_stimuli/rescaled_final/0840_fw.mp4	0.0	225.35307097434998	0.9999678134918213
48	204.07419800758362	pulse	0	t		46.0	2.5	/experiments/AOT/AOT_stimuli/rescaled_final/0840_fw.mp4	0.0	225.53661394119263	
48	204.8906228542328	movie	1		245	46.0	2.5	/experiments/AOT/AOT_stimuli/rescaled_final/0840_fw.mp4	0.0	226.3530387878418	2.499648094177246
48	205.6740870475769	pulse	1	t		46.0	2.5	/experiments/AOT/AOT_stimuli/rescaled_final/0840_fw.mp4	0.0	227.1365029811859	
48	207.27219605445862	pulse	1	t		46.0	2.5	/experiments/AOT/AOT_stimuli/rescaled_final/0840_fw.mp4	0.0	228.73461198806763	
48	207.39027094841003	fix_post	2		12	46.0	2.5	/experiments/AOT/AOT_stimuli/rescaled_final/0840_fw.mp4	0.0	228.85268688201904	0.10036396980285645
49	207.4906349182129	fix_pre	0		120	47.0	2.5	blank	1.0	228.9530508518219	0.9997401237487793
49	208.49037504196167	movie	1		300	47.0	2.5	blank	1.0	229.95279097557068	2.500264883041382
49	208.87438106536865	pulse	1	t		47.0	2.5	blank	1.0	230.33679699897766	
49	210.47417092323303	pulse	1	t		47.0	2.5	blank	1.0	231.93658685684204	
49	210.99063992500305	fix_post	2		12	47.0	2.5	blank	1.0	232.45305585861206	0.09997296333312988
50	211.09061288833618	fix_pre	0		119	48.0	2.5	/experiments/AOT/AOT_stimuli/rescaled_final/0865_fw.mp4	0.0	232.5530288219452	0.9916660785675049
50	212.07412385940552	pulse	0	t		48.0	2.5	/experiments/AOT/AOT_stimuli/rescaled_final/0865_fw.mp4	0.0	233.53653979301453	
50	212.0822789669037	movie	1		245	48.0	2.5	/experiments/AOT/AOT_stimuli/rescaled_final/0865_fw.mp4	0.0	233.5446949005127	2.508241891860962
50	213.67386293411255	pulse	1	t		48.0	2.5	/experiments/AOT/AOT_stimuli/rescaled_final/0865_fw.mp4	0.0	235.13627886772156	
50	214.59052085876465	fix_post	2		12	48.0	2.5	/experiments/AOT/AOT_stimuli/rescaled_final/0865_fw.mp4	0.0	236.05293679237366	0.10011911392211914
51	214.69063997268677	fix_pre	0		120	49.0	2.5	/experiments/AOT/AOT_stimuli/rescaled_final/1004_rv.mp4	0.0	236.15305590629578	0.999945878982544
51	215.27400088310242	pulse	0	t		49.0	2.5	/experiments/AOT/AOT_stimuli/rescaled_final/1004_rv.mp4	0.0	236.73641681671143	
51	215.6905858516693	movie	1		246	49.0	2.5	/experiments/AOT/AOT_stimuli/rescaled_final/1004_rv.mp4	0.0	237.15300178527832	2.499969005584717
51	216.87408304214478	pulse	1	t		49.0	2.5	/experiments/AOT/AOT_stimuli/rescaled_final/1004_rv.mp4	0.0	238.33649897575378	
51	218.19055485725403	fix_post	2		12	49.0	2.5	/experiments/AOT/AOT_stimuli/rescaled_final/1004_rv.mp4	0.0	239.65297079086304	0.09998512268066406
52	218.2905399799347	fix_pre	0		120	50.0	2.5	/experiments/AOT/AOT_stimuli/rescaled_final/1352_rv.mp4	0.0	239.7529559135437	0.9996190071105957
52	218.47404408454895	pulse	0	t		50.0	2.5	/experiments/AOT/AOT_stimuli/rescaled_final/1352_rv.mp4	0.0	239.93646001815796	
52	219.2901589870453	movie	1		243	50.0	2.5	/experiments/AOT/AOT_stimuli/rescaled_final/1352_rv.mp4	0.0	240.7525749206543	2.5004069805145264
52	220.07405185699463	pulse	1	t		50.0	2.5	/experiments/AOT/AOT_stimuli/rescaled_final/1352_rv.mp4	0.0	241.53646779060364	
52	221.67244386672974	pulse	1	t		50.0	2.5	/experiments/AOT/AOT_stimuli/rescaled_final/1352_rv.mp4	0.0	243.13485980033875	
52	221.79056596755981	fix_post	2		12	50.0	2.5	/experiments/AOT/AOT_stimuli/rescaled_final/1352_rv.mp4	0.0	243.25298190116882	0.09993600845336914
53	221.89050197601318	fix_pre	0		120	51.0	2.5	/experiments/AOT/AOT_stimuli/rescaled_final/1640_rv.mp4	0.0	243.3529179096222	1.000014066696167
53	222.89051604270935	movie	1		243	51.0	2.5	/experiments/AOT/AOT_stimuli/rescaled_final/1640_rv.mp4	0.0	244.35293197631836	2.4999430179595947
53	223.27367997169495	pulse	1	t		51.0	2.5	/experiments/AOT/AOT_stimuli/rescaled_final/1640_rv.mp4	0.0	244.73609590530396	
53	224.8740429878235	pulse	1	t		51.0	2.5	/experiments/AOT/AOT_stimuli/rescaled_final/1640_rv.mp4	0.0	246.3364589214325	
53	225.39045906066895	fix_post	2		12	51.0	2.5	/experiments/AOT/AOT_stimuli/rescaled_final/1640_rv.mp4	0.0	246.85287499427795	0.10006594657897949
54	225.49052500724792	fix_pre	0		119	52.0	2.5	/experiments/AOT/AOT_stimuli/rescaled_final/0006_fw.mp4	0.0	246.95294094085693	0.99161696434021
54	226.47398591041565	pulse	0	t		52.0	2.5	/experiments/AOT/AOT_stimuli/rescaled_final/0006_fw.mp4	0.0	247.93640184402466	
54	226.48214197158813	movie	1		244	52.0	2.5	/experiments/AOT/AOT_stimuli/rescaled_final/0006_fw.mp4	0.0	247.94455790519714	2.5084240436553955
54	228.07362484931946	pulse	1	t		52.0	2.5	/experiments/AOT/AOT_stimuli/rescaled_final/0006_fw.mp4	0.0	249.53604078292847	
54	228.99056601524353	fix_post	2		12	52.0	2.5	/experiments/AOT/AOT_stimuli/rescaled_final/0006_fw.mp4	0.0	250.45298194885254	0.09995198249816895
55	229.0905179977417	fix_pre	0		120	53.0	2.5	/experiments/AOT/AOT_stimuli/rescaled_final/1288_fw.mp4	0.0	250.5529339313507	0.999953031539917
55	229.673987865448	pulse	0	t		53.0	2.5	/experiments/AOT/AOT_stimuli/rescaled_final/1288_fw.mp4	0.0	251.136403799057	
55	230.09047102928162	movie	1		246	53.0	2.5	/experiments/AOT/AOT_stimuli/rescaled_final/1288_fw.mp4	0.0	251.55288696289062	2.5001518726348877
55	231.27402091026306	pulse	1	t		53.0	2.5	/experiments/AOT/AOT_stimuli/rescaled_final/1288_fw.mp4	0.0	252.73643684387207	
55	232.5906229019165	fix_post	2		12	53.0	2.5	/experiments/AOT/AOT_stimuli/rescaled_final/1288_fw.mp4	0.0	254.0530388355255	0.09985804557800293
56	232.6904809474945	fix_pre	0		120	54.0	2.5	blank	1.0	254.15289688110352	1.0000441074371338
56	232.87397503852844	pulse	0	t		54.0	2.5	blank	1.0	254.33639097213745	
56	233.69052505493164	movie	1		300	54.0	2.5	blank	1.0	255.15294098854065	2.5000078678131104
56	234.4739899635315	pulse	1	t		54.0	2.5	blank	1.0	255.9364058971405	
56	236.07388401031494	pulse	1	t		54.0	2.5	blank	1.0	257.53629994392395	
56	236.19053292274475	fix_post	2		12	54.0	2.5	blank	1.0	257.65294885635376	0.10001707077026367
57	236.29054999351501	fix_pre	0		120	55.0	2.5	/experiments/AOT/AOT_stimuli/rescaled_final/1928_fw.mp4	0.0	257.752965927124	1.0000050067901611
57	237.29055500030518	movie	1		245	55.0	2.5	/experiments/AOT/AOT_stimuli/rescaled_final/1928_fw.mp4	0.0	258.7529709339142	2.4999680519104004
57	237.6752429008484	pulse	1	t		55.0	2.5	/experiments/AOT/AOT_stimuli/rescaled_final/1928_fw.mp4	0.0	259.1376588344574	
57	239.27394199371338	pulse	1	t		55.0	2.5	/experiments/AOT/AOT_stimuli/rescaled_final/1928_fw.mp4	0.0	260.7363579273224	
57	239.79052305221558	fix_post	2		12	55.0	2.5	/experiments/AOT/AOT_stimuli/rescaled_final/1928_fw.mp4	0.0	261.2529389858246	0.1000058650970459
58	239.89052891731262	fix_pre	0		119	56.0	2.5	/experiments/AOT/AOT_stimuli/rescaled_final/0845_rv.mp4	0.0	261.35294485092163	0.9915421009063721
58	240.8738729953766	pulse	0	t		56.0	2.5	/experiments/AOT/AOT_stimuli/rescaled_final/0845_rv.mp4	0.0	262.3362889289856	
58	240.882071018219	movie	1		246	56.0	2.5	/experiments/AOT/AOT_stimuli/rescaled_final/0845_rv.mp4	0.0	262.344486951828	2.5083649158477783
58	242.47356986999512	pulse	1	t		56.0	2.5	/experiments/AOT/AOT_stimuli/rescaled_final/0845_rv.mp4	0.0	263.9359858036041	
58	243.39043593406677	fix_post	2		12	56.0	2.5	/experiments/AOT/AOT_stimuli/rescaled_final/0845_rv.mp4	0.0	264.8528518676758	0.10004901885986328
59	243.49048495292664	fix_pre	0		120	57.0	2.5	/experiments/AOT/AOT_stimuli/rescaled_final/1570_rv.mp4	0.0	264.95290088653564	0.999985933303833
59	244.0739529132843	pulse	0	t		57.0	2.5	/experiments/AOT/AOT_stimuli/rescaled_final/1570_rv.mp4	0.0	265.5363688468933	
59	244.49047088623047	movie	1		245	57.0	2.5	/experiments/AOT/AOT_stimuli/rescaled_final/1570_rv.mp4	0.0	265.9528868198395	2.4999749660491943
59	245.6740128993988	pulse	1	t		57.0	2.5	/experiments/AOT/AOT_stimuli/rescaled_final/1570_rv.mp4	0.0	267.1364288330078	
59	246.99044585227966	fix_post	2		12	57.0	2.5	/experiments/AOT/AOT_stimuli/rescaled_final/1570_rv.mp4	0.0	268.4528617858887	0.09995818138122559
60	247.0904040336609	fix_pre	0		120	58.0	2.5	/experiments/AOT/AOT_stimuli/rescaled_final/2122_rv.mp4	0.0	268.5528199672699	1.000074863433838
60	247.2739028930664	pulse	0	t		58.0	2.5	/experiments/AOT/AOT_stimuli/rescaled_final/2122_rv.mp4	0.0	268.7363188266754	
60	248.09047889709473	movie	1		244	58.0	2.5	/experiments/AOT/AOT_stimuli/rescaled_final/2122_rv.mp4	0.0	269.55289483070374	2.499912977218628
60	248.87390899658203	pulse	1	t		58.0	2.5	/experiments/AOT/AOT_stimuli/rescaled_final/2122_rv.mp4	0.0	270.33632493019104	
60	250.47270703315735	pulse	1	t		58.0	2.5	/experiments/AOT/AOT_stimuli/rescaled_final/2122_rv.mp4	0.0	271.93512296676636	
60	250.59039187431335	fix_post	2		12	58.0	2.5	/experiments/AOT/AOT_stimuli/rescaled_final/2122_rv.mp4	0.0	272.05280780792236	0.1000521183013916
61	250.69044399261475	fix_pre	0		120	59.0	2.5	/experiments/AOT/AOT_stimuli/rescaled_final/0477_fw.mp4	0.0	272.15285992622375	0.999971866607666
61	251.6904158592224	movie	1		244	59.0	2.5	/experiments/AOT/AOT_stimuli/rescaled_final/0477_fw.mp4	0.0	273.1528317928314	2.5000460147857666
61	252.0736129283905	pulse	1	t		59.0	2.5	/experiments/AOT/AOT_stimuli/rescaled_final/0477_fw.mp4	0.0	273.5360288619995	
61	253.6739010810852	pulse	1	t		59.0	2.5	/experiments/AOT/AOT_stimuli/rescaled_final/0477_fw.mp4	0.0	275.1363170146942	
61	254.19046187400818	fix_post	2		12	59.0	2.5	/experiments/AOT/AOT_stimuli/rescaled_final/0477_fw.mp4	0.0	275.6528778076172	0.0999300479888916
62	254.29039192199707	fix_pre	0		119	60.0	2.5	/experiments/AOT/AOT_stimuli/rescaled_final/0318_fw.mp4	0.0	275.7528078556061	0.9915521144866943
62	255.27376699447632	pulse	0	t		60.0	2.5	/experiments/AOT/AOT_stimuli/rescaled_final/0318_fw.mp4	0.0	276.7361829280853	
62	255.28194403648376	movie	1		245	60.0	2.5	/experiments/AOT/AOT_stimuli/rescaled_final/0318_fw.mp4	0.0	276.7443599700928	2.5084049701690674
62	256.8733868598938	pulse	1	t		60.0	2.5	/experiments/AOT/AOT_stimuli/rescaled_final/0318_fw.mp4	0.0	278.3358027935028	
62	257.79034900665283	fix_post	2		12	60.0	2.5	/experiments/AOT/AOT_stimuli/rescaled_final/0318_fw.mp4	0.0	279.25276494026184	0.10002899169921875
63	257.89037799835205	fix_pre	0		120	61.0	2.5	/experiments/AOT/AOT_stimuli/rescaled_final/1133_fw.mp4	0.0	279.35279393196106	1.0000040531158447
63	258.473916053772	pulse	0	t		61.0	2.5	/experiments/AOT/AOT_stimuli/rescaled_final/1133_fw.mp4	0.0	279.936331987381	
63	258.8903820514679	movie	1		243	61.0	2.5	/experiments/AOT/AOT_stimuli/rescaled_final/1133_fw.mp4	0.0	280.3527979850769	2.499969005584717
63	260.07400393486023	pulse	1	t		61.0	2.5	/experiments/AOT/AOT_stimuli/rescaled_final/1133_fw.mp4	0.0	281.53641986846924	
63	261.3903510570526	fix_post	2		12	61.0	2.5	/experiments/AOT/AOT_stimuli/rescaled_final/1133_fw.mp4	0.0	282.8527669906616	0.09950780868530273
64	261.4898588657379	fix_pre	0		120	62.0	2.5	/experiments/AOT/AOT_stimuli/rescaled_final/0203_rv.mp4	0.0	282.9522747993469	1.0006651878356934
64	261.6738519668579	pulse	0	t		62.0	2.5	/experiments/AOT/AOT_stimuli/rescaled_final/0203_rv.mp4	0.0	283.1362679004669	
64	262.4905240535736	movie	1		246	62.0	2.5	/experiments/AOT/AOT_stimuli/rescaled_final/0203_rv.mp4	0.0	283.9529399871826	2.5001139640808105
64	263.27340292930603	pulse	1	t		62.0	2.5	/experiments/AOT/AOT_stimuli/rescaled_final/0203_rv.mp4	0.0	284.73581886291504	
64	264.87282395362854	pulse	1	t		62.0	2.5	/experiments/AOT/AOT_stimuli/rescaled_final/0203_rv.mp4	0.0	286.33523988723755	
64	264.9906380176544	fix_post	2		12	62.0	2.5	/experiments/AOT/AOT_stimuli/rescaled_final/0203_rv.mp4	0.0	286.4530539512634	0.0996098518371582
65	265.0902478694916	fix_pre	0		120	63.0	2.5	blank	1.0	286.5526638031006	1.0001180171966553
65	266.09036588668823	movie	1		300	63.0	2.5	blank	1.0	287.55278182029724	2.499974012374878
65	266.4738259315491	pulse	1	t		63.0	2.5	blank	1.0	287.9362418651581	
65	268.0737738609314	pulse	1	t		63.0	2.5	blank	1.0	289.5361897945404	
65	268.5903398990631	fix_post	2		12	63.0	2.5	blank	1.0	290.0527558326721	0.09998917579650879
66	268.6903290748596	fix_pre	0		119	64.0	2.5	/experiments/AOT/AOT_stimuli/rescaled_final/0304_fw.mp4	0.0	290.1527450084686	0.9916470050811768
66	269.67379093170166	pulse	0	t		64.0	2.5	/experiments/AOT/AOT_stimuli/rescaled_final/0304_fw.mp4	0.0	291.13620686531067	
66	269.6819760799408	movie	1		245	64.0	2.5	/experiments/AOT/AOT_stimuli/rescaled_final/0304_fw.mp4	0.0	291.1443920135498	2.508281946182251
66	271.27318000793457	pulse	1	t		64.0	2.5	/experiments/AOT/AOT_stimuli/rescaled_final/0304_fw.mp4	0.0	292.7355959415436	
66	272.19025802612305	fix_post	2		12	64.0	2.5	/experiments/AOT/AOT_stimuli/rescaled_final/0304_fw.mp4	0.0	293.65267395973206	0.09997296333312988
67	272.2902309894562	fix_pre	0		120	65.0	2.5	/experiments/AOT/AOT_stimuli/rescaled_final/1686_rv.mp4	0.0	293.7526469230652	1.000053882598877
67	272.8737828731537	pulse	0	t		65.0	2.5	/experiments/AOT/AOT_stimuli/rescaled_final/1686_rv.mp4	0.0	294.3361988067627	
67	273.29028487205505	movie	1		246	65.0	2.5	/experiments/AOT/AOT_stimuli/rescaled_final/1686_rv.mp4	0.0	294.75270080566406	2.499979019165039
67	274.47383403778076	pulse	1	t		65.0	2.5	/experiments/AOT/AOT_stimuli/rescaled_final/1686_rv.mp4	0.0	295.93624997138977	
67	275.7902638912201	fix_post	2		12	65.0	2.5	/experiments/AOT/AOT_stimuli/rescaled_final/1686_rv.mp4	0.0	297.2526798248291	0.1000511646270752
68	275.89031505584717	fix_pre	0		120	66.0	2.5	/experiments/AOT/AOT_stimuli/rescaled_final/1323_rv.mp4	0.0	297.3527309894562	0.9999790191650391
68	276.07380199432373	pulse	0	t		66.0	2.5	/experiments/AOT/AOT_stimuli/rescaled_final/1323_rv.mp4	0.0	297.53621792793274	
68	276.8902940750122	movie	1		244	66.0	2.5	/experiments/AOT/AOT_stimuli/rescaled_final/1323_rv.mp4	0.0	298.3527100086212	2.499987840652466
68	277.67382407188416	pulse	1	t		66.0	2.5	/experiments/AOT/AOT_stimuli/rescaled_final/1323_rv.mp4	0.0	299.13624000549316	
68	279.27218103408813	pulse	1	t		66.0	2.5	/experiments/AOT/AOT_stimuli/rescaled_final/1323_rv.mp4	0.0	300.73459696769714	
68	279.3902819156647	fix_post	2		12	66.0	2.5	/experiments/AOT/AOT_stimuli/rescaled_final/1323_rv.mp4	0.0	300.8526978492737	0.09995508193969727
69	279.49023699760437	fix_pre	0		120	67.0	2.5	/experiments/AOT/AOT_stimuli/rescaled_final/0464_rv.mp4	0.0	300.9526529312134	1.0000839233398438
69	280.4903209209442	movie	1		246	67.0	2.5	/experiments/AOT/AOT_stimuli/rescaled_final/0464_rv.mp4	0.0	301.9527368545532	2.499943971633911
69	280.87342500686646	pulse	1	t		67.0	2.5	/experiments/AOT/AOT_stimuli/rescaled_final/0464_rv.mp4	0.0	302.33584094047546	
69	282.4736678600311	pulse	1	t		67.0	2.5	/experiments/AOT/AOT_stimuli/rescaled_final/0464_rv.mp4	0.0	303.93608379364014	
69	282.9902648925781	fix_post	2		12	67.0	2.5	/experiments/AOT/AOT_stimuli/rescaled_final/0464_rv.mp4	0.0	304.45268082618713	0.09994101524353027
70	283.09020590782166	fix_pre	0		119	68.0	2.5	blank	1.0	304.55262184143066	0.9916400909423828
70	284.07371401786804	pulse	0	t		68.0	2.5	blank	1.0	305.53612995147705	
70	284.08184599876404	movie	1		301	68.0	2.5	blank	1.0	305.54426193237305	2.5083470344543457
70	285.67375802993774	pulse	1	t		68.0	2.5	blank	1.0	307.13617396354675	
70	286.5901930332184	fix_post	2		12	68.0	2.5	blank	1.0	308.0526089668274	0.09995484352111816
71	286.6901478767395	fix_pre	0		120	69.0	2.5	/experiments/AOT/AOT_stimuli/rescaled_final/1752_fw.mp4	0.0	308.1525638103485	1.0000061988830566
71	287.27367401123047	pulse	0	t		69.0	2.5	/experiments/AOT/AOT_stimuli/rescaled_final/1752_fw.mp4	0.0	308.7360899448395	
71	287.69015407562256	movie	1		244	69.0	2.5	/experiments/AOT/AOT_stimuli/rescaled_final/1752_fw.mp4	0.0	309.15257000923157	2.500072956085205
71	288.87374091148376	pulse	1	t		69.0	2.5	/experiments/AOT/AOT_stimuli/rescaled_final/1752_fw.mp4	0.0	310.3361568450928	
71	290.19022703170776	fix_post	2		12	69.0	2.5	/experiments/AOT/AOT_stimuli/rescaled_final/1752_fw.mp4	0.0	311.6526429653168	0.09996199607849121
72	290.29018902778625	fix_pre	0		120	70.0	2.5	/experiments/AOT/AOT_stimuli/rescaled_final/0486_rv.mp4	0.0	311.75260496139526	0.9996440410614014
72	290.47366189956665	pulse	0	t		70.0	2.5	/experiments/AOT/AOT_stimuli/rescaled_final/0486_rv.mp4	0.0	311.93607783317566	
72	291.28983306884766	movie	1		244	70.0	2.5	/experiments/AOT/AOT_stimuli/rescaled_final/0486_rv.mp4	0.0	312.75224900245667	2.5003387928009033
72	292.0737190246582	pulse	1	t		70.0	2.5	/experiments/AOT/AOT_stimuli/rescaled_final/0486_rv.mp4	0.0	313.5361349582672	
72	293.6698429584503	pulse	1	t		70.0	2.5	/experiments/AOT/AOT_stimuli/rescaled_final/0486_rv.mp4	0.0	315.1322588920593	
72	293.79017186164856	fix_post	2		12	70.0	2.5	/experiments/AOT/AOT_stimuli/rescaled_final/0486_rv.mp4	0.0	315.25258779525757	0.09999918937683105
73	293.8901710510254	fix_pre	0		120	71.0	2.5	/experiments/AOT/AOT_stimuli/rescaled_final/0923_rv.mp4	0.0	315.3525869846344	1.000058889389038
73	294.89022994041443	movie	1		246	71.0	2.5	/experiments/AOT/AOT_stimuli/rescaled_final/0923_rv.mp4	0.0	316.35264587402344	2.4998459815979004
73	295.2732889652252	pulse	1	t		71.0	2.5	/experiments/AOT/AOT_stimuli/rescaled_final/0923_rv.mp4	0.0	316.73570489883423	
73	296.87365984916687	pulse	1	t		71.0	2.5	/experiments/AOT/AOT_stimuli/rescaled_final/0923_rv.mp4	0.0	318.3360757827759	
73	297.39007592201233	fix_post	2		12	71.0	2.5	/experiments/AOT/AOT_stimuli/rescaled_final/0923_rv.mp4	0.0	318.85249185562134	0.10012197494506836
74	297.4901978969574	fix_pre	0		119	72.0	2.5	/experiments/AOT/AOT_stimuli/rescaled_final/0929_rv.mp4	0.0	318.9526138305664	0.9915790557861328
74	298.47367095947266	pulse	0	t		72.0	2.5	/experiments/AOT/AOT_stimuli/rescaled_final/0929_rv.mp4	0.0	319.93608689308167	
74	298.48177695274353	movie	1		249	72.0	2.5	/experiments/AOT/AOT_stimuli/rescaled_final/0929_rv.mp4	0.0	319.94419288635254	2.5080349445343018
74	300.0739469528198	pulse	1	t		72.0	2.5	/experiments/AOT/AOT_stimuli/rescaled_final/0929_rv.mp4	0.0	321.53636288642883	
74	300.98981189727783	fix_post	2		12	72.0	2.5	/experiments/AOT/AOT_stimuli/rescaled_final/0929_rv.mp4	0.0	322.45222783088684	0.10035300254821777
75	301.09016489982605	fix_pre	0		120	73.0	2.5	/experiments/AOT/AOT_stimuli/rescaled_final/1686_rv.mp4	0.0	322.55258083343506	1.000101089477539
75	301.674987077713	pulse	0	t		73.0	2.5	/experiments/AOT/AOT_stimuli/rescaled_final/1686_rv.mp4	0.0	323.137403011322	
75	302.0902659893036	movie	1		246	73.0	2.5	/experiments/AOT/AOT_stimuli/rescaled_final/1686_rv.mp4	0.0	323.5526819229126	2.499974012374878
75	303.2737810611725	pulse	1	t		73.0	2.5	/experiments/AOT/AOT_stimuli/rescaled_final/1686_rv.mp4	0.0	324.7361969947815	
75	304.59024000167847	fix_post	2		12	73.0	2.5	/experiments/AOT/AOT_stimuli/rescaled_final/1686_rv.mp4	0.0	326.0526559352875	0.09980988502502441
76	304.6900498867035	fix_pre	0		120	74.0	2.5	/experiments/AOT/AOT_stimuli/rescaled_final/0883_fw.mp4	0.0	326.1524658203125	1.0001111030578613
76	304.8736159801483	pulse	0	t		74.0	2.5	/experiments/AOT/AOT_stimuli/rescaled_final/0883_fw.mp4	0.0	326.3360319137573	
76	305.69016098976135	movie	1		245	74.0	2.5	/experiments/AOT/AOT_stimuli/rescaled_final/0883_fw.mp4	0.0	327.15257692337036	2.499983072280884
76	306.47359800338745	pulse	1	t		74.0	2.5	/experiments/AOT/AOT_stimuli/rescaled_final/0883_fw.mp4	0.0	327.93601393699646	
76	308.07255005836487	pulse	1	t		74.0	2.5	/experiments/AOT/AOT_stimuli/rescaled_final/0883_fw.mp4	0.0	329.5349659919739	
76	308.19014406204224	fix_post	2		12	74.0	2.5	/experiments/AOT/AOT_stimuli/rescaled_final/0883_fw.mp4	0.0	329.65255999565125	0.09995198249816895
77	308.2900960445404	fix_pre	0		120	75.0	2.5	/experiments/AOT/AOT_stimuli/rescaled_final/1653_fw.mp4	0.0	329.7525119781494	1.0000038146972656
77	309.29009985923767	movie	1		242	75.0	2.5	/experiments/AOT/AOT_stimuli/rescaled_final/1653_fw.mp4	0.0	330.7525157928467	2.500030040740967
77	309.6737849712372	pulse	1	t		75.0	2.5	/experiments/AOT/AOT_stimuli/rescaled_final/1653_fw.mp4	0.0	331.1362009048462	
77	311.2735929489136	pulse	1	t		75.0	2.5	/experiments/AOT/AOT_stimuli/rescaled_final/1653_fw.mp4	0.0	332.7360088825226	
77	311.79012989997864	fix_post	2		12	75.0	2.5	/experiments/AOT/AOT_stimuli/rescaled_final/1653_fw.mp4	0.0	333.25254583358765	0.09992218017578125
78	311.8900520801544	fix_pre	0		119	76.0	2.5	/experiments/AOT/AOT_stimuli/rescaled_final/0685_rv.mp4	0.0	333.3524680137634	0.991689920425415
78	312.87361192703247	pulse	0	t		76.0	2.5	/experiments/AOT/AOT_stimuli/rescaled_final/0685_rv.mp4	0.0	334.3360278606415	
78	312.88174200057983	movie	1		245	76.0	2.5	/experiments/AOT/AOT_stimuli/rescaled_final/0685_rv.mp4	0.0	334.34415793418884	2.508336067199707
78	314.4729380607605	pulse	1	t		76.0	2.5	/experiments/AOT/AOT_stimuli/rescaled_final/0685_rv.mp4	0.0	335.9353539943695	
78	315.39007806777954	fix_post	2		12	76.0	2.5	/experiments/AOT/AOT_stimuli/rescaled_final/0685_rv.mp4	0.0	336.85249400138855	0.09995889663696289
79	315.4900369644165	fix_pre	0		120	77.0	2.5	blank	1.0	336.9524528980255	1.0001220703125
79	316.07360196113586	pulse	0	t		77.0	2.5	blank	1.0	337.5360178947449	
79	316.490159034729	movie	1		300	77.0	2.5	blank	1.0	337.952574968338	2.4999380111694336
79	317.6736569404602	pulse	1	t		77.0	2.5	blank	1.0	339.1360728740692	
79	318.99009704589844	fix_post	2		12	77.0	2.5	blank	1.0	340.45251297950745	0.09998297691345215
80	319.0900800228119	fix_pre	0		120	78.0	2.5	/experiments/AOT/AOT_stimuli/rescaled_final/1928_rv.mp4	0.0	340.5524959564209	0.9997348785400391
80	319.27318596839905	pulse	0	t		78.0	2.5	/experiments/AOT/AOT_stimuli/rescaled_final/1928_rv.mp4	0.0	340.73560190200806	
80	320.08981490135193	movie	1		247	78.0	2.5	/experiments/AOT/AOT_stimuli/rescaled_final/1928_rv.mp4	0.0	341.55223083496094	2.5002450942993164
80	320.87382888793945	pulse	1	t		78.0	2.5	/experiments/AOT/AOT_stimuli/rescaled_final/1928_rv.mp4	0.0	342.33624482154846	
80	322.4695599079132	pulse	1	t		78.0	2.5	/experiments/AOT/AOT_stimuli/rescaled_final/1928_rv.mp4	0.0	343.9319758415222	
80	322.59005999565125	fix_post	2		12	78.0	2.5	/experiments/AOT/AOT_stimuli/rescaled_final/1928_rv.mp4	0.0	344.05247592926025	0.1000368595123291
81	322.6900968551636	fix_pre	0		120	79.0	2.5	/experiments/AOT/AOT_stimuli/rescaled_final/1457_rv.mp4	0.0	344.1525127887726	0.9999380111694336
81	323.690034866333	movie	1		247	79.0	2.5	/experiments/AOT/AOT_stimuli/rescaled_final/1457_rv.mp4	0.0	345.152450799942	2.5000691413879395
81	324.072979927063	pulse	1	t		79.0	2.5	/experiments/AOT/AOT_stimuli/rescaled_final/1457_rv.mp4	0.0	345.535395860672	
81	325.67354702949524	pulse	1	t		79.0	2.5	/experiments/AOT/AOT_stimuli/rescaled_final/1457_rv.mp4	0.0	347.13596296310425	
81	326.19010400772095	fix_post	2		12	79.0	2.5	/experiments/AOT/AOT_stimuli/rescaled_final/1457_rv.mp4	0.0	347.65251994132996	0.09992003440856934
82	326.2900240421295	fix_pre	0		119	80.0	2.5	/experiments/AOT/AOT_stimuli/rescaled_final/0054_rv.mp4	0.0	347.7524399757385	0.9916248321533203
82	327.27346992492676	pulse	0	t		80.0	2.5	/experiments/AOT/AOT_stimuli/rescaled_final/0054_rv.mp4	0.0	348.73588585853577	
82	327.28164887428284	movie	1		247	80.0	2.5	/experiments/AOT/AOT_stimuli/rescaled_final/0054_rv.mp4	0.0	348.74406480789185	2.508371114730835
82	328.8730978965759	pulse	1	t		80.0	2.5	/experiments/AOT/AOT_stimuli/rescaled_final/0054_rv.mp4	0.0	350.33551383018494	
82	329.7900199890137	fix_post	2		12	80.0	2.5	/experiments/AOT/AOT_stimuli/rescaled_final/0054_rv.mp4	0.0	351.2524359226227	0.09997701644897461
83	329.88999700546265	fix_pre	0		120	81.0	2.5	/experiments/AOT/AOT_stimuli/rescaled_final/1634_fw.mp4	0.0	351.35241293907166	0.9999790191650391
83	330.47346687316895	pulse	0	t		81.0	2.5	/experiments/AOT/AOT_stimuli/rescaled_final/1634_fw.mp4	0.0	351.93588280677795	
83	330.8899760246277	movie	1		248	81.0	2.5	/experiments/AOT/AOT_stimuli/rescaled_final/1634_fw.mp4	0.0	352.3523919582367	2.499677896499634
83	332.0735459327698	pulse	1	t		81.0	2.5	/experiments/AOT/AOT_stimuli/rescaled_final/1634_fw.mp4	0.0	353.5359618663788	
83	333.3896539211273	fix_post	2		12	81.0	2.5	/experiments/AOT/AOT_stimuli/rescaled_final/1634_fw.mp4	0.0	354.8520698547363	0.10031604766845703
84	333.4899699687958	fix_pre	0		120	82.0	2.5	/experiments/AOT/AOT_stimuli/rescaled_final/0436_fw.mp4	0.0	354.9523859024048	1.0000510215759277
84	333.6734640598297	pulse	0	t		82.0	2.5	/experiments/AOT/AOT_stimuli/rescaled_final/0436_fw.mp4	0.0	355.1358799934387	
84	334.4900209903717	movie	1		244	82.0	2.5	/experiments/AOT/AOT_stimuli/rescaled_final/0436_fw.mp4	0.0	355.9524369239807	2.500019073486328
84	335.2734549045563	pulse	1	t		82.0	2.5	/experiments/AOT/AOT_stimuli/rescaled_final/0436_fw.mp4	0.0	356.7358708381653	
84	336.86959195137024	pulse	1	t		82.0	2.5	/experiments/AOT/AOT_stimuli/rescaled_final/0436_fw.mp4	0.0	358.33200788497925	
84	336.99004006385803	fix_post	2		12	82.0	2.5	/experiments/AOT/AOT_stimuli/rescaled_final/0436_fw.mp4	0.0	358.45245599746704	0.09984588623046875
85	337.0898859500885	fix_pre	0		120	83.0	2.5	blank	1.0	358.5523018836975	1.000128984451294
85	338.0900149345398	movie	1		300	83.0	2.5	blank	1.0	359.5524308681488	2.4999051094055176
85	338.4735019207001	pulse	1	t		83.0	2.5	blank	1.0	359.9359178543091	
85	340.0734419822693	pulse	1	t		83.0	2.5	blank	1.0	361.5358579158783	
85	340.5899200439453	fix_post	2		12	83.0	2.5	blank	1.0	362.0523359775543	0.10010695457458496
87	340.6900269985199	stim	0		1716					362.1524429321289	14.299815893173218
87	341.6734449863434	pulse	0	t						363.1358609199524	
87	343.27339696884155	pulse	0	t						364.73581290245056	
87	344.8734030723572	pulse	0	t						366.3358190059662	
87	346.473445892334	pulse	0	t						367.935861825943	
87	348.07340002059937	pulse	0	t						369.5358159542084	
87	349.6734628677368	pulse	0	t						371.1358788013458	
87	351.2733929157257	pulse	0	t						372.7358088493347	
87	352.8733310699463	pulse	0	t						374.3357470035553	
87	354.473326921463	pulse	0	t						375.935742855072	
