trial_nr	onset	event_type	phase	response	nr_frames	movie_index	movie_duration	movie_file	blank	onset_abs	duration
0	0.2083449363708496	stim	0		30					23.42268180847168	0.24995112419128418
0	0.45032405853271484	response	0	space						23.664660930633545	
1	0.4582960605621338	stim	0		4387					23.672632932662964	36.56609296798706
1	37.01394486427307	pulse	0	t						60.2282817363739	
1	37.024389028549194	stim	1		1715					60.238725900650024	14.299846887588501
1	38.6142680644989	pulse	1	t						61.82860493659973	
1	40.21444606781006	pulse	1	t						63.42878293991089	
1	41.81455397605896	pulse	1	t						65.02889084815979	
1	43.41486406326294	pulse	1	t						66.62920093536377	
1	45.015158891677856	pulse	1	t						68.22949576377869	
1	46.615395069122314	pulse	1	t						69.82973194122314	
1	48.215566873550415	pulse	1	t						71.42990374565125	
1	49.81576108932495	pulse	1	t						73.03009796142578	
2	51.324235916137695	fix_pre	0		12	0.0	2.5	/experiments/knapen_AOT/AOT_stimuli/rescaled_final/0078_rv.mp4	0.0	74.53857278823853	0.10002493858337402
2	51.416064977645874	pulse	0	t		0.0	2.5	/experiments/knapen_AOT/AOT_stimuli/rescaled_final/0078_rv.mp4	0.0	74.6304018497467	
2	51.42426085472107	movie	1		244	0.0	2.5	/experiments/knapen_AOT/AOT_stimuli/rescaled_final/0078_rv.mp4	0.0	74.6385977268219	2.5086510181427
2	53.02056002616882	pulse	1	t		0.0	2.5	/experiments/knapen_AOT/AOT_stimuli/rescaled_final/0078_rv.mp4	0.0	76.23489689826965	
2	53.93291187286377	fix_post	2		12	0.0	2.5	/experiments/knapen_AOT/AOT_stimuli/rescaled_final/0078_rv.mp4	0.0	77.1472487449646	0.10000801086425781
3	54.03291988372803	fix_pre	0		120	1.0	2.5	/experiments/knapen_AOT/AOT_stimuli/rescaled_final/0715_fw.mp4	0.0	77.24725675582886	1.0002920627593994
3	54.616584062576294	pulse	0	t		1.0	2.5	/experiments/knapen_AOT/AOT_stimuli/rescaled_final/0715_fw.mp4	0.0	77.83092093467712	
3	55.03321194648743	movie	1		244	1.0	2.5	/experiments/knapen_AOT/AOT_stimuli/rescaled_final/0715_fw.mp4	0.0	78.24754881858826	2.5002191066741943
3	56.2168550491333	pulse	1	t		1.0	2.5	/experiments/knapen_AOT/AOT_stimuli/rescaled_final/0715_fw.mp4	0.0	79.43119192123413	
3	57.53343105316162	fix_post	2		12	1.0	2.5	/experiments/knapen_AOT/AOT_stimuli/rescaled_final/0715_fw.mp4	0.0	80.74776792526245	0.1000528335571289
4	57.63348388671875	fix_pre	0		120	2.0	2.5	/experiments/knapen_AOT/AOT_stimuli/rescaled_final/0044_fw.mp4	0.0	80.84782075881958	1.000171184539795
4	57.817168951034546	pulse	0	t		2.0	2.5	/experiments/knapen_AOT/AOT_stimuli/rescaled_final/0044_fw.mp4	0.0	81.03150582313538	
4	58.633655071258545	movie	1		243	2.0	2.5	/experiments/knapen_AOT/AOT_stimuli/rescaled_final/0044_fw.mp4	0.0	81.84799194335938	2.5003550052642822
4	59.41741991043091	pulse	1	t		2.0	2.5	/experiments/knapen_AOT/AOT_stimuli/rescaled_final/0044_fw.mp4	0.0	82.63175678253174	
4	61.01760292053223	pulse	1	t		2.0	2.5	/experiments/knapen_AOT/AOT_stimuli/rescaled_final/0044_fw.mp4	0.0	84.23193979263306	
4	61.13401007652283	fix_post	2		12	2.0	2.5	/experiments/knapen_AOT/AOT_stimuli/rescaled_final/0044_fw.mp4	0.0	84.34834694862366	0.09998488426208496
5	61.23399496078491	fix_pre	0		120	3.0	2.5	/experiments/knapen_AOT/AOT_stimuli/rescaled_final/0715_rv.mp4	0.0	84.44833183288574	1.0001630783081055
5	62.23415803909302	movie	1		239	3.0	2.5	/experiments/knapen_AOT/AOT_stimuli/rescaled_final/0715_rv.mp4	0.0	85.44849491119385	2.4931588172912598
5	62.61894488334656	pulse	1	t		3.0	2.5	/experiments/knapen_AOT/AOT_stimuli/rescaled_final/0715_rv.mp4	0.0	85.83328175544739	
5	64.21798896789551	pulse	1	t		3.0	2.5	/experiments/knapen_AOT/AOT_stimuli/rescaled_final/0715_rv.mp4	0.0	87.43232583999634	
5	64.72731685638428	fix_post	2		12	3.0	2.5	/experiments/knapen_AOT/AOT_stimuli/rescaled_final/0715_rv.mp4	0.0	87.94165372848511	0.09887003898620605
6	64.82618689537048	fix_pre	0		120	4.0	2.5	/experiments/knapen_AOT/AOT_stimuli/rescaled_final/1021_rv.mp4	0.0	88.04052376747131	1.0001699924468994
6	65.81833386421204	pulse	0	t		4.0	2.5	/experiments/knapen_AOT/AOT_stimuli/rescaled_final/1021_rv.mp4	0.0	89.03267073631287	
6	65.82635688781738	movie	1		244	4.0	2.5	/experiments/knapen_AOT/AOT_stimuli/rescaled_final/1021_rv.mp4	0.0	89.04069375991821	2.5087151527404785
6	67.41989398002625	pulse	1	t		4.0	2.5	/experiments/knapen_AOT/AOT_stimuli/rescaled_final/1021_rv.mp4	0.0	90.63423085212708	
6	68.33507204055786	fix_post	2		12	4.0	2.5	/experiments/knapen_AOT/AOT_stimuli/rescaled_final/1021_rv.mp4	0.0	91.54940891265869	0.1000528335571289
7	68.43512487411499	fix_pre	0		120	5.0	2.5	/experiments/knapen_AOT/AOT_stimuli/rescaled_final/1247_rv.mp4	0.0	91.64946174621582	1.0001170635223389
7	69.01867294311523	pulse	0	t		5.0	2.5	/experiments/knapen_AOT/AOT_stimuli/rescaled_final/1247_rv.mp4	0.0	92.23300981521606	
7	69.43524193763733	movie	1		243	5.0	2.5	/experiments/knapen_AOT/AOT_stimuli/rescaled_final/1247_rv.mp4	0.0	92.64957880973816	2.5003631114959717
7	70.61909604072571	pulse	1	t		5.0	2.5	/experiments/knapen_AOT/AOT_stimuli/rescaled_final/1247_rv.mp4	0.0	93.83343291282654	
7	71.9356050491333	fix_post	2		12	5.0	2.5	/experiments/knapen_AOT/AOT_stimuli/rescaled_final/1247_rv.mp4	0.0	95.14994192123413	0.10000896453857422
8	72.03561401367188	fix_pre	0		120	6.0	2.5	/experiments/knapen_AOT/AOT_stimuli/rescaled_final/0156_rv.mp4	0.0	95.2499508857727	1.000187873840332
8	72.21921706199646	pulse	0	t		6.0	2.5	/experiments/knapen_AOT/AOT_stimuli/rescaled_final/0156_rv.mp4	0.0	95.43355393409729	
8	73.0358018875122	movie	1		243	6.0	2.5	/experiments/knapen_AOT/AOT_stimuli/rescaled_final/0156_rv.mp4	0.0	96.25013875961304	2.5003020763397217
8	73.81955790519714	pulse	1	t		6.0	2.5	/experiments/knapen_AOT/AOT_stimuli/rescaled_final/0156_rv.mp4	0.0	97.03389477729797	
8	75.41982197761536	pulse	1	t		6.0	2.5	/experiments/knapen_AOT/AOT_stimuli/rescaled_final/0156_rv.mp4	0.0	98.63415884971619	
8	75.53610396385193	fix_post	2		12	6.0	2.5	/experiments/knapen_AOT/AOT_stimuli/rescaled_final/0156_rv.mp4	0.0	98.75044083595276	0.10004711151123047
9	75.63615107536316	fix_pre	0		120	7.0	2.5	blank	1.0	98.85048794746399	1.000152826309204
9	76.63630390167236	movie	1		299	7.0	2.5	blank	1.0	99.8506407737732	2.492061138153076
9	77.0198929309845	pulse	1	t		7.0	2.5	blank	1.0	100.23422980308533	
9	78.6201400756836	pulse	1	t		7.0	2.5	blank	1.0	101.83447694778442	
9	79.12836503982544	fix_post	2		12	7.0	2.5	blank	1.0	102.34270191192627	0.09998488426208496
10	79.22834992408752	fix_pre	0		120	8.0	2.5	/experiments/knapen_AOT/AOT_stimuli/rescaled_final/1936_rv.mp4	0.0	102.44268679618835	1.0001530647277832
10	80.22045397758484	pulse	0	t		8.0	2.5	/experiments/knapen_AOT/AOT_stimuli/rescaled_final/1936_rv.mp4	0.0	103.43479084968567	
10	80.22850298881531	movie	1		246	8.0	2.5	/experiments/knapen_AOT/AOT_stimuli/rescaled_final/1936_rv.mp4	0.0	103.44283986091614	2.508800983428955
10	81.82205891609192	pulse	1	t		8.0	2.5	/experiments/knapen_AOT/AOT_stimuli/rescaled_final/1936_rv.mp4	0.0	105.03639578819275	
10	82.73730397224426	fix_post	2		12	8.0	2.5	/experiments/knapen_AOT/AOT_stimuli/rescaled_final/1936_rv.mp4	0.0	105.95164084434509	0.0999460220336914
11	82.83724999427795	fix_pre	0		120	9.0	2.5	/experiments/knapen_AOT/AOT_stimuli/rescaled_final/0085_rv.mp4	0.0	106.05158686637878	1.0001308917999268
11	83.42085409164429	pulse	0	t		9.0	2.5	/experiments/knapen_AOT/AOT_stimuli/rescaled_final/0085_rv.mp4	0.0	106.63519096374512	
11	83.83738088607788	movie	1		244	9.0	2.5	/experiments/knapen_AOT/AOT_stimuli/rescaled_final/0085_rv.mp4	0.0	107.05171775817871	2.5004940032958984
11	85.02119302749634	pulse	1	t		9.0	2.5	/experiments/knapen_AOT/AOT_stimuli/rescaled_final/0085_rv.mp4	0.0	108.23552989959717	
11	86.33787488937378	fix_post	2		12	9.0	2.5	/experiments/knapen_AOT/AOT_stimuli/rescaled_final/0085_rv.mp4	0.0	109.55221176147461	0.09987616539001465
12	86.4377510547638	fix_pre	0		120	10.0	2.5	/experiments/knapen_AOT/AOT_stimuli/rescaled_final/2010_fw.mp4	0.0	109.65208792686462	1.0001568794250488
12	86.6138870716095	pulse	0	t		10.0	2.5	/experiments/knapen_AOT/AOT_stimuli/rescaled_final/2010_fw.mp4	0.0	109.82822394371033	
12	87.43790793418884	movie	1		244	10.0	2.5	/experiments/knapen_AOT/AOT_stimuli/rescaled_final/2010_fw.mp4	0.0	110.65224480628967	2.5003480911254883
12	88.21420907974243	pulse	1	t		10.0	2.5	/experiments/knapen_AOT/AOT_stimuli/rescaled_final/2010_fw.mp4	0.0	111.42854595184326	
12	89.81343197822571	pulse	1	t		10.0	2.5	/experiments/knapen_AOT/AOT_stimuli/rescaled_final/2010_fw.mp4	0.0	113.02776885032654	
12	89.93825602531433	fix_post	2		12	10.0	2.5	/experiments/knapen_AOT/AOT_stimuli/rescaled_final/2010_fw.mp4	0.0	113.15259289741516	0.1000509262084961
13	90.03830695152283	fix_pre	0		120	11.0	2.5	/experiments/knapen_AOT/AOT_stimuli/rescaled_final/0618_fw.mp4	0.0	113.25264382362366	1.0001299381256104
13	91.03843688964844	movie	1		245	11.0	2.5	/experiments/knapen_AOT/AOT_stimuli/rescaled_final/0618_fw.mp4	0.0	114.25277376174927	2.49206805229187
13	91.42262506484985	pulse	1	t		11.0	2.5	/experiments/knapen_AOT/AOT_stimuli/rescaled_final/0618_fw.mp4	0.0	114.63696193695068	
13	93.0141339302063	pulse	1	t		11.0	2.5	/experiments/knapen_AOT/AOT_stimuli/rescaled_final/0618_fw.mp4	0.0	116.22847080230713	
13	93.53050494194031	fix_post	2		12	11.0	2.5	/experiments/knapen_AOT/AOT_stimuli/rescaled_final/0618_fw.mp4	0.0	116.74484181404114	0.09999513626098633
14	93.6305000782013	fix_pre	0		119	12.0	2.5	/experiments/knapen_AOT/AOT_stimuli/rescaled_final/0256_fw.mp4	0.0	116.84483695030212	0.9918258190155029
14	94.61420798301697	pulse	0	t		12.0	2.5	/experiments/knapen_AOT/AOT_stimuli/rescaled_final/0256_fw.mp4	0.0	117.8285448551178	
14	94.6223258972168	movie	1		244	12.0	2.5	/experiments/knapen_AOT/AOT_stimuli/rescaled_final/0256_fw.mp4	0.0	117.83666276931763	2.5086941719055176
14	96.2184329032898	pulse	1	t		12.0	2.5	/experiments/knapen_AOT/AOT_stimuli/rescaled_final/0256_fw.mp4	0.0	119.43276977539062	
14	97.13102006912231	fix_post	2		12	12.0	2.5	/experiments/knapen_AOT/AOT_stimuli/rescaled_final/0256_fw.mp4	0.0	120.34535694122314	0.10002899169921875
15	97.23104906082153	fix_pre	0		120	13.0	2.5	blank	1.0	120.44538593292236	1.0001449584960938
15	97.81461906433105	pulse	0	t		13.0	2.5	blank	1.0	121.02895593643188	
15	98.23119401931763	movie	1		300	13.0	2.5	blank	1.0	121.44553089141846	2.5003859996795654
15	99.41502094268799	pulse	1	t		13.0	2.5	blank	1.0	122.62935781478882	
15	100.73158001899719	fix_post	2		12	13.0	2.5	blank	1.0	123.94591689109802	0.10003185272216797
16	100.83161187171936	fix_pre	0		120	14.0	2.5	/experiments/knapen_AOT/AOT_stimuli/rescaled_final/0142_rv.mp4	0.0	124.04594874382019	1.000162124633789
16	101.01526403427124	pulse	0	t		14.0	2.5	/experiments/knapen_AOT/AOT_stimuli/rescaled_final/0142_rv.mp4	0.0	124.22960090637207	
16	101.83177399635315	movie	1		244	14.0	2.5	/experiments/knapen_AOT/AOT_stimuli/rescaled_final/0142_rv.mp4	0.0	125.04611086845398	2.5002739429473877
16	102.61540198326111	pulse	1	t		14.0	2.5	/experiments/knapen_AOT/AOT_stimuli/rescaled_final/0142_rv.mp4	0.0	125.82973885536194	
16	104.21553087234497	pulse	1	t		14.0	2.5	/experiments/knapen_AOT/AOT_stimuli/rescaled_final/0142_rv.mp4	0.0	127.4298677444458	
16	104.33204793930054	fix_post	2		12	14.0	2.5	/experiments/knapen_AOT/AOT_stimuli/rescaled_final/0142_rv.mp4	0.0	127.54638481140137	0.10007095336914062
17	104.43211889266968	fix_pre	0		120	15.0	2.5	/experiments/knapen_AOT/AOT_stimuli/rescaled_final/0114_fw.mp4	0.0	127.64645576477051	1.000143051147461
17	105.43226194381714	movie	1		244	15.0	2.5	/experiments/knapen_AOT/AOT_stimuli/rescaled_final/0114_fw.mp4	0.0	128.64659881591797	2.4920120239257812
17	105.81637191772461	pulse	1	t		15.0	2.5	/experiments/knapen_AOT/AOT_stimuli/rescaled_final/0114_fw.mp4	0.0	129.03070878982544	
17	107.41622495651245	pulse	1	t		15.0	2.5	/experiments/knapen_AOT/AOT_stimuli/rescaled_final/0114_fw.mp4	0.0	130.63056182861328	
17	107.92427396774292	fix_post	2		12	15.0	2.5	/experiments/knapen_AOT/AOT_stimuli/rescaled_final/0114_fw.mp4	0.0	131.13861083984375	0.1000370979309082
18	108.02431106567383	fix_pre	0		120	16.0	2.5	/experiments/knapen_AOT/AOT_stimuli/rescaled_final/0561_rv.mp4	0.0	131.23864793777466	1.0001559257507324
18	109.01636791229248	pulse	0	t		16.0	2.5	/experiments/knapen_AOT/AOT_stimuli/rescaled_final/0561_rv.mp4	0.0	132.2307047843933	
18	109.02446699142456	movie	1		244	16.0	2.5	/experiments/knapen_AOT/AOT_stimuli/rescaled_final/0561_rv.mp4	0.0	132.2388038635254	2.5086910724639893
18	110.61713600158691	pulse	1	t		16.0	2.5	/experiments/knapen_AOT/AOT_stimuli/rescaled_final/0561_rv.mp4	0.0	133.83147287368774	
18	111.53315806388855	fix_post	2		12	16.0	2.5	/experiments/knapen_AOT/AOT_stimuli/rescaled_final/0561_rv.mp4	0.0	134.74749493598938	0.10006093978881836
19	111.63321900367737	fix_pre	0		120	17.0	2.5	/experiments/knapen_AOT/AOT_stimuli/rescaled_final/0304_rv.mp4	0.0	134.8475558757782	1.0001299381256104
19	112.21697092056274	pulse	0	t		17.0	2.5	/experiments/knapen_AOT/AOT_stimuli/rescaled_final/0304_rv.mp4	0.0	135.43130779266357	
19	112.63334894180298	movie	1		244	17.0	2.5	/experiments/knapen_AOT/AOT_stimuli/rescaled_final/0304_rv.mp4	0.0	135.8476858139038	2.5005221366882324
19	113.81728291511536	pulse	1	t		17.0	2.5	/experiments/knapen_AOT/AOT_stimuli/rescaled_final/0304_rv.mp4	0.0	137.0316197872162	
19	115.13387107849121	fix_post	2		12	17.0	2.5	/experiments/knapen_AOT/AOT_stimuli/rescaled_final/0304_rv.mp4	0.0	138.34820795059204	0.09986686706542969
20	115.23373794555664	fix_pre	0		120	18.0	2.5	/experiments/knapen_AOT/AOT_stimuli/rescaled_final/1499_rv.mp4	0.0	138.44807481765747	1.0001449584960938
20	115.41742897033691	pulse	0	t		18.0	2.5	/experiments/knapen_AOT/AOT_stimuli/rescaled_final/1499_rv.mp4	0.0	138.63176584243774	
20	116.23388290405273	movie	1		244	18.0	2.5	/experiments/knapen_AOT/AOT_stimuli/rescaled_final/1499_rv.mp4	0.0	139.44821977615356	2.500359058380127
20	117.01752305030823	pulse	1	t		18.0	2.5	/experiments/knapen_AOT/AOT_stimuli/rescaled_final/1499_rv.mp4	0.0	140.23185992240906	
20	118.6177749633789	pulse	1	t		18.0	2.5	/experiments/knapen_AOT/AOT_stimuli/rescaled_final/1499_rv.mp4	0.0	141.83211183547974	
20	118.73424196243286	fix_post	2		12	18.0	2.5	/experiments/knapen_AOT/AOT_stimuli/rescaled_final/1499_rv.mp4	0.0	141.9485788345337	0.10002589225769043
21	118.83426785469055	fix_pre	0		120	19.0	2.5	/experiments/knapen_AOT/AOT_stimuli/rescaled_final/1218_rv.mp4	0.0	142.04860472679138	1.000129222869873
21	119.83439707756042	movie	1		241	19.0	2.5	/experiments/knapen_AOT/AOT_stimuli/rescaled_final/1218_rv.mp4	0.0	143.04873394966125	2.4921247959136963
21	120.2191150188446	pulse	1	t		19.0	2.5	/experiments/knapen_AOT/AOT_stimuli/rescaled_final/1218_rv.mp4	0.0	143.43345189094543	
21	121.81831407546997	pulse	1	t		19.0	2.5	/experiments/knapen_AOT/AOT_stimuli/rescaled_final/1218_rv.mp4	0.0	145.0326509475708	
21	122.32652187347412	fix_post	2		12	19.0	2.5	/experiments/knapen_AOT/AOT_stimuli/rescaled_final/1218_rv.mp4	0.0	145.54085874557495	0.09995317459106445
22	122.42647504806519	fix_pre	0		120	20.0	2.5	/experiments/knapen_AOT/AOT_stimuli/rescaled_final/1714_rv.mp4	0.0	145.64081192016602	1.00016188621521
22	123.41847205162048	pulse	0	t		20.0	2.5	/experiments/knapen_AOT/AOT_stimuli/rescaled_final/1714_rv.mp4	0.0	146.6328089237213	
22	123.4266369342804	movie	1		244	20.0	2.5	/experiments/knapen_AOT/AOT_stimuli/rescaled_final/1714_rv.mp4	0.0	146.64097380638123	2.508669137954712
22	125.01939702033997	pulse	1	t		20.0	2.5	/experiments/knapen_AOT/AOT_stimuli/rescaled_final/1714_rv.mp4	0.0	148.2337338924408	
22	125.93530607223511	fix_post	2		12	20.0	2.5	/experiments/knapen_AOT/AOT_stimuli/rescaled_final/1714_rv.mp4	0.0	149.14964294433594	0.10004901885986328
23	126.03535509109497	fix_pre	0		120	21.0	2.5	blank	1.0	149.2496919631958	1.000154972076416
23	126.61904191970825	pulse	0	t		21.0	2.5	blank	1.0	149.83337879180908	
23	127.03551006317139	movie	1		300	21.0	2.5	blank	1.0	150.24984693527222	2.500379800796509
23	128.21932196617126	pulse	1	t		21.0	2.5	blank	1.0	151.4336588382721	
23	129.5358898639679	fix_post	2		12	21.0	2.5	blank	1.0	152.75022673606873	0.1000051498413086
24	129.6358950138092	fix_pre	0		120	22.0	2.5	/experiments/knapen_AOT/AOT_stimuli/rescaled_final/1714_fw.mp4	0.0	152.85023188591003	1.0001230239868164
24	129.8194420337677	pulse	0	t		22.0	2.5	/experiments/knapen_AOT/AOT_stimuli/rescaled_final/1714_fw.mp4	0.0	153.03377890586853	
24	130.63601803779602	movie	1		243	22.0	2.5	/experiments/knapen_AOT/AOT_stimuli/rescaled_final/1714_fw.mp4	0.0	153.85035490989685	2.5003418922424316
24	131.41963696479797	pulse	1	t		22.0	2.5	/experiments/knapen_AOT/AOT_stimuli/rescaled_final/1714_fw.mp4	0.0	154.6339738368988	
24	133.0196988582611	pulse	1	t		22.0	2.5	/experiments/knapen_AOT/AOT_stimuli/rescaled_final/1714_fw.mp4	0.0	156.23403573036194	
24	133.13635993003845	fix_post	2		12	22.0	2.5	/experiments/knapen_AOT/AOT_stimuli/rescaled_final/1714_fw.mp4	0.0	156.35069680213928	0.10003495216369629
25	133.23639488220215	fix_pre	0		120	23.0	2.5	/experiments/knapen_AOT/AOT_stimuli/rescaled_final/1884_fw.mp4	0.0	156.45073175430298	1.0001530647277832
25	134.23654794692993	movie	1		243	23.0	2.5	/experiments/knapen_AOT/AOT_stimuli/rescaled_final/1884_fw.mp4	0.0	157.45088481903076	2.4920449256896973
25	134.62069487571716	pulse	1	t		23.0	2.5	/experiments/knapen_AOT/AOT_stimuli/rescaled_final/1884_fw.mp4	0.0	157.835031747818	
25	136.22049593925476	pulse	1	t		23.0	2.5	/experiments/knapen_AOT/AOT_stimuli/rescaled_final/1884_fw.mp4	0.0	159.4348328113556	
25	136.72859287261963	fix_post	2		12	23.0	2.5	/experiments/knapen_AOT/AOT_stimuli/rescaled_final/1884_fw.mp4	0.0	159.94292974472046	0.10002303123474121
26	136.82861590385437	fix_pre	0		120	24.0	2.5	/experiments/knapen_AOT/AOT_stimuli/rescaled_final/1602_fw.mp4	0.0	160.0429527759552	1.0001540184020996
26	137.8205919265747	pulse	0	t		24.0	2.5	/experiments/knapen_AOT/AOT_stimuli/rescaled_final/1602_fw.mp4	0.0	161.03492879867554	
26	137.82876992225647	movie	1		244	24.0	2.5	/experiments/knapen_AOT/AOT_stimuli/rescaled_final/1602_fw.mp4	0.0	161.0431067943573	2.5086770057678223
26	139.4212610721588	pulse	1	t		24.0	2.5	/experiments/knapen_AOT/AOT_stimuli/rescaled_final/1602_fw.mp4	0.0	162.63559794425964	
26	140.3374469280243	fix_post	2		12	24.0	2.5	/experiments/knapen_AOT/AOT_stimuli/rescaled_final/1602_fw.mp4	0.0	163.55178380012512	0.10003805160522461
27	140.43748497962952	fix_pre	0		120	25.0	2.5	/experiments/knapen_AOT/AOT_stimuli/rescaled_final/2144_fw.mp4	0.0	163.65182185173035	1.000140905380249
27	141.01358699798584	pulse	0	t		25.0	2.5	/experiments/knapen_AOT/AOT_stimuli/rescaled_final/2144_fw.mp4	0.0	164.22792387008667	
27	141.43762588500977	movie	1		244	25.0	2.5	/experiments/knapen_AOT/AOT_stimuli/rescaled_final/2144_fw.mp4	0.0	164.6519627571106	2.500365972518921
27	142.61737394332886	pulse	1	t		25.0	2.5	/experiments/knapen_AOT/AOT_stimuli/rescaled_final/2144_fw.mp4	0.0	165.8317108154297	
27	143.9379918575287	fix_post	2		12	25.0	2.5	/experiments/knapen_AOT/AOT_stimuli/rescaled_final/2144_fw.mp4	0.0	167.15232872962952	0.1000361442565918
28	144.03802800178528	fix_pre	0		120	26.0	2.5	/experiments/knapen_AOT/AOT_stimuli/rescaled_final/0310_rv.mp4	0.0	167.2523648738861	1.0001440048217773
28	144.21415495872498	pulse	0	t		26.0	2.5	/experiments/knapen_AOT/AOT_stimuli/rescaled_final/0310_rv.mp4	0.0	167.4284918308258	
28	145.03817200660706	movie	1		244	26.0	2.5	/experiments/knapen_AOT/AOT_stimuli/rescaled_final/0310_rv.mp4	0.0	168.25250887870789	2.500349998474121
28	145.8145089149475	pulse	1	t		26.0	2.5	/experiments/knapen_AOT/AOT_stimuli/rescaled_final/0310_rv.mp4	0.0	169.02884578704834	
28	147.41371202468872	pulse	1	t		26.0	2.5	/experiments/knapen_AOT/AOT_stimuli/rescaled_final/0310_rv.mp4	0.0	170.62804889678955	
28	147.53852200508118	fix_post	2		12	26.0	2.5	/experiments/knapen_AOT/AOT_stimuli/rescaled_final/0310_rv.mp4	0.0	170.752858877182	0.10003185272216797
29	147.63855385780334	fix_pre	0		120	27.0	2.5	blank	1.0	170.85289072990417	1.0001490116119385
29	148.63870286941528	movie	1		299	27.0	2.5	blank	1.0	171.8530397415161	2.4921000003814697
29	149.013897895813	pulse	1	t		27.0	2.5	blank	1.0	172.22823476791382	
29	150.61428689956665	pulse	1	t		27.0	2.5	blank	1.0	173.82862377166748	
29	151.13080286979675	fix_post	2		12	27.0	2.5	blank	1.0	174.34513974189758	0.09995102882385254
30	151.2307538986206	fix_pre	0		119	28.0	2.5	/experiments/knapen_AOT/AOT_stimuli/rescaled_final/1884_rv.mp4	0.0	174.44509077072144	0.9918670654296875
30	152.21453189849854	pulse	0	t		28.0	2.5	/experiments/knapen_AOT/AOT_stimuli/rescaled_final/1884_rv.mp4	0.0	175.42886877059937	
30	152.2226209640503	movie	1		245	28.0	2.5	/experiments/knapen_AOT/AOT_stimuli/rescaled_final/1884_rv.mp4	0.0	175.43695783615112	2.508646011352539
30	153.81545400619507	pulse	1	t		28.0	2.5	/experiments/knapen_AOT/AOT_stimuli/rescaled_final/1884_rv.mp4	0.0	177.0297908782959	
30	154.73126697540283	fix_post	2		12	28.0	2.5	/experiments/knapen_AOT/AOT_stimuli/rescaled_final/1884_rv.mp4	0.0	177.94560384750366	0.1000359058380127
31	154.83130288124084	fix_pre	0		120	29.0	2.5	/experiments/knapen_AOT/AOT_stimuli/rescaled_final/0056_fw.mp4	0.0	178.04563975334167	1.000169038772583
31	155.41494989395142	pulse	0	t		29.0	2.5	/experiments/knapen_AOT/AOT_stimuli/rescaled_final/0056_fw.mp4	0.0	178.62928676605225	
31	155.83147192001343	movie	1		246	29.0	2.5	/experiments/knapen_AOT/AOT_stimuli/rescaled_final/0056_fw.mp4	0.0	179.04580879211426	2.5003409385681152
31	157.01531291007996	pulse	1	t		29.0	2.5	/experiments/knapen_AOT/AOT_stimuli/rescaled_final/0056_fw.mp4	0.0	180.2296497821808	
31	158.33181285858154	fix_post	2		12	29.0	2.5	/experiments/knapen_AOT/AOT_stimuli/rescaled_final/0056_fw.mp4	0.0	181.54614973068237	0.10004401206970215
32	158.43185687065125	fix_pre	0		120	30.0	2.5	/experiments/knapen_AOT/AOT_stimuli/rescaled_final/0516_fw.mp4	0.0	181.64619374275208	1.0001351833343506
32	158.6155219078064	pulse	0	t		30.0	2.5	/experiments/knapen_AOT/AOT_stimuli/rescaled_final/0516_fw.mp4	0.0	181.82985877990723	
32	159.4319920539856	movie	1		244	30.0	2.5	/experiments/knapen_AOT/AOT_stimuli/rescaled_final/0516_fw.mp4	0.0	182.64632892608643	2.5004708766937256
32	160.21577191352844	pulse	1	t		30.0	2.5	/experiments/knapen_AOT/AOT_stimuli/rescaled_final/0516_fw.mp4	0.0	183.43010878562927	
32	161.81588792800903	pulse	1	t		30.0	2.5	/experiments/knapen_AOT/AOT_stimuli/rescaled_final/0516_fw.mp4	0.0	185.03022480010986	
32	161.93246293067932	fix_post	2		12	30.0	2.5	/experiments/knapen_AOT/AOT_stimuli/rescaled_final/0516_fw.mp4	0.0	185.14679980278015	0.0999150276184082
33	162.03237795829773	fix_pre	0		120	31.0	2.5	/experiments/knapen_AOT/AOT_stimuli/rescaled_final/2080_fw.mp4	0.0	185.24671483039856	1.0001449584960938
33	163.03252291679382	movie	1		243	31.0	2.5	/experiments/knapen_AOT/AOT_stimuli/rescaled_final/2080_fw.mp4	0.0	186.24685978889465	2.492030143737793
33	163.42070293426514	pulse	1	t		31.0	2.5	/experiments/knapen_AOT/AOT_stimuli/rescaled_final/2080_fw.mp4	0.0	186.63503980636597	
33	165.0163378715515	pulse	1	t		31.0	2.5	/experiments/knapen_AOT/AOT_stimuli/rescaled_final/2080_fw.mp4	0.0	188.23067474365234	
33	165.52455306053162	fix_post	2		12	31.0	2.5	/experiments/knapen_AOT/AOT_stimuli/rescaled_final/2080_fw.mp4	0.0	188.73888993263245	0.10008382797241211
34	165.62463688850403	fix_pre	0		120	32.0	2.5	/experiments/knapen_AOT/AOT_stimuli/rescaled_final/1218_fw.mp4	0.0	188.83897376060486	1.0001230239868164
34	166.61658096313477	pulse	0	t		32.0	2.5	/experiments/knapen_AOT/AOT_stimuli/rescaled_final/1218_fw.mp4	0.0	189.8309178352356	
34	166.62475991249084	movie	1		246	32.0	2.5	/experiments/knapen_AOT/AOT_stimuli/rescaled_final/1218_fw.mp4	0.0	189.83909678459167	2.5086679458618164
34	168.2174460887909	pulse	1	t		32.0	2.5	/experiments/knapen_AOT/AOT_stimuli/rescaled_final/1218_fw.mp4	0.0	191.43178296089172	
34	169.13342785835266	fix_post	2		12	32.0	2.5	/experiments/knapen_AOT/AOT_stimuli/rescaled_final/1218_fw.mp4	0.0	192.3477647304535	0.10000920295715332
35	169.23343706130981	fix_pre	0		120	33.0	2.5	/experiments/knapen_AOT/AOT_stimuli/rescaled_final/2010_fw.mp4	0.0	192.44777393341064	1.0001540184020996
35	169.8170850276947	pulse	0	t		33.0	2.5	/experiments/knapen_AOT/AOT_stimuli/rescaled_final/2010_fw.mp4	0.0	193.03142189979553	
35	170.2335910797119	movie	1		245	33.0	2.5	/experiments/knapen_AOT/AOT_stimuli/rescaled_final/2010_fw.mp4	0.0	193.44792795181274	2.5003559589385986
35	171.41738200187683	pulse	1	t		33.0	2.5	/experiments/knapen_AOT/AOT_stimuli/rescaled_final/2010_fw.mp4	0.0	194.63171887397766	
35	172.7339470386505	fix_post	2		12	33.0	2.5	/experiments/knapen_AOT/AOT_stimuli/rescaled_final/2010_fw.mp4	0.0	195.94828391075134	0.10003805160522461
36	172.83398509025574	fix_pre	0		120	34.0	2.5	/experiments/knapen_AOT/AOT_stimuli/rescaled_final/1353_rv.mp4	0.0	196.04832196235657	1.0001778602600098
36	173.01754689216614	pulse	0	t		34.0	2.5	/experiments/knapen_AOT/AOT_stimuli/rescaled_final/1353_rv.mp4	0.0	196.23188376426697	
36	173.83416295051575	movie	1		244	34.0	2.5	/experiments/knapen_AOT/AOT_stimuli/rescaled_final/1353_rv.mp4	0.0	197.04849982261658	2.500322103500366
36	174.6178240776062	pulse	1	t		34.0	2.5	/experiments/knapen_AOT/AOT_stimuli/rescaled_final/1353_rv.mp4	0.0	197.83216094970703	
36	176.21806287765503	pulse	1	t		34.0	2.5	/experiments/knapen_AOT/AOT_stimuli/rescaled_final/1353_rv.mp4	0.0	199.43239974975586	
36	176.3344850540161	fix_post	2		12	34.0	2.5	/experiments/knapen_AOT/AOT_stimuli/rescaled_final/1353_rv.mp4	0.0	199.54882192611694	0.10002779960632324
37	176.43451285362244	fix_pre	0		120	35.0	2.5	blank	1.0	199.64884972572327	1.0001640319824219
37	177.43467688560486	movie	1		299	35.0	2.5	blank	1.0	200.6490137577057	2.492032051086426
37	177.81825804710388	pulse	1	t		35.0	2.5	blank	1.0	201.0325949192047	
37	179.41850996017456	pulse	1	t		35.0	2.5	blank	1.0	202.6328468322754	
37	179.92670893669128	fix_post	2		12	35.0	2.5	blank	1.0	203.14104580879211	0.1011500358581543
38	180.02785897254944	fix_pre	0		118	36.0	2.5	/experiments/knapen_AOT/AOT_stimuli/rescaled_final/1365_rv.mp4	0.0	203.24219584465027	0.9990320205688477
38	181.0187530517578	pulse	0	t		36.0	2.5	/experiments/knapen_AOT/AOT_stimuli/rescaled_final/1365_rv.mp4	0.0	204.23308992385864	
38	181.0268909931183	movie	1		245	36.0	2.5	/experiments/knapen_AOT/AOT_stimuli/rescaled_final/1365_rv.mp4	0.0	204.24122786521912	2.5086829662323
38	182.6194908618927	pulse	1	t		36.0	2.5	/experiments/knapen_AOT/AOT_stimuli/rescaled_final/1365_rv.mp4	0.0	205.83382773399353	
38	183.5355739593506	fix_post	2		12	36.0	2.5	/experiments/knapen_AOT/AOT_stimuli/rescaled_final/1365_rv.mp4	0.0	206.74991083145142	0.10000109672546387
39	183.63557505607605	fix_pre	0		120	37.0	2.5	/experiments/knapen_AOT/AOT_stimuli/rescaled_final/1315_rv.mp4	0.0	206.84991192817688	1.0002000331878662
39	184.21930289268494	pulse	0	t		37.0	2.5	/experiments/knapen_AOT/AOT_stimuli/rescaled_final/1315_rv.mp4	0.0	207.43363976478577	
39	184.63577508926392	movie	1		244	37.0	2.5	/experiments/knapen_AOT/AOT_stimuli/rescaled_final/1315_rv.mp4	0.0	207.85011196136475	2.500302791595459
39	185.8154580593109	pulse	1	t		37.0	2.5	/experiments/knapen_AOT/AOT_stimuli/rescaled_final/1315_rv.mp4	0.0	209.02979493141174	
39	187.13607788085938	fix_post	2		12	37.0	2.5	/experiments/knapen_AOT/AOT_stimuli/rescaled_final/1315_rv.mp4	0.0	210.3504147529602	0.10004520416259766
40	187.23612308502197	fix_pre	0		120	38.0	2.5	/experiments/knapen_AOT/AOT_stimuli/rescaled_final/0379_rv.mp4	0.0	210.4504599571228	1.0001568794250488
40	187.41964507102966	pulse	0	t		38.0	2.5	/experiments/knapen_AOT/AOT_stimuli/rescaled_final/0379_rv.mp4	0.0	210.6339819431305	
40	188.23627996444702	movie	1		244	38.0	2.5	/experiments/knapen_AOT/AOT_stimuli/rescaled_final/0379_rv.mp4	0.0	211.45061683654785	2.500386953353882
40	189.0200400352478	pulse	1	t		38.0	2.5	/experiments/knapen_AOT/AOT_stimuli/rescaled_final/0379_rv.mp4	0.0	212.23437690734863	
40	190.62024593353271	pulse	1	t		38.0	2.5	/experiments/knapen_AOT/AOT_stimuli/rescaled_final/0379_rv.mp4	0.0	213.83458280563354	
40	190.7366669178009	fix_post	2		12	38.0	2.5	/experiments/knapen_AOT/AOT_stimuli/rescaled_final/0379_rv.mp4	0.0	213.95100378990173	0.10003209114074707
41	190.83669900894165	fix_pre	0		120	39.0	2.5	/experiments/knapen_AOT/AOT_stimuli/rescaled_final/1674_rv.mp4	0.0	214.05103588104248	1.000133991241455
41	191.8368330001831	movie	1		242	39.0	2.5	/experiments/knapen_AOT/AOT_stimuli/rescaled_final/1674_rv.mp4	0.0	215.05116987228394	2.492018938064575
41	192.22105407714844	pulse	1	t		39.0	2.5	/experiments/knapen_AOT/AOT_stimuli/rescaled_final/1674_rv.mp4	0.0	215.43539094924927	
41	193.81333708763123	pulse	1	t		39.0	2.5	/experiments/knapen_AOT/AOT_stimuli/rescaled_final/1674_rv.mp4	0.0	217.02767395973206	
41	194.32885193824768	fix_post	2		12	39.0	2.5	/experiments/knapen_AOT/AOT_stimuli/rescaled_final/1674_rv.mp4	0.0	217.5431888103485	0.10002708435058594
42	194.42887902259827	fix_pre	0		120	40.0	2.5	blank	1.0	217.6432158946991	1.0001869201660156
42	195.41333103179932	pulse	0	t		40.0	2.5	blank	1.0	218.62766790390015	
42	195.42906594276428	movie	1		301	40.0	2.5	blank	1.0	218.6434028148651	2.5086750984191895
42	197.01359486579895	pulse	1	t		40.0	2.5	blank	1.0	220.22793173789978	
42	197.93774104118347	fix_post	2		12	40.0	2.5	blank	1.0	221.1520779132843	0.10000991821289062
43	198.03775095939636	fix_pre	0		120	41.0	2.5	/experiments/knapen_AOT/AOT_stimuli/rescaled_final/1099_rv.mp4	0.0	221.2520878314972	1.0001640319824219
43	198.6139838695526	pulse	0	t		41.0	2.5	/experiments/knapen_AOT/AOT_stimuli/rescaled_final/1099_rv.mp4	0.0	221.82832074165344	
43	199.03791499137878	movie	1		244	41.0	2.5	/experiments/knapen_AOT/AOT_stimuli/rescaled_final/1099_rv.mp4	0.0	222.25225186347961	2.5003230571746826
43	200.21372199058533	pulse	1	t		41.0	2.5	/experiments/knapen_AOT/AOT_stimuli/rescaled_final/1099_rv.mp4	0.0	223.42805886268616	
43	201.53823804855347	fix_post	2		12	41.0	2.5	/experiments/knapen_AOT/AOT_stimuli/rescaled_final/1099_rv.mp4	0.0	224.7525749206543	0.10003995895385742
44	201.63827800750732	fix_pre	0		120	42.0	2.5	/experiments/knapen_AOT/AOT_stimuli/rescaled_final/2148_rv.mp4	0.0	224.85261487960815	1.0001330375671387
44	201.81353187561035	pulse	0	t		42.0	2.5	/experiments/knapen_AOT/AOT_stimuli/rescaled_final/2148_rv.mp4	0.0	225.02786874771118	
44	202.63841104507446	movie	1		243	42.0	2.5	/experiments/knapen_AOT/AOT_stimuli/rescaled_final/2148_rv.mp4	0.0	225.8527479171753	2.500377893447876
44	203.41370701789856	pulse	1	t		42.0	2.5	/experiments/knapen_AOT/AOT_stimuli/rescaled_final/2148_rv.mp4	0.0	226.6280438899994	
44	205.0139729976654	pulse	1	t		42.0	2.5	/experiments/knapen_AOT/AOT_stimuli/rescaled_final/2148_rv.mp4	0.0	228.22830986976624	
44	205.13878893852234	fix_post	2		12	42.0	2.5	/experiments/knapen_AOT/AOT_stimuli/rescaled_final/2148_rv.mp4	0.0	228.35312581062317	0.1000211238861084
45	205.23881006240845	fix_pre	0		119	43.0	2.5	/experiments/knapen_AOT/AOT_stimuli/rescaled_final/0376_rv.mp4	0.0	228.45314693450928	0.9918220043182373
45	206.23063206672668	movie	1		244	43.0	2.5	/experiments/knapen_AOT/AOT_stimuli/rescaled_final/0376_rv.mp4	0.0	229.44496893882751	2.5003459453582764
45	206.6148760318756	pulse	1	t		43.0	2.5	/experiments/knapen_AOT/AOT_stimuli/rescaled_final/0376_rv.mp4	0.0	229.82921290397644	
45	208.2144799232483	pulse	1	t		43.0	2.5	/experiments/knapen_AOT/AOT_stimuli/rescaled_final/0376_rv.mp4	0.0	231.42881679534912	
45	208.73097801208496	fix_post	2		12	43.0	2.5	/experiments/knapen_AOT/AOT_stimuli/rescaled_final/0376_rv.mp4	0.0	231.9453148841858	0.1000678539276123
46	208.83104586601257	fix_pre	0		119	44.0	2.5	/experiments/knapen_AOT/AOT_stimuli/rescaled_final/1365_rv.mp4	0.0	232.0453827381134	0.9918100833892822
46	209.81468200683594	pulse	0	t		44.0	2.5	/experiments/knapen_AOT/AOT_stimuli/rescaled_final/1365_rv.mp4	0.0	233.02901887893677	
46	209.82285594940186	movie	1		245	44.0	2.5	/experiments/knapen_AOT/AOT_stimuli/rescaled_final/1365_rv.mp4	0.0	233.03719282150269	2.5087389945983887
46	211.4153778553009	pulse	1	t		44.0	2.5	/experiments/knapen_AOT/AOT_stimuli/rescaled_final/1365_rv.mp4	0.0	234.62971472740173	
46	212.33159494400024	fix_post	2		12	44.0	2.5	/experiments/knapen_AOT/AOT_stimuli/rescaled_final/1365_rv.mp4	0.0	235.54593181610107	0.09996414184570312
47	212.43155908584595	fix_pre	0		120	45.0	2.5	/experiments/knapen_AOT/AOT_stimuli/rescaled_final/2080_rv.mp4	0.0	235.64589595794678	1.00016188621521
47	213.0151870250702	pulse	0	t		45.0	2.5	/experiments/knapen_AOT/AOT_stimuli/rescaled_final/2080_rv.mp4	0.0	236.22952389717102	
47	213.43172097206116	movie	1		244	45.0	2.5	/experiments/knapen_AOT/AOT_stimuli/rescaled_final/2080_rv.mp4	0.0	236.646057844162	2.500300884246826
47	214.61554288864136	pulse	1	t		45.0	2.5	/experiments/knapen_AOT/AOT_stimuli/rescaled_final/2080_rv.mp4	0.0	237.8298797607422	
47	215.93202185630798	fix_post	2		12	45.0	2.5	/experiments/knapen_AOT/AOT_stimuli/rescaled_final/2080_rv.mp4	0.0	239.1463587284088	0.10007500648498535
48	216.03209686279297	fix_pre	0		120	46.0	2.5	/experiments/knapen_AOT/AOT_stimuli/rescaled_final/1509_fw.mp4	0.0	239.2464337348938	1.0002570152282715
48	216.2155840396881	pulse	0	t		46.0	2.5	/experiments/knapen_AOT/AOT_stimuli/rescaled_final/1509_fw.mp4	0.0	239.42992091178894	
48	217.03235387802124	movie	1		246	46.0	2.5	/experiments/knapen_AOT/AOT_stimuli/rescaled_final/1509_fw.mp4	0.0	240.24669075012207	2.5002541542053223
48	217.81600689888	pulse	1	t		46.0	2.5	/experiments/knapen_AOT/AOT_stimuli/rescaled_final/1509_fw.mp4	0.0	241.03034377098083	
48	219.41619491577148	pulse	1	t		46.0	2.5	/experiments/knapen_AOT/AOT_stimuli/rescaled_final/1509_fw.mp4	0.0	242.63053178787231	
48	219.53260803222656	fix_post	2		12	46.0	2.5	/experiments/knapen_AOT/AOT_stimuli/rescaled_final/1509_fw.mp4	0.0	242.7469449043274	0.1000058650970459
49	219.6326138973236	fix_pre	0		119	47.0	2.5	blank	1.0	242.84695076942444	0.9917850494384766
49	220.62439894676208	movie	1		300	47.0	2.5	blank	1.0	243.83873581886292	2.500437021255493
49	221.01636290550232	pulse	1	t		47.0	2.5	blank	1.0	244.23069977760315	
49	222.6166160106659	pulse	1	t		47.0	2.5	blank	1.0	245.83095288276672	
49	223.12483596801758	fix_post	2		12	47.0	2.5	blank	1.0	246.3391728401184	0.09996795654296875
50	223.22480392456055	fix_pre	0		120	48.0	2.5	/experiments/knapen_AOT/AOT_stimuli/rescaled_final/0748_fw.mp4	0.0	246.43914079666138	1.0001881122589111
50	224.21689796447754	pulse	0	t		48.0	2.5	/experiments/knapen_AOT/AOT_stimuli/rescaled_final/0748_fw.mp4	0.0	247.43123483657837	
50	224.22499203681946	movie	1		247	48.0	2.5	/experiments/knapen_AOT/AOT_stimuli/rescaled_final/0748_fw.mp4	0.0	247.4393289089203	2.508708953857422
50	225.81764698028564	pulse	1	t		48.0	2.5	/experiments/knapen_AOT/AOT_stimuli/rescaled_final/0748_fw.mp4	0.0	249.03198385238647	
50	226.73370099067688	fix_post	2		12	48.0	2.5	/experiments/knapen_AOT/AOT_stimuli/rescaled_final/0748_fw.mp4	0.0	249.9480378627777	0.09999394416809082
51	226.83369493484497	fix_pre	0		120	49.0	2.5	/experiments/knapen_AOT/AOT_stimuli/rescaled_final/1882_fw.mp4	0.0	250.0480318069458	1.0001530647277832
51	227.41741585731506	pulse	0	t		49.0	2.5	/experiments/knapen_AOT/AOT_stimuli/rescaled_final/1882_fw.mp4	0.0	250.6317527294159	
51	227.83384799957275	movie	1		244	49.0	2.5	/experiments/knapen_AOT/AOT_stimuli/rescaled_final/1882_fw.mp4	0.0	251.04818487167358	2.50034499168396
51	229.0176980495453	pulse	1	t		49.0	2.5	/experiments/knapen_AOT/AOT_stimuli/rescaled_final/1882_fw.mp4	0.0	252.23203492164612	
51	230.3341929912567	fix_post	2		12	49.0	2.5	/experiments/knapen_AOT/AOT_stimuli/rescaled_final/1882_fw.mp4	0.0	253.54852986335754	0.10005593299865723
52	230.43424892425537	fix_pre	0		120	50.0	2.5	/experiments/knapen_AOT/AOT_stimuli/rescaled_final/1536_fw.mp4	0.0	253.6485857963562	1.0001320838928223
52	230.61779689788818	pulse	0	t		50.0	2.5	/experiments/knapen_AOT/AOT_stimuli/rescaled_final/1536_fw.mp4	0.0	253.832133769989	
52	231.4343810081482	movie	1		244	50.0	2.5	/experiments/knapen_AOT/AOT_stimuli/rescaled_final/1536_fw.mp4	0.0	254.64871788024902	2.500375986099243
52	232.21814489364624	pulse	1	t		50.0	2.5	/experiments/knapen_AOT/AOT_stimuli/rescaled_final/1536_fw.mp4	0.0	255.43248176574707	
52	233.81820797920227	pulse	1	t		50.0	2.5	/experiments/knapen_AOT/AOT_stimuli/rescaled_final/1536_fw.mp4	0.0	257.0325448513031	
52	233.93475699424744	fix_post	2		12	50.0	2.5	/experiments/knapen_AOT/AOT_stimuli/rescaled_final/1536_fw.mp4	0.0	257.14909386634827	0.10000395774841309
53	234.03476095199585	fix_pre	0		120	51.0	2.5	/experiments/knapen_AOT/AOT_stimuli/rescaled_final/0236_fw.mp4	0.0	257.2490978240967	1.0001330375671387
53	235.034893989563	movie	1		245	51.0	2.5	/experiments/knapen_AOT/AOT_stimuli/rescaled_final/0236_fw.mp4	0.0	258.2492308616638	2.4920849800109863
53	235.41914701461792	pulse	1	t		51.0	2.5	/experiments/knapen_AOT/AOT_stimuli/rescaled_final/0236_fw.mp4	0.0	258.63348388671875	
53	237.01882004737854	pulse	1	t		51.0	2.5	/experiments/knapen_AOT/AOT_stimuli/rescaled_final/0236_fw.mp4	0.0	260.23315691947937	
53	237.52697896957397	fix_post	2		12	51.0	2.5	/experiments/knapen_AOT/AOT_stimuli/rescaled_final/0236_fw.mp4	0.0	260.7413158416748	0.10000491142272949
54	237.6269838809967	fix_pre	0		120	52.0	2.5	/experiments/knapen_AOT/AOT_stimuli/rescaled_final/1452_rv.mp4	0.0	260.84132075309753	1.0001370906829834
54	238.61904287338257	pulse	0	t		52.0	2.5	/experiments/knapen_AOT/AOT_stimuli/rescaled_final/1452_rv.mp4	0.0	261.8333797454834	
54	238.6271209716797	movie	1		244	52.0	2.5	/experiments/knapen_AOT/AOT_stimuli/rescaled_final/1452_rv.mp4	0.0	261.8414578437805	2.510087013244629
54	240.21987390518188	pulse	1	t		52.0	2.5	/experiments/knapen_AOT/AOT_stimuli/rescaled_final/1452_rv.mp4	0.0	263.4342107772827	
54	241.13720798492432	fix_post	2		11	52.0	2.5	/experiments/knapen_AOT/AOT_stimuli/rescaled_final/1452_rv.mp4	0.0	264.35154485702515	0.09861588478088379
55	241.2358238697052	fix_pre	0		120	53.0	2.5	/experiments/knapen_AOT/AOT_stimuli/rescaled_final/0365_rv.mp4	0.0	264.45016074180603	1.0001850128173828
55	241.81947493553162	pulse	0	t		53.0	2.5	/experiments/knapen_AOT/AOT_stimuli/rescaled_final/0365_rv.mp4	0.0	265.03381180763245	
55	242.23600888252258	movie	1		245	53.0	2.5	/experiments/knapen_AOT/AOT_stimuli/rescaled_final/0365_rv.mp4	0.0	265.4503457546234	2.500339984893799
55	243.4197759628296	pulse	1	t		53.0	2.5	/experiments/knapen_AOT/AOT_stimuli/rescaled_final/0365_rv.mp4	0.0	266.6341128349304	
55	244.73634886741638	fix_post	2		12	53.0	2.5	/experiments/knapen_AOT/AOT_stimuli/rescaled_final/0365_rv.mp4	0.0	267.9506857395172	0.09997320175170898
56	244.8363220691681	fix_pre	0		120	54.0	2.5	blank	1.0	268.0506589412689	1.0001978874206543
56	245.0199019908905	pulse	0	t		54.0	2.5	blank	1.0	268.23423886299133	
56	245.83651995658875	movie	1		300	54.0	2.5	blank	1.0	269.0508568286896	2.5003859996795654
56	246.62031507492065	pulse	1	t		54.0	2.5	blank	1.0	269.8346519470215	
56	248.2205469608307	pulse	1	t		54.0	2.5	blank	1.0	271.4348838329315	
56	248.3369059562683	fix_post	2		12	54.0	2.5	blank	1.0	271.55124282836914	0.10004997253417969
57	248.4369559288025	fix_pre	0		120	55.0	2.5	/experiments/knapen_AOT/AOT_stimuli/rescaled_final/0244_fw.mp4	0.0	271.6512928009033	1.0001349449157715
57	249.43709087371826	movie	1		244	55.0	2.5	/experiments/knapen_AOT/AOT_stimuli/rescaled_final/0244_fw.mp4	0.0	272.6514277458191	2.492004156112671
57	249.8215570449829	pulse	1	t		55.0	2.5	/experiments/knapen_AOT/AOT_stimuli/rescaled_final/0244_fw.mp4	0.0	273.03589391708374	
57	251.4210488796234	pulse	1	t		55.0	2.5	/experiments/knapen_AOT/AOT_stimuli/rescaled_final/0244_fw.mp4	0.0	274.63538575172424	
57	251.92909502983093	fix_post	2		12	55.0	2.5	/experiments/knapen_AOT/AOT_stimuli/rescaled_final/0244_fw.mp4	0.0	275.14343190193176	0.10001897811889648
58	252.02911400794983	fix_pre	0		120	56.0	2.5	/experiments/knapen_AOT/AOT_stimuli/rescaled_final/1282_rv.mp4	0.0	275.24345088005066	1.0001540184020996
58	253.0211000442505	pulse	0	t		56.0	2.5	/experiments/knapen_AOT/AOT_stimuli/rescaled_final/1282_rv.mp4	0.0	276.2354369163513	
58	253.02926802635193	movie	1		245	56.0	2.5	/experiments/knapen_AOT/AOT_stimuli/rescaled_final/1282_rv.mp4	0.0	276.24360489845276	2.508687973022461
58	254.62199807167053	pulse	1	t		56.0	2.5	/experiments/knapen_AOT/AOT_stimuli/rescaled_final/1282_rv.mp4	0.0	277.83633494377136	
58	255.5379559993744	fix_post	2		12	56.0	2.5	/experiments/knapen_AOT/AOT_stimuli/rescaled_final/1282_rv.mp4	0.0	278.7522928714752	0.10004496574401855
59	255.6380009651184	fix_pre	0		120	57.0	2.5	/experiments/knapen_AOT/AOT_stimuli/rescaled_final/0211_rv.mp4	0.0	278.85233783721924	1.0001540184020996
59	256.21415185928345	pulse	0	t		57.0	2.5	/experiments/knapen_AOT/AOT_stimuli/rescaled_final/0211_rv.mp4	0.0	279.4284887313843	
59	256.6381549835205	movie	1		244	57.0	2.5	/experiments/knapen_AOT/AOT_stimuli/rescaled_final/0211_rv.mp4	0.0	279.85249185562134	2.5003340244293213
59	257.8176109790802	pulse	1	t		57.0	2.5	/experiments/knapen_AOT/AOT_stimuli/rescaled_final/0211_rv.mp4	0.0	281.03194785118103	
59	259.13848900794983	fix_post	2		12	57.0	2.5	/experiments/knapen_AOT/AOT_stimuli/rescaled_final/0211_rv.mp4	0.0	282.35282588005066	0.10005307197570801
60	259.23854207992554	fix_pre	0		120	58.0	2.5	/experiments/knapen_AOT/AOT_stimuli/rescaled_final/1040_rv.mp4	0.0	282.45287895202637	1.0001459121704102
60	259.4146349430084	pulse	0	t		58.0	2.5	/experiments/knapen_AOT/AOT_stimuli/rescaled_final/1040_rv.mp4	0.0	282.62897181510925	
60	260.23868799209595	movie	1		243	58.0	2.5	/experiments/knapen_AOT/AOT_stimuli/rescaled_final/1040_rv.mp4	0.0	283.4530248641968	2.500364065170288
60	261.0149040222168	pulse	1	t		58.0	2.5	/experiments/knapen_AOT/AOT_stimuli/rescaled_final/1040_rv.mp4	0.0	284.2292408943176	
60	262.6142659187317	pulse	1	t		58.0	2.5	/experiments/knapen_AOT/AOT_stimuli/rescaled_final/1040_rv.mp4	0.0	285.8286027908325	
60	262.73905205726624	fix_post	2		12	58.0	2.5	/experiments/knapen_AOT/AOT_stimuli/rescaled_final/1040_rv.mp4	0.0	285.95338892936707	0.10000300407409668
61	262.83905506134033	fix_pre	0		120	59.0	2.5	/experiments/knapen_AOT/AOT_stimuli/rescaled_final/0256_rv.mp4	0.0	286.05339193344116	1.000180959701538
61	263.83923602104187	movie	1		242	59.0	2.5	/experiments/knapen_AOT/AOT_stimuli/rescaled_final/0256_rv.mp4	0.0	287.0535728931427	2.491994857788086
61	264.21448397636414	pulse	1	t		59.0	2.5	/experiments/knapen_AOT/AOT_stimuli/rescaled_final/0256_rv.mp4	0.0	287.42882084846497	
61	265.81477403640747	pulse	1	t		59.0	2.5	/experiments/knapen_AOT/AOT_stimuli/rescaled_final/0256_rv.mp4	0.0	289.0291109085083	
61	266.33123087882996	fix_post	2		12	59.0	2.5	/experiments/knapen_AOT/AOT_stimuli/rescaled_final/0256_rv.mp4	0.0	289.5455677509308	0.10003113746643066
62	266.4312620162964	fix_pre	0		119	60.0	2.5	/experiments/knapen_AOT/AOT_stimuli/rescaled_final/0516_fw.mp4	0.0	289.6455988883972	0.9918398857116699
62	267.41494703292847	pulse	0	t		60.0	2.5	/experiments/knapen_AOT/AOT_stimuli/rescaled_final/0516_fw.mp4	0.0	290.6292839050293	
62	267.42310190200806	movie	1		245	60.0	2.5	/experiments/knapen_AOT/AOT_stimuli/rescaled_final/0516_fw.mp4	0.0	290.6374387741089	2.508697986602783
62	269.0160529613495	pulse	1	t		60.0	2.5	/experiments/knapen_AOT/AOT_stimuli/rescaled_final/0516_fw.mp4	0.0	292.2303898334503	
62	269.93179988861084	fix_post	2		12	60.0	2.5	/experiments/knapen_AOT/AOT_stimuli/rescaled_final/0516_fw.mp4	0.0	293.14613676071167	0.100006103515625
63	270.03180599212646	fix_pre	0		120	61.0	2.5	/experiments/knapen_AOT/AOT_stimuli/rescaled_final/1989_rv.mp4	0.0	293.2461428642273	1.0001509189605713
63	270.6153950691223	pulse	0	t		61.0	2.5	/experiments/knapen_AOT/AOT_stimuli/rescaled_final/1989_rv.mp4	0.0	293.82973194122314	
63	271.03195691108704	movie	1		246	61.0	2.5	/experiments/knapen_AOT/AOT_stimuli/rescaled_final/1989_rv.mp4	0.0	294.24629378318787	2.50039005279541
63	272.21572494506836	pulse	1	t		61.0	2.5	/experiments/knapen_AOT/AOT_stimuli/rescaled_final/1989_rv.mp4	0.0	295.4300618171692	
63	273.53234696388245	fix_post	2		12	61.0	2.5	/experiments/knapen_AOT/AOT_stimuli/rescaled_final/1989_rv.mp4	0.0	296.7466838359833	0.0999910831451416
64	273.6323380470276	fix_pre	0		120	62.0	2.5	/experiments/knapen_AOT/AOT_stimuli/rescaled_final/0411_rv.mp4	0.0	296.8466749191284	1.000128984451294
64	273.81593894958496	pulse	0	t		62.0	2.5	/experiments/knapen_AOT/AOT_stimuli/rescaled_final/0411_rv.mp4	0.0	297.0302758216858	
64	274.6324670314789	movie	1		244	62.0	2.5	/experiments/knapen_AOT/AOT_stimuli/rescaled_final/0411_rv.mp4	0.0	297.8468039035797	2.5004079341888428
64	275.41616106033325	pulse	1	t		62.0	2.5	/experiments/knapen_AOT/AOT_stimuli/rescaled_final/0411_rv.mp4	0.0	298.6304979324341	
64	277.0166208744049	pulse	1	t		62.0	2.5	/experiments/knapen_AOT/AOT_stimuli/rescaled_final/0411_rv.mp4	0.0	300.23095774650574	
64	277.1328749656677	fix_post	2		12	62.0	2.5	/experiments/knapen_AOT/AOT_stimuli/rescaled_final/0411_rv.mp4	0.0	300.34721183776855	0.10002493858337402
65	277.2328999042511	fix_pre	0		120	63.0	2.5	blank	1.0	300.44723677635193	1.0002620220184326
65	278.23316192626953	movie	1		299	63.0	2.5	blank	1.0	301.44749879837036	2.4919090270996094
65	278.6166009902954	pulse	1	t		63.0	2.5	blank	1.0	301.83093786239624	
65	280.21693086624146	pulse	1	t		63.0	2.5	blank	1.0	303.4312677383423	
65	280.72507095336914	fix_post	2		12	63.0	2.5	blank	1.0	303.93940782546997	0.10000896453857422
66	280.8250799179077	fix_pre	0		120	64.0	2.5	/experiments/knapen_AOT/AOT_stimuli/rescaled_final/1310_fw.mp4	0.0	304.03941679000854	1.0001699924468994
66	281.8172199726105	pulse	0	t		64.0	2.5	/experiments/knapen_AOT/AOT_stimuli/rescaled_final/1310_fw.mp4	0.0	305.0315568447113	
66	281.8252499103546	movie	1		245	64.0	2.5	/experiments/knapen_AOT/AOT_stimuli/rescaled_final/1310_fw.mp4	0.0	305.03958678245544	2.5086891651153564
66	283.4178340435028	pulse	1	t		64.0	2.5	/experiments/knapen_AOT/AOT_stimuli/rescaled_final/1310_fw.mp4	0.0	306.63217091560364	
66	284.33393907546997	fix_post	2		12	64.0	2.5	/experiments/knapen_AOT/AOT_stimuli/rescaled_final/1310_fw.mp4	0.0	307.5482759475708	0.10004186630249023
67	284.43398094177246	fix_pre	0		120	65.0	2.5	/experiments/knapen_AOT/AOT_stimuli/rescaled_final/1152_fw.mp4	0.0	307.6483178138733	1.0000779628753662
67	285.01756501197815	pulse	0	t		65.0	2.5	/experiments/knapen_AOT/AOT_stimuli/rescaled_final/1152_fw.mp4	0.0	308.231901884079	
67	285.4340589046478	movie	1		244	65.0	2.5	/experiments/knapen_AOT/AOT_stimuli/rescaled_final/1152_fw.mp4	0.0	308.64839577674866	2.500494956970215
67	286.61802196502686	pulse	1	t		65.0	2.5	/experiments/knapen_AOT/AOT_stimuli/rescaled_final/1152_fw.mp4	0.0	309.8323588371277	
67	287.93455386161804	fix_post	2		12	65.0	2.5	/experiments/knapen_AOT/AOT_stimuli/rescaled_final/1152_fw.mp4	0.0	311.1488907337189	0.09992122650146484
68	288.0344750881195	fix_pre	0		120	66.0	2.5	/experiments/knapen_AOT/AOT_stimuli/rescaled_final/0632_rv.mp4	0.0	311.24881196022034	1.0001678466796875
68	288.21816396713257	pulse	0	t		66.0	2.5	/experiments/knapen_AOT/AOT_stimuli/rescaled_final/0632_rv.mp4	0.0	311.4325008392334	
68	289.0346429347992	movie	1		245	66.0	2.5	/experiments/knapen_AOT/AOT_stimuli/rescaled_final/0632_rv.mp4	0.0	312.2489798069	2.500386953353882
68	289.81841588020325	pulse	1	t		66.0	2.5	/experiments/knapen_AOT/AOT_stimuli/rescaled_final/0632_rv.mp4	0.0	313.0327527523041	
68	291.4161310195923	pulse	1	t		66.0	2.5	/experiments/knapen_AOT/AOT_stimuli/rescaled_final/0632_rv.mp4	0.0	314.6304678916931	
68	291.5350298881531	fix_post	2		12	66.0	2.5	/experiments/knapen_AOT/AOT_stimuli/rescaled_final/0632_rv.mp4	0.0	314.7493667602539	0.10001897811889648
69	291.635048866272	fix_pre	0		120	67.0	2.5	/experiments/knapen_AOT/AOT_stimuli/rescaled_final/1250_rv.mp4	0.0	314.8493857383728	1.0001490116119385
69	292.6351978778839	movie	1		244	67.0	2.5	/experiments/knapen_AOT/AOT_stimuli/rescaled_final/1250_rv.mp4	0.0	315.84953474998474	2.4920380115509033
69	293.01935386657715	pulse	1	t		67.0	2.5	/experiments/knapen_AOT/AOT_stimuli/rescaled_final/1250_rv.mp4	0.0	316.233690738678	
69	294.61916494369507	pulse	1	t		67.0	2.5	/experiments/knapen_AOT/AOT_stimuli/rescaled_final/1250_rv.mp4	0.0	317.8335018157959	
69	295.1272358894348	fix_post	2		12	67.0	2.5	/experiments/knapen_AOT/AOT_stimuli/rescaled_final/1250_rv.mp4	0.0	318.34157276153564	0.09998011589050293
70	295.2272160053253	fix_pre	0		120	68.0	2.5	blank	1.0	318.44155287742615	1.0001728534698486
70	296.21930599212646	pulse	0	t		68.0	2.5	blank	1.0	319.4336428642273	
70	296.22738885879517	movie	1		301	68.0	2.5	blank	1.0	319.441725730896	2.508796215057373
70	297.81948590278625	pulse	1	t		68.0	2.5	blank	1.0	321.0338227748871	
70	298.73618507385254	fix_post	2		12	68.0	2.5	blank	1.0	321.95052194595337	0.09989786148071289
71	298.83608293533325	fix_pre	0		120	69.0	2.5	/experiments/knapen_AOT/AOT_stimuli/rescaled_final/1249_fw.mp4	0.0	322.0504198074341	1.0002169609069824
71	299.4197599887848	pulse	0	t		69.0	2.5	/experiments/knapen_AOT/AOT_stimuli/rescaled_final/1249_fw.mp4	0.0	322.6340968608856	
71	299.83629989624023	movie	1		241	69.0	2.5	/experiments/knapen_AOT/AOT_stimuli/rescaled_final/1249_fw.mp4	0.0	323.05063676834106	2.500380039215088
71	301.0201189517975	pulse	1	t		69.0	2.5	/experiments/knapen_AOT/AOT_stimuli/rescaled_final/1249_fw.mp4	0.0	324.2344558238983	
71	302.3366799354553	fix_post	2		12	69.0	2.5	/experiments/knapen_AOT/AOT_stimuli/rescaled_final/1249_fw.mp4	0.0	325.55101680755615	0.0999901294708252
72	302.43667006492615	fix_pre	0		120	70.0	2.5	/experiments/knapen_AOT/AOT_stimuli/rescaled_final/0255_rv.mp4	0.0	325.651006937027	1.00016188621521
72	302.6203348636627	pulse	0	t		70.0	2.5	/experiments/knapen_AOT/AOT_stimuli/rescaled_final/0255_rv.mp4	0.0	325.83467173576355	
72	303.43683195114136	movie	1		243	70.0	2.5	/experiments/knapen_AOT/AOT_stimuli/rescaled_final/0255_rv.mp4	0.0	326.6511688232422	2.5004191398620605
72	304.22048807144165	pulse	1	t		70.0	2.5	/experiments/knapen_AOT/AOT_stimuli/rescaled_final/0255_rv.mp4	0.0	327.4348249435425	
72	305.82067108154297	pulse	1	t		70.0	2.5	/experiments/knapen_AOT/AOT_stimuli/rescaled_final/0255_rv.mp4	0.0	329.0350079536438	
72	305.9372510910034	fix_post	2		12	70.0	2.5	/experiments/knapen_AOT/AOT_stimuli/rescaled_final/0255_rv.mp4	0.0	329.15158796310425	0.09992194175720215
73	306.0371730327606	fix_pre	0		119	71.0	2.5	/experiments/knapen_AOT/AOT_stimuli/rescaled_final/0886_rv.mp4	0.0	329.25150990486145	0.9917929172515869
73	307.0289659500122	movie	1		244	71.0	2.5	/experiments/knapen_AOT/AOT_stimuli/rescaled_final/0886_rv.mp4	0.0	330.24330282211304	2.5004000663757324
73	307.4138090610504	pulse	1	t		71.0	2.5	/experiments/knapen_AOT/AOT_stimuli/rescaled_final/0886_rv.mp4	0.0	330.62814593315125	
73	309.0138568878174	pulse	1	t		71.0	2.5	/experiments/knapen_AOT/AOT_stimuli/rescaled_final/0886_rv.mp4	0.0	332.2281937599182	
73	309.52936601638794	fix_post	2		12	71.0	2.5	/experiments/knapen_AOT/AOT_stimuli/rescaled_final/0886_rv.mp4	0.0	332.74370288848877	0.10001993179321289
74	309.62938594818115	fix_pre	0		120	72.0	2.5	/experiments/knapen_AOT/AOT_stimuli/rescaled_final/1529_rv.mp4	0.0	332.843722820282	1.0001490116119385
74	310.6139829158783	pulse	0	t		72.0	2.5	/experiments/knapen_AOT/AOT_stimuli/rescaled_final/1529_rv.mp4	0.0	333.8283197879791	
74	310.6295349597931	movie	1		245	72.0	2.5	/experiments/knapen_AOT/AOT_stimuli/rescaled_final/1529_rv.mp4	0.0	333.8438718318939	2.508695125579834
74	312.22223806381226	pulse	1	t		72.0	2.5	/experiments/knapen_AOT/AOT_stimuli/rescaled_final/1529_rv.mp4	0.0	335.4365749359131	
74	313.1382300853729	fix_post	2		12	72.0	2.5	/experiments/knapen_AOT/AOT_stimuli/rescaled_final/1529_rv.mp4	0.0	336.35256695747375	0.10001397132873535
75	313.23824405670166	fix_pre	0		120	73.0	2.5	/experiments/knapen_AOT/AOT_stimuli/rescaled_final/2042_fw.mp4	0.0	336.4525809288025	1.000152826309204
75	313.8143479824066	pulse	0	t		73.0	2.5	/experiments/knapen_AOT/AOT_stimuli/rescaled_final/2042_fw.mp4	0.0	337.02868485450745	
75	314.23839688301086	movie	1		247	73.0	2.5	/experiments/knapen_AOT/AOT_stimuli/rescaled_final/2042_fw.mp4	0.0	337.4527337551117	2.500446081161499
75	315.41418504714966	pulse	1	t		73.0	2.5	/experiments/knapen_AOT/AOT_stimuli/rescaled_final/2042_fw.mp4	0.0	338.6285219192505	
75	316.73884296417236	fix_post	2		12	73.0	2.5	/experiments/knapen_AOT/AOT_stimuli/rescaled_final/2042_fw.mp4	0.0	339.9531798362732	0.09997010231018066
76	316.83881306648254	fix_pre	0		120	74.0	2.5	/experiments/knapen_AOT/AOT_stimuli/rescaled_final/0085_rv.mp4	0.0	340.0531499385834	1.000133991241455
76	317.0140550136566	pulse	0	t		74.0	2.5	/experiments/knapen_AOT/AOT_stimuli/rescaled_final/0085_rv.mp4	0.0	340.22839188575745	
76	317.838947057724	movie	1		244	74.0	2.5	/experiments/knapen_AOT/AOT_stimuli/rescaled_final/0085_rv.mp4	0.0	341.05328392982483	2.500391960144043
76	318.6142280101776	pulse	1	t		74.0	2.5	/experiments/knapen_AOT/AOT_stimuli/rescaled_final/0085_rv.mp4	0.0	341.82856488227844	
76	320.2145118713379	pulse	1	t		74.0	2.5	/experiments/knapen_AOT/AOT_stimuli/rescaled_final/0085_rv.mp4	0.0	343.4288487434387	
76	320.33933901786804	fix_post	2		12	74.0	2.5	/experiments/knapen_AOT/AOT_stimuli/rescaled_final/0085_rv.mp4	0.0	343.5536758899689	0.1000070571899414
77	320.439346075058	fix_pre	0		119	75.0	2.5	/experiments/knapen_AOT/AOT_stimuli/rescaled_final/0310_rv.mp4	0.0	343.6536829471588	0.991804838180542
77	321.4311509132385	movie	1		245	75.0	2.5	/experiments/knapen_AOT/AOT_stimuli/rescaled_final/0310_rv.mp4	0.0	344.64548778533936	2.5003581047058105
77	321.81524896621704	pulse	1	t		75.0	2.5	/experiments/knapen_AOT/AOT_stimuli/rescaled_final/0310_rv.mp4	0.0	345.02958583831787	
77	323.41505694389343	pulse	1	t		75.0	2.5	/experiments/knapen_AOT/AOT_stimuli/rescaled_final/0310_rv.mp4	0.0	346.62939381599426	
77	323.93150901794434	fix_post	2		12	75.0	2.5	/experiments/knapen_AOT/AOT_stimuli/rescaled_final/0310_rv.mp4	0.0	347.14584589004517	0.1000058650970459
78	324.0315148830414	fix_pre	0		119	76.0	2.5	blank	1.0	347.2458517551422	0.991840124130249
78	325.0151960849762	pulse	0	t		76.0	2.5	blank	1.0	348.229532957077	
78	325.02335500717163	movie	1		301	76.0	2.5	blank	1.0	348.23769187927246	2.5087029933929443
78	326.61549496650696	pulse	1	t		76.0	2.5	blank	1.0	349.8298318386078	
78	327.5320580005646	fix_post	2		12	76.0	2.5	blank	1.0	350.7463948726654	0.09996604919433594
79	327.6320240497589	fix_pre	0		120	77.0	2.5	/experiments/knapen_AOT/AOT_stimuli/rescaled_final/1043_fw.mp4	0.0	350.84636092185974	1.0001869201660156
79	328.21565985679626	pulse	0	t		77.0	2.5	/experiments/knapen_AOT/AOT_stimuli/rescaled_final/1043_fw.mp4	0.0	351.4299967288971	
79	328.6322109699249	movie	1		245	77.0	2.5	/experiments/knapen_AOT/AOT_stimuli/rescaled_final/1043_fw.mp4	0.0	351.84654784202576	2.5004429817199707
79	329.8159918785095	pulse	1	t		77.0	2.5	/experiments/knapen_AOT/AOT_stimuli/rescaled_final/1043_fw.mp4	0.0	353.03032875061035	
79	331.1326539516449	fix_post	2		12	77.0	2.5	/experiments/knapen_AOT/AOT_stimuli/rescaled_final/1043_fw.mp4	0.0	354.3469908237457	0.09988212585449219
80	331.2325360774994	fix_pre	0		120	78.0	2.5	/experiments/knapen_AOT/AOT_stimuli/rescaled_final/1499_fw.mp4	0.0	354.4468729496002	1.0002079010009766
80	331.41625595092773	pulse	0	t		78.0	2.5	/experiments/knapen_AOT/AOT_stimuli/rescaled_final/1499_fw.mp4	0.0	354.63059282302856	
80	332.23274397850037	movie	1		244	78.0	2.5	/experiments/knapen_AOT/AOT_stimuli/rescaled_final/1499_fw.mp4	0.0	355.4470808506012	2.5003209114074707
80	333.01644706726074	pulse	1	t		78.0	2.5	/experiments/knapen_AOT/AOT_stimuli/rescaled_final/1499_fw.mp4	0.0	356.2307839393616	
80	334.6166150569916	pulse	1	t		78.0	2.5	/experiments/knapen_AOT/AOT_stimuli/rescaled_final/1499_fw.mp4	0.0	357.8309519290924	
80	334.73306488990784	fix_post	2		12	78.0	2.5	/experiments/knapen_AOT/AOT_stimuli/rescaled_final/1499_fw.mp4	0.0	357.94740176200867	0.10006403923034668
81	334.8331289291382	fix_pre	0		120	79.0	2.5	/experiments/knapen_AOT/AOT_stimuli/rescaled_final/0256_rv.mp4	0.0	358.047465801239	1.0001499652862549
81	335.83327889442444	movie	1		242	79.0	2.5	/experiments/knapen_AOT/AOT_stimuli/rescaled_final/0256_rv.mp4	0.0	359.04761576652527	2.4920501708984375
81	336.21737408638	pulse	1	t		79.0	2.5	/experiments/knapen_AOT/AOT_stimuli/rescaled_final/0256_rv.mp4	0.0	359.43171095848083	
81	337.8171479701996	pulse	1	t		79.0	2.5	/experiments/knapen_AOT/AOT_stimuli/rescaled_final/0256_rv.mp4	0.0	361.0314848423004	
81	338.3253290653229	fix_post	2		12	79.0	2.5	/experiments/knapen_AOT/AOT_stimuli/rescaled_final/0256_rv.mp4	0.0	361.5396659374237	0.10003399848937988
82	338.42536306381226	fix_pre	0		120	80.0	2.5	/experiments/knapen_AOT/AOT_stimuli/rescaled_final/1160_rv.mp4	0.0	361.6396999359131	1.000114917755127
82	339.4174120426178	pulse	0	t		80.0	2.5	/experiments/knapen_AOT/AOT_stimuli/rescaled_final/1160_rv.mp4	0.0	362.6317489147186	
82	339.4254779815674	movie	1		245	80.0	2.5	/experiments/knapen_AOT/AOT_stimuli/rescaled_final/1160_rv.mp4	0.0	362.6398148536682	2.508711099624634
82	341.0190019607544	pulse	1	t		80.0	2.5	/experiments/knapen_AOT/AOT_stimuli/rescaled_final/1160_rv.mp4	0.0	364.2333388328552	
82	341.934189081192	fix_post	2		12	80.0	2.5	/experiments/knapen_AOT/AOT_stimuli/rescaled_final/1160_rv.mp4	0.0	365.14852595329285	0.10000777244567871
83	342.0341968536377	fix_pre	0		120	81.0	2.5	/experiments/knapen_AOT/AOT_stimuli/rescaled_final/0102_rv.mp4	0.0	365.2485337257385	1.0001821517944336
83	342.617928981781	pulse	0	t		81.0	2.5	/experiments/knapen_AOT/AOT_stimuli/rescaled_final/0102_rv.mp4	0.0	365.83226585388184	
83	343.03437900543213	movie	1		245	81.0	2.5	/experiments/knapen_AOT/AOT_stimuli/rescaled_final/0102_rv.mp4	0.0	366.24871587753296	2.5003159046173096
83	344.2181279659271	pulse	1	t		81.0	2.5	/experiments/knapen_AOT/AOT_stimuli/rescaled_final/0102_rv.mp4	0.0	367.43246483802795	
83	345.53469491004944	fix_post	2		12	81.0	2.5	/experiments/knapen_AOT/AOT_stimuli/rescaled_final/0102_rv.mp4	0.0	368.74903178215027	0.10005307197570801
84	345.63474798202515	fix_pre	0		120	82.0	2.5	/experiments/knapen_AOT/AOT_stimuli/rescaled_final/0632_fw.mp4	0.0	368.849084854126	1.000140905380249
84	345.8183310031891	pulse	0	t		82.0	2.5	/experiments/knapen_AOT/AOT_stimuli/rescaled_final/0632_fw.mp4	0.0	369.0326678752899	
84	346.6348888874054	movie	1		244	82.0	2.5	/experiments/knapen_AOT/AOT_stimuli/rescaled_final/0632_fw.mp4	0.0	369.8492257595062	2.500540018081665
84	347.4185240268707	pulse	1	t		82.0	2.5	/experiments/knapen_AOT/AOT_stimuli/rescaled_final/0632_fw.mp4	0.0	370.63286089897156	
84	349.0164120197296	pulse	1	t		82.0	2.5	/experiments/knapen_AOT/AOT_stimuli/rescaled_final/0632_fw.mp4	0.0	372.23074889183044	
84	349.13542890548706	fix_post	2		12	82.0	2.5	/experiments/knapen_AOT/AOT_stimuli/rescaled_final/0632_fw.mp4	0.0	372.3497657775879	0.09983396530151367
85	349.2352628707886	fix_pre	0		120	83.0	2.5	blank	1.0	372.4495997428894	1.0001380443572998
85	350.2354009151459	movie	1		299	83.0	2.5	blank	1.0	373.4497377872467	2.492069959640503
85	350.61899995803833	pulse	1	t		83.0	2.5	blank	1.0	373.83333683013916	
85	352.21920800209045	pulse	1	t		83.0	2.5	blank	1.0	375.4335448741913	
85	352.7274708747864	fix_post	2		12	83.0	2.5	blank	1.0	375.9418077468872	0.10000205039978027
87	352.82747292518616	stim	0		1716					376.041809797287	14.30231499671936
87	353.819571018219	pulse	0	t						377.0339078903198	
87	355.4198229312897	pulse	0	t						378.6341598033905	
87	357.02005100250244	pulse	0	t						380.23438787460327	
87	358.6201870441437	pulse	0	t						381.8345239162445	
87	360.2204248905182	pulse	0	t						383.434761762619	
87	361.82060289382935	pulse	0	t						385.0349397659302	
87	363.4209599494934	pulse	0	t						386.63529682159424	
87	365.02113008499146	pulse	0	t						388.2354669570923	
87	366.6213638782501	pulse	0	t						389.83570075035095	
