trial_nr	onset	event_type	phase	response	nr_frames	movie_index	movie_duration	movie_file	blank	onset_abs	duration
0	0.14149785041809082	stim	0		93					40.98846459388733	0.7749888896942139
0	0.9085261821746826	response	0	space						41.75549292564392	
1	0.9164867401123047	stim	0		4632					41.76345348358154	38.61760592460632
1	39.51986598968506	pulse	0	t						80.3668327331543	
1	39.53409266471863	stim	1		1714					80.38105940818787	14.29878854751587
1	41.11462664604187	pulse	1	t						81.96159338951111	
1	42.714619636535645	pulse	1	t						83.56158638000488	
1	44.31500554084778	pulse	1	t						85.16197228431702	
1	45.9150972366333	pulse	1	t						86.76206398010254	
1	47.50857901573181	pulse	1	t						88.35554575920105	
1	49.11563563346863	pulse	1	t						89.96260237693787	
1	50.716322898864746	pulse	1	t						91.56328964233398	
1	52.31633472442627	pulse	1	t						93.16330146789551	
2	53.8328812122345	fix_pre	0		11	0.0	2.5	/experiments/Knapen_AOT/AOT_stimuli/rescaled_final/0190_fw.mp4	0.0	94.67984795570374	0.10831570625305176
2	53.90916419029236	pulse	0	t		0.0	2.5	/experiments/Knapen_AOT/AOT_stimuli/rescaled_final/0190_fw.mp4	0.0	94.7561309337616	
2	53.94119691848755	movie	1		277	0.0	2.5	/experiments/Knapen_AOT/AOT_stimuli/rescaled_final/0190_fw.mp4	0.0	94.78816366195679	2.491990327835083
2	55.50845766067505	pulse	1	t		0.0	2.5	/experiments/Knapen_AOT/AOT_stimuli/rescaled_final/0190_fw.mp4	0.0	96.35542440414429	
2	56.43318724632263	fix_post	2		12	0.0	2.5	/experiments/Knapen_AOT/AOT_stimuli/rescaled_final/0190_fw.mp4	0.0	97.28015398979187	0.10004162788391113
3	56.53322887420654	fix_pre	0		120	1.0	2.5	/experiments/Knapen_AOT/AOT_stimuli/rescaled_final/2061_rv.mp4	0.0	97.38019561767578	1.008462905883789
3	57.10861110687256	pulse	0	t		1.0	2.5	/experiments/Knapen_AOT/AOT_stimuli/rescaled_final/2061_rv.mp4	0.0	97.9555778503418	
3	57.54169178009033	movie	1		290	1.0	2.5	/experiments/Knapen_AOT/AOT_stimuli/rescaled_final/2061_rv.mp4	0.0	98.38865852355957	2.492021083831787
3	58.70870494842529	pulse	1	t		1.0	2.5	/experiments/Knapen_AOT/AOT_stimuli/rescaled_final/2061_rv.mp4	0.0	99.55567169189453	
3	60.03371286392212	fix_post	2		12	1.0	2.5	/experiments/Knapen_AOT/AOT_stimuli/rescaled_final/2061_rv.mp4	0.0	100.88067960739136	0.10000872611999512
4	60.133721590042114	fix_pre	0		120	2.0	2.5	/experiments/Knapen_AOT/AOT_stimuli/rescaled_final/0437_rv.mp4	0.0	100.98068833351135	1.008509874343872
4	60.30906343460083	pulse	0	t		2.0	2.5	/experiments/Knapen_AOT/AOT_stimuli/rescaled_final/0437_rv.mp4	0.0	101.15603017807007	
4	61.142231464385986	movie	1		286	2.0	2.5	/experiments/Knapen_AOT/AOT_stimuli/rescaled_final/0437_rv.mp4	0.0	101.98919820785522	2.4920175075531006
4	61.90921401977539	pulse	1	t		2.0	2.5	/experiments/Knapen_AOT/AOT_stimuli/rescaled_final/0437_rv.mp4	0.0	102.75618076324463	
4	63.50945043563843	pulse	1	t		2.0	2.5	/experiments/Knapen_AOT/AOT_stimuli/rescaled_final/0437_rv.mp4	0.0	104.35641717910767	
4	63.63424897193909	fix_post	2		12	2.0	2.5	/experiments/Knapen_AOT/AOT_stimuli/rescaled_final/0437_rv.mp4	0.0	104.48121571540833	0.10001969337463379
5	63.73426866531372	fix_pre	0		120	3.0	2.5	/experiments/Knapen_AOT/AOT_stimuli/rescaled_final/0689_rv.mp4	0.0	104.58123540878296	1.0085294246673584
5	64.74279808998108	movie	1		283	3.0	2.5	/experiments/Knapen_AOT/AOT_stimuli/rescaled_final/0689_rv.mp4	0.0	105.58976483345032	2.4920241832733154
5	65.10978722572327	pulse	1	t		3.0	2.5	/experiments/Knapen_AOT/AOT_stimuli/rescaled_final/0689_rv.mp4	0.0	105.9567539691925	
5	66.70994400978088	pulse	1	t		3.0	2.5	/experiments/Knapen_AOT/AOT_stimuli/rescaled_final/0689_rv.mp4	0.0	107.55691075325012	
5	67.2348222732544	fix_post	2		12	3.0	2.5	/experiments/Knapen_AOT/AOT_stimuli/rescaled_final/0689_rv.mp4	0.0	108.08178901672363	0.10000205039978027
6	67.33482432365417	fix_pre	0		118	4.0	2.5	/experiments/Knapen_AOT/AOT_stimuli/rescaled_final/0452_rv.mp4	0.0	108.18179106712341	0.9918525218963623
6	68.31019735336304	pulse	0	t		4.0	2.5	/experiments/Knapen_AOT/AOT_stimuli/rescaled_final/0452_rv.mp4	0.0	109.15716409683228	
6	68.32667684555054	movie	1		280	4.0	2.5	/experiments/Knapen_AOT/AOT_stimuli/rescaled_final/0452_rv.mp4	0.0	109.17364358901978	2.5003371238708496
6	69.90872740745544	pulse	1	t		4.0	2.5	/experiments/Knapen_AOT/AOT_stimuli/rescaled_final/0452_rv.mp4	0.0	110.75569415092468	
6	70.82701396942139	fix_post	2		12	4.0	2.5	/experiments/Knapen_AOT/AOT_stimuli/rescaled_final/0452_rv.mp4	0.0	111.67398071289062	0.10003209114074707
7	70.92704606056213	fix_pre	0		120	5.0	2.5	/experiments/Knapen_AOT/AOT_stimuli/rescaled_final/0235_rv.mp4	0.0	111.77401280403137	1.0084550380706787
7	71.51066875457764	pulse	0	t		5.0	2.5	/experiments/Knapen_AOT/AOT_stimuli/rescaled_final/0235_rv.mp4	0.0	112.35763549804688	
7	71.93550109863281	movie	1		288	5.0	2.5	/experiments/Knapen_AOT/AOT_stimuli/rescaled_final/0235_rv.mp4	0.0	112.78246784210205	2.492030382156372
7	73.10901641845703	pulse	1	t		5.0	2.5	/experiments/Knapen_AOT/AOT_stimuli/rescaled_final/0235_rv.mp4	0.0	113.95598316192627	
7	74.42753148078918	fix_post	2		12	5.0	2.5	/experiments/Knapen_AOT/AOT_stimuli/rescaled_final/0235_rv.mp4	0.0	115.27449822425842	0.10001349449157715
8	74.52754497528076	fix_pre	0		120	6.0	2.5	blank	1.0	115.37451171875	1.0001554489135742
8	74.71108818054199	pulse	0	t		6.0	2.5	blank	1.0	115.55805492401123	
8	75.52770042419434	movie	1		300	6.0	2.5	blank	1.0	116.37466716766357	2.5003886222839355
8	76.31133079528809	pulse	1	t		6.0	2.5	blank	1.0	117.15829753875732	
8	77.91156816482544	pulse	1	t		6.0	2.5	blank	1.0	118.75853490829468	
8	78.02808904647827	fix_post	2		12	6.0	2.5	blank	1.0	118.87505578994751	0.10009598731994629
9	78.12818503379822	fix_pre	0		120	7.0	2.5	/experiments/Knapen_AOT/AOT_stimuli/rescaled_final/2039_fw.mp4	0.0	118.97515177726746	1.0085382461547852
9	79.136723279953	movie	1		266	7.0	2.5	/experiments/Knapen_AOT/AOT_stimuli/rescaled_final/2039_fw.mp4	0.0	119.98369002342224	2.491899013519287
9	79.51009321212769	pulse	1	t		7.0	2.5	/experiments/Knapen_AOT/AOT_stimuli/rescaled_final/2039_fw.mp4	0.0	120.35705995559692	
9	81.11345219612122	pulse	1	t		7.0	2.5	/experiments/Knapen_AOT/AOT_stimuli/rescaled_final/2039_fw.mp4	0.0	121.96041893959045	
9	81.62862229347229	fix_post	2		12	7.0	2.5	/experiments/Knapen_AOT/AOT_stimuli/rescaled_final/2039_fw.mp4	0.0	122.47558903694153	0.10001373291015625
10	81.72863602638245	fix_pre	0		119	8.0	2.5	/experiments/Knapen_AOT/AOT_stimuli/rescaled_final/0741_fw.mp4	0.0	122.57560276985168	1.0001647472381592
10	82.71251010894775	pulse	0	t		8.0	2.5	/experiments/Knapen_AOT/AOT_stimuli/rescaled_final/0741_fw.mp4	0.0	123.55947685241699	
10	82.7288007736206	movie	1		281	8.0	2.5	/experiments/Knapen_AOT/AOT_stimuli/rescaled_final/0741_fw.mp4	0.0	123.57576751708984	2.500361680984497
10	84.31079936027527	pulse	1	t		8.0	2.5	/experiments/Knapen_AOT/AOT_stimuli/rescaled_final/0741_fw.mp4	0.0	125.1577661037445	
10	85.2291624546051	fix_post	2		12	8.0	2.5	/experiments/Knapen_AOT/AOT_stimuli/rescaled_final/0741_fw.mp4	0.0	126.07612919807434	0.10012269020080566
11	85.32928514480591	fix_pre	0		120	9.0	2.5	/experiments/Knapen_AOT/AOT_stimuli/rescaled_final/1092_fw.mp4	0.0	126.17625188827515	1.008410930633545
11	85.91273736953735	pulse	0	t		9.0	2.5	/experiments/Knapen_AOT/AOT_stimuli/rescaled_final/1092_fw.mp4	0.0	126.75970411300659	
11	86.33769607543945	movie	1		280	9.0	2.5	/experiments/Knapen_AOT/AOT_stimuli/rescaled_final/1092_fw.mp4	0.0	127.18466281890869	2.492018699645996
11	87.51313638687134	pulse	1	t		9.0	2.5	/experiments/Knapen_AOT/AOT_stimuli/rescaled_final/1092_fw.mp4	0.0	128.36010313034058	
11	88.82971477508545	fix_post	2		12	9.0	2.5	/experiments/Knapen_AOT/AOT_stimuli/rescaled_final/1092_fw.mp4	0.0	129.6766815185547	0.10001325607299805
12	88.92972803115845	fix_pre	0		120	10.0	2.5	/experiments/Knapen_AOT/AOT_stimuli/rescaled_final/1255_rv.mp4	0.0	129.77669477462769	1.0085182189941406
12	89.113276720047	pulse	0	t		10.0	2.5	/experiments/Knapen_AOT/AOT_stimuli/rescaled_final/1255_rv.mp4	0.0	129.96024346351624	
12	89.93824625015259	movie	1		279	10.0	2.5	/experiments/Knapen_AOT/AOT_stimuli/rescaled_final/1255_rv.mp4	0.0	130.78521299362183	2.4920077323913574
12	90.71164608001709	pulse	1	t		10.0	2.5	/experiments/Knapen_AOT/AOT_stimuli/rescaled_final/1255_rv.mp4	0.0	131.55861282348633	
12	92.3117356300354	pulse	1	t		10.0	2.5	/experiments/Knapen_AOT/AOT_stimuli/rescaled_final/1255_rv.mp4	0.0	133.15870237350464	
12	92.43025398254395	fix_post	2		12	10.0	2.5	/experiments/Knapen_AOT/AOT_stimuli/rescaled_final/1255_rv.mp4	0.0	133.27722072601318	0.1000218391418457
13	92.53027582168579	fix_pre	0		120	11.0	2.5	/experiments/Knapen_AOT/AOT_stimuli/rescaled_final/0582_rv.mp4	0.0	133.37724256515503	1.0084736347198486
13	93.53874945640564	movie	1		288	11.0	2.5	/experiments/Knapen_AOT/AOT_stimuli/rescaled_final/0582_rv.mp4	0.0	134.38571619987488	2.4920623302459717
13	93.91245245933533	pulse	1	t		11.0	2.5	/experiments/Knapen_AOT/AOT_stimuli/rescaled_final/0582_rv.mp4	0.0	134.75941920280457	
13	95.51231837272644	pulse	1	t		11.0	2.5	/experiments/Knapen_AOT/AOT_stimuli/rescaled_final/0582_rv.mp4	0.0	136.35928511619568	
13	96.03081178665161	fix_post	2		12	11.0	2.5	/experiments/Knapen_AOT/AOT_stimuli/rescaled_final/0582_rv.mp4	0.0	136.87777853012085	0.10007834434509277
14	96.1308901309967	fix_pre	0		119	12.0	2.5	/experiments/Knapen_AOT/AOT_stimuli/rescaled_final/0727_rv.mp4	0.0	136.97785687446594	1.0000720024108887
14	97.1144654750824	pulse	0	t		12.0	2.5	/experiments/Knapen_AOT/AOT_stimuli/rescaled_final/0727_rv.mp4	0.0	137.96143221855164	
14	97.13096213340759	movie	1		292	12.0	2.5	/experiments/Knapen_AOT/AOT_stimuli/rescaled_final/0727_rv.mp4	0.0	137.97792887687683	2.5003504753112793
14	98.71319198608398	pulse	1	t		12.0	2.5	/experiments/Knapen_AOT/AOT_stimuli/rescaled_final/0727_rv.mp4	0.0	139.56015872955322	
14	99.63131260871887	fix_post	2		12	12.0	2.5	/experiments/Knapen_AOT/AOT_stimuli/rescaled_final/0727_rv.mp4	0.0	140.4782793521881	0.10002994537353516
15	99.73134255409241	fix_pre	0		120	13.0	2.5	/experiments/Knapen_AOT/AOT_stimuli/rescaled_final/0652_fw.mp4	0.0	140.57830929756165	1.0085172653198242
15	100.31496214866638	pulse	0	t		13.0	2.5	/experiments/Knapen_AOT/AOT_stimuli/rescaled_final/0652_fw.mp4	0.0	141.16192889213562	
15	100.73985981941223	movie	1		282	13.0	2.5	/experiments/Knapen_AOT/AOT_stimuli/rescaled_final/0652_fw.mp4	0.0	141.58682656288147	2.4920265674591064
15	101.91326928138733	pulse	1	t		13.0	2.5	/experiments/Knapen_AOT/AOT_stimuli/rescaled_final/0652_fw.mp4	0.0	142.76023602485657	
15	103.23188638687134	fix_post	2		12	13.0	2.5	/experiments/Knapen_AOT/AOT_stimuli/rescaled_final/0652_fw.mp4	0.0	144.07885313034058	0.1000213623046875
16	103.33190774917603	fix_pre	0		120	14.0	2.5	blank	1.0	144.17887449264526	1.0002243518829346
16	103.51557040214539	pulse	0	t		14.0	2.5	blank	1.0	144.36253714561462	
16	104.33213210105896	movie	1		300	14.0	2.5	blank	1.0	145.1790988445282	2.5002734661102295
16	105.1159029006958	pulse	1	t		14.0	2.5	blank	1.0	145.96286964416504	
16	106.71595501899719	pulse	1	t		14.0	2.5	blank	1.0	147.56292176246643	
16	106.83240556716919	fix_post	2		12	14.0	2.5	blank	1.0	147.67937231063843	0.10003352165222168
17	106.93243908882141	fix_pre	0		120	15.0	2.5	/experiments/Knapen_AOT/AOT_stimuli/rescaled_final/1092_fw.mp4	0.0	147.77940583229065	1.0085041522979736
17	107.94094324111938	movie	1		285	15.0	2.5	/experiments/Knapen_AOT/AOT_stimuli/rescaled_final/1092_fw.mp4	0.0	148.78790998458862	2.4921343326568604
17	108.31505179405212	pulse	1	t		15.0	2.5	/experiments/Knapen_AOT/AOT_stimuli/rescaled_final/1092_fw.mp4	0.0	149.16201853752136	
17	109.91414046287537	pulse	1	t		15.0	2.5	/experiments/Knapen_AOT/AOT_stimuli/rescaled_final/1092_fw.mp4	0.0	150.7611072063446	
17	110.43307757377625	fix_post	2		12	15.0	2.5	/experiments/Knapen_AOT/AOT_stimuli/rescaled_final/1092_fw.mp4	0.0	151.28004431724548	0.09989261627197266
18	110.53297019004822	fix_pre	0		119	16.0	2.5	/experiments/Knapen_AOT/AOT_stimuli/rescaled_final/1339_fw.mp4	0.0	151.37993693351746	1.0001578330993652
18	111.50894021987915	pulse	0	t		16.0	2.5	/experiments/Knapen_AOT/AOT_stimuli/rescaled_final/1339_fw.mp4	0.0	152.3559069633484	
18	111.53312802314758	movie	1		283	16.0	2.5	/experiments/Knapen_AOT/AOT_stimuli/rescaled_final/1339_fw.mp4	0.0	152.38009476661682	2.500368595123291
18	113.10896420478821	pulse	1	t		16.0	2.5	/experiments/Knapen_AOT/AOT_stimuli/rescaled_final/1339_fw.mp4	0.0	153.95593094825745	
18	114.03349661827087	fix_post	2		12	16.0	2.5	/experiments/Knapen_AOT/AOT_stimuli/rescaled_final/1339_fw.mp4	0.0	154.8804633617401	0.10001254081726074
19	114.13350915908813	fix_pre	0		120	17.0	2.5	/experiments/Knapen_AOT/AOT_stimuli/rescaled_final/1824_rv.mp4	0.0	154.98047590255737	1.0085086822509766
19	114.70889902114868	pulse	0	t		17.0	2.5	/experiments/Knapen_AOT/AOT_stimuli/rescaled_final/1824_rv.mp4	0.0	155.55586576461792	
19	115.14201784133911	movie	1		282	17.0	2.5	/experiments/Knapen_AOT/AOT_stimuli/rescaled_final/1824_rv.mp4	0.0	155.98898458480835	2.492016077041626
19	116.30949592590332	pulse	1	t		17.0	2.5	/experiments/Knapen_AOT/AOT_stimuli/rescaled_final/1824_rv.mp4	0.0	157.15646266937256	
19	117.63403391838074	fix_post	2		12	17.0	2.5	/experiments/Knapen_AOT/AOT_stimuli/rescaled_final/1824_rv.mp4	0.0	158.48100066184998	0.10003376007080078
20	117.73406767845154	fix_pre	0		120	18.0	2.5	/experiments/Knapen_AOT/AOT_stimuli/rescaled_final/1469_fw.mp4	0.0	158.58103442192078	1.0085406303405762
20	117.90928411483765	pulse	0	t		18.0	2.5	/experiments/Knapen_AOT/AOT_stimuli/rescaled_final/1469_fw.mp4	0.0	158.75625085830688	
20	118.74260830879211	movie	1		290	18.0	2.5	/experiments/Knapen_AOT/AOT_stimuli/rescaled_final/1469_fw.mp4	0.0	159.58957505226135	2.491966724395752
20	119.50951814651489	pulse	1	t		18.0	2.5	/experiments/Knapen_AOT/AOT_stimuli/rescaled_final/1469_fw.mp4	0.0	160.35648488998413	
20	121.10982942581177	pulse	1	t		18.0	2.5	/experiments/Knapen_AOT/AOT_stimuli/rescaled_final/1469_fw.mp4	0.0	161.956796169281	
20	121.23457503318787	fix_post	2		12	18.0	2.5	/experiments/Knapen_AOT/AOT_stimuli/rescaled_final/1469_fw.mp4	0.0	162.0815417766571	0.10002255439758301
21	121.33459758758545	fix_pre	0		120	19.0	2.5	/experiments/Knapen_AOT/AOT_stimuli/rescaled_final/0747_fw.mp4	0.0	162.1815643310547	1.0084748268127441
21	122.3430724143982	movie	1		279	19.0	2.5	/experiments/Knapen_AOT/AOT_stimuli/rescaled_final/0747_fw.mp4	0.0	163.19003915786743	2.49208927154541
21	122.71006941795349	pulse	1	t		19.0	2.5	/experiments/Knapen_AOT/AOT_stimuli/rescaled_final/0747_fw.mp4	0.0	163.55703616142273	
21	124.31027364730835	pulse	1	t		19.0	2.5	/experiments/Knapen_AOT/AOT_stimuli/rescaled_final/0747_fw.mp4	0.0	165.1572403907776	
21	124.8351616859436	fix_post	2		12	19.0	2.5	/experiments/Knapen_AOT/AOT_stimuli/rescaled_final/0747_fw.mp4	0.0	165.68212842941284	0.09998440742492676
22	124.93514609336853	fix_pre	0		118	20.0	2.5	blank	1.0	165.78211283683777	0.9834802150726318
22	125.91047263145447	pulse	0	t		20.0	2.5	blank	1.0	166.7574393749237	
22	125.91862630844116	movie	1		301	20.0	2.5	blank	1.0	166.7655930519104	2.508727788925171
22	127.51071214675903	pulse	1	t		20.0	2.5	blank	1.0	168.35767889022827	
22	128.42735409736633	fix_post	2		12	20.0	2.5	blank	1.0	169.27432084083557	0.10010123252868652
23	128.52745532989502	fix_pre	0		120	21.0	2.5	/experiments/Knapen_AOT/AOT_stimuli/rescaled_final/0486_fw.mp4	0.0	169.37442207336426	1.008434534072876
23	129.11100125312805	pulse	0	t		21.0	2.5	/experiments/Knapen_AOT/AOT_stimuli/rescaled_final/0486_fw.mp4	0.0	169.9579679965973	
23	129.5358898639679	movie	1		282	21.0	2.5	/experiments/Knapen_AOT/AOT_stimuli/rescaled_final/0486_fw.mp4	0.0	170.38285660743713	2.4920337200164795
23	130.70928645133972	pulse	1	t		21.0	2.5	/experiments/Knapen_AOT/AOT_stimuli/rescaled_final/0486_fw.mp4	0.0	171.55625319480896	
23	132.02792358398438	fix_post	2		12	21.0	2.5	/experiments/Knapen_AOT/AOT_stimuli/rescaled_final/0486_fw.mp4	0.0	172.8748903274536	0.10006380081176758
24	132.12798738479614	fix_pre	0		120	22.0	2.5	/experiments/Knapen_AOT/AOT_stimuli/rescaled_final/1997_rv.mp4	0.0	172.97495412826538	1.0084221363067627
24	132.31149864196777	pulse	0	t		22.0	2.5	/experiments/Knapen_AOT/AOT_stimuli/rescaled_final/1997_rv.mp4	0.0	173.158465385437	
24	133.1364095211029	movie	1		285	22.0	2.5	/experiments/Knapen_AOT/AOT_stimuli/rescaled_final/1997_rv.mp4	0.0	173.98337626457214	2.491990566253662
24	133.9098081588745	pulse	1	t		22.0	2.5	/experiments/Knapen_AOT/AOT_stimuli/rescaled_final/1997_rv.mp4	0.0	174.75677490234375	
24	135.51007103919983	pulse	1	t		22.0	2.5	/experiments/Knapen_AOT/AOT_stimuli/rescaled_final/1997_rv.mp4	0.0	176.35703778266907	
24	135.62840008735657	fix_post	2		12	22.0	2.5	/experiments/Knapen_AOT/AOT_stimuli/rescaled_final/1997_rv.mp4	0.0	176.4753668308258	0.10004186630249023
25	135.72844195365906	fix_pre	0		120	23.0	2.5	/experiments/Knapen_AOT/AOT_stimuli/rescaled_final/1006_rv.mp4	0.0	176.5754086971283	1.0084991455078125
25	136.73694109916687	movie	1		281	23.0	2.5	/experiments/Knapen_AOT/AOT_stimuli/rescaled_final/1006_rv.mp4	0.0	177.5839078426361	2.492006540298462
25	137.110426902771	pulse	1	t		23.0	2.5	/experiments/Knapen_AOT/AOT_stimuli/rescaled_final/1006_rv.mp4	0.0	177.95739364624023	
25	138.71021914482117	pulse	1	t		23.0	2.5	/experiments/Knapen_AOT/AOT_stimuli/rescaled_final/1006_rv.mp4	0.0	179.5571858882904	
25	139.22894763946533	fix_post	2		12	23.0	2.5	/experiments/Knapen_AOT/AOT_stimuli/rescaled_final/1006_rv.mp4	0.0	180.07591438293457	0.10004854202270508
26	139.32899618148804	fix_pre	0		119	24.0	2.5	/experiments/Knapen_AOT/AOT_stimuli/rescaled_final/1592_fw.mp4	0.0	180.17596292495728	1.0002224445343018
26	140.31263995170593	pulse	0	t		24.0	2.5	/experiments/Knapen_AOT/AOT_stimuli/rescaled_final/1592_fw.mp4	0.0	181.15960669517517	
26	140.32921862602234	movie	1		291	24.0	2.5	/experiments/Knapen_AOT/AOT_stimuli/rescaled_final/1592_fw.mp4	0.0	181.17618536949158	2.5002858638763428
26	141.91146206855774	pulse	1	t		24.0	2.5	/experiments/Knapen_AOT/AOT_stimuli/rescaled_final/1592_fw.mp4	0.0	182.75842881202698	
26	142.82950448989868	fix_post	2		12	24.0	2.5	/experiments/Knapen_AOT/AOT_stimuli/rescaled_final/1592_fw.mp4	0.0	183.67647123336792	0.1000051498413086
27	142.92950963974	fix_pre	0		120	25.0	2.5	/experiments/Knapen_AOT/AOT_stimuli/rescaled_final/1033_rv.mp4	0.0	183.77647638320923	1.008669376373291
27	143.51312947273254	pulse	0	t		25.0	2.5	/experiments/Knapen_AOT/AOT_stimuli/rescaled_final/1033_rv.mp4	0.0	184.36009621620178	
27	143.93817901611328	movie	1		285	25.0	2.5	/experiments/Knapen_AOT/AOT_stimuli/rescaled_final/1033_rv.mp4	0.0	184.78514575958252	2.4919121265411377
27	145.1115698814392	pulse	1	t		25.0	2.5	/experiments/Knapen_AOT/AOT_stimuli/rescaled_final/1033_rv.mp4	0.0	185.95853662490845	
27	146.43009114265442	fix_post	2		12	25.0	2.5	/experiments/Knapen_AOT/AOT_stimuli/rescaled_final/1033_rv.mp4	0.0	187.27705788612366	0.09997129440307617
28	146.5300624370575	fix_pre	0		120	26.0	2.5	/experiments/Knapen_AOT/AOT_stimuli/rescaled_final/0753_fw.mp4	0.0	187.37702918052673	1.0084922313690186
28	146.71366715431213	pulse	0	t		26.0	2.5	/experiments/Knapen_AOT/AOT_stimuli/rescaled_final/0753_fw.mp4	0.0	187.56063389778137	
28	147.5385546684265	movie	1		285	26.0	2.5	/experiments/Knapen_AOT/AOT_stimuli/rescaled_final/0753_fw.mp4	0.0	188.38552141189575	2.492027997970581
28	148.31187438964844	pulse	1	t		26.0	2.5	/experiments/Knapen_AOT/AOT_stimuli/rescaled_final/0753_fw.mp4	0.0	189.15884113311768	
28	149.91219663619995	pulse	1	t		26.0	2.5	/experiments/Knapen_AOT/AOT_stimuli/rescaled_final/0753_fw.mp4	0.0	190.7591633796692	
28	150.0305826663971	fix_post	2		12	26.0	2.5	/experiments/Knapen_AOT/AOT_stimuli/rescaled_final/0753_fw.mp4	0.0	190.87754940986633	0.1000814437866211
29	150.13066411018372	fix_pre	0		120	27.0	2.5	/experiments/Knapen_AOT/AOT_stimuli/rescaled_final/0904_rv.mp4	0.0	190.97763085365295	1.0084350109100342
29	151.13909912109375	movie	1		275	27.0	2.5	/experiments/Knapen_AOT/AOT_stimuli/rescaled_final/0904_rv.mp4	0.0	191.986065864563	2.492023229598999
29	151.51429319381714	pulse	1	t		27.0	2.5	/experiments/Knapen_AOT/AOT_stimuli/rescaled_final/0904_rv.mp4	0.0	192.36125993728638	
29	153.11260533332825	pulse	1	t		27.0	2.5	/experiments/Knapen_AOT/AOT_stimuli/rescaled_final/0904_rv.mp4	0.0	193.95957207679749	
29	153.63112235069275	fix_post	2		12	27.0	2.5	/experiments/Knapen_AOT/AOT_stimuli/rescaled_final/0904_rv.mp4	0.0	194.478089094162	0.10002541542053223
30	153.73114776611328	fix_pre	0		119	28.0	2.5	blank	1.0	194.57811450958252	0.9917945861816406
30	154.71515417099	pulse	0	t		28.0	2.5	blank	1.0	195.56212091445923	
30	154.72294235229492	movie	1		301	28.0	2.5	blank	1.0	195.56990909576416	2.5087316036224365
30	156.31507778167725	pulse	1	t		28.0	2.5	blank	1.0	197.16204452514648	
30	157.23167395591736	fix_post	2		12	28.0	2.5	blank	1.0	198.0786406993866	0.10003042221069336
31	157.33170437812805	fix_pre	0		120	29.0	2.5	/experiments/Knapen_AOT/AOT_stimuli/rescaled_final/0395_rv.mp4	0.0	198.1786711215973	1.0085115432739258
31	157.91529083251953	pulse	0	t		29.0	2.5	/experiments/Knapen_AOT/AOT_stimuli/rescaled_final/0395_rv.mp4	0.0	198.76225757598877	
31	158.34021592140198	movie	1		286	29.0	2.5	/experiments/Knapen_AOT/AOT_stimuli/rescaled_final/0395_rv.mp4	0.0	199.18718266487122	2.4919896125793457
31	159.51441740989685	pulse	1	t		29.0	2.5	/experiments/Knapen_AOT/AOT_stimuli/rescaled_final/0395_rv.mp4	0.0	200.3613841533661	
31	160.83220553398132	fix_post	2		12	29.0	2.5	/experiments/Knapen_AOT/AOT_stimuli/rescaled_final/0395_rv.mp4	0.0	201.67917227745056	0.10001587867736816
32	160.9322214126587	fix_pre	0		120	30.0	2.5	/experiments/Knapen_AOT/AOT_stimuli/rescaled_final/1864_rv.mp4	0.0	201.77918815612793	1.0085422992706299
32	161.11583018302917	pulse	0	t		30.0	2.5	/experiments/Knapen_AOT/AOT_stimuli/rescaled_final/1864_rv.mp4	0.0	201.9627969264984	
32	161.94076371192932	movie	1		287	30.0	2.5	/experiments/Knapen_AOT/AOT_stimuli/rescaled_final/1864_rv.mp4	0.0	202.78773045539856	2.491995334625244
32	162.71398615837097	pulse	1	t		30.0	2.5	/experiments/Knapen_AOT/AOT_stimuli/rescaled_final/1864_rv.mp4	0.0	203.5609529018402	
32	164.31410574913025	pulse	1	t		30.0	2.5	/experiments/Knapen_AOT/AOT_stimuli/rescaled_final/1864_rv.mp4	0.0	205.1610724925995	
32	164.43275904655457	fix_post	2		12	30.0	2.5	/experiments/Knapen_AOT/AOT_stimuli/rescaled_final/1864_rv.mp4	0.0	205.2797257900238	0.10003948211669922
33	164.53279852867126	fix_pre	0		120	31.0	2.5	/experiments/Knapen_AOT/AOT_stimuli/rescaled_final/1339_rv.mp4	0.0	205.3797652721405	1.0085041522979736
33	165.54130268096924	movie	1		278	31.0	2.5	/experiments/Knapen_AOT/AOT_stimuli/rescaled_final/1339_rv.mp4	0.0	206.38826942443848	2.4919826984405518
33	165.9146978855133	pulse	1	t		31.0	2.5	/experiments/Knapen_AOT/AOT_stimuli/rescaled_final/1339_rv.mp4	0.0	206.76166462898254	
33	167.51511335372925	pulse	1	t		31.0	2.5	/experiments/Knapen_AOT/AOT_stimuli/rescaled_final/1339_rv.mp4	0.0	208.3620800971985	
33	168.0332853794098	fix_post	2		12	31.0	2.5	/experiments/Knapen_AOT/AOT_stimuli/rescaled_final/1339_rv.mp4	0.0	208.88025212287903	0.1000211238861084
34	168.1333065032959	fix_pre	0		119	32.0	2.5	/experiments/Knapen_AOT/AOT_stimuli/rescaled_final/1759_fw.mp4	0.0	208.98027324676514	1.0002162456512451
34	169.11040902137756	pulse	0	t		32.0	2.5	/experiments/Knapen_AOT/AOT_stimuli/rescaled_final/1759_fw.mp4	0.0	209.9573757648468	
34	169.13352274894714	movie	1		281	32.0	2.5	/experiments/Knapen_AOT/AOT_stimuli/rescaled_final/1759_fw.mp4	0.0	209.98048949241638	2.500319242477417
34	170.71607899665833	pulse	1	t		32.0	2.5	/experiments/Knapen_AOT/AOT_stimuli/rescaled_final/1759_fw.mp4	0.0	211.56304574012756	
34	171.63384199142456	fix_post	2		12	32.0	2.5	/experiments/Knapen_AOT/AOT_stimuli/rescaled_final/1759_fw.mp4	0.0	212.4808087348938	0.10003829002380371
35	171.73388028144836	fix_pre	0		120	33.0	2.5	/experiments/Knapen_AOT/AOT_stimuli/rescaled_final/1592_rv.mp4	0.0	212.5808470249176	1.0085563659667969
35	172.30929279327393	pulse	0	t		33.0	2.5	/experiments/Knapen_AOT/AOT_stimuli/rescaled_final/1592_rv.mp4	0.0	213.15625953674316	
35	172.74243664741516	movie	1		283	33.0	2.5	/experiments/Knapen_AOT/AOT_stimuli/rescaled_final/1592_rv.mp4	0.0	213.5894033908844	2.4919350147247314
35	173.90954160690308	pulse	1	t		33.0	2.5	/experiments/Knapen_AOT/AOT_stimuli/rescaled_final/1592_rv.mp4	0.0	214.75650835037231	
35	175.2343716621399	fix_post	2		12	33.0	2.5	/experiments/Knapen_AOT/AOT_stimuli/rescaled_final/1592_rv.mp4	0.0	216.08133840560913	0.10002398490905762
36	175.33439564704895	fix_pre	0		120	34.0	2.5	/experiments/Knapen_AOT/AOT_stimuli/rescaled_final/0466_rv.mp4	0.0	216.1813623905182	1.008516550064087
36	175.50969910621643	pulse	0	t		34.0	2.5	/experiments/Knapen_AOT/AOT_stimuli/rescaled_final/0466_rv.mp4	0.0	216.35666584968567	
36	176.34291219711304	movie	1		281	34.0	2.5	/experiments/Knapen_AOT/AOT_stimuli/rescaled_final/0466_rv.mp4	0.0	217.18987894058228	2.4921865463256836
36	177.11017036437988	pulse	1	t		34.0	2.5	/experiments/Knapen_AOT/AOT_stimuli/rescaled_final/0466_rv.mp4	0.0	217.95713710784912	
36	178.7102038860321	pulse	1	t		34.0	2.5	/experiments/Knapen_AOT/AOT_stimuli/rescaled_final/0466_rv.mp4	0.0	219.55717062950134	
36	178.83509874343872	fix_post	2		12	34.0	2.5	/experiments/Knapen_AOT/AOT_stimuli/rescaled_final/0466_rv.mp4	0.0	219.68206548690796	0.09990930557250977
37	178.93500804901123	fix_pre	0		120	35.0	2.5	blank	1.0	219.78197479248047	1.000077247619629
37	179.93508529663086	movie	1		300	35.0	2.5	blank	1.0	220.7820520401001	2.5003726482391357
37	180.31042742729187	pulse	1	t		35.0	2.5	blank	1.0	221.1573941707611	
37	181.9106569290161	pulse	1	t		35.0	2.5	blank	1.0	222.75762367248535	
37	182.43545794487	fix_post	2		12	35.0	2.5	blank	1.0	223.28242468833923	0.10002803802490234
38	182.5354859828949	fix_pre	0		118	36.0	2.5	/experiments/Knapen_AOT/AOT_stimuli/rescaled_final/0563_fw.mp4	0.0	223.38245272636414	0.9917867183685303
38	183.5108299255371	pulse	0	t		36.0	2.5	/experiments/Knapen_AOT/AOT_stimuli/rescaled_final/0563_fw.mp4	0.0	224.35779666900635	
38	183.52727270126343	movie	1		279	36.0	2.5	/experiments/Knapen_AOT/AOT_stimuli/rescaled_final/0563_fw.mp4	0.0	224.37423944473267	2.500403642654419
38	185.10930800437927	pulse	1	t		36.0	2.5	/experiments/Knapen_AOT/AOT_stimuli/rescaled_final/0563_fw.mp4	0.0	225.9562747478485	
38	186.02767634391785	fix_post	2		12	36.0	2.5	/experiments/Knapen_AOT/AOT_stimuli/rescaled_final/0563_fw.mp4	0.0	226.87464308738708	0.09999728202819824
39	186.12767362594604	fix_pre	0		120	37.0	2.5	/experiments/Knapen_AOT/AOT_stimuli/rescaled_final/1136_fw.mp4	0.0	226.97464036941528	1.0085375308990479
39	186.71139287948608	pulse	0	t		37.0	2.5	/experiments/Knapen_AOT/AOT_stimuli/rescaled_final/1136_fw.mp4	0.0	227.55835962295532	
39	187.1362111568451	movie	1		290	37.0	2.5	/experiments/Knapen_AOT/AOT_stimuli/rescaled_final/1136_fw.mp4	0.0	227.98317790031433	2.4920356273651123
39	188.3098065853119	pulse	1	t		37.0	2.5	/experiments/Knapen_AOT/AOT_stimuli/rescaled_final/1136_fw.mp4	0.0	229.15677332878113	
39	189.6282467842102	fix_post	2		12	37.0	2.5	/experiments/Knapen_AOT/AOT_stimuli/rescaled_final/1136_fw.mp4	0.0	230.47521352767944	0.10004830360412598
40	189.72829508781433	fix_pre	0		120	38.0	2.5	/experiments/Knapen_AOT/AOT_stimuli/rescaled_final/0265_fw.mp4	0.0	230.57526183128357	1.0084218978881836
40	189.91189432144165	pulse	0	t		38.0	2.5	/experiments/Knapen_AOT/AOT_stimuli/rescaled_final/0265_fw.mp4	0.0	230.7588610649109	
40	190.73671698570251	movie	1		290	38.0	2.5	/experiments/Knapen_AOT/AOT_stimuli/rescaled_final/0265_fw.mp4	0.0	231.58368372917175	2.491997241973877
40	191.5103726387024	pulse	1	t		38.0	2.5	/experiments/Knapen_AOT/AOT_stimuli/rescaled_final/0265_fw.mp4	0.0	232.35733938217163	
40	193.11270928382874	pulse	1	t		38.0	2.5	/experiments/Knapen_AOT/AOT_stimuli/rescaled_final/0265_fw.mp4	0.0	233.95967602729797	
40	193.2287142276764	fix_post	2		12	38.0	2.5	/experiments/Knapen_AOT/AOT_stimuli/rescaled_final/0265_fw.mp4	0.0	234.07568097114563	0.1000218391418457
41	193.32873606681824	fix_pre	0		120	39.0	2.5	/experiments/Knapen_AOT/AOT_stimuli/rescaled_final/0945_fw.mp4	0.0	234.17570281028748	1.0085535049438477
41	194.33728957176208	movie	1		290	39.0	2.5	/experiments/Knapen_AOT/AOT_stimuli/rescaled_final/0945_fw.mp4	0.0	235.18425631523132	2.491990089416504
41	194.71034812927246	pulse	1	t		39.0	2.5	/experiments/Knapen_AOT/AOT_stimuli/rescaled_final/0945_fw.mp4	0.0	235.5573148727417	
41	196.30852246284485	pulse	1	t		39.0	2.5	/experiments/Knapen_AOT/AOT_stimuli/rescaled_final/0945_fw.mp4	0.0	237.1554892063141	
41	196.8292796611786	fix_post	2		12	39.0	2.5	/experiments/Knapen_AOT/AOT_stimuli/rescaled_final/0945_fw.mp4	0.0	237.67624640464783	0.10002946853637695
42	196.92930912971497	fix_pre	0		119	40.0	2.5	/experiments/Knapen_AOT/AOT_stimuli/rescaled_final/0843_fw.mp4	0.0	237.7762758731842	1.000178337097168
42	197.9130735397339	pulse	0	t		40.0	2.5	/experiments/Knapen_AOT/AOT_stimuli/rescaled_final/0843_fw.mp4	0.0	238.76004028320312	
42	197.92948746681213	movie	1		296	40.0	2.5	/experiments/Knapen_AOT/AOT_stimuli/rescaled_final/0843_fw.mp4	0.0	238.77645421028137	2.5003278255462646
42	199.50922870635986	pulse	1	t		40.0	2.5	/experiments/Knapen_AOT/AOT_stimuli/rescaled_final/0843_fw.mp4	0.0	240.3561954498291	
42	200.4298152923584	fix_post	2		12	40.0	2.5	/experiments/Knapen_AOT/AOT_stimuli/rescaled_final/0843_fw.mp4	0.0	241.27678203582764	0.1000223159790039
43	200.5298376083374	fix_pre	0		120	41.0	2.5	/experiments/Knapen_AOT/AOT_stimuli/rescaled_final/0966_rv.mp4	0.0	241.37680435180664	1.0001318454742432
43	201.11344361305237	pulse	0	t		41.0	2.5	/experiments/Knapen_AOT/AOT_stimuli/rescaled_final/0966_rv.mp4	0.0	241.9604103565216	
43	201.52996945381165	movie	1		296	41.0	2.5	/experiments/Knapen_AOT/AOT_stimuli/rescaled_final/0966_rv.mp4	0.0	242.37693619728088	2.5003960132598877
43	202.71104383468628	pulse	1	t		41.0	2.5	/experiments/Knapen_AOT/AOT_stimuli/rescaled_final/0966_rv.mp4	0.0	243.55801057815552	
43	204.03036546707153	fix_post	2		12	41.0	2.5	/experiments/Knapen_AOT/AOT_stimuli/rescaled_final/0966_rv.mp4	0.0	244.87733221054077	0.09999775886535645
44	204.1303632259369	fix_pre	0		120	42.0	2.5	blank	1.0	244.97732996940613	1.0001945495605469
44	204.31415462493896	pulse	0	t		42.0	2.5	blank	1.0	245.1611213684082	
44	205.13055777549744	movie	1		300	42.0	2.5	blank	1.0	245.97752451896667	2.5003600120544434
44	205.91416597366333	pulse	1	t		42.0	2.5	blank	1.0	246.76113271713257	
44	207.51441955566406	pulse	1	t		42.0	2.5	blank	1.0	248.3613862991333	
44	207.63091778755188	fix_post	2		12	42.0	2.5	blank	1.0	248.47788453102112	0.09999513626098633
45	207.73091292381287	fix_pre	0		120	43.0	2.5	/experiments/Knapen_AOT/AOT_stimuli/rescaled_final/0600_rv.mp4	0.0	248.5778796672821	1.0085444450378418
45	208.7394573688507	movie	1		295	43.0	2.5	/experiments/Knapen_AOT/AOT_stimuli/rescaled_final/0600_rv.mp4	0.0	249.58642411231995	2.491960287094116
45	209.11240005493164	pulse	1	t		43.0	2.5	/experiments/Knapen_AOT/AOT_stimuli/rescaled_final/0600_rv.mp4	0.0	249.95936679840088	
45	210.71053910255432	pulse	1	t		43.0	2.5	/experiments/Knapen_AOT/AOT_stimuli/rescaled_final/0600_rv.mp4	0.0	251.55750584602356	
45	211.23141765594482	fix_post	2		12	43.0	2.5	/experiments/Knapen_AOT/AOT_stimuli/rescaled_final/0600_rv.mp4	0.0	252.07838439941406	0.10007095336914062
46	211.33148860931396	fix_pre	0		119	44.0	2.5	/experiments/Knapen_AOT/AOT_stimuli/rescaled_final/1691_rv.mp4	0.0	252.1784553527832	1.000131368637085
46	212.31511974334717	pulse	0	t		44.0	2.5	/experiments/Knapen_AOT/AOT_stimuli/rescaled_final/1691_rv.mp4	0.0	253.1620864868164	
46	212.33161997795105	movie	1		292	44.0	2.5	/experiments/Knapen_AOT/AOT_stimuli/rescaled_final/1691_rv.mp4	0.0	253.1785867214203	2.5004138946533203
46	213.9131097793579	pulse	1	t		44.0	2.5	/experiments/Knapen_AOT/AOT_stimuli/rescaled_final/1691_rv.mp4	0.0	254.76007652282715	
46	214.83203387260437	fix_post	2		12	44.0	2.5	/experiments/Knapen_AOT/AOT_stimuli/rescaled_final/1691_rv.mp4	0.0	255.6790006160736	0.09996485710144043
47	214.9319987297058	fix_pre	0		120	45.0	2.5	/experiments/Knapen_AOT/AOT_stimuli/rescaled_final/0755_fw.mp4	0.0	255.77896547317505	1.0085184574127197
47	215.51564621925354	pulse	0	t		45.0	2.5	/experiments/Knapen_AOT/AOT_stimuli/rescaled_final/0755_fw.mp4	0.0	256.3626129627228	
47	215.94051718711853	movie	1		263	45.0	2.5	/experiments/Knapen_AOT/AOT_stimuli/rescaled_final/0755_fw.mp4	0.0	256.78748393058777	2.4920449256896973
47	217.11428570747375	pulse	1	t		45.0	2.5	/experiments/Knapen_AOT/AOT_stimuli/rescaled_final/0755_fw.mp4	0.0	257.961252450943	
47	218.43256211280823	fix_post	2		12	45.0	2.5	/experiments/Knapen_AOT/AOT_stimuli/rescaled_final/0755_fw.mp4	0.0	259.27952885627747	0.1000206470489502
48	218.53258275985718	fix_pre	0		120	46.0	2.5	/experiments/Knapen_AOT/AOT_stimuli/rescaled_final/1022_fw.mp4	0.0	259.3795495033264	1.0085053443908691
48	218.71611261367798	pulse	0	t		46.0	2.5	/experiments/Knapen_AOT/AOT_stimuli/rescaled_final/1022_fw.mp4	0.0	259.5630793571472	
48	219.54108810424805	movie	1		282	46.0	2.5	/experiments/Knapen_AOT/AOT_stimuli/rescaled_final/1022_fw.mp4	0.0	260.3880548477173	2.5003762245178223
48	220.3156087398529	pulse	1	t		46.0	2.5	/experiments/Knapen_AOT/AOT_stimuli/rescaled_final/1022_fw.mp4	0.0	261.16257548332214	
48	221.9087462425232	pulse	1	t		46.0	2.5	/experiments/Knapen_AOT/AOT_stimuli/rescaled_final/1022_fw.mp4	0.0	262.75571298599243	
48	222.04146432876587	fix_post	2		11	46.0	2.5	/experiments/Knapen_AOT/AOT_stimuli/rescaled_final/1022_fw.mp4	0.0	262.8884310722351	0.09159994125366211
49	222.13306427001953	fix_pre	0		120	47.0	2.5	blank	1.0	262.98003101348877	1.00020170211792
49	223.13326597213745	movie	1		300	47.0	2.5	blank	1.0	263.9802327156067	2.5003769397735596
49	223.50862574577332	pulse	1	t		47.0	2.5	blank	1.0	264.35559248924255	
49	225.10880255699158	pulse	1	t		47.0	2.5	blank	1.0	265.9557693004608	
49	225.633642911911	fix_post	2		12	47.0	2.5	blank	1.0	266.48060965538025	0.1000511646270752
50	225.7336940765381	fix_pre	0		118	48.0	2.5	/experiments/Knapen_AOT/AOT_stimuli/rescaled_final/1859_fw.mp4	0.0	266.5806608200073	0.9917929172515869
50	226.70912432670593	pulse	0	t		48.0	2.5	/experiments/Knapen_AOT/AOT_stimuli/rescaled_final/1859_fw.mp4	0.0	267.55609107017517	
50	226.72548699378967	movie	1		279	48.0	2.5	/experiments/Knapen_AOT/AOT_stimuli/rescaled_final/1859_fw.mp4	0.0	267.5724537372589	2.5004191398620605
50	228.30931615829468	pulse	1	t		48.0	2.5	/experiments/Knapen_AOT/AOT_stimuli/rescaled_final/1859_fw.mp4	0.0	269.1562829017639	
50	229.22590613365173	fix_post	2		12	48.0	2.5	/experiments/Knapen_AOT/AOT_stimuli/rescaled_final/1859_fw.mp4	0.0	270.072872877121	0.10001206398010254
51	229.32591819763184	fix_pre	0		120	49.0	2.5	/experiments/Knapen_AOT/AOT_stimuli/rescaled_final/0988_rv.mp4	0.0	270.1728849411011	1.0085606575012207
51	229.9096667766571	pulse	0	t		49.0	2.5	/experiments/Knapen_AOT/AOT_stimuli/rescaled_final/0988_rv.mp4	0.0	270.75663352012634	
51	230.33447885513306	movie	1		279	49.0	2.5	/experiments/Knapen_AOT/AOT_stimuli/rescaled_final/0988_rv.mp4	0.0	271.1814455986023	2.4919066429138184
51	231.5098066329956	pulse	1	t		49.0	2.5	/experiments/Knapen_AOT/AOT_stimuli/rescaled_final/0988_rv.mp4	0.0	272.35677337646484	
51	232.82638549804688	fix_post	2		12	49.0	2.5	/experiments/Knapen_AOT/AOT_stimuli/rescaled_final/0988_rv.mp4	0.0	273.6733522415161	0.10000753402709961
52	232.92639303207397	fix_pre	0		120	50.0	2.5	/experiments/Knapen_AOT/AOT_stimuli/rescaled_final/0354_fw.mp4	0.0	273.7733597755432	1.008589506149292
52	233.10998344421387	pulse	0	t		50.0	2.5	/experiments/Knapen_AOT/AOT_stimuli/rescaled_final/0354_fw.mp4	0.0	273.9569501876831	
52	233.93498253822327	movie	1		282	50.0	2.5	/experiments/Knapen_AOT/AOT_stimuli/rescaled_final/0354_fw.mp4	0.0	274.7819492816925	2.4920034408569336
52	234.71027207374573	pulse	1	t		50.0	2.5	/experiments/Knapen_AOT/AOT_stimuli/rescaled_final/0354_fw.mp4	0.0	275.55723881721497	
52	236.31038880348206	pulse	1	t		50.0	2.5	/experiments/Knapen_AOT/AOT_stimuli/rescaled_final/0354_fw.mp4	0.0	277.1573555469513	
52	236.4269859790802	fix_post	2		12	50.0	2.5	/experiments/Knapen_AOT/AOT_stimuli/rescaled_final/0354_fw.mp4	0.0	277.27395272254944	0.09997177124023438
53	236.52695775032043	fix_pre	0		120	51.0	2.5	/experiments/Knapen_AOT/AOT_stimuli/rescaled_final/0858_fw.mp4	0.0	277.3739244937897	1.0085546970367432
53	237.53551244735718	movie	1		271	51.0	2.5	/experiments/Knapen_AOT/AOT_stimuli/rescaled_final/0858_fw.mp4	0.0	278.3824791908264	2.491955280303955
53	237.90913271903992	pulse	1	t		51.0	2.5	/experiments/Knapen_AOT/AOT_stimuli/rescaled_final/0858_fw.mp4	0.0	278.75609946250916	
53	239.50924396514893	pulse	1	t		51.0	2.5	/experiments/Knapen_AOT/AOT_stimuli/rescaled_final/0858_fw.mp4	0.0	280.35621070861816	
53	240.02746772766113	fix_post	2		12	51.0	2.5	/experiments/Knapen_AOT/AOT_stimuli/rescaled_final/0858_fw.mp4	0.0	280.87443447113037	0.10002779960632324
54	240.12749552726746	fix_pre	0		119	52.0	2.5	/experiments/Knapen_AOT/AOT_stimuli/rescaled_final/0917_rv.mp4	0.0	280.9744622707367	1.0001511573791504
54	241.11122512817383	pulse	0	t		52.0	2.5	/experiments/Knapen_AOT/AOT_stimuli/rescaled_final/0917_rv.mp4	0.0	281.95819187164307	
54	241.1276466846466	movie	1		285	52.0	2.5	/experiments/Knapen_AOT/AOT_stimuli/rescaled_final/0917_rv.mp4	0.0	281.97461342811584	2.5003931522369385
54	242.71006894111633	pulse	1	t		52.0	2.5	/experiments/Knapen_AOT/AOT_stimuli/rescaled_final/0917_rv.mp4	0.0	283.55703568458557	
54	243.62803983688354	fix_post	2		12	52.0	2.5	/experiments/Knapen_AOT/AOT_stimuli/rescaled_final/0917_rv.mp4	0.0	284.4750065803528	0.09999632835388184
55	243.72803616523743	fix_pre	0		120	53.0	2.5	/experiments/Knapen_AOT/AOT_stimuli/rescaled_final/0010_fw.mp4	0.0	284.57500290870667	1.0084881782531738
55	244.3116340637207	pulse	0	t		53.0	2.5	/experiments/Knapen_AOT/AOT_stimuli/rescaled_final/0010_fw.mp4	0.0	285.15860080718994	
55	244.7365243434906	movie	1		276	53.0	2.5	/experiments/Knapen_AOT/AOT_stimuli/rescaled_final/0010_fw.mp4	0.0	285.58349108695984	2.492027521133423
55	245.91018438339233	pulse	1	t		53.0	2.5	/experiments/Knapen_AOT/AOT_stimuli/rescaled_final/0010_fw.mp4	0.0	286.7571511268616	
55	247.22855186462402	fix_post	2		12	53.0	2.5	/experiments/Knapen_AOT/AOT_stimuli/rescaled_final/0010_fw.mp4	0.0	288.07551860809326	0.10001707077026367
56	247.3285689353943	fix_pre	0		120	54.0	2.5	/experiments/Knapen_AOT/AOT_stimuli/rescaled_final/0580_rv.mp4	0.0	288.1755356788635	1.0085504055023193
56	247.5122127532959	pulse	0	t		54.0	2.5	/experiments/Knapen_AOT/AOT_stimuli/rescaled_final/0580_rv.mp4	0.0	288.35917949676514	
56	248.3371193408966	movie	1		284	54.0	2.5	/experiments/Knapen_AOT/AOT_stimuli/rescaled_final/0580_rv.mp4	0.0	289.18408608436584	2.4920523166656494
56	249.11068511009216	pulse	1	t		54.0	2.5	/experiments/Knapen_AOT/AOT_stimuli/rescaled_final/0580_rv.mp4	0.0	289.9576518535614	
56	250.71081495285034	pulse	1	t		54.0	2.5	/experiments/Knapen_AOT/AOT_stimuli/rescaled_final/0580_rv.mp4	0.0	291.5577816963196	
56	250.82917165756226	fix_post	2		12	54.0	2.5	/experiments/Knapen_AOT/AOT_stimuli/rescaled_final/0580_rv.mp4	0.0	291.6761384010315	0.0999298095703125
57	250.92910146713257	fix_pre	0		120	55.0	2.5	blank	1.0	291.7760682106018	1.000152587890625
57	251.9292540550232	movie	1		300	55.0	2.5	blank	1.0	292.77622079849243	2.5003674030303955
57	252.31286883354187	pulse	1	t		55.0	2.5	blank	1.0	293.1598355770111	
57	253.9131293296814	pulse	1	t		55.0	2.5	blank	1.0	294.76009607315063	
57	254.4296214580536	fix_post	2		12	55.0	2.5	blank	1.0	295.2765882015228	0.10003447532653809
58	254.52965593338013	fix_pre	0		119	56.0	2.5	/experiments/Knapen_AOT/AOT_stimuli/rescaled_final/0969_fw.mp4	0.0	295.37662267684937	1.0001463890075684
58	255.5139262676239	pulse	0	t		56.0	2.5	/experiments/Knapen_AOT/AOT_stimuli/rescaled_final/0969_fw.mp4	0.0	296.36089301109314	
58	255.5298023223877	movie	1		274	56.0	2.5	/experiments/Knapen_AOT/AOT_stimuli/rescaled_final/0969_fw.mp4	0.0	296.37676906585693	2.500408887863159
58	257.11205077171326	pulse	1	t		56.0	2.5	/experiments/Knapen_AOT/AOT_stimuli/rescaled_final/0969_fw.mp4	0.0	297.9590175151825	
58	258.03021121025085	fix_post	2		12	56.0	2.5	/experiments/Knapen_AOT/AOT_stimuli/rescaled_final/0969_fw.mp4	0.0	298.8771779537201	0.10004949569702148
59	258.1302607059479	fix_pre	0		120	57.0	2.5	/experiments/Knapen_AOT/AOT_stimuli/rescaled_final/2136_rv.mp4	0.0	298.9772274494171	1.0084424018859863
59	258.7139916419983	pulse	0	t		57.0	2.5	/experiments/Knapen_AOT/AOT_stimuli/rescaled_final/2136_rv.mp4	0.0	299.56095838546753	
59	259.13870310783386	movie	1		279	57.0	2.5	/experiments/Knapen_AOT/AOT_stimuli/rescaled_final/2136_rv.mp4	0.0	299.9856698513031	2.4920148849487305
59	260.3125693798065	pulse	1	t		57.0	2.5	/experiments/Knapen_AOT/AOT_stimuli/rescaled_final/2136_rv.mp4	0.0	301.15953612327576	
59	261.6307179927826	fix_post	2		12	57.0	2.5	/experiments/Knapen_AOT/AOT_stimuli/rescaled_final/2136_rv.mp4	0.0	302.47768473625183	0.10002255439758301
60	261.7307405471802	fix_pre	0		120	58.0	2.5	/experiments/Knapen_AOT/AOT_stimuli/rescaled_final/1439_fw.mp4	0.0	302.5777072906494	1.0085422992706299
60	261.9143512248993	pulse	0	t		58.0	2.5	/experiments/Knapen_AOT/AOT_stimuli/rescaled_final/1439_fw.mp4	0.0	302.76131796836853	
60	262.7392828464508	movie	1		271	58.0	2.5	/experiments/Knapen_AOT/AOT_stimuli/rescaled_final/1439_fw.mp4	0.0	303.58624958992004	2.492004632949829
60	263.5129497051239	pulse	1	t		58.0	2.5	/experiments/Knapen_AOT/AOT_stimuli/rescaled_final/1439_fw.mp4	0.0	304.35991644859314	
60	265.1131739616394	pulse	1	t		58.0	2.5	/experiments/Knapen_AOT/AOT_stimuli/rescaled_final/1439_fw.mp4	0.0	305.96014070510864	
60	265.23128747940063	fix_post	2		12	58.0	2.5	/experiments/Knapen_AOT/AOT_stimuli/rescaled_final/1439_fw.mp4	0.0	306.0782542228699	0.10016298294067383
61	265.3314504623413	fix_pre	0		120	59.0	2.5	/experiments/Knapen_AOT/AOT_stimuli/rescaled_final/0834_fw.mp4	0.0	306.17841720581055	1.0083231925964355
61	266.33977365493774	movie	1		270	59.0	2.5	/experiments/Knapen_AOT/AOT_stimuli/rescaled_final/0834_fw.mp4	0.0	307.186740398407	2.4920780658721924
61	266.7140018939972	pulse	1	t		59.0	2.5	/experiments/Knapen_AOT/AOT_stimuli/rescaled_final/0834_fw.mp4	0.0	307.56096863746643	
61	268.31378388404846	pulse	1	t		59.0	2.5	/experiments/Knapen_AOT/AOT_stimuli/rescaled_final/0834_fw.mp4	0.0	309.1607506275177	
61	268.83185172080994	fix_post	2		12	59.0	2.5	/experiments/Knapen_AOT/AOT_stimuli/rescaled_final/0834_fw.mp4	0.0	309.6788184642792	0.09997320175170898
62	268.93182492256165	fix_pre	0		119	60.0	2.5	/experiments/Knapen_AOT/AOT_stimuli/rescaled_final/1759_rv.mp4	0.0	309.7787916660309	1.0085537433624268
62	269.9155623912811	pulse	0	t		60.0	2.5	/experiments/Knapen_AOT/AOT_stimuli/rescaled_final/1759_rv.mp4	0.0	310.76252913475037	
62	269.9403786659241	movie	1		269	60.0	2.5	/experiments/Knapen_AOT/AOT_stimuli/rescaled_final/1759_rv.mp4	0.0	310.7873454093933	2.4920108318328857
62	271.51448464393616	pulse	1	t		60.0	2.5	/experiments/Knapen_AOT/AOT_stimuli/rescaled_final/1759_rv.mp4	0.0	312.3614513874054	
62	272.43238949775696	fix_post	2		12	60.0	2.5	/experiments/Knapen_AOT/AOT_stimuli/rescaled_final/1759_rv.mp4	0.0	313.2793562412262	0.10000491142272949
63	272.5323944091797	fix_pre	0		120	61.0	2.5	/experiments/Knapen_AOT/AOT_stimuli/rescaled_final/1731_rv.mp4	0.0	313.3793611526489	1.0084831714630127
63	273.11608815193176	pulse	0	t		61.0	2.5	/experiments/Knapen_AOT/AOT_stimuli/rescaled_final/1731_rv.mp4	0.0	313.963054895401	
63	273.5408775806427	movie	1		268	61.0	2.5	/experiments/Knapen_AOT/AOT_stimuli/rescaled_final/1731_rv.mp4	0.0	314.38784432411194	2.4920191764831543
63	274.71443915367126	pulse	1	t		61.0	2.5	/experiments/Knapen_AOT/AOT_stimuli/rescaled_final/1731_rv.mp4	0.0	315.5614058971405	
63	276.03289675712585	fix_post	2		12	61.0	2.5	/experiments/Knapen_AOT/AOT_stimuli/rescaled_final/1731_rv.mp4	0.0	316.8798635005951	0.10003066062927246
64	276.1329274177551	fix_pre	0		120	62.0	2.5	/experiments/Knapen_AOT/AOT_stimuli/rescaled_final/1337_fw.mp4	0.0	316.97989416122437	1.0085277557373047
64	276.30960988998413	pulse	0	t		62.0	2.5	/experiments/Knapen_AOT/AOT_stimuli/rescaled_final/1337_fw.mp4	0.0	317.15657663345337	
64	277.14145517349243	movie	1		280	62.0	2.5	/experiments/Knapen_AOT/AOT_stimuli/rescaled_final/1337_fw.mp4	0.0	317.98842191696167	2.492079019546509
64	277.9153859615326	pulse	1	t		62.0	2.5	/experiments/Knapen_AOT/AOT_stimuli/rescaled_final/1337_fw.mp4	0.0	318.76235270500183	
64	279.51518654823303	pulse	1	t		62.0	2.5	/experiments/Knapen_AOT/AOT_stimuli/rescaled_final/1337_fw.mp4	0.0	320.36215329170227	
64	279.63353419303894	fix_post	2		12	62.0	2.5	/experiments/Knapen_AOT/AOT_stimuli/rescaled_final/1337_fw.mp4	0.0	320.4805009365082	0.09994649887084961
65	279.7334806919098	fix_pre	0		120	63.0	2.5	blank	1.0	320.580447435379	1.000105619430542
65	280.73358631134033	movie	1		300	63.0	2.5	blank	1.0	321.58055305480957	2.500396728515625
65	281.1093325614929	pulse	1	t		63.0	2.5	blank	1.0	321.95629930496216	
65	282.70916986465454	pulse	1	t		63.0	2.5	blank	1.0	323.5561366081238	
65	283.23398303985596	fix_post	2		12	63.0	2.5	blank	1.0	324.0809497833252	0.09999561309814453
66	283.3339786529541	fix_pre	0		118	64.0	2.5	/experiments/Knapen_AOT/AOT_stimuli/rescaled_final/0843_rv.mp4	0.0	324.18094539642334	0.991969108581543
66	284.309424161911	pulse	0	t		64.0	2.5	/experiments/Knapen_AOT/AOT_stimuli/rescaled_final/0843_rv.mp4	0.0	325.15639090538025	
66	284.32594776153564	movie	1		282	64.0	2.5	/experiments/Knapen_AOT/AOT_stimuli/rescaled_final/0843_rv.mp4	0.0	325.1729145050049	2.5003626346588135
66	285.90965700149536	pulse	1	t		64.0	2.5	/experiments/Knapen_AOT/AOT_stimuli/rescaled_final/0843_rv.mp4	0.0	326.7566237449646	
66	286.82631039619446	fix_post	2		12	64.0	2.5	/experiments/Knapen_AOT/AOT_stimuli/rescaled_final/0843_rv.mp4	0.0	327.6732771396637	0.09993505477905273
67	286.9262454509735	fix_pre	0		120	65.0	2.5	/experiments/Knapen_AOT/AOT_stimuli/rescaled_final/1923_rv.mp4	0.0	327.77321219444275	1.00844407081604
67	287.5098979473114	pulse	0	t		65.0	2.5	/experiments/Knapen_AOT/AOT_stimuli/rescaled_final/1923_rv.mp4	0.0	328.35686469078064	
67	287.93468952178955	movie	1		283	65.0	2.5	/experiments/Knapen_AOT/AOT_stimuli/rescaled_final/1923_rv.mp4	0.0	328.7816562652588	2.4920246601104736
67	289.1102271080017	pulse	1	t		65.0	2.5	/experiments/Knapen_AOT/AOT_stimuli/rescaled_final/1923_rv.mp4	0.0	329.95719385147095	
67	290.4267141819	fix_post	2		12	65.0	2.5	/experiments/Knapen_AOT/AOT_stimuli/rescaled_final/1923_rv.mp4	0.0	331.27368092536926	0.10002589225769043
68	290.5267400741577	fix_pre	0		120	66.0	2.5	/experiments/Knapen_AOT/AOT_stimuli/rescaled_final/0539_fw.mp4	0.0	331.37370681762695	1.0084869861602783
68	290.7103226184845	pulse	0	t		66.0	2.5	/experiments/Knapen_AOT/AOT_stimuli/rescaled_final/0539_fw.mp4	0.0	331.55728936195374	
68	291.535227060318	movie	1		276	66.0	2.5	/experiments/Knapen_AOT/AOT_stimuli/rescaled_final/0539_fw.mp4	0.0	332.38219380378723	2.4920530319213867
68	292.3108105659485	pulse	1	t		66.0	2.5	/experiments/Knapen_AOT/AOT_stimuli/rescaled_final/0539_fw.mp4	0.0	333.1577773094177	
68	293.91212701797485	pulse	1	t		66.0	2.5	/experiments/Knapen_AOT/AOT_stimuli/rescaled_final/0539_fw.mp4	0.0	334.7590937614441	
68	294.0272800922394	fix_post	2		12	66.0	2.5	/experiments/Knapen_AOT/AOT_stimuli/rescaled_final/0539_fw.mp4	0.0	334.8742468357086	0.09999918937683105
69	294.1272792816162	fix_pre	0		120	67.0	2.5	/experiments/Knapen_AOT/AOT_stimuli/rescaled_final/2023_fw.mp4	0.0	334.97424602508545	1.00852632522583
69	295.13580560684204	movie	1		277	67.0	2.5	/experiments/Knapen_AOT/AOT_stimuli/rescaled_final/2023_fw.mp4	0.0	335.9827723503113	2.492180824279785
69	295.5095133781433	pulse	1	t		67.0	2.5	/experiments/Knapen_AOT/AOT_stimuli/rescaled_final/2023_fw.mp4	0.0	336.35648012161255	
69	297.1095380783081	pulse	1	t		67.0	2.5	/experiments/Knapen_AOT/AOT_stimuli/rescaled_final/2023_fw.mp4	0.0	337.95650482177734	
69	297.6279864311218	fix_post	2		12	67.0	2.5	/experiments/Knapen_AOT/AOT_stimuli/rescaled_final/2023_fw.mp4	0.0	338.47495317459106	0.09982943534851074
70	297.72781586647034	fix_pre	0		119	68.0	2.5	blank	1.0	338.5747826099396	0.9918651580810547
70	298.71168398857117	pulse	0	t		68.0	2.5	blank	1.0	339.5586507320404	
70	298.7196810245514	movie	1		301	68.0	2.5	blank	1.0	339.56664776802063	2.5086677074432373
70	300.3118736743927	pulse	1	t		68.0	2.5	blank	1.0	341.15884041786194	
70	301.22834873199463	fix_post	2		12	68.0	2.5	blank	1.0	342.07531547546387	0.10000824928283691
71	301.32835698127747	fix_pre	0		120	69.0	2.5	/experiments/Knapen_AOT/AOT_stimuli/rescaled_final/1103_rv.mp4	0.0	342.1753237247467	1.0085358619689941
71	301.9121096134186	pulse	0	t		69.0	2.5	/experiments/Knapen_AOT/AOT_stimuli/rescaled_final/1103_rv.mp4	0.0	342.7590763568878	
71	302.33689284324646	movie	1		280	69.0	2.5	/experiments/Knapen_AOT/AOT_stimuli/rescaled_final/1103_rv.mp4	0.0	343.1838595867157	2.4920053482055664
71	303.51251244544983	pulse	1	t		69.0	2.5	/experiments/Knapen_AOT/AOT_stimuli/rescaled_final/1103_rv.mp4	0.0	344.35947918891907	
71	304.828898191452	fix_post	2		12	69.0	2.5	/experiments/Knapen_AOT/AOT_stimuli/rescaled_final/1103_rv.mp4	0.0	345.67586493492126	0.10004448890686035
72	304.9289426803589	fix_pre	0		120	70.0	2.5	/experiments/Knapen_AOT/AOT_stimuli/rescaled_final/0727_rv.mp4	0.0	345.7759094238281	1.0084571838378906
72	305.1124835014343	pulse	0	t		70.0	2.5	/experiments/Knapen_AOT/AOT_stimuli/rescaled_final/0727_rv.mp4	0.0	345.95945024490356	
72	305.9373998641968	movie	1		275	70.0	2.5	/experiments/Knapen_AOT/AOT_stimuli/rescaled_final/0727_rv.mp4	0.0	346.784366607666	2.4920270442962646
72	306.7109606266022	pulse	1	t		70.0	2.5	/experiments/Knapen_AOT/AOT_stimuli/rescaled_final/0727_rv.mp4	0.0	347.5579273700714	
72	308.31111693382263	pulse	1	t		70.0	2.5	/experiments/Knapen_AOT/AOT_stimuli/rescaled_final/0727_rv.mp4	0.0	349.15808367729187	
72	308.42942690849304	fix_post	2		12	70.0	2.5	/experiments/Knapen_AOT/AOT_stimuli/rescaled_final/0727_rv.mp4	0.0	349.2763936519623	0.10001897811889648
73	308.52944588661194	fix_pre	0		120	71.0	2.5	/experiments/Knapen_AOT/AOT_stimuli/rescaled_final/0580_fw.mp4	0.0	349.3764126300812	1.008622169494629
73	309.53806805610657	movie	1		270	71.0	2.5	/experiments/Knapen_AOT/AOT_stimuli/rescaled_final/0580_fw.mp4	0.0	350.3850347995758	2.4918973445892334
73	309.9133110046387	pulse	1	t		71.0	2.5	/experiments/Knapen_AOT/AOT_stimuli/rescaled_final/0580_fw.mp4	0.0	350.7602777481079	
73	311.51163816452026	pulse	1	t		71.0	2.5	/experiments/Knapen_AOT/AOT_stimuli/rescaled_final/0580_fw.mp4	0.0	352.3586049079895	
73	312.0299654006958	fix_post	2		12	71.0	2.5	/experiments/Knapen_AOT/AOT_stimuli/rescaled_final/0580_fw.mp4	0.0	352.87693214416504	0.10002374649047852
74	312.1299891471863	fix_pre	0		119	72.0	2.5	/experiments/Knapen_AOT/AOT_stimuli/rescaled_final/1348_rv.mp4	0.0	352.9769558906555	1.0086545944213867
74	313.1137969493866	pulse	0	t		72.0	2.5	/experiments/Knapen_AOT/AOT_stimuli/rescaled_final/1348_rv.mp4	0.0	353.96076369285583	
74	313.13864374160767	movie	1		273	72.0	2.5	/experiments/Knapen_AOT/AOT_stimuli/rescaled_final/1348_rv.mp4	0.0	353.9856104850769	2.491861581802368
74	314.71241760253906	pulse	1	t		72.0	2.5	/experiments/Knapen_AOT/AOT_stimuli/rescaled_final/1348_rv.mp4	0.0	355.5593843460083	
74	315.63050532341003	fix_post	2		12	72.0	2.5	/experiments/Knapen_AOT/AOT_stimuli/rescaled_final/1348_rv.mp4	0.0	356.4774720668793	0.10003280639648438
75	315.7305381298065	fix_pre	0		120	73.0	2.5	/experiments/Knapen_AOT/AOT_stimuli/rescaled_final/0153_fw.mp4	0.0	356.57750487327576	1.0085728168487549
75	316.31437730789185	pulse	0	t		73.0	2.5	/experiments/Knapen_AOT/AOT_stimuli/rescaled_final/0153_fw.mp4	0.0	357.1613440513611	
75	316.7391109466553	movie	1		278	73.0	2.5	/experiments/Knapen_AOT/AOT_stimuli/rescaled_final/0153_fw.mp4	0.0	357.5860776901245	2.4920971393585205
75	317.9126675128937	pulse	1	t		73.0	2.5	/experiments/Knapen_AOT/AOT_stimuli/rescaled_final/0153_fw.mp4	0.0	358.7596342563629	
75	319.2312080860138	fix_post	2		12	73.0	2.5	/experiments/Knapen_AOT/AOT_stimuli/rescaled_final/0153_fw.mp4	0.0	360.07817482948303	0.09986138343811035
76	319.3310694694519	fix_pre	0		120	74.0	2.5	/experiments/Knapen_AOT/AOT_stimuli/rescaled_final/0639_rv.mp4	0.0	360.17803621292114	1.0085110664367676
76	319.51459550857544	pulse	0	t		74.0	2.5	/experiments/Knapen_AOT/AOT_stimuli/rescaled_final/0639_rv.mp4	0.0	360.3615622520447	
76	320.3395805358887	movie	1		271	74.0	2.5	/experiments/Knapen_AOT/AOT_stimuli/rescaled_final/0639_rv.mp4	0.0	361.1865472793579	2.4920098781585693
76	321.11290431022644	pulse	1	t		74.0	2.5	/experiments/Knapen_AOT/AOT_stimuli/rescaled_final/0639_rv.mp4	0.0	361.9598710536957	
76	322.71340775489807	pulse	1	t		74.0	2.5	/experiments/Knapen_AOT/AOT_stimuli/rescaled_final/0639_rv.mp4	0.0	363.5603744983673	
76	322.83159041404724	fix_post	2		12	74.0	2.5	/experiments/Knapen_AOT/AOT_stimuli/rescaled_final/0639_rv.mp4	0.0	363.6785571575165	0.10004234313964844
77	322.9316327571869	fix_pre	0		120	75.0	2.5	/experiments/Knapen_AOT/AOT_stimuli/rescaled_final/1947_rv.mp4	0.0	363.7785995006561	1.008483648300171
77	323.94011640548706	movie	1		278	75.0	2.5	/experiments/Knapen_AOT/AOT_stimuli/rescaled_final/1947_rv.mp4	0.0	364.7870831489563	2.492018699645996
77	324.3157160282135	pulse	1	t		75.0	2.5	/experiments/Knapen_AOT/AOT_stimuli/rescaled_final/1947_rv.mp4	0.0	365.16268277168274	
77	325.9137933254242	pulse	1	t		75.0	2.5	/experiments/Knapen_AOT/AOT_stimuli/rescaled_final/1947_rv.mp4	0.0	366.76076006889343	
77	326.43213510513306	fix_post	2		12	75.0	2.5	/experiments/Knapen_AOT/AOT_stimuli/rescaled_final/1947_rv.mp4	0.0	367.2791018486023	0.1000213623046875
78	326.53215646743774	fix_pre	0		119	76.0	2.5	blank	1.0	367.379123210907	0.9918327331542969
78	327.51602387428284	pulse	0	t		76.0	2.5	blank	1.0	368.3629906177521	
78	327.52398920059204	movie	1		301	76.0	2.5	blank	1.0	368.3709559440613	2.508686065673828
78	329.1161997318268	pulse	1	t		76.0	2.5	blank	1.0	369.963166475296	
78	330.03267526626587	fix_post	2		12	76.0	2.5	blank	1.0	370.8796420097351	0.10002803802490234
79	330.13270330429077	fix_pre	0		120	77.0	2.5	/experiments/Knapen_AOT/AOT_stimuli/rescaled_final/0001_rv.mp4	0.0	370.97967004776	1.0085203647613525
79	330.7164912223816	pulse	0	t		77.0	2.5	/experiments/Knapen_AOT/AOT_stimuli/rescaled_final/0001_rv.mp4	0.0	371.56345796585083	
79	331.1412236690521	movie	1		274	77.0	2.5	/experiments/Knapen_AOT/AOT_stimuli/rescaled_final/0001_rv.mp4	0.0	371.98819041252136	2.4920308589935303
79	332.3154582977295	pulse	1	t		77.0	2.5	/experiments/Knapen_AOT/AOT_stimuli/rescaled_final/0001_rv.mp4	0.0	373.16242504119873	
79	333.63325452804565	fix_post	2		12	77.0	2.5	/experiments/Knapen_AOT/AOT_stimuli/rescaled_final/0001_rv.mp4	0.0	374.4802212715149	0.09998202323913574
80	333.7332365512848	fix_pre	0		120	78.0	2.5	/experiments/Knapen_AOT/AOT_stimuli/rescaled_final/1308_rv.mp4	0.0	374.580203294754	1.0084741115570068
80	333.91681003570557	pulse	0	t		78.0	2.5	/experiments/Knapen_AOT/AOT_stimuli/rescaled_final/1308_rv.mp4	0.0	374.7637767791748	
80	334.7417106628418	movie	1		273	78.0	2.5	/experiments/Knapen_AOT/AOT_stimuli/rescaled_final/1308_rv.mp4	0.0	375.58867740631104	2.4920973777770996
80	335.5150816440582	pulse	1	t		78.0	2.5	/experiments/Knapen_AOT/AOT_stimuli/rescaled_final/1308_rv.mp4	0.0	376.36204838752747	
80	337.1155993938446	pulse	1	t		78.0	2.5	/experiments/Knapen_AOT/AOT_stimuli/rescaled_final/1308_rv.mp4	0.0	377.96256613731384	
80	337.2338080406189	fix_post	2		12	78.0	2.5	/experiments/Knapen_AOT/AOT_stimuli/rescaled_final/1308_rv.mp4	0.0	378.08077478408813	0.09996581077575684
81	337.33377385139465	fix_pre	0		120	79.0	2.5	/experiments/Knapen_AOT/AOT_stimuli/rescaled_final/2023_fw.mp4	0.0	378.1807405948639	1.0085227489471436
81	338.3422966003418	movie	1		267	79.0	2.5	/experiments/Knapen_AOT/AOT_stimuli/rescaled_final/2023_fw.mp4	0.0	379.18926334381104	2.492098093032837
81	338.7099394798279	pulse	1	t		79.0	2.5	/experiments/Knapen_AOT/AOT_stimuli/rescaled_final/2023_fw.mp4	0.0	379.5569062232971	
81	340.3097355365753	pulse	1	t		79.0	2.5	/experiments/Knapen_AOT/AOT_stimuli/rescaled_final/2023_fw.mp4	0.0	381.15670228004456	
81	340.83439469337463	fix_post	2		12	79.0	2.5	/experiments/Knapen_AOT/AOT_stimuli/rescaled_final/2023_fw.mp4	0.0	381.6813614368439	0.09992694854736328
82	340.934321641922	fix_pre	0		118	80.0	2.5	/experiments/Knapen_AOT/AOT_stimuli/rescaled_final/0727_fw.mp4	0.0	381.78128838539124	0.9918818473815918
82	341.91003942489624	pulse	0	t		80.0	2.5	/experiments/Knapen_AOT/AOT_stimuli/rescaled_final/0727_fw.mp4	0.0	382.7570061683655	
82	341.9262034893036	movie	1		273	80.0	2.5	/experiments/Knapen_AOT/AOT_stimuli/rescaled_final/0727_fw.mp4	0.0	382.7731702327728	2.500302791595459
82	343.5099370479584	pulse	1	t		80.0	2.5	/experiments/Knapen_AOT/AOT_stimuli/rescaled_final/0727_fw.mp4	0.0	384.3569037914276	
82	344.42650628089905	fix_post	2		12	80.0	2.5	/experiments/Knapen_AOT/AOT_stimuli/rescaled_final/0727_fw.mp4	0.0	385.2734730243683	0.10004997253417969
83	344.5265562534332	fix_pre	0		120	81.0	2.5	/experiments/Knapen_AOT/AOT_stimuli/rescaled_final/1206_rv.mp4	0.0	385.37352299690247	1.0084681510925293
83	345.11032938957214	pulse	0	t		81.0	2.5	/experiments/Knapen_AOT/AOT_stimuli/rescaled_final/1206_rv.mp4	0.0	385.9572961330414	
83	345.53502440452576	movie	1		276	81.0	2.5	/experiments/Knapen_AOT/AOT_stimuli/rescaled_final/1206_rv.mp4	0.0	386.381991147995	2.492023468017578
83	346.7108027935028	pulse	1	t		81.0	2.5	/experiments/Knapen_AOT/AOT_stimuli/rescaled_final/1206_rv.mp4	0.0	387.55776953697205	
83	348.02704787254333	fix_post	2		12	81.0	2.5	/experiments/Knapen_AOT/AOT_stimuli/rescaled_final/1206_rv.mp4	0.0	388.8740146160126	0.10004115104675293
84	348.1270890235901	fix_pre	0		120	82.0	2.5	/experiments/Knapen_AOT/AOT_stimuli/rescaled_final/1308_fw.mp4	0.0	388.9740557670593	1.0084598064422607
84	348.31064224243164	pulse	0	t		82.0	2.5	/experiments/Knapen_AOT/AOT_stimuli/rescaled_final/1308_fw.mp4	0.0	389.1576089859009	
84	349.13554883003235	movie	1		262	82.0	2.5	/experiments/Knapen_AOT/AOT_stimuli/rescaled_final/1308_fw.mp4	0.0	389.9825155735016	2.4920458793640137
84	349.91092324256897	pulse	1	t		82.0	2.5	/experiments/Knapen_AOT/AOT_stimuli/rescaled_final/1308_fw.mp4	0.0	390.7578899860382	
84	351.50966334342957	pulse	1	t		82.0	2.5	/experiments/Knapen_AOT/AOT_stimuli/rescaled_final/1308_fw.mp4	0.0	392.3566300868988	
84	351.62759470939636	fix_post	2		12	82.0	2.5	/experiments/Knapen_AOT/AOT_stimuli/rescaled_final/1308_fw.mp4	0.0	392.4745614528656	0.10000300407409668
85	351.72759771347046	fix_pre	0		120	83.0	2.5	blank	1.0	392.5745644569397	1.0001757144927979
85	352.72777342796326	movie	1		300	83.0	2.5	blank	1.0	393.5747401714325	2.500359296798706
85	353.1113791465759	pulse	1	t		83.0	2.5	blank	1.0	393.95834589004517	
85	354.7116651535034	pulse	1	t		83.0	2.5	blank	1.0	395.55863189697266	
85	355.22813272476196	fix_post	2		12	83.0	2.5	blank	1.0	396.0750994682312	0.09997797012329102
87	355.32811069488525	stim	0		1715					396.1750774383545	14.29386281967163
87	356.3121528625488	pulse	0	t						397.15911960601807	
87	357.91213488578796	pulse	0	t						398.7591016292572	
87	359.5123825073242	pulse	0	t						400.35934925079346	
87	361.1125416755676	pulse	0	t						401.95950841903687	
87	362.71281361579895	pulse	0	t						403.5597803592682	
87	364.3131995201111	pulse	0	t						405.1601662635803	
87	365.91327238082886	pulse	0	t						406.7602391242981	
87	367.5135533809662	pulse	0	t						408.3605201244354	
87	369.1137549877167	pulse	0	t						409.9607217311859	
