trial_nr	onset	event_type	phase	response	nr_frames	movie_index	movie_duration	movie_file	blank	onset_abs	duration
0	0.15827083587646484	stim	0		117					21.50612783432007	0.9749081134796143
0	1.1179718971252441	response	0	space						22.465828895568848	
1	1.133178949356079	stim	0		3004					22.481035947799683	25.033227920532227
1	26.161715030670166	pulse	0	t						47.50957202911377	
1	26.166406869888306	stim	1		1717					47.51426386833191	14.308305978775024
1	27.757872819900513	pulse	1	t						49.105729818344116	
1	29.358294010162354	pulse	1	t						50.70615100860596	
1	30.950639009475708	pulse	1	t						52.29849600791931	
1	32.55823802947998	pulse	1	t						53.906095027923584	
1	34.150717973709106	pulse	1	t						55.49857497215271	
1	35.75059986114502	pulse	1	t						57.09845685958862	
1	37.3506178855896	pulse	1	t						58.6984748840332	
1	38.9506049156189	pulse	1	t						60.2984619140625	
2	40.47471284866333	fix_pre	0		11	0.0	2.5	/experiments/AOT/AOT_stimuli/rescaled_final/1016_fw.mp4	0.0	61.822569847106934	0.09164118766784668
2	40.558321952819824	pulse	0	t		0.0	2.5	/experiments/AOT/AOT_stimuli/rescaled_final/1016_fw.mp4	0.0	61.90617895126343	
2	40.56635403633118	movie	1		244	0.0	2.5	/experiments/AOT/AOT_stimuli/rescaled_final/1016_fw.mp4	0.0	61.91421103477478	2.508283853530884
2	42.15770602226257	pulse	1	t		0.0	2.5	/experiments/AOT/AOT_stimuli/rescaled_final/1016_fw.mp4	0.0	63.50556302070618	
2	43.07463788986206	fix_post	2		12	0.0	2.5	/experiments/AOT/AOT_stimuli/rescaled_final/1016_fw.mp4	0.0	64.42249488830566	0.10017895698547363
3	43.174816846847534	fix_pre	0		120	1.0	2.5	/experiments/AOT/AOT_stimuli/rescaled_final/2164_rv.mp4	0.0	64.52267384529114	0.999852180480957
3	43.75820994377136	pulse	0	t		1.0	2.5	/experiments/AOT/AOT_stimuli/rescaled_final/2164_rv.mp4	0.0	65.10606694221497	
3	44.17466902732849	movie	1		243	1.0	2.5	/experiments/AOT/AOT_stimuli/rescaled_final/2164_rv.mp4	0.0	65.5225260257721	2.5000360012054443
3	45.35831093788147	pulse	1	t		1.0	2.5	/experiments/AOT/AOT_stimuli/rescaled_final/2164_rv.mp4	0.0	66.70616793632507	
3	46.674705028533936	fix_post	2		12	1.0	2.5	/experiments/AOT/AOT_stimuli/rescaled_final/2164_rv.mp4	0.0	68.02256202697754	0.09992694854736328
4	46.7746319770813	fix_pre	0		120	2.0	2.5	/experiments/AOT/AOT_stimuli/rescaled_final/1250_rv.mp4	0.0	68.1224889755249	1.0000710487365723
4	46.958240032196045	pulse	0	t		2.0	2.5	/experiments/AOT/AOT_stimuli/rescaled_final/1250_rv.mp4	0.0	68.30609703063965	
4	47.77470302581787	movie	1		247	2.0	2.5	/experiments/AOT/AOT_stimuli/rescaled_final/1250_rv.mp4	0.0	69.12256002426147	2.5000109672546387
4	48.5581738948822	pulse	1	t		2.0	2.5	/experiments/AOT/AOT_stimuli/rescaled_final/1250_rv.mp4	0.0	69.9060308933258	
4	50.1541428565979	pulse	1	t		2.0	2.5	/experiments/AOT/AOT_stimuli/rescaled_final/1250_rv.mp4	0.0	71.5019998550415	
4	50.27471399307251	fix_post	2		12	2.0	2.5	/experiments/AOT/AOT_stimuli/rescaled_final/1250_rv.mp4	0.0	71.62257099151611	0.10001492500305176
5	50.37472891807556	fix_pre	0		120	3.0	2.5	/experiments/AOT/AOT_stimuli/rescaled_final/1425_fw.mp4	0.0	71.72258591651917	1.0000150203704834
5	51.374743938446045	movie	1		246	3.0	2.5	/experiments/AOT/AOT_stimuli/rescaled_final/1425_fw.mp4	0.0	72.72260093688965	2.4994540214538574
5	51.75778293609619	pulse	1	t		3.0	2.5	/experiments/AOT/AOT_stimuli/rescaled_final/1425_fw.mp4	0.0	73.1056399345398	
5	53.350769996643066	pulse	1	t		3.0	2.5	/experiments/AOT/AOT_stimuli/rescaled_final/1425_fw.mp4	0.0	74.69862699508667	
5	53.8741979598999	fix_post	2		12	3.0	2.5	/experiments/AOT/AOT_stimuli/rescaled_final/1425_fw.mp4	0.0	75.2220549583435	0.10046887397766113
6	53.97466683387756	fix_pre	0		119	4.0	2.5	/experiments/AOT/AOT_stimuli/rescaled_final/0070_fw.mp4	0.0	75.32252383232117	0.9916970729827881
6	54.95064091682434	pulse	0	t		4.0	2.5	/experiments/AOT/AOT_stimuli/rescaled_final/0070_fw.mp4	0.0	76.29849791526794	
6	54.96636390686035	movie	1		248	4.0	2.5	/experiments/AOT/AOT_stimuli/rescaled_final/0070_fw.mp4	0.0	76.31422090530396	2.508242130279541
6	56.557734966278076	pulse	1	t		4.0	2.5	/experiments/AOT/AOT_stimuli/rescaled_final/0070_fw.mp4	0.0	77.90559196472168	
6	57.47460603713989	fix_post	2		12	4.0	2.5	/experiments/AOT/AOT_stimuli/rescaled_final/0070_fw.mp4	0.0	78.8224630355835	0.09993290901184082
7	57.57453894615173	fix_pre	0		120	5.0	2.5	blank	1.0	78.92239594459534	1.0001180171966553
7	58.15186786651611	pulse	0	t		5.0	2.5	blank	1.0	79.49972486495972	
7	58.57465696334839	movie	1		300	5.0	2.5	blank	1.0	79.92251396179199	2.4996190071105957
7	59.75808501243591	pulse	1	t		5.0	2.5	blank	1.0	81.10594201087952	
7	61.074275970458984	fix_post	2		12	5.0	2.5	blank	1.0	82.42213296890259	0.10029387474060059
8	61.174569845199585	fix_pre	0		120	6.0	2.5	/experiments/AOT/AOT_stimuli/rescaled_final/1564_fw.mp4	0.0	82.52242684364319	0.9999849796295166
8	61.358104944229126	pulse	0	t		6.0	2.5	/experiments/AOT/AOT_stimuli/rescaled_final/1564_fw.mp4	0.0	82.70596194267273	
8	62.1745548248291	movie	1		244	6.0	2.5	/experiments/AOT/AOT_stimuli/rescaled_final/1564_fw.mp4	0.0	83.5224118232727	2.5
8	62.958130836486816	pulse	1	t		6.0	2.5	/experiments/AOT/AOT_stimuli/rescaled_final/1564_fw.mp4	0.0	84.30598783493042	
8	64.55698990821838	pulse	1	t		6.0	2.5	/experiments/AOT/AOT_stimuli/rescaled_final/1564_fw.mp4	0.0	85.90484690666199	
8	64.6745548248291	fix_post	2		12	6.0	2.5	/experiments/AOT/AOT_stimuli/rescaled_final/1564_fw.mp4	0.0	86.0224118232727	0.09996819496154785
9	64.77452301979065	fix_pre	0		120	7.0	2.5	/experiments/AOT/AOT_stimuli/rescaled_final/1564_rv.mp4	0.0	86.12238001823425	1.000032901763916
9	65.77455592155457	movie	1		244	7.0	2.5	/experiments/AOT/AOT_stimuli/rescaled_final/1564_rv.mp4	0.0	87.12241291999817	2.4995970726013184
9	66.15755701065063	pulse	1	t		7.0	2.5	/experiments/AOT/AOT_stimuli/rescaled_final/1564_rv.mp4	0.0	87.50541400909424	
9	67.75070190429688	pulse	1	t		7.0	2.5	/experiments/AOT/AOT_stimuli/rescaled_final/1564_rv.mp4	0.0	89.09855890274048	
9	68.27415299415588	fix_post	2		12	7.0	2.5	/experiments/AOT/AOT_stimuli/rescaled_final/1564_rv.mp4	0.0	89.62200999259949	0.10042500495910645
10	68.37457799911499	fix_pre	0		119	8.0	2.5	/experiments/AOT/AOT_stimuli/rescaled_final/0066_fw.mp4	0.0	89.7224349975586	0.9916708469390869
10	69.35063004493713	pulse	0	t		8.0	2.5	/experiments/AOT/AOT_stimuli/rescaled_final/0066_fw.mp4	0.0	90.69848704338074	
10	69.36624884605408	movie	1		247	8.0	2.5	/experiments/AOT/AOT_stimuli/rescaled_final/0066_fw.mp4	0.0	90.71410584449768	2.5079400539398193
10	70.95753788948059	pulse	1	t		8.0	2.5	/experiments/AOT/AOT_stimuli/rescaled_final/0066_fw.mp4	0.0	92.3053948879242	
10	71.8741888999939	fix_post	2		12	8.0	2.5	/experiments/AOT/AOT_stimuli/rescaled_final/0066_fw.mp4	0.0	93.2220458984375	0.10042715072631836
11	71.97461605072021	fix_pre	0		120	9.0	2.5	/experiments/AOT/AOT_stimuli/rescaled_final/0659_rv.mp4	0.0	93.32247304916382	0.9995567798614502
11	72.55765700340271	pulse	0	t		9.0	2.5	/experiments/AOT/AOT_stimuli/rescaled_final/0659_rv.mp4	0.0	93.90551400184631	
11	72.97417283058167	movie	1		244	9.0	2.5	/experiments/AOT/AOT_stimuli/rescaled_final/0659_rv.mp4	0.0	94.32202982902527	2.5007221698760986
11	74.15773487091064	pulse	1	t		9.0	2.5	/experiments/AOT/AOT_stimuli/rescaled_final/0659_rv.mp4	0.0	95.50559186935425	
11	75.47489500045776	fix_post	2		12	9.0	2.5	/experiments/AOT/AOT_stimuli/rescaled_final/0659_rv.mp4	0.0	96.82275199890137	0.09998297691345215
12	75.57487797737122	fix_pre	0		120	10.0	2.5	/experiments/AOT/AOT_stimuli/rescaled_final/1749_fw.mp4	0.0	96.92273497581482	0.9997270107269287
12	75.75800085067749	pulse	0	t		10.0	2.5	/experiments/AOT/AOT_stimuli/rescaled_final/1749_fw.mp4	0.0	97.1058578491211	
12	76.57460498809814	movie	1		244	10.0	2.5	/experiments/AOT/AOT_stimuli/rescaled_final/1749_fw.mp4	0.0	97.92246198654175	2.4999659061431885
12	77.35801196098328	pulse	1	t		10.0	2.5	/experiments/AOT/AOT_stimuli/rescaled_final/1749_fw.mp4	0.0	98.70586895942688	
12	78.95615887641907	pulse	1	t		10.0	2.5	/experiments/AOT/AOT_stimuli/rescaled_final/1749_fw.mp4	0.0	100.30401587486267	
12	79.07457089424133	fix_post	2		12	10.0	2.5	/experiments/AOT/AOT_stimuli/rescaled_final/1749_fw.mp4	0.0	100.42242789268494	0.09998512268066406
13	79.174556016922	fix_pre	0		120	11.0	2.5	/experiments/AOT/AOT_stimuli/rescaled_final/0227_rv.mp4	0.0	100.5224130153656	1.0000498294830322
13	80.17460584640503	movie	1		244	11.0	2.5	/experiments/AOT/AOT_stimuli/rescaled_final/0227_rv.mp4	0.0	101.52246284484863	2.4999210834503174
13	80.5589029788971	pulse	1	t		11.0	2.5	/experiments/AOT/AOT_stimuli/rescaled_final/0227_rv.mp4	0.0	101.9067599773407	
13	82.15797305107117	pulse	1	t		11.0	2.5	/experiments/AOT/AOT_stimuli/rescaled_final/0227_rv.mp4	0.0	103.50583004951477	
13	82.67452692985535	fix_post	2		12	11.0	2.5	/experiments/AOT/AOT_stimuli/rescaled_final/0227_rv.mp4	0.0	104.02238392829895	0.09994101524353027
14	82.77446794509888	fix_pre	0		119	12.0	2.5	blank	1.0	104.12232494354248	0.9916861057281494
14	83.75794196128845	pulse	0	t		12.0	2.5	blank	1.0	105.10579895973206	
14	83.76615405082703	movie	1		301	12.0	2.5	blank	1.0	105.11401104927063	2.5083258152008057
14	85.35797595977783	pulse	1	t		12.0	2.5	blank	1.0	106.70583295822144	
14	86.27447986602783	fix_post	2		12	12.0	2.5	blank	1.0	107.62233686447144	0.09994101524353027
15	86.37442088127136	fix_pre	0		120	13.0	2.5	/experiments/AOT/AOT_stimuli/rescaled_final/0792_fw.mp4	0.0	107.72227787971497	1.0001180171966553
15	86.95045185089111	pulse	0	t		13.0	2.5	/experiments/AOT/AOT_stimuli/rescaled_final/0792_fw.mp4	0.0	108.29830884933472	
15	87.37453889846802	movie	1		243	13.0	2.5	/experiments/AOT/AOT_stimuli/rescaled_final/0792_fw.mp4	0.0	108.72239589691162	2.499920129776001
15	88.55812287330627	pulse	1	t		13.0	2.5	/experiments/AOT/AOT_stimuli/rescaled_final/0792_fw.mp4	0.0	109.90597987174988	
15	89.87445902824402	fix_post	2		12	13.0	2.5	/experiments/AOT/AOT_stimuli/rescaled_final/0792_fw.mp4	0.0	111.22231602668762	0.10002779960632324
16	89.97448682785034	fix_pre	0		120	14.0	2.5	/experiments/AOT/AOT_stimuli/rescaled_final/1081_rv.mp4	0.0	111.32234382629395	0.9999730587005615
16	90.15793585777283	pulse	0	t		14.0	2.5	/experiments/AOT/AOT_stimuli/rescaled_final/1081_rv.mp4	0.0	111.50579285621643	
16	90.9744598865509	movie	1		246	14.0	2.5	/experiments/AOT/AOT_stimuli/rescaled_final/1081_rv.mp4	0.0	112.3223168849945	2.500067949295044
16	91.75791883468628	pulse	1	t		14.0	2.5	/experiments/AOT/AOT_stimuli/rescaled_final/1081_rv.mp4	0.0	113.10577583312988	
16	93.35673499107361	pulse	1	t		14.0	2.5	/experiments/AOT/AOT_stimuli/rescaled_final/1081_rv.mp4	0.0	114.70459198951721	
16	93.47452783584595	fix_post	2		12	14.0	2.5	/experiments/AOT/AOT_stimuli/rescaled_final/1081_rv.mp4	0.0	114.82238483428955	0.09986305236816406
17	93.57439088821411	fix_pre	0		120	15.0	2.5	/experiments/AOT/AOT_stimuli/rescaled_final/1081_fw.mp4	0.0	114.92224788665771	1.0000431537628174
17	94.57443404197693	movie	1		246	15.0	2.5	/experiments/AOT/AOT_stimuli/rescaled_final/1081_fw.mp4	0.0	115.92229104042053	2.5000219345092773
17	94.95720291137695	pulse	1	t		15.0	2.5	/experiments/AOT/AOT_stimuli/rescaled_final/1081_fw.mp4	0.0	116.30505990982056	
17	96.55783581733704	pulse	1	t		15.0	2.5	/experiments/AOT/AOT_stimuli/rescaled_final/1081_fw.mp4	0.0	117.90569281578064	
17	97.0744559764862	fix_post	2		12	15.0	2.5	/experiments/AOT/AOT_stimuli/rescaled_final/1081_fw.mp4	0.0	118.42231297492981	0.10001301765441895
18	97.17446899414062	fix_pre	0		119	16.0	2.5	/experiments/AOT/AOT_stimuli/rescaled_final/1313_rv.mp4	0.0	118.52232599258423	0.991675853729248
18	98.15795493125916	pulse	0	t		16.0	2.5	/experiments/AOT/AOT_stimuli/rescaled_final/1313_rv.mp4	0.0	119.50581192970276	
18	98.16614484786987	movie	1		244	16.0	2.5	/experiments/AOT/AOT_stimuli/rescaled_final/1313_rv.mp4	0.0	119.51400184631348	2.507869005203247
18	99.75756502151489	pulse	1	t		16.0	2.5	/experiments/AOT/AOT_stimuli/rescaled_final/1313_rv.mp4	0.0	121.1054220199585	
18	100.67401385307312	fix_post	2		12	16.0	2.5	/experiments/AOT/AOT_stimuli/rescaled_final/1313_rv.mp4	0.0	122.02187085151672	0.10037112236022949
19	100.77438497543335	fix_pre	0		120	17.0	2.5	/experiments/AOT/AOT_stimuli/rescaled_final/1830_rv.mp4	0.0	122.12224197387695	1.0000438690185547
19	101.35802602767944	pulse	0	t		17.0	2.5	/experiments/AOT/AOT_stimuli/rescaled_final/1830_rv.mp4	0.0	122.70588302612305	
19	101.7744288444519	movie	1		244	17.0	2.5	/experiments/AOT/AOT_stimuli/rescaled_final/1830_rv.mp4	0.0	123.12228584289551	2.4999871253967285
19	102.95799398422241	pulse	1	t		17.0	2.5	/experiments/AOT/AOT_stimuli/rescaled_final/1830_rv.mp4	0.0	124.30585098266602	
19	104.27441596984863	fix_post	2		12	17.0	2.5	/experiments/AOT/AOT_stimuli/rescaled_final/1830_rv.mp4	0.0	125.62227296829224	0.09998798370361328
20	104.37440395355225	fix_pre	0		120	18.0	2.5	/experiments/AOT/AOT_stimuli/rescaled_final/2015_fw.mp4	0.0	125.72226095199585	0.9999830722808838
20	104.55796098709106	pulse	0	t		18.0	2.5	/experiments/AOT/AOT_stimuli/rescaled_final/2015_fw.mp4	0.0	125.90581798553467	
20	105.37438702583313	movie	1		243	18.0	2.5	/experiments/AOT/AOT_stimuli/rescaled_final/2015_fw.mp4	0.0	126.72224402427673	2.499957799911499
20	106.15787601470947	pulse	1	t		18.0	2.5	/experiments/AOT/AOT_stimuli/rescaled_final/2015_fw.mp4	0.0	127.50573301315308	
20	107.75633192062378	pulse	1	t		18.0	2.5	/experiments/AOT/AOT_stimuli/rescaled_final/2015_fw.mp4	0.0	129.10418891906738	
20	107.87434482574463	fix_post	2		12	18.0	2.5	/experiments/AOT/AOT_stimuli/rescaled_final/2015_fw.mp4	0.0	129.22220182418823	0.10001611709594727
21	107.97436094284058	fix_pre	0		120	19.0	2.5	/experiments/AOT/AOT_stimuli/rescaled_final/2051_fw.mp4	0.0	129.32221794128418	1.0000770092010498
21	108.97443795204163	movie	1		243	19.0	2.5	/experiments/AOT/AOT_stimuli/rescaled_final/2051_fw.mp4	0.0	130.32229495048523	2.499953031539917
21	109.35763502120972	pulse	1	t		19.0	2.5	/experiments/AOT/AOT_stimuli/rescaled_final/2051_fw.mp4	0.0	130.70549201965332	
21	110.95794200897217	pulse	1	t		19.0	2.5	/experiments/AOT/AOT_stimuli/rescaled_final/2051_fw.mp4	0.0	132.30579900741577	
21	111.47439098358154	fix_post	2		12	19.0	2.5	/experiments/AOT/AOT_stimuli/rescaled_final/2051_fw.mp4	0.0	132.82224798202515	0.09957289695739746
22	111.57396388053894	fix_pre	0		119	20.0	2.5	blank	1.0	132.92182087898254	0.9920670986175537
22	112.55786085128784	pulse	0	t		20.0	2.5	blank	1.0	133.90571784973145	
22	112.5660309791565	movie	1		301	20.0	2.5	blank	1.0	133.9138879776001	2.5083179473876953
22	114.157958984375	pulse	1	t		20.0	2.5	blank	1.0	135.5058159828186	
22	115.07434892654419	fix_post	2		12	20.0	2.5	blank	1.0	136.4222059249878	0.10004401206970215
23	115.17439293861389	fix_pre	0		120	21.0	2.5	/experiments/AOT/AOT_stimuli/rescaled_final/0234_rv.mp4	0.0	136.5222499370575	1.0000169277191162
23	115.75788497924805	pulse	0	t		21.0	2.5	/experiments/AOT/AOT_stimuli/rescaled_final/0234_rv.mp4	0.0	137.10574197769165	
23	116.17440986633301	movie	1		244	21.0	2.5	/experiments/AOT/AOT_stimuli/rescaled_final/0234_rv.mp4	0.0	137.5222668647766	2.499997138977051
23	117.35065388679504	pulse	1	t		21.0	2.5	/experiments/AOT/AOT_stimuli/rescaled_final/0234_rv.mp4	0.0	138.69851088523865	
23	118.67440700531006	fix_post	2		12	21.0	2.5	/experiments/AOT/AOT_stimuli/rescaled_final/0234_rv.mp4	0.0	140.02226400375366	0.09993600845336914
24	118.77434301376343	fix_pre	0		120	22.0	2.5	/experiments/AOT/AOT_stimuli/rescaled_final/0660_fw.mp4	0.0	140.12220001220703	1.0000009536743164
24	118.95776200294495	pulse	0	t		22.0	2.5	/experiments/AOT/AOT_stimuli/rescaled_final/0660_fw.mp4	0.0	140.30561900138855	
24	119.77434396743774	movie	1		243	22.0	2.5	/experiments/AOT/AOT_stimuli/rescaled_final/0660_fw.mp4	0.0	141.12220096588135	2.4999489784240723
24	120.5578408241272	pulse	1	t		22.0	2.5	/experiments/AOT/AOT_stimuli/rescaled_final/0660_fw.mp4	0.0	141.9056978225708	
24	122.15609288215637	pulse	1	t		22.0	2.5	/experiments/AOT/AOT_stimuli/rescaled_final/0660_fw.mp4	0.0	143.50394988059998	
24	122.27429294586182	fix_post	2		12	22.0	2.5	/experiments/AOT/AOT_stimuli/rescaled_final/0660_fw.mp4	0.0	143.62214994430542	0.10008692741394043
25	122.37437987327576	fix_pre	0		120	23.0	2.5	/experiments/AOT/AOT_stimuli/rescaled_final/1585_fw.mp4	0.0	143.72223687171936	0.9999001026153564
25	123.37427997589111	movie	1		244	23.0	2.5	/experiments/AOT/AOT_stimuli/rescaled_final/1585_fw.mp4	0.0	144.72213697433472	2.500005006790161
25	123.75745987892151	pulse	1	t		23.0	2.5	/experiments/AOT/AOT_stimuli/rescaled_final/1585_fw.mp4	0.0	145.1053168773651	
25	125.35775399208069	pulse	1	t		23.0	2.5	/experiments/AOT/AOT_stimuli/rescaled_final/1585_fw.mp4	0.0	146.7056109905243	
25	125.87428498268127	fix_post	2		12	23.0	2.5	/experiments/AOT/AOT_stimuli/rescaled_final/1585_fw.mp4	0.0	147.22214198112488	0.10001206398010254
26	125.97429704666138	fix_pre	0		119	24.0	2.5	/experiments/AOT/AOT_stimuli/rescaled_final/1549_rv.mp4	0.0	147.32215404510498	0.9916608333587646
26	126.95779395103455	pulse	0	t		24.0	2.5	/experiments/AOT/AOT_stimuli/rescaled_final/1549_rv.mp4	0.0	148.30565094947815	
26	126.96595788002014	movie	1		248	24.0	2.5	/experiments/AOT/AOT_stimuli/rescaled_final/1549_rv.mp4	0.0	148.31381487846375	2.5079550743103027
26	128.55684304237366	pulse	1	t		24.0	2.5	/experiments/AOT/AOT_stimuli/rescaled_final/1549_rv.mp4	0.0	149.90470004081726	
26	129.47391295433044	fix_post	2		12	24.0	2.5	/experiments/AOT/AOT_stimuli/rescaled_final/1549_rv.mp4	0.0	150.82176995277405	0.10001802444458008
27	129.57393097877502	fix_pre	0		120	25.0	2.5	/experiments/AOT/AOT_stimuli/rescaled_final/0181_rv.mp4	0.0	150.92178797721863	1.0001108646392822
27	130.1574568748474	pulse	0	t		25.0	2.5	/experiments/AOT/AOT_stimuli/rescaled_final/0181_rv.mp4	0.0	151.50531387329102	
27	130.5740418434143	movie	1		246	25.0	2.5	/experiments/AOT/AOT_stimuli/rescaled_final/0181_rv.mp4	0.0	151.9218988418579	2.500249147415161
27	131.75769901275635	pulse	1	t		25.0	2.5	/experiments/AOT/AOT_stimuli/rescaled_final/0181_rv.mp4	0.0	153.10555601119995	
27	133.07429099082947	fix_post	2		12	25.0	2.5	/experiments/AOT/AOT_stimuli/rescaled_final/0181_rv.mp4	0.0	154.42214798927307	0.09999990463256836
28	133.17429089546204	fix_pre	0		120	26.0	2.5	/experiments/AOT/AOT_stimuli/rescaled_final/1475_rv.mp4	0.0	154.52214789390564	0.9999921321868896
28	133.35781598091125	pulse	0	t		26.0	2.5	/experiments/AOT/AOT_stimuli/rescaled_final/1475_rv.mp4	0.0	154.70567297935486	
28	134.17428302764893	movie	1		244	26.0	2.5	/experiments/AOT/AOT_stimuli/rescaled_final/1475_rv.mp4	0.0	155.52214002609253	2.499957799911499
28	134.9577398300171	pulse	1	t		26.0	2.5	/experiments/AOT/AOT_stimuli/rescaled_final/1475_rv.mp4	0.0	156.3055968284607	
28	136.55680799484253	pulse	1	t		26.0	2.5	/experiments/AOT/AOT_stimuli/rescaled_final/1475_rv.mp4	0.0	157.90466499328613	
28	136.67424082756042	fix_post	2		12	26.0	2.5	/experiments/AOT/AOT_stimuli/rescaled_final/1475_rv.mp4	0.0	158.02209782600403	0.1000211238861084
29	136.77426195144653	fix_pre	0		120	27.0	2.5	blank	1.0	158.12211894989014	0.9999210834503174
29	137.77418303489685	movie	1		300	27.0	2.5	blank	1.0	159.12204003334045	2.499997854232788
29	138.15765690803528	pulse	1	t		27.0	2.5	blank	1.0	159.50551390647888	
29	139.75770783424377	pulse	1	t		27.0	2.5	blank	1.0	161.10556483268738	
29	140.27418088912964	fix_post	2		12	27.0	2.5	blank	1.0	161.62203788757324	0.09996414184570312
30	140.37414503097534	fix_pre	0		119	28.0	2.5	/experiments/AOT/AOT_stimuli/rescaled_final/1929_fw.mp4	0.0	161.72200202941895	0.9916789531707764
30	141.3578360080719	pulse	0	t		28.0	2.5	/experiments/AOT/AOT_stimuli/rescaled_final/1929_fw.mp4	0.0	162.7056930065155	
30	141.36582398414612	movie	1		247	28.0	2.5	/experiments/AOT/AOT_stimuli/rescaled_final/1929_fw.mp4	0.0	162.71368098258972	2.508336067199707
30	142.9577648639679	pulse	1	t		28.0	2.5	/experiments/AOT/AOT_stimuli/rescaled_final/1929_fw.mp4	0.0	164.3056218624115	
30	143.87416005134583	fix_post	2		12	28.0	2.5	/experiments/AOT/AOT_stimuli/rescaled_final/1929_fw.mp4	0.0	165.22201704978943	0.1000218391418457
31	143.97418189048767	fix_pre	0		120	29.0	2.5	/experiments/AOT/AOT_stimuli/rescaled_final/1431_fw.mp4	0.0	165.32203888893127	1.0000770092010498
31	144.55768990516663	pulse	0	t		29.0	2.5	/experiments/AOT/AOT_stimuli/rescaled_final/1431_fw.mp4	0.0	165.90554690361023	
31	144.97425889968872	movie	1		245	29.0	2.5	/experiments/AOT/AOT_stimuli/rescaled_final/1431_fw.mp4	0.0	166.32211589813232	2.499891996383667
31	146.15778589248657	pulse	1	t		29.0	2.5	/experiments/AOT/AOT_stimuli/rescaled_final/1431_fw.mp4	0.0	167.50564289093018	
31	147.4741508960724	fix_post	2		12	29.0	2.5	/experiments/AOT/AOT_stimuli/rescaled_final/1431_fw.mp4	0.0	168.822007894516	0.10001301765441895
32	147.5741639137268	fix_pre	0		120	30.0	2.5	/experiments/AOT/AOT_stimuli/rescaled_final/2179_rv.mp4	0.0	168.9220209121704	1.0001311302185059
32	147.7572238445282	pulse	0	t		30.0	2.5	/experiments/AOT/AOT_stimuli/rescaled_final/2179_rv.mp4	0.0	169.1050808429718	
32	148.5742950439453	movie	1		243	30.0	2.5	/experiments/AOT/AOT_stimuli/rescaled_final/2179_rv.mp4	0.0	169.92215204238892	2.499764919281006
32	149.35768604278564	pulse	1	t		30.0	2.5	/experiments/AOT/AOT_stimuli/rescaled_final/2179_rv.mp4	0.0	170.70554304122925	
32	150.9566628932953	pulse	1	t		30.0	2.5	/experiments/AOT/AOT_stimuli/rescaled_final/2179_rv.mp4	0.0	172.3045198917389	
32	151.07405996322632	fix_post	2		12	30.0	2.5	/experiments/AOT/AOT_stimuli/rescaled_final/2179_rv.mp4	0.0	172.42191696166992	0.1001129150390625
33	151.17417287826538	fix_pre	0		120	31.0	2.5	/experiments/AOT/AOT_stimuli/rescaled_final/0085_rv.mp4	0.0	172.52202987670898	0.9999899864196777
33	152.17416286468506	movie	1		245	31.0	2.5	/experiments/AOT/AOT_stimuli/rescaled_final/0085_rv.mp4	0.0	173.52201986312866	2.4999749660491943
33	152.55741786956787	pulse	1	t		31.0	2.5	/experiments/AOT/AOT_stimuli/rescaled_final/0085_rv.mp4	0.0	173.90527486801147	
33	154.15766882896423	pulse	1	t		31.0	2.5	/experiments/AOT/AOT_stimuli/rescaled_final/0085_rv.mp4	0.0	175.50552582740784	
33	154.67413783073425	fix_post	2		12	31.0	2.5	/experiments/AOT/AOT_stimuli/rescaled_final/0085_rv.mp4	0.0	176.02199482917786	0.1000220775604248
34	154.77415990829468	fix_pre	0		119	32.0	2.5	/experiments/AOT/AOT_stimuli/rescaled_final/0921_fw.mp4	0.0	176.12201690673828	0.9916050434112549
34	155.75765895843506	pulse	0	t		32.0	2.5	/experiments/AOT/AOT_stimuli/rescaled_final/0921_fw.mp4	0.0	177.10551595687866	
34	155.76576495170593	movie	1		245	32.0	2.5	/experiments/AOT/AOT_stimuli/rescaled_final/0921_fw.mp4	0.0	177.11362195014954	2.508342981338501
34	157.3572700023651	pulse	1	t		32.0	2.5	/experiments/AOT/AOT_stimuli/rescaled_final/0921_fw.mp4	0.0	178.70512700080872	
34	158.27410793304443	fix_post	2		12	32.0	2.5	/experiments/AOT/AOT_stimuli/rescaled_final/0921_fw.mp4	0.0	179.62196493148804	0.10005998611450195
35	158.37416791915894	fix_pre	0		120	33.0	2.5	blank	1.0	179.72202491760254	0.9999659061431885
35	158.95765686035156	pulse	0	t		33.0	2.5	blank	1.0	180.30551385879517	
35	159.37413382530212	movie	1		300	33.0	2.5	blank	1.0	180.72199082374573	2.4996771812438965
35	160.55765891075134	pulse	1	t		33.0	2.5	blank	1.0	181.90551590919495	
35	161.87381100654602	fix_post	2		12	33.0	2.5	blank	1.0	183.22166800498962	0.10030102729797363
36	161.974112033844	fix_pre	0		120	34.0	2.5	/experiments/AOT/AOT_stimuli/rescaled_final/1373_fw.mp4	0.0	183.3219690322876	1.0000128746032715
36	162.15759587287903	pulse	0	t		34.0	2.5	/experiments/AOT/AOT_stimuli/rescaled_final/1373_fw.mp4	0.0	183.50545287132263	
36	162.97412490844727	movie	1		244	34.0	2.5	/experiments/AOT/AOT_stimuli/rescaled_final/1373_fw.mp4	0.0	184.32198190689087	2.500020980834961
36	163.7576048374176	pulse	1	t		34.0	2.5	/experiments/AOT/AOT_stimuli/rescaled_final/1373_fw.mp4	0.0	185.1054618358612	
36	165.35579681396484	pulse	1	t		34.0	2.5	/experiments/AOT/AOT_stimuli/rescaled_final/1373_fw.mp4	0.0	186.70365381240845	
36	165.47414588928223	fix_post	2		12	34.0	2.5	/experiments/AOT/AOT_stimuli/rescaled_final/1373_fw.mp4	0.0	186.82200288772583	0.09955596923828125
37	165.5737018585205	fix_pre	0		120	35.0	2.5	/experiments/AOT/AOT_stimuli/rescaled_final/1830_fw.mp4	0.0	186.9215588569641	1.000521183013916
37	166.57422304153442	movie	1		245	35.0	2.5	/experiments/AOT/AOT_stimuli/rescaled_final/1830_fw.mp4	0.0	187.92208003997803	2.49993896484375
37	166.95692682266235	pulse	1	t		35.0	2.5	/experiments/AOT/AOT_stimuli/rescaled_final/1830_fw.mp4	0.0	188.30478382110596	
37	168.5576000213623	pulse	1	t		35.0	2.5	/experiments/AOT/AOT_stimuli/rescaled_final/1830_fw.mp4	0.0	189.9054570198059	
37	169.07416200637817	fix_post	2		12	35.0	2.5	/experiments/AOT/AOT_stimuli/rescaled_final/1830_fw.mp4	0.0	190.42201900482178	0.1000208854675293
38	169.1741828918457	fix_pre	0		119	36.0	2.5	/experiments/AOT/AOT_stimuli/rescaled_final/1482_fw.mp4	0.0	190.5220398902893	0.9915361404418945
38	170.1576099395752	pulse	0	t		36.0	2.5	/experiments/AOT/AOT_stimuli/rescaled_final/1482_fw.mp4	0.0	191.5054669380188	
38	170.1657190322876	movie	1		245	36.0	2.5	/experiments/AOT/AOT_stimuli/rescaled_final/1482_fw.mp4	0.0	191.5135760307312	2.5083789825439453
38	171.7577679157257	pulse	1	t		36.0	2.5	/experiments/AOT/AOT_stimuli/rescaled_final/1482_fw.mp4	0.0	193.1056249141693	
38	172.67409801483154	fix_post	2		12	36.0	2.5	/experiments/AOT/AOT_stimuli/rescaled_final/1482_fw.mp4	0.0	194.02195501327515	0.09999489784240723
39	172.77409291267395	fix_pre	0		120	37.0	2.5	/experiments/AOT/AOT_stimuli/rescaled_final/1816_fw.mp4	0.0	194.12194991111755	0.9999990463256836
39	173.35756492614746	pulse	0	t		37.0	2.5	/experiments/AOT/AOT_stimuli/rescaled_final/1816_fw.mp4	0.0	194.70542192459106	
39	173.77409195899963	movie	1		244	37.0	2.5	/experiments/AOT/AOT_stimuli/rescaled_final/1816_fw.mp4	0.0	195.12194895744324	2.4999709129333496
39	174.9576609134674	pulse	1	t		37.0	2.5	/experiments/AOT/AOT_stimuli/rescaled_final/1816_fw.mp4	0.0	196.305517911911	
39	176.27406287193298	fix_post	2		12	37.0	2.5	/experiments/AOT/AOT_stimuli/rescaled_final/1816_fw.mp4	0.0	197.6219198703766	0.10005998611450195
40	176.37412285804749	fix_pre	0		120	38.0	2.5	/experiments/AOT/AOT_stimuli/rescaled_final/0218_rv.mp4	0.0	197.7219798564911	1.0000040531158447
40	176.55760383605957	pulse	0	t		38.0	2.5	/experiments/AOT/AOT_stimuli/rescaled_final/0218_rv.mp4	0.0	197.90546083450317	
40	177.37412691116333	movie	1		244	38.0	2.5	/experiments/AOT/AOT_stimuli/rescaled_final/0218_rv.mp4	0.0	198.72198390960693	2.4999070167541504
40	178.15749883651733	pulse	1	t		38.0	2.5	/experiments/AOT/AOT_stimuli/rescaled_final/0218_rv.mp4	0.0	199.50535583496094	
40	179.75603604316711	pulse	1	t		38.0	2.5	/experiments/AOT/AOT_stimuli/rescaled_final/0218_rv.mp4	0.0	201.10389304161072	
40	179.87403392791748	fix_post	2		12	38.0	2.5	/experiments/AOT/AOT_stimuli/rescaled_final/0218_rv.mp4	0.0	201.22189092636108	0.1000220775604248
41	179.9740560054779	fix_pre	0		120	39.0	2.5	/experiments/AOT/AOT_stimuli/rescaled_final/1638_fw.mp4	0.0	201.3219130039215	1.0000460147857666
41	180.97410202026367	movie	1		244	39.0	2.5	/experiments/AOT/AOT_stimuli/rescaled_final/1638_fw.mp4	0.0	202.32195901870728	2.4998979568481445
41	181.35713601112366	pulse	1	t		39.0	2.5	/experiments/AOT/AOT_stimuli/rescaled_final/1638_fw.mp4	0.0	202.70499300956726	
41	182.95764183998108	pulse	1	t		39.0	2.5	/experiments/AOT/AOT_stimuli/rescaled_final/1638_fw.mp4	0.0	204.30549883842468	
41	183.47399997711182	fix_post	2		12	39.0	2.5	/experiments/AOT/AOT_stimuli/rescaled_final/1638_fw.mp4	0.0	204.82185697555542	0.10002899169921875
42	183.57402896881104	fix_pre	0		119	40.0	2.5	/experiments/AOT/AOT_stimuli/rescaled_final/0007_fw.mp4	0.0	204.92188596725464	0.9916069507598877
42	184.55714082717896	pulse	0	t		40.0	2.5	/experiments/AOT/AOT_stimuli/rescaled_final/0007_fw.mp4	0.0	205.90499782562256	
42	184.56563591957092	movie	1		246	40.0	2.5	/experiments/AOT/AOT_stimuli/rescaled_final/0007_fw.mp4	0.0	205.91349291801453	2.5082449913024902
42	186.15719485282898	pulse	1	t		40.0	2.5	/experiments/AOT/AOT_stimuli/rescaled_final/0007_fw.mp4	0.0	207.50505185127258	
42	187.0738809108734	fix_post	2		12	40.0	2.5	/experiments/AOT/AOT_stimuli/rescaled_final/0007_fw.mp4	0.0	208.42173790931702	0.10003399848937988
43	187.1739149093628	fix_pre	0		120	41.0	2.5	blank	1.0	208.5217719078064	1.0000710487365723
43	187.7574360370636	pulse	0	t		41.0	2.5	blank	1.0	209.1052930355072	
43	188.17398595809937	movie	1		300	41.0	2.5	blank	1.0	209.52184295654297	2.500002861022949
43	189.3574709892273	pulse	1	t		41.0	2.5	blank	1.0	210.7053279876709	
43	190.67398881912231	fix_post	2		12	41.0	2.5	blank	1.0	212.02184581756592	0.09993815422058105
44	190.7739269733429	fix_pre	0		120	42.0	2.5	/experiments/AOT/AOT_stimuli/rescaled_final/0696_fw.mp4	0.0	212.1217839717865	1.0001130104064941
44	190.95741391181946	pulse	0	t		42.0	2.5	/experiments/AOT/AOT_stimuli/rescaled_final/0696_fw.mp4	0.0	212.30527091026306	
44	191.7740399837494	movie	1		243	42.0	2.5	/experiments/AOT/AOT_stimuli/rescaled_final/0696_fw.mp4	0.0	213.121896982193	2.4998459815979004
44	192.55734086036682	pulse	1	t		42.0	2.5	/experiments/AOT/AOT_stimuli/rescaled_final/0696_fw.mp4	0.0	213.90519785881042	
44	194.15588283538818	pulse	1	t		42.0	2.5	/experiments/AOT/AOT_stimuli/rescaled_final/0696_fw.mp4	0.0	215.5037398338318	
44	194.2738859653473	fix_post	2		12	42.0	2.5	/experiments/AOT/AOT_stimuli/rescaled_final/0696_fw.mp4	0.0	215.6217429637909	0.10013389587402344
45	194.3740198612213	fix_pre	0		120	43.0	2.5	/experiments/AOT/AOT_stimuli/rescaled_final/1006_fw.mp4	0.0	215.72187685966492	0.9999079704284668
45	195.37392783164978	movie	1		244	43.0	2.5	/experiments/AOT/AOT_stimuli/rescaled_final/1006_fw.mp4	0.0	216.72178483009338	2.5000221729278564
45	195.75709199905396	pulse	1	t		43.0	2.5	/experiments/AOT/AOT_stimuli/rescaled_final/1006_fw.mp4	0.0	217.10494899749756	
45	197.3573648929596	pulse	1	t		43.0	2.5	/experiments/AOT/AOT_stimuli/rescaled_final/1006_fw.mp4	0.0	218.7052218914032	
45	197.87395000457764	fix_post	2		12	43.0	2.5	/experiments/AOT/AOT_stimuli/rescaled_final/1006_fw.mp4	0.0	219.22180700302124	0.10000300407409668
46	197.97395300865173	fix_pre	0		119	44.0	2.5	/experiments/AOT/AOT_stimuli/rescaled_final/0985_fw.mp4	0.0	219.32181000709534	0.9916508197784424
46	198.9574089050293	pulse	0	t		44.0	2.5	/experiments/AOT/AOT_stimuli/rescaled_final/0985_fw.mp4	0.0	220.3052659034729	
46	198.96560382843018	movie	1		245	44.0	2.5	/experiments/AOT/AOT_stimuli/rescaled_final/0985_fw.mp4	0.0	220.31346082687378	2.508324146270752
46	200.5575499534607	pulse	1	t		44.0	2.5	/experiments/AOT/AOT_stimuli/rescaled_final/0985_fw.mp4	0.0	221.9054069519043	
46	201.47392797470093	fix_post	2		12	44.0	2.5	/experiments/AOT/AOT_stimuli/rescaled_final/0985_fw.mp4	0.0	222.82178497314453	0.10000801086425781
47	201.57393598556519	fix_pre	0		120	45.0	2.5	/experiments/AOT/AOT_stimuli/rescaled_final/1088_fw.mp4	0.0	222.9217929840088	0.9999558925628662
47	202.15746903419495	pulse	0	t		45.0	2.5	/experiments/AOT/AOT_stimuli/rescaled_final/1088_fw.mp4	0.0	223.50532603263855	
47	202.57389187812805	movie	1		245	45.0	2.5	/experiments/AOT/AOT_stimuli/rescaled_final/1088_fw.mp4	0.0	223.92174887657166	2.499627113342285
47	203.75749897956848	pulse	1	t		45.0	2.5	/experiments/AOT/AOT_stimuli/rescaled_final/1088_fw.mp4	0.0	225.10535597801208	
47	205.07351899147034	fix_post	2		12	45.0	2.5	/experiments/AOT/AOT_stimuli/rescaled_final/1088_fw.mp4	0.0	226.42137598991394	0.10039401054382324
48	205.17391300201416	fix_pre	0		120	46.0	2.5	/experiments/AOT/AOT_stimuli/rescaled_final/1719_fw.mp4	0.0	226.52177000045776	0.9999768733978271
48	205.35741782188416	pulse	0	t		46.0	2.5	/experiments/AOT/AOT_stimuli/rescaled_final/1719_fw.mp4	0.0	226.70527482032776	
48	206.173889875412	movie	1		244	46.0	2.5	/experiments/AOT/AOT_stimuli/rescaled_final/1719_fw.mp4	0.0	227.5217468738556	2.4999990463256836
48	206.9574978351593	pulse	1	t		46.0	2.5	/experiments/AOT/AOT_stimuli/rescaled_final/1719_fw.mp4	0.0	228.3053548336029	
48	208.5560519695282	pulse	1	t		46.0	2.5	/experiments/AOT/AOT_stimuli/rescaled_final/1719_fw.mp4	0.0	229.9039089679718	
48	208.67388892173767	fix_post	2		12	46.0	2.5	/experiments/AOT/AOT_stimuli/rescaled_final/1719_fw.mp4	0.0	230.02174592018127	0.10003805160522461
49	208.7739269733429	fix_pre	0		120	47.0	2.5	/experiments/AOT/AOT_stimuli/rescaled_final/0435_fw.mp4	0.0	230.1217839717865	0.9999520778656006
49	209.7738790512085	movie	1		246	47.0	2.5	/experiments/AOT/AOT_stimuli/rescaled_final/0435_fw.mp4	0.0	231.1217360496521	2.5000228881835938
49	210.15752696990967	pulse	1	t		47.0	2.5	/experiments/AOT/AOT_stimuli/rescaled_final/0435_fw.mp4	0.0	231.50538396835327	
49	211.7574269771576	pulse	1	t		47.0	2.5	/experiments/AOT/AOT_stimuli/rescaled_final/0435_fw.mp4	0.0	233.1052839756012	
49	212.2739019393921	fix_post	2		12	47.0	2.5	/experiments/AOT/AOT_stimuli/rescaled_final/0435_fw.mp4	0.0	233.6217589378357	0.0999000072479248
50	212.37380194664001	fix_pre	0		119	48.0	2.5	blank	1.0	233.72165894508362	0.9917449951171875
50	213.35737299919128	pulse	0	t		48.0	2.5	blank	1.0	234.7052299976349	
50	213.3655469417572	movie	1		301	48.0	2.5	blank	1.0	234.7134039402008	2.508310079574585
50	214.95732402801514	pulse	1	t		48.0	2.5	blank	1.0	236.30518102645874	
50	215.8738570213318	fix_post	2		12	48.0	2.5	blank	1.0	237.2217140197754	0.10002589225769043
51	215.97388291358948	fix_pre	0		120	49.0	2.5	/experiments/AOT/AOT_stimuli/rescaled_final/1540_fw.mp4	0.0	237.32173991203308	0.9999411106109619
51	216.55735683441162	pulse	0	t		49.0	2.5	/experiments/AOT/AOT_stimuli/rescaled_final/1540_fw.mp4	0.0	237.90521383285522	
51	216.97382402420044	movie	1		244	49.0	2.5	/experiments/AOT/AOT_stimuli/rescaled_final/1540_fw.mp4	0.0	238.32168102264404	2.5000438690185547
51	218.15739583969116	pulse	1	t		49.0	2.5	/experiments/AOT/AOT_stimuli/rescaled_final/1540_fw.mp4	0.0	239.50525283813477	
51	219.473867893219	fix_post	2		12	49.0	2.5	/experiments/AOT/AOT_stimuli/rescaled_final/1540_fw.mp4	0.0	240.8217248916626	0.10003399848937988
52	219.57390189170837	fix_pre	0		120	50.0	2.5	/experiments/AOT/AOT_stimuli/rescaled_final/2051_fw.mp4	0.0	240.92175889015198	0.9999580383300781
52	219.7572569847107	pulse	0	t		50.0	2.5	/experiments/AOT/AOT_stimuli/rescaled_final/2051_fw.mp4	0.0	241.1051139831543	
52	220.57385993003845	movie	1		243	50.0	2.5	/experiments/AOT/AOT_stimuli/rescaled_final/2051_fw.mp4	0.0	241.92171692848206	2.5000081062316895
52	221.3573398590088	pulse	1	t		50.0	2.5	/experiments/AOT/AOT_stimuli/rescaled_final/2051_fw.mp4	0.0	242.7051968574524	
52	222.95570492744446	pulse	1	t		50.0	2.5	/experiments/AOT/AOT_stimuli/rescaled_final/2051_fw.mp4	0.0	244.30356192588806	
52	223.07386803627014	fix_post	2		12	50.0	2.5	/experiments/AOT/AOT_stimuli/rescaled_final/2051_fw.mp4	0.0	244.42172503471375	0.09992289543151855
53	223.17379093170166	fix_pre	0		120	51.0	2.5	/experiments/AOT/AOT_stimuli/rescaled_final/1870_fw.mp4	0.0	244.52164793014526	1.0000410079956055
53	224.17383193969727	movie	1		243	51.0	2.5	/experiments/AOT/AOT_stimuli/rescaled_final/1870_fw.mp4	0.0	245.52168893814087	2.4999120235443115
53	224.55699586868286	pulse	1	t		51.0	2.5	/experiments/AOT/AOT_stimuli/rescaled_final/1870_fw.mp4	0.0	245.90485286712646	
53	226.15725183486938	pulse	1	t		51.0	2.5	/experiments/AOT/AOT_stimuli/rescaled_final/1870_fw.mp4	0.0	247.505108833313	
53	226.67374396324158	fix_post	2		12	51.0	2.5	/experiments/AOT/AOT_stimuli/rescaled_final/1870_fw.mp4	0.0	248.02160096168518	0.09999895095825195
54	226.77374291419983	fix_pre	0		119	52.0	2.5	/experiments/AOT/AOT_stimuli/rescaled_final/1897_rv.mp4	0.0	248.12159991264343	0.9917709827423096
54	227.7572660446167	pulse	0	t		52.0	2.5	/experiments/AOT/AOT_stimuli/rescaled_final/1897_rv.mp4	0.0	249.1051230430603	
54	227.76551389694214	movie	1		251	52.0	2.5	/experiments/AOT/AOT_stimuli/rescaled_final/1897_rv.mp4	0.0	249.11337089538574	2.5079100131988525
54	229.3569769859314	pulse	1	t		52.0	2.5	/experiments/AOT/AOT_stimuli/rescaled_final/1897_rv.mp4	0.0	250.704833984375	
54	230.273423910141	fix_post	2		12	52.0	2.5	/experiments/AOT/AOT_stimuli/rescaled_final/1897_rv.mp4	0.0	251.6212809085846	0.10038208961486816
55	230.37380599975586	fix_pre	0		120	53.0	2.5	/experiments/AOT/AOT_stimuli/rescaled_final/0777_rv.mp4	0.0	251.72166299819946	1.0000028610229492
55	230.9573199748993	pulse	0	t		53.0	2.5	/experiments/AOT/AOT_stimuli/rescaled_final/0777_rv.mp4	0.0	252.3051769733429	
55	231.3738088607788	movie	1		245	53.0	2.5	/experiments/AOT/AOT_stimuli/rescaled_final/0777_rv.mp4	0.0	252.7216658592224	2.4999001026153564
55	232.55731892585754	pulse	1	t		53.0	2.5	/experiments/AOT/AOT_stimuli/rescaled_final/0777_rv.mp4	0.0	253.90517592430115	
55	233.87370896339417	fix_post	2		12	53.0	2.5	/experiments/AOT/AOT_stimuli/rescaled_final/0777_rv.mp4	0.0	255.22156596183777	0.10001897811889648
56	233.97372794151306	fix_pre	0		120	54.0	2.5	/experiments/AOT/AOT_stimuli/rescaled_final/0921_rv.mp4	0.0	255.32158493995667	0.9999749660491943
56	234.15728497505188	pulse	0	t		54.0	2.5	/experiments/AOT/AOT_stimuli/rescaled_final/0921_rv.mp4	0.0	255.50514197349548	
56	234.97370290756226	movie	1		245	54.0	2.5	/experiments/AOT/AOT_stimuli/rescaled_final/0921_rv.mp4	0.0	256.32155990600586	2.500054121017456
56	235.7572100162506	pulse	1	t		54.0	2.5	/experiments/AOT/AOT_stimuli/rescaled_final/0921_rv.mp4	0.0	257.1050670146942	
56	237.3532679080963	pulse	1	t		54.0	2.5	/experiments/AOT/AOT_stimuli/rescaled_final/0921_rv.mp4	0.0	258.7011249065399	
56	237.4737570285797	fix_post	2		12	54.0	2.5	/experiments/AOT/AOT_stimuli/rescaled_final/0921_rv.mp4	0.0	258.8216140270233	0.09991192817687988
57	237.5736689567566	fix_pre	0		120	55.0	2.5	/experiments/AOT/AOT_stimuli/rescaled_final/1416_rv.mp4	0.0	258.9215259552002	1.0001940727233887
57	238.57386302947998	movie	1		247	55.0	2.5	/experiments/AOT/AOT_stimuli/rescaled_final/1416_rv.mp4	0.0	259.9217200279236	2.499525785446167
57	238.9582760334015	pulse	1	t		55.0	2.5	/experiments/AOT/AOT_stimuli/rescaled_final/1416_rv.mp4	0.0	260.3061330318451	
57	240.55674386024475	pulse	1	t		55.0	2.5	/experiments/AOT/AOT_stimuli/rescaled_final/1416_rv.mp4	0.0	261.90460085868835	
57	241.07338881492615	fix_post	2		12	55.0	2.5	/experiments/AOT/AOT_stimuli/rescaled_final/1416_rv.mp4	0.0	262.42124581336975	0.10042715072631836
58	241.17381596565247	fix_pre	0		119	56.0	2.5	blank	1.0	262.52167296409607	0.9917409420013428
58	242.1573770046234	pulse	0	t		56.0	2.5	blank	1.0	263.505234003067	
58	242.1655569076538	movie	1		301	56.0	2.5	blank	1.0	263.5134139060974	2.508213996887207
58	243.7572739124298	pulse	1	t		56.0	2.5	blank	1.0	265.1051309108734	
58	244.67377090454102	fix_post	2		12	56.0	2.5	blank	1.0	266.0216279029846	0.0999751091003418
59	244.77374601364136	fix_pre	0		120	57.0	2.5	/experiments/AOT/AOT_stimuli/rescaled_final/0302_fw.mp4	0.0	266.12160301208496	1.0000529289245605
59	245.35722398757935	pulse	0	t		57.0	2.5	/experiments/AOT/AOT_stimuli/rescaled_final/0302_fw.mp4	0.0	266.70508098602295	
59	245.77379894256592	movie	1		243	57.0	2.5	/experiments/AOT/AOT_stimuli/rescaled_final/0302_fw.mp4	0.0	267.1216559410095	2.499967098236084
59	246.95723390579224	pulse	1	t		57.0	2.5	/experiments/AOT/AOT_stimuli/rescaled_final/0302_fw.mp4	0.0	268.30509090423584	
59	248.273766040802	fix_post	2		12	57.0	2.5	/experiments/AOT/AOT_stimuli/rescaled_final/0302_fw.mp4	0.0	269.6216230392456	0.09991192817687988
60	248.37367796897888	fix_pre	0		120	58.0	2.5	/experiments/AOT/AOT_stimuli/rescaled_final/1638_rv.mp4	0.0	269.7215349674225	1.000040054321289
60	248.55722784996033	pulse	0	t		58.0	2.5	/experiments/AOT/AOT_stimuli/rescaled_final/1638_rv.mp4	0.0	269.90508484840393	
60	249.37371802330017	movie	1		245	58.0	2.5	/experiments/AOT/AOT_stimuli/rescaled_final/1638_rv.mp4	0.0	270.7215750217438	2.4999380111694336
60	250.1571969985962	pulse	1	t		58.0	2.5	/experiments/AOT/AOT_stimuli/rescaled_final/1638_rv.mp4	0.0	271.5050539970398	
60	251.75576281547546	pulse	1	t		58.0	2.5	/experiments/AOT/AOT_stimuli/rescaled_final/1638_rv.mp4	0.0	273.10361981391907	
60	251.8736560344696	fix_post	2		12	58.0	2.5	/experiments/AOT/AOT_stimuli/rescaled_final/1638_rv.mp4	0.0	273.2215130329132	0.10003280639648438
61	251.9736888408661	fix_pre	0		120	59.0	2.5	/experiments/AOT/AOT_stimuli/rescaled_final/1449_fw.mp4	0.0	273.3215458393097	0.9999639987945557
61	252.97365283966064	movie	1		247	59.0	2.5	/experiments/AOT/AOT_stimuli/rescaled_final/1449_fw.mp4	0.0	274.32150983810425	2.5000569820404053
61	253.35680484771729	pulse	1	t		59.0	2.5	/experiments/AOT/AOT_stimuli/rescaled_final/1449_fw.mp4	0.0	274.7046618461609	
61	254.9571259021759	pulse	1	t		59.0	2.5	/experiments/AOT/AOT_stimuli/rescaled_final/1449_fw.mp4	0.0	276.3049829006195	
61	255.47370982170105	fix_post	2		12	59.0	2.5	/experiments/AOT/AOT_stimuli/rescaled_final/1449_fw.mp4	0.0	276.82156682014465	0.09992408752441406
62	255.57363390922546	fix_pre	0		119	60.0	2.5	/experiments/AOT/AOT_stimuli/rescaled_final/1431_rv.mp4	0.0	276.92149090766907	0.991703987121582
62	256.5572018623352	pulse	0	t		60.0	2.5	/experiments/AOT/AOT_stimuli/rescaled_final/1431_rv.mp4	0.0	277.9050588607788	
62	256.56533789634705	movie	1		247	60.0	2.5	/experiments/AOT/AOT_stimuli/rescaled_final/1431_rv.mp4	0.0	277.91319489479065	2.508263111114502
62	258.1566879749298	pulse	1	t		60.0	2.5	/experiments/AOT/AOT_stimuli/rescaled_final/1431_rv.mp4	0.0	279.5045449733734	
62	259.07360100746155	fix_post	2		12	60.0	2.5	/experiments/AOT/AOT_stimuli/rescaled_final/1431_rv.mp4	0.0	280.42145800590515	0.10002803802490234
63	259.17362904548645	fix_pre	0		120	61.0	2.5	blank	1.0	280.52148604393005	0.99997878074646
63	259.75710701942444	pulse	0	t		61.0	2.5	blank	1.0	281.10496401786804	
63	260.1736078262329	movie	1		300	61.0	2.5	blank	1.0	281.5214648246765	2.5000100135803223
63	261.3571410179138	pulse	1	t		61.0	2.5	blank	1.0	282.7049980163574	
63	262.67361783981323	fix_post	2		12	61.0	2.5	blank	1.0	284.02147483825684	0.09992408752441406
64	262.77354192733765	fix_pre	0		120	62.0	2.5	/experiments/AOT/AOT_stimuli/rescaled_final/0530_rv.mp4	0.0	284.12139892578125	0.9996659755706787
64	262.95705795288086	pulse	0	t		62.0	2.5	/experiments/AOT/AOT_stimuli/rescaled_final/0530_rv.mp4	0.0	284.30491495132446	
64	263.7732079029083	movie	1		243	62.0	2.5	/experiments/AOT/AOT_stimuli/rescaled_final/0530_rv.mp4	0.0	285.12106490135193	2.5004401206970215
64	264.557119846344	pulse	1	t		62.0	2.5	/experiments/AOT/AOT_stimuli/rescaled_final/0530_rv.mp4	0.0	285.9049768447876	
64	266.1553168296814	pulse	1	t		62.0	2.5	/experiments/AOT/AOT_stimuli/rescaled_final/0530_rv.mp4	0.0	287.503173828125	
64	266.27364802360535	fix_post	2		12	62.0	2.5	/experiments/AOT/AOT_stimuli/rescaled_final/0530_rv.mp4	0.0	287.62150502204895	0.10001492500305176
65	266.3736629486084	fix_pre	0		120	63.0	2.5	/experiments/AOT/AOT_stimuli/rescaled_final/0281_rv.mp4	0.0	287.721519947052	0.9999599456787109
65	267.3736228942871	movie	1		244	63.0	2.5	/experiments/AOT/AOT_stimuli/rescaled_final/0281_rv.mp4	0.0	288.7214798927307	2.5000059604644775
65	267.75873589515686	pulse	1	t		63.0	2.5	/experiments/AOT/AOT_stimuli/rescaled_final/0281_rv.mp4	0.0	289.10659289360046	
65	269.3571128845215	pulse	1	t		63.0	2.5	/experiments/AOT/AOT_stimuli/rescaled_final/0281_rv.mp4	0.0	290.7049698829651	
65	269.8736288547516	fix_post	2		12	63.0	2.5	/experiments/AOT/AOT_stimuli/rescaled_final/0281_rv.mp4	0.0	291.2214858531952	0.10001015663146973
66	269.97363901138306	fix_pre	0		119	64.0	2.5	/experiments/AOT/AOT_stimuli/rescaled_final/2015_rv.mp4	0.0	291.32149600982666	0.9915099143981934
66	270.95716094970703	pulse	0	t		64.0	2.5	/experiments/AOT/AOT_stimuli/rescaled_final/2015_rv.mp4	0.0	292.30501794815063	
66	270.96514892578125	movie	1		246	64.0	2.5	/experiments/AOT/AOT_stimuli/rescaled_final/2015_rv.mp4	0.0	292.31300592422485	2.5086300373077393
66	272.55655694007874	pulse	1	t		64.0	2.5	/experiments/AOT/AOT_stimuli/rescaled_final/2015_rv.mp4	0.0	293.90441393852234	
66	273.473778963089	fix_post	2		12	64.0	2.5	/experiments/AOT/AOT_stimuli/rescaled_final/2015_rv.mp4	0.0	294.8216359615326	0.09977602958679199
67	273.5735549926758	fix_pre	0		120	65.0	2.5	/experiments/AOT/AOT_stimuli/rescaled_final/1233_fw.mp4	0.0	294.9214119911194	1.0000088214874268
67	274.1570930480957	pulse	0	t		65.0	2.5	/experiments/AOT/AOT_stimuli/rescaled_final/1233_fw.mp4	0.0	295.5049500465393	
67	274.5735638141632	movie	1		244	65.0	2.5	/experiments/AOT/AOT_stimuli/rescaled_final/1233_fw.mp4	0.0	295.9214208126068	2.500028133392334
67	275.75720381736755	pulse	1	t		65.0	2.5	/experiments/AOT/AOT_stimuli/rescaled_final/1233_fw.mp4	0.0	297.10506081581116	
67	277.07359194755554	fix_post	2		12	65.0	2.5	/experiments/AOT/AOT_stimuli/rescaled_final/1233_fw.mp4	0.0	298.42144894599915	0.10006308555603027
68	277.1736550331116	fix_pre	0		120	66.0	2.5	/experiments/AOT/AOT_stimuli/rescaled_final/0764_rv.mp4	0.0	298.5215120315552	0.9999358654022217
68	277.3571300506592	pulse	0	t		66.0	2.5	/experiments/AOT/AOT_stimuli/rescaled_final/0764_rv.mp4	0.0	298.7049870491028	
68	278.1735908985138	movie	1		247	66.0	2.5	/experiments/AOT/AOT_stimuli/rescaled_final/0764_rv.mp4	0.0	299.5214478969574	2.499980926513672
68	278.9570999145508	pulse	1	t		66.0	2.5	/experiments/AOT/AOT_stimuli/rescaled_final/0764_rv.mp4	0.0	300.3049569129944	
68	280.553249835968	pulse	1	t		66.0	2.5	/experiments/AOT/AOT_stimuli/rescaled_final/0764_rv.mp4	0.0	301.9011068344116	
68	280.67357182502747	fix_post	2		12	66.0	2.5	/experiments/AOT/AOT_stimuli/rescaled_final/0764_rv.mp4	0.0	302.02142882347107	0.09996914863586426
69	280.77354097366333	fix_pre	0		120	67.0	2.5	/experiments/AOT/AOT_stimuli/rescaled_final/1113_fw.mp4	0.0	302.12139797210693	1.0000789165496826
69	281.773619890213	movie	1		243	67.0	2.5	/experiments/AOT/AOT_stimuli/rescaled_final/1113_fw.mp4	0.0	303.1214768886566	2.4995310306549072
69	282.15666699409485	pulse	1	t		67.0	2.5	/experiments/AOT/AOT_stimuli/rescaled_final/1113_fw.mp4	0.0	303.50452399253845	
69	283.7571048736572	pulse	1	t		67.0	2.5	/experiments/AOT/AOT_stimuli/rescaled_final/1113_fw.mp4	0.0	305.10496187210083	
69	284.2731509208679	fix_post	2		12	67.0	2.5	/experiments/AOT/AOT_stimuli/rescaled_final/1113_fw.mp4	0.0	305.6210079193115	0.10040712356567383
70	284.3735580444336	fix_pre	0		119	68.0	2.5	/experiments/AOT/AOT_stimuli/rescaled_final/0529_rv.mp4	0.0	305.7214150428772	0.9916789531707764
70	285.3570559024811	pulse	0	t		68.0	2.5	/experiments/AOT/AOT_stimuli/rescaled_final/0529_rv.mp4	0.0	306.7049129009247	
70	285.36523699760437	movie	1		246	68.0	2.5	/experiments/AOT/AOT_stimuli/rescaled_final/0529_rv.mp4	0.0	306.713093996048	2.5082828998565674
70	286.9566240310669	pulse	1	t		68.0	2.5	/experiments/AOT/AOT_stimuli/rescaled_final/0529_rv.mp4	0.0	308.3044810295105	
70	287.87351989746094	fix_post	2		12	68.0	2.5	/experiments/AOT/AOT_stimuli/rescaled_final/0529_rv.mp4	0.0	309.22137689590454	0.10003113746643066
71	287.97355103492737	fix_pre	0		120	69.0	2.5	/experiments/AOT/AOT_stimuli/rescaled_final/0035_fw.mp4	0.0	309.321408033371	0.9999229907989502
71	288.5570180416107	pulse	0	t		69.0	2.5	/experiments/AOT/AOT_stimuli/rescaled_final/0035_fw.mp4	0.0	309.9048750400543	
71	288.9734740257263	movie	1		244	69.0	2.5	/experiments/AOT/AOT_stimuli/rescaled_final/0035_fw.mp4	0.0	310.3213310241699	2.4997010231018066
71	290.15718603134155	pulse	1	t		69.0	2.5	/experiments/AOT/AOT_stimuli/rescaled_final/0035_fw.mp4	0.0	311.50504302978516	
71	291.4731750488281	fix_post	2		12	69.0	2.5	/experiments/AOT/AOT_stimuli/rescaled_final/0035_fw.mp4	0.0	312.82103204727173	0.10022497177124023
72	291.57340002059937	fix_pre	0		120	70.0	2.5	blank	1.0	312.92125701904297	1.0001318454742432
72	291.7570049762726	pulse	0	t		70.0	2.5	blank	1.0	313.1048619747162	
72	292.5735318660736	movie	1		300	70.0	2.5	blank	1.0	313.9213888645172	2.4999020099639893
72	293.35699582099915	pulse	1	t		70.0	2.5	blank	1.0	314.70485281944275	
72	294.95708990097046	pulse	1	t		70.0	2.5	blank	1.0	316.30494689941406	
72	295.0734338760376	fix_post	2		12	70.0	2.5	blank	1.0	316.4212908744812	0.09972000122070312
73	295.1731538772583	fix_pre	0		120	71.0	2.5	/experiments/AOT/AOT_stimuli/rescaled_final/2155_fw.mp4	0.0	316.5210108757019	0.9999151229858398
73	296.17306900024414	movie	1		245	71.0	2.5	/experiments/AOT/AOT_stimuli/rescaled_final/2155_fw.mp4	0.0	317.52092599868774	2.5002658367156982
73	296.55600690841675	pulse	1	t		71.0	2.5	/experiments/AOT/AOT_stimuli/rescaled_final/2155_fw.mp4	0.0	317.90386390686035	
73	298.1570930480957	pulse	1	t		71.0	2.5	/experiments/AOT/AOT_stimuli/rescaled_final/2155_fw.mp4	0.0	319.5049500465393	
73	298.67333483695984	fix_post	2		12	71.0	2.5	/experiments/AOT/AOT_stimuli/rescaled_final/2155_fw.mp4	0.0	320.02119183540344	0.10038614273071289
74	298.77372097969055	fix_pre	0		119	72.0	2.5	/experiments/AOT/AOT_stimuli/rescaled_final/2040_rv.mp4	0.0	320.12157797813416	0.991386890411377
74	299.7570719718933	pulse	0	t		72.0	2.5	/experiments/AOT/AOT_stimuli/rescaled_final/2040_rv.mp4	0.0	321.1049289703369	
74	299.76510787010193	movie	1		250	72.0	2.5	/experiments/AOT/AOT_stimuli/rescaled_final/2040_rv.mp4	0.0	321.11296486854553	2.5083301067352295
74	301.35667395591736	pulse	1	t		72.0	2.5	/experiments/AOT/AOT_stimuli/rescaled_final/2040_rv.mp4	0.0	322.70453095436096	
74	302.27343797683716	fix_post	2		12	72.0	2.5	/experiments/AOT/AOT_stimuli/rescaled_final/2040_rv.mp4	0.0	323.62129497528076	0.10004806518554688
75	302.3734860420227	fix_pre	0		120	73.0	2.5	/experiments/AOT/AOT_stimuli/rescaled_final/0941_rv.mp4	0.0	323.7213430404663	0.9999339580535889
75	302.95695090293884	pulse	0	t		73.0	2.5	/experiments/AOT/AOT_stimuli/rescaled_final/0941_rv.mp4	0.0	324.30480790138245	
75	303.3734200000763	movie	1		246	73.0	2.5	/experiments/AOT/AOT_stimuli/rescaled_final/0941_rv.mp4	0.0	324.7212769985199	2.499574899673462
75	304.55696201324463	pulse	1	t		73.0	2.5	/experiments/AOT/AOT_stimuli/rescaled_final/0941_rv.mp4	0.0	325.90481901168823	
75	305.87299489974976	fix_post	2		12	73.0	2.5	/experiments/AOT/AOT_stimuli/rescaled_final/0941_rv.mp4	0.0	327.22085189819336	0.10043597221374512
76	305.9734308719635	fix_pre	0		120	74.0	2.5	/experiments/AOT/AOT_stimuli/rescaled_final/1012_rv.mp4	0.0	327.3212878704071	0.9999511241912842
76	306.15685391426086	pulse	0	t		74.0	2.5	/experiments/AOT/AOT_stimuli/rescaled_final/1012_rv.mp4	0.0	327.50471091270447	
76	306.9733819961548	movie	1		243	74.0	2.5	/experiments/AOT/AOT_stimuli/rescaled_final/1012_rv.mp4	0.0	328.3212389945984	2.499552011489868
76	307.75690484046936	pulse	1	t		74.0	2.5	/experiments/AOT/AOT_stimuli/rescaled_final/1012_rv.mp4	0.0	329.10476183891296	
76	309.35517287254333	pulse	1	t		74.0	2.5	/experiments/AOT/AOT_stimuli/rescaled_final/1012_rv.mp4	0.0	330.70302987098694	
76	309.47293400764465	fix_post	2		12	74.0	2.5	/experiments/AOT/AOT_stimuli/rescaled_final/1012_rv.mp4	0.0	330.82079100608826	0.10044693946838379
77	309.57338094711304	fix_pre	0		120	75.0	2.5	/experiments/AOT/AOT_stimuli/rescaled_final/0973_rv.mp4	0.0	330.92123794555664	1.0000169277191162
77	310.57339787483215	movie	1		245	75.0	2.5	/experiments/AOT/AOT_stimuli/rescaled_final/0973_rv.mp4	0.0	331.92125487327576	2.500117063522339
77	310.9563698768616	pulse	1	t		75.0	2.5	/experiments/AOT/AOT_stimuli/rescaled_final/0973_rv.mp4	0.0	332.3042268753052	
77	312.5568768978119	pulse	1	t		75.0	2.5	/experiments/AOT/AOT_stimuli/rescaled_final/0973_rv.mp4	0.0	333.9047338962555	
77	313.0735149383545	fix_post	2		12	75.0	2.5	/experiments/AOT/AOT_stimuli/rescaled_final/0973_rv.mp4	0.0	334.4213719367981	0.09978508949279785
78	313.1733000278473	fix_pre	0		119	76.0	2.5	blank	1.0	334.5211570262909	0.9917378425598145
78	314.1571090221405	pulse	0	t		76.0	2.5	blank	1.0	335.5049660205841	
78	314.1650378704071	movie	1		301	76.0	2.5	blank	1.0	335.5128948688507	2.5082740783691406
78	315.7569098472595	pulse	1	t		76.0	2.5	blank	1.0	337.1047668457031	
78	316.67331194877625	fix_post	2		12	76.0	2.5	blank	1.0	338.02116894721985	0.10002303123474121
79	316.773334980011	fix_pre	0		120	77.0	2.5	/experiments/AOT/AOT_stimuli/rescaled_final/0483_rv.mp4	0.0	338.1211919784546	1.000082015991211
79	317.3568580150604	pulse	0	t		77.0	2.5	/experiments/AOT/AOT_stimuli/rescaled_final/0483_rv.mp4	0.0	338.704715013504	
79	317.7734169960022	movie	1		246	77.0	2.5	/experiments/AOT/AOT_stimuli/rescaled_final/0483_rv.mp4	0.0	339.1212739944458	2.499948024749756
79	318.9570209980011	pulse	1	t		77.0	2.5	/experiments/AOT/AOT_stimuli/rescaled_final/0483_rv.mp4	0.0	340.3048779964447	
79	320.27336502075195	fix_post	2		12	77.0	2.5	/experiments/AOT/AOT_stimuli/rescaled_final/0483_rv.mp4	0.0	341.62122201919556	0.09993195533752441
80	320.3732969760895	fix_pre	0		120	78.0	2.5	/experiments/AOT/AOT_stimuli/rescaled_final/1642_fw.mp4	0.0	341.7211539745331	0.999614953994751
80	320.55674982070923	pulse	0	t		78.0	2.5	/experiments/AOT/AOT_stimuli/rescaled_final/1642_fw.mp4	0.0	341.90460681915283	
80	321.37291193008423	movie	1		248	78.0	2.5	/experiments/AOT/AOT_stimuli/rescaled_final/1642_fw.mp4	0.0	342.72076892852783	2.5003750324249268
80	322.1568720340729	pulse	1	t		78.0	2.5	/experiments/AOT/AOT_stimuli/rescaled_final/1642_fw.mp4	0.0	343.5047290325165	
80	323.7567648887634	pulse	1	t		78.0	2.5	/experiments/AOT/AOT_stimuli/rescaled_final/1642_fw.mp4	0.0	345.10462188720703	
80	323.87328696250916	fix_post	2		12	78.0	2.5	/experiments/AOT/AOT_stimuli/rescaled_final/1642_fw.mp4	0.0	345.22114396095276	0.09999299049377441
81	323.97327995300293	fix_pre	0		120	79.0	2.5	/experiments/AOT/AOT_stimuli/rescaled_final/0026_rv.mp4	0.0	345.32113695144653	0.9999639987945557
81	324.9732439517975	movie	1		244	79.0	2.5	/experiments/AOT/AOT_stimuli/rescaled_final/0026_rv.mp4	0.0	346.3211009502411	2.5000998973846436
81	325.3580949306488	pulse	1	t		79.0	2.5	/experiments/AOT/AOT_stimuli/rescaled_final/0026_rv.mp4	0.0	346.7059519290924	
81	326.956759929657	pulse	1	t		79.0	2.5	/experiments/AOT/AOT_stimuli/rescaled_final/0026_rv.mp4	0.0	348.3046169281006	
81	327.47334384918213	fix_post	2		12	79.0	2.5	/experiments/AOT/AOT_stimuli/rescaled_final/0026_rv.mp4	0.0	348.82120084762573	0.09998416900634766
82	327.5733280181885	fix_pre	0		119	80.0	2.5	/experiments/AOT/AOT_stimuli/rescaled_final/1990_fw.mp4	0.0	348.9211850166321	0.9916298389434814
82	328.55676102638245	pulse	0	t		80.0	2.5	/experiments/AOT/AOT_stimuli/rescaled_final/1990_fw.mp4	0.0	349.90461802482605	
82	328.56495785713196	movie	1		246	80.0	2.5	/experiments/AOT/AOT_stimuli/rescaled_final/1990_fw.mp4	0.0	349.91281485557556	2.508284091949463
82	330.1565189361572	pulse	1	t		80.0	2.5	/experiments/AOT/AOT_stimuli/rescaled_final/1990_fw.mp4	0.0	351.50437593460083	
82	331.0732419490814	fix_post	2		12	80.0	2.5	/experiments/AOT/AOT_stimuli/rescaled_final/1990_fw.mp4	0.0	352.421098947525	0.10008788108825684
83	331.1733298301697	fix_pre	0		120	81.0	2.5	/experiments/AOT/AOT_stimuli/rescaled_final/1192_rv.mp4	0.0	352.5211868286133	1.0002861022949219
83	331.75676703453064	pulse	0	t		81.0	2.5	/experiments/AOT/AOT_stimuli/rescaled_final/1192_rv.mp4	0.0	353.10462403297424	
83	332.1736159324646	movie	1		244	81.0	2.5	/experiments/AOT/AOT_stimuli/rescaled_final/1192_rv.mp4	0.0	353.5214729309082	2.4992520809173584
83	333.35689187049866	pulse	1	t		81.0	2.5	/experiments/AOT/AOT_stimuli/rescaled_final/1192_rv.mp4	0.0	354.70474886894226	
83	334.67286801338196	fix_post	2		12	81.0	2.5	/experiments/AOT/AOT_stimuli/rescaled_final/1192_rv.mp4	0.0	356.02072501182556	0.10049295425415039
84	334.7733609676361	fix_pre	0		120	82.0	2.5	blank	1.0	356.1212179660797	0.9999470710754395
84	334.95681595802307	pulse	0	t		82.0	2.5	blank	1.0	356.3046729564667	
84	335.77330803871155	movie	1		300	82.0	2.5	blank	1.0	357.12116503715515	2.500037908554077
84	336.5567729473114	pulse	1	t		82.0	2.5	blank	1.0	357.904629945755	
84	338.15680599212646	pulse	1	t		82.0	2.5	blank	1.0	359.50466299057007	
84	338.2733459472656	fix_post	2		12	82.0	2.5	blank	1.0	359.62120294570923	0.09942889213562012
85	338.37277483940125	fix_pre	0		120	83.0	2.5	/experiments/AOT/AOT_stimuli/rescaled_final/1482_fw.mp4	0.0	359.72063183784485	1.0004360675811768
85	339.3732109069824	movie	1		245	83.0	2.5	/experiments/AOT/AOT_stimuli/rescaled_final/1482_fw.mp4	0.0	360.721067905426	2.5000100135803223
85	339.7564449310303	pulse	1	t		83.0	2.5	/experiments/AOT/AOT_stimuli/rescaled_final/1482_fw.mp4	0.0	361.1043019294739	
85	341.356812953949	pulse	1	t		83.0	2.5	/experiments/AOT/AOT_stimuli/rescaled_final/1482_fw.mp4	0.0	362.7046699523926	
85	341.87322092056274	fix_post	2		12	83.0	2.5	/experiments/AOT/AOT_stimuli/rescaled_final/1482_fw.mp4	0.0	363.22107791900635	0.09963393211364746
87	341.9728548526764	stim	0		1716					363.32071185112	14.30037808418274
87	342.9567120075226	pulse	0	t						364.3045690059662	
87	344.5567648410797	pulse	0	t						365.9046218395233	
87	346.15673089027405	pulse	0	t						367.50458788871765	
87	347.75674390792847	pulse	0	t						369.10460090637207	
87	349.3567988872528	pulse	0	t						370.7046558856964	
87	350.9567108154297	pulse	0	t						372.3045678138733	
87	352.55620789527893	pulse	0	t						373.90406489372253	
87	354.1568880081177	pulse	0	t						375.5047450065613	
87	355.7567648887634	pulse	0	t						377.10462188720703	
