trial_nr	onset	event_type	phase	response	nr_frames	movie_index	movie_duration	movie_file	blank	onset_abs	duration
0	0.15822601318359375	stim	0		75					20.43018102645874	0.6250455379486084
0	0.775123119354248	response	0	space						21.047078132629395	
1	0.7832715511322021	stim	0		4362					21.05522656440735	36.36597990989685
1	37.13991713523865	pulse	0	t						57.411872148513794	
1	37.14925146102905	stim	1		1716					57.4212064743042	14.308335542678833
1	38.73119759559631	pulse	1	t						59.00315260887146	
1	40.33143067359924	pulse	1	t						60.60338568687439	
1	41.92389369010925	pulse	1	t						62.1958487033844	
1	43.52385592460632	pulse	1	t						63.79581093788147	
1	45.123796463012695	pulse	1	t						65.39575147628784	
1	46.723719358444214	pulse	1	t						66.99567437171936	
1	48.324033975601196	pulse	1	t						68.59598898887634	
1	49.9242000579834	pulse	1	t						70.19615507125854	
2	51.457587003707886	fix_pre	0		9	0.0	2.5	/experiments/knapen_AOT/AOT_stimuli/rescaled_final/1123_fw.mp4	0.0	71.72954201698303	0.09169435501098633
2	51.52450346946716	pulse	0	t		0.0	2.5	/experiments/knapen_AOT/AOT_stimuli/rescaled_final/1123_fw.mp4	0.0	71.79645848274231	
2	51.54928135871887	movie	1		265	0.0	2.5	/experiments/knapen_AOT/AOT_stimuli/rescaled_final/1123_fw.mp4	0.0	71.82123637199402	2.492032766342163
2	53.124845027923584	pulse	1	t		0.0	2.5	/experiments/knapen_AOT/AOT_stimuli/rescaled_final/1123_fw.mp4	0.0	73.39680004119873	
2	54.041314125061035	fix_post	2		12	0.0	2.5	/experiments/knapen_AOT/AOT_stimuli/rescaled_final/1123_fw.mp4	0.0	74.31326913833618	0.10001158714294434
3	54.14132571220398	fix_pre	0		120	1.0	2.5	/experiments/knapen_AOT/AOT_stimuli/rescaled_final/0628_fw.mp4	0.0	74.41328072547913	1.0085322856903076
3	54.7249641418457	pulse	0	t		1.0	2.5	/experiments/knapen_AOT/AOT_stimuli/rescaled_final/0628_fw.mp4	0.0	74.99691915512085	
3	55.14985799789429	movie	1		281	1.0	2.5	/experiments/knapen_AOT/AOT_stimuli/rescaled_final/0628_fw.mp4	0.0	75.42181301116943	2.491982936859131
3	56.326148986816406	pulse	1	t		1.0	2.5	/experiments/knapen_AOT/AOT_stimuli/rescaled_final/0628_fw.mp4	0.0	76.59810400009155	
3	57.64184093475342	fix_post	2		12	1.0	2.5	/experiments/knapen_AOT/AOT_stimuli/rescaled_final/0628_fw.mp4	0.0	77.91379594802856	0.10002732276916504
4	57.74186825752258	fix_pre	0		120	2.0	2.5	/experiments/knapen_AOT/AOT_stimuli/rescaled_final/1368_fw.mp4	0.0	78.01382327079773	1.008575439453125
4	57.92543315887451	pulse	0	t		2.0	2.5	/experiments/knapen_AOT/AOT_stimuli/rescaled_final/1368_fw.mp4	0.0	78.19738817214966	
4	58.75044369697571	movie	1		269	2.0	2.5	/experiments/knapen_AOT/AOT_stimuli/rescaled_final/1368_fw.mp4	0.0	79.02239871025085	2.4919469356536865
4	59.52504754066467	pulse	1	t		2.0	2.5	/experiments/knapen_AOT/AOT_stimuli/rescaled_final/1368_fw.mp4	0.0	79.79700255393982	
4	61.123727321624756	pulse	1	t		2.0	2.5	/experiments/knapen_AOT/AOT_stimuli/rescaled_final/1368_fw.mp4	0.0	81.3956823348999	
4	61.242390632629395	fix_post	2		12	2.0	2.5	/experiments/knapen_AOT/AOT_stimuli/rescaled_final/1368_fw.mp4	0.0	81.51434564590454	0.10001587867736816
5	61.34240651130676	fix_pre	0		120	3.0	2.5	/experiments/knapen_AOT/AOT_stimuli/rescaled_final/0076_rv.mp4	0.0	81.61436152458191	1.008544683456421
5	62.350951194763184	movie	1		281	3.0	2.5	/experiments/knapen_AOT/AOT_stimuli/rescaled_final/0076_rv.mp4	0.0	82.62290620803833	2.4921319484710693
5	62.72473978996277	pulse	1	t		3.0	2.5	/experiments/knapen_AOT/AOT_stimuli/rescaled_final/0076_rv.mp4	0.0	82.99669480323792	
5	64.32462239265442	pulse	1	t		3.0	2.5	/experiments/knapen_AOT/AOT_stimuli/rescaled_final/0076_rv.mp4	0.0	84.59657740592957	
5	64.84308314323425	fix_post	2		12	3.0	2.5	/experiments/knapen_AOT/AOT_stimuli/rescaled_final/0076_rv.mp4	0.0	85.1150381565094	0.09985589981079102
6	64.94293904304504	fix_pre	0		119	4.0	2.5	/experiments/knapen_AOT/AOT_stimuli/rescaled_final/1172_rv.mp4	0.0	85.21489405632019	1.0001702308654785
6	65.92660307884216	pulse	0	t		4.0	2.5	/experiments/knapen_AOT/AOT_stimuli/rescaled_final/1172_rv.mp4	0.0	86.19855809211731	
6	65.94310927391052	movie	1		282	4.0	2.5	/experiments/knapen_AOT/AOT_stimuli/rescaled_final/1172_rv.mp4	0.0	86.21506428718567	2.5003442764282227
6	67.52568340301514	pulse	1	t		4.0	2.5	/experiments/knapen_AOT/AOT_stimuli/rescaled_final/1172_rv.mp4	0.0	87.79763841629028	
6	68.44345355033875	fix_post	2		12	4.0	2.5	/experiments/knapen_AOT/AOT_stimuli/rescaled_final/1172_rv.mp4	0.0	88.71540856361389	0.10007452964782715
7	68.54352807998657	fix_pre	0		120	5.0	2.5	/experiments/knapen_AOT/AOT_stimuli/rescaled_final/1453_rv.mp4	0.0	88.81548309326172	1.0084612369537354
7	69.12737917900085	pulse	0	t		5.0	2.5	/experiments/knapen_AOT/AOT_stimuli/rescaled_final/1453_rv.mp4	0.0	89.399334192276	
7	69.55198931694031	movie	1		282	5.0	2.5	/experiments/knapen_AOT/AOT_stimuli/rescaled_final/1453_rv.mp4	0.0	89.82394433021545	2.4922232627868652
7	70.72534227371216	pulse	1	t		5.0	2.5	/experiments/knapen_AOT/AOT_stimuli/rescaled_final/1453_rv.mp4	0.0	90.9972972869873	
7	72.04421257972717	fix_post	2		12	5.0	2.5	/experiments/knapen_AOT/AOT_stimuli/rescaled_final/1453_rv.mp4	0.0	92.31616759300232	0.09980273246765137
8	72.14401531219482	fix_pre	0		120	6.0	2.5	/experiments/knapen_AOT/AOT_stimuli/rescaled_final/0798_rv.mp4	0.0	92.41597032546997	1.0084969997406006
8	72.32754302024841	pulse	0	t		6.0	2.5	/experiments/knapen_AOT/AOT_stimuli/rescaled_final/0798_rv.mp4	0.0	92.59949803352356	
8	73.15251231193542	movie	1		268	6.0	2.5	/experiments/knapen_AOT/AOT_stimuli/rescaled_final/0798_rv.mp4	0.0	93.42446732521057	2.4920389652252197
8	73.92573237419128	pulse	1	t		6.0	2.5	/experiments/knapen_AOT/AOT_stimuli/rescaled_final/0798_rv.mp4	0.0	94.19768738746643	
8	75.5261914730072	pulse	1	t		6.0	2.5	/experiments/knapen_AOT/AOT_stimuli/rescaled_final/0798_rv.mp4	0.0	95.79814648628235	
8	75.64455127716064	fix_post	2		12	6.0	2.5	/experiments/knapen_AOT/AOT_stimuli/rescaled_final/0798_rv.mp4	0.0	95.91650629043579	0.10001826286315918
9	75.7445695400238	fix_pre	0		120	7.0	2.5	blank	1.0	96.01652455329895	1.0001804828643799
9	76.74475002288818	movie	1		300	7.0	2.5	blank	1.0	97.01670503616333	2.5003273487091064
9	77.12838363647461	pulse	1	t		7.0	2.5	blank	1.0	97.40033864974976	
9	78.72858762741089	pulse	1	t		7.0	2.5	blank	1.0	99.00054264068604	
9	79.24507737159729	fix_post	2		12	7.0	2.5	blank	1.0	99.51703238487244	0.10003328323364258
10	79.34511065483093	fix_pre	0		119	8.0	2.5	/experiments/knapen_AOT/AOT_stimuli/rescaled_final/2089_fw.mp4	0.0	99.61706566810608	1.0001351833343506
10	80.3288242816925	pulse	0	t		8.0	2.5	/experiments/knapen_AOT/AOT_stimuli/rescaled_final/2089_fw.mp4	0.0	100.60077929496765	
10	80.34524583816528	movie	1		283	8.0	2.5	/experiments/knapen_AOT/AOT_stimuli/rescaled_final/2089_fw.mp4	0.0	100.61720085144043	2.500387668609619
10	81.92743182182312	pulse	1	t		8.0	2.5	/experiments/knapen_AOT/AOT_stimuli/rescaled_final/2089_fw.mp4	0.0	102.19938683509827	
10	82.8456335067749	fix_post	2		12	8.0	2.5	/experiments/knapen_AOT/AOT_stimuli/rescaled_final/2089_fw.mp4	0.0	103.11758852005005	0.10010409355163574
11	82.94573760032654	fix_pre	0		120	9.0	2.5	/experiments/knapen_AOT/AOT_stimuli/rescaled_final/1559_fw.mp4	0.0	103.21769261360168	1.008436679840088
11	83.5294120311737	pulse	0	t		9.0	2.5	/experiments/knapen_AOT/AOT_stimuli/rescaled_final/1559_fw.mp4	0.0	103.80136704444885	
11	83.95417428016663	movie	1		270	9.0	2.5	/experiments/knapen_AOT/AOT_stimuli/rescaled_final/1559_fw.mp4	0.0	104.22612929344177	2.492002248764038
11	85.12737679481506	pulse	1	t		9.0	2.5	/experiments/knapen_AOT/AOT_stimuli/rescaled_final/1559_fw.mp4	0.0	105.39933180809021	
11	86.44617652893066	fix_post	2		12	9.0	2.5	/experiments/knapen_AOT/AOT_stimuli/rescaled_final/1559_fw.mp4	0.0	106.71813154220581	0.10000848770141602
12	86.54618501663208	fix_pre	0		120	10.0	2.5	/experiments/knapen_AOT/AOT_stimuli/rescaled_final/0223_fw.mp4	0.0	106.81814002990723	1.0086596012115479
12	86.72977089881897	pulse	0	t		10.0	2.5	/experiments/knapen_AOT/AOT_stimuli/rescaled_final/0223_fw.mp4	0.0	107.00172591209412	
12	87.55484461784363	movie	1		274	10.0	2.5	/experiments/knapen_AOT/AOT_stimuli/rescaled_final/0223_fw.mp4	0.0	107.82679963111877	2.491894006729126
12	88.32875442504883	pulse	1	t		10.0	2.5	/experiments/knapen_AOT/AOT_stimuli/rescaled_final/0223_fw.mp4	0.0	108.60070943832397	
12	89.92856740951538	pulse	1	t		10.0	2.5	/experiments/knapen_AOT/AOT_stimuli/rescaled_final/0223_fw.mp4	0.0	110.20052242279053	
12	90.04673862457275	fix_post	2		12	10.0	2.5	/experiments/knapen_AOT/AOT_stimuli/rescaled_final/0223_fw.mp4	0.0	110.3186936378479	0.10005021095275879
13	90.14678883552551	fix_pre	0		120	11.0	2.5	/experiments/knapen_AOT/AOT_stimuli/rescaled_final/0658_rv.mp4	0.0	110.41874384880066	1.0084669589996338
13	91.15525579452515	movie	1		283	11.0	2.5	/experiments/knapen_AOT/AOT_stimuli/rescaled_final/0658_rv.mp4	0.0	111.4272108078003	2.491992712020874
13	91.52853727340698	pulse	1	t		11.0	2.5	/experiments/knapen_AOT/AOT_stimuli/rescaled_final/0658_rv.mp4	0.0	111.80049228668213	
13	93.12829995155334	pulse	1	t		11.0	2.5	/experiments/knapen_AOT/AOT_stimuli/rescaled_final/0658_rv.mp4	0.0	113.40025496482849	
13	93.64724850654602	fix_post	2		12	11.0	2.5	/experiments/knapen_AOT/AOT_stimuli/rescaled_final/0658_rv.mp4	0.0	113.91920351982117	0.10001158714294434
14	93.74726009368896	fix_pre	0		119	12.0	2.5	blank	1.0	114.01921510696411	0.9918332099914551
14	94.73087906837463	pulse	0	t		12.0	2.5	blank	1.0	115.00283408164978	
14	94.73909330368042	movie	1		301	12.0	2.5	blank	1.0	115.01104831695557	2.508707046508789
14	96.33132076263428	pulse	1	t		12.0	2.5	blank	1.0	116.60327577590942	
14	97.24780035018921	fix_post	2		12	12.0	2.5	blank	1.0	117.51975536346436	0.10001420974731445
15	97.34781455993652	fix_pre	0		120	13.0	2.5	/experiments/knapen_AOT/AOT_stimuli/rescaled_final/0893_fw.mp4	0.0	117.61976957321167	1.008540391921997
15	97.93138599395752	pulse	0	t		13.0	2.5	/experiments/knapen_AOT/AOT_stimuli/rescaled_final/0893_fw.mp4	0.0	118.20334100723267	
15	98.35635495185852	movie	1		264	13.0	2.5	/experiments/knapen_AOT/AOT_stimuli/rescaled_final/0893_fw.mp4	0.0	118.62830996513367	2.491983652114868
15	99.52955508232117	pulse	1	t		13.0	2.5	/experiments/knapen_AOT/AOT_stimuli/rescaled_final/0893_fw.mp4	0.0	119.80151009559631	
15	100.84833860397339	fix_post	2		12	13.0	2.5	/experiments/knapen_AOT/AOT_stimuli/rescaled_final/0893_fw.mp4	0.0	121.12029361724854	0.10001182556152344
16	100.94835042953491	fix_pre	0		120	14.0	2.5	/experiments/knapen_AOT/AOT_stimuli/rescaled_final/0799_rv.mp4	0.0	121.22030544281006	1.0085127353668213
16	101.1250011920929	pulse	0	t		14.0	2.5	/experiments/knapen_AOT/AOT_stimuli/rescaled_final/0799_rv.mp4	0.0	121.39695620536804	
16	101.95686316490173	movie	1		279	14.0	2.5	/experiments/knapen_AOT/AOT_stimuli/rescaled_final/0799_rv.mp4	0.0	122.22881817817688	2.4920103549957275
16	102.72983717918396	pulse	1	t		14.0	2.5	/experiments/knapen_AOT/AOT_stimuli/rescaled_final/0799_rv.mp4	0.0	123.0017921924591	
16	104.32424283027649	pulse	1	t		14.0	2.5	/experiments/knapen_AOT/AOT_stimuli/rescaled_final/0799_rv.mp4	0.0	124.59619784355164	
16	104.44887351989746	fix_post	2		12	14.0	2.5	/experiments/knapen_AOT/AOT_stimuli/rescaled_final/0799_rv.mp4	0.0	124.72082853317261	0.10001873970031738
17	104.54889225959778	fix_pre	0		120	15.0	2.5	/experiments/knapen_AOT/AOT_stimuli/rescaled_final/0852_fw.mp4	0.0	124.82084727287292	1.008636713027954
17	105.55752897262573	movie	1		264	15.0	2.5	/experiments/knapen_AOT/AOT_stimuli/rescaled_final/0852_fw.mp4	0.0	125.82948398590088	2.4918930530548096
17	105.92420840263367	pulse	1	t		15.0	2.5	/experiments/knapen_AOT/AOT_stimuli/rescaled_final/0852_fw.mp4	0.0	126.19616341590881	
17	107.52470326423645	pulse	1	t		15.0	2.5	/experiments/knapen_AOT/AOT_stimuli/rescaled_final/0852_fw.mp4	0.0	127.7966582775116	
17	108.04942202568054	fix_post	2		12	15.0	2.5	/experiments/knapen_AOT/AOT_stimuli/rescaled_final/0852_fw.mp4	0.0	128.3213770389557	0.10000991821289062
18	108.14943194389343	fix_pre	0		118	16.0	2.5	/experiments/knapen_AOT/AOT_stimuli/rescaled_final/1279_fw.mp4	0.0	128.42138695716858	0.991840124130249
18	109.12473797798157	pulse	0	t		16.0	2.5	/experiments/knapen_AOT/AOT_stimuli/rescaled_final/1279_fw.mp4	0.0	129.3966929912567	
18	109.14127206802368	movie	1		278	16.0	2.5	/experiments/knapen_AOT/AOT_stimuli/rescaled_final/1279_fw.mp4	0.0	129.41322708129883	2.50036883354187
18	110.72509002685547	pulse	1	t		16.0	2.5	/experiments/knapen_AOT/AOT_stimuli/rescaled_final/1279_fw.mp4	0.0	130.99704504013062	
18	111.64164090156555	fix_post	2		12	16.0	2.5	/experiments/knapen_AOT/AOT_stimuli/rescaled_final/1279_fw.mp4	0.0	131.9135959148407	0.10001206398010254
19	111.74165296554565	fix_pre	0		120	17.0	2.5	/experiments/knapen_AOT/AOT_stimuli/rescaled_final/1978_rv.mp4	0.0	132.0136079788208	1.0085184574127197
19	112.32530522346497	pulse	0	t		17.0	2.5	/experiments/knapen_AOT/AOT_stimuli/rescaled_final/1978_rv.mp4	0.0	132.5972602367401	
19	112.75017142295837	movie	1		270	17.0	2.5	/experiments/knapen_AOT/AOT_stimuli/rescaled_final/1978_rv.mp4	0.0	133.02212643623352	2.4920153617858887
19	113.92558884620667	pulse	1	t		17.0	2.5	/experiments/knapen_AOT/AOT_stimuli/rescaled_final/1978_rv.mp4	0.0	134.1975438594818	
19	115.24218678474426	fix_post	2		12	17.0	2.5	/experiments/knapen_AOT/AOT_stimuli/rescaled_final/1978_rv.mp4	0.0	135.5141417980194	0.09999465942382812
20	115.34218144416809	fix_pre	0		120	18.0	2.5	/experiments/knapen_AOT/AOT_stimuli/rescaled_final/0901_rv.mp4	0.0	135.61413645744324	1.0085971355438232
20	115.52581882476807	pulse	0	t		18.0	2.5	/experiments/knapen_AOT/AOT_stimuli/rescaled_final/0901_rv.mp4	0.0	135.7977738380432	
20	116.35077857971191	movie	1		277	18.0	2.5	/experiments/knapen_AOT/AOT_stimuli/rescaled_final/0901_rv.mp4	0.0	136.62273359298706	2.4919817447662354
20	117.12596225738525	pulse	1	t		18.0	2.5	/experiments/knapen_AOT/AOT_stimuli/rescaled_final/0901_rv.mp4	0.0	137.3979172706604	
20	118.72627973556519	pulse	1	t		18.0	2.5	/experiments/knapen_AOT/AOT_stimuli/rescaled_final/0901_rv.mp4	0.0	138.99823474884033	
20	118.84276032447815	fix_post	2		12	18.0	2.5	/experiments/knapen_AOT/AOT_stimuli/rescaled_final/0901_rv.mp4	0.0	139.1147153377533	0.09999585151672363
21	118.94275617599487	fix_pre	0		120	19.0	2.5	/experiments/knapen_AOT/AOT_stimuli/rescaled_final/0895_rv.mp4	0.0	139.21471118927002	1.0084540843963623
21	119.95121026039124	movie	1		275	19.0	2.5	/experiments/knapen_AOT/AOT_stimuli/rescaled_final/0895_rv.mp4	0.0	140.22316527366638	2.49204683303833
21	120.3248040676117	pulse	1	t		19.0	2.5	/experiments/knapen_AOT/AOT_stimuli/rescaled_final/0895_rv.mp4	0.0	140.59675908088684	
21	121.92450833320618	pulse	1	t		19.0	2.5	/experiments/knapen_AOT/AOT_stimuli/rescaled_final/0895_rv.mp4	0.0	142.19646334648132	
21	122.44325709342957	fix_post	2		12	19.0	2.5	/experiments/knapen_AOT/AOT_stimuli/rescaled_final/0895_rv.mp4	0.0	142.7152121067047	0.1000058650970459
22	122.54326295852661	fix_pre	0		119	20.0	2.5	blank	1.0	142.81521797180176	0.9919161796569824
22	123.5268714427948	pulse	0	t		20.0	2.5	blank	1.0	143.79882645606995	
22	123.5351791381836	movie	1		301	20.0	2.5	blank	1.0	143.80713415145874	2.508601427078247
22	125.12712097167969	pulse	1	t		20.0	2.5	blank	1.0	145.39907598495483	
22	126.04378056526184	fix_post	2		12	20.0	2.5	blank	1.0	146.315735578537	0.1000211238861084
23	126.14380168914795	fix_pre	0		120	21.0	2.5	/experiments/knapen_AOT/AOT_stimuli/rescaled_final/1151_rv.mp4	0.0	146.4157567024231	1.0084881782531738
23	126.72733926773071	pulse	0	t		21.0	2.5	/experiments/knapen_AOT/AOT_stimuli/rescaled_final/1151_rv.mp4	0.0	146.99929428100586	
23	127.15228986740112	movie	1		277	21.0	2.5	/experiments/knapen_AOT/AOT_stimuli/rescaled_final/1151_rv.mp4	0.0	147.42424488067627	2.4920506477355957
23	128.32683944702148	pulse	1	t		21.0	2.5	/experiments/knapen_AOT/AOT_stimuli/rescaled_final/1151_rv.mp4	0.0	148.59879446029663	
23	129.64434051513672	fix_post	2		12	21.0	2.5	/experiments/knapen_AOT/AOT_stimuli/rescaled_final/1151_rv.mp4	0.0	149.91629552841187	0.10005712509155273
24	129.74439764022827	fix_pre	0		120	22.0	2.5	/experiments/knapen_AOT/AOT_stimuli/rescaled_final/1925_rv.mp4	0.0	150.01635265350342	1.0084376335144043
24	129.9279248714447	pulse	0	t		22.0	2.5	/experiments/knapen_AOT/AOT_stimuli/rescaled_final/1925_rv.mp4	0.0	150.19987988471985	
24	130.75283527374268	movie	1		278	22.0	2.5	/experiments/knapen_AOT/AOT_stimuli/rescaled_final/1925_rv.mp4	0.0	151.02479028701782	2.492068290710449
24	131.52590036392212	pulse	1	t		22.0	2.5	/experiments/knapen_AOT/AOT_stimuli/rescaled_final/1925_rv.mp4	0.0	151.79785537719727	
24	133.12617301940918	pulse	1	t		22.0	2.5	/experiments/knapen_AOT/AOT_stimuli/rescaled_final/1925_rv.mp4	0.0	153.39812803268433	
24	133.24490356445312	fix_post	2		12	22.0	2.5	/experiments/knapen_AOT/AOT_stimuli/rescaled_final/1925_rv.mp4	0.0	153.51685857772827	0.09998035430908203
25	133.3448839187622	fix_pre	0		120	23.0	2.5	/experiments/knapen_AOT/AOT_stimuli/rescaled_final/1041_fw.mp4	0.0	153.61683893203735	1.0084948539733887
25	134.3533787727356	movie	1		281	23.0	2.5	/experiments/knapen_AOT/AOT_stimuli/rescaled_final/1041_fw.mp4	0.0	154.62533378601074	2.4920339584350586
25	134.72704982757568	pulse	1	t		23.0	2.5	/experiments/knapen_AOT/AOT_stimuli/rescaled_final/1041_fw.mp4	0.0	154.99900484085083	
25	136.32725763320923	pulse	1	t		23.0	2.5	/experiments/knapen_AOT/AOT_stimuli/rescaled_final/1041_fw.mp4	0.0	156.59921264648438	
25	136.84541273117065	fix_post	2		12	23.0	2.5	/experiments/knapen_AOT/AOT_stimuli/rescaled_final/1041_fw.mp4	0.0	157.1173677444458	0.10001111030578613
26	136.94542384147644	fix_pre	0		119	24.0	2.5	/experiments/knapen_AOT/AOT_stimuli/rescaled_final/1746_fw.mp4	0.0	157.2173788547516	1.0001535415649414
26	137.92909145355225	pulse	0	t		24.0	2.5	/experiments/knapen_AOT/AOT_stimuli/rescaled_final/1746_fw.mp4	0.0	158.2010464668274	
26	137.94557738304138	movie	1		276	24.0	2.5	/experiments/knapen_AOT/AOT_stimuli/rescaled_final/1746_fw.mp4	0.0	158.21753239631653	2.500368356704712
26	139.52747201919556	pulse	1	t		24.0	2.5	/experiments/knapen_AOT/AOT_stimuli/rescaled_final/1746_fw.mp4	0.0	159.7994270324707	
26	140.4459457397461	fix_post	2		12	24.0	2.5	/experiments/knapen_AOT/AOT_stimuli/rescaled_final/1746_fw.mp4	0.0	160.71790075302124	0.10001778602600098
27	140.5459635257721	fix_pre	0		120	25.0	2.5	/experiments/knapen_AOT/AOT_stimuli/rescaled_final/1967_fw.mp4	0.0	160.81791853904724	1.00860595703125
27	141.12952542304993	pulse	0	t		25.0	2.5	/experiments/knapen_AOT/AOT_stimuli/rescaled_final/1967_fw.mp4	0.0	161.40148043632507	
27	141.55456948280334	movie	1		277	25.0	2.5	/experiments/knapen_AOT/AOT_stimuli/rescaled_final/1967_fw.mp4	0.0	161.8265244960785	2.4919207096099854
27	142.72788190841675	pulse	1	t		25.0	2.5	/experiments/knapen_AOT/AOT_stimuli/rescaled_final/1967_fw.mp4	0.0	162.9998369216919	
27	144.04649019241333	fix_post	2		12	25.0	2.5	/experiments/knapen_AOT/AOT_stimuli/rescaled_final/1967_fw.mp4	0.0	164.31844520568848	0.10006403923034668
28	144.14655423164368	fix_pre	0		120	26.0	2.5	blank	1.0	164.41850924491882	1.000128984451294
28	144.33001589775085	pulse	0	t		26.0	2.5	blank	1.0	164.601970911026	
28	145.14668321609497	movie	1		300	26.0	2.5	blank	1.0	165.41863822937012	2.5003538131713867
28	145.93031358718872	pulse	1	t		26.0	2.5	blank	1.0	166.20226860046387	
28	147.5305736064911	pulse	1	t		26.0	2.5	blank	1.0	167.80252861976624	
28	147.64703702926636	fix_post	2		12	26.0	2.5	blank	1.0	167.9189920425415	0.10001611709594727
29	147.7470531463623	fix_pre	0		120	27.0	2.5	/experiments/knapen_AOT/AOT_stimuli/rescaled_final/1391_fw.mp4	0.0	168.01900815963745	1.0084848403930664
29	148.75553798675537	movie	1		269	27.0	2.5	/experiments/knapen_AOT/AOT_stimuli/rescaled_final/1391_fw.mp4	0.0	169.02749300003052	2.4920434951782227
29	149.12935328483582	pulse	1	t		27.0	2.5	/experiments/knapen_AOT/AOT_stimuli/rescaled_final/1391_fw.mp4	0.0	169.40130829811096	
29	150.73114442825317	pulse	1	t		27.0	2.5	/experiments/knapen_AOT/AOT_stimuli/rescaled_final/1391_fw.mp4	0.0	171.00309944152832	
29	151.2475814819336	fix_post	2		12	27.0	2.5	/experiments/knapen_AOT/AOT_stimuli/rescaled_final/1391_fw.mp4	0.0	171.51953649520874	0.10003018379211426
30	151.3476116657257	fix_pre	0		119	28.0	2.5	/experiments/knapen_AOT/AOT_stimuli/rescaled_final/1331_rv.mp4	0.0	171.61956667900085	1.0001678466796875
30	152.33134198188782	pulse	0	t		28.0	2.5	/experiments/knapen_AOT/AOT_stimuli/rescaled_final/1331_rv.mp4	0.0	172.60329699516296	
30	152.3477795124054	movie	1		274	28.0	2.5	/experiments/knapen_AOT/AOT_stimuli/rescaled_final/1331_rv.mp4	0.0	172.61973452568054	2.500345230102539
30	153.93064045906067	pulse	1	t		28.0	2.5	/experiments/knapen_AOT/AOT_stimuli/rescaled_final/1331_rv.mp4	0.0	174.20259547233582	
30	154.84812474250793	fix_post	2		12	28.0	2.5	/experiments/knapen_AOT/AOT_stimuli/rescaled_final/1331_rv.mp4	0.0	175.12007975578308	0.10001754760742188
31	154.94814229011536	fix_pre	0		120	29.0	2.5	/experiments/knapen_AOT/AOT_stimuli/rescaled_final/0470_rv.mp4	0.0	175.2200973033905	1.0085632801055908
31	155.5316936969757	pulse	0	t		29.0	2.5	/experiments/knapen_AOT/AOT_stimuli/rescaled_final/0470_rv.mp4	0.0	175.80364871025085	
31	155.95670557022095	movie	1		284	29.0	2.5	/experiments/knapen_AOT/AOT_stimuli/rescaled_final/0470_rv.mp4	0.0	176.2286605834961	2.4919593334198
31	157.13208317756653	pulse	1	t		29.0	2.5	/experiments/knapen_AOT/AOT_stimuli/rescaled_final/0470_rv.mp4	0.0	177.40403819084167	
31	158.44866490364075	fix_post	2		12	29.0	2.5	/experiments/knapen_AOT/AOT_stimuli/rescaled_final/0470_rv.mp4	0.0	178.7206199169159	0.10003805160522461
32	158.54870295524597	fix_pre	0		120	30.0	2.5	/experiments/knapen_AOT/AOT_stimuli/rescaled_final/1556_fw.mp4	0.0	178.82065796852112	1.0085043907165527
32	158.7245090007782	pulse	0	t		30.0	2.5	/experiments/knapen_AOT/AOT_stimuli/rescaled_final/1556_fw.mp4	0.0	178.99646401405334	
32	159.55720734596252	movie	1		268	30.0	2.5	/experiments/knapen_AOT/AOT_stimuli/rescaled_final/1556_fw.mp4	0.0	179.82916235923767	2.4920170307159424
32	160.3306245803833	pulse	1	t		30.0	2.5	/experiments/knapen_AOT/AOT_stimuli/rescaled_final/1556_fw.mp4	0.0	180.60257959365845	
32	161.9246575832367	pulse	1	t		30.0	2.5	/experiments/knapen_AOT/AOT_stimuli/rescaled_final/1556_fw.mp4	0.0	182.19661259651184	
32	162.04922437667847	fix_post	2		12	30.0	2.5	/experiments/knapen_AOT/AOT_stimuli/rescaled_final/1556_fw.mp4	0.0	182.3211793899536	0.09999275207519531
33	162.14921712875366	fix_pre	0		120	31.0	2.5	/experiments/knapen_AOT/AOT_stimuli/rescaled_final/0524_rv.mp4	0.0	182.4211721420288	1.0085618495941162
33	163.15777897834778	movie	1		276	31.0	2.5	/experiments/knapen_AOT/AOT_stimuli/rescaled_final/0524_rv.mp4	0.0	183.42973399162292	2.4920129776000977
33	163.52478766441345	pulse	1	t		31.0	2.5	/experiments/knapen_AOT/AOT_stimuli/rescaled_final/0524_rv.mp4	0.0	183.7967426776886	
33	165.1249279975891	pulse	1	t		31.0	2.5	/experiments/knapen_AOT/AOT_stimuli/rescaled_final/0524_rv.mp4	0.0	185.39688301086426	
33	165.64979195594788	fix_post	2		12	31.0	2.5	/experiments/knapen_AOT/AOT_stimuli/rescaled_final/0524_rv.mp4	0.0	185.92174696922302	0.10000348091125488
34	165.74979543685913	fix_pre	0		118	32.0	2.5	/experiments/knapen_AOT/AOT_stimuli/rescaled_final/1755_fw.mp4	0.0	186.02175045013428	0.9917902946472168
34	166.72506093978882	pulse	0	t		32.0	2.5	/experiments/knapen_AOT/AOT_stimuli/rescaled_final/1755_fw.mp4	0.0	186.99701595306396	
34	166.74158573150635	movie	1		268	32.0	2.5	/experiments/knapen_AOT/AOT_stimuli/rescaled_final/1755_fw.mp4	0.0	187.0135407447815	2.500368356704712
34	168.3254656791687	pulse	1	t		32.0	2.5	/experiments/knapen_AOT/AOT_stimuli/rescaled_final/1755_fw.mp4	0.0	188.59742069244385	
34	169.24195408821106	fix_post	2		12	32.0	2.5	/experiments/knapen_AOT/AOT_stimuli/rescaled_final/1755_fw.mp4	0.0	189.5139091014862	0.1000523567199707
35	169.34200644493103	fix_pre	0		120	33.0	2.5	/experiments/knapen_AOT/AOT_stimuli/rescaled_final/0694_rv.mp4	0.0	189.61396145820618	1.0084373950958252
35	169.92555499076843	pulse	0	t		33.0	2.5	/experiments/knapen_AOT/AOT_stimuli/rescaled_final/0694_rv.mp4	0.0	190.19751000404358	
35	170.35044384002686	movie	1		274	33.0	2.5	/experiments/knapen_AOT/AOT_stimuli/rescaled_final/0694_rv.mp4	0.0	190.622398853302	2.492068290710449
35	171.52601504325867	pulse	1	t		33.0	2.5	/experiments/knapen_AOT/AOT_stimuli/rescaled_final/0694_rv.mp4	0.0	191.7979700565338	
35	172.8425121307373	fix_post	2		12	33.0	2.5	/experiments/knapen_AOT/AOT_stimuli/rescaled_final/0694_rv.mp4	0.0	193.11446714401245	0.09999704360961914
36	172.94250917434692	fix_pre	0		120	34.0	2.5	blank	1.0	193.21446418762207	1.0002467632293701
36	173.12601780891418	pulse	0	t		34.0	2.5	blank	1.0	193.39797282218933	
36	173.9427559375763	movie	1		300	34.0	2.5	blank	1.0	194.21471095085144	2.5002799034118652
36	174.72625994682312	pulse	1	t		34.0	2.5	blank	1.0	194.99821496009827	
36	176.32647705078125	pulse	1	t		34.0	2.5	blank	1.0	196.5984320640564	
36	176.44303584098816	fix_post	2		12	34.0	2.5	blank	1.0	196.7149908542633	0.10002899169921875
37	176.54306483268738	fix_pre	0		120	35.0	2.5	/experiments/knapen_AOT/AOT_stimuli/rescaled_final/0269_rv.mp4	0.0	196.81501984596252	1.008493423461914
37	177.5515582561493	movie	1		265	35.0	2.5	/experiments/knapen_AOT/AOT_stimuli/rescaled_final/0269_rv.mp4	0.0	197.82351326942444	2.4922401905059814
37	177.92485213279724	pulse	1	t		35.0	2.5	/experiments/knapen_AOT/AOT_stimuli/rescaled_final/0269_rv.mp4	0.0	198.1968071460724	
37	179.5249001979828	pulse	1	t		35.0	2.5	/experiments/knapen_AOT/AOT_stimuli/rescaled_final/0269_rv.mp4	0.0	199.79685521125793	
37	180.04379844665527	fix_post	2		12	35.0	2.5	/experiments/knapen_AOT/AOT_stimuli/rescaled_final/0269_rv.mp4	0.0	200.31575345993042	0.09985804557800293
38	180.14365649223328	fix_pre	0		119	36.0	2.5	/experiments/knapen_AOT/AOT_stimuli/rescaled_final/0234_fw.mp4	0.0	200.41561150550842	1.0000925064086914
38	181.12721037864685	pulse	0	t		36.0	2.5	/experiments/knapen_AOT/AOT_stimuli/rescaled_final/0234_fw.mp4	0.0	201.399165391922	
38	181.14374899864197	movie	1		281	36.0	2.5	/experiments/knapen_AOT/AOT_stimuli/rescaled_final/0234_fw.mp4	0.0	201.41570401191711	2.5004308223724365
38	182.72597432136536	pulse	1	t		36.0	2.5	/experiments/knapen_AOT/AOT_stimuli/rescaled_final/0234_fw.mp4	0.0	202.9979293346405	
38	183.6441798210144	fix_post	2		12	36.0	2.5	/experiments/knapen_AOT/AOT_stimuli/rescaled_final/0234_fw.mp4	0.0	203.91613483428955	0.09998774528503418
39	183.74416756629944	fix_pre	0		120	37.0	2.5	/experiments/knapen_AOT/AOT_stimuli/rescaled_final/1427_fw.mp4	0.0	204.01612257957458	1.008467435836792
39	184.32771587371826	pulse	0	t		37.0	2.5	/experiments/knapen_AOT/AOT_stimuli/rescaled_final/1427_fw.mp4	0.0	204.5996708869934	
39	184.75263500213623	movie	1		280	37.0	2.5	/experiments/knapen_AOT/AOT_stimuli/rescaled_final/1427_fw.mp4	0.0	205.02459001541138	2.4920647144317627
39	185.9258246421814	pulse	1	t		37.0	2.5	/experiments/knapen_AOT/AOT_stimuli/rescaled_final/1427_fw.mp4	0.0	206.19777965545654	
39	187.244699716568	fix_post	2		12	37.0	2.5	/experiments/knapen_AOT/AOT_stimuli/rescaled_final/1427_fw.mp4	0.0	207.51665472984314	0.09999370574951172
40	187.3446934223175	fix_pre	0		120	38.0	2.5	/experiments/knapen_AOT/AOT_stimuli/rescaled_final/0622_fw.mp4	0.0	207.61664843559265	1.0084609985351562
40	187.52829551696777	pulse	0	t		38.0	2.5	/experiments/knapen_AOT/AOT_stimuli/rescaled_final/0622_fw.mp4	0.0	207.80025053024292	
40	188.35315442085266	movie	1		273	38.0	2.5	/experiments/knapen_AOT/AOT_stimuli/rescaled_final/0622_fw.mp4	0.0	208.6251094341278	2.4920427799224854
40	189.12604641914368	pulse	1	t		38.0	2.5	/experiments/knapen_AOT/AOT_stimuli/rescaled_final/0622_fw.mp4	0.0	209.39800143241882	
40	190.72893857955933	pulse	1	t		38.0	2.5	/experiments/knapen_AOT/AOT_stimuli/rescaled_final/0622_fw.mp4	0.0	211.00089359283447	
40	190.84519720077515	fix_post	2		12	38.0	2.5	/experiments/knapen_AOT/AOT_stimuli/rescaled_final/0622_fw.mp4	0.0	211.1171522140503	0.10001730918884277
41	190.945214509964	fix_pre	0		120	39.0	2.5	/experiments/knapen_AOT/AOT_stimuli/rescaled_final/1609_fw.mp4	0.0	211.21716952323914	1.0085198879241943
41	191.95373439788818	movie	1		282	39.0	2.5	/experiments/knapen_AOT/AOT_stimuli/rescaled_final/1609_fw.mp4	0.0	212.22568941116333	2.4920337200164795
41	192.32798051834106	pulse	1	t		39.0	2.5	/experiments/knapen_AOT/AOT_stimuli/rescaled_final/1609_fw.mp4	0.0	212.5999355316162	
41	193.92682719230652	pulse	1	t		39.0	2.5	/experiments/knapen_AOT/AOT_stimuli/rescaled_final/1609_fw.mp4	0.0	214.19878220558167	
41	194.44576811790466	fix_post	2		12	39.0	2.5	/experiments/knapen_AOT/AOT_stimuli/rescaled_final/1609_fw.mp4	0.0	214.7177231311798	0.10002827644348145
42	194.54579639434814	fix_pre	0		119	40.0	2.5	blank	1.0	214.8177514076233	0.9918103218078613
42	195.52942061424255	pulse	0	t		40.0	2.5	blank	1.0	215.8013756275177	
42	195.537606716156	movie	1		301	40.0	2.5	blank	1.0	215.80956172943115	2.508676767349243
42	197.1296260356903	pulse	1	t		40.0	2.5	blank	1.0	217.40158104896545	
42	198.04628348350525	fix_post	2		12	40.0	2.5	blank	1.0	218.3182384967804	0.10001659393310547
43	198.14630007743835	fix_pre	0		120	41.0	2.5	/experiments/knapen_AOT/AOT_stimuli/rescaled_final/1426_fw.mp4	0.0	218.4182550907135	1.0085651874542236
43	198.7298936843872	pulse	0	t		41.0	2.5	/experiments/knapen_AOT/AOT_stimuli/rescaled_final/1426_fw.mp4	0.0	219.00184869766235	
43	199.15486526489258	movie	1		269	41.0	2.5	/experiments/knapen_AOT/AOT_stimuli/rescaled_final/1426_fw.mp4	0.0	219.42682027816772	2.491966724395752
43	200.33041906356812	pulse	1	t		41.0	2.5	/experiments/knapen_AOT/AOT_stimuli/rescaled_final/1426_fw.mp4	0.0	220.60237407684326	
43	201.64683198928833	fix_post	2		12	41.0	2.5	/experiments/knapen_AOT/AOT_stimuli/rescaled_final/1426_fw.mp4	0.0	221.91878700256348	0.10001802444458008
44	201.7468500137329	fix_pre	0		120	42.0	2.5	/experiments/knapen_AOT/AOT_stimuli/rescaled_final/2113_fw.mp4	0.0	222.01880502700806	1.0084600448608398
44	201.93033647537231	pulse	0	t		42.0	2.5	/experiments/knapen_AOT/AOT_stimuli/rescaled_final/2113_fw.mp4	0.0	222.20229148864746	
44	202.75531005859375	movie	1		274	42.0	2.5	/experiments/knapen_AOT/AOT_stimuli/rescaled_final/2113_fw.mp4	0.0	223.0272650718689	2.4921486377716064
44	203.5295445919037	pulse	1	t		42.0	2.5	/experiments/knapen_AOT/AOT_stimuli/rescaled_final/2113_fw.mp4	0.0	223.80149960517883	
44	205.1291527748108	pulse	1	t		42.0	2.5	/experiments/knapen_AOT/AOT_stimuli/rescaled_final/2113_fw.mp4	0.0	225.40110778808594	
44	205.24745869636536	fix_post	2		12	42.0	2.5	/experiments/knapen_AOT/AOT_stimuli/rescaled_final/2113_fw.mp4	0.0	225.5194137096405	0.09991621971130371
45	205.34737491607666	fix_pre	0		120	43.0	2.5	/experiments/knapen_AOT/AOT_stimuli/rescaled_final/1202_fw.mp4	0.0	225.6193299293518	1.0085415840148926
45	206.35591650009155	movie	1		279	43.0	2.5	/experiments/knapen_AOT/AOT_stimuli/rescaled_final/1202_fw.mp4	0.0	226.6278715133667	2.492018699645996
45	206.73127341270447	pulse	1	t		43.0	2.5	/experiments/knapen_AOT/AOT_stimuli/rescaled_final/1202_fw.mp4	0.0	227.00322842597961	
45	208.3308699131012	pulse	1	t		43.0	2.5	/experiments/knapen_AOT/AOT_stimuli/rescaled_final/1202_fw.mp4	0.0	228.60282492637634	
45	208.84793519973755	fix_post	2		12	43.0	2.5	/experiments/knapen_AOT/AOT_stimuli/rescaled_final/1202_fw.mp4	0.0	229.1198902130127	0.10003113746643066
46	208.94796633720398	fix_pre	0		119	44.0	2.5	/experiments/knapen_AOT/AOT_stimuli/rescaled_final/0115_fw.mp4	0.0	229.21992135047913	1.0001335144042969
46	209.9315264225006	pulse	0	t		44.0	2.5	/experiments/knapen_AOT/AOT_stimuli/rescaled_final/0115_fw.mp4	0.0	230.20348143577576	
46	209.94809985160828	movie	1		280	44.0	2.5	/experiments/knapen_AOT/AOT_stimuli/rescaled_final/0115_fw.mp4	0.0	230.22005486488342	2.500336170196533
46	211.53021097183228	pulse	1	t		44.0	2.5	/experiments/knapen_AOT/AOT_stimuli/rescaled_final/0115_fw.mp4	0.0	231.80216598510742	
46	212.4484360218048	fix_post	2		12	44.0	2.5	/experiments/knapen_AOT/AOT_stimuli/rescaled_final/0115_fw.mp4	0.0	232.72039103507996	0.10004878044128418
47	212.5484848022461	fix_pre	0		120	45.0	2.5	/experiments/knapen_AOT/AOT_stimuli/rescaled_final/2121_fw.mp4	0.0	232.82043981552124	1.0084850788116455
47	213.12397265434265	pulse	0	t		45.0	2.5	/experiments/knapen_AOT/AOT_stimuli/rescaled_final/2121_fw.mp4	0.0	233.3959276676178	
47	213.55696988105774	movie	1		279	45.0	2.5	/experiments/knapen_AOT/AOT_stimuli/rescaled_final/2121_fw.mp4	0.0	233.82892489433289	2.492025852203369
47	214.72408151626587	pulse	1	t		45.0	2.5	/experiments/knapen_AOT/AOT_stimuli/rescaled_final/2121_fw.mp4	0.0	234.99603652954102	
47	216.0489957332611	fix_post	2		12	45.0	2.5	/experiments/knapen_AOT/AOT_stimuli/rescaled_final/2121_fw.mp4	0.0	236.32095074653625	0.10001683235168457
48	216.1490125656128	fix_pre	0		120	46.0	2.5	/experiments/knapen_AOT/AOT_stimuli/rescaled_final/0919_rv.mp4	0.0	236.42096757888794	1.008469820022583
48	216.324209690094	pulse	0	t		46.0	2.5	/experiments/knapen_AOT/AOT_stimuli/rescaled_final/0919_rv.mp4	0.0	236.59616470336914	
48	217.15748238563538	movie	1		273	46.0	2.5	/experiments/knapen_AOT/AOT_stimuli/rescaled_final/0919_rv.mp4	0.0	237.42943739891052	2.492042064666748
48	217.9245777130127	pulse	1	t		46.0	2.5	/experiments/knapen_AOT/AOT_stimuli/rescaled_final/0919_rv.mp4	0.0	238.19653272628784	
48	219.52497482299805	pulse	1	t		46.0	2.5	/experiments/knapen_AOT/AOT_stimuli/rescaled_final/0919_rv.mp4	0.0	239.7969298362732	
48	219.64952445030212	fix_post	2		12	46.0	2.5	/experiments/knapen_AOT/AOT_stimuli/rescaled_final/0919_rv.mp4	0.0	239.92147946357727	0.10001921653747559
49	219.7495436668396	fix_pre	0		120	47.0	2.5	blank	1.0	240.02149868011475	1.0001823902130127
49	220.7497260570526	movie	1		284	47.0	2.5	blank	1.0	241.02168107032776	2.5003652572631836
49	221.12490153312683	pulse	1	t		47.0	2.5	blank	1.0	241.39685654640198	
49	222.7252607345581	pulse	1	t		47.0	2.5	blank	1.0	242.99721574783325	
49	223.2500913143158	fix_post	2		12	47.0	2.5	blank	1.0	243.52204632759094	0.10003662109375
50	223.35012793540955	fix_pre	0		118	48.0	2.5	/experiments/knapen_AOT/AOT_stimuli/rescaled_final/0929_rv.mp4	0.0	243.6220829486847	0.9918124675750732
50	224.32584643363953	pulse	0	t		48.0	2.5	/experiments/knapen_AOT/AOT_stimuli/rescaled_final/0929_rv.mp4	0.0	244.59780144691467	
50	224.34194040298462	movie	1		289	48.0	2.5	/experiments/knapen_AOT/AOT_stimuli/rescaled_final/0929_rv.mp4	0.0	244.61389541625977	2.5003678798675537
50	225.9243037700653	pulse	1	t		48.0	2.5	/experiments/knapen_AOT/AOT_stimuli/rescaled_final/0929_rv.mp4	0.0	246.19625878334045	
50	226.84230828285217	fix_post	2		12	48.0	2.5	/experiments/knapen_AOT/AOT_stimuli/rescaled_final/0929_rv.mp4	0.0	247.11426329612732	0.10001039505004883
51	226.94231867790222	fix_pre	0		120	49.0	2.5	/experiments/knapen_AOT/AOT_stimuli/rescaled_final/1433_fw.mp4	0.0	247.21427369117737	1.0085132122039795
51	227.52589201927185	pulse	0	t		49.0	2.5	/experiments/knapen_AOT/AOT_stimuli/rescaled_final/1433_fw.mp4	0.0	247.797847032547	
51	227.9508318901062	movie	1		284	49.0	2.5	/experiments/knapen_AOT/AOT_stimuli/rescaled_final/1433_fw.mp4	0.0	248.22278690338135	2.4919798374176025
51	229.12612676620483	pulse	1	t		49.0	2.5	/experiments/knapen_AOT/AOT_stimuli/rescaled_final/1433_fw.mp4	0.0	249.39808177947998	
51	230.4428117275238	fix_post	2		12	49.0	2.5	/experiments/knapen_AOT/AOT_stimuli/rescaled_final/1433_fw.mp4	0.0	250.71476674079895	0.10013532638549805
52	230.5429470539093	fix_pre	0		120	50.0	2.5	/experiments/knapen_AOT/AOT_stimuli/rescaled_final/1919_fw.mp4	0.0	250.81490206718445	1.0084919929504395
52	230.72639513015747	pulse	0	t		50.0	2.5	/experiments/knapen_AOT/AOT_stimuli/rescaled_final/1919_fw.mp4	0.0	250.99835014343262	
52	231.55143904685974	movie	1		282	50.0	2.5	/experiments/knapen_AOT/AOT_stimuli/rescaled_final/1919_fw.mp4	0.0	251.8233940601349	2.491971015930176
52	232.32508277893066	pulse	1	t		50.0	2.5	/experiments/knapen_AOT/AOT_stimuli/rescaled_final/1919_fw.mp4	0.0	252.5970377922058	
52	233.92489457130432	pulse	1	t		50.0	2.5	/experiments/knapen_AOT/AOT_stimuli/rescaled_final/1919_fw.mp4	0.0	254.19684958457947	
52	234.04341006278992	fix_post	2		12	50.0	2.5	/experiments/knapen_AOT/AOT_stimuli/rescaled_final/1919_fw.mp4	0.0	254.31536507606506	0.10000276565551758
53	234.14341282844543	fix_pre	0		120	51.0	2.5	/experiments/knapen_AOT/AOT_stimuli/rescaled_final/1426_fw.mp4	0.0	254.41536784172058	1.0084445476531982
53	235.15185737609863	movie	1		272	51.0	2.5	/experiments/knapen_AOT/AOT_stimuli/rescaled_final/1426_fw.mp4	0.0	255.42381238937378	2.492063045501709
53	235.5278148651123	pulse	1	t		51.0	2.5	/experiments/knapen_AOT/AOT_stimuli/rescaled_final/1426_fw.mp4	0.0	255.79976987838745	
53	237.12569284439087	pulse	1	t		51.0	2.5	/experiments/knapen_AOT/AOT_stimuli/rescaled_final/1426_fw.mp4	0.0	257.397647857666	
53	237.64392042160034	fix_post	2		12	51.0	2.5	/experiments/knapen_AOT/AOT_stimuli/rescaled_final/1426_fw.mp4	0.0	257.9158754348755	0.09998941421508789
54	237.74390983581543	fix_pre	0		119	52.0	2.5	/experiments/knapen_AOT/AOT_stimuli/rescaled_final/2171_fw.mp4	0.0	258.0158648490906	1.0003001689910889
54	238.72761821746826	pulse	0	t		52.0	2.5	/experiments/knapen_AOT/AOT_stimuli/rescaled_final/2171_fw.mp4	0.0	258.9995732307434	
54	238.74421000480652	movie	1		276	52.0	2.5	/experiments/knapen_AOT/AOT_stimuli/rescaled_final/2171_fw.mp4	0.0	259.01616501808167	2.5003247261047363
54	240.32751369476318	pulse	1	t		52.0	2.5	/experiments/knapen_AOT/AOT_stimuli/rescaled_final/2171_fw.mp4	0.0	260.59946870803833	
54	241.24453473091125	fix_post	2		12	52.0	2.5	/experiments/knapen_AOT/AOT_stimuli/rescaled_final/2171_fw.mp4	0.0	261.5164897441864	0.09996914863586426
55	241.34450387954712	fix_pre	0		120	53.0	2.5	/experiments/knapen_AOT/AOT_stimuli/rescaled_final/0791_rv.mp4	0.0	261.61645889282227	1.0084736347198486
55	241.92807817459106	pulse	0	t		53.0	2.5	/experiments/knapen_AOT/AOT_stimuli/rescaled_final/0791_rv.mp4	0.0	262.2000331878662	
55	242.35297751426697	movie	1		279	53.0	2.5	/experiments/knapen_AOT/AOT_stimuli/rescaled_final/0791_rv.mp4	0.0	262.6249325275421	2.4920310974121094
55	243.5276358127594	pulse	1	t		53.0	2.5	/experiments/knapen_AOT/AOT_stimuli/rescaled_final/0791_rv.mp4	0.0	263.79959082603455	
55	244.84500861167908	fix_post	2		12	53.0	2.5	/experiments/knapen_AOT/AOT_stimuli/rescaled_final/0791_rv.mp4	0.0	265.1169636249542	0.09998679161071777
56	244.9449954032898	fix_pre	0		120	54.0	2.5	blank	1.0	265.21695041656494	1.000150203704834
56	245.12858724594116	pulse	0	t		54.0	2.5	blank	1.0	265.4005422592163	
56	245.94514560699463	movie	1		300	54.0	2.5	blank	1.0	266.2171006202698	2.5004589557647705
56	246.7287893295288	pulse	1	t		54.0	2.5	blank	1.0	267.00074434280396	
56	248.32903170585632	pulse	1	t		54.0	2.5	blank	1.0	268.60098671913147	
56	248.4456045627594	fix_post	2		12	54.0	2.5	blank	1.0	268.71755957603455	0.09999847412109375
57	248.5456030368805	fix_pre	0		120	55.0	2.5	/experiments/knapen_AOT/AOT_stimuli/rescaled_final/1639_rv.mp4	0.0	268.81755805015564	1.0084254741668701
57	249.55402851104736	movie	1		276	55.0	2.5	/experiments/knapen_AOT/AOT_stimuli/rescaled_final/1639_rv.mp4	0.0	269.8259835243225	2.4920496940612793
57	249.92819929122925	pulse	1	t		55.0	2.5	/experiments/knapen_AOT/AOT_stimuli/rescaled_final/1639_rv.mp4	0.0	270.2001543045044	
57	251.52739906311035	pulse	1	t		55.0	2.5	/experiments/knapen_AOT/AOT_stimuli/rescaled_final/1639_rv.mp4	0.0	271.7993540763855	
57	252.04607820510864	fix_post	2		12	55.0	2.5	/experiments/knapen_AOT/AOT_stimuli/rescaled_final/1639_rv.mp4	0.0	272.3180332183838	0.10003042221069336
58	252.14610862731934	fix_pre	0		119	56.0	2.5	/experiments/knapen_AOT/AOT_stimuli/rescaled_final/0592_fw.mp4	0.0	272.4180636405945	1.0001320838928223
58	253.12998795509338	pulse	0	t		56.0	2.5	/experiments/knapen_AOT/AOT_stimuli/rescaled_final/0592_fw.mp4	0.0	273.40194296836853	
58	253.14624071121216	movie	1		284	56.0	2.5	/experiments/knapen_AOT/AOT_stimuli/rescaled_final/0592_fw.mp4	0.0	273.4181957244873	2.500431776046753
58	254.72819089889526	pulse	1	t		56.0	2.5	/experiments/knapen_AOT/AOT_stimuli/rescaled_final/0592_fw.mp4	0.0	275.0001459121704	
58	255.6466724872589	fix_post	2		12	56.0	2.5	/experiments/knapen_AOT/AOT_stimuli/rescaled_final/0592_fw.mp4	0.0	275.91862750053406	0.10006046295166016
59	255.74673295021057	fix_pre	0		120	57.0	2.5	/experiments/knapen_AOT/AOT_stimuli/rescaled_final/0294_rv.mp4	0.0	276.0186879634857	1.0083749294281006
59	256.33034205436707	pulse	0	t		57.0	2.5	/experiments/knapen_AOT/AOT_stimuli/rescaled_final/0294_rv.mp4	0.0	276.6022970676422	
59	256.7551078796387	movie	1		265	57.0	2.5	/experiments/knapen_AOT/AOT_stimuli/rescaled_final/0294_rv.mp4	0.0	277.0270628929138	2.492069721221924
59	257.93076515197754	pulse	1	t		57.0	2.5	/experiments/knapen_AOT/AOT_stimuli/rescaled_final/0294_rv.mp4	0.0	278.2027201652527	
59	259.2471776008606	fix_post	2		12	57.0	2.5	/experiments/knapen_AOT/AOT_stimuli/rescaled_final/0294_rv.mp4	0.0	279.51913261413574	0.09999728202819824
60	259.3471748828888	fix_pre	0		120	58.0	2.5	/experiments/knapen_AOT/AOT_stimuli/rescaled_final/0536_rv.mp4	0.0	279.61912989616394	1.0085055828094482
60	259.53074407577515	pulse	0	t		58.0	2.5	/experiments/knapen_AOT/AOT_stimuli/rescaled_final/0536_rv.mp4	0.0	279.8026990890503	
60	260.35568046569824	movie	1		276	58.0	2.5	/experiments/knapen_AOT/AOT_stimuli/rescaled_final/0536_rv.mp4	0.0	280.6276354789734	2.4922032356262207
60	261.12939381599426	pulse	1	t		58.0	2.5	/experiments/knapen_AOT/AOT_stimuli/rescaled_final/0536_rv.mp4	0.0	281.4013488292694	
60	262.72903323173523	pulse	1	t		58.0	2.5	/experiments/knapen_AOT/AOT_stimuli/rescaled_final/0536_rv.mp4	0.0	283.0009882450104	
60	262.84788370132446	fix_post	2		12	58.0	2.5	/experiments/knapen_AOT/AOT_stimuli/rescaled_final/0536_rv.mp4	0.0	283.1198387145996	0.09987783432006836
61	262.94776153564453	fix_pre	0		120	59.0	2.5	/experiments/knapen_AOT/AOT_stimuli/rescaled_final/0573_rv.mp4	0.0	283.2197165489197	1.0084824562072754
61	263.9562439918518	movie	1		272	59.0	2.5	/experiments/knapen_AOT/AOT_stimuli/rescaled_final/0573_rv.mp4	0.0	284.22819900512695	2.492048978805542
61	264.33007192611694	pulse	1	t		59.0	2.5	/experiments/knapen_AOT/AOT_stimuli/rescaled_final/0573_rv.mp4	0.0	284.6020269393921	
61	265.9294376373291	pulse	1	t		59.0	2.5	/experiments/knapen_AOT/AOT_stimuli/rescaled_final/0573_rv.mp4	0.0	286.20139265060425	
61	266.44829297065735	fix_post	2		12	59.0	2.5	/experiments/knapen_AOT/AOT_stimuli/rescaled_final/0573_rv.mp4	0.0	286.7202479839325	0.09995079040527344
62	266.5482437610626	fix_pre	0		119	60.0	2.5	/experiments/knapen_AOT/AOT_stimuli/rescaled_final/1324_rv.mp4	0.0	286.82019877433777	1.0001561641693115
62	267.5321536064148	pulse	0	t		60.0	2.5	/experiments/knapen_AOT/AOT_stimuli/rescaled_final/1324_rv.mp4	0.0	287.80410861968994	
62	267.54839992523193	movie	1		282	60.0	2.5	/experiments/knapen_AOT/AOT_stimuli/rescaled_final/1324_rv.mp4	0.0	287.8203549385071	2.5004642009735107
62	269.13228726387024	pulse	1	t		60.0	2.5	/experiments/knapen_AOT/AOT_stimuli/rescaled_final/1324_rv.mp4	0.0	289.4042422771454	
62	270.04886412620544	fix_post	2		12	60.0	2.5	/experiments/knapen_AOT/AOT_stimuli/rescaled_final/1324_rv.mp4	0.0	290.3208191394806	0.09996247291564941
63	270.1488265991211	fix_pre	0		120	61.0	2.5	/experiments/knapen_AOT/AOT_stimuli/rescaled_final/1755_fw.mp4	0.0	290.42078161239624	1.0084619522094727
63	270.7245304584503	pulse	0	t		61.0	2.5	/experiments/knapen_AOT/AOT_stimuli/rescaled_final/1755_fw.mp4	0.0	290.99648547172546	
63	271.15728855133057	movie	1		280	61.0	2.5	/experiments/knapen_AOT/AOT_stimuli/rescaled_final/1755_fw.mp4	0.0	291.4292435646057	2.492030143737793
63	272.3244242668152	pulse	1	t		61.0	2.5	/experiments/knapen_AOT/AOT_stimuli/rescaled_final/1755_fw.mp4	0.0	292.59637928009033	
63	273.64931869506836	fix_post	2		12	61.0	2.5	/experiments/knapen_AOT/AOT_stimuli/rescaled_final/1755_fw.mp4	0.0	293.9212737083435	0.1000058650970459
64	273.7493245601654	fix_pre	0		120	62.0	2.5	blank	1.0	294.02127957344055	1.0001497268676758
64	273.92456340789795	pulse	0	t		62.0	2.5	blank	1.0	294.1965184211731	
64	274.7494742870331	movie	1		300	62.0	2.5	blank	1.0	295.0214293003082	2.500366449356079
64	275.5248591899872	pulse	1	t		62.0	2.5	blank	1.0	295.79681420326233	
64	277.125018119812	pulse	1	t		62.0	2.5	blank	1.0	297.39697313308716	
64	277.24984073638916	fix_post	2		12	62.0	2.5	blank	1.0	297.5217957496643	0.10009527206420898
65	277.34993600845337	fix_pre	0		120	63.0	2.5	/experiments/knapen_AOT/AOT_stimuli/rescaled_final/1506_rv.mp4	0.0	297.6218910217285	1.008495569229126
65	278.3584315776825	movie	1		279	63.0	2.5	/experiments/knapen_AOT/AOT_stimuli/rescaled_final/1506_rv.mp4	0.0	298.63038659095764	2.491962432861328
65	278.7253487110138	pulse	1	t		63.0	2.5	/experiments/knapen_AOT/AOT_stimuli/rescaled_final/1506_rv.mp4	0.0	298.99730372428894	
65	280.32556557655334	pulse	1	t		63.0	2.5	/experiments/knapen_AOT/AOT_stimuli/rescaled_final/1506_rv.mp4	0.0	300.5975205898285	
65	280.8503940105438	fix_post	2		12	63.0	2.5	/experiments/knapen_AOT/AOT_stimuli/rescaled_final/1506_rv.mp4	0.0	301.12234902381897	0.10001826286315918
66	280.950412273407	fix_pre	0		118	64.0	2.5	/experiments/knapen_AOT/AOT_stimuli/rescaled_final/1038_fw.mp4	0.0	301.22236728668213	0.9918351173400879
66	281.92577171325684	pulse	0	t		64.0	2.5	/experiments/knapen_AOT/AOT_stimuli/rescaled_final/1038_fw.mp4	0.0	302.197726726532	
66	281.94224739074707	movie	1		272	64.0	2.5	/experiments/knapen_AOT/AOT_stimuli/rescaled_final/1038_fw.mp4	0.0	302.2142024040222	2.5003626346588135
66	283.52563881874084	pulse	1	t		64.0	2.5	/experiments/knapen_AOT/AOT_stimuli/rescaled_final/1038_fw.mp4	0.0	303.797593832016	
66	284.4426100254059	fix_post	2		12	64.0	2.5	/experiments/knapen_AOT/AOT_stimuli/rescaled_final/1038_fw.mp4	0.0	304.71456503868103	0.10004353523254395
67	284.5426535606384	fix_pre	0		120	65.0	2.5	/experiments/knapen_AOT/AOT_stimuli/rescaled_final/0313_fw.mp4	0.0	304.8146085739136	1.0084843635559082
67	285.1262710094452	pulse	0	t		65.0	2.5	/experiments/knapen_AOT/AOT_stimuli/rescaled_final/0313_fw.mp4	0.0	305.39822602272034	
67	285.55113792419434	movie	1		277	65.0	2.5	/experiments/knapen_AOT/AOT_stimuli/rescaled_final/0313_fw.mp4	0.0	305.8230929374695	2.492003917694092
67	286.72507905960083	pulse	1	t		65.0	2.5	/experiments/knapen_AOT/AOT_stimuli/rescaled_final/0313_fw.mp4	0.0	306.997034072876	
67	288.0431418418884	fix_post	2		12	65.0	2.5	/experiments/knapen_AOT/AOT_stimuli/rescaled_final/0313_fw.mp4	0.0	308.3150968551636	0.10001826286315918
68	288.1431601047516	fix_pre	0		120	66.0	2.5	/experiments/knapen_AOT/AOT_stimuli/rescaled_final/1038_rv.mp4	0.0	308.41511511802673	1.0085182189941406
68	288.32676792144775	pulse	0	t		66.0	2.5	/experiments/knapen_AOT/AOT_stimuli/rescaled_final/1038_rv.mp4	0.0	308.5987229347229	
68	289.1516783237457	movie	1		278	66.0	2.5	/experiments/knapen_AOT/AOT_stimuli/rescaled_final/1038_rv.mp4	0.0	309.4236333370209	2.492037057876587
68	289.92482709884644	pulse	1	t		66.0	2.5	/experiments/knapen_AOT/AOT_stimuli/rescaled_final/1038_rv.mp4	0.0	310.1967821121216	
68	291.52511048316956	pulse	1	t		66.0	2.5	/experiments/knapen_AOT/AOT_stimuli/rescaled_final/1038_rv.mp4	0.0	311.7970654964447	
68	291.6437153816223	fix_post	2		12	66.0	2.5	/experiments/knapen_AOT/AOT_stimuli/rescaled_final/1038_rv.mp4	0.0	311.91567039489746	0.10000324249267578
69	291.743718624115	fix_pre	0		120	67.0	2.5	/experiments/knapen_AOT/AOT_stimuli/rescaled_final/1712_fw.mp4	0.0	312.01567363739014	1.0084402561187744
69	292.75215888023376	movie	1		280	67.0	2.5	/experiments/knapen_AOT/AOT_stimuli/rescaled_final/1712_fw.mp4	0.0	313.0241138935089	2.4920687675476074
69	293.1258227825165	pulse	1	t		67.0	2.5	/experiments/knapen_AOT/AOT_stimuli/rescaled_final/1712_fw.mp4	0.0	313.3977777957916	
69	294.72541308403015	pulse	1	t		67.0	2.5	/experiments/knapen_AOT/AOT_stimuli/rescaled_final/1712_fw.mp4	0.0	314.9973680973053	
69	295.2442276477814	fix_post	2		12	67.0	2.5	/experiments/knapen_AOT/AOT_stimuli/rescaled_final/1712_fw.mp4	0.0	315.5161826610565	0.10001516342163086
70	295.344242811203	fix_pre	0		119	68.0	2.5	/experiments/knapen_AOT/AOT_stimuli/rescaled_final/0860_fw.mp4	0.0	315.61619782447815	1.0001623630523682
70	296.3279387950897	pulse	0	t		68.0	2.5	/experiments/knapen_AOT/AOT_stimuli/rescaled_final/0860_fw.mp4	0.0	316.59989380836487	
70	296.34440517425537	movie	1		274	68.0	2.5	/experiments/knapen_AOT/AOT_stimuli/rescaled_final/0860_fw.mp4	0.0	316.6163601875305	2.500405788421631
70	297.92778730392456	pulse	1	t		68.0	2.5	/experiments/knapen_AOT/AOT_stimuli/rescaled_final/0860_fw.mp4	0.0	318.1997423171997	
70	298.844810962677	fix_post	2		12	68.0	2.5	/experiments/knapen_AOT/AOT_stimuli/rescaled_final/0860_fw.mp4	0.0	319.11676597595215	0.09997987747192383
71	298.9447908401489	fix_pre	0		120	69.0	2.5	/experiments/knapen_AOT/AOT_stimuli/rescaled_final/1763_fw.mp4	0.0	319.2167458534241	1.0085687637329102
71	299.528400182724	pulse	0	t		69.0	2.5	/experiments/knapen_AOT/AOT_stimuli/rescaled_final/1763_fw.mp4	0.0	319.80035519599915	
71	299.95335960388184	movie	1		288	69.0	2.5	/experiments/knapen_AOT/AOT_stimuli/rescaled_final/1763_fw.mp4	0.0	320.225314617157	2.4919521808624268
71	301.12703037261963	pulse	1	t		69.0	2.5	/experiments/knapen_AOT/AOT_stimuli/rescaled_final/1763_fw.mp4	0.0	321.3989853858948	
71	302.44531178474426	fix_post	2		12	69.0	2.5	/experiments/knapen_AOT/AOT_stimuli/rescaled_final/1763_fw.mp4	0.0	322.7172667980194	0.10000729560852051
72	302.5453190803528	fix_pre	0		120	70.0	2.5	blank	1.0	322.81727409362793	1.0001485347747803
72	302.7289409637451	pulse	0	t		70.0	2.5	blank	1.0	323.00089597702026	
72	303.54546761512756	movie	1		300	70.0	2.5	blank	1.0	323.8174226284027	2.5003838539123535
72	304.3291132450104	pulse	1	t		70.0	2.5	blank	1.0	324.6010682582855	
72	305.9293563365936	pulse	1	t		70.0	2.5	blank	1.0	326.2013113498688	
72	306.0458514690399	fix_post	2		12	70.0	2.5	blank	1.0	326.31780648231506	0.10000228881835938
73	306.1458537578583	fix_pre	0		120	71.0	2.5	/experiments/knapen_AOT/AOT_stimuli/rescaled_final/2121_fw.mp4	0.0	326.4178087711334	1.0085134506225586
73	307.15436720848083	movie	1		282	71.0	2.5	/experiments/knapen_AOT/AOT_stimuli/rescaled_final/2121_fw.mp4	0.0	327.426322221756	2.492021322250366
73	307.5301179885864	pulse	1	t		71.0	2.5	/experiments/knapen_AOT/AOT_stimuli/rescaled_final/2121_fw.mp4	0.0	327.8020730018616	
73	309.12756180763245	pulse	1	t		71.0	2.5	/experiments/knapen_AOT/AOT_stimuli/rescaled_final/2121_fw.mp4	0.0	329.3995168209076	
73	309.6463885307312	fix_post	2		12	71.0	2.5	/experiments/knapen_AOT/AOT_stimuli/rescaled_final/2121_fw.mp4	0.0	329.91834354400635	0.10000038146972656
74	309.7463889122009	fix_pre	0		119	72.0	2.5	/experiments/knapen_AOT/AOT_stimuli/rescaled_final/1930_rv.mp4	0.0	330.0183439254761	1.0001869201660156
74	310.73032546043396	pulse	0	t		72.0	2.5	/experiments/knapen_AOT/AOT_stimuli/rescaled_final/1930_rv.mp4	0.0	331.0022804737091	
74	310.74657583236694	movie	1		276	72.0	2.5	/experiments/knapen_AOT/AOT_stimuli/rescaled_final/1930_rv.mp4	0.0	331.0185308456421	2.5003628730773926
74	312.32866406440735	pulse	1	t		72.0	2.5	/experiments/knapen_AOT/AOT_stimuli/rescaled_final/1930_rv.mp4	0.0	332.6006190776825	
74	313.24693870544434	fix_post	2		12	72.0	2.5	/experiments/knapen_AOT/AOT_stimuli/rescaled_final/1930_rv.mp4	0.0	333.5188937187195	0.10000991821289062
75	313.3469486236572	fix_pre	0		120	73.0	2.5	/experiments/knapen_AOT/AOT_stimuli/rescaled_final/1355_fw.mp4	0.0	333.6189036369324	1.008530855178833
75	313.93047308921814	pulse	0	t		73.0	2.5	/experiments/knapen_AOT/AOT_stimuli/rescaled_final/1355_fw.mp4	0.0	334.2024281024933	
75	314.35547947883606	movie	1		275	73.0	2.5	/experiments/knapen_AOT/AOT_stimuli/rescaled_final/1355_fw.mp4	0.0	334.6274344921112	2.491985321044922
75	315.5288848876953	pulse	1	t		73.0	2.5	/experiments/knapen_AOT/AOT_stimuli/rescaled_final/1355_fw.mp4	0.0	335.80083990097046	
75	316.847464799881	fix_post	2		12	73.0	2.5	/experiments/knapen_AOT/AOT_stimuli/rescaled_final/1355_fw.mp4	0.0	337.1194198131561	0.10001206398010254
76	316.9474768638611	fix_pre	0		120	74.0	2.5	/experiments/knapen_AOT/AOT_stimuli/rescaled_final/1350_rv.mp4	0.0	337.21943187713623	1.0085084438323975
76	317.130982875824	pulse	0	t		74.0	2.5	/experiments/knapen_AOT/AOT_stimuli/rescaled_final/1350_rv.mp4	0.0	337.4029378890991	
76	317.9559853076935	movie	1		271	74.0	2.5	/experiments/knapen_AOT/AOT_stimuli/rescaled_final/1350_rv.mp4	0.0	338.2279403209686	2.4920053482055664
76	318.72954177856445	pulse	1	t		74.0	2.5	/experiments/knapen_AOT/AOT_stimuli/rescaled_final/1350_rv.mp4	0.0	339.0014967918396	
76	320.3295726776123	pulse	1	t		74.0	2.5	/experiments/knapen_AOT/AOT_stimuli/rescaled_final/1350_rv.mp4	0.0	340.60152769088745	
76	320.44799065589905	fix_post	2		12	74.0	2.5	/experiments/knapen_AOT/AOT_stimuli/rescaled_final/1350_rv.mp4	0.0	340.7199456691742	0.10004186630249023
77	320.54803252220154	fix_pre	0		120	75.0	2.5	blank	1.0	340.8199875354767	1.000138759613037
77	321.5481712818146	movie	1		300	75.0	2.5	blank	1.0	341.8201262950897	2.500398635864258
77	321.93184995651245	pulse	1	t		75.0	2.5	blank	1.0	342.2038049697876	
77	323.53218698501587	pulse	1	t		75.0	2.5	blank	1.0	343.804141998291	
77	324.04856991767883	fix_post	2		12	75.0	2.5	blank	1.0	344.320524930954	0.09999608993530273
78	324.14856600761414	fix_pre	0		119	76.0	2.5	/experiments/knapen_AOT/AOT_stimuli/rescaled_final/1722_fw.mp4	0.0	344.4205210208893	1.0085248947143555
78	325.1322910785675	pulse	0	t		76.0	2.5	/experiments/knapen_AOT/AOT_stimuli/rescaled_final/1722_fw.mp4	0.0	345.40424609184265	
78	325.1570909023285	movie	1		277	76.0	2.5	/experiments/knapen_AOT/AOT_stimuli/rescaled_final/1722_fw.mp4	0.0	345.42904591560364	2.4920079708099365
78	326.7326092720032	pulse	1	t		76.0	2.5	/experiments/knapen_AOT/AOT_stimuli/rescaled_final/1722_fw.mp4	0.0	347.0045642852783	
78	327.6490988731384	fix_post	2		12	76.0	2.5	/experiments/knapen_AOT/AOT_stimuli/rescaled_final/1722_fw.mp4	0.0	347.9210538864136	0.10002493858337402
79	327.7491238117218	fix_pre	0		120	77.0	2.5	/experiments/knapen_AOT/AOT_stimuli/rescaled_final/1602_fw.mp4	0.0	348.02107882499695	1.0085206031799316
79	328.32489347457886	pulse	0	t		77.0	2.5	/experiments/knapen_AOT/AOT_stimuli/rescaled_final/1602_fw.mp4	0.0	348.596848487854	
79	328.75764441490173	movie	1		264	77.0	2.5	/experiments/knapen_AOT/AOT_stimuli/rescaled_final/1602_fw.mp4	0.0	349.0295994281769	2.4919984340667725
79	329.92502999305725	pulse	1	t		77.0	2.5	/experiments/knapen_AOT/AOT_stimuli/rescaled_final/1602_fw.mp4	0.0	350.1969850063324	
79	331.2496428489685	fix_post	2		12	77.0	2.5	/experiments/knapen_AOT/AOT_stimuli/rescaled_final/1602_fw.mp4	0.0	351.52159786224365	0.10002326965332031
80	331.3496661186218	fix_pre	0		120	78.0	2.5	/experiments/knapen_AOT/AOT_stimuli/rescaled_final/1148_fw.mp4	0.0	351.621621131897	1.008479356765747
80	331.5250754356384	pulse	0	t		78.0	2.5	/experiments/knapen_AOT/AOT_stimuli/rescaled_final/1148_fw.mp4	0.0	351.7970304489136	
80	332.3581454753876	movie	1		277	78.0	2.5	/experiments/knapen_AOT/AOT_stimuli/rescaled_final/1148_fw.mp4	0.0	352.6301004886627	2.4920449256896973
80	333.1251332759857	pulse	1	t		78.0	2.5	/experiments/knapen_AOT/AOT_stimuli/rescaled_final/1148_fw.mp4	0.0	353.39708828926086	
80	334.72538900375366	pulse	1	t		78.0	2.5	/experiments/knapen_AOT/AOT_stimuli/rescaled_final/1148_fw.mp4	0.0	354.9973440170288	
80	334.85019040107727	fix_post	2		12	78.0	2.5	/experiments/knapen_AOT/AOT_stimuli/rescaled_final/1148_fw.mp4	0.0	355.1221454143524	0.09999585151672363
81	334.950186252594	fix_pre	0		120	79.0	2.5	/experiments/knapen_AOT/AOT_stimuli/rescaled_final/1876_rv.mp4	0.0	355.22214126586914	1.0085315704345703
81	335.95871782302856	movie	1		284	79.0	2.5	/experiments/knapen_AOT/AOT_stimuli/rescaled_final/1876_rv.mp4	0.0	356.2306728363037	2.492004632949829
81	336.3256371021271	pulse	1	t		79.0	2.5	/experiments/knapen_AOT/AOT_stimuli/rescaled_final/1876_rv.mp4	0.0	356.5975921154022	
81	337.9258906841278	pulse	1	t		79.0	2.5	/experiments/knapen_AOT/AOT_stimuli/rescaled_final/1876_rv.mp4	0.0	358.19784569740295	
81	338.4507224559784	fix_post	2		12	79.0	2.5	/experiments/knapen_AOT/AOT_stimuli/rescaled_final/1876_rv.mp4	0.0	358.72267746925354	0.10007953643798828
82	338.5508019924164	fix_pre	0		118	80.0	2.5	/experiments/knapen_AOT/AOT_stimuli/rescaled_final/0893_rv.mp4	0.0	358.8227570056915	0.9917230606079102
82	339.52614402770996	pulse	0	t		80.0	2.5	/experiments/knapen_AOT/AOT_stimuli/rescaled_final/0893_rv.mp4	0.0	359.7980990409851	
82	339.5425250530243	movie	1		276	80.0	2.5	/experiments/knapen_AOT/AOT_stimuli/rescaled_final/0893_rv.mp4	0.0	359.81448006629944	2.5004072189331055
82	341.1266152858734	pulse	1	t		80.0	2.5	/experiments/knapen_AOT/AOT_stimuli/rescaled_final/0893_rv.mp4	0.0	361.39857029914856	
82	342.0429322719574	fix_post	2		12	80.0	2.5	/experiments/knapen_AOT/AOT_stimuli/rescaled_final/0893_rv.mp4	0.0	362.31488728523254	0.1000521183013916
83	342.1429843902588	fix_pre	0		120	81.0	2.5	/experiments/knapen_AOT/AOT_stimuli/rescaled_final/1256_fw.mp4	0.0	362.41493940353394	1.0083928108215332
83	342.7265682220459	pulse	0	t		81.0	2.5	/experiments/knapen_AOT/AOT_stimuli/rescaled_final/1256_fw.mp4	0.0	362.99852323532104	
83	343.1513772010803	movie	1		275	81.0	2.5	/experiments/knapen_AOT/AOT_stimuli/rescaled_final/1256_fw.mp4	0.0	363.42333221435547	2.492110252380371
83	344.3249831199646	pulse	1	t		81.0	2.5	/experiments/knapen_AOT/AOT_stimuli/rescaled_final/1256_fw.mp4	0.0	364.59693813323975	
83	345.6434874534607	fix_post	2		12	81.0	2.5	/experiments/knapen_AOT/AOT_stimuli/rescaled_final/1256_fw.mp4	0.0	365.91544246673584	0.09998512268066406
84	345.74347257614136	fix_pre	0		120	82.0	2.5	blank	1.0	366.0154275894165	1.0001764297485352
84	345.92737436294556	pulse	0	t		82.0	2.5	blank	1.0	366.1993293762207	
84	346.7436490058899	movie	1		300	82.0	2.5	blank	1.0	367.01560401916504	2.500351667404175
84	347.52781987190247	pulse	1	t		82.0	2.5	blank	1.0	367.7997748851776	
84	349.1277987957001	pulse	1	t		82.0	2.5	blank	1.0	369.3997538089752	
84	349.24400067329407	fix_post	2		12	82.0	2.5	blank	1.0	369.5159556865692	0.10007214546203613
85	349.3440728187561	fix_pre	0		120	83.0	2.5	/experiments/knapen_AOT/AOT_stimuli/rescaled_final/0294_fw.mp4	0.0	369.61602783203125	1.0084502696990967
85	350.3525230884552	movie	1		280	83.0	2.5	/experiments/knapen_AOT/AOT_stimuli/rescaled_final/0294_fw.mp4	0.0	370.62447810173035	2.4922475814819336
85	350.72668623924255	pulse	1	t		83.0	2.5	/experiments/knapen_AOT/AOT_stimuli/rescaled_final/0294_fw.mp4	0.0	370.9986412525177	
85	352.3259747028351	pulse	1	t		83.0	2.5	/experiments/knapen_AOT/AOT_stimuli/rescaled_final/0294_fw.mp4	0.0	372.59792971611023	
85	352.84477066993713	fix_post	2		12	83.0	2.5	/experiments/knapen_AOT/AOT_stimuli/rescaled_final/0294_fw.mp4	0.0	373.1167256832123	0.09980249404907227
87	352.9445731639862	stim	0		1715					373.21652817726135	14.293819904327393
87	353.92832469940186	pulse	0	t						374.200279712677	
87	355.52879190444946	pulse	0	t						375.8007469177246	
87	357.12892723083496	pulse	0	t						377.4008822441101	
87	358.7295079231262	pulse	0	t						379.00146293640137	
87	360.32968187332153	pulse	0	t						380.6016368865967	
87	361.9294412136078	pulse	0	t						382.20139622688293	
87	363.5297038555145	pulse	0	t						383.8016588687897	
87	365.1301031112671	pulse	0	t						385.40205812454224	
87	366.7302055358887	pulse	0	t						387.0021605491638	
