trial_nr	onset	event_type	phase	response	nr_frames	movie_index	movie_duration	movie_file	blank	onset_abs	duration
0	0.16649508476257324	stim	0		1					16.20950722694397	0.008315563201904297
0	0.11252808570861816	response	0	space						16.155540227890015	
1	0.17481064796447754	stim	0		4714					16.217822790145874	39.300599336624146
1	39.46574807167053	pulse	0	t						55.50876021385193	
1	39.47540998458862	stim	1		1715					55.51842212677002	14.307364225387573
1	41.056313037872314	pulse	1	t						57.09932518005371	
1	42.65638852119446	pulse	1	t						58.699400663375854	
1	44.25666880607605	pulse	1	t						60.299680948257446	
1	45.856757402420044	pulse	1	t						61.89976954460144	
1	47.457398891448975	pulse	1	t						63.50041103363037	
1	49.05757284164429	pulse	1	t						65.10058498382568	
1	50.65753483772278	pulse	1	t						66.70054697990417	
1	52.257763385772705	pulse	1	t						68.3007755279541	
2	53.782774209976196	fix_pre	0		10	0.0	2.5	/experiments/Knapen_AOT/AOT_stimuli/rescaled_final/0272_fw.mp4	0.0	69.82578635215759	0.10006308555603027
2	53.85800790786743	pulse	0	t		0.0	2.5	/experiments/Knapen_AOT/AOT_stimuli/rescaled_final/0272_fw.mp4	0.0	69.90102005004883	
2	53.88283729553223	movie	1		278	0.0	2.5	/experiments/Knapen_AOT/AOT_stimuli/rescaled_final/0272_fw.mp4	0.0	69.92584943771362	2.4920003414154053
2	55.45765542984009	pulse	1	t		0.0	2.5	/experiments/Knapen_AOT/AOT_stimuli/rescaled_final/0272_fw.mp4	0.0	71.50066757202148	
2	56.37483763694763	fix_post	2		12	0.0	2.5	/experiments/Knapen_AOT/AOT_stimuli/rescaled_final/0272_fw.mp4	0.0	72.41784977912903	0.10000205039978027
3	56.47483968734741	fix_pre	0		120	1.0	2.5	/experiments/Knapen_AOT/AOT_stimuli/rescaled_final/1977_rv.mp4	0.0	72.51785182952881	1.008490800857544
3	57.05847978591919	pulse	0	t		1.0	2.5	/experiments/Knapen_AOT/AOT_stimuli/rescaled_final/1977_rv.mp4	0.0	73.10149192810059	
3	57.483330488204956	movie	1		290	1.0	2.5	/experiments/Knapen_AOT/AOT_stimuli/rescaled_final/1977_rv.mp4	0.0	73.52634263038635	2.492062568664551
3	58.6568922996521	pulse	1	t		1.0	2.5	/experiments/Knapen_AOT/AOT_stimuli/rescaled_final/1977_rv.mp4	0.0	74.6999044418335	
3	59.97539305686951	fix_post	2		12	1.0	2.5	/experiments/Knapen_AOT/AOT_stimuli/rescaled_final/1977_rv.mp4	0.0	76.0184051990509	0.09999489784240723
4	60.075387954711914	fix_pre	0		120	2.0	2.5	/experiments/Knapen_AOT/AOT_stimuli/rescaled_final/0606_rv.mp4	0.0	76.11840009689331	1.008530855178833
4	60.258970737457275	pulse	0	t		2.0	2.5	/experiments/Knapen_AOT/AOT_stimuli/rescaled_final/0606_rv.mp4	0.0	76.30198287963867	
4	61.08391880989075	movie	1		276	2.0	2.5	/experiments/Knapen_AOT/AOT_stimuli/rescaled_final/0606_rv.mp4	0.0	77.12693095207214	2.4920034408569336
4	61.85696053504944	pulse	1	t		2.0	2.5	/experiments/Knapen_AOT/AOT_stimuli/rescaled_final/0606_rv.mp4	0.0	77.89997267723083	
4	63.457441091537476	pulse	1	t		2.0	2.5	/experiments/Knapen_AOT/AOT_stimuli/rescaled_final/0606_rv.mp4	0.0	79.50045323371887	
4	63.57592225074768	fix_post	2		12	2.0	2.5	/experiments/Knapen_AOT/AOT_stimuli/rescaled_final/0606_rv.mp4	0.0	79.61893439292908	0.10001468658447266
5	63.67593693733215	fix_pre	0		120	3.0	2.5	/experiments/Knapen_AOT/AOT_stimuli/rescaled_final/2007_fw.mp4	0.0	79.71894907951355	1.0085041522979736
5	64.68444108963013	movie	1		280	3.0	2.5	/experiments/Knapen_AOT/AOT_stimuli/rescaled_final/2007_fw.mp4	0.0	80.72745323181152	2.4920120239257812
5	65.05798864364624	pulse	1	t		3.0	2.5	/experiments/Knapen_AOT/AOT_stimuli/rescaled_final/2007_fw.mp4	0.0	81.10100078582764	
5	66.65798950195312	pulse	1	t		3.0	2.5	/experiments/Knapen_AOT/AOT_stimuli/rescaled_final/2007_fw.mp4	0.0	82.70100164413452	
5	67.17645311355591	fix_post	2		12	3.0	2.5	/experiments/Knapen_AOT/AOT_stimuli/rescaled_final/2007_fw.mp4	0.0	83.2194652557373	0.10000348091125488
6	67.27645659446716	fix_pre	0		119	4.0	2.5	/experiments/Knapen_AOT/AOT_stimuli/rescaled_final/0362_rv.mp4	0.0	83.31946873664856	1.000199317932129
6	68.26014804840088	pulse	0	t		4.0	2.5	/experiments/Knapen_AOT/AOT_stimuli/rescaled_final/0362_rv.mp4	0.0	84.30316019058228	
6	68.27665591239929	movie	1		288	4.0	2.5	/experiments/Knapen_AOT/AOT_stimuli/rescaled_final/0362_rv.mp4	0.0	84.31966805458069	2.5004234313964844
6	69.85870027542114	pulse	1	t		4.0	2.5	/experiments/Knapen_AOT/AOT_stimuli/rescaled_final/0362_rv.mp4	0.0	85.90171241760254	
6	70.77707934379578	fix_post	2		12	4.0	2.5	/experiments/Knapen_AOT/AOT_stimuli/rescaled_final/0362_rv.mp4	0.0	86.82009148597717	0.09997749328613281
7	70.87705683708191	fix_pre	0		120	5.0	2.5	blank	1.0	86.9200689792633	1.0001051425933838
7	71.46072816848755	pulse	0	t		5.0	2.5	blank	1.0	87.50374031066895	
7	71.8771619796753	movie	1		300	5.0	2.5	blank	1.0	87.92017412185669	2.500368118286133
7	73.06084513664246	pulse	1	t		5.0	2.5	blank	1.0	89.10385727882385	
7	74.37753009796143	fix_post	2		12	5.0	2.5	blank	1.0	90.42054224014282	0.1000211238861084
8	74.47755122184753	fix_pre	0		120	6.0	2.5	/experiments/Knapen_AOT/AOT_stimuli/rescaled_final/0809_rv.mp4	0.0	90.52056336402893	1.0085115432739258
8	74.6611065864563	pulse	0	t		6.0	2.5	/experiments/Knapen_AOT/AOT_stimuli/rescaled_final/0809_rv.mp4	0.0	90.7041187286377	
8	75.48606276512146	movie	1		284	6.0	2.5	/experiments/Knapen_AOT/AOT_stimuli/rescaled_final/0809_rv.mp4	0.0	91.52907490730286	2.4922714233398438
8	76.25944662094116	pulse	1	t		6.0	2.5	/experiments/Knapen_AOT/AOT_stimuli/rescaled_final/0809_rv.mp4	0.0	92.30245876312256	
8	77.85961437225342	pulse	1	t		6.0	2.5	/experiments/Knapen_AOT/AOT_stimuli/rescaled_final/0809_rv.mp4	0.0	93.90262651443481	
8	77.9783341884613	fix_post	2		12	6.0	2.5	/experiments/Knapen_AOT/AOT_stimuli/rescaled_final/0809_rv.mp4	0.0	94.0213463306427	0.09975194931030273
9	78.0780861377716	fix_pre	0		120	7.0	2.5	/experiments/Knapen_AOT/AOT_stimuli/rescaled_final/0918_rv.mp4	0.0	94.121098279953	1.0085337162017822
9	79.08661985397339	movie	1		285	7.0	2.5	/experiments/Knapen_AOT/AOT_stimuli/rescaled_final/0918_rv.mp4	0.0	95.12963199615479	2.492013692855835
9	79.46025252342224	pulse	1	t		7.0	2.5	/experiments/Knapen_AOT/AOT_stimuli/rescaled_final/0918_rv.mp4	0.0	95.50326466560364	
9	81.05998635292053	pulse	1	t		7.0	2.5	/experiments/Knapen_AOT/AOT_stimuli/rescaled_final/0918_rv.mp4	0.0	97.10299849510193	
9	81.57863354682922	fix_post	2		12	7.0	2.5	/experiments/Knapen_AOT/AOT_stimuli/rescaled_final/0918_rv.mp4	0.0	97.62164568901062	0.09999847412109375
10	81.67863202095032	fix_pre	0		119	8.0	2.5	/experiments/Knapen_AOT/AOT_stimuli/rescaled_final/0080_rv.mp4	0.0	97.72164416313171	1.0001780986785889
10	82.66229557991028	pulse	0	t		8.0	2.5	/experiments/Knapen_AOT/AOT_stimuli/rescaled_final/0080_rv.mp4	0.0	98.70530772209167	
10	82.6788101196289	movie	1		274	8.0	2.5	/experiments/Knapen_AOT/AOT_stimuli/rescaled_final/0080_rv.mp4	0.0	98.7218222618103	2.5003418922424316
10	84.26125311851501	pulse	1	t		8.0	2.5	/experiments/Knapen_AOT/AOT_stimuli/rescaled_final/0080_rv.mp4	0.0	100.30426526069641	
10	85.17915201187134	fix_post	2		12	8.0	2.5	/experiments/Knapen_AOT/AOT_stimuli/rescaled_final/0080_rv.mp4	0.0	101.22216415405273	0.10002827644348145
11	85.27918028831482	fix_pre	0		120	9.0	2.5	/experiments/Knapen_AOT/AOT_stimuli/rescaled_final/0652_fw.mp4	0.0	101.32219243049622	1.0084729194641113
11	85.86278438568115	pulse	0	t		9.0	2.5	/experiments/Knapen_AOT/AOT_stimuli/rescaled_final/0652_fw.mp4	0.0	101.90579652786255	
11	86.28765320777893	movie	1		281	9.0	2.5	/experiments/Knapen_AOT/AOT_stimuli/rescaled_final/0652_fw.mp4	0.0	102.33066534996033	2.492072820663452
11	87.46111297607422	pulse	1	t		9.0	2.5	/experiments/Knapen_AOT/AOT_stimuli/rescaled_final/0652_fw.mp4	0.0	103.50412511825562	
11	88.77972602844238	fix_post	2		12	9.0	2.5	/experiments/Knapen_AOT/AOT_stimuli/rescaled_final/0652_fw.mp4	0.0	104.82273817062378	0.10001850128173828
12	88.87974452972412	fix_pre	0		120	10.0	2.5	/experiments/Knapen_AOT/AOT_stimuli/rescaled_final/1991_rv.mp4	0.0	104.92275667190552	1.0084738731384277
12	89.05510377883911	pulse	0	t		10.0	2.5	/experiments/Knapen_AOT/AOT_stimuli/rescaled_final/1991_rv.mp4	0.0	105.09811592102051	
12	89.88821840286255	movie	1		276	10.0	2.5	/experiments/Knapen_AOT/AOT_stimuli/rescaled_final/1991_rv.mp4	0.0	105.93123054504395	2.4920830726623535
12	90.65520906448364	pulse	1	t		10.0	2.5	/experiments/Knapen_AOT/AOT_stimuli/rescaled_final/1991_rv.mp4	0.0	106.69822120666504	
12	92.25566005706787	pulse	1	t		10.0	2.5	/experiments/Knapen_AOT/AOT_stimuli/rescaled_final/1991_rv.mp4	0.0	108.29867219924927	
12	92.3803014755249	fix_post	2		12	10.0	2.5	/experiments/Knapen_AOT/AOT_stimuli/rescaled_final/1991_rv.mp4	0.0	108.4233136177063	0.09995746612548828
13	92.48025894165039	fix_pre	0		120	11.0	2.5	/experiments/Knapen_AOT/AOT_stimuli/rescaled_final/1724_rv.mp4	0.0	108.52327108383179	1.0085179805755615
13	93.48877692222595	movie	1		285	11.0	2.5	/experiments/Knapen_AOT/AOT_stimuli/rescaled_final/1724_rv.mp4	0.0	109.53178906440735	2.49202299118042
13	93.85569500923157	pulse	1	t		11.0	2.5	/experiments/Knapen_AOT/AOT_stimuli/rescaled_final/1724_rv.mp4	0.0	109.89870715141296	
13	95.45604515075684	pulse	1	t		11.0	2.5	/experiments/Knapen_AOT/AOT_stimuli/rescaled_final/1724_rv.mp4	0.0	111.49905729293823	
13	95.98079991340637	fix_post	2		12	11.0	2.5	/experiments/Knapen_AOT/AOT_stimuli/rescaled_final/1724_rv.mp4	0.0	112.02381205558777	0.0999913215637207
14	96.08079123497009	fix_pre	0		118	12.0	2.5	blank	1.0	112.12380337715149	0.9836061000823975
14	97.0561888217926	pulse	0	t		12.0	2.5	blank	1.0	113.099200963974	
14	97.06439733505249	movie	1		301	12.0	2.5	blank	1.0	113.10740947723389	2.508685350418091
14	98.65648460388184	pulse	1	t		12.0	2.5	blank	1.0	114.69949674606323	
14	99.57308268547058	fix_post	2		12	12.0	2.5	blank	1.0	115.61609482765198	0.09995770454406738
15	99.67304039001465	fix_pre	0		120	13.0	2.5	/experiments/Knapen_AOT/AOT_stimuli/rescaled_final/0607_fw.mp4	0.0	115.71605253219604	1.008486270904541
15	100.25667262077332	pulse	0	t		13.0	2.5	/experiments/Knapen_AOT/AOT_stimuli/rescaled_final/0607_fw.mp4	0.0	116.29968476295471	
15	100.68152666091919	movie	1		285	13.0	2.5	/experiments/Knapen_AOT/AOT_stimuli/rescaled_final/0607_fw.mp4	0.0	116.72453880310059	2.4920613765716553
15	101.85687184333801	pulse	1	t		13.0	2.5	/experiments/Knapen_AOT/AOT_stimuli/rescaled_final/0607_fw.mp4	0.0	117.89988398551941	
15	103.17358803749084	fix_post	2		12	13.0	2.5	/experiments/Knapen_AOT/AOT_stimuli/rescaled_final/0607_fw.mp4	0.0	119.21660017967224	0.09995412826538086
16	103.27354216575623	fix_pre	0		120	14.0	2.5	/experiments/Knapen_AOT/AOT_stimuli/rescaled_final/1063_fw.mp4	0.0	119.31655430793762	1.0085506439208984
16	103.45711922645569	pulse	0	t		14.0	2.5	/experiments/Knapen_AOT/AOT_stimuli/rescaled_final/1063_fw.mp4	0.0	119.50013136863708	
16	104.28209280967712	movie	1		289	14.0	2.5	/experiments/Knapen_AOT/AOT_stimuli/rescaled_final/1063_fw.mp4	0.0	120.32510495185852	2.4919867515563965
16	105.05539178848267	pulse	1	t		14.0	2.5	/experiments/Knapen_AOT/AOT_stimuli/rescaled_final/1063_fw.mp4	0.0	121.09840393066406	
16	106.6556077003479	pulse	1	t		14.0	2.5	/experiments/Knapen_AOT/AOT_stimuli/rescaled_final/1063_fw.mp4	0.0	122.6986198425293	
16	106.77407956123352	fix_post	2		12	14.0	2.5	/experiments/Knapen_AOT/AOT_stimuli/rescaled_final/1063_fw.mp4	0.0	122.81709170341492	0.10000896453857422
17	106.8740885257721	fix_pre	0		120	15.0	2.5	/experiments/Knapen_AOT/AOT_stimuli/rescaled_final/1023_fw.mp4	0.0	122.91710066795349	1.0085217952728271
17	107.88261032104492	movie	1		284	15.0	2.5	/experiments/Knapen_AOT/AOT_stimuli/rescaled_final/1023_fw.mp4	0.0	123.92562246322632	2.4920248985290527
17	108.25601124763489	pulse	1	t		15.0	2.5	/experiments/Knapen_AOT/AOT_stimuli/rescaled_final/1023_fw.mp4	0.0	124.29902338981628	
17	109.85604810714722	pulse	1	t		15.0	2.5	/experiments/Knapen_AOT/AOT_stimuli/rescaled_final/1023_fw.mp4	0.0	125.89906024932861	
17	110.37463521957397	fix_post	2		12	15.0	2.5	/experiments/Knapen_AOT/AOT_stimuli/rescaled_final/1023_fw.mp4	0.0	126.41764736175537	0.10010242462158203
18	110.47473764419556	fix_pre	0		119	16.0	2.5	/experiments/Knapen_AOT/AOT_stimuli/rescaled_final/1073_rv.mp4	0.0	126.51774978637695	1.0000474452972412
18	111.45830202102661	pulse	0	t		16.0	2.5	/experiments/Knapen_AOT/AOT_stimuli/rescaled_final/1073_rv.mp4	0.0	127.50131416320801	
18	111.4747850894928	movie	1		292	16.0	2.5	/experiments/Knapen_AOT/AOT_stimuli/rescaled_final/1073_rv.mp4	0.0	127.5177972316742	2.500357151031494
18	113.05711579322815	pulse	1	t		16.0	2.5	/experiments/Knapen_AOT/AOT_stimuli/rescaled_final/1073_rv.mp4	0.0	129.10012793540955	
18	113.97514224052429	fix_post	2		12	16.0	2.5	/experiments/Knapen_AOT/AOT_stimuli/rescaled_final/1073_rv.mp4	0.0	130.0181543827057	0.10002613067626953
19	114.07516837120056	fix_pre	0		120	17.0	2.5	/experiments/Knapen_AOT/AOT_stimuli/rescaled_final/1772_fw.mp4	0.0	130.11818051338196	1.008500099182129
19	114.65877532958984	pulse	0	t		17.0	2.5	/experiments/Knapen_AOT/AOT_stimuli/rescaled_final/1772_fw.mp4	0.0	130.70178747177124	
19	115.08366847038269	movie	1		285	17.0	2.5	/experiments/Knapen_AOT/AOT_stimuli/rescaled_final/1772_fw.mp4	0.0	131.1266806125641	2.4920568466186523
19	116.25749850273132	pulse	1	t		17.0	2.5	/experiments/Knapen_AOT/AOT_stimuli/rescaled_final/1772_fw.mp4	0.0	132.30051064491272	
19	117.57572531700134	fix_post	2		12	17.0	2.5	/experiments/Knapen_AOT/AOT_stimuli/rescaled_final/1772_fw.mp4	0.0	133.61873745918274	0.09999656677246094
20	117.6757218837738	fix_pre	0		120	18.0	2.5	/experiments/Knapen_AOT/AOT_stimuli/rescaled_final/1147_rv.mp4	0.0	133.7187340259552	1.008493423461914
20	117.85927367210388	pulse	0	t		18.0	2.5	/experiments/Knapen_AOT/AOT_stimuli/rescaled_final/1147_rv.mp4	0.0	133.90228581428528	
20	118.68421530723572	movie	1		277	18.0	2.5	/experiments/Knapen_AOT/AOT_stimuli/rescaled_final/1147_rv.mp4	0.0	134.72722744941711	2.492044448852539
20	119.45792317390442	pulse	1	t		18.0	2.5	/experiments/Knapen_AOT/AOT_stimuli/rescaled_final/1147_rv.mp4	0.0	135.50093531608582	
20	121.0581603050232	pulse	1	t		18.0	2.5	/experiments/Knapen_AOT/AOT_stimuli/rescaled_final/1147_rv.mp4	0.0	137.1011724472046	
20	121.17625975608826	fix_post	2		12	18.0	2.5	/experiments/Knapen_AOT/AOT_stimuli/rescaled_final/1147_rv.mp4	0.0	137.21927189826965	0.09998393058776855
21	121.27624368667603	fix_pre	0		120	19.0	2.5	/experiments/Knapen_AOT/AOT_stimuli/rescaled_final/1794_rv.mp4	0.0	137.31925582885742	1.00852370262146
21	122.28476738929749	movie	1		282	19.0	2.5	/experiments/Knapen_AOT/AOT_stimuli/rescaled_final/1794_rv.mp4	0.0	138.32777953147888	2.492004871368408
21	122.65860199928284	pulse	1	t		19.0	2.5	/experiments/Knapen_AOT/AOT_stimuli/rescaled_final/1794_rv.mp4	0.0	138.70161414146423	
21	124.25950217247009	pulse	1	t		19.0	2.5	/experiments/Knapen_AOT/AOT_stimuli/rescaled_final/1794_rv.mp4	0.0	140.3025143146515	
21	124.7767722606659	fix_post	2		12	19.0	2.5	/experiments/Knapen_AOT/AOT_stimuli/rescaled_final/1794_rv.mp4	0.0	140.8197844028473	0.10001277923583984
22	124.87678503990173	fix_pre	0		119	20.0	2.5	/experiments/Knapen_AOT/AOT_stimuli/rescaled_final/0933_fw.mp4	0.0	140.91979718208313	1.000196933746338
22	125.8606059551239	pulse	0	t		20.0	2.5	/experiments/Knapen_AOT/AOT_stimuli/rescaled_final/0933_fw.mp4	0.0	141.9036180973053	
22	125.87698197364807	movie	1		285	20.0	2.5	/experiments/Knapen_AOT/AOT_stimuli/rescaled_final/0933_fw.mp4	0.0	141.91999411582947	2.500338554382324
22	127.4591748714447	pulse	1	t		20.0	2.5	/experiments/Knapen_AOT/AOT_stimuli/rescaled_final/0933_fw.mp4	0.0	143.5021870136261	
22	128.3773205280304	fix_post	2		12	20.0	2.5	/experiments/Knapen_AOT/AOT_stimuli/rescaled_final/0933_fw.mp4	0.0	144.4203326702118	0.10005044937133789
23	128.47737097740173	fix_pre	0		120	21.0	2.5	blank	1.0	144.52038311958313	1.0001022815704346
23	129.06101489067078	pulse	0	t		21.0	2.5	blank	1.0	145.10402703285217	
23	129.47747325897217	movie	1		300	21.0	2.5	blank	1.0	145.52048540115356	2.5003747940063477
23	130.6612193584442	pulse	1	t		21.0	2.5	blank	1.0	146.7042315006256	
23	131.97784805297852	fix_post	2		12	21.0	2.5	blank	1.0	148.0208601951599	0.10001373291015625
24	132.07786178588867	fix_pre	0		120	22.0	2.5	/experiments/Knapen_AOT/AOT_stimuli/rescaled_final/0412_rv.mp4	0.0	148.12087392807007	1.0085079669952393
24	132.26141953468323	pulse	0	t		22.0	2.5	/experiments/Knapen_AOT/AOT_stimuli/rescaled_final/0412_rv.mp4	0.0	148.30443167686462	
24	133.0863697528839	movie	1		286	22.0	2.5	/experiments/Knapen_AOT/AOT_stimuli/rescaled_final/0412_rv.mp4	0.0	149.1293818950653	2.4920554161071777
24	133.8598198890686	pulse	1	t		22.0	2.5	/experiments/Knapen_AOT/AOT_stimuli/rescaled_final/0412_rv.mp4	0.0	149.90283203125	
24	135.46011209487915	pulse	1	t		22.0	2.5	/experiments/Knapen_AOT/AOT_stimuli/rescaled_final/0412_rv.mp4	0.0	151.50312423706055	
24	135.5784251689911	fix_post	2		12	22.0	2.5	/experiments/Knapen_AOT/AOT_stimuli/rescaled_final/0412_rv.mp4	0.0	151.62143731117249	0.09998679161071777
25	135.6784119606018	fix_pre	0		120	23.0	2.5	/experiments/Knapen_AOT/AOT_stimuli/rescaled_final/0133_fw.mp4	0.0	151.7214241027832	1.0085647106170654
25	136.68697667121887	movie	1		281	23.0	2.5	/experiments/Knapen_AOT/AOT_stimuli/rescaled_final/0133_fw.mp4	0.0	152.72998881340027	2.491978406906128
25	137.06081819534302	pulse	1	t		23.0	2.5	/experiments/Knapen_AOT/AOT_stimuli/rescaled_final/0133_fw.mp4	0.0	153.1038303375244	
25	138.66039037704468	pulse	1	t		23.0	2.5	/experiments/Knapen_AOT/AOT_stimuli/rescaled_final/0133_fw.mp4	0.0	154.70340251922607	
25	139.178955078125	fix_post	2		12	23.0	2.5	/experiments/Knapen_AOT/AOT_stimuli/rescaled_final/0133_fw.mp4	0.0	155.2219672203064	0.10000443458557129
26	139.27895951271057	fix_pre	0		119	24.0	2.5	/experiments/Knapen_AOT/AOT_stimuli/rescaled_final/0106_fw.mp4	0.0	155.32197165489197	1.000138759613037
26	140.26262831687927	pulse	0	t		24.0	2.5	/experiments/Knapen_AOT/AOT_stimuli/rescaled_final/0106_fw.mp4	0.0	156.30564045906067	
26	140.2790982723236	movie	1		284	24.0	2.5	/experiments/Knapen_AOT/AOT_stimuli/rescaled_final/0106_fw.mp4	0.0	156.322110414505	2.5004067420959473
26	141.86142659187317	pulse	1	t		24.0	2.5	/experiments/Knapen_AOT/AOT_stimuli/rescaled_final/0106_fw.mp4	0.0	157.90443873405457	
26	142.77950501441956	fix_post	2		12	24.0	2.5	/experiments/Knapen_AOT/AOT_stimuli/rescaled_final/0106_fw.mp4	0.0	158.82251715660095	0.10004210472106934
27	142.87954711914062	fix_pre	0		120	25.0	2.5	/experiments/Knapen_AOT/AOT_stimuli/rescaled_final/1946_rv.mp4	0.0	158.92255926132202	1.0084590911865234
27	143.46328139305115	pulse	0	t		25.0	2.5	/experiments/Knapen_AOT/AOT_stimuli/rescaled_final/1946_rv.mp4	0.0	159.50629353523254	
27	143.88800621032715	movie	1		280	25.0	2.5	/experiments/Knapen_AOT/AOT_stimuli/rescaled_final/1946_rv.mp4	0.0	159.93101835250854	2.4920313358306885
27	145.06166434288025	pulse	1	t		25.0	2.5	/experiments/Knapen_AOT/AOT_stimuli/rescaled_final/1946_rv.mp4	0.0	161.10467648506165	
27	146.38003754615784	fix_post	2		12	25.0	2.5	/experiments/Knapen_AOT/AOT_stimuli/rescaled_final/1946_rv.mp4	0.0	162.42304968833923	0.10006451606750488
28	146.48010206222534	fix_pre	0		120	26.0	2.5	/experiments/Knapen_AOT/AOT_stimuli/rescaled_final/1717_fw.mp4	0.0	162.52311420440674	1.0084490776062012
28	146.6555256843567	pulse	0	t		26.0	2.5	/experiments/Knapen_AOT/AOT_stimuli/rescaled_final/1717_fw.mp4	0.0	162.6985378265381	
28	147.48855113983154	movie	1		278	26.0	2.5	/experiments/Knapen_AOT/AOT_stimuli/rescaled_final/1717_fw.mp4	0.0	163.53156328201294	2.4920060634613037
28	148.25573182106018	pulse	1	t		26.0	2.5	/experiments/Knapen_AOT/AOT_stimuli/rescaled_final/1717_fw.mp4	0.0	164.29874396324158	
28	149.85594654083252	pulse	1	t		26.0	2.5	/experiments/Knapen_AOT/AOT_stimuli/rescaled_final/1717_fw.mp4	0.0	165.89895868301392	
28	149.98055720329285	fix_post	2		12	26.0	2.5	/experiments/Knapen_AOT/AOT_stimuli/rescaled_final/1717_fw.mp4	0.0	166.02356934547424	0.10002398490905762
29	150.0805811882019	fix_pre	0		120	27.0	2.5	blank	1.0	166.1235933303833	1.00014066696167
29	151.08072185516357	movie	1		300	27.0	2.5	blank	1.0	167.12373399734497	2.500386953353882
29	151.45625042915344	pulse	1	t		27.0	2.5	blank	1.0	167.49926257133484	
29	153.05655574798584	pulse	1	t		27.0	2.5	blank	1.0	169.09956789016724	
29	153.58110880851746	fix_post	2		12	27.0	2.5	blank	1.0	169.62412095069885	0.10001850128173828
30	153.6811273097992	fix_pre	0		118	28.0	2.5	/experiments/Knapen_AOT/AOT_stimuli/rescaled_final/0284_rv.mp4	0.0	169.7241394519806	1.000218391418457
30	154.65662598609924	pulse	0	t		28.0	2.5	/experiments/Knapen_AOT/AOT_stimuli/rescaled_final/0284_rv.mp4	0.0	170.69963812828064	
30	154.68134570121765	movie	1		271	28.0	2.5	/experiments/Knapen_AOT/AOT_stimuli/rescaled_final/0284_rv.mp4	0.0	170.72435784339905	2.4919981956481934
30	156.2569122314453	pulse	1	t		28.0	2.5	/experiments/Knapen_AOT/AOT_stimuli/rescaled_final/0284_rv.mp4	0.0	172.2999243736267	
30	157.17334389686584	fix_post	2		12	28.0	2.5	/experiments/Knapen_AOT/AOT_stimuli/rescaled_final/0284_rv.mp4	0.0	173.21635603904724	0.09998679161071777
31	157.27333068847656	fix_pre	0		120	29.0	2.5	/experiments/Knapen_AOT/AOT_stimuli/rescaled_final/1473_rv.mp4	0.0	173.31634283065796	1.0085198879241943
31	157.85721278190613	pulse	0	t		29.0	2.5	/experiments/Knapen_AOT/AOT_stimuli/rescaled_final/1473_rv.mp4	0.0	173.90022492408752	
31	158.28185057640076	movie	1		279	29.0	2.5	/experiments/Knapen_AOT/AOT_stimuli/rescaled_final/1473_rv.mp4	0.0	174.32486271858215	2.4920108318328857
31	159.45706343650818	pulse	1	t		29.0	2.5	/experiments/Knapen_AOT/AOT_stimuli/rescaled_final/1473_rv.mp4	0.0	175.50007557868958	
31	160.77386140823364	fix_post	2		12	29.0	2.5	/experiments/Knapen_AOT/AOT_stimuli/rescaled_final/1473_rv.mp4	0.0	176.81687355041504	0.10003304481506348
32	160.8738944530487	fix_pre	0		120	30.0	2.5	/experiments/Knapen_AOT/AOT_stimuli/rescaled_final/1023_rv.mp4	0.0	176.9169065952301	1.0085186958312988
32	161.05769896507263	pulse	0	t		30.0	2.5	/experiments/Knapen_AOT/AOT_stimuli/rescaled_final/1023_rv.mp4	0.0	177.10071110725403	
32	161.88241314888	movie	1		276	30.0	2.5	/experiments/Knapen_AOT/AOT_stimuli/rescaled_final/1023_rv.mp4	0.0	177.9254252910614	2.5003368854522705
32	162.6560709476471	pulse	1	t		30.0	2.5	/experiments/Knapen_AOT/AOT_stimuli/rescaled_final/1023_rv.mp4	0.0	178.6990830898285	
32	164.25695419311523	pulse	1	t		30.0	2.5	/experiments/Knapen_AOT/AOT_stimuli/rescaled_final/1023_rv.mp4	0.0	180.29996633529663	
32	164.38275003433228	fix_post	2		11	30.0	2.5	/experiments/Knapen_AOT/AOT_stimuli/rescaled_final/1023_rv.mp4	0.0	180.42576217651367	0.09167170524597168
33	164.47442173957825	fix_pre	0		120	31.0	2.5	/experiments/Knapen_AOT/AOT_stimuli/rescaled_final/0098_fw.mp4	0.0	180.51743388175964	1.008488655090332
33	165.48291039466858	movie	1		282	31.0	2.5	/experiments/Knapen_AOT/AOT_stimuli/rescaled_final/0098_fw.mp4	0.0	181.52592253684998	2.492032766342163
33	165.856436252594	pulse	1	t		31.0	2.5	/experiments/Knapen_AOT/AOT_stimuli/rescaled_final/0098_fw.mp4	0.0	181.8994483947754	
33	167.45844531059265	pulse	1	t		31.0	2.5	/experiments/Knapen_AOT/AOT_stimuli/rescaled_final/0098_fw.mp4	0.0	183.50145745277405	
33	167.97494316101074	fix_post	2		12	31.0	2.5	/experiments/Knapen_AOT/AOT_stimuli/rescaled_final/0098_fw.mp4	0.0	184.01795530319214	0.10001945495605469
34	168.0749626159668	fix_pre	0		119	32.0	2.5	/experiments/Knapen_AOT/AOT_stimuli/rescaled_final/1492_fw.mp4	0.0	184.1179747581482	1.0001564025878906
34	169.05868935585022	pulse	0	t		32.0	2.5	/experiments/Knapen_AOT/AOT_stimuli/rescaled_final/1492_fw.mp4	0.0	185.10170149803162	
34	169.0751190185547	movie	1		284	32.0	2.5	/experiments/Knapen_AOT/AOT_stimuli/rescaled_final/1492_fw.mp4	0.0	185.11813116073608	2.5003626346588135
34	170.65757513046265	pulse	1	t		32.0	2.5	/experiments/Knapen_AOT/AOT_stimuli/rescaled_final/1492_fw.mp4	0.0	186.70058727264404	
34	171.5754816532135	fix_post	2		12	32.0	2.5	/experiments/Knapen_AOT/AOT_stimuli/rescaled_final/1492_fw.mp4	0.0	187.6184937953949	0.1000216007232666
35	171.67550325393677	fix_pre	0		120	33.0	2.5	/experiments/Knapen_AOT/AOT_stimuli/rescaled_final/0297_fw.mp4	0.0	187.71851539611816	1.0086743831634521
35	172.25915598869324	pulse	0	t		33.0	2.5	/experiments/Knapen_AOT/AOT_stimuli/rescaled_final/0297_fw.mp4	0.0	188.30216813087463	
35	172.68417763710022	movie	1		286	33.0	2.5	/experiments/Knapen_AOT/AOT_stimuli/rescaled_final/0297_fw.mp4	0.0	188.72718977928162	2.4918713569641113
35	173.8573772907257	pulse	1	t		33.0	2.5	/experiments/Knapen_AOT/AOT_stimuli/rescaled_final/0297_fw.mp4	0.0	189.9003894329071	
35	175.17604899406433	fix_post	2		12	33.0	2.5	/experiments/Knapen_AOT/AOT_stimuli/rescaled_final/0297_fw.mp4	0.0	191.21906113624573	0.10007095336914062
36	175.27611994743347	fix_pre	0		120	34.0	2.5	/experiments/Knapen_AOT/AOT_stimuli/rescaled_final/0370_rv.mp4	0.0	191.31913208961487	1.0084242820739746
36	175.45958924293518	pulse	0	t		34.0	2.5	/experiments/Knapen_AOT/AOT_stimuli/rescaled_final/0370_rv.mp4	0.0	191.50260138511658	
36	176.28454422950745	movie	1		288	34.0	2.5	/experiments/Knapen_AOT/AOT_stimuli/rescaled_final/0370_rv.mp4	0.0	192.32755637168884	2.4920146465301514
36	177.05818033218384	pulse	1	t		34.0	2.5	/experiments/Knapen_AOT/AOT_stimuli/rescaled_final/0370_rv.mp4	0.0	193.10119247436523	
36	178.658109664917	pulse	1	t		34.0	2.5	/experiments/Knapen_AOT/AOT_stimuli/rescaled_final/0370_rv.mp4	0.0	194.7011218070984	
36	178.7765588760376	fix_post	2		12	34.0	2.5	/experiments/Knapen_AOT/AOT_stimuli/rescaled_final/0370_rv.mp4	0.0	194.819571018219	0.10002589225769043
37	178.8765847682953	fix_pre	0		120	35.0	2.5	blank	1.0	194.91959691047668	1.000171184539795
37	179.87675595283508	movie	1		300	35.0	2.5	blank	1.0	195.91976809501648	2.5003631114959717
37	180.2603211402893	pulse	1	t		35.0	2.5	blank	1.0	196.3033332824707	
37	181.86054134368896	pulse	1	t		35.0	2.5	blank	1.0	197.90355348587036	
37	182.37711906433105	fix_post	2		12	35.0	2.5	blank	1.0	198.42013120651245	0.10001063346862793
38	182.47712969779968	fix_pre	0		119	36.0	2.5	/experiments/Knapen_AOT/AOT_stimuli/rescaled_final/0809_fw.mp4	0.0	198.52014183998108	1.0001468658447266
38	183.46081066131592	pulse	0	t		36.0	2.5	/experiments/Knapen_AOT/AOT_stimuli/rescaled_final/0809_fw.mp4	0.0	199.50382280349731	
38	183.4772765636444	movie	1		282	36.0	2.5	/experiments/Knapen_AOT/AOT_stimuli/rescaled_final/0809_fw.mp4	0.0	199.5202887058258	2.500373363494873
38	185.05970644950867	pulse	1	t		36.0	2.5	/experiments/Knapen_AOT/AOT_stimuli/rescaled_final/0809_fw.mp4	0.0	201.10271859169006	
38	185.97764992713928	fix_post	2		12	36.0	2.5	/experiments/Knapen_AOT/AOT_stimuli/rescaled_final/0809_fw.mp4	0.0	202.02066206932068	0.10001969337463379
39	186.07766962051392	fix_pre	0		120	37.0	2.5	/experiments/Knapen_AOT/AOT_stimuli/rescaled_final/1554_fw.mp4	0.0	202.1206817626953	1.0085134506225586
39	186.6612720489502	pulse	0	t		37.0	2.5	/experiments/Knapen_AOT/AOT_stimuli/rescaled_final/1554_fw.mp4	0.0	202.7042841911316	
39	187.08618307113647	movie	1		283	37.0	2.5	/experiments/Knapen_AOT/AOT_stimuli/rescaled_final/1554_fw.mp4	0.0	203.12919521331787	2.491999864578247
39	188.25991344451904	pulse	1	t		37.0	2.5	/experiments/Knapen_AOT/AOT_stimuli/rescaled_final/1554_fw.mp4	0.0	204.30292558670044	
39	189.57818293571472	fix_post	2		12	37.0	2.5	/experiments/Knapen_AOT/AOT_stimuli/rescaled_final/1554_fw.mp4	0.0	205.62119507789612	0.10003304481506348
40	189.67821598052979	fix_pre	0		120	38.0	2.5	/experiments/Knapen_AOT/AOT_stimuli/rescaled_final/0227_fw.mp4	0.0	205.72122812271118	1.0084779262542725
40	189.86174821853638	pulse	0	t		38.0	2.5	/experiments/Knapen_AOT/AOT_stimuli/rescaled_final/0227_fw.mp4	0.0	205.90476036071777	
40	190.68669390678406	movie	1		277	38.0	2.5	/experiments/Knapen_AOT/AOT_stimuli/rescaled_final/0227_fw.mp4	0.0	206.72970604896545	2.492035388946533
40	191.46028923988342	pulse	1	t		38.0	2.5	/experiments/Knapen_AOT/AOT_stimuli/rescaled_final/0227_fw.mp4	0.0	207.50330138206482	
40	193.0604100227356	pulse	1	t		38.0	2.5	/experiments/Knapen_AOT/AOT_stimuli/rescaled_final/0227_fw.mp4	0.0	209.103422164917	
40	193.1787292957306	fix_post	2		12	38.0	2.5	/experiments/Knapen_AOT/AOT_stimuli/rescaled_final/0227_fw.mp4	0.0	209.221741437912	0.1000063419342041
41	193.2787356376648	fix_pre	0		120	39.0	2.5	/experiments/Knapen_AOT/AOT_stimuli/rescaled_final/1675_rv.mp4	0.0	209.3217477798462	1.0084834098815918
41	194.2872190475464	movie	1		279	39.0	2.5	/experiments/Knapen_AOT/AOT_stimuli/rescaled_final/1675_rv.mp4	0.0	210.33023118972778	2.49204158782959
41	194.66146087646484	pulse	1	t		39.0	2.5	/experiments/Knapen_AOT/AOT_stimuli/rescaled_final/1675_rv.mp4	0.0	210.70447301864624	
41	196.26068329811096	pulse	1	t		39.0	2.5	/experiments/Knapen_AOT/AOT_stimuli/rescaled_final/1675_rv.mp4	0.0	212.30369544029236	
41	196.77926063537598	fix_post	2		12	39.0	2.5	/experiments/Knapen_AOT/AOT_stimuli/rescaled_final/1675_rv.mp4	0.0	212.82227277755737	0.10003161430358887
42	196.87929224967957	fix_pre	0		118	40.0	2.5	/experiments/Knapen_AOT/AOT_stimuli/rescaled_final/1023_rv.mp4	0.0	212.92230439186096	0.9917747974395752
42	197.85485410690308	pulse	0	t		40.0	2.5	/experiments/Knapen_AOT/AOT_stimuli/rescaled_final/1023_rv.mp4	0.0	213.89786624908447	
42	197.87106704711914	movie	1		280	40.0	2.5	/experiments/Knapen_AOT/AOT_stimuli/rescaled_final/1023_rv.mp4	0.0	213.91407918930054	2.500469207763672
42	199.46348094940186	pulse	1	t		40.0	2.5	/experiments/Knapen_AOT/AOT_stimuli/rescaled_final/1023_rv.mp4	0.0	215.50649309158325	
42	200.3715362548828	fix_post	2		12	40.0	2.5	/experiments/Knapen_AOT/AOT_stimuli/rescaled_final/1023_rv.mp4	0.0	216.4145483970642	0.09994626045227051
43	200.47148251533508	fix_pre	0		120	41.0	2.5	/experiments/Knapen_AOT/AOT_stimuli/rescaled_final/0062_fw.mp4	0.0	216.51449465751648	1.0085597038269043
43	201.05515789985657	pulse	0	t		41.0	2.5	/experiments/Knapen_AOT/AOT_stimuli/rescaled_final/0062_fw.mp4	0.0	217.09817004203796	
43	201.480042219162	movie	1		281	41.0	2.5	/experiments/Knapen_AOT/AOT_stimuli/rescaled_final/0062_fw.mp4	0.0	217.52305436134338	2.492088556289673
43	202.65541434288025	pulse	1	t		41.0	2.5	/experiments/Knapen_AOT/AOT_stimuli/rescaled_final/0062_fw.mp4	0.0	218.69842648506165	
43	203.97213077545166	fix_post	2		12	41.0	2.5	/experiments/Knapen_AOT/AOT_stimuli/rescaled_final/0062_fw.mp4	0.0	220.01514291763306	0.09993910789489746
44	204.07206988334656	fix_pre	0		120	42.0	2.5	blank	1.0	220.11508202552795	1.0001497268676758
44	204.25559210777283	pulse	0	t		42.0	2.5	blank	1.0	220.29860424995422	
44	205.07221961021423	movie	1		300	42.0	2.5	blank	1.0	221.11523175239563	2.5003738403320312
44	205.85588574409485	pulse	1	t		42.0	2.5	blank	1.0	221.89889788627625	
44	207.45615577697754	pulse	1	t		42.0	2.5	blank	1.0	223.49916791915894	
44	207.57259345054626	fix_post	2		12	42.0	2.5	blank	1.0	223.61560559272766	0.09993767738342285
45	207.6725311279297	fix_pre	0		120	43.0	2.5	/experiments/Knapen_AOT/AOT_stimuli/rescaled_final/0143_rv.mp4	0.0	223.71554327011108	1.008497953414917
45	208.6810290813446	movie	1		265	43.0	2.5	/experiments/Knapen_AOT/AOT_stimuli/rescaled_final/0143_rv.mp4	0.0	224.724041223526	2.4921350479125977
45	209.05542469024658	pulse	1	t		43.0	2.5	/experiments/Knapen_AOT/AOT_stimuli/rescaled_final/0143_rv.mp4	0.0	225.09843683242798	
45	210.65664744377136	pulse	1	t		43.0	2.5	/experiments/Knapen_AOT/AOT_stimuli/rescaled_final/0143_rv.mp4	0.0	226.69965958595276	
45	211.1731641292572	fix_post	2		12	43.0	2.5	/experiments/Knapen_AOT/AOT_stimuli/rescaled_final/0143_rv.mp4	0.0	227.2161762714386	0.09995603561401367
46	211.27312016487122	fix_pre	0		119	44.0	2.5	/experiments/Knapen_AOT/AOT_stimuli/rescaled_final/1393_rv.mp4	0.0	227.3161323070526	1.0001616477966309
46	212.25687050819397	pulse	0	t		44.0	2.5	/experiments/Knapen_AOT/AOT_stimuli/rescaled_final/1393_rv.mp4	0.0	228.29988265037537	
46	212.27328181266785	movie	1		279	44.0	2.5	/experiments/Knapen_AOT/AOT_stimuli/rescaled_final/1393_rv.mp4	0.0	228.31629395484924	2.5003490447998047
46	213.85584449768066	pulse	1	t		44.0	2.5	/experiments/Knapen_AOT/AOT_stimuli/rescaled_final/1393_rv.mp4	0.0	229.89885663986206	
46	214.77363085746765	fix_post	2		12	44.0	2.5	/experiments/Knapen_AOT/AOT_stimuli/rescaled_final/1393_rv.mp4	0.0	230.81664299964905	0.10012173652648926
47	214.87375259399414	fix_pre	0		120	45.0	2.5	/experiments/Knapen_AOT/AOT_stimuli/rescaled_final/1224_fw.mp4	0.0	230.91676473617554	1.0084645748138428
47	215.45733785629272	pulse	0	t		45.0	2.5	/experiments/Knapen_AOT/AOT_stimuli/rescaled_final/1224_fw.mp4	0.0	231.50034999847412	
47	215.88221716880798	movie	1		273	45.0	2.5	/experiments/Knapen_AOT/AOT_stimuli/rescaled_final/1224_fw.mp4	0.0	231.92522931098938	2.5420026779174805
47	217.05621981620789	pulse	1	t		45.0	2.5	/experiments/Knapen_AOT/AOT_stimuli/rescaled_final/1224_fw.mp4	0.0	233.09923195838928	
47	218.42421984672546	fix_post	2		6	45.0	2.5	/experiments/Knapen_AOT/AOT_stimuli/rescaled_final/1224_fw.mp4	0.0	234.46723198890686	0.049986839294433594
48	218.4742066860199	fix_pre	0		120	46.0	2.5	/experiments/Knapen_AOT/AOT_stimuli/rescaled_final/1932_fw.mp4	0.0	234.5172188282013	1.0084919929504395
48	218.6577341556549	pulse	0	t		46.0	2.5	/experiments/Knapen_AOT/AOT_stimuli/rescaled_final/1932_fw.mp4	0.0	234.7007462978363	
48	219.48269867897034	movie	1		264	46.0	2.5	/experiments/Knapen_AOT/AOT_stimuli/rescaled_final/1932_fw.mp4	0.0	235.52571082115173	2.49202561378479
48	220.25606679916382	pulse	1	t		46.0	2.5	/experiments/Knapen_AOT/AOT_stimuli/rescaled_final/1932_fw.mp4	0.0	236.29907894134521	
48	221.85658812522888	pulse	1	t		46.0	2.5	/experiments/Knapen_AOT/AOT_stimuli/rescaled_final/1932_fw.mp4	0.0	237.89960026741028	
48	221.97472429275513	fix_post	2		12	46.0	2.5	/experiments/Knapen_AOT/AOT_stimuli/rescaled_final/1932_fw.mp4	0.0	238.01773643493652	0.10001015663146973
49	222.0747344493866	fix_pre	0		120	47.0	2.5	/experiments/Knapen_AOT/AOT_stimuli/rescaled_final/1111_rv.mp4	0.0	238.117746591568	1.0085170269012451
49	223.08325147628784	movie	1		271	47.0	2.5	/experiments/Knapen_AOT/AOT_stimuli/rescaled_final/1111_rv.mp4	0.0	239.12626361846924	2.492039680480957
49	223.45713353157043	pulse	1	t		47.0	2.5	/experiments/Knapen_AOT/AOT_stimuli/rescaled_final/1111_rv.mp4	0.0	239.50014567375183	
49	225.05708003044128	pulse	1	t		47.0	2.5	/experiments/Knapen_AOT/AOT_stimuli/rescaled_final/1111_rv.mp4	0.0	241.10009217262268	
49	225.5752911567688	fix_post	2		12	47.0	2.5	/experiments/Knapen_AOT/AOT_stimuli/rescaled_final/1111_rv.mp4	0.0	241.6183032989502	0.09999203681945801
50	225.67528319358826	fix_pre	0		119	48.0	2.5	/experiments/Knapen_AOT/AOT_stimuli/rescaled_final/0605_rv.mp4	0.0	241.71829533576965	1.000169277191162
50	226.65914869308472	pulse	0	t		48.0	2.5	/experiments/Knapen_AOT/AOT_stimuli/rescaled_final/0605_rv.mp4	0.0	242.7021608352661	
50	226.67545247077942	movie	1		289	48.0	2.5	/experiments/Knapen_AOT/AOT_stimuli/rescaled_final/0605_rv.mp4	0.0	242.71846461296082	2.500352144241333
50	228.25798654556274	pulse	1	t		48.0	2.5	/experiments/Knapen_AOT/AOT_stimuli/rescaled_final/0605_rv.mp4	0.0	244.30099868774414	
50	229.17580461502075	fix_post	2		12	48.0	2.5	/experiments/Knapen_AOT/AOT_stimuli/rescaled_final/0605_rv.mp4	0.0	245.21881675720215	0.10001897811889648
51	229.27582359313965	fix_pre	0		120	49.0	2.5	blank	1.0	245.31883573532104	1.0001506805419922
51	229.85943627357483	pulse	0	t		49.0	2.5	blank	1.0	245.90244841575623	
51	230.27597427368164	movie	1		300	49.0	2.5	blank	1.0	246.31898641586304	2.500509262084961
51	231.45975351333618	pulse	1	t		49.0	2.5	blank	1.0	247.50276565551758	
51	232.7764835357666	fix_post	2		12	49.0	2.5	blank	1.0	248.819495677948	0.09990477561950684
52	232.8763883113861	fix_pre	0		120	50.0	2.5	/experiments/Knapen_AOT/AOT_stimuli/rescaled_final/1991_fw.mp4	0.0	248.9194004535675	1.0085391998291016
52	233.06011724472046	pulse	0	t		50.0	2.5	/experiments/Knapen_AOT/AOT_stimuli/rescaled_final/1991_fw.mp4	0.0	249.10312938690186	
52	233.8849275112152	movie	1		267	50.0	2.5	/experiments/Knapen_AOT/AOT_stimuli/rescaled_final/1991_fw.mp4	0.0	249.9279396533966	2.491952419281006
52	234.6601526737213	pulse	1	t		50.0	2.5	/experiments/Knapen_AOT/AOT_stimuli/rescaled_final/1991_fw.mp4	0.0	250.7031648159027	
52	236.25865960121155	pulse	1	t		50.0	2.5	/experiments/Knapen_AOT/AOT_stimuli/rescaled_final/1991_fw.mp4	0.0	252.30167174339294	
52	236.37687993049622	fix_post	2		12	50.0	2.5	/experiments/Knapen_AOT/AOT_stimuli/rescaled_final/1991_fw.mp4	0.0	252.4198920726776	0.10005640983581543
53	236.47693634033203	fix_pre	0		120	51.0	2.5	/experiments/Knapen_AOT/AOT_stimuli/rescaled_final/1584_rv.mp4	0.0	252.51994848251343	1.0085113048553467
53	237.48544764518738	movie	1		263	51.0	2.5	/experiments/Knapen_AOT/AOT_stimuli/rescaled_final/1584_rv.mp4	0.0	253.52845978736877	2.4919755458831787
53	237.8605260848999	pulse	1	t		51.0	2.5	/experiments/Knapen_AOT/AOT_stimuli/rescaled_final/1584_rv.mp4	0.0	253.9035382270813	
53	239.45888566970825	pulse	1	t		51.0	2.5	/experiments/Knapen_AOT/AOT_stimuli/rescaled_final/1584_rv.mp4	0.0	255.50189781188965	
53	239.97742319107056	fix_post	2		12	51.0	2.5	/experiments/Knapen_AOT/AOT_stimuli/rescaled_final/1584_rv.mp4	0.0	256.02043533325195	0.10008740425109863
54	240.07751059532166	fix_pre	0		119	52.0	2.5	/experiments/Knapen_AOT/AOT_stimuli/rescaled_final/1054_fw.mp4	0.0	256.12052273750305	1.0001020431518555
54	241.06112360954285	pulse	0	t		52.0	2.5	/experiments/Knapen_AOT/AOT_stimuli/rescaled_final/1054_fw.mp4	0.0	257.10413575172424	
54	241.0776126384735	movie	1		281	52.0	2.5	/experiments/Knapen_AOT/AOT_stimuli/rescaled_final/1054_fw.mp4	0.0	257.1206247806549	2.500359535217285
54	242.6602907180786	pulse	1	t		52.0	2.5	/experiments/Knapen_AOT/AOT_stimuli/rescaled_final/1054_fw.mp4	0.0	258.70330286026	
54	243.5779721736908	fix_post	2		12	52.0	2.5	/experiments/Knapen_AOT/AOT_stimuli/rescaled_final/1054_fw.mp4	0.0	259.6209843158722	0.10001325607299805
55	243.6779854297638	fix_pre	0		120	53.0	2.5	/experiments/Knapen_AOT/AOT_stimuli/rescaled_final/0412_fw.mp4	0.0	259.7209975719452	1.0085029602050781
55	244.2616090774536	pulse	0	t		53.0	2.5	/experiments/Knapen_AOT/AOT_stimuli/rescaled_final/0412_fw.mp4	0.0	260.304621219635	
55	244.68648838996887	movie	1		283	53.0	2.5	/experiments/Knapen_AOT/AOT_stimuli/rescaled_final/0412_fw.mp4	0.0	260.72950053215027	2.4920175075531006
55	245.8603196144104	pulse	1	t		53.0	2.5	/experiments/Knapen_AOT/AOT_stimuli/rescaled_final/0412_fw.mp4	0.0	261.9033317565918	
55	247.17850589752197	fix_post	2		12	53.0	2.5	/experiments/Knapen_AOT/AOT_stimuli/rescaled_final/0412_fw.mp4	0.0	263.22151803970337	0.10004520416259766
56	247.27855110168457	fix_pre	0		120	54.0	2.5	/experiments/Knapen_AOT/AOT_stimuli/rescaled_final/1127_fw.mp4	0.0	263.32156324386597	1.0084786415100098
56	247.46209812164307	pulse	0	t		54.0	2.5	/experiments/Knapen_AOT/AOT_stimuli/rescaled_final/1127_fw.mp4	0.0	263.50511026382446	
56	248.28702974319458	movie	1		269	54.0	2.5	/experiments/Knapen_AOT/AOT_stimuli/rescaled_final/1127_fw.mp4	0.0	264.330041885376	2.4920494556427
56	249.0602889060974	pulse	1	t		54.0	2.5	/experiments/Knapen_AOT/AOT_stimuli/rescaled_final/1127_fw.mp4	0.0	265.1033010482788	
56	250.66205668449402	pulse	1	t		54.0	2.5	/experiments/Knapen_AOT/AOT_stimuli/rescaled_final/1127_fw.mp4	0.0	266.7050688266754	
56	250.77907919883728	fix_post	2		12	54.0	2.5	/experiments/Knapen_AOT/AOT_stimuli/rescaled_final/1127_fw.mp4	0.0	266.8220913410187	0.10002017021179199
57	250.87909936904907	fix_pre	0		120	55.0	2.5	blank	1.0	266.92211151123047	1.0001108646392822
57	251.87921023368835	movie	1		300	55.0	2.5	blank	1.0	267.92222237586975	2.5004005432128906
57	252.2628071308136	pulse	1	t		55.0	2.5	blank	1.0	268.305819272995	
57	253.85616731643677	pulse	1	t		55.0	2.5	blank	1.0	269.89917945861816	
57	254.37961077690125	fix_post	2		12	55.0	2.5	blank	1.0	270.42262291908264	0.10000753402709961
58	254.47961831092834	fix_pre	0		118	56.0	2.5	/experiments/Knapen_AOT/AOT_stimuli/rescaled_final/1062_rv.mp4	0.0	270.52263045310974	0.9918055534362793
58	255.45550560951233	pulse	0	t		56.0	2.5	/experiments/Knapen_AOT/AOT_stimuli/rescaled_final/1062_rv.mp4	0.0	271.4985177516937	
58	255.47142386436462	movie	1		275	56.0	2.5	/experiments/Knapen_AOT/AOT_stimuli/rescaled_final/1062_rv.mp4	0.0	271.514436006546	2.50040602684021
58	257.0553674697876	pulse	1	t		56.0	2.5	/experiments/Knapen_AOT/AOT_stimuli/rescaled_final/1062_rv.mp4	0.0	273.098379611969	
58	257.97182989120483	fix_post	2		12	56.0	2.5	/experiments/Knapen_AOT/AOT_stimuli/rescaled_final/1062_rv.mp4	0.0	274.01484203338623	0.10004496574401855
59	258.07187485694885	fix_pre	0		120	57.0	2.5	/experiments/Knapen_AOT/AOT_stimuli/rescaled_final/0370_rv.mp4	0.0	274.11488699913025	1.0084729194641113
59	258.6554219722748	pulse	0	t		57.0	2.5	/experiments/Knapen_AOT/AOT_stimuli/rescaled_final/0370_rv.mp4	0.0	274.6984341144562	
59	259.08034777641296	movie	1		272	57.0	2.5	/experiments/Knapen_AOT/AOT_stimuli/rescaled_final/0370_rv.mp4	0.0	275.12335991859436	2.4919943809509277
59	260.25595569610596	pulse	1	t		57.0	2.5	/experiments/Knapen_AOT/AOT_stimuli/rescaled_final/0370_rv.mp4	0.0	276.29896783828735	
59	261.5723421573639	fix_post	2		12	57.0	2.5	/experiments/Knapen_AOT/AOT_stimuli/rescaled_final/0370_rv.mp4	0.0	277.6153542995453	0.10004591941833496
60	261.6723880767822	fix_pre	0		120	58.0	2.5	/experiments/Knapen_AOT/AOT_stimuli/rescaled_final/1584_fw.mp4	0.0	277.7154002189636	1.0085585117340088
60	261.8559548854828	pulse	0	t		58.0	2.5	/experiments/Knapen_AOT/AOT_stimuli/rescaled_final/1584_fw.mp4	0.0	277.8989670276642	
60	262.68094658851624	movie	1		272	58.0	2.5	/experiments/Knapen_AOT/AOT_stimuli/rescaled_final/1584_fw.mp4	0.0	278.72395873069763	2.4920198917388916
60	263.45616126060486	pulse	1	t		58.0	2.5	/experiments/Knapen_AOT/AOT_stimuli/rescaled_final/1584_fw.mp4	0.0	279.49917340278625	
60	265.05640387535095	pulse	1	t		58.0	2.5	/experiments/Knapen_AOT/AOT_stimuli/rescaled_final/1584_fw.mp4	0.0	281.09941601753235	
60	265.1729664802551	fix_post	2		12	58.0	2.5	/experiments/Knapen_AOT/AOT_stimuli/rescaled_final/1584_fw.mp4	0.0	281.2159786224365	0.09995293617248535
61	265.2729194164276	fix_pre	0		120	59.0	2.5	/experiments/Knapen_AOT/AOT_stimuli/rescaled_final/0797_rv.mp4	0.0	281.315931558609	1.0085325241088867
61	266.2814519405365	movie	1		274	59.0	2.5	/experiments/Knapen_AOT/AOT_stimuli/rescaled_final/0797_rv.mp4	0.0	282.3244640827179	2.4919726848602295
61	266.65664315223694	pulse	1	t		59.0	2.5	/experiments/Knapen_AOT/AOT_stimuli/rescaled_final/0797_rv.mp4	0.0	282.69965529441833	
61	268.25540137290955	pulse	1	t		59.0	2.5	/experiments/Knapen_AOT/AOT_stimuli/rescaled_final/0797_rv.mp4	0.0	284.29841351509094	
61	268.77342462539673	fix_post	2		12	59.0	2.5	/experiments/Knapen_AOT/AOT_stimuli/rescaled_final/0797_rv.mp4	0.0	284.8164367675781	0.10001158714294434
62	268.8734362125397	fix_pre	0		119	60.0	2.5	/experiments/Knapen_AOT/AOT_stimuli/rescaled_final/0343_fw.mp4	0.0	284.91644835472107	1.0086698532104492
62	269.8572952747345	pulse	0	t		60.0	2.5	/experiments/Knapen_AOT/AOT_stimuli/rescaled_final/0343_fw.mp4	0.0	285.9003074169159	
62	269.8821060657501	movie	1		266	60.0	2.5	/experiments/Knapen_AOT/AOT_stimuli/rescaled_final/0343_fw.mp4	0.0	285.9251182079315	2.4919040203094482
62	271.4557478427887	pulse	1	t		60.0	2.5	/experiments/Knapen_AOT/AOT_stimuli/rescaled_final/0343_fw.mp4	0.0	287.4987599849701	
62	272.37401008605957	fix_post	2		12	60.0	2.5	/experiments/Knapen_AOT/AOT_stimuli/rescaled_final/0343_fw.mp4	0.0	288.41702222824097	0.09999418258666992
63	272.47400426864624	fix_pre	0		120	61.0	2.5	/experiments/Knapen_AOT/AOT_stimuli/rescaled_final/0639_rv.mp4	0.0	288.51701641082764	1.0085320472717285
63	273.05757093429565	pulse	0	t		61.0	2.5	/experiments/Knapen_AOT/AOT_stimuli/rescaled_final/0639_rv.mp4	0.0	289.10058307647705	
63	273.48253631591797	movie	1		261	61.0	2.5	/experiments/Knapen_AOT/AOT_stimuli/rescaled_final/0639_rv.mp4	0.0	289.52554845809937	2.4919564723968506
63	274.65586829185486	pulse	1	t		61.0	2.5	/experiments/Knapen_AOT/AOT_stimuli/rescaled_final/0639_rv.mp4	0.0	290.69888043403625	
63	275.9744927883148	fix_post	2		12	61.0	2.5	/experiments/Knapen_AOT/AOT_stimuli/rescaled_final/0639_rv.mp4	0.0	292.0175049304962	0.10004663467407227
64	276.0745394229889	fix_pre	0		120	62.0	2.5	blank	1.0	292.1175515651703	1.000124216079712
64	276.2583303451538	pulse	0	t		62.0	2.5	blank	1.0	292.3013424873352	
64	277.0746636390686	movie	1		300	62.0	2.5	blank	1.0	293.11767578125	2.500458002090454
64	277.8583860397339	pulse	1	t		62.0	2.5	blank	1.0	293.9013981819153	
64	279.45852851867676	pulse	1	t		62.0	2.5	blank	1.0	295.50154066085815	
64	279.57512164115906	fix_post	2		12	62.0	2.5	blank	1.0	295.61813378334045	0.09998416900634766
65	279.6751058101654	fix_pre	0		120	63.0	2.5	/experiments/Knapen_AOT/AOT_stimuli/rescaled_final/1735_rv.mp4	0.0	295.7181179523468	1.0084426403045654
65	280.68354845046997	movie	1		278	63.0	2.5	/experiments/Knapen_AOT/AOT_stimuli/rescaled_final/1735_rv.mp4	0.0	296.72656059265137	2.4920401573181152
65	281.05756163597107	pulse	1	t		63.0	2.5	/experiments/Knapen_AOT/AOT_stimuli/rescaled_final/1735_rv.mp4	0.0	297.10057377815247	
65	282.65694522857666	pulse	1	t		63.0	2.5	/experiments/Knapen_AOT/AOT_stimuli/rescaled_final/1735_rv.mp4	0.0	298.69995737075806	
65	283.1755886077881	fix_post	2		12	63.0	2.5	/experiments/Knapen_AOT/AOT_stimuli/rescaled_final/1735_rv.mp4	0.0	299.2186007499695	0.10001015663146973
66	283.27559876441956	fix_pre	0		119	64.0	2.5	/experiments/Knapen_AOT/AOT_stimuli/rescaled_final/0606_fw.mp4	0.0	299.31861090660095	1.0001468658447266
66	284.2597267627716	pulse	0	t		64.0	2.5	/experiments/Knapen_AOT/AOT_stimuli/rescaled_final/0606_fw.mp4	0.0	300.302738904953	
66	284.2757456302643	movie	1		293	64.0	2.5	/experiments/Knapen_AOT/AOT_stimuli/rescaled_final/0606_fw.mp4	0.0	300.3187577724457	2.5004258155822754
66	285.858544588089	pulse	1	t		64.0	2.5	/experiments/Knapen_AOT/AOT_stimuli/rescaled_final/0606_fw.mp4	0.0	301.9015567302704	
66	286.77617144584656	fix_post	2		12	64.0	2.5	/experiments/Knapen_AOT/AOT_stimuli/rescaled_final/0606_fw.mp4	0.0	302.81918358802795	0.09999561309814453
67	286.8761670589447	fix_pre	0		120	65.0	2.5	/experiments/Knapen_AOT/AOT_stimuli/rescaled_final/1628_rv.mp4	0.0	302.9191792011261	1.008479356765747
67	287.4597818851471	pulse	0	t		65.0	2.5	/experiments/Knapen_AOT/AOT_stimuli/rescaled_final/1628_rv.mp4	0.0	303.5027940273285	
67	287.88464641571045	movie	1		270	65.0	2.5	/experiments/Knapen_AOT/AOT_stimuli/rescaled_final/1628_rv.mp4	0.0	303.92765855789185	2.4920713901519775
67	289.05968379974365	pulse	1	t		65.0	2.5	/experiments/Knapen_AOT/AOT_stimuli/rescaled_final/1628_rv.mp4	0.0	305.10269594192505	
67	290.3767178058624	fix_post	2		12	65.0	2.5	/experiments/Knapen_AOT/AOT_stimuli/rescaled_final/1628_rv.mp4	0.0	306.4197299480438	0.1000661849975586
68	290.47678399086	fix_pre	0		120	66.0	2.5	/experiments/Knapen_AOT/AOT_stimuli/rescaled_final/0631_fw.mp4	0.0	306.5197961330414	1.0085043907165527
68	290.66027331352234	pulse	0	t		66.0	2.5	/experiments/Knapen_AOT/AOT_stimuli/rescaled_final/0631_fw.mp4	0.0	306.70328545570374	
68	291.48528838157654	movie	1		283	66.0	2.5	/experiments/Knapen_AOT/AOT_stimuli/rescaled_final/0631_fw.mp4	0.0	307.52830052375793	2.491973400115967
68	292.2587559223175	pulse	1	t		66.0	2.5	/experiments/Knapen_AOT/AOT_stimuli/rescaled_final/0631_fw.mp4	0.0	308.3017680644989	
68	293.86022448539734	pulse	1	t		66.0	2.5	/experiments/Knapen_AOT/AOT_stimuli/rescaled_final/0631_fw.mp4	0.0	309.90323662757874	
68	293.9772617816925	fix_post	2		12	66.0	2.5	/experiments/Knapen_AOT/AOT_stimuli/rescaled_final/0631_fw.mp4	0.0	310.0202739238739	0.10000109672546387
69	294.07726287841797	fix_pre	0		120	67.0	2.5	/experiments/Knapen_AOT/AOT_stimuli/rescaled_final/1679_rv.mp4	0.0	310.12027502059937	1.0084786415100098
69	295.085741519928	movie	1		273	67.0	2.5	/experiments/Knapen_AOT/AOT_stimuli/rescaled_final/1679_rv.mp4	0.0	311.1287536621094	2.4920454025268555
69	295.46123814582825	pulse	1	t		67.0	2.5	/experiments/Knapen_AOT/AOT_stimuli/rescaled_final/1679_rv.mp4	0.0	311.50425028800964	
69	297.0594358444214	pulse	1	t		67.0	2.5	/experiments/Knapen_AOT/AOT_stimuli/rescaled_final/1679_rv.mp4	0.0	313.1024479866028	
69	297.57778692245483	fix_post	2		12	67.0	2.5	/experiments/Knapen_AOT/AOT_stimuli/rescaled_final/1679_rv.mp4	0.0	313.62079906463623	0.10002779960632324
70	297.67781472206116	fix_pre	0		119	68.0	2.5	/experiments/Knapen_AOT/AOT_stimuli/rescaled_final/1045_fw.mp4	0.0	313.72082686424255	1.0001201629638672
70	298.6617751121521	pulse	0	t		68.0	2.5	/experiments/Knapen_AOT/AOT_stimuli/rescaled_final/1045_fw.mp4	0.0	314.7047872543335	
70	298.677934885025	movie	1		288	68.0	2.5	/experiments/Knapen_AOT/AOT_stimuli/rescaled_final/1045_fw.mp4	0.0	314.7209470272064	2.500396251678467
70	300.2603883743286	pulse	1	t		68.0	2.5	/experiments/Knapen_AOT/AOT_stimuli/rescaled_final/1045_fw.mp4	0.0	316.30340051651	
70	301.1783311367035	fix_post	2		12	68.0	2.5	/experiments/Knapen_AOT/AOT_stimuli/rescaled_final/1045_fw.mp4	0.0	317.2213432788849	0.10001921653747559
71	301.27835035324097	fix_pre	0		120	69.0	2.5	blank	1.0	317.32136249542236	1.0000944137573242
71	301.8619775772095	pulse	0	t		69.0	2.5	blank	1.0	317.90498971939087	
71	302.2784447669983	movie	1		300	69.0	2.5	blank	1.0	318.3214569091797	2.5003855228424072
71	303.4626815319061	pulse	1	t		69.0	2.5	blank	1.0	319.5056936740875	
71	304.7788302898407	fix_post	2		12	69.0	2.5	blank	1.0	320.8218424320221	0.10002779960632324
72	304.878858089447	fix_pre	0		120	70.0	2.5	/experiments/Knapen_AOT/AOT_stimuli/rescaled_final/0246_fw.mp4	0.0	320.9218702316284	1.0085060596466064
72	305.0624966621399	pulse	0	t		70.0	2.5	/experiments/Knapen_AOT/AOT_stimuli/rescaled_final/0246_fw.mp4	0.0	321.1055088043213	
72	305.8873641490936	movie	1		279	70.0	2.5	/experiments/Knapen_AOT/AOT_stimuli/rescaled_final/0246_fw.mp4	0.0	321.930376291275	2.4920473098754883
72	306.6605980396271	pulse	1	t		70.0	2.5	/experiments/Knapen_AOT/AOT_stimuli/rescaled_final/0246_fw.mp4	0.0	322.7036101818085	
72	308.26195192337036	pulse	1	t		70.0	2.5	/experiments/Knapen_AOT/AOT_stimuli/rescaled_final/0246_fw.mp4	0.0	324.30496406555176	
72	308.3794114589691	fix_post	2		12	70.0	2.5	/experiments/Knapen_AOT/AOT_stimuli/rescaled_final/0246_fw.mp4	0.0	324.4224236011505	0.10003209114074707
73	308.47944355010986	fix_pre	0		120	71.0	2.5	/experiments/Knapen_AOT/AOT_stimuli/rescaled_final/0293_rv.mp4	0.0	324.52245569229126	1.0084352493286133
73	309.4878787994385	movie	1		266	71.0	2.5	/experiments/Knapen_AOT/AOT_stimuli/rescaled_final/0293_rv.mp4	0.0	325.5308909416199	2.492009401321411
73	309.8620636463165	pulse	1	t		71.0	2.5	/experiments/Knapen_AOT/AOT_stimuli/rescaled_final/0293_rv.mp4	0.0	325.9050757884979	
73	311.4613025188446	pulse	1	t		71.0	2.5	/experiments/Knapen_AOT/AOT_stimuli/rescaled_final/0293_rv.mp4	0.0	327.504314661026	
73	311.9798882007599	fix_post	2		12	71.0	2.5	/experiments/Knapen_AOT/AOT_stimuli/rescaled_final/0293_rv.mp4	0.0	328.0229003429413	0.10006260871887207
74	312.07995080947876	fix_pre	0		119	72.0	2.5	/experiments/Knapen_AOT/AOT_stimuli/rescaled_final/0660_fw.mp4	0.0	328.12296295166016	1.000133752822876
74	313.05604100227356	pulse	0	t		72.0	2.5	/experiments/Knapen_AOT/AOT_stimuli/rescaled_final/0660_fw.mp4	0.0	329.09905314445496	
74	313.08008456230164	movie	1		278	72.0	2.5	/experiments/Knapen_AOT/AOT_stimuli/rescaled_final/0660_fw.mp4	0.0	329.12309670448303	2.5004329681396484
74	314.65583515167236	pulse	1	t		72.0	2.5	/experiments/Knapen_AOT/AOT_stimuli/rescaled_final/0660_fw.mp4	0.0	330.69884729385376	
74	315.5805175304413	fix_post	2		12	72.0	2.5	/experiments/Knapen_AOT/AOT_stimuli/rescaled_final/0660_fw.mp4	0.0	331.6235296726227	0.09998464584350586
75	315.6805021762848	fix_pre	0		120	73.0	2.5	/experiments/Knapen_AOT/AOT_stimuli/rescaled_final/0521_rv.mp4	0.0	331.7235143184662	1.008483648300171
75	316.25588154792786	pulse	0	t		73.0	2.5	/experiments/Knapen_AOT/AOT_stimuli/rescaled_final/0521_rv.mp4	0.0	332.29889369010925	
75	316.68898582458496	movie	1		276	73.0	2.5	/experiments/Knapen_AOT/AOT_stimuli/rescaled_final/0521_rv.mp4	0.0	332.73199796676636	2.492048501968384
75	317.8560345172882	pulse	1	t		73.0	2.5	/experiments/Knapen_AOT/AOT_stimuli/rescaled_final/0521_rv.mp4	0.0	333.8990466594696	
75	319.18103432655334	fix_post	2		12	73.0	2.5	/experiments/Knapen_AOT/AOT_stimuli/rescaled_final/0521_rv.mp4	0.0	335.22404646873474	0.10002636909484863
76	319.2810606956482	fix_pre	0		120	74.0	2.5	/experiments/Knapen_AOT/AOT_stimuli/rescaled_final/1742_rv.mp4	0.0	335.3240728378296	1.0084733963012695
76	319.4566340446472	pulse	0	t		74.0	2.5	/experiments/Knapen_AOT/AOT_stimuli/rescaled_final/1742_rv.mp4	0.0	335.4996461868286	
76	320.28953409194946	movie	1		269	74.0	2.5	/experiments/Knapen_AOT/AOT_stimuli/rescaled_final/1742_rv.mp4	0.0	336.33254623413086	2.4920477867126465
76	321.05650544166565	pulse	1	t		74.0	2.5	/experiments/Knapen_AOT/AOT_stimuli/rescaled_final/1742_rv.mp4	0.0	337.09951758384705	
76	322.6568167209625	pulse	1	t		74.0	2.5	/experiments/Knapen_AOT/AOT_stimuli/rescaled_final/1742_rv.mp4	0.0	338.6998288631439	
76	322.7815818786621	fix_post	2		12	74.0	2.5	/experiments/Knapen_AOT/AOT_stimuli/rescaled_final/1742_rv.mp4	0.0	338.8245940208435	0.09996914863586426
77	322.881551027298	fix_pre	0		120	75.0	2.5	/experiments/Knapen_AOT/AOT_stimuli/rescaled_final/0877_fw.mp4	0.0	338.92456316947937	1.0086493492126465
77	323.8902003765106	movie	1		281	75.0	2.5	/experiments/Knapen_AOT/AOT_stimuli/rescaled_final/0877_fw.mp4	0.0	339.933212518692	2.491899013519287
77	324.2567057609558	pulse	1	t		75.0	2.5	/experiments/Knapen_AOT/AOT_stimuli/rescaled_final/0877_fw.mp4	0.0	340.2997179031372	
77	325.8574731349945	pulse	1	t		75.0	2.5	/experiments/Knapen_AOT/AOT_stimuli/rescaled_final/0877_fw.mp4	0.0	341.9004852771759	
77	326.3820993900299	fix_post	2		12	75.0	2.5	/experiments/Knapen_AOT/AOT_stimuli/rescaled_final/0877_fw.mp4	0.0	342.4251115322113	0.0999898910522461
78	326.48208928108215	fix_pre	0		118	76.0	2.5	blank	1.0	342.52510142326355	0.9834926128387451
78	327.45746421813965	pulse	0	t		76.0	2.5	blank	1.0	343.50047636032104	
78	327.4655818939209	movie	1		301	76.0	2.5	blank	1.0	343.5085940361023	2.508697986602783
78	329.0576765537262	pulse	1	t		76.0	2.5	blank	1.0	345.1006886959076	
78	329.9742798805237	fix_post	2		12	76.0	2.5	blank	1.0	346.0172920227051	0.10001564025878906
79	330.07429552078247	fix_pre	0		120	77.0	2.5	/experiments/Knapen_AOT/AOT_stimuli/rescaled_final/1210_rv.mp4	0.0	346.11730766296387	1.008554458618164
79	330.6579930782318	pulse	0	t		77.0	2.5	/experiments/Knapen_AOT/AOT_stimuli/rescaled_final/1210_rv.mp4	0.0	346.7010052204132	
79	331.08284997940063	movie	1		277	77.0	2.5	/experiments/Knapen_AOT/AOT_stimuli/rescaled_final/1210_rv.mp4	0.0	347.12586212158203	2.492009401321411
79	332.2564811706543	pulse	1	t		77.0	2.5	/experiments/Knapen_AOT/AOT_stimuli/rescaled_final/1210_rv.mp4	0.0	348.2994933128357	
79	333.57485938072205	fix_post	2		12	77.0	2.5	/experiments/Knapen_AOT/AOT_stimuli/rescaled_final/1210_rv.mp4	0.0	349.61787152290344	0.10001564025878906
80	333.67487502098083	fix_pre	0		120	78.0	2.5	/experiments/Knapen_AOT/AOT_stimuli/rescaled_final/0377_rv.mp4	0.0	349.71788716316223	1.008453130722046
80	333.8584303855896	pulse	0	t		78.0	2.5	/experiments/Knapen_AOT/AOT_stimuli/rescaled_final/0377_rv.mp4	0.0	349.901442527771	
80	334.6833281517029	movie	1		278	78.0	2.5	/experiments/Knapen_AOT/AOT_stimuli/rescaled_final/0377_rv.mp4	0.0	350.7263402938843	2.4920287132263184
80	335.4566915035248	pulse	1	t		78.0	2.5	/experiments/Knapen_AOT/AOT_stimuli/rescaled_final/0377_rv.mp4	0.0	351.4997036457062	
80	337.0574016571045	pulse	1	t		78.0	2.5	/experiments/Knapen_AOT/AOT_stimuli/rescaled_final/0377_rv.mp4	0.0	353.1004137992859	
80	337.1753568649292	fix_post	2		12	78.0	2.5	/experiments/Knapen_AOT/AOT_stimuli/rescaled_final/0377_rv.mp4	0.0	353.2183690071106	0.10001778602600098
81	337.2753746509552	fix_pre	0		120	79.0	2.5	/experiments/Knapen_AOT/AOT_stimuli/rescaled_final/1998_fw.mp4	0.0	353.3183867931366	1.0085124969482422
81	338.28388714790344	movie	1		269	79.0	2.5	/experiments/Knapen_AOT/AOT_stimuli/rescaled_final/1998_fw.mp4	0.0	354.32689929008484	2.492033004760742
81	338.65796399116516	pulse	1	t		79.0	2.5	/experiments/Knapen_AOT/AOT_stimuli/rescaled_final/1998_fw.mp4	0.0	354.70097613334656	
81	340.2577133178711	pulse	1	t		79.0	2.5	/experiments/Knapen_AOT/AOT_stimuli/rescaled_final/1998_fw.mp4	0.0	356.3007254600525	
81	340.7759201526642	fix_post	2		12	79.0	2.5	/experiments/Knapen_AOT/AOT_stimuli/rescaled_final/1998_fw.mp4	0.0	356.8189322948456	0.10004401206970215
82	340.8759641647339	fix_pre	0		119	80.0	2.5	/experiments/Knapen_AOT/AOT_stimuli/rescaled_final/0069_rv.mp4	0.0	356.9189763069153	1.0001461505889893
82	341.85994362831116	pulse	0	t		80.0	2.5	/experiments/Knapen_AOT/AOT_stimuli/rescaled_final/0069_rv.mp4	0.0	357.90295577049255	
82	341.8761103153229	movie	1		271	80.0	2.5	/experiments/Knapen_AOT/AOT_stimuli/rescaled_final/0069_rv.mp4	0.0	357.9191224575043	2.500385284423828
82	343.4586682319641	pulse	1	t		80.0	2.5	/experiments/Knapen_AOT/AOT_stimuli/rescaled_final/0069_rv.mp4	0.0	359.5016803741455	
82	344.3764955997467	fix_post	2		12	80.0	2.5	/experiments/Knapen_AOT/AOT_stimuli/rescaled_final/0069_rv.mp4	0.0	360.4195077419281	0.09997773170471191
83	344.4764733314514	fix_pre	0		120	81.0	2.5	/experiments/Knapen_AOT/AOT_stimuli/rescaled_final/1292_fw.mp4	0.0	360.5194854736328	1.0084810256958008
83	345.0600371360779	pulse	0	t		81.0	2.5	/experiments/Knapen_AOT/AOT_stimuli/rescaled_final/1292_fw.mp4	0.0	361.1030492782593	
83	345.4849543571472	movie	1		277	81.0	2.5	/experiments/Knapen_AOT/AOT_stimuli/rescaled_final/1292_fw.mp4	0.0	361.5279664993286	2.4920432567596436
83	346.65895891189575	pulse	1	t		81.0	2.5	/experiments/Knapen_AOT/AOT_stimuli/rescaled_final/1292_fw.mp4	0.0	362.70197105407715	
83	347.97699761390686	fix_post	2		12	81.0	2.5	/experiments/Knapen_AOT/AOT_stimuli/rescaled_final/1292_fw.mp4	0.0	364.02000975608826	0.1000223159790039
84	348.07701992988586	fix_pre	0		120	82.0	2.5	blank	1.0	364.12003207206726	1.0001356601715088
84	348.26063227653503	pulse	0	t		82.0	2.5	blank	1.0	364.30364441871643	
84	349.0771555900574	movie	1		300	82.0	2.5	blank	1.0	365.12016773223877	2.50038480758667
84	349.86096382141113	pulse	1	t		82.0	2.5	blank	1.0	365.90397596359253	
84	351.46109890937805	pulse	1	t		82.0	2.5	blank	1.0	367.50411105155945	
84	351.57754039764404	fix_post	2		12	82.0	2.5	blank	1.0	367.62055253982544	0.10001277923583984
85	351.6775531768799	fix_pre	0		120	83.0	2.5	/experiments/Knapen_AOT/AOT_stimuli/rescaled_final/0607_fw.mp4	0.0	367.7205653190613	1.0084946155548096
85	352.6860477924347	movie	1		267	83.0	2.5	/experiments/Knapen_AOT/AOT_stimuli/rescaled_final/0607_fw.mp4	0.0	368.7290599346161	2.492018938064575
85	353.06028270721436	pulse	1	t		83.0	2.5	/experiments/Knapen_AOT/AOT_stimuli/rescaled_final/0607_fw.mp4	0.0	369.10329484939575	
85	354.660187959671	pulse	1	t		83.0	2.5	/experiments/Knapen_AOT/AOT_stimuli/rescaled_final/0607_fw.mp4	0.0	370.7032001018524	
85	355.17806673049927	fix_post	2		12	83.0	2.5	/experiments/Knapen_AOT/AOT_stimuli/rescaled_final/0607_fw.mp4	0.0	371.22107887268066	0.1000363826751709
87	355.27810311317444	stim	0		1715					371.32111525535583	14.293880224227905
87	356.26202273368835	pulse	0	t						372.30503487586975	
87	357.86202239990234	pulse	0	t						373.90503454208374	
87	359.45516705513	pulse	0	t						375.4981791973114	
87	361.055349111557	pulse	0	t						377.0983612537384	
87	362.65516090393066	pulse	0	t						378.69817304611206	
87	364.2552297115326	pulse	0	t						380.298241853714	
87	365.8549952507019	pulse	0	t						381.8980073928833	
87	367.45518469810486	pulse	0	t						383.49819684028625	
87	369.0553572177887	pulse	0	t						385.0983693599701	
