trial_nr	onset	event_type	phase	response	nr_frames	movie_index	movie_duration	movie_file	blank	onset_abs	duration
0	0.20839691162109375	stim	0		20					48.87802696228027	0.16654300689697266
0	0.3669118881225586	response	0	space						49.03654193878174	
1	0.3749399185180664	stim	0		4558					49.044569969177246	38.00022101402283
1	38.36497402191162	pulse	0	t						87.0346040725708	
1	38.375160932540894	stim	1		1713					87.04479098320007	14.299280166625977
1	39.956058979034424	pulse	1	t						88.6256890296936	
1	41.556281089782715	pulse	1	t						90.2259111404419	
1	43.156492948532104	pulse	1	t						91.82612299919128	
1	44.756787061691284	pulse	1	t						93.42641711235046	
1	46.356929063797	pulse	1	t						95.02655911445618	
1	47.94961190223694	pulse	1	t						96.61924195289612	
1	49.549920082092285	pulse	1	t						98.21955013275146	
1	51.14937901496887	pulse	1	t						99.81900906562805	
2	52.67444109916687	fix_pre	0		11	0.0	2.5	/experiments/knapen_AOT/AOT_stimuli/rescaled_final/1602_fw.mp4	0.0	101.34407114982605	0.09171581268310547
2	52.7503399848938	pulse	0	t		0.0	2.5	/experiments/knapen_AOT/AOT_stimuli/rescaled_final/1602_fw.mp4	0.0	101.41997003555298	
2	52.766156911849976	movie	1		243	0.0	2.5	/experiments/knapen_AOT/AOT_stimuli/rescaled_final/1602_fw.mp4	0.0	101.43578696250916	2.5087339878082275
2	54.3497838973999	pulse	1	t		0.0	2.5	/experiments/knapen_AOT/AOT_stimuli/rescaled_final/1602_fw.mp4	0.0	103.01941394805908	
2	55.2748908996582	fix_post	2		12	0.0	2.5	/experiments/knapen_AOT/AOT_stimuli/rescaled_final/1602_fw.mp4	0.0	103.94452095031738	0.09989404678344727
3	55.37478494644165	fix_pre	0		120	1.0	2.5	/experiments/knapen_AOT/AOT_stimuli/rescaled_final/1682_fw.mp4	0.0	104.04441499710083	1.0001590251922607
3	55.95016288757324	pulse	0	t		1.0	2.5	/experiments/knapen_AOT/AOT_stimuli/rescaled_final/1682_fw.mp4	0.0	104.61979293823242	
3	56.37494397163391	movie	1		244	1.0	2.5	/experiments/knapen_AOT/AOT_stimuli/rescaled_final/1682_fw.mp4	0.0	105.04457402229309	2.5003719329833984
3	57.55161190032959	pulse	1	t		1.0	2.5	/experiments/knapen_AOT/AOT_stimuli/rescaled_final/1682_fw.mp4	0.0	106.22124195098877	
3	58.87531590461731	fix_post	2		12	1.0	2.5	/experiments/knapen_AOT/AOT_stimuli/rescaled_final/1682_fw.mp4	0.0	107.54494595527649	0.10001516342163086
4	58.97533106803894	fix_pre	0		120	2.0	2.5	/experiments/knapen_AOT/AOT_stimuli/rescaled_final/1535_fw.mp4	0.0	107.64496111869812	1.0001230239868164
4	59.15052008628845	pulse	0	t		2.0	2.5	/experiments/knapen_AOT/AOT_stimuli/rescaled_final/1535_fw.mp4	0.0	107.82015013694763	
4	59.97545409202576	movie	1		242	2.0	2.5	/experiments/knapen_AOT/AOT_stimuli/rescaled_final/1535_fw.mp4	0.0	108.64508414268494	2.492041826248169
4	60.7508020401001	pulse	1	t		2.0	2.5	/experiments/knapen_AOT/AOT_stimuli/rescaled_final/1535_fw.mp4	0.0	109.42043209075928	
4	62.35107111930847	pulse	1	t		2.0	2.5	/experiments/knapen_AOT/AOT_stimuli/rescaled_final/1535_fw.mp4	0.0	111.02070116996765	
4	62.467495918273926	fix_post	2		13	2.0	2.5	/experiments/knapen_AOT/AOT_stimuli/rescaled_final/1535_fw.mp4	0.0	111.1371259689331	0.10838007926940918
5	62.575875997543335	fix_pre	0		119	3.0	2.5	/experiments/knapen_AOT/AOT_stimuli/rescaled_final/1442_fw.mp4	0.0	111.24550604820251	0.9917759895324707
5	63.567651987075806	movie	1		243	3.0	2.5	/experiments/knapen_AOT/AOT_stimuli/rescaled_final/1442_fw.mp4	0.0	112.23728203773499	2.5003550052642822
5	63.95162296295166	pulse	1	t		3.0	2.5	/experiments/knapen_AOT/AOT_stimuli/rescaled_final/1442_fw.mp4	0.0	112.62125301361084	
5	65.55148792266846	pulse	1	t		3.0	2.5	/experiments/knapen_AOT/AOT_stimuli/rescaled_final/1442_fw.mp4	0.0	114.22111797332764	
5	66.06800699234009	fix_post	2		12	3.0	2.5	/experiments/knapen_AOT/AOT_stimuli/rescaled_final/1442_fw.mp4	0.0	114.73763704299927	0.10006999969482422
6	66.16807699203491	fix_pre	0		119	4.0	2.5	/experiments/knapen_AOT/AOT_stimuli/rescaled_final/1591_rv.mp4	0.0	114.83770704269409	0.9918711185455322
6	67.15171098709106	pulse	0	t		4.0	2.5	/experiments/knapen_AOT/AOT_stimuli/rescaled_final/1591_rv.mp4	0.0	115.82134103775024	
6	67.15994811058044	movie	1		245	4.0	2.5	/experiments/knapen_AOT/AOT_stimuli/rescaled_final/1591_rv.mp4	0.0	115.82957816123962	2.5086138248443604
6	68.75235295295715	pulse	1	t		4.0	2.5	/experiments/knapen_AOT/AOT_stimuli/rescaled_final/1591_rv.mp4	0.0	117.42198300361633	
6	69.6685619354248	fix_post	2		12	4.0	2.5	/experiments/knapen_AOT/AOT_stimuli/rescaled_final/1591_rv.mp4	0.0	118.33819198608398	0.10003495216369629
7	69.7685968875885	fix_pre	0		120	5.0	2.5	/experiments/knapen_AOT/AOT_stimuli/rescaled_final/0224_fw.mp4	0.0	118.43822693824768	1.000150203704834
7	70.35232400894165	pulse	0	t		5.0	2.5	/experiments/knapen_AOT/AOT_stimuli/rescaled_final/0224_fw.mp4	0.0	119.02195405960083	
7	70.76874709129333	movie	1		244	5.0	2.5	/experiments/knapen_AOT/AOT_stimuli/rescaled_final/0224_fw.mp4	0.0	119.43837714195251	2.5003409385681152
7	71.95259189605713	pulse	1	t		5.0	2.5	/experiments/knapen_AOT/AOT_stimuli/rescaled_final/0224_fw.mp4	0.0	120.62222194671631	
7	73.26908802986145	fix_post	2		12	5.0	2.5	/experiments/knapen_AOT/AOT_stimuli/rescaled_final/0224_fw.mp4	0.0	121.93871808052063	0.10002803802490234
8	73.36911606788635	fix_pre	0		120	6.0	2.5	blank	1.0	122.03874611854553	1.0001280307769775
8	73.55275392532349	pulse	0	t		6.0	2.5	blank	1.0	122.22238397598267	
8	74.36924409866333	movie	1		300	6.0	2.5	blank	1.0	123.03887414932251	2.5004079341888428
8	75.15300798416138	pulse	1	t		6.0	2.5	blank	1.0	123.82263803482056	
8	76.75318002700806	pulse	1	t		6.0	2.5	blank	1.0	125.42281007766724	
8	76.86965203285217	fix_post	2		12	6.0	2.5	blank	1.0	125.53928208351135	0.10000085830688477
9	76.96965289115906	fix_pre	0		119	7.0	2.5	/experiments/knapen_AOT/AOT_stimuli/rescaled_final/0361_fw.mp4	0.0	125.63928294181824	0.9917972087860107
9	77.96145009994507	movie	1		245	7.0	2.5	/experiments/knapen_AOT/AOT_stimuli/rescaled_final/0361_fw.mp4	0.0	126.63108015060425	2.5003719329833984
9	78.35347104072571	pulse	1	t		7.0	2.5	/experiments/knapen_AOT/AOT_stimuli/rescaled_final/0361_fw.mp4	0.0	127.02310109138489	
9	79.9537239074707	pulse	1	t		7.0	2.5	/experiments/knapen_AOT/AOT_stimuli/rescaled_final/0361_fw.mp4	0.0	128.62335395812988	
9	80.46182203292847	fix_post	2		12	7.0	2.5	/experiments/knapen_AOT/AOT_stimuli/rescaled_final/0361_fw.mp4	0.0	129.13145208358765	0.10001707077026367
10	80.56183910369873	fix_pre	0		120	8.0	2.5	/experiments/knapen_AOT/AOT_stimuli/rescaled_final/1247_fw.mp4	0.0	129.2314691543579	1.0001919269561768
10	81.5538399219513	pulse	0	t		8.0	2.5	/experiments/knapen_AOT/AOT_stimuli/rescaled_final/1247_fw.mp4	0.0	130.22346997261047	
10	81.56203103065491	movie	1		244	8.0	2.5	/experiments/knapen_AOT/AOT_stimuli/rescaled_final/1247_fw.mp4	0.0	130.2316610813141	2.508678913116455
10	83.1545569896698	pulse	1	t		8.0	2.5	/experiments/knapen_AOT/AOT_stimuli/rescaled_final/1247_fw.mp4	0.0	131.82418704032898	
10	84.07070994377136	fix_post	2		12	8.0	2.5	/experiments/knapen_AOT/AOT_stimuli/rescaled_final/1247_fw.mp4	0.0	132.74033999443054	0.1000211238861084
11	84.17073106765747	fix_pre	0		120	9.0	2.5	/experiments/knapen_AOT/AOT_stimuli/rescaled_final/1936_rv.mp4	0.0	132.84036111831665	1.0001740455627441
11	84.75447010993958	pulse	0	t		9.0	2.5	/experiments/knapen_AOT/AOT_stimuli/rescaled_final/1936_rv.mp4	0.0	133.42410016059875	
11	85.17090511322021	movie	1		244	9.0	2.5	/experiments/knapen_AOT/AOT_stimuli/rescaled_final/1936_rv.mp4	0.0	133.8405351638794	2.500337839126587
11	86.35470604896545	pulse	1	t		9.0	2.5	/experiments/knapen_AOT/AOT_stimuli/rescaled_final/1936_rv.mp4	0.0	135.02433609962463	
11	87.6712429523468	fix_post	2		12	9.0	2.5	/experiments/knapen_AOT/AOT_stimuli/rescaled_final/1936_rv.mp4	0.0	136.34087300300598	0.10002493858337402
12	87.77126789093018	fix_pre	0		120	10.0	2.5	/experiments/knapen_AOT/AOT_stimuli/rescaled_final/0174_rv.mp4	0.0	136.44089794158936	1.0001811981201172
12	87.95479393005371	pulse	0	t		10.0	2.5	/experiments/knapen_AOT/AOT_stimuli/rescaled_final/0174_rv.mp4	0.0	136.6244239807129	
12	88.7714490890503	movie	1		244	10.0	2.5	/experiments/knapen_AOT/AOT_stimuli/rescaled_final/0174_rv.mp4	0.0	137.44107913970947	2.5003418922424316
12	89.55520296096802	pulse	1	t		10.0	2.5	/experiments/knapen_AOT/AOT_stimuli/rescaled_final/0174_rv.mp4	0.0	138.2248330116272	
12	91.15519094467163	pulse	1	t		10.0	2.5	/experiments/knapen_AOT/AOT_stimuli/rescaled_final/0174_rv.mp4	0.0	139.8248209953308	
12	91.27179098129272	fix_post	2		12	10.0	2.5	/experiments/knapen_AOT/AOT_stimuli/rescaled_final/0174_rv.mp4	0.0	139.9414210319519	0.10003304481506348
13	91.37182402610779	fix_pre	0		119	11.0	2.5	/experiments/knapen_AOT/AOT_stimuli/rescaled_final/0211_fw.mp4	0.0	140.04145407676697	0.9917960166931152
13	92.3636200428009	movie	1		244	11.0	2.5	/experiments/knapen_AOT/AOT_stimuli/rescaled_final/0211_fw.mp4	0.0	141.03325009346008	2.5004310607910156
13	92.75564002990723	pulse	1	t		11.0	2.5	/experiments/knapen_AOT/AOT_stimuli/rescaled_final/0211_fw.mp4	0.0	141.4252700805664	
13	94.35576796531677	pulse	1	t		11.0	2.5	/experiments/knapen_AOT/AOT_stimuli/rescaled_final/0211_fw.mp4	0.0	143.02539801597595	
13	94.86405110359192	fix_post	2		12	11.0	2.5	/experiments/knapen_AOT/AOT_stimuli/rescaled_final/0211_fw.mp4	0.0	143.5336811542511	0.0999608039855957
14	94.96401190757751	fix_pre	0		120	12.0	2.5	/experiments/knapen_AOT/AOT_stimuli/rescaled_final/1591_rv.mp4	0.0	143.6336419582367	1.0001730918884277
14	95.95599889755249	pulse	0	t		12.0	2.5	/experiments/knapen_AOT/AOT_stimuli/rescaled_final/1591_rv.mp4	0.0	144.62562894821167	
14	95.96418499946594	movie	1		245	12.0	2.5	/experiments/knapen_AOT/AOT_stimuli/rescaled_final/1591_rv.mp4	0.0	144.63381505012512	2.5087010860443115
14	97.55656290054321	pulse	1	t		12.0	2.5	/experiments/knapen_AOT/AOT_stimuli/rescaled_final/1591_rv.mp4	0.0	146.2261929512024	
14	98.47288608551025	fix_post	2		12	12.0	2.5	/experiments/knapen_AOT/AOT_stimuli/rescaled_final/1591_rv.mp4	0.0	147.14251613616943	0.09998202323913574
15	98.57286810874939	fix_pre	0		120	13.0	2.5	blank	1.0	147.24249815940857	1.0001599788665771
15	99.15657997131348	pulse	0	t		13.0	2.5	blank	1.0	147.82621002197266	
15	99.57302808761597	movie	1		300	13.0	2.5	blank	1.0	148.24265813827515	2.5003910064697266
15	100.75678706169128	pulse	1	t		13.0	2.5	blank	1.0	149.42641711235046	
15	102.0734190940857	fix_post	2		12	13.0	2.5	blank	1.0	150.74304914474487	0.10000181198120117
16	102.1734209060669	fix_pre	0		120	14.0	2.5	/experiments/knapen_AOT/AOT_stimuli/rescaled_final/0078_rv.mp4	0.0	150.84305095672607	1.0001311302185059
16	102.34946489334106	pulse	0	t		14.0	2.5	/experiments/knapen_AOT/AOT_stimuli/rescaled_final/0078_rv.mp4	0.0	151.01909494400024	
16	103.1735520362854	movie	1		245	14.0	2.5	/experiments/knapen_AOT/AOT_stimuli/rescaled_final/0078_rv.mp4	0.0	151.84318208694458	2.5003468990325928
16	103.94977807998657	pulse	1	t		14.0	2.5	/experiments/knapen_AOT/AOT_stimuli/rescaled_final/0078_rv.mp4	0.0	152.61940813064575	
16	105.55496501922607	pulse	1	t		14.0	2.5	/experiments/knapen_AOT/AOT_stimuli/rescaled_final/0078_rv.mp4	0.0	154.22459506988525	
16	105.673898935318	fix_post	2		12	14.0	2.5	/experiments/knapen_AOT/AOT_stimuli/rescaled_final/0078_rv.mp4	0.0	154.34352898597717	0.10005807876586914
17	105.77395701408386	fix_pre	0		119	15.0	2.5	/experiments/knapen_AOT/AOT_stimuli/rescaled_final/0156_fw.mp4	0.0	154.44358706474304	0.9917969703674316
17	106.7657539844513	movie	1		244	15.0	2.5	/experiments/knapen_AOT/AOT_stimuli/rescaled_final/0156_fw.mp4	0.0	155.43538403511047	2.5004351139068604
17	107.14999604225159	pulse	1	t		15.0	2.5	/experiments/knapen_AOT/AOT_stimuli/rescaled_final/0156_fw.mp4	0.0	155.81962609291077	
17	108.74965906143188	pulse	1	t		15.0	2.5	/experiments/knapen_AOT/AOT_stimuli/rescaled_final/0156_fw.mp4	0.0	157.41928911209106	
17	109.26618909835815	fix_post	2		12	15.0	2.5	/experiments/knapen_AOT/AOT_stimuli/rescaled_final/0156_fw.mp4	0.0	157.93581914901733	0.09995198249816895
18	109.36614108085632	fix_pre	0		119	16.0	2.5	/experiments/knapen_AOT/AOT_stimuli/rescaled_final/0624_fw.mp4	0.0	158.0357711315155	0.9918429851531982
18	110.34979104995728	pulse	0	t		16.0	2.5	/experiments/knapen_AOT/AOT_stimuli/rescaled_final/0624_fw.mp4	0.0	159.01942110061646	
18	110.35798406600952	movie	1		244	16.0	2.5	/experiments/knapen_AOT/AOT_stimuli/rescaled_final/0624_fw.mp4	0.0	159.0276141166687	2.50875186920166
18	111.9547688961029	pulse	1	t		16.0	2.5	/experiments/knapen_AOT/AOT_stimuli/rescaled_final/0624_fw.mp4	0.0	160.62439894676208	
18	112.86673593521118	fix_post	2		10	16.0	2.5	/experiments/knapen_AOT/AOT_stimuli/rescaled_final/0624_fw.mp4	0.0	161.53636598587036	0.09995102882385254
19	112.96668696403503	fix_pre	0		120	17.0	2.5	/experiments/knapen_AOT/AOT_stimuli/rescaled_final/0211_rv.mp4	0.0	161.6363170146942	1.0001420974731445
19	113.55034589767456	pulse	0	t		17.0	2.5	/experiments/knapen_AOT/AOT_stimuli/rescaled_final/0211_rv.mp4	0.0	162.21997594833374	
19	113.96682906150818	movie	1		244	17.0	2.5	/experiments/knapen_AOT/AOT_stimuli/rescaled_final/0211_rv.mp4	0.0	162.63645911216736	2.5003528594970703
19	115.15068793296814	pulse	1	t		17.0	2.5	/experiments/knapen_AOT/AOT_stimuli/rescaled_final/0211_rv.mp4	0.0	163.82031798362732	
19	116.46718192100525	fix_post	2		12	17.0	2.5	/experiments/knapen_AOT/AOT_stimuli/rescaled_final/0211_rv.mp4	0.0	165.13681197166443	0.1000370979309082
20	116.56721901893616	fix_pre	0		120	18.0	2.5	/experiments/knapen_AOT/AOT_stimuli/rescaled_final/0124_rv.mp4	0.0	165.23684906959534	1.000148057937622
20	116.75081706047058	pulse	0	t		18.0	2.5	/experiments/knapen_AOT/AOT_stimuli/rescaled_final/0124_rv.mp4	0.0	165.42044711112976	
20	117.56736707687378	movie	1		243	18.0	2.5	/experiments/knapen_AOT/AOT_stimuli/rescaled_final/0124_rv.mp4	0.0	166.23699712753296	2.500389814376831
20	118.3510410785675	pulse	1	t		18.0	2.5	/experiments/knapen_AOT/AOT_stimuli/rescaled_final/0124_rv.mp4	0.0	167.02067112922668	
20	119.95174098014832	pulse	1	t		18.0	2.5	/experiments/knapen_AOT/AOT_stimuli/rescaled_final/0124_rv.mp4	0.0	168.6213710308075	
20	120.06775689125061	fix_post	2		12	18.0	2.5	/experiments/knapen_AOT/AOT_stimuli/rescaled_final/0124_rv.mp4	0.0	168.7373869419098	0.1000070571899414
21	120.16776394844055	fix_pre	0		119	19.0	2.5	/experiments/knapen_AOT/AOT_stimuli/rescaled_final/1529_fw.mp4	0.0	168.83739399909973	0.9918220043182373
21	121.15958595275879	movie	1		243	19.0	2.5	/experiments/knapen_AOT/AOT_stimuli/rescaled_final/1529_fw.mp4	0.0	169.82921600341797	2.500533103942871
21	121.55162596702576	pulse	1	t		19.0	2.5	/experiments/knapen_AOT/AOT_stimuli/rescaled_final/1529_fw.mp4	0.0	170.22125601768494	
21	123.15176892280579	pulse	1	t		19.0	2.5	/experiments/knapen_AOT/AOT_stimuli/rescaled_final/1529_fw.mp4	0.0	171.82139897346497	
21	123.66011905670166	fix_post	2		12	19.0	2.5	/experiments/knapen_AOT/AOT_stimuli/rescaled_final/1529_fw.mp4	0.0	172.32974910736084	0.09985899925231934
22	123.75997805595398	fix_pre	0		120	20.0	2.5	blank	1.0	172.42960810661316	1.0001590251922607
22	124.75196695327759	pulse	0	t		20.0	2.5	blank	1.0	173.42159700393677	
22	124.76013708114624	movie	1		301	20.0	2.5	blank	1.0	173.42976713180542	2.50870680809021
22	126.35231494903564	pulse	1	t		20.0	2.5	blank	1.0	175.02194499969482	
22	127.26884388923645	fix_post	2		12	20.0	2.5	blank	1.0	175.93847393989563	0.10000109672546387
23	127.36884498596191	fix_pre	0		120	21.0	2.5	/experiments/knapen_AOT/AOT_stimuli/rescaled_final/0764_fw.mp4	0.0	176.0384750366211	1.0001420974731445
23	127.95249009132385	pulse	0	t		21.0	2.5	/experiments/knapen_AOT/AOT_stimuli/rescaled_final/0764_fw.mp4	0.0	176.62212014198303	
23	128.36898708343506	movie	1		245	21.0	2.5	/experiments/knapen_AOT/AOT_stimuli/rescaled_final/0764_fw.mp4	0.0	177.03861713409424	2.50032901763916
23	129.55280303955078	pulse	1	t		21.0	2.5	/experiments/knapen_AOT/AOT_stimuli/rescaled_final/0764_fw.mp4	0.0	178.22243309020996	
23	130.86931610107422	fix_post	2		12	21.0	2.5	/experiments/knapen_AOT/AOT_stimuli/rescaled_final/0764_fw.mp4	0.0	179.5389461517334	0.10004997253417969
24	130.9693660736084	fix_pre	0		120	22.0	2.5	/experiments/knapen_AOT/AOT_stimuli/rescaled_final/0659_rv.mp4	0.0	179.63899612426758	1.0001778602600098
24	131.15295791625977	pulse	0	t		22.0	2.5	/experiments/knapen_AOT/AOT_stimuli/rescaled_final/0659_rv.mp4	0.0	179.82258796691895	
24	131.9695439338684	movie	1		243	22.0	2.5	/experiments/knapen_AOT/AOT_stimuli/rescaled_final/0659_rv.mp4	0.0	180.6391739845276	2.500354051589966
24	132.75324201583862	pulse	1	t		22.0	2.5	/experiments/knapen_AOT/AOT_stimuli/rescaled_final/0659_rv.mp4	0.0	181.4228720664978	
24	134.3536880016327	pulse	1	t		22.0	2.5	/experiments/knapen_AOT/AOT_stimuli/rescaled_final/0659_rv.mp4	0.0	183.02331805229187	
24	134.46989798545837	fix_post	2		12	22.0	2.5	/experiments/knapen_AOT/AOT_stimuli/rescaled_final/0659_rv.mp4	0.0	183.13952803611755	0.10000991821289062
25	134.56990790367126	fix_pre	0		120	23.0	2.5	/experiments/knapen_AOT/AOT_stimuli/rescaled_final/0462_rv.mp4	0.0	183.23953795433044	1.0001661777496338
25	135.5700740814209	movie	1		243	23.0	2.5	/experiments/knapen_AOT/AOT_stimuli/rescaled_final/0462_rv.mp4	0.0	184.23970413208008	2.492025852203369
25	135.95487093925476	pulse	1	t		23.0	2.5	/experiments/knapen_AOT/AOT_stimuli/rescaled_final/0462_rv.mp4	0.0	184.62450098991394	
25	137.55389094352722	pulse	1	t		23.0	2.5	/experiments/knapen_AOT/AOT_stimuli/rescaled_final/0462_rv.mp4	0.0	186.2235209941864	
25	138.06209993362427	fix_post	2		12	23.0	2.5	/experiments/knapen_AOT/AOT_stimuli/rescaled_final/0462_rv.mp4	0.0	186.73172998428345	0.10001516342163086
26	138.1621150970459	fix_pre	0		120	24.0	2.5	/experiments/knapen_AOT/AOT_stimuli/rescaled_final/0946_rv.mp4	0.0	186.83174514770508	1.000128984451294
26	139.1542570590973	pulse	0	t		24.0	2.5	/experiments/knapen_AOT/AOT_stimuli/rescaled_final/0946_rv.mp4	0.0	187.82388710975647	
26	139.1622440814972	movie	1		244	24.0	2.5	/experiments/knapen_AOT/AOT_stimuli/rescaled_final/0946_rv.mp4	0.0	187.83187413215637	2.50872802734375
26	140.75576210021973	pulse	1	t		24.0	2.5	/experiments/knapen_AOT/AOT_stimuli/rescaled_final/0946_rv.mp4	0.0	189.4253921508789	
26	141.67097210884094	fix_post	2		12	24.0	2.5	/experiments/knapen_AOT/AOT_stimuli/rescaled_final/0946_rv.mp4	0.0	190.34060215950012	0.10001993179321289
27	141.77099204063416	fix_pre	0		120	25.0	2.5	/experiments/knapen_AOT/AOT_stimuli/rescaled_final/2065_fw.mp4	0.0	190.44062209129333	1.0001530647277832
27	142.35462999343872	pulse	0	t		25.0	2.5	/experiments/knapen_AOT/AOT_stimuli/rescaled_final/2065_fw.mp4	0.0	191.0242600440979	
27	142.77114510536194	movie	1		244	25.0	2.5	/experiments/knapen_AOT/AOT_stimuli/rescaled_final/2065_fw.mp4	0.0	191.44077515602112	2.5003409385681152
27	143.95129489898682	pulse	1	t		25.0	2.5	/experiments/knapen_AOT/AOT_stimuli/rescaled_final/2065_fw.mp4	0.0	192.620924949646	
27	145.27148604393005	fix_post	2		12	25.0	2.5	/experiments/knapen_AOT/AOT_stimuli/rescaled_final/2065_fw.mp4	0.0	193.94111609458923	0.10006904602050781
28	145.37155508995056	fix_pre	0		120	26.0	2.5	blank	1.0	194.04118514060974	1.0001158714294434
28	145.55515098571777	pulse	0	t		26.0	2.5	blank	1.0	194.22478103637695	
28	146.37167096138	movie	1		300	26.0	2.5	blank	1.0	195.04130101203918	2.5004220008850098
28	147.15542793273926	pulse	1	t		26.0	2.5	blank	1.0	195.82505798339844	
28	148.75557804107666	pulse	1	t		26.0	2.5	blank	1.0	197.42520809173584	
28	148.87209296226501	fix_post	2		12	26.0	2.5	blank	1.0	197.5417230129242	0.0999610424041748
29	148.9720540046692	fix_pre	0		120	27.0	2.5	/experiments/knapen_AOT/AOT_stimuli/rescaled_final/1031_fw.mp4	0.0	197.64168405532837	1.0001909732818604
29	149.97224497795105	movie	1		243	27.0	2.5	/experiments/knapen_AOT/AOT_stimuli/rescaled_final/1031_fw.mp4	0.0	198.64187502861023	2.4920010566711426
29	150.3605809211731	pulse	1	t		27.0	2.5	/experiments/knapen_AOT/AOT_stimuli/rescaled_final/1031_fw.mp4	0.0	199.03021097183228	
29	151.95618605613708	pulse	1	t		27.0	2.5	/experiments/knapen_AOT/AOT_stimuli/rescaled_final/1031_fw.mp4	0.0	200.62581610679626	
29	152.4642460346222	fix_post	2		12	27.0	2.5	/experiments/knapen_AOT/AOT_stimuli/rescaled_final/1031_fw.mp4	0.0	201.13387608528137	0.10007786750793457
30	152.56432390213013	fix_pre	0		120	28.0	2.5	/experiments/knapen_AOT/AOT_stimuli/rescaled_final/0898_rv.mp4	0.0	201.2339539527893	1.0001170635223389
30	153.55642008781433	pulse	0	t		28.0	2.5	/experiments/knapen_AOT/AOT_stimuli/rescaled_final/0898_rv.mp4	0.0	202.2260501384735	
30	153.56444096565247	movie	1		244	28.0	2.5	/experiments/knapen_AOT/AOT_stimuli/rescaled_final/0898_rv.mp4	0.0	202.23407101631165	2.5086660385131836
30	155.15754008293152	pulse	1	t		28.0	2.5	/experiments/knapen_AOT/AOT_stimuli/rescaled_final/0898_rv.mp4	0.0	203.8271701335907	
30	156.07310700416565	fix_post	2		12	28.0	2.5	/experiments/knapen_AOT/AOT_stimuli/rescaled_final/0898_rv.mp4	0.0	204.74273705482483	0.10001611709594727
31	156.1731231212616	fix_pre	0		120	29.0	2.5	/experiments/knapen_AOT/AOT_stimuli/rescaled_final/0514_rv.mp4	0.0	204.84275317192078	1.0001537799835205
31	156.74933099746704	pulse	0	t		29.0	2.5	/experiments/knapen_AOT/AOT_stimuli/rescaled_final/0514_rv.mp4	0.0	205.41896104812622	
31	157.17327690124512	movie	1		244	29.0	2.5	/experiments/knapen_AOT/AOT_stimuli/rescaled_final/0514_rv.mp4	0.0	205.8429069519043	2.500352144241333
31	158.35004210472107	pulse	1	t		29.0	2.5	/experiments/knapen_AOT/AOT_stimuli/rescaled_final/0514_rv.mp4	0.0	207.01967215538025	
31	159.67362904548645	fix_post	2		12	29.0	2.5	/experiments/knapen_AOT/AOT_stimuli/rescaled_final/0514_rv.mp4	0.0	208.34325909614563	0.10004901885986328
32	159.7736780643463	fix_pre	0		120	30.0	2.5	/experiments/knapen_AOT/AOT_stimuli/rescaled_final/0742_fw.mp4	0.0	208.4433081150055	1.0001518726348877
32	159.94964599609375	pulse	0	t		30.0	2.5	/experiments/knapen_AOT/AOT_stimuli/rescaled_final/0742_fw.mp4	0.0	208.61927604675293	
32	160.7738299369812	movie	1		243	30.0	2.5	/experiments/knapen_AOT/AOT_stimuli/rescaled_final/0742_fw.mp4	0.0	209.44345998764038	2.5003390312194824
32	161.54924988746643	pulse	1	t		30.0	2.5	/experiments/knapen_AOT/AOT_stimuli/rescaled_final/0742_fw.mp4	0.0	210.2188799381256	
32	163.14931797981262	pulse	1	t		30.0	2.5	/experiments/knapen_AOT/AOT_stimuli/rescaled_final/0742_fw.mp4	0.0	211.8189480304718	
32	163.27416896820068	fix_post	2		12	30.0	2.5	/experiments/knapen_AOT/AOT_stimuli/rescaled_final/0742_fw.mp4	0.0	211.94379901885986	0.10004115104675293
33	163.37421011924744	fix_pre	0		120	31.0	2.5	/experiments/knapen_AOT/AOT_stimuli/rescaled_final/1129_fw.mp4	0.0	212.04384016990662	1.000147819519043
33	164.37435793876648	movie	1		242	31.0	2.5	/experiments/knapen_AOT/AOT_stimuli/rescaled_final/1129_fw.mp4	0.0	213.04398798942566	2.4920079708099365
33	164.74956011772156	pulse	1	t		31.0	2.5	/experiments/knapen_AOT/AOT_stimuli/rescaled_final/1129_fw.mp4	0.0	213.41919016838074	
33	166.3498980998993	pulse	1	t		31.0	2.5	/experiments/knapen_AOT/AOT_stimuli/rescaled_final/1129_fw.mp4	0.0	215.01952815055847	
33	166.86636590957642	fix_post	2		12	31.0	2.5	/experiments/knapen_AOT/AOT_stimuli/rescaled_final/1129_fw.mp4	0.0	215.5359959602356	0.10005998611450195
34	166.96642589569092	fix_pre	0		119	32.0	2.5	/experiments/knapen_AOT/AOT_stimuli/rescaled_final/0959_fw.mp4	0.0	215.6360559463501	0.991793155670166
34	167.95017409324646	pulse	0	t		32.0	2.5	/experiments/knapen_AOT/AOT_stimuli/rescaled_final/0959_fw.mp4	0.0	216.61980414390564	
34	167.95821905136108	movie	1		244	32.0	2.5	/experiments/knapen_AOT/AOT_stimuli/rescaled_final/0959_fw.mp4	0.0	216.62784910202026	2.5087389945983887
34	169.55090808868408	pulse	1	t		32.0	2.5	/experiments/knapen_AOT/AOT_stimuli/rescaled_final/0959_fw.mp4	0.0	218.22053813934326	
34	170.46695804595947	fix_post	2		12	32.0	2.5	/experiments/knapen_AOT/AOT_stimuli/rescaled_final/0959_fw.mp4	0.0	219.13658809661865	0.09999299049377441
35	170.56695103645325	fix_pre	0		120	33.0	2.5	/experiments/knapen_AOT/AOT_stimuli/rescaled_final/1207_fw.mp4	0.0	219.23658108711243	1.0001389980316162
35	171.15059089660645	pulse	0	t		33.0	2.5	/experiments/knapen_AOT/AOT_stimuli/rescaled_final/1207_fw.mp4	0.0	219.82022094726562	
35	171.56709003448486	movie	1		241	33.0	2.5	/experiments/knapen_AOT/AOT_stimuli/rescaled_final/1207_fw.mp4	0.0	220.23672008514404	2.4921820163726807
35	172.75084400177002	pulse	1	t		33.0	2.5	/experiments/knapen_AOT/AOT_stimuli/rescaled_final/1207_fw.mp4	0.0	221.4204740524292	
35	174.05927205085754	fix_post	2		13	33.0	2.5	/experiments/knapen_AOT/AOT_stimuli/rescaled_final/1207_fw.mp4	0.0	222.72890210151672	0.10821390151977539
36	174.16748595237732	fix_pre	0		120	34.0	2.5	blank	1.0	222.8371160030365	1.0001311302185059
36	174.35110902786255	pulse	0	t		34.0	2.5	blank	1.0	223.02073907852173	
36	175.16761708259583	movie	1		300	34.0	2.5	blank	1.0	223.837247133255	2.5004160404205322
36	175.9513919353485	pulse	1	t		34.0	2.5	blank	1.0	224.6210219860077	
36	177.55156803131104	pulse	1	t		34.0	2.5	blank	1.0	226.22119808197021	
36	177.66803312301636	fix_post	2		12	34.0	2.5	blank	1.0	226.33766317367554	0.10002398490905762
37	177.76805710792542	fix_pre	0		120	35.0	2.5	/experiments/knapen_AOT/AOT_stimuli/rescaled_final/1118_rv.mp4	0.0	226.4376871585846	1.0001189708709717
37	178.7681760787964	movie	1		242	35.0	2.5	/experiments/knapen_AOT/AOT_stimuli/rescaled_final/1118_rv.mp4	0.0	227.43780612945557	2.492008924484253
37	179.1524350643158	pulse	1	t		35.0	2.5	/experiments/knapen_AOT/AOT_stimuli/rescaled_final/1118_rv.mp4	0.0	227.82206511497498	
37	180.75198698043823	pulse	1	t		35.0	2.5	/experiments/knapen_AOT/AOT_stimuli/rescaled_final/1118_rv.mp4	0.0	229.4216170310974	
37	181.26018500328064	fix_post	2		12	35.0	2.5	/experiments/knapen_AOT/AOT_stimuli/rescaled_final/1118_rv.mp4	0.0	229.92981505393982	0.10010695457458496
38	181.36029195785522	fix_pre	0		120	36.0	2.5	/experiments/knapen_AOT/AOT_stimuli/rescaled_final/0886_rv.mp4	0.0	230.0299220085144	1.0001060962677002
38	182.3523371219635	pulse	0	t		36.0	2.5	/experiments/knapen_AOT/AOT_stimuli/rescaled_final/0886_rv.mp4	0.0	231.02196717262268	
38	182.36039805412292	movie	1		245	36.0	2.5	/experiments/knapen_AOT/AOT_stimuli/rescaled_final/0886_rv.mp4	0.0	231.0300281047821	2.5087149143218994
38	183.95303797721863	pulse	1	t		36.0	2.5	/experiments/knapen_AOT/AOT_stimuli/rescaled_final/0886_rv.mp4	0.0	232.6226680278778	
38	184.86911296844482	fix_post	2		12	36.0	2.5	/experiments/knapen_AOT/AOT_stimuli/rescaled_final/0886_rv.mp4	0.0	233.538743019104	0.09996604919433594
39	184.96907901763916	fix_pre	0		120	37.0	2.5	/experiments/knapen_AOT/AOT_stimuli/rescaled_final/1372_rv.mp4	0.0	233.63870906829834	1.0001718997955322
39	185.5527379512787	pulse	0	t		37.0	2.5	/experiments/knapen_AOT/AOT_stimuli/rescaled_final/1372_rv.mp4	0.0	234.22236800193787	
39	185.9692509174347	movie	1		243	37.0	2.5	/experiments/knapen_AOT/AOT_stimuli/rescaled_final/1372_rv.mp4	0.0	234.63888096809387	2.5003390312194824
39	187.15303802490234	pulse	1	t		37.0	2.5	/experiments/knapen_AOT/AOT_stimuli/rescaled_final/1372_rv.mp4	0.0	235.82266807556152	
39	188.46958994865417	fix_post	2		12	37.0	2.5	/experiments/knapen_AOT/AOT_stimuli/rescaled_final/1372_rv.mp4	0.0	237.13921999931335	0.10003995895385742
40	188.56962990760803	fix_pre	0		120	38.0	2.5	/experiments/knapen_AOT/AOT_stimuli/rescaled_final/0255_fw.mp4	0.0	237.2392599582672	1.000150203704834
40	188.7532811164856	pulse	0	t		38.0	2.5	/experiments/knapen_AOT/AOT_stimuli/rescaled_final/0255_fw.mp4	0.0	237.42291116714478	
40	189.56978011131287	movie	1		243	38.0	2.5	/experiments/knapen_AOT/AOT_stimuli/rescaled_final/0255_fw.mp4	0.0	238.23941016197205	2.5003809928894043
40	190.35350608825684	pulse	1	t		38.0	2.5	/experiments/knapen_AOT/AOT_stimuli/rescaled_final/0255_fw.mp4	0.0	239.02313613891602	
40	191.95406103134155	pulse	1	t		38.0	2.5	/experiments/knapen_AOT/AOT_stimuli/rescaled_final/0255_fw.mp4	0.0	240.62369108200073	
40	192.07016110420227	fix_post	2		12	38.0	2.5	/experiments/knapen_AOT/AOT_stimuli/rescaled_final/0255_fw.mp4	0.0	240.73979115486145	0.09999394416809082
41	192.17015504837036	fix_pre	0		120	39.0	2.5	/experiments/knapen_AOT/AOT_stimuli/rescaled_final/1489_rv.mp4	0.0	240.83978509902954	1.0001318454742432
41	193.1702868938446	movie	1		243	39.0	2.5	/experiments/knapen_AOT/AOT_stimuli/rescaled_final/1489_rv.mp4	0.0	241.83991694450378	2.4921162128448486
41	193.55463695526123	pulse	1	t		39.0	2.5	/experiments/knapen_AOT/AOT_stimuli/rescaled_final/1489_rv.mp4	0.0	242.2242670059204	
41	195.1541678905487	pulse	1	t		39.0	2.5	/experiments/knapen_AOT/AOT_stimuli/rescaled_final/1489_rv.mp4	0.0	243.82379794120789	
41	195.66240310668945	fix_post	2		12	39.0	2.5	/experiments/knapen_AOT/AOT_stimuli/rescaled_final/1489_rv.mp4	0.0	244.33203315734863	0.09999394416809082
42	195.76239705085754	fix_pre	0		120	40.0	2.5	/experiments/knapen_AOT/AOT_stimuli/rescaled_final/1433_rv.mp4	0.0	244.43202710151672	1.0001399517059326
42	196.75446009635925	pulse	0	t		40.0	2.5	/experiments/knapen_AOT/AOT_stimuli/rescaled_final/1433_rv.mp4	0.0	245.42409014701843	
42	196.76253700256348	movie	1		245	40.0	2.5	/experiments/knapen_AOT/AOT_stimuli/rescaled_final/1433_rv.mp4	0.0	245.43216705322266	2.508661985397339
42	198.35510897636414	pulse	1	t		40.0	2.5	/experiments/knapen_AOT/AOT_stimuli/rescaled_final/1433_rv.mp4	0.0	247.02473902702332	
42	199.27119898796082	fix_post	2		12	40.0	2.5	/experiments/knapen_AOT/AOT_stimuli/rescaled_final/1433_rv.mp4	0.0	247.94082903862	0.10003805160522461
43	199.37123703956604	fix_pre	0		120	41.0	2.5	blank	1.0	248.04086709022522	1.0001468658447266
43	199.95483303070068	pulse	0	t		41.0	2.5	blank	1.0	248.62446308135986	
43	200.37138390541077	movie	1		300	41.0	2.5	blank	1.0	249.04101395606995	2.500385046005249
43	201.55509400367737	pulse	1	t		41.0	2.5	blank	1.0	250.22472405433655	
43	202.87176895141602	fix_post	2		12	41.0	2.5	blank	1.0	251.5413990020752	0.10000896453857422
44	202.9717779159546	fix_pre	0		120	42.0	2.5	/experiments/knapen_AOT/AOT_stimuli/rescaled_final/0191_rv.mp4	0.0	251.64140796661377	1.0001580715179443
44	203.15541791915894	pulse	0	t		42.0	2.5	/experiments/knapen_AOT/AOT_stimuli/rescaled_final/0191_rv.mp4	0.0	251.82504796981812	
44	203.97193598747253	movie	1		246	42.0	2.5	/experiments/knapen_AOT/AOT_stimuli/rescaled_final/0191_rv.mp4	0.0	252.6415660381317	2.5004069805145264
44	204.75570702552795	pulse	1	t		42.0	2.5	/experiments/knapen_AOT/AOT_stimuli/rescaled_final/0191_rv.mp4	0.0	253.42533707618713	
44	206.3559980392456	pulse	1	t		42.0	2.5	/experiments/knapen_AOT/AOT_stimuli/rescaled_final/0191_rv.mp4	0.0	255.02562808990479	
44	206.47234296798706	fix_post	2		12	42.0	2.5	/experiments/knapen_AOT/AOT_stimuli/rescaled_final/0191_rv.mp4	0.0	255.14197301864624	0.09996914863586426
45	206.57231211662292	fix_pre	0		120	43.0	2.5	/experiments/knapen_AOT/AOT_stimuli/rescaled_final/0102_fw.mp4	0.0	255.2419421672821	1.000152826309204
45	207.57246494293213	movie	1		245	43.0	2.5	/experiments/knapen_AOT/AOT_stimuli/rescaled_final/0102_fw.mp4	0.0	256.2420949935913	2.492035150527954
45	207.95704007148743	pulse	1	t		43.0	2.5	/experiments/knapen_AOT/AOT_stimuli/rescaled_final/0102_fw.mp4	0.0	256.6266701221466	
45	209.5562620162964	pulse	1	t		43.0	2.5	/experiments/knapen_AOT/AOT_stimuli/rescaled_final/0102_fw.mp4	0.0	258.22589206695557	
45	210.06450009346008	fix_post	2		12	43.0	2.5	/experiments/knapen_AOT/AOT_stimuli/rescaled_final/0102_fw.mp4	0.0	258.73413014411926	0.10002303123474121
46	210.16452312469482	fix_pre	0		120	44.0	2.5	/experiments/knapen_AOT/AOT_stimuli/rescaled_final/0670_rv.mp4	0.0	258.834153175354	1.0001659393310547
46	211.15658402442932	pulse	0	t		44.0	2.5	/experiments/knapen_AOT/AOT_stimuli/rescaled_final/0670_rv.mp4	0.0	259.8262140750885	
46	211.16468906402588	movie	1		244	44.0	2.5	/experiments/knapen_AOT/AOT_stimuli/rescaled_final/0670_rv.mp4	0.0	259.83431911468506	2.5086610317230225
46	212.7572889328003	pulse	1	t		44.0	2.5	/experiments/knapen_AOT/AOT_stimuli/rescaled_final/0670_rv.mp4	0.0	261.4269189834595	
46	213.6733500957489	fix_post	2		12	44.0	2.5	/experiments/knapen_AOT/AOT_stimuli/rescaled_final/0670_rv.mp4	0.0	262.3429801464081	0.10007286071777344
47	213.77342295646667	fix_pre	0		120	45.0	2.5	/experiments/knapen_AOT/AOT_stimuli/rescaled_final/1249_rv.mp4	0.0	262.44305300712585	1.0001590251922607
47	214.3569779396057	pulse	0	t		45.0	2.5	/experiments/knapen_AOT/AOT_stimuli/rescaled_final/1249_rv.mp4	0.0	263.0266079902649	
47	214.77358198165894	movie	1		244	45.0	2.5	/experiments/knapen_AOT/AOT_stimuli/rescaled_final/1249_rv.mp4	0.0	263.4432120323181	2.5003039836883545
47	215.94977593421936	pulse	1	t		45.0	2.5	/experiments/knapen_AOT/AOT_stimuli/rescaled_final/1249_rv.mp4	0.0	264.61940598487854	
47	217.2738859653473	fix_post	2		12	45.0	2.5	/experiments/knapen_AOT/AOT_stimuli/rescaled_final/1249_rv.mp4	0.0	265.94351601600647	0.10004711151123047
48	217.37393307685852	fix_pre	0		120	46.0	2.5	/experiments/knapen_AOT/AOT_stimuli/rescaled_final/0310_fw.mp4	0.0	266.0435631275177	1.0002050399780273
48	217.55002689361572	pulse	0	t		46.0	2.5	/experiments/knapen_AOT/AOT_stimuli/rescaled_final/0310_fw.mp4	0.0	266.2196569442749	
48	218.37413811683655	movie	1		244	46.0	2.5	/experiments/knapen_AOT/AOT_stimuli/rescaled_final/0310_fw.mp4	0.0	267.0437681674957	2.5004658699035645
48	219.1502809524536	pulse	1	t		46.0	2.5	/experiments/knapen_AOT/AOT_stimuli/rescaled_final/0310_fw.mp4	0.0	267.8199110031128	
48	220.75805807113647	pulse	1	t		46.0	2.5	/experiments/knapen_AOT/AOT_stimuli/rescaled_final/0310_fw.mp4	0.0	269.42768812179565	
48	220.8746039867401	fix_post	2		12	46.0	2.5	/experiments/knapen_AOT/AOT_stimuli/rescaled_final/0310_fw.mp4	0.0	269.5442340373993	0.09988713264465332
49	220.97449111938477	fix_pre	0		120	47.0	2.5	/experiments/knapen_AOT/AOT_stimuli/rescaled_final/0327_fw.mp4	0.0	269.64412117004395	1.0001018047332764
49	221.97459292411804	movie	1		243	47.0	2.5	/experiments/knapen_AOT/AOT_stimuli/rescaled_final/0327_fw.mp4	0.0	270.6442229747772	2.492027997970581
49	222.35005807876587	pulse	1	t		47.0	2.5	/experiments/knapen_AOT/AOT_stimuli/rescaled_final/0327_fw.mp4	0.0	271.01968812942505	
49	223.95023012161255	pulse	1	t		47.0	2.5	/experiments/knapen_AOT/AOT_stimuli/rescaled_final/0327_fw.mp4	0.0	272.61986017227173	
49	224.46662092208862	fix_post	2		12	47.0	2.5	/experiments/knapen_AOT/AOT_stimuli/rescaled_final/0327_fw.mp4	0.0	273.1362509727478	0.10003113746643066
50	224.56665205955505	fix_pre	0		119	48.0	2.5	/experiments/knapen_AOT/AOT_stimuli/rescaled_final/0365_fw.mp4	0.0	273.23628211021423	0.9918529987335205
50	225.5502688884735	pulse	0	t		48.0	2.5	/experiments/knapen_AOT/AOT_stimuli/rescaled_final/0365_fw.mp4	0.0	274.2198989391327	
50	225.55850505828857	movie	1		246	48.0	2.5	/experiments/knapen_AOT/AOT_stimuli/rescaled_final/0365_fw.mp4	0.0	274.22813510894775	2.5086538791656494
50	227.15131306648254	pulse	1	t		48.0	2.5	/experiments/knapen_AOT/AOT_stimuli/rescaled_final/0365_fw.mp4	0.0	275.8209431171417	
50	228.06715893745422	fix_post	2		12	48.0	2.5	/experiments/knapen_AOT/AOT_stimuli/rescaled_final/0365_fw.mp4	0.0	276.7367889881134	0.10002708435058594
51	228.1671860218048	fix_pre	0		120	49.0	2.5	blank	1.0	276.836816072464	1.0011050701141357
51	228.7507779598236	pulse	0	t		49.0	2.5	blank	1.0	277.4204080104828	
51	229.16829109191895	movie	1		297	49.0	2.5	blank	1.0	277.8379211425781	2.499462842941284
51	230.35109090805054	pulse	1	t		49.0	2.5	blank	1.0	279.0207209587097	
51	231.66775393486023	fix_post	2		12	49.0	2.5	blank	1.0	280.3373839855194	0.09997797012329102
52	231.76773190498352	fix_pre	0		120	50.0	2.5	/experiments/knapen_AOT/AOT_stimuli/rescaled_final/0236_rv.mp4	0.0	280.4373619556427	1.0001871585845947
52	231.9513840675354	pulse	0	t		50.0	2.5	/experiments/knapen_AOT/AOT_stimuli/rescaled_final/0236_rv.mp4	0.0	280.6210141181946	
52	232.76791906356812	movie	1		246	50.0	2.5	/experiments/knapen_AOT/AOT_stimuli/rescaled_final/0236_rv.mp4	0.0	281.4375491142273	2.5003018379211426
52	233.55152201652527	pulse	1	t		50.0	2.5	/experiments/knapen_AOT/AOT_stimuli/rescaled_final/0236_rv.mp4	0.0	282.22115206718445	
52	235.15176796913147	pulse	1	t		50.0	2.5	/experiments/knapen_AOT/AOT_stimuli/rescaled_final/0236_rv.mp4	0.0	283.82139801979065	
52	235.26822090148926	fix_post	2		12	50.0	2.5	/experiments/knapen_AOT/AOT_stimuli/rescaled_final/0236_rv.mp4	0.0	283.93785095214844	0.1000511646270752
53	235.36827206611633	fix_pre	0		120	51.0	2.5	/experiments/knapen_AOT/AOT_stimuli/rescaled_final/0411_fw.mp4	0.0	284.0379021167755	1.0001540184020996
53	236.36842608451843	movie	1		243	51.0	2.5	/experiments/knapen_AOT/AOT_stimuli/rescaled_final/0411_fw.mp4	0.0	285.0380561351776	2.4920108318328857
53	236.75260210037231	pulse	1	t		51.0	2.5	/experiments/knapen_AOT/AOT_stimuli/rescaled_final/0411_fw.mp4	0.0	285.4222321510315	
53	238.35234093666077	pulse	1	t		51.0	2.5	/experiments/knapen_AOT/AOT_stimuli/rescaled_final/0411_fw.mp4	0.0	287.02197098731995	
53	238.86043691635132	fix_post	2		12	51.0	2.5	/experiments/knapen_AOT/AOT_stimuli/rescaled_final/0411_fw.mp4	0.0	287.5300669670105	0.10009407997131348
54	238.96053099632263	fix_pre	0		120	52.0	2.5	/experiments/knapen_AOT/AOT_stimuli/rescaled_final/1119_fw.mp4	0.0	287.6301610469818	1.0000970363616943
54	239.952495098114	pulse	0	t		52.0	2.5	/experiments/knapen_AOT/AOT_stimuli/rescaled_final/1119_fw.mp4	0.0	288.6221251487732	
54	239.96062803268433	movie	1		245	52.0	2.5	/experiments/knapen_AOT/AOT_stimuli/rescaled_final/1119_fw.mp4	0.0	288.6302580833435	2.508660078048706
54	241.55348992347717	pulse	1	t		52.0	2.5	/experiments/knapen_AOT/AOT_stimuli/rescaled_final/1119_fw.mp4	0.0	290.22311997413635	
54	242.46928811073303	fix_post	2		12	52.0	2.5	/experiments/knapen_AOT/AOT_stimuli/rescaled_final/1119_fw.mp4	0.0	291.1389181613922	0.10008096694946289
55	242.5693690776825	fix_pre	0		120	53.0	2.5	/experiments/knapen_AOT/AOT_stimuli/rescaled_final/1452_fw.mp4	0.0	291.2389991283417	1.0001499652862549
55	243.15300607681274	pulse	0	t		53.0	2.5	/experiments/knapen_AOT/AOT_stimuli/rescaled_final/1452_fw.mp4	0.0	291.8226361274719	
55	243.56951904296875	movie	1		243	53.0	2.5	/experiments/knapen_AOT/AOT_stimuli/rescaled_final/1452_fw.mp4	0.0	292.23914909362793	2.500347852706909
55	244.75329303741455	pulse	1	t		53.0	2.5	/experiments/knapen_AOT/AOT_stimuli/rescaled_final/1452_fw.mp4	0.0	293.42292308807373	
55	246.06986689567566	fix_post	2		12	53.0	2.5	/experiments/knapen_AOT/AOT_stimuli/rescaled_final/1452_fw.mp4	0.0	294.73949694633484	0.10000801086425781
56	246.16987490653992	fix_pre	0		120	54.0	2.5	blank	1.0	294.8395049571991	1.0002081394195557
56	246.35350608825684	pulse	0	t		54.0	2.5	blank	1.0	295.023136138916	
56	247.17008304595947	movie	1		300	54.0	2.5	blank	1.0	295.83971309661865	2.50034499168396
56	247.9537000656128	pulse	1	t		54.0	2.5	blank	1.0	296.623330116272	
56	249.55388593673706	pulse	1	t		54.0	2.5	blank	1.0	298.22351598739624	
56	249.67042803764343	fix_post	2		12	54.0	2.5	blank	1.0	298.3400580883026	0.10002398490905762
57	249.7704520225525	fix_pre	0		120	55.0	2.5	/experiments/knapen_AOT/AOT_stimuli/rescaled_final/1254_rv.mp4	0.0	298.44008207321167	1.0001499652862549
57	250.77060198783875	movie	1		244	55.0	2.5	/experiments/knapen_AOT/AOT_stimuli/rescaled_final/1254_rv.mp4	0.0	299.4402320384979	2.4919939041137695
57	251.15466904640198	pulse	1	t		55.0	2.5	/experiments/knapen_AOT/AOT_stimuli/rescaled_final/1254_rv.mp4	0.0	299.82429909706116	
57	252.75451803207397	pulse	1	t		55.0	2.5	/experiments/knapen_AOT/AOT_stimuli/rescaled_final/1254_rv.mp4	0.0	301.42414808273315	
57	253.26259589195251	fix_post	2		12	55.0	2.5	/experiments/knapen_AOT/AOT_stimuli/rescaled_final/1254_rv.mp4	0.0	301.9322259426117	0.10003113746643066
58	253.36262702941895	fix_pre	0		120	56.0	2.5	/experiments/knapen_AOT/AOT_stimuli/rescaled_final/0211_fw.mp4	0.0	302.0322570800781	1.0001800060272217
58	254.354651927948	pulse	0	t		56.0	2.5	/experiments/knapen_AOT/AOT_stimuli/rescaled_final/0211_fw.mp4	0.0	303.0242819786072	
58	254.36280703544617	movie	1		245	56.0	2.5	/experiments/knapen_AOT/AOT_stimuli/rescaled_final/0211_fw.mp4	0.0	303.03243708610535	2.5087199211120605
58	255.9554901123047	pulse	1	t		56.0	2.5	/experiments/knapen_AOT/AOT_stimuli/rescaled_final/0211_fw.mp4	0.0	304.62512016296387	
58	256.8715269565582	fix_post	2		12	56.0	2.5	/experiments/knapen_AOT/AOT_stimuli/rescaled_final/0211_fw.mp4	0.0	305.5411570072174	0.10013198852539062
59	256.9716589450836	fix_pre	0		120	57.0	2.5	/experiments/knapen_AOT/AOT_stimuli/rescaled_final/0624_fw.mp4	0.0	305.6412889957428	0.9999861717224121
59	257.55522298812866	pulse	0	t		57.0	2.5	/experiments/knapen_AOT/AOT_stimuli/rescaled_final/0624_fw.mp4	0.0	306.22485303878784	
59	257.97164511680603	movie	1		244	57.0	2.5	/experiments/knapen_AOT/AOT_stimuli/rescaled_final/0624_fw.mp4	0.0	306.6412751674652	2.500386953353882
59	259.1554250717163	pulse	1	t		57.0	2.5	/experiments/knapen_AOT/AOT_stimuli/rescaled_final/0624_fw.mp4	0.0	307.8250551223755	
59	260.4720320701599	fix_post	2		12	57.0	2.5	/experiments/knapen_AOT/AOT_stimuli/rescaled_final/0624_fw.mp4	0.0	309.1416621208191	0.1000819206237793
60	260.5721139907837	fix_pre	0		120	58.0	2.5	/experiments/knapen_AOT/AOT_stimuli/rescaled_final/0236_fw.mp4	0.0	309.24174404144287	1.0001320838928223
60	260.755695104599	pulse	0	t		58.0	2.5	/experiments/knapen_AOT/AOT_stimuli/rescaled_final/0236_fw.mp4	0.0	309.4253251552582	
60	261.5722460746765	movie	1		246	58.0	2.5	/experiments/knapen_AOT/AOT_stimuli/rescaled_final/0236_fw.mp4	0.0	310.2418761253357	2.500290870666504
60	262.3558180332184	pulse	1	t		58.0	2.5	/experiments/knapen_AOT/AOT_stimuli/rescaled_final/0236_fw.mp4	0.0	311.02544808387756	
60	263.95619797706604	pulse	1	t		58.0	2.5	/experiments/knapen_AOT/AOT_stimuli/rescaled_final/0236_fw.mp4	0.0	312.6258280277252	
60	264.072536945343	fix_post	2		12	58.0	2.5	/experiments/knapen_AOT/AOT_stimuli/rescaled_final/0236_fw.mp4	0.0	312.7421669960022	0.100067138671875
61	264.1726040840149	fix_pre	0		119	59.0	2.5	/experiments/knapen_AOT/AOT_stimuli/rescaled_final/0516_rv.mp4	0.0	312.8422341346741	0.9917728900909424
61	265.16437697410583	movie	1		244	59.0	2.5	/experiments/knapen_AOT/AOT_stimuli/rescaled_final/0516_rv.mp4	0.0	313.834007024765	2.5004279613494873
61	265.55250692367554	pulse	1	t		59.0	2.5	/experiments/knapen_AOT/AOT_stimuli/rescaled_final/0516_rv.mp4	0.0	314.2221369743347	
61	267.15667390823364	pulse	1	t		59.0	2.5	/experiments/knapen_AOT/AOT_stimuli/rescaled_final/0516_rv.mp4	0.0	315.8263039588928	
61	267.6648049354553	fix_post	2		12	59.0	2.5	/experiments/knapen_AOT/AOT_stimuli/rescaled_final/0516_rv.mp4	0.0	316.3344349861145	0.09995913505554199
62	267.76476407051086	fix_pre	0		120	60.0	2.5	/experiments/knapen_AOT/AOT_stimuli/rescaled_final/0908_rv.mp4	0.0	316.43439412117004	1.00016188621521
62	268.74948596954346	pulse	0	t		60.0	2.5	/experiments/knapen_AOT/AOT_stimuli/rescaled_final/0908_rv.mp4	0.0	317.41911602020264	
62	268.7649259567261	movie	1		245	60.0	2.5	/experiments/knapen_AOT/AOT_stimuli/rescaled_final/0908_rv.mp4	0.0	317.43455600738525	2.5086920261383057
62	270.3582110404968	pulse	1	t		60.0	2.5	/experiments/knapen_AOT/AOT_stimuli/rescaled_final/0908_rv.mp4	0.0	319.027841091156	
62	271.2736179828644	fix_post	2		12	60.0	2.5	/experiments/knapen_AOT/AOT_stimuli/rescaled_final/0908_rv.mp4	0.0	319.94324803352356	0.10002613067626953
63	271.37364411354065	fix_pre	0		120	61.0	2.5	/experiments/knapen_AOT/AOT_stimuli/rescaled_final/1021_rv.mp4	0.0	320.04327416419983	1.0001800060272217
63	271.9498529434204	pulse	0	t		61.0	2.5	/experiments/knapen_AOT/AOT_stimuli/rescaled_final/1021_rv.mp4	0.0	320.6194829940796	
63	272.37382411956787	movie	1		244	61.0	2.5	/experiments/knapen_AOT/AOT_stimuli/rescaled_final/1021_rv.mp4	0.0	321.04345417022705	2.5003488063812256
63	273.55035495758057	pulse	1	t		61.0	2.5	/experiments/knapen_AOT/AOT_stimuli/rescaled_final/1021_rv.mp4	0.0	322.21998500823975	
63	274.8741729259491	fix_post	2		12	61.0	2.5	/experiments/knapen_AOT/AOT_stimuli/rescaled_final/1021_rv.mp4	0.0	323.5438029766083	0.0999910831451416
64	274.97416400909424	fix_pre	0		120	62.0	2.5	blank	1.0	323.6437940597534	1.0002100467681885
64	275.1502408981323	pulse	0	t		62.0	2.5	blank	1.0	323.8198709487915	
64	275.9743740558624	movie	1		300	62.0	2.5	blank	1.0	324.6440041065216	2.5003280639648438
64	276.7496991157532	pulse	1	t		62.0	2.5	blank	1.0	325.41932916641235	
64	278.34976291656494	pulse	1	t		62.0	2.5	blank	1.0	327.0193929672241	
64	278.47470211982727	fix_post	2		12	62.0	2.5	blank	1.0	327.14433217048645	0.1000068187713623
65	278.57470893859863	fix_pre	0		120	63.0	2.5	/experiments/knapen_AOT/AOT_stimuli/rescaled_final/0849_fw.mp4	0.0	327.2443389892578	1.0001730918884277
65	279.57488203048706	movie	1		244	63.0	2.5	/experiments/knapen_AOT/AOT_stimuli/rescaled_final/0849_fw.mp4	0.0	328.24451208114624	2.4921228885650635
65	279.95016503334045	pulse	1	t		63.0	2.5	/experiments/knapen_AOT/AOT_stimuli/rescaled_final/0849_fw.mp4	0.0	328.61979508399963	
65	281.550518989563	pulse	1	t		63.0	2.5	/experiments/knapen_AOT/AOT_stimuli/rescaled_final/0849_fw.mp4	0.0	330.22014904022217	
65	282.0670049190521	fix_post	2		12	63.0	2.5	/experiments/knapen_AOT/AOT_stimuli/rescaled_final/0849_fw.mp4	0.0	330.7366349697113	0.09992098808288574
66	282.166925907135	fix_pre	0		119	64.0	2.5	/experiments/knapen_AOT/AOT_stimuli/rescaled_final/0147_rv.mp4	0.0	330.8365559577942	0.991814136505127
66	283.1506540775299	pulse	0	t		64.0	2.5	/experiments/knapen_AOT/AOT_stimuli/rescaled_final/0147_rv.mp4	0.0	331.8202841281891	
66	283.15874004364014	movie	1		244	64.0	2.5	/experiments/knapen_AOT/AOT_stimuli/rescaled_final/0147_rv.mp4	0.0	331.8283700942993	2.5088038444519043
66	284.7515480518341	pulse	1	t		64.0	2.5	/experiments/knapen_AOT/AOT_stimuli/rescaled_final/0147_rv.mp4	0.0	333.4211781024933	
66	285.66754388809204	fix_post	2		12	64.0	2.5	/experiments/knapen_AOT/AOT_stimuli/rescaled_final/0147_rv.mp4	0.0	334.3371739387512	0.09991621971130371
67	285.76746010780334	fix_pre	0		120	65.0	2.5	/experiments/knapen_AOT/AOT_stimuli/rescaled_final/0707_fw.mp4	0.0	334.4370901584625	1.0001718997955322
67	286.35102891921997	pulse	0	t		65.0	2.5	/experiments/knapen_AOT/AOT_stimuli/rescaled_final/0707_fw.mp4	0.0	335.02065896987915	
67	286.7676320075989	movie	1		245	65.0	2.5	/experiments/knapen_AOT/AOT_stimuli/rescaled_final/0707_fw.mp4	0.0	335.43726205825806	2.5004260540008545
67	287.9514670372009	pulse	1	t		65.0	2.5	/experiments/knapen_AOT/AOT_stimuli/rescaled_final/0707_fw.mp4	0.0	336.6210970878601	
67	289.26805806159973	fix_post	2		12	65.0	2.5	/experiments/knapen_AOT/AOT_stimuli/rescaled_final/0707_fw.mp4	0.0	337.9376881122589	0.09993195533752441
68	289.36799001693726	fix_pre	0		120	66.0	2.5	/experiments/knapen_AOT/AOT_stimuli/rescaled_final/2155_rv.mp4	0.0	338.03762006759644	1.0001459121704102
68	289.5516300201416	pulse	0	t		66.0	2.5	/experiments/knapen_AOT/AOT_stimuli/rescaled_final/2155_rv.mp4	0.0	338.2212600708008	
68	290.36813592910767	movie	1		243	66.0	2.5	/experiments/knapen_AOT/AOT_stimuli/rescaled_final/2155_rv.mp4	0.0	339.03776597976685	2.5003890991210938
68	291.15182089805603	pulse	1	t		66.0	2.5	/experiments/knapen_AOT/AOT_stimuli/rescaled_final/2155_rv.mp4	0.0	339.8214509487152	
68	292.7497069835663	pulse	1	t		66.0	2.5	/experiments/knapen_AOT/AOT_stimuli/rescaled_final/2155_rv.mp4	0.0	341.41933703422546	
68	292.86852502822876	fix_post	2		12	66.0	2.5	/experiments/knapen_AOT/AOT_stimuli/rescaled_final/2155_rv.mp4	0.0	341.53815507888794	0.10001993179321289
69	292.968544960022	fix_pre	0		120	67.0	2.5	/experiments/knapen_AOT/AOT_stimuli/rescaled_final/1817_fw.mp4	0.0	341.63817501068115	1.0001170635223389
69	293.9686620235443	movie	1		244	67.0	2.5	/experiments/knapen_AOT/AOT_stimuli/rescaled_final/1817_fw.mp4	0.0	342.6382920742035	2.4920270442962646
69	294.35359811782837	pulse	1	t		67.0	2.5	/experiments/knapen_AOT/AOT_stimuli/rescaled_final/1817_fw.mp4	0.0	343.02322816848755	
69	295.95252990722656	pulse	1	t		67.0	2.5	/experiments/knapen_AOT/AOT_stimuli/rescaled_final/1817_fw.mp4	0.0	344.62215995788574	
69	296.4606890678406	fix_post	2		12	67.0	2.5	/experiments/knapen_AOT/AOT_stimuli/rescaled_final/1817_fw.mp4	0.0	345.13031911849976	0.10003399848937988
70	296.56072306632996	fix_pre	0		120	68.0	2.5	blank	1.0	345.23035311698914	1.0002038478851318
70	297.5527539253235	pulse	0	t		68.0	2.5	blank	1.0	346.22238397598267	
70	297.5609269142151	movie	1		301	68.0	2.5	blank	1.0	346.23055696487427	2.508674144744873
70	299.153018951416	pulse	1	t		68.0	2.5	blank	1.0	347.8226490020752	
70	300.06960105895996	fix_post	2		12	68.0	2.5	blank	1.0	348.73923110961914	0.09998703002929688
71	300.16958808898926	fix_pre	0		120	69.0	2.5	/experiments/knapen_AOT/AOT_stimuli/rescaled_final/1031_rv.mp4	0.0	348.83921813964844	1.0001559257507324
71	300.75322103500366	pulse	0	t		69.0	2.5	/experiments/knapen_AOT/AOT_stimuli/rescaled_final/1031_rv.mp4	0.0	349.42285108566284	
71	301.16974401474	movie	1		244	69.0	2.5	/experiments/knapen_AOT/AOT_stimuli/rescaled_final/1031_rv.mp4	0.0	349.83937406539917	2.5003950595855713
71	302.35356402397156	pulse	1	t		69.0	2.5	/experiments/knapen_AOT/AOT_stimuli/rescaled_final/1031_rv.mp4	0.0	351.02319407463074	
71	303.67013907432556	fix_post	2		12	69.0	2.5	/experiments/knapen_AOT/AOT_stimuli/rescaled_final/1031_rv.mp4	0.0	352.33976912498474	0.10010790824890137
72	303.77024698257446	fix_pre	0		120	70.0	2.5	/experiments/knapen_AOT/AOT_stimuli/rescaled_final/0640_rv.mp4	0.0	352.43987703323364	1.0000660419464111
72	303.95378494262695	pulse	0	t		70.0	2.5	/experiments/knapen_AOT/AOT_stimuli/rescaled_final/0640_rv.mp4	0.0	352.62341499328613	
72	304.7703130245209	movie	1		244	70.0	2.5	/experiments/knapen_AOT/AOT_stimuli/rescaled_final/0640_rv.mp4	0.0	353.43994307518005	2.500351905822754
72	305.5539610385895	pulse	1	t		70.0	2.5	/experiments/knapen_AOT/AOT_stimuli/rescaled_final/0640_rv.mp4	0.0	354.22359108924866	
72	307.1541609764099	pulse	1	t		70.0	2.5	/experiments/knapen_AOT/AOT_stimuli/rescaled_final/0640_rv.mp4	0.0	355.8237910270691	
72	307.2706649303436	fix_post	2		12	70.0	2.5	/experiments/knapen_AOT/AOT_stimuli/rescaled_final/0640_rv.mp4	0.0	355.9402949810028	0.1000070571899414
73	307.37067198753357	fix_pre	0		120	71.0	2.5	/experiments/knapen_AOT/AOT_stimuli/rescaled_final/1937_rv.mp4	0.0	356.04030203819275	1.0001330375671387
73	308.3708050251007	movie	1		243	71.0	2.5	/experiments/knapen_AOT/AOT_stimuli/rescaled_final/1937_rv.mp4	0.0	357.0404350757599	2.4921329021453857
73	308.758327960968	pulse	1	t		71.0	2.5	/experiments/knapen_AOT/AOT_stimuli/rescaled_final/1937_rv.mp4	0.0	357.4279580116272	
73	310.35475397109985	pulse	1	t		71.0	2.5	/experiments/knapen_AOT/AOT_stimuli/rescaled_final/1937_rv.mp4	0.0	359.02438402175903	
73	310.8629379272461	fix_post	2		12	71.0	2.5	/experiments/knapen_AOT/AOT_stimuli/rescaled_final/1937_rv.mp4	0.0	359.5325679779053	0.09990096092224121
74	310.96283888816833	fix_pre	0		120	72.0	2.5	/experiments/knapen_AOT/AOT_stimuli/rescaled_final/1452_rv.mp4	0.0	359.6324689388275	1.0002000331878662
74	311.9548649787903	pulse	0	t		72.0	2.5	/experiments/knapen_AOT/AOT_stimuli/rescaled_final/1452_rv.mp4	0.0	360.62449502944946	
74	311.9630389213562	movie	1		244	72.0	2.5	/experiments/knapen_AOT/AOT_stimuli/rescaled_final/1452_rv.mp4	0.0	360.6326689720154	2.5086681842803955
74	313.55589389801025	pulse	1	t		72.0	2.5	/experiments/knapen_AOT/AOT_stimuli/rescaled_final/1452_rv.mp4	0.0	362.22552394866943	
74	314.4717071056366	fix_post	2		12	72.0	2.5	/experiments/knapen_AOT/AOT_stimuli/rescaled_final/1452_rv.mp4	0.0	363.1413371562958	0.10003185272216797
75	314.57173895835876	fix_pre	0		120	73.0	2.5	/experiments/knapen_AOT/AOT_stimuli/rescaled_final/1072_fw.mp4	0.0	363.24136900901794	1.0001680850982666
75	315.15539598464966	pulse	0	t		73.0	2.5	/experiments/knapen_AOT/AOT_stimuli/rescaled_final/1072_fw.mp4	0.0	363.82502603530884	
75	315.57190704345703	movie	1		243	73.0	2.5	/experiments/knapen_AOT/AOT_stimuli/rescaled_final/1072_fw.mp4	0.0	364.2415370941162	2.5003268718719482
75	316.7556719779968	pulse	1	t		73.0	2.5	/experiments/knapen_AOT/AOT_stimuli/rescaled_final/1072_fw.mp4	0.0	365.425302028656	
75	318.072233915329	fix_post	2		12	73.0	2.5	/experiments/knapen_AOT/AOT_stimuli/rescaled_final/1072_fw.mp4	0.0	366.74186396598816	0.10004401206970215
76	318.1722779273987	fix_pre	0		120	74.0	2.5	/experiments/knapen_AOT/AOT_stimuli/rescaled_final/1639_rv.mp4	0.0	366.84190797805786	1.000171184539795
76	318.3557860851288	pulse	0	t		74.0	2.5	/experiments/knapen_AOT/AOT_stimuli/rescaled_final/1639_rv.mp4	0.0	367.02541613578796	
76	319.1724491119385	movie	1		243	74.0	2.5	/experiments/knapen_AOT/AOT_stimuli/rescaled_final/1639_rv.mp4	0.0	367.84207916259766	2.5003228187561035
76	319.9560921192169	pulse	1	t		74.0	2.5	/experiments/knapen_AOT/AOT_stimuli/rescaled_final/1639_rv.mp4	0.0	368.6257221698761	
76	321.5563340187073	pulse	1	t		74.0	2.5	/experiments/knapen_AOT/AOT_stimuli/rescaled_final/1639_rv.mp4	0.0	370.22596406936646	
76	321.6727719306946	fix_post	2		12	74.0	2.5	/experiments/knapen_AOT/AOT_stimuli/rescaled_final/1639_rv.mp4	0.0	370.34240198135376	0.10004711151123047
77	321.7728190422058	fix_pre	0		120	75.0	2.5	/experiments/knapen_AOT/AOT_stimuli/rescaled_final/1936_fw.mp4	0.0	370.442449092865	1.0001418590545654
77	322.7729609012604	movie	1		244	75.0	2.5	/experiments/knapen_AOT/AOT_stimuli/rescaled_final/1936_fw.mp4	0.0	371.44259095191956	2.4921212196350098
77	323.15729308128357	pulse	1	t		75.0	2.5	/experiments/knapen_AOT/AOT_stimuli/rescaled_final/1936_fw.mp4	0.0	371.82692313194275	
77	324.7567629814148	pulse	1	t		75.0	2.5	/experiments/knapen_AOT/AOT_stimuli/rescaled_final/1936_fw.mp4	0.0	373.426393032074	
77	325.2650821208954	fix_post	2		12	75.0	2.5	/experiments/knapen_AOT/AOT_stimuli/rescaled_final/1936_fw.mp4	0.0	373.93471217155457	0.09992194175720215
78	325.3650040626526	fix_pre	0		120	76.0	2.5	blank	1.0	374.03463411331177	1.0001859664916992
78	326.35701990127563	pulse	0	t		76.0	2.5	blank	1.0	375.0266499519348	
78	326.3651900291443	movie	1		301	76.0	2.5	blank	1.0	375.03482007980347	2.5086870193481445
78	327.9574010372162	pulse	1	t		76.0	2.5	blank	1.0	376.62703108787537	
78	328.87387704849243	fix_post	2		12	76.0	2.5	blank	1.0	377.5435070991516	0.10001897811889648
79	328.9738960266113	fix_pre	0		120	77.0	2.5	/experiments/knapen_AOT/AOT_stimuli/rescaled_final/0376_fw.mp4	0.0	377.6435260772705	1.0001380443572998
79	329.55005407333374	pulse	0	t		77.0	2.5	/experiments/knapen_AOT/AOT_stimuli/rescaled_final/0376_fw.mp4	0.0	378.2196841239929	
79	329.9740340709686	movie	1		244	77.0	2.5	/experiments/knapen_AOT/AOT_stimuli/rescaled_final/0376_fw.mp4	0.0	378.6436641216278	2.500412940979004
79	331.1578619480133	pulse	1	t		77.0	2.5	/experiments/knapen_AOT/AOT_stimuli/rescaled_final/0376_fw.mp4	0.0	379.8274919986725	
79	332.47444701194763	fix_post	2		12	77.0	2.5	/experiments/knapen_AOT/AOT_stimuli/rescaled_final/0376_fw.mp4	0.0	381.1440770626068	0.09998393058776855
80	332.5744309425354	fix_pre	0		120	78.0	2.5	/experiments/knapen_AOT/AOT_stimuli/rescaled_final/1996_rv.mp4	0.0	381.2440609931946	1.0001490116119385
80	332.75062799453735	pulse	0	t		78.0	2.5	/experiments/knapen_AOT/AOT_stimuli/rescaled_final/1996_rv.mp4	0.0	381.42025804519653	
80	333.57457995414734	movie	1		243	78.0	2.5	/experiments/knapen_AOT/AOT_stimuli/rescaled_final/1996_rv.mp4	0.0	382.2442100048065	2.5003600120544434
80	334.3508780002594	pulse	1	t		78.0	2.5	/experiments/knapen_AOT/AOT_stimuli/rescaled_final/1996_rv.mp4	0.0	383.0205080509186	
80	335.95026302337646	pulse	1	t		78.0	2.5	/experiments/knapen_AOT/AOT_stimuli/rescaled_final/1996_rv.mp4	0.0	384.61989307403564	
80	336.0749399662018	fix_post	2		12	78.0	2.5	/experiments/knapen_AOT/AOT_stimuli/rescaled_final/1996_rv.mp4	0.0	384.74457001686096	0.10001015663146973
81	336.17495012283325	fix_pre	0		120	79.0	2.5	/experiments/knapen_AOT/AOT_stimuli/rescaled_final/0742_rv.mp4	0.0	384.84458017349243	1.0001499652862549
81	337.1751000881195	movie	1		242	79.0	2.5	/experiments/knapen_AOT/AOT_stimuli/rescaled_final/0742_rv.mp4	0.0	385.8447301387787	2.492074966430664
81	337.55042004585266	pulse	1	t		79.0	2.5	/experiments/knapen_AOT/AOT_stimuli/rescaled_final/0742_rv.mp4	0.0	386.22005009651184	
81	339.1507329940796	pulse	1	t		79.0	2.5	/experiments/knapen_AOT/AOT_stimuli/rescaled_final/0742_rv.mp4	0.0	387.82036304473877	
81	339.66717505455017	fix_post	2		12	79.0	2.5	/experiments/knapen_AOT/AOT_stimuli/rescaled_final/0742_rv.mp4	0.0	388.33680510520935	0.09999799728393555
82	339.7671730518341	fix_pre	0		119	80.0	2.5	/experiments/knapen_AOT/AOT_stimuli/rescaled_final/1487_fw.mp4	0.0	388.4368031024933	0.9918489456176758
82	340.7508120536804	pulse	0	t		80.0	2.5	/experiments/knapen_AOT/AOT_stimuli/rescaled_final/1487_fw.mp4	0.0	389.4204421043396	
82	340.7590219974518	movie	1		246	80.0	2.5	/experiments/knapen_AOT/AOT_stimuli/rescaled_final/1487_fw.mp4	0.0	389.42865204811096	2.5087709426879883
82	342.3517611026764	pulse	1	t		80.0	2.5	/experiments/knapen_AOT/AOT_stimuli/rescaled_final/1487_fw.mp4	0.0	391.02139115333557	
82	343.26779294013977	fix_post	2		12	80.0	2.5	/experiments/knapen_AOT/AOT_stimuli/rescaled_final/1487_fw.mp4	0.0	391.93742299079895	0.09990906715393066
83	343.3677020072937	fix_pre	0		120	81.0	2.5	/experiments/knapen_AOT/AOT_stimuli/rescaled_final/0561_fw.mp4	0.0	392.0373320579529	1.0001740455627441
83	343.9514400959015	pulse	0	t		81.0	2.5	/experiments/knapen_AOT/AOT_stimuli/rescaled_final/0561_fw.mp4	0.0	392.62107014656067	
83	344.36787605285645	movie	1		244	81.0	2.5	/experiments/knapen_AOT/AOT_stimuli/rescaled_final/0561_fw.mp4	0.0	393.0375061035156	2.500351905822754
83	345.55175590515137	pulse	1	t		81.0	2.5	/experiments/knapen_AOT/AOT_stimuli/rescaled_final/0561_fw.mp4	0.0	394.22138595581055	
83	346.8682279586792	fix_post	2		12	81.0	2.5	/experiments/knapen_AOT/AOT_stimuli/rescaled_final/0561_fw.mp4	0.0	395.5378580093384	0.10001993179321289
84	346.9682478904724	fix_pre	0		120	82.0	2.5	/experiments/knapen_AOT/AOT_stimuli/rescaled_final/0142_fw.mp4	0.0	395.6378779411316	1.0001811981201172
84	347.15182304382324	pulse	0	t		82.0	2.5	/experiments/knapen_AOT/AOT_stimuli/rescaled_final/0142_fw.mp4	0.0	395.8214530944824	
84	347.96842908859253	movie	1		246	82.0	2.5	/experiments/knapen_AOT/AOT_stimuli/rescaled_final/0142_fw.mp4	0.0	396.6380591392517	2.5004048347473145
84	348.7520639896393	pulse	1	t		82.0	2.5	/experiments/knapen_AOT/AOT_stimuli/rescaled_final/0142_fw.mp4	0.0	397.42169404029846	
84	350.352411031723	pulse	1	t		82.0	2.5	/experiments/knapen_AOT/AOT_stimuli/rescaled_final/0142_fw.mp4	0.0	399.0220410823822	
84	350.46883392333984	fix_post	2		10	82.0	2.5	/experiments/knapen_AOT/AOT_stimuli/rescaled_final/0142_fw.mp4	0.0	399.138463973999	0.09991312026977539
85	350.5687470436096	fix_pre	0		119	83.0	2.5	blank	1.0	399.2383770942688	0.9918420314788818
85	351.5605890750885	movie	1		300	83.0	2.5	blank	1.0	400.2302191257477	2.5003929138183594
85	351.9526720046997	pulse	1	t		83.0	2.5	blank	1.0	400.6223020553589	
85	353.5526969432831	pulse	1	t		83.0	2.5	blank	1.0	402.22232699394226	
85	354.06098198890686	fix_post	2		12	83.0	2.5	blank	1.0	402.73061203956604	0.10000491142272949
87	354.1609869003296	stim	0		1716					402.83061695098877	14.302216053009033
87	355.15298891067505	pulse	0	t						403.82261896133423	
87	356.7533268928528	pulse	0	t						405.42295694351196	
87	358.35354590415955	pulse	0	t						407.0231759548187	
87	359.95374393463135	pulse	0	t						408.6233739852905	
87	361.5538990497589	pulse	0	t						410.2235291004181	
87	363.15420508384705	pulse	0	t						411.8238351345062	
87	364.754399061203	pulse	0	t						413.4240291118622	
87	366.3546950817108	pulse	0	t						415.02432513237	
87	367.9548571109772	pulse	0	t						416.62448716163635	
