trial_nr	onset	event_type	phase	response	nr_frames	movie_index	movie_duration	movie_file	blank	onset_abs	duration
0	0.21674704551696777	stim	0		47					24.234293937683105	0.3914988040924072
0	0.600214958190918	response	0	space						24.617761850357056	
1	0.608245849609375	stim	0		5164					24.625792741775513	43.052701234817505
1	43.64632201194763	pulse	0	t						67.66386890411377	
1	43.66094708442688	stim	1		1715					67.67849397659302	14.297502994537354
1	45.240062952041626	pulse	1	t						69.25760984420776	
1	46.840306997299194	pulse	1	t						70.85785388946533	
1	48.44060301780701	pulse	1	t						72.45814990997314	
1	50.04088497161865	pulse	1	t						74.05843186378479	
1	51.64103388786316	pulse	1	t						75.6585807800293	
1	53.24120807647705	pulse	1	t						77.25875496864319	
1	54.84157085418701	pulse	1	t						78.85911774635315	
1	56.44184398651123	pulse	1	t						80.45939087867737	
2	57.95845007896423	fix_pre	0		11	0.0	2.5	/experiments/knapen_AOT/AOT_stimuli/rescaled_final/0165_fw.mp4	0.0	81.97599697113037	0.10848283767700195
2	58.04202389717102	pulse	0	t		0.0	2.5	/experiments/knapen_AOT/AOT_stimuli/rescaled_final/0165_fw.mp4	0.0	82.05957078933716	
2	58.066932916641235	movie	1		241	0.0	2.5	/experiments/knapen_AOT/AOT_stimuli/rescaled_final/0165_fw.mp4	0.0	82.08447980880737	2.491948127746582
2	59.64357399940491	pulse	1	t		0.0	2.5	/experiments/knapen_AOT/AOT_stimuli/rescaled_final/0165_fw.mp4	0.0	83.66112089157104	
2	60.55888104438782	fix_post	2		12	0.0	2.5	/experiments/knapen_AOT/AOT_stimuli/rescaled_final/0165_fw.mp4	0.0	84.57642793655396	0.09998893737792969
3	60.65886998176575	fix_pre	0		120	1.0	2.5	/experiments/knapen_AOT/AOT_stimuli/rescaled_final/0844_rv.mp4	0.0	84.67641687393188	1.0001180171966553
3	61.24249792098999	pulse	0	t		1.0	2.5	/experiments/knapen_AOT/AOT_stimuli/rescaled_final/0844_rv.mp4	0.0	85.26004481315613	
3	61.6589879989624	movie	1		246	1.0	2.5	/experiments/knapen_AOT/AOT_stimuli/rescaled_final/0844_rv.mp4	0.0	85.67653489112854	2.5004100799560547
3	62.84281802177429	pulse	1	t		1.0	2.5	/experiments/knapen_AOT/AOT_stimuli/rescaled_final/0844_rv.mp4	0.0	86.86036491394043	
3	64.15939807891846	fix_post	2		12	1.0	2.5	/experiments/knapen_AOT/AOT_stimuli/rescaled_final/0844_rv.mp4	0.0	88.1769449710846	0.10010290145874023
4	64.2595009803772	fix_pre	0		120	2.0	2.5	/experiments/knapen_AOT/AOT_stimuli/rescaled_final/2127_fw.mp4	0.0	88.27704787254333	1.0000979900360107
4	64.44298601150513	pulse	0	t		2.0	2.5	/experiments/knapen_AOT/AOT_stimuli/rescaled_final/2127_fw.mp4	0.0	88.46053290367126	
4	65.25959897041321	movie	1		249	2.0	2.5	/experiments/knapen_AOT/AOT_stimuli/rescaled_final/2127_fw.mp4	0.0	89.27714586257935	2.500304937362671
4	66.03586792945862	pulse	1	t		2.0	2.5	/experiments/knapen_AOT/AOT_stimuli/rescaled_final/2127_fw.mp4	0.0	90.05341482162476	
4	67.63588905334473	pulse	1	t		2.0	2.5	/experiments/knapen_AOT/AOT_stimuli/rescaled_final/2127_fw.mp4	0.0	91.65343594551086	
4	67.75990390777588	fix_post	2		12	2.0	2.5	/experiments/knapen_AOT/AOT_stimuli/rescaled_final/2127_fw.mp4	0.0	91.77745079994202	0.10004711151123047
5	67.85995101928711	fix_pre	0		120	3.0	2.5	/experiments/knapen_AOT/AOT_stimuli/rescaled_final/1739_rv.mp4	0.0	91.87749791145325	1.0001368522644043
5	68.86008787155151	movie	1		242	3.0	2.5	/experiments/knapen_AOT/AOT_stimuli/rescaled_final/1739_rv.mp4	0.0	92.87763476371765	2.492039203643799
5	69.24493288993835	pulse	1	t		3.0	2.5	/experiments/knapen_AOT/AOT_stimuli/rescaled_final/1739_rv.mp4	0.0	93.26247978210449	
5	70.83663296699524	pulse	1	t		3.0	2.5	/experiments/knapen_AOT/AOT_stimuli/rescaled_final/1739_rv.mp4	0.0	94.85417985916138	
5	71.35212707519531	fix_post	2		12	3.0	2.5	/experiments/knapen_AOT/AOT_stimuli/rescaled_final/1739_rv.mp4	0.0	95.36967396736145	0.10001993179321289
6	71.45214700698853	fix_pre	0		120	4.0	2.5	/experiments/knapen_AOT/AOT_stimuli/rescaled_final/0039_rv.mp4	0.0	95.46969389915466	1.000230073928833
6	72.43664789199829	pulse	0	t		4.0	2.5	/experiments/knapen_AOT/AOT_stimuli/rescaled_final/0039_rv.mp4	0.0	96.45419478416443	
6	72.45237708091736	movie	1		246	4.0	2.5	/experiments/knapen_AOT/AOT_stimuli/rescaled_final/0039_rv.mp4	0.0	96.4699239730835	2.508603811264038
6	74.03610396385193	pulse	1	t		4.0	2.5	/experiments/knapen_AOT/AOT_stimuli/rescaled_final/0039_rv.mp4	0.0	98.05365085601807	
6	74.9609808921814	fix_post	2		12	4.0	2.5	/experiments/knapen_AOT/AOT_stimuli/rescaled_final/0039_rv.mp4	0.0	98.97852778434753	0.1001131534576416
7	75.06109404563904	fix_pre	0		120	5.0	2.5	/experiments/knapen_AOT/AOT_stimuli/rescaled_final/0083_rv.mp4	0.0	99.07864093780518	1.000119924545288
7	75.63626003265381	pulse	0	t		5.0	2.5	/experiments/knapen_AOT/AOT_stimuli/rescaled_final/0083_rv.mp4	0.0	99.65380692481995	
7	76.06121397018433	movie	1		244	5.0	2.5	/experiments/knapen_AOT/AOT_stimuli/rescaled_final/0083_rv.mp4	0.0	100.07876086235046	2.500304937362671
7	77.23694896697998	pulse	1	t		5.0	2.5	/experiments/knapen_AOT/AOT_stimuli/rescaled_final/0083_rv.mp4	0.0	101.25449585914612	
7	78.561518907547	fix_post	2		12	5.0	2.5	/experiments/knapen_AOT/AOT_stimuli/rescaled_final/0083_rv.mp4	0.0	102.57906579971313	0.1000211238861084
8	78.6615400314331	fix_pre	0		120	6.0	2.5	/experiments/knapen_AOT/AOT_stimuli/rescaled_final/2073_fw.mp4	0.0	102.67908692359924	1.0002069473266602
8	78.83694386482239	pulse	0	t		6.0	2.5	/experiments/knapen_AOT/AOT_stimuli/rescaled_final/2073_fw.mp4	0.0	102.85449075698853	
8	79.66174697875977	movie	1		243	6.0	2.5	/experiments/knapen_AOT/AOT_stimuli/rescaled_final/2073_fw.mp4	0.0	103.6792938709259	2.492033004760742
8	80.43704199790955	pulse	1	t		6.0	2.5	/experiments/knapen_AOT/AOT_stimuli/rescaled_final/2073_fw.mp4	0.0	104.45458889007568	
8	82.03720808029175	pulse	1	t		6.0	2.5	/experiments/knapen_AOT/AOT_stimuli/rescaled_final/2073_fw.mp4	0.0	106.05475497245789	
8	82.15377998352051	fix_post	2		12	6.0	2.5	/experiments/knapen_AOT/AOT_stimuli/rescaled_final/2073_fw.mp4	0.0	106.17132687568665	0.0999610424041748
9	82.25374102592468	fix_pre	0		120	7.0	2.5	blank	1.0	106.27128791809082	1.0001389980316162
9	83.2538800239563	movie	1		300	7.0	2.5	blank	1.0	107.27142691612244	2.500408887863159
9	83.63748407363892	pulse	1	t		7.0	2.5	blank	1.0	107.65503096580505	
9	85.23774194717407	pulse	1	t		7.0	2.5	blank	1.0	109.25528883934021	
9	85.75428891181946	fix_post	2		12	7.0	2.5	blank	1.0	109.7718358039856	0.10008502006530762
10	85.85437393188477	fix_pre	0		119	8.0	2.5	/experiments/knapen_AOT/AOT_stimuli/rescaled_final/0051_rv.mp4	0.0	109.8719208240509	0.9917430877685547
10	86.83800005912781	pulse	0	t		8.0	2.5	/experiments/knapen_AOT/AOT_stimuli/rescaled_final/0051_rv.mp4	0.0	110.85554695129395	
10	86.84611701965332	movie	1		245	8.0	2.5	/experiments/knapen_AOT/AOT_stimuli/rescaled_final/0051_rv.mp4	0.0	110.86366391181946	2.5087549686431885
10	88.43878889083862	pulse	1	t		8.0	2.5	/experiments/knapen_AOT/AOT_stimuli/rescaled_final/0051_rv.mp4	0.0	112.45633578300476	
10	89.35487198829651	fix_post	2		12	8.0	2.5	/experiments/knapen_AOT/AOT_stimuli/rescaled_final/0051_rv.mp4	0.0	113.37241888046265	0.09996604919433594
11	89.45483803749084	fix_pre	0		120	9.0	2.5	/experiments/knapen_AOT/AOT_stimuli/rescaled_final/2021_fw.mp4	0.0	113.47238492965698	1.0001909732818604
11	90.03840684890747	pulse	0	t		9.0	2.5	/experiments/knapen_AOT/AOT_stimuli/rescaled_final/2021_fw.mp4	0.0	114.05595374107361	
11	90.4550290107727	movie	1		244	9.0	2.5	/experiments/knapen_AOT/AOT_stimuli/rescaled_final/2021_fw.mp4	0.0	114.47257590293884	2.500370979309082
11	91.63882088661194	pulse	1	t		9.0	2.5	/experiments/knapen_AOT/AOT_stimuli/rescaled_final/2021_fw.mp4	0.0	115.65636777877808	
11	92.95539999008179	fix_post	2		12	9.0	2.5	/experiments/knapen_AOT/AOT_stimuli/rescaled_final/2021_fw.mp4	0.0	116.97294688224792	0.09994792938232422
12	93.05534791946411	fix_pre	0		120	10.0	2.5	/experiments/knapen_AOT/AOT_stimuli/rescaled_final/1384_rv.mp4	0.0	117.07289481163025	1.0001931190490723
12	93.23900604248047	pulse	0	t		10.0	2.5	/experiments/knapen_AOT/AOT_stimuli/rescaled_final/1384_rv.mp4	0.0	117.2565529346466	
12	94.05554103851318	movie	1		244	10.0	2.5	/experiments/knapen_AOT/AOT_stimuli/rescaled_final/1384_rv.mp4	0.0	118.07308793067932	2.500375986099243
12	94.83914589881897	pulse	1	t		10.0	2.5	/experiments/knapen_AOT/AOT_stimuli/rescaled_final/1384_rv.mp4	0.0	118.85669279098511	
12	96.43926405906677	pulse	1	t		10.0	2.5	/experiments/knapen_AOT/AOT_stimuli/rescaled_final/1384_rv.mp4	0.0	120.45681095123291	
12	96.55591702461243	fix_post	2		12	10.0	2.5	/experiments/knapen_AOT/AOT_stimuli/rescaled_final/1384_rv.mp4	0.0	120.57346391677856	0.09996199607849121
13	96.65587902069092	fix_pre	0		120	11.0	2.5	/experiments/knapen_AOT/AOT_stimuli/rescaled_final/1711_fw.mp4	0.0	120.67342591285706	1.000143051147461
13	97.65602207183838	movie	1		244	11.0	2.5	/experiments/knapen_AOT/AOT_stimuli/rescaled_final/1711_fw.mp4	0.0	121.67356896400452	2.492086887359619
13	98.04017806053162	pulse	1	t		11.0	2.5	/experiments/knapen_AOT/AOT_stimuli/rescaled_final/1711_fw.mp4	0.0	122.05772495269775	
13	99.63992190361023	pulse	1	t		11.0	2.5	/experiments/knapen_AOT/AOT_stimuli/rescaled_final/1711_fw.mp4	0.0	123.65746879577637	
13	100.148108959198	fix_post	2		12	11.0	2.5	/experiments/knapen_AOT/AOT_stimuli/rescaled_final/1711_fw.mp4	0.0	124.16565585136414	0.09999704360961914
14	100.24810600280762	fix_pre	0		120	12.0	2.5	/experiments/knapen_AOT/AOT_stimuli/rescaled_final/0505_fw.mp4	0.0	124.26565289497375	1.0001769065856934
14	101.24017095565796	pulse	0	t		12.0	2.5	/experiments/knapen_AOT/AOT_stimuli/rescaled_final/0505_fw.mp4	0.0	125.2577178478241	
14	101.24828290939331	movie	1		246	12.0	2.5	/experiments/knapen_AOT/AOT_stimuli/rescaled_final/0505_fw.mp4	0.0	125.26582980155945	2.508721113204956
14	102.84092593193054	pulse	1	t		12.0	2.5	/experiments/knapen_AOT/AOT_stimuli/rescaled_final/0505_fw.mp4	0.0	126.85847282409668	
14	103.75700402259827	fix_post	2		12	12.0	2.5	/experiments/knapen_AOT/AOT_stimuli/rescaled_final/0505_fw.mp4	0.0	127.7745509147644	0.09997200965881348
15	103.85697603225708	fix_pre	0		120	13.0	2.5	/experiments/knapen_AOT/AOT_stimuli/rescaled_final/1385_rv.mp4	0.0	127.87452292442322	1.0001838207244873
15	104.44059801101685	pulse	0	t		13.0	2.5	/experiments/knapen_AOT/AOT_stimuli/rescaled_final/1385_rv.mp4	0.0	128.45814490318298	
15	104.85715985298157	movie	1		245	13.0	2.5	/experiments/knapen_AOT/AOT_stimuli/rescaled_final/1385_rv.mp4	0.0	128.8747067451477	2.5003511905670166
15	106.04092597961426	pulse	1	t		13.0	2.5	/experiments/knapen_AOT/AOT_stimuli/rescaled_final/1385_rv.mp4	0.0	130.0584728717804	
15	107.35751104354858	fix_post	2		12	13.0	2.5	/experiments/knapen_AOT/AOT_stimuli/rescaled_final/1385_rv.mp4	0.0	131.37505793571472	0.10003399848937988
16	107.45754504203796	fix_pre	0		120	14.0	2.5	blank	1.0	131.4750919342041	1.0001540184020996
16	107.64107203483582	pulse	0	t		14.0	2.5	blank	1.0	131.65861892700195	
16	108.45769906044006	movie	1		300	14.0	2.5	blank	1.0	132.4752459526062	2.5003459453582764
16	109.24137902259827	pulse	1	t		14.0	2.5	blank	1.0	133.2589259147644	
16	110.84159302711487	pulse	1	t		14.0	2.5	blank	1.0	134.859139919281	
16	110.95804500579834	fix_post	2		12	14.0	2.5	blank	1.0	134.97559189796448	0.09999585151672363
17	111.05804085731506	fix_pre	0		120	15.0	2.5	/experiments/knapen_AOT/AOT_stimuli/rescaled_final/0705_rv.mp4	0.0	135.0755877494812	1.0001749992370605
17	112.05821585655212	movie	1		245	15.0	2.5	/experiments/knapen_AOT/AOT_stimuli/rescaled_final/0705_rv.mp4	0.0	136.07576274871826	2.4920780658721924
17	112.44233989715576	pulse	1	t		15.0	2.5	/experiments/knapen_AOT/AOT_stimuli/rescaled_final/0705_rv.mp4	0.0	136.4598867893219	
17	114.04205989837646	pulse	1	t		15.0	2.5	/experiments/knapen_AOT/AOT_stimuli/rescaled_final/0705_rv.mp4	0.0	138.0596067905426	
17	114.55029392242432	fix_post	2		12	15.0	2.5	/experiments/knapen_AOT/AOT_stimuli/rescaled_final/0705_rv.mp4	0.0	138.56784081459045	0.09996414184570312
18	114.65025806427002	fix_pre	0		120	16.0	2.5	/experiments/knapen_AOT/AOT_stimuli/rescaled_final/0039_fw.mp4	0.0	138.66780495643616	1.000126838684082
18	115.64225006103516	pulse	0	t		16.0	2.5	/experiments/knapen_AOT/AOT_stimuli/rescaled_final/0039_fw.mp4	0.0	139.6597969532013	
18	115.6503849029541	movie	1		247	16.0	2.5	/experiments/knapen_AOT/AOT_stimuli/rescaled_final/0039_fw.mp4	0.0	139.66793179512024	2.50883412361145
18	117.24314308166504	pulse	1	t		16.0	2.5	/experiments/knapen_AOT/AOT_stimuli/rescaled_final/0039_fw.mp4	0.0	141.26068997383118	
18	118.15921902656555	fix_post	2		12	16.0	2.5	/experiments/knapen_AOT/AOT_stimuli/rescaled_final/0039_fw.mp4	0.0	142.1767659187317	0.09999489784240723
19	118.25921392440796	fix_pre	0		120	17.0	2.5	/experiments/knapen_AOT/AOT_stimuli/rescaled_final/1846_fw.mp4	0.0	142.2767608165741	1.0000569820404053
19	118.8427848815918	pulse	0	t		17.0	2.5	/experiments/knapen_AOT/AOT_stimuli/rescaled_final/1846_fw.mp4	0.0	142.86033177375793	
19	119.25927090644836	movie	1		244	17.0	2.5	/experiments/knapen_AOT/AOT_stimuli/rescaled_final/1846_fw.mp4	0.0	143.2768177986145	2.5003740787506104
19	120.4431459903717	pulse	1	t		17.0	2.5	/experiments/knapen_AOT/AOT_stimuli/rescaled_final/1846_fw.mp4	0.0	144.46069288253784	
19	121.75964498519897	fix_post	2		12	17.0	2.5	/experiments/knapen_AOT/AOT_stimuli/rescaled_final/1846_fw.mp4	0.0	145.7771918773651	0.10004401206970215
20	121.85968899726868	fix_pre	0		120	18.0	2.5	/experiments/knapen_AOT/AOT_stimuli/rescaled_final/0115_rv.mp4	0.0	145.87723588943481	1.000128984451294
20	122.0432059764862	pulse	0	t		18.0	2.5	/experiments/knapen_AOT/AOT_stimuli/rescaled_final/0115_rv.mp4	0.0	146.06075286865234	
20	122.85981798171997	movie	1		246	18.0	2.5	/experiments/knapen_AOT/AOT_stimuli/rescaled_final/0115_rv.mp4	0.0	146.8773648738861	2.500401020050049
20	123.6360399723053	pulse	1	t		18.0	2.5	/experiments/knapen_AOT/AOT_stimuli/rescaled_final/0115_rv.mp4	0.0	147.65358686447144	
20	125.2365128993988	pulse	1	t		18.0	2.5	/experiments/knapen_AOT/AOT_stimuli/rescaled_final/0115_rv.mp4	0.0	149.25405979156494	
20	125.36021900177002	fix_post	2		12	18.0	2.5	/experiments/knapen_AOT/AOT_stimuli/rescaled_final/0115_rv.mp4	0.0	149.37776589393616	0.09995293617248535
21	125.4601719379425	fix_pre	0		120	19.0	2.5	blank	1.0	149.47771883010864	1.0001540184020996
21	126.4603259563446	movie	1		299	19.0	2.5	blank	1.0	150.47787284851074	2.492058038711548
21	126.83567786216736	pulse	1	t		19.0	2.5	blank	1.0	150.8532247543335	
21	128.4357190132141	pulse	1	t		19.0	2.5	blank	1.0	152.45326590538025	
21	128.95238399505615	fix_post	2		12	19.0	2.5	blank	1.0	152.9699308872223	0.10005688667297363
22	129.05244088172913	fix_pre	0		119	20.0	2.5	/experiments/knapen_AOT/AOT_stimuli/rescaled_final/0540_fw.mp4	0.0	153.06998777389526	0.9918370246887207
22	130.035973072052	pulse	0	t		20.0	2.5	/experiments/knapen_AOT/AOT_stimuli/rescaled_final/0540_fw.mp4	0.0	154.05351996421814	
22	130.04427790641785	movie	1		247	20.0	2.5	/experiments/knapen_AOT/AOT_stimuli/rescaled_final/0540_fw.mp4	0.0	154.06182479858398	2.508618116378784
22	131.63744807243347	pulse	1	t		20.0	2.5	/experiments/knapen_AOT/AOT_stimuli/rescaled_final/0540_fw.mp4	0.0	155.6549949645996	
22	132.55289602279663	fix_post	2		12	20.0	2.5	/experiments/knapen_AOT/AOT_stimuli/rescaled_final/0540_fw.mp4	0.0	156.57044291496277	0.10002398490905762
23	132.6529200077057	fix_pre	0		120	21.0	2.5	/experiments/knapen_AOT/AOT_stimuli/rescaled_final/1618_fw.mp4	0.0	156.67046689987183	1.0001728534698486
23	133.2366008758545	pulse	0	t		21.0	2.5	/experiments/knapen_AOT/AOT_stimuli/rescaled_final/1618_fw.mp4	0.0	157.25414776802063	
23	133.65309286117554	movie	1		247	21.0	2.5	/experiments/knapen_AOT/AOT_stimuli/rescaled_final/1618_fw.mp4	0.0	157.67063975334167	2.500392198562622
23	134.83698296546936	pulse	1	t		21.0	2.5	/experiments/knapen_AOT/AOT_stimuli/rescaled_final/1618_fw.mp4	0.0	158.8545298576355	
23	136.15348505973816	fix_post	2		12	21.0	2.5	/experiments/knapen_AOT/AOT_stimuli/rescaled_final/1618_fw.mp4	0.0	160.1710319519043	0.1000068187713623
24	136.25349187850952	fix_pre	0		120	22.0	2.5	/experiments/knapen_AOT/AOT_stimuli/rescaled_final/1834_rv.mp4	0.0	160.27103877067566	1.0001370906829834
24	136.43705701828003	pulse	0	t		22.0	2.5	/experiments/knapen_AOT/AOT_stimuli/rescaled_final/1834_rv.mp4	0.0	160.45460391044617	
24	137.2536289691925	movie	1		244	22.0	2.5	/experiments/knapen_AOT/AOT_stimuli/rescaled_final/1834_rv.mp4	0.0	161.27117586135864	2.5003550052642822
24	138.0372679233551	pulse	1	t		22.0	2.5	/experiments/knapen_AOT/AOT_stimuli/rescaled_final/1834_rv.mp4	0.0	162.05481481552124	
24	139.63740992546082	pulse	1	t		22.0	2.5	/experiments/knapen_AOT/AOT_stimuli/rescaled_final/1834_rv.mp4	0.0	163.65495681762695	
24	139.7539839744568	fix_post	2		12	22.0	2.5	/experiments/knapen_AOT/AOT_stimuli/rescaled_final/1834_rv.mp4	0.0	163.77153086662292	0.10001897811889648
25	139.85400295257568	fix_pre	0		119	23.0	2.5	/experiments/knapen_AOT/AOT_stimuli/rescaled_final/0132_fw.mp4	0.0	163.87154984474182	0.9918169975280762
25	140.84581995010376	movie	1		244	23.0	2.5	/experiments/knapen_AOT/AOT_stimuli/rescaled_final/0132_fw.mp4	0.0	164.8633668422699	2.5004019737243652
25	141.23792791366577	pulse	1	t		23.0	2.5	/experiments/knapen_AOT/AOT_stimuli/rescaled_final/0132_fw.mp4	0.0	165.2554748058319	
25	142.83801984786987	pulse	1	t		23.0	2.5	/experiments/knapen_AOT/AOT_stimuli/rescaled_final/0132_fw.mp4	0.0	166.855566740036	
25	143.34622192382812	fix_post	2		12	23.0	2.5	/experiments/knapen_AOT/AOT_stimuli/rescaled_final/0132_fw.mp4	0.0	167.36376881599426	0.09999608993530273
26	143.44621801376343	fix_pre	0		120	24.0	2.5	/experiments/knapen_AOT/AOT_stimuli/rescaled_final/1711_fw.mp4	0.0	167.46376490592957	1.0001699924468994
26	144.43824887275696	pulse	0	t		24.0	2.5	/experiments/knapen_AOT/AOT_stimuli/rescaled_final/1711_fw.mp4	0.0	168.4557957649231	
26	144.44638800621033	movie	1		246	24.0	2.5	/experiments/knapen_AOT/AOT_stimuli/rescaled_final/1711_fw.mp4	0.0	168.46393489837646	2.509700059890747
26	146.0388240814209	pulse	1	t		24.0	2.5	/experiments/knapen_AOT/AOT_stimuli/rescaled_final/1711_fw.mp4	0.0	170.05637097358704	
26	146.95608806610107	fix_post	2		10	24.0	2.5	/experiments/knapen_AOT/AOT_stimuli/rescaled_final/1711_fw.mp4	0.0	170.9736349582672	0.09898996353149414
27	147.05507802963257	fix_pre	0		120	25.0	2.5	/experiments/knapen_AOT/AOT_stimuli/rescaled_final/1278_fw.mp4	0.0	171.0726249217987	1.0001659393310547
27	147.6388008594513	pulse	0	t		25.0	2.5	/experiments/knapen_AOT/AOT_stimuli/rescaled_final/1278_fw.mp4	0.0	171.65634775161743	
27	148.05524396896362	movie	1		245	25.0	2.5	/experiments/knapen_AOT/AOT_stimuli/rescaled_final/1278_fw.mp4	0.0	172.07279086112976	2.5003550052642822
27	149.23906588554382	pulse	1	t		25.0	2.5	/experiments/knapen_AOT/AOT_stimuli/rescaled_final/1278_fw.mp4	0.0	173.25661277770996	
27	150.5555989742279	fix_post	2		12	25.0	2.5	/experiments/knapen_AOT/AOT_stimuli/rescaled_final/1278_fw.mp4	0.0	174.57314586639404	0.10001707077026367
28	150.65561604499817	fix_pre	0		120	26.0	2.5	/experiments/knapen_AOT/AOT_stimuli/rescaled_final/1605_rv.mp4	0.0	174.6731629371643	1.0001389980316162
28	150.83915495872498	pulse	0	t		26.0	2.5	/experiments/knapen_AOT/AOT_stimuli/rescaled_final/1605_rv.mp4	0.0	174.8567018508911	
28	151.65575504302979	movie	1		245	26.0	2.5	/experiments/knapen_AOT/AOT_stimuli/rescaled_final/1605_rv.mp4	0.0	175.67330193519592	2.5004358291625977
28	152.43947291374207	pulse	1	t		26.0	2.5	/experiments/knapen_AOT/AOT_stimuli/rescaled_final/1605_rv.mp4	0.0	176.4570198059082	
28	154.03745985031128	pulse	1	t		26.0	2.5	/experiments/knapen_AOT/AOT_stimuli/rescaled_final/1605_rv.mp4	0.0	178.05500674247742	
28	154.15619087219238	fix_post	2		12	26.0	2.5	/experiments/knapen_AOT/AOT_stimuli/rescaled_final/1605_rv.mp4	0.0	178.17373776435852	0.09997415542602539
29	154.2561650276184	fix_pre	0		119	27.0	2.5	blank	1.0	178.27371191978455	0.9918069839477539
29	155.24797201156616	movie	1		300	27.0	2.5	blank	1.0	179.2655189037323	2.500380039215088
29	155.6399519443512	pulse	1	t		27.0	2.5	blank	1.0	179.65749883651733	
29	157.24006700515747	pulse	1	t		27.0	2.5	blank	1.0	181.2576138973236	
29	157.74835205078125	fix_post	2		12	27.0	2.5	blank	1.0	181.7658989429474	0.10000896453857422
30	157.84836101531982	fix_pre	0		120	28.0	2.5	/experiments/knapen_AOT/AOT_stimuli/rescaled_final/1821_rv.mp4	0.0	181.86590790748596	1.000166893005371
30	158.84044790267944	pulse	0	t		28.0	2.5	/experiments/knapen_AOT/AOT_stimuli/rescaled_final/1821_rv.mp4	0.0	182.85799479484558	
30	158.8485279083252	movie	1		247	28.0	2.5	/experiments/knapen_AOT/AOT_stimuli/rescaled_final/1821_rv.mp4	0.0	182.86607480049133	2.508713960647583
30	160.4410400390625	pulse	1	t		28.0	2.5	/experiments/knapen_AOT/AOT_stimuli/rescaled_final/1821_rv.mp4	0.0	184.45858693122864	
30	161.35724186897278	fix_post	2		12	28.0	2.5	/experiments/knapen_AOT/AOT_stimuli/rescaled_final/1821_rv.mp4	0.0	185.37478876113892	0.09998798370361328
31	161.4572298526764	fix_pre	0		120	29.0	2.5	/experiments/knapen_AOT/AOT_stimuli/rescaled_final/1286_fw.mp4	0.0	185.47477674484253	1.000124216079712
31	162.0409848690033	pulse	0	t		29.0	2.5	/experiments/knapen_AOT/AOT_stimuli/rescaled_final/1286_fw.mp4	0.0	186.05853176116943	
31	162.4573540687561	movie	1		245	29.0	2.5	/experiments/knapen_AOT/AOT_stimuli/rescaled_final/1286_fw.mp4	0.0	186.47490096092224	2.5003859996795654
31	163.64113402366638	pulse	1	t		29.0	2.5	/experiments/knapen_AOT/AOT_stimuli/rescaled_final/1286_fw.mp4	0.0	187.65868091583252	
31	164.95774006843567	fix_post	2		12	29.0	2.5	/experiments/knapen_AOT/AOT_stimuli/rescaled_final/1286_fw.mp4	0.0	188.9752869606018	0.10009193420410156
32	165.05783200263977	fix_pre	0		120	30.0	2.5	/experiments/knapen_AOT/AOT_stimuli/rescaled_final/2018_fw.mp4	0.0	189.0753788948059	1.00010085105896
32	165.24143886566162	pulse	0	t		30.0	2.5	/experiments/knapen_AOT/AOT_stimuli/rescaled_final/2018_fw.mp4	0.0	189.25898575782776	
32	166.05793285369873	movie	1		244	30.0	2.5	/experiments/knapen_AOT/AOT_stimuli/rescaled_final/2018_fw.mp4	0.0	190.07547974586487	2.500446081161499
32	166.84169101715088	pulse	1	t		30.0	2.5	/experiments/knapen_AOT/AOT_stimuli/rescaled_final/2018_fw.mp4	0.0	190.85923790931702	
32	168.44163990020752	pulse	1	t		30.0	2.5	/experiments/knapen_AOT/AOT_stimuli/rescaled_final/2018_fw.mp4	0.0	192.45918679237366	
32	168.55837893486023	fix_post	2		12	30.0	2.5	/experiments/knapen_AOT/AOT_stimuli/rescaled_final/2018_fw.mp4	0.0	192.57592582702637	0.09992408752441406
33	168.65830302238464	fix_pre	0		120	31.0	2.5	/experiments/knapen_AOT/AOT_stimuli/rescaled_final/1194_rv.mp4	0.0	192.67584991455078	1.000175952911377
33	169.65847897529602	movie	1		247	31.0	2.5	/experiments/knapen_AOT/AOT_stimuli/rescaled_final/1194_rv.mp4	0.0	193.67602586746216	2.4920148849487305
33	170.04270100593567	pulse	1	t		31.0	2.5	/experiments/knapen_AOT/AOT_stimuli/rescaled_final/1194_rv.mp4	0.0	194.0602478981018	
33	171.64245891571045	pulse	1	t		31.0	2.5	/experiments/knapen_AOT/AOT_stimuli/rescaled_final/1194_rv.mp4	0.0	195.6600058078766	
33	172.15049386024475	fix_post	2		12	31.0	2.5	/experiments/knapen_AOT/AOT_stimuli/rescaled_final/1194_rv.mp4	0.0	196.1680407524109	0.10004210472106934
34	172.25053596496582	fix_pre	0		120	32.0	2.5	/experiments/knapen_AOT/AOT_stimuli/rescaled_final/0389_fw.mp4	0.0	196.26808285713196	1.0001211166381836
34	173.24257802963257	pulse	0	t		32.0	2.5	/experiments/knapen_AOT/AOT_stimuli/rescaled_final/0389_fw.mp4	0.0	197.2601249217987	
34	173.250657081604	movie	1		246	32.0	2.5	/experiments/knapen_AOT/AOT_stimuli/rescaled_final/0389_fw.mp4	0.0	197.26820397377014	2.508727788925171
34	174.8433039188385	pulse	1	t		32.0	2.5	/experiments/knapen_AOT/AOT_stimuli/rescaled_final/0389_fw.mp4	0.0	198.86085081100464	
34	175.75938487052917	fix_post	2		12	32.0	2.5	/experiments/knapen_AOT/AOT_stimuli/rescaled_final/0389_fw.mp4	0.0	199.7769317626953	0.10000801086425781
35	175.85939288139343	fix_pre	0		120	33.0	2.5	blank	1.0	199.87693977355957	1.000154972076416
35	176.44311690330505	pulse	0	t		33.0	2.5	blank	1.0	200.4606637954712	
35	176.85954785346985	movie	1		300	33.0	2.5	blank	1.0	200.877094745636	2.500369071960449
35	178.04326605796814	pulse	1	t		33.0	2.5	blank	1.0	202.06081295013428	
35	179.3599169254303	fix_post	2		12	33.0	2.5	blank	1.0	203.37746381759644	0.09997701644897461
36	179.45989394187927	fix_pre	0		120	34.0	2.5	/experiments/knapen_AOT/AOT_stimuli/rescaled_final/0165_rv.mp4	0.0	203.4774408340454	1.0001790523529053
36	179.64360284805298	pulse	0	t		34.0	2.5	/experiments/knapen_AOT/AOT_stimuli/rescaled_final/0165_rv.mp4	0.0	203.66114974021912	
36	180.46007299423218	movie	1		243	34.0	2.5	/experiments/knapen_AOT/AOT_stimuli/rescaled_final/0165_rv.mp4	0.0	204.47761988639832	2.5005009174346924
36	181.2362298965454	pulse	1	t		34.0	2.5	/experiments/knapen_AOT/AOT_stimuli/rescaled_final/0165_rv.mp4	0.0	205.25377678871155	
36	182.84401297569275	pulse	1	t		34.0	2.5	/experiments/knapen_AOT/AOT_stimuli/rescaled_final/0165_rv.mp4	0.0	206.8615598678589	
36	182.96057391166687	fix_post	2		12	34.0	2.5	/experiments/knapen_AOT/AOT_stimuli/rescaled_final/0165_rv.mp4	0.0	206.978120803833	0.09986305236816406
37	183.06043696403503	fix_pre	0		120	35.0	2.5	/experiments/knapen_AOT/AOT_stimuli/rescaled_final/2062_rv.mp4	0.0	207.07798385620117	1.0001659393310547
37	184.0606029033661	movie	1		243	35.0	2.5	/experiments/knapen_AOT/AOT_stimuli/rescaled_final/2062_rv.mp4	0.0	208.07814979553223	2.4921281337738037
37	184.44479203224182	pulse	1	t		35.0	2.5	/experiments/knapen_AOT/AOT_stimuli/rescaled_final/2062_rv.mp4	0.0	208.46233892440796	
37	186.03713297843933	pulse	1	t		35.0	2.5	/experiments/knapen_AOT/AOT_stimuli/rescaled_final/2062_rv.mp4	0.0	210.05467987060547	
37	186.5527310371399	fix_post	2		12	35.0	2.5	/experiments/knapen_AOT/AOT_stimuli/rescaled_final/2062_rv.mp4	0.0	210.57027792930603	0.09992790222167969
38	186.65265893936157	fix_pre	0		119	36.0	2.5	/experiments/knapen_AOT/AOT_stimuli/rescaled_final/0100_fw.mp4	0.0	210.6702058315277	0.9918169975280762
38	187.63630604743958	pulse	0	t		36.0	2.5	/experiments/knapen_AOT/AOT_stimuli/rescaled_final/0100_fw.mp4	0.0	211.6538529396057	
38	187.64447593688965	movie	1		246	36.0	2.5	/experiments/knapen_AOT/AOT_stimuli/rescaled_final/0100_fw.mp4	0.0	211.6620228290558	2.5087339878082275
38	189.23736095428467	pulse	1	t		36.0	2.5	/experiments/knapen_AOT/AOT_stimuli/rescaled_final/0100_fw.mp4	0.0	213.2549078464508	
38	190.15320992469788	fix_post	2		12	36.0	2.5	/experiments/knapen_AOT/AOT_stimuli/rescaled_final/0100_fw.mp4	0.0	214.170756816864	0.09998202323913574
39	190.253191947937	fix_pre	0		120	37.0	2.5	/experiments/knapen_AOT/AOT_stimuli/rescaled_final/1042_fw.mp4	0.0	214.27073884010315	1.0001270771026611
39	190.83685898780823	pulse	0	t		37.0	2.5	/experiments/knapen_AOT/AOT_stimuli/rescaled_final/1042_fw.mp4	0.0	214.85440587997437	
39	191.25331902503967	movie	1		245	37.0	2.5	/experiments/knapen_AOT/AOT_stimuli/rescaled_final/1042_fw.mp4	0.0	215.2708659172058	2.500502824783325
39	192.43717789649963	pulse	1	t		37.0	2.5	/experiments/knapen_AOT/AOT_stimuli/rescaled_final/1042_fw.mp4	0.0	216.45472478866577	
39	193.753821849823	fix_post	2		12	37.0	2.5	/experiments/knapen_AOT/AOT_stimuli/rescaled_final/1042_fw.mp4	0.0	217.77136874198914	0.09989619255065918
40	193.85371804237366	fix_pre	0		120	38.0	2.5	/experiments/knapen_AOT/AOT_stimuli/rescaled_final/1286_rv.mp4	0.0	217.8712649345398	1.0001509189605713
40	194.0372920036316	pulse	0	t		38.0	2.5	/experiments/knapen_AOT/AOT_stimuli/rescaled_final/1286_rv.mp4	0.0	218.05483889579773	
40	194.85386896133423	movie	1		245	38.0	2.5	/experiments/knapen_AOT/AOT_stimuli/rescaled_final/1286_rv.mp4	0.0	218.87141585350037	2.5004498958587646
40	195.63765597343445	pulse	1	t		38.0	2.5	/experiments/knapen_AOT/AOT_stimuli/rescaled_final/1286_rv.mp4	0.0	219.6552028656006	
40	197.23782086372375	pulse	1	t		38.0	2.5	/experiments/knapen_AOT/AOT_stimuli/rescaled_final/1286_rv.mp4	0.0	221.2553677558899	
40	197.354318857193	fix_post	2		12	38.0	2.5	/experiments/knapen_AOT/AOT_stimuli/rescaled_final/1286_rv.mp4	0.0	221.37186574935913	0.09992313385009766
41	197.4542419910431	fix_pre	0		120	39.0	2.5	/experiments/knapen_AOT/AOT_stimuli/rescaled_final/1490_rv.mp4	0.0	221.47178888320923	1.0002388954162598
41	198.45448088645935	movie	1		243	39.0	2.5	/experiments/knapen_AOT/AOT_stimuli/rescaled_final/1490_rv.mp4	0.0	222.4720277786255	2.4919981956481934
41	198.8391568660736	pulse	1	t		39.0	2.5	/experiments/knapen_AOT/AOT_stimuli/rescaled_final/1490_rv.mp4	0.0	222.85670375823975	
41	200.43844199180603	pulse	1	t		39.0	2.5	/experiments/knapen_AOT/AOT_stimuli/rescaled_final/1490_rv.mp4	0.0	224.45598888397217	
41	200.94647908210754	fix_post	2		12	39.0	2.5	/experiments/knapen_AOT/AOT_stimuli/rescaled_final/1490_rv.mp4	0.0	224.96402597427368	0.09997081756591797
42	201.04644989967346	fix_pre	0		120	40.0	2.5	/experiments/knapen_AOT/AOT_stimuli/rescaled_final/0816_fw.mp4	0.0	225.0639967918396	1.0001871585845947
42	202.0385799407959	pulse	0	t		40.0	2.5	/experiments/knapen_AOT/AOT_stimuli/rescaled_final/0816_fw.mp4	0.0	226.05612683296204	
42	202.04663705825806	movie	1		245	40.0	2.5	/experiments/knapen_AOT/AOT_stimuli/rescaled_final/0816_fw.mp4	0.0	226.0641839504242	2.5087029933929443
42	203.63945603370667	pulse	1	t		40.0	2.5	/experiments/knapen_AOT/AOT_stimuli/rescaled_final/0816_fw.mp4	0.0	227.6570029258728	
42	204.555340051651	fix_post	2		12	40.0	2.5	/experiments/knapen_AOT/AOT_stimuli/rescaled_final/0816_fw.mp4	0.0	228.57288694381714	0.0999908447265625
43	204.65533089637756	fix_pre	0		120	41.0	2.5	blank	1.0	228.6728777885437	1.001373052597046
43	205.2389419078827	pulse	0	t		41.0	2.5	blank	1.0	229.25648880004883	
43	205.6567039489746	movie	1		298	41.0	2.5	blank	1.0	229.67425084114075	2.499150037765503
43	206.83912801742554	pulse	1	t		41.0	2.5	blank	1.0	230.85667490959167	
43	208.1558539867401	fix_post	2		12	41.0	2.5	blank	1.0	232.17340087890625	0.10001587867736816
44	208.25586986541748	fix_pre	0		120	42.0	2.5	/experiments/knapen_AOT/AOT_stimuli/rescaled_final/1305_fw.mp4	0.0	232.27341675758362	1.0001611709594727
44	208.4394998550415	pulse	0	t		42.0	2.5	/experiments/knapen_AOT/AOT_stimuli/rescaled_final/1305_fw.mp4	0.0	232.45704674720764	
44	209.25603103637695	movie	1		244	42.0	2.5	/experiments/knapen_AOT/AOT_stimuli/rescaled_final/1305_fw.mp4	0.0	233.2735779285431	2.5004029273986816
44	210.03970503807068	pulse	1	t		42.0	2.5	/experiments/knapen_AOT/AOT_stimuli/rescaled_final/1305_fw.mp4	0.0	234.05725193023682	
44	211.6400899887085	pulse	1	t		42.0	2.5	/experiments/knapen_AOT/AOT_stimuli/rescaled_final/1305_fw.mp4	0.0	235.65763688087463	
44	211.75643396377563	fix_post	2		12	42.0	2.5	/experiments/knapen_AOT/AOT_stimuli/rescaled_final/1305_fw.mp4	0.0	235.77398085594177	0.0999751091003418
45	211.85640907287598	fix_pre	0		120	43.0	2.5	/experiments/knapen_AOT/AOT_stimuli/rescaled_final/1364_rv.mp4	0.0	235.87395596504211	1.0001468658447266
45	212.8565559387207	movie	1		244	43.0	2.5	/experiments/knapen_AOT/AOT_stimuli/rescaled_final/1364_rv.mp4	0.0	236.87410283088684	2.4920620918273926
45	213.24146699905396	pulse	1	t		43.0	2.5	/experiments/knapen_AOT/AOT_stimuli/rescaled_final/1364_rv.mp4	0.0	237.2590138912201	
45	214.84048700332642	pulse	1	t		43.0	2.5	/experiments/knapen_AOT/AOT_stimuli/rescaled_final/1364_rv.mp4	0.0	238.85803389549255	
45	215.3486180305481	fix_post	2		12	43.0	2.5	/experiments/knapen_AOT/AOT_stimuli/rescaled_final/1364_rv.mp4	0.0	239.36616492271423	0.10001397132873535
46	215.44863200187683	fix_pre	0		120	44.0	2.5	/experiments/knapen_AOT/AOT_stimuli/rescaled_final/1225_fw.mp4	0.0	239.46617889404297	1.0001318454742432
46	216.44069004058838	pulse	0	t		44.0	2.5	/experiments/knapen_AOT/AOT_stimuli/rescaled_final/1225_fw.mp4	0.0	240.45823693275452	
46	216.44876384735107	movie	1		247	44.0	2.5	/experiments/knapen_AOT/AOT_stimuli/rescaled_final/1225_fw.mp4	0.0	240.4663107395172	2.508756160736084
46	218.04146790504456	pulse	1	t		44.0	2.5	/experiments/knapen_AOT/AOT_stimuli/rescaled_final/1225_fw.mp4	0.0	242.0590147972107	
46	218.95752000808716	fix_post	2		12	44.0	2.5	/experiments/knapen_AOT/AOT_stimuli/rescaled_final/1225_fw.mp4	0.0	242.9750669002533	0.0999760627746582
47	219.05749607086182	fix_pre	0		120	45.0	2.5	/experiments/knapen_AOT/AOT_stimuli/rescaled_final/0132_rv.mp4	0.0	243.07504296302795	1.0002357959747314
47	219.6411190032959	pulse	0	t		45.0	2.5	/experiments/knapen_AOT/AOT_stimuli/rescaled_final/0132_rv.mp4	0.0	243.65866589546204	
47	220.05773186683655	movie	1		244	45.0	2.5	/experiments/knapen_AOT/AOT_stimuli/rescaled_final/0132_rv.mp4	0.0	244.07527875900269	2.5003161430358887
47	221.24157285690308	pulse	1	t		45.0	2.5	/experiments/knapen_AOT/AOT_stimuli/rescaled_final/0132_rv.mp4	0.0	245.2591197490692	
47	222.55804800987244	fix_post	2		12	45.0	2.5	/experiments/knapen_AOT/AOT_stimuli/rescaled_final/0132_rv.mp4	0.0	246.57559490203857	0.09998106956481934
48	222.65802907943726	fix_pre	0		120	46.0	2.5	/experiments/knapen_AOT/AOT_stimuli/rescaled_final/1453_rv.mp4	0.0	246.6755759716034	1.0001637935638428
48	222.84162187576294	pulse	0	t		46.0	2.5	/experiments/knapen_AOT/AOT_stimuli/rescaled_final/1453_rv.mp4	0.0	246.85916876792908	
48	223.6581928730011	movie	1		245	46.0	2.5	/experiments/knapen_AOT/AOT_stimuli/rescaled_final/1453_rv.mp4	0.0	247.67573976516724	2.500369071960449
48	224.44185996055603	pulse	1	t		46.0	2.5	/experiments/knapen_AOT/AOT_stimuli/rescaled_final/1453_rv.mp4	0.0	248.45940685272217	
48	226.03969407081604	pulse	1	t		46.0	2.5	/experiments/knapen_AOT/AOT_stimuli/rescaled_final/1453_rv.mp4	0.0	250.05724096298218	
48	226.15856194496155	fix_post	2		12	46.0	2.5	/experiments/knapen_AOT/AOT_stimuli/rescaled_final/1453_rv.mp4	0.0	250.17610883712769	0.1000070571899414
49	226.2585690021515	fix_pre	0		120	47.0	2.5	/experiments/knapen_AOT/AOT_stimuli/rescaled_final/1401_fw.mp4	0.0	250.27611589431763	1.0001208782196045
49	227.2586898803711	movie	1		243	47.0	2.5	/experiments/knapen_AOT/AOT_stimuli/rescaled_final/1401_fw.mp4	0.0	251.27623677253723	2.492047071456909
49	227.6471130847931	pulse	1	t		47.0	2.5	/experiments/knapen_AOT/AOT_stimuli/rescaled_final/1401_fw.mp4	0.0	251.66465997695923	
49	229.24268007278442	pulse	1	t		47.0	2.5	/experiments/knapen_AOT/AOT_stimuli/rescaled_final/1401_fw.mp4	0.0	253.26022696495056	
49	229.750736951828	fix_post	2		12	47.0	2.5	/experiments/knapen_AOT/AOT_stimuli/rescaled_final/1401_fw.mp4	0.0	253.76828384399414	0.10002899169921875
50	229.85076594352722	fix_pre	0		120	48.0	2.5	/experiments/knapen_AOT/AOT_stimuli/rescaled_final/0019_rv.mp4	0.0	253.86831283569336	1.0001349449157715
50	230.8428828716278	pulse	0	t		48.0	2.5	/experiments/knapen_AOT/AOT_stimuli/rescaled_final/0019_rv.mp4	0.0	254.86042976379395	
50	230.850900888443	movie	1		246	48.0	2.5	/experiments/knapen_AOT/AOT_stimuli/rescaled_final/0019_rv.mp4	0.0	254.86844778060913	2.5087790489196777
50	232.44415497779846	pulse	1	t		48.0	2.5	/experiments/knapen_AOT/AOT_stimuli/rescaled_final/0019_rv.mp4	0.0	256.4617018699646	
50	233.35967993736267	fix_post	2		12	48.0	2.5	/experiments/knapen_AOT/AOT_stimuli/rescaled_final/0019_rv.mp4	0.0	257.3772268295288	0.09997200965881348
51	233.45965194702148	fix_pre	0		120	49.0	2.5	blank	1.0	257.4771988391876	1.0001499652862549
51	234.04324293136597	pulse	0	t		49.0	2.5	blank	1.0	258.0607898235321	
51	234.45980191230774	movie	1		300	49.0	2.5	blank	1.0	258.4773488044739	2.500357151031494
51	235.63605189323425	pulse	1	t		49.0	2.5	blank	1.0	259.6535987854004	
51	236.96015906333923	fix_post	2		12	49.0	2.5	blank	1.0	260.97770595550537	0.09998679161071777
52	237.06014585494995	fix_pre	0		120	50.0	2.5	/experiments/knapen_AOT/AOT_stimuli/rescaled_final/1436_fw.mp4	0.0	261.0776927471161	1.0001721382141113
52	237.23631286621094	pulse	0	t		50.0	2.5	/experiments/knapen_AOT/AOT_stimuli/rescaled_final/1436_fw.mp4	0.0	261.2538597583771	
52	238.06031799316406	movie	1		245	50.0	2.5	/experiments/knapen_AOT/AOT_stimuli/rescaled_final/1436_fw.mp4	0.0	262.0778648853302	2.5004029273986816
52	238.83655095100403	pulse	1	t		50.0	2.5	/experiments/knapen_AOT/AOT_stimuli/rescaled_final/1436_fw.mp4	0.0	262.85409784317017	
52	240.44167685508728	pulse	1	t		50.0	2.5	/experiments/knapen_AOT/AOT_stimuli/rescaled_final/1436_fw.mp4	0.0	264.4592237472534	
52	240.56072092056274	fix_post	2		12	50.0	2.5	/experiments/knapen_AOT/AOT_stimuli/rescaled_final/1436_fw.mp4	0.0	264.5782678127289	0.10003209114074707
53	240.6607530117035	fix_pre	0		120	51.0	2.5	/experiments/knapen_AOT/AOT_stimuli/rescaled_final/1304_rv.mp4	0.0	264.67829990386963	1.0000898838043213
53	241.6608428955078	movie	1		244	51.0	2.5	/experiments/knapen_AOT/AOT_stimuli/rescaled_final/1304_rv.mp4	0.0	265.67838978767395	2.4920191764831543
53	242.03609490394592	pulse	1	t		51.0	2.5	/experiments/knapen_AOT/AOT_stimuli/rescaled_final/1304_rv.mp4	0.0	266.05364179611206	
53	243.63639307022095	pulse	1	t		51.0	2.5	/experiments/knapen_AOT/AOT_stimuli/rescaled_final/1304_rv.mp4	0.0	267.6539399623871	
53	244.15286207199097	fix_post	2		12	51.0	2.5	/experiments/knapen_AOT/AOT_stimuli/rescaled_final/1304_rv.mp4	0.0	268.1704089641571	0.10004591941833496
54	244.2529079914093	fix_pre	0		119	52.0	2.5	/experiments/knapen_AOT/AOT_stimuli/rescaled_final/1739_fw.mp4	0.0	268.27045488357544	0.991879940032959
54	245.23663997650146	pulse	0	t		52.0	2.5	/experiments/knapen_AOT/AOT_stimuli/rescaled_final/1739_fw.mp4	0.0	269.2541868686676	
54	245.24478793144226	movie	1		245	52.0	2.5	/experiments/knapen_AOT/AOT_stimuli/rescaled_final/1739_fw.mp4	0.0	269.2623348236084	2.508636951446533
54	246.83747601509094	pulse	1	t		52.0	2.5	/experiments/knapen_AOT/AOT_stimuli/rescaled_final/1739_fw.mp4	0.0	270.8550229072571	
54	247.7534248828888	fix_post	2		12	52.0	2.5	/experiments/knapen_AOT/AOT_stimuli/rescaled_final/1739_fw.mp4	0.0	271.77097177505493	0.10010814666748047
55	247.85353302955627	fix_pre	0		120	53.0	2.5	/experiments/knapen_AOT/AOT_stimuli/rescaled_final/2087_rv.mp4	0.0	271.8710799217224	1.000044822692871
55	248.43705487251282	pulse	0	t		53.0	2.5	/experiments/knapen_AOT/AOT_stimuli/rescaled_final/2087_rv.mp4	0.0	272.45460176467896	
55	248.85357785224915	movie	1		244	53.0	2.5	/experiments/knapen_AOT/AOT_stimuli/rescaled_final/2087_rv.mp4	0.0	272.8711247444153	2.50039005279541
55	250.03741693496704	pulse	1	t		53.0	2.5	/experiments/knapen_AOT/AOT_stimuli/rescaled_final/2087_rv.mp4	0.0	274.0549638271332	
55	251.35396790504456	fix_post	2		12	53.0	2.5	/experiments/knapen_AOT/AOT_stimuli/rescaled_final/2087_rv.mp4	0.0	275.3715147972107	0.10000395774841309
56	251.45397186279297	fix_pre	0		120	54.0	2.5	/experiments/knapen_AOT/AOT_stimuli/rescaled_final/0983_fw.mp4	0.0	275.4715187549591	1.000148057937622
56	251.63752102851868	pulse	0	t		54.0	2.5	/experiments/knapen_AOT/AOT_stimuli/rescaled_final/0983_fw.mp4	0.0	275.6550679206848	
56	252.4541199207306	movie	1		244	54.0	2.5	/experiments/knapen_AOT/AOT_stimuli/rescaled_final/0983_fw.mp4	0.0	276.47166681289673	2.500420093536377
56	253.23784399032593	pulse	1	t		54.0	2.5	/experiments/knapen_AOT/AOT_stimuli/rescaled_final/0983_fw.mp4	0.0	277.25539088249207	
56	254.83820700645447	pulse	1	t		54.0	2.5	/experiments/knapen_AOT/AOT_stimuli/rescaled_final/0983_fw.mp4	0.0	278.8557538986206	
56	254.95454001426697	fix_post	2		12	54.0	2.5	/experiments/knapen_AOT/AOT_stimuli/rescaled_final/0983_fw.mp4	0.0	278.9720869064331	0.10004305839538574
57	255.05458307266235	fix_pre	0		120	55.0	2.5	blank	1.0	279.0721299648285	1.0001459121704102
57	256.05472898483276	movie	1		299	55.0	2.5	blank	1.0	280.0722758769989	2.491999864578247
57	256.4382269382477	pulse	1	t		55.0	2.5	blank	1.0	280.4557738304138	
57	258.03850293159485	pulse	1	t		55.0	2.5	blank	1.0	282.056049823761	
57	258.546728849411	fix_post	2		12	55.0	2.5	blank	1.0	282.56427574157715	0.10000109672546387
58	258.6467299461365	fix_pre	0		120	56.0	2.5	/experiments/knapen_AOT/AOT_stimuli/rescaled_final/0980_rv.mp4	0.0	282.6642768383026	1.0002059936523438
58	259.6387219429016	pulse	0	t		56.0	2.5	/experiments/knapen_AOT/AOT_stimuli/rescaled_final/0980_rv.mp4	0.0	283.65626883506775	
58	259.6469359397888	movie	1		245	56.0	2.5	/experiments/knapen_AOT/AOT_stimuli/rescaled_final/0980_rv.mp4	0.0	283.66448283195496	2.5087170600891113
58	261.24029207229614	pulse	1	t		56.0	2.5	/experiments/knapen_AOT/AOT_stimuli/rescaled_final/0980_rv.mp4	0.0	285.2578389644623	
58	262.15565299987793	fix_post	2		12	56.0	2.5	/experiments/knapen_AOT/AOT_stimuli/rescaled_final/0980_rv.mp4	0.0	286.17319989204407	0.09997701644897461
59	262.2556300163269	fix_pre	0		120	57.0	2.5	/experiments/knapen_AOT/AOT_stimuli/rescaled_final/0347_rv.mp4	0.0	286.27317690849304	1.0001559257507324
59	262.83927297592163	pulse	0	t		57.0	2.5	/experiments/knapen_AOT/AOT_stimuli/rescaled_final/0347_rv.mp4	0.0	286.85681986808777	
59	263.25578594207764	movie	1		244	57.0	2.5	/experiments/knapen_AOT/AOT_stimuli/rescaled_final/0347_rv.mp4	0.0	287.2733328342438	2.5003809928894043
59	264.43951201438904	pulse	1	t		57.0	2.5	/experiments/knapen_AOT/AOT_stimuli/rescaled_final/0347_rv.mp4	0.0	288.4570589065552	
59	265.75616693496704	fix_post	2		12	57.0	2.5	/experiments/knapen_AOT/AOT_stimuli/rescaled_final/0347_rv.mp4	0.0	289.7737138271332	0.09996604919433594
60	265.8561329841614	fix_pre	0		119	58.0	2.5	/experiments/knapen_AOT/AOT_stimuli/rescaled_final/0468_rv.mp4	0.0	289.8736798763275	1.0001580715179443
60	266.03979897499084	pulse	0	t		58.0	2.5	/experiments/knapen_AOT/AOT_stimuli/rescaled_final/0468_rv.mp4	0.0	290.057345867157	
60	266.8562910556793	movie	1		245	58.0	2.5	/experiments/knapen_AOT/AOT_stimuli/rescaled_final/0468_rv.mp4	0.0	290.87383794784546	2.5004029273986816
60	267.63998103141785	pulse	1	t		58.0	2.5	/experiments/knapen_AOT/AOT_stimuli/rescaled_final/0468_rv.mp4	0.0	291.657527923584	
60	269.23794889450073	pulse	1	t		58.0	2.5	/experiments/knapen_AOT/AOT_stimuli/rescaled_final/0468_rv.mp4	0.0	293.25549578666687	
60	269.356693983078	fix_post	2		12	58.0	2.5	/experiments/knapen_AOT/AOT_stimuli/rescaled_final/0468_rv.mp4	0.0	293.37424087524414	0.09993410110473633
61	269.45662808418274	fix_pre	0		120	59.0	2.5	/experiments/knapen_AOT/AOT_stimuli/rescaled_final/1981_fw.mp4	0.0	293.4741749763489	1.000187873840332
61	270.45681595802307	movie	1		243	59.0	2.5	/experiments/knapen_AOT/AOT_stimuli/rescaled_final/1981_fw.mp4	0.0	294.4743628501892	2.4920499324798584
61	270.8450438976288	pulse	1	t		59.0	2.5	/experiments/knapen_AOT/AOT_stimuli/rescaled_final/1981_fw.mp4	0.0	294.8625907897949	
61	272.44072008132935	pulse	1	t		59.0	2.5	/experiments/knapen_AOT/AOT_stimuli/rescaled_final/1981_fw.mp4	0.0	296.4582669734955	
61	272.94886589050293	fix_post	2		12	59.0	2.5	/experiments/knapen_AOT/AOT_stimuli/rescaled_final/1981_fw.mp4	0.0	296.96641278266907	0.09997200965881348
62	273.04883790016174	fix_pre	0		120	60.0	2.5	/experiments/knapen_AOT/AOT_stimuli/rescaled_final/1422_rv.mp4	0.0	297.0663847923279	1.0001881122589111
62	274.0408880710602	pulse	0	t		60.0	2.5	/experiments/knapen_AOT/AOT_stimuli/rescaled_final/1422_rv.mp4	0.0	298.0584349632263	
62	274.04902601242065	movie	1		247	60.0	2.5	/experiments/knapen_AOT/AOT_stimuli/rescaled_final/1422_rv.mp4	0.0	298.0665729045868	2.508755922317505
62	275.6426558494568	pulse	1	t		60.0	2.5	/experiments/knapen_AOT/AOT_stimuli/rescaled_final/1422_rv.mp4	0.0	299.6602027416229	
62	276.55778193473816	fix_post	2		12	60.0	2.5	/experiments/knapen_AOT/AOT_stimuli/rescaled_final/1422_rv.mp4	0.0	300.5753288269043	0.09995794296264648
63	276.6577398777008	fix_pre	0		120	61.0	2.5	/experiments/knapen_AOT/AOT_stimuli/rescaled_final/1494_fw.mp4	0.0	300.67528676986694	1.0001311302185059
63	277.2414598464966	pulse	0	t		61.0	2.5	/experiments/knapen_AOT/AOT_stimuli/rescaled_final/1494_fw.mp4	0.0	301.2590067386627	
63	277.6578710079193	movie	1		245	61.0	2.5	/experiments/knapen_AOT/AOT_stimuli/rescaled_final/1494_fw.mp4	0.0	301.67541790008545	2.5003719329833984
63	278.8416678905487	pulse	1	t		61.0	2.5	/experiments/knapen_AOT/AOT_stimuli/rescaled_final/1494_fw.mp4	0.0	302.85921478271484	
63	280.1582429409027	fix_post	2		12	61.0	2.5	/experiments/knapen_AOT/AOT_stimuli/rescaled_final/1494_fw.mp4	0.0	304.17578983306885	0.10004210472106934
64	280.2582850456238	fix_pre	0		120	62.0	2.5	blank	1.0	304.2758319377899	1.000147819519043
64	280.44199991226196	pulse	0	t		62.0	2.5	blank	1.0	304.4595468044281	
64	281.2584328651428	movie	1		300	62.0	2.5	blank	1.0	305.27597975730896	2.50039005279541
64	282.0420699119568	pulse	1	t		62.0	2.5	blank	1.0	306.0596168041229	
64	283.64233899116516	pulse	1	t		62.0	2.5	blank	1.0	307.6598858833313	
64	283.75882291793823	fix_post	2		12	62.0	2.5	blank	1.0	307.77636981010437	0.10001301765441895
65	283.85883593559265	fix_pre	0		120	63.0	2.5	/experiments/knapen_AOT/AOT_stimuli/rescaled_final/0363_fw.mp4	0.0	307.8763828277588	1.000143051147461
65	284.8589789867401	movie	1		245	63.0	2.5	/experiments/knapen_AOT/AOT_stimuli/rescaled_final/0363_fw.mp4	0.0	308.87652587890625	2.492002010345459
65	285.24322986602783	pulse	1	t		63.0	2.5	/experiments/knapen_AOT/AOT_stimuli/rescaled_final/0363_fw.mp4	0.0	309.26077675819397	
65	286.8428030014038	pulse	1	t		63.0	2.5	/experiments/knapen_AOT/AOT_stimuli/rescaled_final/0363_fw.mp4	0.0	310.86034989356995	
65	287.35098099708557	fix_post	2		12	63.0	2.5	/experiments/knapen_AOT/AOT_stimuli/rescaled_final/0363_fw.mp4	0.0	311.3685278892517	0.10001897811889648
66	287.45099997520447	fix_pre	0		120	64.0	2.5	/experiments/knapen_AOT/AOT_stimuli/rescaled_final/0065_rv.mp4	0.0	311.4685468673706	1.00022292137146
66	288.44304895401	pulse	0	t		64.0	2.5	/experiments/knapen_AOT/AOT_stimuli/rescaled_final/0065_rv.mp4	0.0	312.46059584617615	
66	288.4512228965759	movie	1		245	64.0	2.5	/experiments/knapen_AOT/AOT_stimuli/rescaled_final/0065_rv.mp4	0.0	312.46876978874207	2.5086631774902344
66	290.04398798942566	pulse	1	t		64.0	2.5	/experiments/knapen_AOT/AOT_stimuli/rescaled_final/0065_rv.mp4	0.0	314.0615348815918	
66	290.95988607406616	fix_post	2		12	64.0	2.5	/experiments/knapen_AOT/AOT_stimuli/rescaled_final/0065_rv.mp4	0.0	314.9774329662323	0.09998178482055664
67	291.0598678588867	fix_pre	0		120	65.0	2.5	/experiments/knapen_AOT/AOT_stimuli/rescaled_final/0421_rv.mp4	0.0	315.07741475105286	1.0001411437988281
67	291.64358401298523	pulse	0	t		65.0	2.5	/experiments/knapen_AOT/AOT_stimuli/rescaled_final/0421_rv.mp4	0.0	315.66113090515137	
67	292.06000900268555	movie	1		244	65.0	2.5	/experiments/knapen_AOT/AOT_stimuli/rescaled_final/0421_rv.mp4	0.0	316.0775558948517	2.5004239082336426
67	293.2438418865204	pulse	1	t		65.0	2.5	/experiments/knapen_AOT/AOT_stimuli/rescaled_final/0421_rv.mp4	0.0	317.2613887786865	
67	294.5604329109192	fix_post	2		12	65.0	2.5	/experiments/knapen_AOT/AOT_stimuli/rescaled_final/0421_rv.mp4	0.0	318.5779798030853	0.09999704360961914
68	294.6604299545288	fix_pre	0		120	66.0	2.5	/experiments/knapen_AOT/AOT_stimuli/rescaled_final/1704_fw.mp4	0.0	318.67797684669495	1.000216007232666
68	294.8365490436554	pulse	0	t		66.0	2.5	/experiments/knapen_AOT/AOT_stimuli/rescaled_final/1704_fw.mp4	0.0	318.85409593582153	
68	295.6606459617615	movie	1		243	66.0	2.5	/experiments/knapen_AOT/AOT_stimuli/rescaled_final/1704_fw.mp4	0.0	319.6781928539276	2.5003058910369873
68	296.43684697151184	pulse	1	t		66.0	2.5	/experiments/knapen_AOT/AOT_stimuli/rescaled_final/1704_fw.mp4	0.0	320.454393863678	
68	298.04478001594543	pulse	1	t		66.0	2.5	/experiments/knapen_AOT/AOT_stimuli/rescaled_final/1704_fw.mp4	0.0	322.0623269081116	
68	298.16095185279846	fix_post	2		12	66.0	2.5	/experiments/knapen_AOT/AOT_stimuli/rescaled_final/1704_fw.mp4	0.0	322.1784987449646	0.10003113746643066
69	298.2609829902649	fix_pre	0		120	67.0	2.5	/experiments/knapen_AOT/AOT_stimuli/rescaled_final/0505_fw.mp4	0.0	322.27852988243103	1.0001718997955322
69	299.2611548900604	movie	1		243	67.0	2.5	/experiments/knapen_AOT/AOT_stimuli/rescaled_final/0505_fw.mp4	0.0	323.27870178222656	2.4920029640197754
69	299.64609003067017	pulse	1	t		67.0	2.5	/experiments/knapen_AOT/AOT_stimuli/rescaled_final/0505_fw.mp4	0.0	323.6636369228363	
69	301.2368960380554	pulse	1	t		67.0	2.5	/experiments/knapen_AOT/AOT_stimuli/rescaled_final/0505_fw.mp4	0.0	325.25444293022156	
69	301.7531578540802	fix_post	2		12	67.0	2.5	/experiments/knapen_AOT/AOT_stimuli/rescaled_final/0505_fw.mp4	0.0	325.77070474624634	0.09996604919433594
70	301.85312390327454	fix_pre	0		119	68.0	2.5	blank	1.0	325.8706707954407	0.9918711185455322
70	302.8368239402771	pulse	0	t		68.0	2.5	blank	1.0	326.85437083244324	
70	302.84499502182007	movie	1		301	68.0	2.5	blank	1.0	326.8625419139862	2.5086820125579834
70	304.43700098991394	pulse	1	t		68.0	2.5	blank	1.0	328.4545478820801	
70	305.35367703437805	fix_post	2		12	68.0	2.5	blank	1.0	329.3712239265442	0.10004591941833496
71	305.4537229537964	fix_pre	0		120	69.0	2.5	/experiments/knapen_AOT/AOT_stimuli/rescaled_final/1669_fw.mp4	0.0	329.4712698459625	1.0001840591430664
71	306.03739500045776	pulse	0	t		69.0	2.5	/experiments/knapen_AOT/AOT_stimuli/rescaled_final/1669_fw.mp4	0.0	330.0549418926239	
71	306.45390701293945	movie	1		245	69.0	2.5	/experiments/knapen_AOT/AOT_stimuli/rescaled_final/1669_fw.mp4	0.0	330.4714539051056	2.500316858291626
71	307.63776206970215	pulse	1	t		69.0	2.5	/experiments/knapen_AOT/AOT_stimuli/rescaled_final/1669_fw.mp4	0.0	331.6553089618683	
71	308.9542238712311	fix_post	2		12	69.0	2.5	/experiments/knapen_AOT/AOT_stimuli/rescaled_final/1669_fw.mp4	0.0	332.9717707633972	0.10008716583251953
72	309.0543110370636	fix_pre	0		120	70.0	2.5	/experiments/knapen_AOT/AOT_stimuli/rescaled_final/0586_fw.mp4	0.0	333.07185792922974	1.0001180171966553
72	309.2378029823303	pulse	0	t		70.0	2.5	/experiments/knapen_AOT/AOT_stimuli/rescaled_final/0586_fw.mp4	0.0	333.25534987449646	
72	310.05442905426025	movie	1		243	70.0	2.5	/experiments/knapen_AOT/AOT_stimuli/rescaled_final/0586_fw.mp4	0.0	334.0719759464264	2.500389814376831
72	310.83800292015076	pulse	1	t		70.0	2.5	/experiments/knapen_AOT/AOT_stimuli/rescaled_final/0586_fw.mp4	0.0	334.8555498123169	
72	312.43823289871216	pulse	1	t		70.0	2.5	/experiments/knapen_AOT/AOT_stimuli/rescaled_final/0586_fw.mp4	0.0	336.4557797908783	
72	312.5548188686371	fix_post	2		12	70.0	2.5	/experiments/knapen_AOT/AOT_stimuli/rescaled_final/0586_fw.mp4	0.0	336.5723657608032	0.09993410110473633
73	312.6547529697418	fix_pre	0		119	71.0	2.5	/experiments/knapen_AOT/AOT_stimuli/rescaled_final/0260_fw.mp4	0.0	336.67229986190796	0.9918959140777588
73	313.6466488838196	movie	1		246	71.0	2.5	/experiments/knapen_AOT/AOT_stimuli/rescaled_final/0260_fw.mp4	0.0	337.6641957759857	2.5002970695495605
73	314.038614988327	pulse	1	t		71.0	2.5	/experiments/knapen_AOT/AOT_stimuli/rescaled_final/0260_fw.mp4	0.0	338.05616188049316	
73	315.6388809680939	pulse	1	t		71.0	2.5	/experiments/knapen_AOT/AOT_stimuli/rescaled_final/0260_fw.mp4	0.0	339.65642786026	
73	316.14694595336914	fix_post	2		12	71.0	2.5	/experiments/knapen_AOT/AOT_stimuli/rescaled_final/0260_fw.mp4	0.0	340.1644928455353	0.10000395774841309
74	316.24694991111755	fix_pre	0		120	72.0	2.5	/experiments/knapen_AOT/AOT_stimuli/rescaled_final/1711_rv.mp4	0.0	340.2644968032837	1.0001821517944336
74	317.2390990257263	pulse	0	t		72.0	2.5	/experiments/knapen_AOT/AOT_stimuli/rescaled_final/1711_rv.mp4	0.0	341.25664591789246	
74	317.247132062912	movie	1		246	72.0	2.5	/experiments/knapen_AOT/AOT_stimuli/rescaled_final/1711_rv.mp4	0.0	341.2646789550781	2.5087249279022217
74	318.83957505226135	pulse	1	t		72.0	2.5	/experiments/knapen_AOT/AOT_stimuli/rescaled_final/1711_rv.mp4	0.0	342.8571219444275	
74	319.7558569908142	fix_post	2		12	72.0	2.5	/experiments/knapen_AOT/AOT_stimuli/rescaled_final/1711_rv.mp4	0.0	343.77340388298035	0.09997296333312988
75	319.85582995414734	fix_pre	0		120	73.0	2.5	/experiments/knapen_AOT/AOT_stimuli/rescaled_final/0515_fw.mp4	0.0	343.8733768463135	1.0001981258392334
75	320.4395909309387	pulse	0	t		73.0	2.5	/experiments/knapen_AOT/AOT_stimuli/rescaled_final/0515_fw.mp4	0.0	344.45713782310486	
75	320.8560280799866	movie	1		245	73.0	2.5	/experiments/knapen_AOT/AOT_stimuli/rescaled_final/0515_fw.mp4	0.0	344.8735749721527	2.5003738403320312
75	322.0399079322815	pulse	1	t		73.0	2.5	/experiments/knapen_AOT/AOT_stimuli/rescaled_final/0515_fw.mp4	0.0	346.05745482444763	
75	323.3564019203186	fix_post	2		12	73.0	2.5	/experiments/knapen_AOT/AOT_stimuli/rescaled_final/0515_fw.mp4	0.0	347.37394881248474	0.09996414184570312
76	323.4563660621643	fix_pre	0		120	74.0	2.5	/experiments/knapen_AOT/AOT_stimuli/rescaled_final/0722_fw.mp4	0.0	347.47391295433044	1.0002028942108154
76	323.6399550437927	pulse	0	t		74.0	2.5	/experiments/knapen_AOT/AOT_stimuli/rescaled_final/0722_fw.mp4	0.0	347.65750193595886	
76	324.4565689563751	movie	1		244	74.0	2.5	/experiments/knapen_AOT/AOT_stimuli/rescaled_final/0722_fw.mp4	0.0	348.47411584854126	2.5003390312194824
76	325.2401750087738	pulse	1	t		74.0	2.5	/experiments/knapen_AOT/AOT_stimuli/rescaled_final/0722_fw.mp4	0.0	349.25772190093994	
76	326.8411030769348	pulse	1	t		74.0	2.5	/experiments/knapen_AOT/AOT_stimuli/rescaled_final/0722_fw.mp4	0.0	350.85864996910095	
76	326.9569079875946	fix_post	2		12	74.0	2.5	/experiments/knapen_AOT/AOT_stimuli/rescaled_final/0722_fw.mp4	0.0	350.97445487976074	0.10001087188720703
77	327.0569188594818	fix_pre	0		120	75.0	2.5	/experiments/knapen_AOT/AOT_stimuli/rescaled_final/0258_fw.mp4	0.0	351.07446575164795	1.0001940727233887
77	328.0571129322052	movie	1		244	75.0	2.5	/experiments/knapen_AOT/AOT_stimuli/rescaled_final/0258_fw.mp4	0.0	352.07465982437134	2.4920029640197754
77	328.4412350654602	pulse	1	t		75.0	2.5	/experiments/knapen_AOT/AOT_stimuli/rescaled_final/0258_fw.mp4	0.0	352.45878195762634	
77	330.04096603393555	pulse	1	t		75.0	2.5	/experiments/knapen_AOT/AOT_stimuli/rescaled_final/0258_fw.mp4	0.0	354.0585129261017	
77	330.549115896225	fix_post	2		12	75.0	2.5	/experiments/knapen_AOT/AOT_stimuli/rescaled_final/0258_fw.mp4	0.0	354.5666627883911	0.09998202323913574
78	330.6490979194641	fix_pre	0		120	76.0	2.5	blank	1.0	354.66664481163025	1.0002031326293945
78	331.6410939693451	pulse	0	t		76.0	2.5	blank	1.0	355.65864086151123	
78	331.6493010520935	movie	1		301	76.0	2.5	blank	1.0	355.66684794425964	2.508687973022461
78	333.2414929866791	pulse	1	t		76.0	2.5	blank	1.0	357.2590398788452	
78	334.15798902511597	fix_post	2		12	76.0	2.5	blank	1.0	358.1755359172821	0.09999585151672363
79	334.2579848766327	fix_pre	0		120	77.0	2.5	/experiments/knapen_AOT/AOT_stimuli/rescaled_final/2147_fw.mp4	0.0	358.2755317687988	1.000154972076416
79	334.8417010307312	pulse	0	t		77.0	2.5	/experiments/knapen_AOT/AOT_stimuli/rescaled_final/2147_fw.mp4	0.0	358.85924792289734	
79	335.2581398487091	movie	1		245	77.0	2.5	/experiments/knapen_AOT/AOT_stimuli/rescaled_final/2147_fw.mp4	0.0	359.27568674087524	2.5004031658172607
79	336.44197702407837	pulse	1	t		77.0	2.5	/experiments/knapen_AOT/AOT_stimuli/rescaled_final/2147_fw.mp4	0.0	360.4595239162445	
79	337.75854301452637	fix_post	2		12	77.0	2.5	/experiments/knapen_AOT/AOT_stimuli/rescaled_final/2147_fw.mp4	0.0	361.7760899066925	0.09995198249816895
80	337.85849499702454	fix_pre	0		120	78.0	2.5	/experiments/knapen_AOT/AOT_stimuli/rescaled_final/0722_rv.mp4	0.0	361.8760418891907	1.000243902206421
80	338.04207587242126	pulse	0	t		78.0	2.5	/experiments/knapen_AOT/AOT_stimuli/rescaled_final/0722_rv.mp4	0.0	362.0596227645874	
80	338.85873889923096	movie	1		246	78.0	2.5	/experiments/knapen_AOT/AOT_stimuli/rescaled_final/0722_rv.mp4	0.0	362.8762857913971	2.5002801418304443
80	339.64241790771484	pulse	1	t		78.0	2.5	/experiments/knapen_AOT/AOT_stimuli/rescaled_final/0722_rv.mp4	0.0	363.659964799881	
80	341.2427279949188	pulse	1	t		78.0	2.5	/experiments/knapen_AOT/AOT_stimuli/rescaled_final/0722_rv.mp4	0.0	365.26027488708496	
80	341.3590190410614	fix_post	2		12	78.0	2.5	/experiments/knapen_AOT/AOT_stimuli/rescaled_final/0722_rv.mp4	0.0	365.37656593322754	0.10001492500305176
81	341.45903396606445	fix_pre	0		119	79.0	2.5	/experiments/knapen_AOT/AOT_stimuli/rescaled_final/1695_rv.mp4	0.0	365.4765808582306	0.9918420314788818
81	342.45087599754333	movie	1		244	79.0	2.5	/experiments/knapen_AOT/AOT_stimuli/rescaled_final/1695_rv.mp4	0.0	366.4684228897095	2.500415086746216
81	342.8430030345917	pulse	1	t		79.0	2.5	/experiments/knapen_AOT/AOT_stimuli/rescaled_final/1695_rv.mp4	0.0	366.8605499267578	
81	344.4430818557739	pulse	1	t		79.0	2.5	/experiments/knapen_AOT/AOT_stimuli/rescaled_final/1695_rv.mp4	0.0	368.46062874794006	
81	344.95129108428955	fix_post	2		12	79.0	2.5	/experiments/knapen_AOT/AOT_stimuli/rescaled_final/1695_rv.mp4	0.0	368.9688379764557	0.09995079040527344
82	345.0512418746948	fix_pre	0		120	80.0	2.5	/experiments/knapen_AOT/AOT_stimuli/rescaled_final/1744_rv.mp4	0.0	369.06878876686096	1.000195026397705
82	346.0432710647583	pulse	0	t		80.0	2.5	/experiments/knapen_AOT/AOT_stimuli/rescaled_final/1744_rv.mp4	0.0	370.06081795692444	
82	346.05143690109253	movie	1		246	80.0	2.5	/experiments/knapen_AOT/AOT_stimuli/rescaled_final/1744_rv.mp4	0.0	370.06898379325867	2.5087239742279053
82	347.64467000961304	pulse	1	t		80.0	2.5	/experiments/knapen_AOT/AOT_stimuli/rescaled_final/1744_rv.mp4	0.0	371.6622169017792	
82	348.56016087532043	fix_post	2		12	80.0	2.5	/experiments/knapen_AOT/AOT_stimuli/rescaled_final/1744_rv.mp4	0.0	372.5777077674866	0.09995508193969727
83	348.66011595726013	fix_pre	0		120	81.0	2.5	/experiments/knapen_AOT/AOT_stimuli/rescaled_final/1475_rv.mp4	0.0	372.67766284942627	1.0002069473266602
83	349.2362539768219	pulse	0	t		81.0	2.5	/experiments/knapen_AOT/AOT_stimuli/rescaled_final/1475_rv.mp4	0.0	373.25380086898804	
83	349.6603229045868	movie	1		245	81.0	2.5	/experiments/knapen_AOT/AOT_stimuli/rescaled_final/1475_rv.mp4	0.0	373.67786979675293	2.500460147857666
83	350.83702993392944	pulse	1	t		81.0	2.5	/experiments/knapen_AOT/AOT_stimuli/rescaled_final/1475_rv.mp4	0.0	374.8545768260956	
83	352.16078305244446	fix_post	2		12	81.0	2.5	/experiments/knapen_AOT/AOT_stimuli/rescaled_final/1475_rv.mp4	0.0	376.1783299446106	0.09995102882385254
84	352.2607340812683	fix_pre	0		120	82.0	2.5	/experiments/knapen_AOT/AOT_stimuli/rescaled_final/0108_fw.mp4	0.0	376.27828097343445	1.0000758171081543
84	352.4368438720703	pulse	0	t		82.0	2.5	/experiments/knapen_AOT/AOT_stimuli/rescaled_final/0108_fw.mp4	0.0	376.45439076423645	
84	353.26080989837646	movie	1		250	82.0	2.5	/experiments/knapen_AOT/AOT_stimuli/rescaled_final/0108_fw.mp4	0.0	377.2783567905426	2.500357151031494
84	354.0362539291382	pulse	1	t		82.0	2.5	/experiments/knapen_AOT/AOT_stimuli/rescaled_final/0108_fw.mp4	0.0	378.0538008213043	
84	355.63630390167236	pulse	1	t		82.0	2.5	/experiments/knapen_AOT/AOT_stimuli/rescaled_final/0108_fw.mp4	0.0	379.6538507938385	
84	355.76116704940796	fix_post	2		12	82.0	2.5	/experiments/knapen_AOT/AOT_stimuli/rescaled_final/0108_fw.mp4	0.0	379.7787139415741	0.10005903244018555
85	355.86122608184814	fix_pre	0		119	83.0	2.5	blank	1.0	379.8787729740143	0.9918279647827148
85	356.85305404663086	movie	1		300	83.0	2.5	blank	1.0	380.870600938797	2.500379800796509
85	357.23655104637146	pulse	1	t		83.0	2.5	blank	1.0	381.2540979385376	
85	358.8369150161743	pulse	1	t		83.0	2.5	blank	1.0	382.85446190834045	
85	359.35343384742737	fix_post	2		12	83.0	2.5	blank	1.0	383.3709807395935	0.09996819496154785
87	359.4534020423889	stim	0		1716					383.47094893455505	14.302181959152222
87	360.43709087371826	pulse	0	t						384.4546377658844	
87	362.0373079776764	pulse	0	t						386.05485486984253	
87	363.6375069618225	pulse	0	t						387.65505385398865	
87	365.2378029823303	pulse	0	t						389.25534987449646	
87	366.83800888061523	pulse	0	t						390.8555557727814	
87	368.43825602531433	pulse	0	t						392.45580291748047	
87	370.0385088920593	pulse	0	t						394.05605578422546	
87	371.63886284828186	pulse	0	t						395.656409740448	
87	373.2389738559723	pulse	0	t						397.2565207481384	
