trial_nr	onset	event_type	phase	response	nr_frames	movie_index	movie_duration	movie_file	blank	onset_abs	duration
0	0.13288497924804688	stim	0		143					19.62909483909607	1.1920051574707031
0	1.3171169757843018	response	0	space						20.813326835632324	
1	1.32489013671875	stim	0		6939					20.821099996566772	57.824678897857666
1	59.143654108047485	pulse	0	t						78.63986396789551	
1	59.149569034576416	stim	1		1717					78.64577889442444	14.308311939239502
1	60.74143695831299	pulse	1	t						80.23764681816101	
1	62.34138512611389	pulse	1	t						81.83759498596191	
1	63.941391944885254	pulse	1	t						83.43760180473328	
1	65.54097294807434	pulse	1	t						85.03718280792236	
1	67.14130401611328	pulse	1	t						86.6375138759613	
1	68.74151015281677	pulse	1	t						88.2377200126648	
1	70.34137296676636	pulse	1	t						89.83758282661438	
1	71.94130206108093	pulse	1	t						91.43751192092896	
2	73.45788097381592	fix_pre	0		11	0.0	2.5	/experiments/AOT/AOT_stimuli/rescaled_final/1479_fw.mp4	0.0	92.95409083366394	0.09165215492248535
2	73.54127812385559	pulse	0	t		0.0	2.5	/experiments/AOT/AOT_stimuli/rescaled_final/1479_fw.mp4	0.0	93.03748798370361	
2	73.5495331287384	movie	1		244	0.0	2.5	/experiments/AOT/AOT_stimuli/rescaled_final/1479_fw.mp4	0.0	93.04574298858643	2.5082969665527344
2	75.14143800735474	pulse	1	t		0.0	2.5	/experiments/AOT/AOT_stimuli/rescaled_final/1479_fw.mp4	0.0	94.63764786720276	
2	76.05783009529114	fix_post	2		12	0.0	2.5	/experiments/AOT/AOT_stimuli/rescaled_final/1479_fw.mp4	0.0	95.55403995513916	0.09999489784240723
3	76.15782499313354	fix_pre	0		120	1.0	2.5	/experiments/AOT/AOT_stimuli/rescaled_final/0465_rv.mp4	0.0	95.65403485298157	1.0000050067901611
3	76.74139714241028	pulse	0	t		1.0	2.5	/experiments/AOT/AOT_stimuli/rescaled_final/0465_rv.mp4	0.0	96.2376070022583	
3	77.1578299999237	movie	1		243	1.0	2.5	/experiments/AOT/AOT_stimuli/rescaled_final/0465_rv.mp4	0.0	96.65403985977173	2.499998092651367
3	78.34146499633789	pulse	1	t		1.0	2.5	/experiments/AOT/AOT_stimuli/rescaled_final/0465_rv.mp4	0.0	97.83767485618591	
3	79.65782809257507	fix_post	2		12	1.0	2.5	/experiments/AOT/AOT_stimuli/rescaled_final/0465_rv.mp4	0.0	99.1540379524231	0.10002493858337402
4	79.75785303115845	fix_pre	0		120	2.0	2.5	/experiments/AOT/AOT_stimuli/rescaled_final/1847_fw.mp4	0.0	99.25406289100647	0.9999740123748779
4	79.94138813018799	pulse	0	t		2.0	2.5	/experiments/AOT/AOT_stimuli/rescaled_final/1847_fw.mp4	0.0	99.43759799003601	
4	80.75782704353333	movie	1		242	2.0	2.5	/experiments/AOT/AOT_stimuli/rescaled_final/1847_fw.mp4	0.0	100.25403690338135	2.4995670318603516
4	81.54135012626648	pulse	1	t		2.0	2.5	/experiments/AOT/AOT_stimuli/rescaled_final/1847_fw.mp4	0.0	101.0375599861145	
4	83.13953709602356	pulse	1	t		2.0	2.5	/experiments/AOT/AOT_stimuli/rescaled_final/1847_fw.mp4	0.0	102.63574695587158	
4	83.25739407539368	fix_post	2		12	2.0	2.5	/experiments/AOT/AOT_stimuli/rescaled_final/1847_fw.mp4	0.0	102.7536039352417	0.1003580093383789
5	83.35775208473206	fix_pre	0		120	3.0	2.5	/experiments/AOT/AOT_stimuli/rescaled_final/0095_rv.mp4	0.0	102.85396194458008	1.0000979900360107
5	84.35785007476807	movie	1		243	3.0	2.5	/experiments/AOT/AOT_stimuli/rescaled_final/0095_rv.mp4	0.0	103.85405993461609	2.499540090560913
5	84.74099516868591	pulse	1	t		3.0	2.5	/experiments/AOT/AOT_stimuli/rescaled_final/0095_rv.mp4	0.0	104.23720502853394	
5	86.34130716323853	pulse	1	t		3.0	2.5	/experiments/AOT/AOT_stimuli/rescaled_final/0095_rv.mp4	0.0	105.83751702308655	
5	86.85739016532898	fix_post	2		12	3.0	2.5	/experiments/AOT/AOT_stimuli/rescaled_final/0095_rv.mp4	0.0	106.353600025177	0.10046982765197754
6	86.95785999298096	fix_pre	0		119	4.0	2.5	/experiments/AOT/AOT_stimuli/rescaled_final/1169_fw.mp4	0.0	106.45406985282898	0.9916181564331055
6	87.94127917289734	pulse	0	t		4.0	2.5	/experiments/AOT/AOT_stimuli/rescaled_final/1169_fw.mp4	0.0	107.43748903274536	
6	87.94947814941406	movie	1		246	4.0	2.5	/experiments/AOT/AOT_stimuli/rescaled_final/1169_fw.mp4	0.0	107.44568800926208	2.5083539485931396
6	89.5414400100708	pulse	1	t		4.0	2.5	/experiments/AOT/AOT_stimuli/rescaled_final/1169_fw.mp4	0.0	109.03764986991882	
6	90.4578320980072	fix_post	2		12	4.0	2.5	/experiments/AOT/AOT_stimuli/rescaled_final/1169_fw.mp4	0.0	109.95404195785522	0.0999908447265625
7	90.55782294273376	fix_pre	0		120	5.0	2.5	blank	1.0	110.05403280258179	0.99989914894104
7	91.14135694503784	pulse	0	t		5.0	2.5	blank	1.0	110.63756680488586	
7	91.5577220916748	movie	1		300	5.0	2.5	blank	1.0	111.05393195152283	2.500087022781372
7	92.7413239479065	pulse	1	t		5.0	2.5	blank	1.0	112.23753380775452	
7	94.05780911445618	fix_post	2		12	5.0	2.5	blank	1.0	113.5540189743042	0.09989094734191895
8	94.1577000617981	fix_pre	0		120	6.0	2.5	/experiments/AOT/AOT_stimuli/rescaled_final/0567_fw.mp4	0.0	113.65390992164612	1.0001020431518555
8	94.34130501747131	pulse	0	t		6.0	2.5	/experiments/AOT/AOT_stimuli/rescaled_final/0567_fw.mp4	0.0	113.83751487731934	
8	95.15780210494995	movie	1		243	6.0	2.5	/experiments/AOT/AOT_stimuli/rescaled_final/0567_fw.mp4	0.0	114.65401196479797	2.4999148845672607
8	95.94125604629517	pulse	1	t		6.0	2.5	/experiments/AOT/AOT_stimuli/rescaled_final/0567_fw.mp4	0.0	115.43746590614319	
8	97.53971600532532	pulse	1	t		6.0	2.5	/experiments/AOT/AOT_stimuli/rescaled_final/0567_fw.mp4	0.0	117.03592586517334	
8	97.65771698951721	fix_post	2		12	6.0	2.5	/experiments/AOT/AOT_stimuli/rescaled_final/0567_fw.mp4	0.0	117.15392684936523	0.10005807876586914
9	97.75777506828308	fix_pre	0		120	7.0	2.5	/experiments/AOT/AOT_stimuli/rescaled_final/1850_fw.mp4	0.0	117.2539849281311	0.9999420642852783
9	98.75771713256836	movie	1		242	7.0	2.5	/experiments/AOT/AOT_stimuli/rescaled_final/1850_fw.mp4	0.0	118.25392699241638	2.5004799365997314
9	99.1411030292511	pulse	1	t		7.0	2.5	/experiments/AOT/AOT_stimuli/rescaled_final/1850_fw.mp4	0.0	118.63731288909912	
9	100.74123215675354	pulse	1	t		7.0	2.5	/experiments/AOT/AOT_stimuli/rescaled_final/1850_fw.mp4	0.0	120.23744201660156	
9	101.25819706916809	fix_post	2		12	7.0	2.5	/experiments/AOT/AOT_stimuli/rescaled_final/1850_fw.mp4	0.0	120.75440692901611	0.09959793090820312
10	101.3577950000763	fix_pre	0		119	8.0	2.5	/experiments/AOT/AOT_stimuli/rescaled_final/1632_rv.mp4	0.0	120.85400485992432	0.9916081428527832
10	102.34126996994019	pulse	0	t		8.0	2.5	/experiments/AOT/AOT_stimuli/rescaled_final/1632_rv.mp4	0.0	121.83747982978821	
10	102.34940314292908	movie	1		244	8.0	2.5	/experiments/AOT/AOT_stimuli/rescaled_final/1632_rv.mp4	0.0	121.8456130027771	2.5083529949188232
10	103.94103407859802	pulse	1	t		8.0	2.5	/experiments/AOT/AOT_stimuli/rescaled_final/1632_rv.mp4	0.0	123.43724393844604	
10	104.8577561378479	fix_post	2		12	8.0	2.5	/experiments/AOT/AOT_stimuli/rescaled_final/1632_rv.mp4	0.0	124.35396599769592	0.10000300407409668
11	104.957759141922	fix_pre	0		120	9.0	2.5	/experiments/AOT/AOT_stimuli/rescaled_final/1271_fw.mp4	0.0	124.45396900177002	0.9999628067016602
11	105.5411651134491	pulse	0	t		9.0	2.5	/experiments/AOT/AOT_stimuli/rescaled_final/1271_fw.mp4	0.0	125.03737497329712	
11	105.95772194862366	movie	1		244	9.0	2.5	/experiments/AOT/AOT_stimuli/rescaled_final/1271_fw.mp4	0.0	125.45393180847168	2.499535083770752
11	107.14127707481384	pulse	1	t		9.0	2.5	/experiments/AOT/AOT_stimuli/rescaled_final/1271_fw.mp4	0.0	126.63748693466187	
11	108.45725703239441	fix_post	2		12	9.0	2.5	/experiments/AOT/AOT_stimuli/rescaled_final/1271_fw.mp4	0.0	127.95346689224243	0.10046195983886719
12	108.55771899223328	fix_pre	0		120	10.0	2.5	/experiments/AOT/AOT_stimuli/rescaled_final/1850_rv.mp4	0.0	128.0539288520813	0.9999861717224121
12	108.74131202697754	pulse	0	t		10.0	2.5	/experiments/AOT/AOT_stimuli/rescaled_final/1850_rv.mp4	0.0	128.23752188682556	
12	109.55770516395569	movie	1		242	10.0	2.5	/experiments/AOT/AOT_stimuli/rescaled_final/1850_rv.mp4	0.0	129.0539150238037	2.49953293800354
12	110.34123396873474	pulse	1	t		10.0	2.5	/experiments/AOT/AOT_stimuli/rescaled_final/1850_rv.mp4	0.0	129.83744382858276	
12	111.93945598602295	pulse	1	t		10.0	2.5	/experiments/AOT/AOT_stimuli/rescaled_final/1850_rv.mp4	0.0	131.43566584587097	
12	112.05723810195923	fix_post	2		12	10.0	2.5	/experiments/AOT/AOT_stimuli/rescaled_final/1850_rv.mp4	0.0	131.55344796180725	0.10040402412414551
13	112.15764212608337	fix_pre	0		120	11.0	2.5	/experiments/AOT/AOT_stimuli/rescaled_final/1998_rv.mp4	0.0	131.6538519859314	1.0000660419464111
13	113.15770816802979	movie	1		243	11.0	2.5	/experiments/AOT/AOT_stimuli/rescaled_final/1998_rv.mp4	0.0	132.6539180278778	2.5005359649658203
13	113.54065704345703	pulse	1	t		11.0	2.5	/experiments/AOT/AOT_stimuli/rescaled_final/1998_rv.mp4	0.0	133.03686690330505	
13	115.14120197296143	pulse	1	t		11.0	2.5	/experiments/AOT/AOT_stimuli/rescaled_final/1998_rv.mp4	0.0	134.63741183280945	
13	115.6582441329956	fix_post	2		12	11.0	2.5	/experiments/AOT/AOT_stimuli/rescaled_final/1998_rv.mp4	0.0	135.15445399284363	0.0994269847869873
14	115.75767111778259	fix_pre	0		119	12.0	2.5	/experiments/AOT/AOT_stimuli/rescaled_final/0867_rv.mp4	0.0	135.25388097763062	0.9917130470275879
14	116.74116802215576	pulse	0	t		12.0	2.5	/experiments/AOT/AOT_stimuli/rescaled_final/0867_rv.mp4	0.0	136.23737788200378	
14	116.74938416481018	movie	1		244	12.0	2.5	/experiments/AOT/AOT_stimuli/rescaled_final/0867_rv.mp4	0.0	136.2455940246582	2.508312940597534
14	118.3410861492157	pulse	1	t		12.0	2.5	/experiments/AOT/AOT_stimuli/rescaled_final/0867_rv.mp4	0.0	137.83729600906372	
14	119.25769710540771	fix_post	2		12	12.0	2.5	/experiments/AOT/AOT_stimuli/rescaled_final/0867_rv.mp4	0.0	138.75390696525574	0.09996294975280762
15	119.35766005516052	fix_pre	0		120	13.0	2.5	blank	1.0	138.85386991500854	1.000040054321289
15	119.94122314453125	pulse	0	t		13.0	2.5	blank	1.0	139.43743300437927	
15	120.35770010948181	movie	1		300	13.0	2.5	blank	1.0	139.85390996932983	2.5001490116119385
15	121.54080295562744	pulse	1	t		13.0	2.5	blank	1.0	141.03701281547546	
15	122.85784912109375	fix_post	2		12	13.0	2.5	blank	1.0	142.35405898094177	0.1000528335571289
16	122.95790195465088	fix_pre	0		120	14.0	2.5	/experiments/AOT/AOT_stimuli/rescaled_final/1565_rv.mp4	0.0	142.4541118144989	0.999675989151001
16	123.14135003089905	pulse	0	t		14.0	2.5	/experiments/AOT/AOT_stimuli/rescaled_final/1565_rv.mp4	0.0	142.63755989074707	
16	123.95757794380188	movie	1		243	14.0	2.5	/experiments/AOT/AOT_stimuli/rescaled_final/1565_rv.mp4	0.0	143.4537878036499	2.4996721744537354
16	124.74124097824097	pulse	1	t		14.0	2.5	/experiments/AOT/AOT_stimuli/rescaled_final/1565_rv.mp4	0.0	144.237450838089	
16	126.33968615531921	pulse	1	t		14.0	2.5	/experiments/AOT/AOT_stimuli/rescaled_final/1565_rv.mp4	0.0	145.83589601516724	
16	126.45725011825562	fix_post	2		12	14.0	2.5	/experiments/AOT/AOT_stimuli/rescaled_final/1565_rv.mp4	0.0	145.95345997810364	0.10035586357116699
17	126.55760598182678	fix_pre	0		120	15.0	2.5	/experiments/AOT/AOT_stimuli/rescaled_final/1386_fw.mp4	0.0	146.0538158416748	1.0000779628753662
17	127.55768394470215	movie	1		243	15.0	2.5	/experiments/AOT/AOT_stimuli/rescaled_final/1386_fw.mp4	0.0	147.05389380455017	2.4999420642852783
17	127.94076704978943	pulse	1	t		15.0	2.5	/experiments/AOT/AOT_stimuli/rescaled_final/1386_fw.mp4	0.0	147.43697690963745	
17	129.5410590171814	pulse	1	t		15.0	2.5	/experiments/AOT/AOT_stimuli/rescaled_final/1386_fw.mp4	0.0	149.03726887702942	
17	130.05762600898743	fix_post	2		12	15.0	2.5	/experiments/AOT/AOT_stimuli/rescaled_final/1386_fw.mp4	0.0	149.55383586883545	0.10009098052978516
18	130.1577169895172	fix_pre	0		119	16.0	2.5	/experiments/AOT/AOT_stimuli/rescaled_final/1803_fw.mp4	0.0	149.65392684936523	0.991534948348999
18	131.14106702804565	pulse	0	t		16.0	2.5	/experiments/AOT/AOT_stimuli/rescaled_final/1803_fw.mp4	0.0	150.63727688789368	
18	131.1492519378662	movie	1		245	16.0	2.5	/experiments/AOT/AOT_stimuli/rescaled_final/1803_fw.mp4	0.0	150.64546179771423	2.5083210468292236
18	132.7421910762787	pulse	1	t		16.0	2.5	/experiments/AOT/AOT_stimuli/rescaled_final/1803_fw.mp4	0.0	152.2384009361267	
18	133.65757298469543	fix_post	2		12	16.0	2.5	/experiments/AOT/AOT_stimuli/rescaled_final/1803_fw.mp4	0.0	153.15378284454346	0.09998703002929688
19	133.75756001472473	fix_pre	0		120	17.0	2.5	/experiments/AOT/AOT_stimuli/rescaled_final/1542_rv.mp4	0.0	153.25376987457275	1.0000190734863281
19	134.34103298187256	pulse	0	t		17.0	2.5	/experiments/AOT/AOT_stimuli/rescaled_final/1542_rv.mp4	0.0	153.83724284172058	
19	134.75757908821106	movie	1		246	17.0	2.5	/experiments/AOT/AOT_stimuli/rescaled_final/1542_rv.mp4	0.0	154.25378894805908	2.4999589920043945
19	135.9410490989685	pulse	1	t		17.0	2.5	/experiments/AOT/AOT_stimuli/rescaled_final/1542_rv.mp4	0.0	155.43725895881653	
19	137.25753808021545	fix_post	2		12	17.0	2.5	/experiments/AOT/AOT_stimuli/rescaled_final/1542_rv.mp4	0.0	156.75374794006348	0.10007500648498535
20	137.35761308670044	fix_pre	0		120	18.0	2.5	/experiments/AOT/AOT_stimuli/rescaled_final/0446_fw.mp4	0.0	156.85382294654846	0.9999070167541504
20	137.54112195968628	pulse	0	t		18.0	2.5	/experiments/AOT/AOT_stimuli/rescaled_final/0446_fw.mp4	0.0	157.0373318195343	
20	138.3575201034546	movie	1		244	18.0	2.5	/experiments/AOT/AOT_stimuli/rescaled_final/0446_fw.mp4	0.0	157.8537299633026	2.500005006790161
20	139.14098811149597	pulse	1	t		18.0	2.5	/experiments/AOT/AOT_stimuli/rescaled_final/0446_fw.mp4	0.0	158.637197971344	
20	140.73990416526794	pulse	1	t		18.0	2.5	/experiments/AOT/AOT_stimuli/rescaled_final/0446_fw.mp4	0.0	160.23611402511597	
20	140.85752511024475	fix_post	2		12	18.0	2.5	/experiments/AOT/AOT_stimuli/rescaled_final/0446_fw.mp4	0.0	160.35373497009277	0.10000801086425781
21	140.957533121109	fix_pre	0		120	19.0	2.5	blank	1.0	160.45374298095703	0.9999728202819824
21	141.957505941391	movie	1		300	19.0	2.5	blank	1.0	161.453715801239	2.500009059906006
21	142.3409869670868	pulse	1	t		19.0	2.5	blank	1.0	161.83719682693481	
21	143.94096493721008	pulse	1	t		19.0	2.5	blank	1.0	163.4371747970581	
21	144.457515001297	fix_post	2		12	19.0	2.5	blank	1.0	163.95372486114502	0.10021805763244629
22	144.55773305892944	fix_pre	0		119	20.0	2.5	/experiments/AOT/AOT_stimuli/rescaled_final/0586_rv.mp4	0.0	164.05394291877747	0.9913768768310547
22	145.5410189628601	pulse	0	t		20.0	2.5	/experiments/AOT/AOT_stimuli/rescaled_final/0586_rv.mp4	0.0	165.03722882270813	
22	145.5491099357605	movie	1		243	20.0	2.5	/experiments/AOT/AOT_stimuli/rescaled_final/0586_rv.mp4	0.0	165.04531979560852	2.508338212966919
22	147.14056706428528	pulse	1	t		20.0	2.5	/experiments/AOT/AOT_stimuli/rescaled_final/0586_rv.mp4	0.0	166.6367769241333	
22	148.05744814872742	fix_post	2		12	20.0	2.5	/experiments/AOT/AOT_stimuli/rescaled_final/0586_rv.mp4	0.0	167.55365800857544	0.10000896453857422
23	148.157457113266	fix_pre	0		120	21.0	2.5	/experiments/AOT/AOT_stimuli/rescaled_final/2002_rv.mp4	0.0	167.653666973114	1.0000050067901611
23	148.74101305007935	pulse	0	t		21.0	2.5	/experiments/AOT/AOT_stimuli/rescaled_final/2002_rv.mp4	0.0	168.23722290992737	
23	149.15746212005615	movie	1		244	21.0	2.5	/experiments/AOT/AOT_stimuli/rescaled_final/2002_rv.mp4	0.0	168.65367197990417	2.5000200271606445
23	150.34110403060913	pulse	1	t		21.0	2.5	/experiments/AOT/AOT_stimuli/rescaled_final/2002_rv.mp4	0.0	169.83731389045715	
23	151.6574821472168	fix_post	2		12	21.0	2.5	/experiments/AOT/AOT_stimuli/rescaled_final/2002_rv.mp4	0.0	171.15369200706482	0.09993982315063477
24	151.75742197036743	fix_pre	0		120	22.0	2.5	/experiments/AOT/AOT_stimuli/rescaled_final/0095_fw.mp4	0.0	171.25363183021545	1.0000360012054443
24	151.94099617004395	pulse	0	t		22.0	2.5	/experiments/AOT/AOT_stimuli/rescaled_final/0095_fw.mp4	0.0	171.43720602989197	
24	152.75745797157288	movie	1		245	22.0	2.5	/experiments/AOT/AOT_stimuli/rescaled_final/0095_fw.mp4	0.0	172.2536678314209	2.5000510215759277
24	153.54098296165466	pulse	1	t		22.0	2.5	/experiments/AOT/AOT_stimuli/rescaled_final/0095_fw.mp4	0.0	173.03719282150269	
24	155.1396541595459	pulse	1	t		22.0	2.5	/experiments/AOT/AOT_stimuli/rescaled_final/0095_fw.mp4	0.0	174.63586401939392	
24	155.2575089931488	fix_post	2		12	22.0	2.5	/experiments/AOT/AOT_stimuli/rescaled_final/0095_fw.mp4	0.0	174.75371885299683	0.10001516342163086
25	155.35752415657043	fix_pre	0		120	23.0	2.5	/experiments/AOT/AOT_stimuli/rescaled_final/1998_fw.mp4	0.0	174.85373401641846	0.9999639987945557
25	156.357488155365	movie	1		245	23.0	2.5	/experiments/AOT/AOT_stimuli/rescaled_final/1998_fw.mp4	0.0	175.853698015213	2.4999938011169434
25	156.74124217033386	pulse	1	t		23.0	2.5	/experiments/AOT/AOT_stimuli/rescaled_final/1998_fw.mp4	0.0	176.23745203018188	
25	158.34098100662231	pulse	1	t		23.0	2.5	/experiments/AOT/AOT_stimuli/rescaled_final/1998_fw.mp4	0.0	177.83719086647034	
25	158.85748195648193	fix_post	2		12	23.0	2.5	/experiments/AOT/AOT_stimuli/rescaled_final/1998_fw.mp4	0.0	178.35369181632996	0.09998798370361328
26	158.95746994018555	fix_pre	0		119	24.0	2.5	/experiments/AOT/AOT_stimuli/rescaled_final/1480_fw.mp4	0.0	178.45367980003357	0.9916501045227051
26	159.9409830570221	pulse	0	t		24.0	2.5	/experiments/AOT/AOT_stimuli/rescaled_final/1480_fw.mp4	0.0	179.43719291687012	
26	159.94912004470825	movie	1		246	24.0	2.5	/experiments/AOT/AOT_stimuli/rescaled_final/1480_fw.mp4	0.0	179.44532990455627	2.5083119869232178
26	161.54057717323303	pulse	1	t		24.0	2.5	/experiments/AOT/AOT_stimuli/rescaled_final/1480_fw.mp4	0.0	181.03678703308105	
26	162.45743203163147	fix_post	2		12	24.0	2.5	/experiments/AOT/AOT_stimuli/rescaled_final/1480_fw.mp4	0.0	181.9536418914795	0.09999299049377441
27	162.55742502212524	fix_pre	0		120	25.0	2.5	/experiments/AOT/AOT_stimuli/rescaled_final/0069_rv.mp4	0.0	182.05363488197327	0.999669075012207
27	163.14094400405884	pulse	0	t		25.0	2.5	/experiments/AOT/AOT_stimuli/rescaled_final/0069_rv.mp4	0.0	182.63715386390686	
27	163.55709409713745	movie	1		246	25.0	2.5	/experiments/AOT/AOT_stimuli/rescaled_final/0069_rv.mp4	0.0	183.05330395698547	2.5003180503845215
27	164.7410430908203	pulse	1	t		25.0	2.5	/experiments/AOT/AOT_stimuli/rescaled_final/0069_rv.mp4	0.0	184.23725295066833	
27	166.05741214752197	fix_post	2		12	25.0	2.5	/experiments/AOT/AOT_stimuli/rescaled_final/0069_rv.mp4	0.0	185.55362200737	0.09996891021728516
28	166.15738105773926	fix_pre	0		120	26.0	2.5	blank	1.0	185.65359091758728	1.000096082687378
28	166.34086513519287	pulse	0	t		26.0	2.5	blank	1.0	185.8370749950409	
28	167.15747714042664	movie	1		300	26.0	2.5	blank	1.0	186.65368700027466	2.4999289512634277
28	167.94091701507568	pulse	1	t		26.0	2.5	blank	1.0	187.4371268749237	
28	169.54093599319458	pulse	1	t		26.0	2.5	blank	1.0	189.0371458530426	
28	169.65740609169006	fix_post	2		12	26.0	2.5	blank	1.0	189.1536159515381	0.09995388984680176
29	169.75735998153687	fix_pre	0		120	27.0	2.5	/experiments/AOT/AOT_stimuli/rescaled_final/1438_rv.mp4	0.0	189.2535698413849	0.9999911785125732
29	170.75735116004944	movie	1		243	27.0	2.5	/experiments/AOT/AOT_stimuli/rescaled_final/1438_rv.mp4	0.0	190.25356101989746	2.499713897705078
29	171.14215517044067	pulse	1	t		27.0	2.5	/experiments/AOT/AOT_stimuli/rescaled_final/1438_rv.mp4	0.0	190.6383650302887	
29	172.74088716506958	pulse	1	t		27.0	2.5	/experiments/AOT/AOT_stimuli/rescaled_final/1438_rv.mp4	0.0	192.2370970249176	
29	173.25706505775452	fix_post	2		12	27.0	2.5	/experiments/AOT/AOT_stimuli/rescaled_final/1438_rv.mp4	0.0	192.75327491760254	0.10036802291870117
30	173.35743308067322	fix_pre	0		119	28.0	2.5	/experiments/AOT/AOT_stimuli/rescaled_final/1271_rv.mp4	0.0	192.85364294052124	0.9916760921478271
30	174.34091305732727	pulse	0	t		28.0	2.5	/experiments/AOT/AOT_stimuli/rescaled_final/1271_rv.mp4	0.0	193.8371229171753	
30	174.34910917282104	movie	1		247	28.0	2.5	/experiments/AOT/AOT_stimuli/rescaled_final/1271_rv.mp4	0.0	193.84531903266907	2.508267879486084
30	175.94075107574463	pulse	1	t		28.0	2.5	/experiments/AOT/AOT_stimuli/rescaled_final/1271_rv.mp4	0.0	195.43696093559265	
30	176.85737705230713	fix_post	2		12	28.0	2.5	/experiments/AOT/AOT_stimuli/rescaled_final/1271_rv.mp4	0.0	196.35358691215515	0.09958100318908691
31	176.95695805549622	fix_pre	0		120	29.0	2.5	/experiments/AOT/AOT_stimuli/rescaled_final/0882_fw.mp4	0.0	196.45316791534424	1.0001161098480225
31	177.5405249595642	pulse	0	t		29.0	2.5	/experiments/AOT/AOT_stimuli/rescaled_final/0882_fw.mp4	0.0	197.03673481941223	
31	177.95707416534424	movie	1		246	29.0	2.5	/experiments/AOT/AOT_stimuli/rescaled_final/0882_fw.mp4	0.0	197.45328402519226	2.5003068447113037
31	179.14080810546875	pulse	1	t		29.0	2.5	/experiments/AOT/AOT_stimuli/rescaled_final/0882_fw.mp4	0.0	198.63701796531677	
31	180.45738101005554	fix_post	2		12	29.0	2.5	/experiments/AOT/AOT_stimuli/rescaled_final/0882_fw.mp4	0.0	199.95359086990356	0.09999203681945801
32	180.557373046875	fix_pre	0		120	30.0	2.5	/experiments/AOT/AOT_stimuli/rescaled_final/1033_rv.mp4	0.0	200.05358290672302	1.0000030994415283
32	180.74083805084229	pulse	0	t		30.0	2.5	/experiments/AOT/AOT_stimuli/rescaled_final/1033_rv.mp4	0.0	200.2370479106903	
32	181.55737614631653	movie	1		243	30.0	2.5	/experiments/AOT/AOT_stimuli/rescaled_final/1033_rv.mp4	0.0	201.05358600616455	2.4999518394470215
32	182.34080505371094	pulse	1	t		30.0	2.5	/experiments/AOT/AOT_stimuli/rescaled_final/1033_rv.mp4	0.0	201.83701491355896	
32	183.93904209136963	pulse	1	t		30.0	2.5	/experiments/AOT/AOT_stimuli/rescaled_final/1033_rv.mp4	0.0	203.43525195121765	
32	184.05732798576355	fix_post	2		12	30.0	2.5	/experiments/AOT/AOT_stimuli/rescaled_final/1033_rv.mp4	0.0	203.55353784561157	0.10001611709594727
33	184.1573441028595	fix_pre	0		120	31.0	2.5	/experiments/AOT/AOT_stimuli/rescaled_final/1135_fw.mp4	0.0	203.65355396270752	0.9999480247497559
33	185.15729212760925	movie	1		246	31.0	2.5	/experiments/AOT/AOT_stimuli/rescaled_final/1135_fw.mp4	0.0	204.65350198745728	2.5000088214874268
33	185.54050517082214	pulse	1	t		31.0	2.5	/experiments/AOT/AOT_stimuli/rescaled_final/1135_fw.mp4	0.0	205.03671503067017	
33	187.14072608947754	pulse	1	t		31.0	2.5	/experiments/AOT/AOT_stimuli/rescaled_final/1135_fw.mp4	0.0	206.63693594932556	
33	187.65730094909668	fix_post	2		12	31.0	2.5	/experiments/AOT/AOT_stimuli/rescaled_final/1135_fw.mp4	0.0	207.1535108089447	0.0999610424041748
34	187.75726199150085	fix_pre	0		119	32.0	2.5	/experiments/AOT/AOT_stimuli/rescaled_final/1753_fw.mp4	0.0	207.25347185134888	0.9917311668395996
34	188.7407989501953	pulse	0	t		32.0	2.5	/experiments/AOT/AOT_stimuli/rescaled_final/1753_fw.mp4	0.0	208.23700881004333	
34	188.74899315834045	movie	1		246	32.0	2.5	/experiments/AOT/AOT_stimuli/rescaled_final/1753_fw.mp4	0.0	208.24520301818848	2.5079169273376465
34	190.3403160572052	pulse	1	t		32.0	2.5	/experiments/AOT/AOT_stimuli/rescaled_final/1753_fw.mp4	0.0	209.83652591705322	
34	191.2569100856781	fix_post	2		12	32.0	2.5	/experiments/AOT/AOT_stimuli/rescaled_final/1753_fw.mp4	0.0	210.75311994552612	0.10040998458862305
35	191.35732007026672	fix_pre	0		120	33.0	2.5	/experiments/AOT/AOT_stimuli/rescaled_final/2113_rv.mp4	0.0	210.85352993011475	0.9999580383300781
35	191.9407501220703	pulse	0	t		33.0	2.5	/experiments/AOT/AOT_stimuli/rescaled_final/2113_rv.mp4	0.0	211.43695998191833	
35	192.3572781085968	movie	1		245	33.0	2.5	/experiments/AOT/AOT_stimuli/rescaled_final/2113_rv.mp4	0.0	211.85348796844482	2.4999308586120605
35	193.54086112976074	pulse	1	t		33.0	2.5	/experiments/AOT/AOT_stimuli/rescaled_final/2113_rv.mp4	0.0	213.03707098960876	
35	194.85720896720886	fix_post	2		12	33.0	2.5	/experiments/AOT/AOT_stimuli/rescaled_final/2113_rv.mp4	0.0	214.35341882705688	0.10004520416259766
36	194.95725417137146	fix_pre	0		120	34.0	2.5	/experiments/AOT/AOT_stimuli/rescaled_final/0152_fw.mp4	0.0	214.45346403121948	1.0000019073486328
36	195.14076209068298	pulse	0	t		34.0	2.5	/experiments/AOT/AOT_stimuli/rescaled_final/0152_fw.mp4	0.0	214.636971950531	
36	195.9572560787201	movie	1		244	34.0	2.5	/experiments/AOT/AOT_stimuli/rescaled_final/0152_fw.mp4	0.0	215.45346593856812	2.5000228881835938
36	196.7407660484314	pulse	1	t		34.0	2.5	/experiments/AOT/AOT_stimuli/rescaled_final/0152_fw.mp4	0.0	216.23697590827942	
36	198.339359998703	pulse	1	t		34.0	2.5	/experiments/AOT/AOT_stimuli/rescaled_final/0152_fw.mp4	0.0	217.83556985855103	
36	198.4572789669037	fix_post	2		12	34.0	2.5	/experiments/AOT/AOT_stimuli/rescaled_final/0152_fw.mp4	0.0	217.9534888267517	0.10003900527954102
37	198.55731797218323	fix_pre	0		120	35.0	2.5	blank	1.0	218.05352783203125	0.9999911785125732
37	199.5573091506958	movie	1		300	35.0	2.5	blank	1.0	219.05351901054382	2.499997854232788
37	199.94082903862	pulse	1	t		35.0	2.5	blank	1.0	219.43703889846802	
37	201.54077816009521	pulse	1	t		35.0	2.5	blank	1.0	221.03698801994324	
37	202.0573070049286	fix_post	2		12	35.0	2.5	blank	1.0	221.5535168647766	0.0999760627746582
38	202.15728306770325	fix_pre	0		119	36.0	2.5	/experiments/AOT/AOT_stimuli/rescaled_final/0574_fw.mp4	0.0	221.65349292755127	0.9916069507598877
38	203.14066815376282	pulse	0	t		36.0	2.5	/experiments/AOT/AOT_stimuli/rescaled_final/0574_fw.mp4	0.0	222.63687801361084	
38	203.14889001846313	movie	1		247	36.0	2.5	/experiments/AOT/AOT_stimuli/rescaled_final/0574_fw.mp4	0.0	222.64509987831116	2.508409023284912
38	204.74021005630493	pulse	1	t		36.0	2.5	/experiments/AOT/AOT_stimuli/rescaled_final/0574_fw.mp4	0.0	224.23641991615295	
38	205.65729904174805	fix_post	2		12	36.0	2.5	/experiments/AOT/AOT_stimuli/rescaled_final/0574_fw.mp4	0.0	225.15350890159607	0.09999299049377441
39	205.75729203224182	fix_pre	0		120	37.0	2.5	/experiments/AOT/AOT_stimuli/rescaled_final/1002_fw.mp4	0.0	225.25350189208984	0.9999780654907227
39	206.34076309204102	pulse	0	t		37.0	2.5	/experiments/AOT/AOT_stimuli/rescaled_final/1002_fw.mp4	0.0	225.83697295188904	
39	206.75727009773254	movie	1		244	37.0	2.5	/experiments/AOT/AOT_stimuli/rescaled_final/1002_fw.mp4	0.0	226.25347995758057	2.4999420642852783
39	207.94088506698608	pulse	1	t		37.0	2.5	/experiments/AOT/AOT_stimuli/rescaled_final/1002_fw.mp4	0.0	227.4370949268341	
39	209.25721216201782	fix_post	2		12	37.0	2.5	/experiments/AOT/AOT_stimuli/rescaled_final/1002_fw.mp4	0.0	228.75342202186584	0.0999288558959961
40	209.35714101791382	fix_pre	0		120	38.0	2.5	/experiments/AOT/AOT_stimuli/rescaled_final/1356_rv.mp4	0.0	228.85335087776184	1.000143051147461
40	209.54062294960022	pulse	0	t		38.0	2.5	/experiments/AOT/AOT_stimuli/rescaled_final/1356_rv.mp4	0.0	229.03683280944824	
40	210.35728406906128	movie	1		244	38.0	2.5	/experiments/AOT/AOT_stimuli/rescaled_final/1356_rv.mp4	0.0	229.8534939289093	2.500005006790161
40	211.14066910743713	pulse	1	t		38.0	2.5	/experiments/AOT/AOT_stimuli/rescaled_final/1356_rv.mp4	0.0	230.63687896728516	
40	212.73926305770874	pulse	1	t		38.0	2.5	/experiments/AOT/AOT_stimuli/rescaled_final/1356_rv.mp4	0.0	232.23547291755676	
40	212.85728907585144	fix_post	2		12	38.0	2.5	/experiments/AOT/AOT_stimuli/rescaled_final/1356_rv.mp4	0.0	232.35349893569946	0.09991192817687988
41	212.95720100402832	fix_pre	0		120	39.0	2.5	/experiments/AOT/AOT_stimuli/rescaled_final/2115_fw.mp4	0.0	232.45341086387634	1.0000081062316895
41	213.95720911026	movie	1		244	39.0	2.5	/experiments/AOT/AOT_stimuli/rescaled_final/2115_fw.mp4	0.0	233.45341897010803	2.5000410079956055
41	214.34048700332642	pulse	1	t		39.0	2.5	/experiments/AOT/AOT_stimuli/rescaled_final/2115_fw.mp4	0.0	233.83669686317444	
41	215.94074606895447	pulse	1	t		39.0	2.5	/experiments/AOT/AOT_stimuli/rescaled_final/2115_fw.mp4	0.0	235.4369559288025	
41	216.45725011825562	fix_post	2		12	39.0	2.5	/experiments/AOT/AOT_stimuli/rescaled_final/2115_fw.mp4	0.0	235.95345997810364	0.09986495971679688
42	216.5571150779724	fix_pre	0		119	40.0	2.5	/experiments/AOT/AOT_stimuli/rescaled_final/1320_fw.mp4	0.0	236.05332493782043	0.9916210174560547
42	217.54061794281006	pulse	0	t		40.0	2.5	/experiments/AOT/AOT_stimuli/rescaled_final/1320_fw.mp4	0.0	237.03682780265808	
42	217.54873609542847	movie	1		246	40.0	2.5	/experiments/AOT/AOT_stimuli/rescaled_final/1320_fw.mp4	0.0	237.0449459552765	2.5084118843078613
42	219.14035606384277	pulse	1	t		40.0	2.5	/experiments/AOT/AOT_stimuli/rescaled_final/1320_fw.mp4	0.0	238.6365659236908	
42	220.05714797973633	fix_post	2		12	40.0	2.5	/experiments/AOT/AOT_stimuli/rescaled_final/1320_fw.mp4	0.0	239.55335783958435	0.10002613067626953
43	220.1571741104126	fix_pre	0		120	41.0	2.5	/experiments/AOT/AOT_stimuli/rescaled_final/1414_rv.mp4	0.0	239.65338397026062	0.999932050704956
43	220.74067211151123	pulse	0	t		41.0	2.5	/experiments/AOT/AOT_stimuli/rescaled_final/1414_rv.mp4	0.0	240.23688197135925	
43	221.15710616111755	movie	1		243	41.0	2.5	/experiments/AOT/AOT_stimuli/rescaled_final/1414_rv.mp4	0.0	240.65331602096558	2.4996378421783447
43	222.34073495864868	pulse	1	t		41.0	2.5	/experiments/AOT/AOT_stimuli/rescaled_final/1414_rv.mp4	0.0	241.8369448184967	
43	223.6567440032959	fix_post	2		12	41.0	2.5	/experiments/AOT/AOT_stimuli/rescaled_final/1414_rv.mp4	0.0	243.15295386314392	0.10030913352966309
44	223.75705313682556	fix_pre	0		120	42.0	2.5	blank	1.0	243.25326299667358	1.0001208782196045
44	223.94068598747253	pulse	0	t		42.0	2.5	blank	1.0	243.43689584732056	
44	224.75717401504517	movie	1		300	42.0	2.5	blank	1.0	244.2533838748932	2.5000360012054443
44	225.540598154068	pulse	1	t		42.0	2.5	blank	1.0	245.03680801391602	
44	227.14059615135193	pulse	1	t		42.0	2.5	blank	1.0	246.63680601119995	
44	227.2572100162506	fix_post	2		12	42.0	2.5	blank	1.0	246.75341987609863	0.09981513023376465
45	227.35702514648438	fix_pre	0		120	43.0	2.5	/experiments/AOT/AOT_stimuli/rescaled_final/0213_fw.mp4	0.0	246.8532350063324	1.0001318454742432
45	228.35715699195862	movie	1		244	43.0	2.5	/experiments/AOT/AOT_stimuli/rescaled_final/0213_fw.mp4	0.0	247.85336685180664	2.4999940395355225
45	228.74037194252014	pulse	1	t		43.0	2.5	/experiments/AOT/AOT_stimuli/rescaled_final/0213_fw.mp4	0.0	248.23658180236816	
45	230.34066700935364	pulse	1	t		43.0	2.5	/experiments/AOT/AOT_stimuli/rescaled_final/0213_fw.mp4	0.0	249.83687686920166	
45	230.85715103149414	fix_post	2		12	43.0	2.5	/experiments/AOT/AOT_stimuli/rescaled_final/0213_fw.mp4	0.0	250.35336089134216	0.10004210472106934
46	230.9571931362152	fix_pre	0		119	44.0	2.5	/experiments/AOT/AOT_stimuli/rescaled_final/1414_fw.mp4	0.0	250.45340299606323	0.9911699295043945
46	231.94064617156982	pulse	0	t		44.0	2.5	/experiments/AOT/AOT_stimuli/rescaled_final/1414_fw.mp4	0.0	251.43685603141785	
46	231.9483630657196	movie	1		244	44.0	2.5	/experiments/AOT/AOT_stimuli/rescaled_final/1414_fw.mp4	0.0	251.44457292556763	2.508591890335083
46	233.5397870540619	pulse	1	t		44.0	2.5	/experiments/AOT/AOT_stimuli/rescaled_final/1414_fw.mp4	0.0	253.0359969139099	
46	234.4569549560547	fix_post	2		12	44.0	2.5	/experiments/AOT/AOT_stimuli/rescaled_final/1414_fw.mp4	0.0	253.9531648159027	0.10033917427062988
47	234.55729413032532	fix_pre	0		120	45.0	2.5	/experiments/AOT/AOT_stimuli/rescaled_final/0445_fw.mp4	0.0	254.05350399017334	0.9997959136962891
47	235.1408290863037	pulse	0	t		45.0	2.5	/experiments/AOT/AOT_stimuli/rescaled_final/0445_fw.mp4	0.0	254.63703894615173	
47	235.5570900440216	movie	1		242	45.0	2.5	/experiments/AOT/AOT_stimuli/rescaled_final/0445_fw.mp4	0.0	255.05329990386963	2.4999918937683105
47	236.74061393737793	pulse	1	t		45.0	2.5	/experiments/AOT/AOT_stimuli/rescaled_final/0445_fw.mp4	0.0	256.23682379722595	
47	238.05708193778992	fix_post	2		12	45.0	2.5	/experiments/AOT/AOT_stimuli/rescaled_final/0445_fw.mp4	0.0	257.55329179763794	0.10001707077026367
48	238.15709900856018	fix_pre	0		120	46.0	2.5	/experiments/AOT/AOT_stimuli/rescaled_final/1144_rv.mp4	0.0	257.6533088684082	1.000054121017456
48	238.34056305885315	pulse	0	t		46.0	2.5	/experiments/AOT/AOT_stimuli/rescaled_final/1144_rv.mp4	0.0	257.8367729187012	
48	239.15715312957764	movie	1		243	46.0	2.5	/experiments/AOT/AOT_stimuli/rescaled_final/1144_rv.mp4	0.0	258.65336298942566	2.499879837036133
48	239.94041204452515	pulse	1	t		46.0	2.5	/experiments/AOT/AOT_stimuli/rescaled_final/1144_rv.mp4	0.0	259.43662190437317	
48	241.53885316848755	pulse	1	t		46.0	2.5	/experiments/AOT/AOT_stimuli/rescaled_final/1144_rv.mp4	0.0	261.03506302833557	
48	241.65703296661377	fix_post	2		12	46.0	2.5	/experiments/AOT/AOT_stimuli/rescaled_final/1144_rv.mp4	0.0	261.1532428264618	0.0999600887298584
49	241.75699305534363	fix_pre	0		120	47.0	2.5	/experiments/AOT/AOT_stimuli/rescaled_final/1884_fw.mp4	0.0	261.25320291519165	1.000049114227295
49	242.75704216957092	movie	1		244	47.0	2.5	/experiments/AOT/AOT_stimuli/rescaled_final/1884_fw.mp4	0.0	262.25325202941895	2.499990940093994
49	243.14016795158386	pulse	1	t		47.0	2.5	/experiments/AOT/AOT_stimuli/rescaled_final/1884_fw.mp4	0.0	262.6363778114319	
49	244.74046897888184	pulse	1	t		47.0	2.5	/experiments/AOT/AOT_stimuli/rescaled_final/1884_fw.mp4	0.0	264.23667883872986	
49	245.25703310966492	fix_post	2		12	47.0	2.5	/experiments/AOT/AOT_stimuli/rescaled_final/1884_fw.mp4	0.0	264.75324296951294	0.09997391700744629
50	245.35700702667236	fix_pre	0		119	48.0	2.5	/experiments/AOT/AOT_stimuli/rescaled_final/0038_fw.mp4	0.0	264.8532168865204	0.9916031360626221
50	246.3405110836029	pulse	0	t		48.0	2.5	/experiments/AOT/AOT_stimuli/rescaled_final/0038_fw.mp4	0.0	265.8367209434509	
50	246.34861016273499	movie	1		247	48.0	2.5	/experiments/AOT/AOT_stimuli/rescaled_final/0038_fw.mp4	0.0	265.844820022583	2.507941961288452
50	247.94010996818542	pulse	1	t		48.0	2.5	/experiments/AOT/AOT_stimuli/rescaled_final/0038_fw.mp4	0.0	267.43631982803345	
50	248.85655212402344	fix_post	2		12	48.0	2.5	/experiments/AOT/AOT_stimuli/rescaled_final/0038_fw.mp4	0.0	268.35276198387146	0.10043883323669434
51	248.95699095726013	fix_pre	0		120	49.0	2.5	blank	1.0	268.45320081710815	1.0000500679016113
51	249.54044604301453	pulse	0	t		49.0	2.5	blank	1.0	269.03665590286255	
51	249.95704102516174	movie	1		300	49.0	2.5	blank	1.0	269.45325088500977	2.4999449253082275
51	251.14046502113342	pulse	1	t		49.0	2.5	blank	1.0	270.63667488098145	
51	252.45698595046997	fix_post	2		12	49.0	2.5	blank	1.0	271.953195810318	0.10003805160522461
52	252.5570240020752	fix_pre	0		120	50.0	2.5	/experiments/AOT/AOT_stimuli/rescaled_final/0454_fw.mp4	0.0	272.0532338619232	0.9999310970306396
52	252.74051809310913	pulse	0	t		50.0	2.5	/experiments/AOT/AOT_stimuli/rescaled_final/0454_fw.mp4	0.0	272.23672795295715	
52	253.55695509910583	movie	1		244	50.0	2.5	/experiments/AOT/AOT_stimuli/rescaled_final/0454_fw.mp4	0.0	273.05316495895386	2.500148057937622
52	254.34043407440186	pulse	1	t		50.0	2.5	/experiments/AOT/AOT_stimuli/rescaled_final/0454_fw.mp4	0.0	273.8366439342499	
52	255.93941807746887	pulse	1	t		50.0	2.5	/experiments/AOT/AOT_stimuli/rescaled_final/0454_fw.mp4	0.0	275.4356279373169	
52	256.05710315704346	fix_post	2		12	50.0	2.5	/experiments/AOT/AOT_stimuli/rescaled_final/0454_fw.mp4	0.0	275.5533130168915	0.09991788864135742
53	256.1570210456848	fix_pre	0		120	51.0	2.5	/experiments/AOT/AOT_stimuli/rescaled_final/2137_rv.mp4	0.0	275.65323090553284	1.0000269412994385
53	257.15704798698425	movie	1		245	51.0	2.5	/experiments/AOT/AOT_stimuli/rescaled_final/2137_rv.mp4	0.0	276.6532578468323	2.499911069869995
53	257.5402171611786	pulse	1	t		51.0	2.5	/experiments/AOT/AOT_stimuli/rescaled_final/2137_rv.mp4	0.0	277.0364270210266	
53	259.140408039093	pulse	1	t		51.0	2.5	/experiments/AOT/AOT_stimuli/rescaled_final/2137_rv.mp4	0.0	278.63661789894104	
53	259.65695905685425	fix_post	2		12	51.0	2.5	/experiments/AOT/AOT_stimuli/rescaled_final/2137_rv.mp4	0.0	279.15316891670227	0.09999895095825195
54	259.7569580078125	fix_pre	0		119	52.0	2.5	/experiments/AOT/AOT_stimuli/rescaled_final/1520_rv.mp4	0.0	279.2531678676605	0.9916610717773438
54	260.74049496650696	pulse	0	t		52.0	2.5	/experiments/AOT/AOT_stimuli/rescaled_final/1520_rv.mp4	0.0	280.236704826355	
54	260.74861907958984	movie	1		245	52.0	2.5	/experiments/AOT/AOT_stimuli/rescaled_final/1520_rv.mp4	0.0	280.24482893943787	2.508291006088257
54	262.3399760723114	pulse	1	t		52.0	2.5	/experiments/AOT/AOT_stimuli/rescaled_final/1520_rv.mp4	0.0	281.8361859321594	
54	263.2569100856781	fix_post	2		12	52.0	2.5	/experiments/AOT/AOT_stimuli/rescaled_final/1520_rv.mp4	0.0	282.7531199455261	0.09995889663696289
55	263.35686898231506	fix_pre	0		120	53.0	2.5	/experiments/AOT/AOT_stimuli/rescaled_final/0882_rv.mp4	0.0	282.8530788421631	1.0000290870666504
55	263.9403729438782	pulse	0	t		53.0	2.5	/experiments/AOT/AOT_stimuli/rescaled_final/0882_rv.mp4	0.0	283.4365828037262	
55	264.3568980693817	movie	1		244	53.0	2.5	/experiments/AOT/AOT_stimuli/rescaled_final/0882_rv.mp4	0.0	283.85310792922974	2.500006914138794
55	265.5404369831085	pulse	1	t		53.0	2.5	/experiments/AOT/AOT_stimuli/rescaled_final/0882_rv.mp4	0.0	285.03664684295654	
55	266.8569049835205	fix_post	2		12	53.0	2.5	/experiments/AOT/AOT_stimuli/rescaled_final/0882_rv.mp4	0.0	286.35311484336853	0.09994101524353027
56	266.95684599876404	fix_pre	0		120	54.0	2.5	/experiments/AOT/AOT_stimuli/rescaled_final/1994_fw.mp4	0.0	286.45305585861206	1.0000970363616943
56	267.1403419971466	pulse	0	t		54.0	2.5	/experiments/AOT/AOT_stimuli/rescaled_final/1994_fw.mp4	0.0	286.63655185699463	
56	267.95694303512573	movie	1		247	54.0	2.5	/experiments/AOT/AOT_stimuli/rescaled_final/1994_fw.mp4	0.0	287.45315289497375	2.499983072280884
56	268.74046897888184	pulse	1	t		54.0	2.5	/experiments/AOT/AOT_stimuli/rescaled_final/1994_fw.mp4	0.0	288.23667883872986	
56	270.3404369354248	pulse	1	t		54.0	2.5	/experiments/AOT/AOT_stimuli/rescaled_final/1994_fw.mp4	0.0	289.8366467952728	
56	270.4569261074066	fix_post	2		12	54.0	2.5	/experiments/AOT/AOT_stimuli/rescaled_final/1994_fw.mp4	0.0	289.95313596725464	0.09997105598449707
57	270.5568971633911	fix_pre	0		120	55.0	2.5	/experiments/AOT/AOT_stimuli/rescaled_final/1165_rv.mp4	0.0	290.05310702323914	1.0000360012054443
57	271.55693316459656	movie	1		246	55.0	2.5	/experiments/AOT/AOT_stimuli/rescaled_final/1165_rv.mp4	0.0	291.0531430244446	2.50002384185791
57	271.9400770664215	pulse	1	t		55.0	2.5	/experiments/AOT/AOT_stimuli/rescaled_final/1165_rv.mp4	0.0	291.43628692626953	
57	273.5403881072998	pulse	1	t		55.0	2.5	/experiments/AOT/AOT_stimuli/rescaled_final/1165_rv.mp4	0.0	293.0365979671478	
57	274.05695700645447	fix_post	2		12	55.0	2.5	/experiments/AOT/AOT_stimuli/rescaled_final/1165_rv.mp4	0.0	293.5531668663025	0.10000109672546387
58	274.15695810317993	fix_pre	0		119	56.0	2.5	blank	1.0	293.65316796302795	0.9916298389434814
58	275.140496969223	pulse	0	t		56.0	2.5	blank	1.0	294.63670682907104	
58	275.1485879421234	movie	1		301	56.0	2.5	blank	1.0	294.64479780197144	2.508341073989868
58	276.74041509628296	pulse	1	t		56.0	2.5	blank	1.0	296.236624956131	
58	277.6569290161133	fix_post	2		12	56.0	2.5	blank	1.0	297.1531388759613	0.09995603561401367
59	277.7568850517273	fix_pre	0		120	57.0	2.5	/experiments/AOT/AOT_stimuli/rescaled_final/0275_rv.mp4	0.0	297.2530949115753	1.0000391006469727
59	278.3404049873352	pulse	0	t		57.0	2.5	/experiments/AOT/AOT_stimuli/rescaled_final/0275_rv.mp4	0.0	297.8366148471832	
59	278.75692415237427	movie	1		243	57.0	2.5	/experiments/AOT/AOT_stimuli/rescaled_final/0275_rv.mp4	0.0	298.2531340122223	2.499945878982544
59	279.9404561519623	pulse	1	t		57.0	2.5	/experiments/AOT/AOT_stimuli/rescaled_final/0275_rv.mp4	0.0	299.4366660118103	
59	281.2568700313568	fix_post	2		12	57.0	2.5	/experiments/AOT/AOT_stimuli/rescaled_final/0275_rv.mp4	0.0	300.75307989120483	0.09999299049377441
60	281.3568630218506	fix_pre	0		120	58.0	2.5	/experiments/AOT/AOT_stimuli/rescaled_final/2113_fw.mp4	0.0	300.8530728816986	1.000096082687378
60	281.5402801036835	pulse	0	t		58.0	2.5	/experiments/AOT/AOT_stimuli/rescaled_final/2113_fw.mp4	0.0	301.0364899635315	
60	282.35695910453796	movie	1		244	58.0	2.5	/experiments/AOT/AOT_stimuli/rescaled_final/2113_fw.mp4	0.0	301.853168964386	2.499868869781494
60	283.1403720378876	pulse	1	t		58.0	2.5	/experiments/AOT/AOT_stimuli/rescaled_final/2113_fw.mp4	0.0	302.6365818977356	
60	284.73915696144104	pulse	1	t		58.0	2.5	/experiments/AOT/AOT_stimuli/rescaled_final/2113_fw.mp4	0.0	304.23536682128906	
60	284.85682797431946	fix_post	2		12	58.0	2.5	/experiments/AOT/AOT_stimuli/rescaled_final/2113_fw.mp4	0.0	304.3530378341675	0.10004711151123047
61	284.9568750858307	fix_pre	0		120	59.0	2.5	/experiments/AOT/AOT_stimuli/rescaled_final/0445_fw.mp4	0.0	304.4530849456787	0.9999520778656006
61	285.9568271636963	movie	1		243	59.0	2.5	/experiments/AOT/AOT_stimuli/rescaled_final/0445_fw.mp4	0.0	305.4530370235443	2.5000038146972656
61	286.3402199745178	pulse	1	t		59.0	2.5	/experiments/AOT/AOT_stimuli/rescaled_final/0445_fw.mp4	0.0	305.83642983436584	
61	287.9403381347656	pulse	1	t		59.0	2.5	/experiments/AOT/AOT_stimuli/rescaled_final/0445_fw.mp4	0.0	307.43654799461365	
61	288.45683097839355	fix_post	2		12	59.0	2.5	/experiments/AOT/AOT_stimuli/rescaled_final/0445_fw.mp4	0.0	307.9530408382416	0.0999460220336914
62	288.55677700042725	fix_pre	0		119	60.0	2.5	/experiments/AOT/AOT_stimuli/rescaled_final/1002_rv.mp4	0.0	308.05298686027527	0.9917900562286377
62	289.540363073349	pulse	0	t		60.0	2.5	/experiments/AOT/AOT_stimuli/rescaled_final/1002_rv.mp4	0.0	309.036572933197	
62	289.5485670566559	movie	1		245	60.0	2.5	/experiments/AOT/AOT_stimuli/rescaled_final/1002_rv.mp4	0.0	309.0447769165039	2.5077760219573975
62	291.14146995544434	pulse	1	t		60.0	2.5	/experiments/AOT/AOT_stimuli/rescaled_final/1002_rv.mp4	0.0	310.63767981529236	
62	292.0563430786133	fix_post	2		12	60.0	2.5	/experiments/AOT/AOT_stimuli/rescaled_final/1002_rv.mp4	0.0	311.5525529384613	0.10049104690551758
63	292.1568341255188	fix_pre	0		120	61.0	2.5	/experiments/AOT/AOT_stimuli/rescaled_final/0101_rv.mp4	0.0	311.6530439853668	0.9999048709869385
63	292.7403030395508	pulse	0	t		61.0	2.5	/experiments/AOT/AOT_stimuli/rescaled_final/0101_rv.mp4	0.0	312.2365128993988	
63	293.15673899650574	movie	1		245	61.0	2.5	/experiments/AOT/AOT_stimuli/rescaled_final/0101_rv.mp4	0.0	312.65294885635376	2.5000710487365723
63	294.3404121398926	pulse	1	t		61.0	2.5	/experiments/AOT/AOT_stimuli/rescaled_final/0101_rv.mp4	0.0	313.8366219997406	
63	295.6568100452423	fix_post	2		12	61.0	2.5	/experiments/AOT/AOT_stimuli/rescaled_final/0101_rv.mp4	0.0	315.15301990509033	0.09987497329711914
64	295.75668501853943	fix_pre	0		120	62.0	2.5	/experiments/AOT/AOT_stimuli/rescaled_final/1112_fw.mp4	0.0	315.25289487838745	1.0000779628753662
64	295.940181016922	pulse	0	t		62.0	2.5	/experiments/AOT/AOT_stimuli/rescaled_final/1112_fw.mp4	0.0	315.43639087677	
64	296.7567629814148	movie	1		244	62.0	2.5	/experiments/AOT/AOT_stimuli/rescaled_final/1112_fw.mp4	0.0	316.2529728412628	2.49997615814209
64	297.5402150154114	pulse	1	t		62.0	2.5	/experiments/AOT/AOT_stimuli/rescaled_final/1112_fw.mp4	0.0	317.0364248752594	
64	299.1386570930481	pulse	1	t		62.0	2.5	/experiments/AOT/AOT_stimuli/rescaled_final/1112_fw.mp4	0.0	318.6348669528961	
64	299.2567391395569	fix_post	2		12	62.0	2.5	/experiments/AOT/AOT_stimuli/rescaled_final/1112_fw.mp4	0.0	318.7529489994049	0.09996199607849121
65	299.3567011356354	fix_pre	0		120	63.0	2.5	blank	1.0	318.8529109954834	1.0000298023223877
65	300.35673093795776	movie	1		300	63.0	2.5	blank	1.0	319.8529407978058	2.4999420642852783
65	300.74020195007324	pulse	1	t		63.0	2.5	blank	1.0	320.23641180992126	
65	302.3402991294861	pulse	1	t		63.0	2.5	blank	1.0	321.8365089893341	
65	302.85667300224304	fix_post	2		12	63.0	2.5	blank	1.0	322.35288286209106	0.10002017021179199
66	302.95669317245483	fix_pre	0		119	64.0	2.5	/experiments/AOT/AOT_stimuli/rescaled_final/0532_rv.mp4	0.0	322.45290303230286	0.9916868209838867
66	303.94022703170776	pulse	0	t		64.0	2.5	/experiments/AOT/AOT_stimuli/rescaled_final/0532_rv.mp4	0.0	323.4364368915558	
66	303.9483799934387	movie	1		245	64.0	2.5	/experiments/AOT/AOT_stimuli/rescaled_final/0532_rv.mp4	0.0	323.44458985328674	2.5083329677581787
66	305.54000210762024	pulse	1	t		64.0	2.5	/experiments/AOT/AOT_stimuli/rescaled_final/0532_rv.mp4	0.0	325.03621196746826	
66	306.4567129611969	fix_post	2		12	64.0	2.5	/experiments/AOT/AOT_stimuli/rescaled_final/0532_rv.mp4	0.0	325.9529228210449	0.09997415542602539
67	306.5566871166229	fix_pre	0		120	65.0	2.5	/experiments/AOT/AOT_stimuli/rescaled_final/1632_rv.mp4	0.0	326.05289697647095	1.0000929832458496
67	307.1402289867401	pulse	0	t		65.0	2.5	/experiments/AOT/AOT_stimuli/rescaled_final/1632_rv.mp4	0.0	326.63643884658813	
67	307.5567800998688	movie	1		245	65.0	2.5	/experiments/AOT/AOT_stimuli/rescaled_final/1632_rv.mp4	0.0	327.0529899597168	2.4998819828033447
67	308.7402310371399	pulse	1	t		65.0	2.5	/experiments/AOT/AOT_stimuli/rescaled_final/1632_rv.mp4	0.0	328.2364408969879	
67	310.0566620826721	fix_post	2		12	65.0	2.5	/experiments/AOT/AOT_stimuli/rescaled_final/1632_rv.mp4	0.0	329.55287194252014	0.10005307197570801
68	310.1567151546478	fix_pre	0		120	66.0	2.5	/experiments/AOT/AOT_stimuli/rescaled_final/1837_fw.mp4	0.0	329.65292501449585	0.9999849796295166
68	310.34017515182495	pulse	0	t		66.0	2.5	/experiments/AOT/AOT_stimuli/rescaled_final/1837_fw.mp4	0.0	329.836385011673	
68	311.15670013427734	movie	1		245	66.0	2.5	/experiments/AOT/AOT_stimuli/rescaled_final/1837_fw.mp4	0.0	330.65290999412537	2.4996700286865234
68	311.940279006958	pulse	1	t		66.0	2.5	/experiments/AOT/AOT_stimuli/rescaled_final/1837_fw.mp4	0.0	331.43648886680603	
68	313.53837299346924	pulse	1	t		66.0	2.5	/experiments/AOT/AOT_stimuli/rescaled_final/1837_fw.mp4	0.0	333.03458285331726	
68	313.65637016296387	fix_post	2		12	66.0	2.5	/experiments/AOT/AOT_stimuli/rescaled_final/1837_fw.mp4	0.0	333.1525800228119	0.10025882720947266
69	313.75662899017334	fix_pre	0		120	67.0	2.5	/experiments/AOT/AOT_stimuli/rescaled_final/0934_fw.mp4	0.0	333.25283885002136	1.000072956085205
69	314.75670194625854	movie	1		245	67.0	2.5	/experiments/AOT/AOT_stimuli/rescaled_final/0934_fw.mp4	0.0	334.25291180610657	2.499563217163086
69	315.14165115356445	pulse	1	t		67.0	2.5	/experiments/AOT/AOT_stimuli/rescaled_final/0934_fw.mp4	0.0	334.6378610134125	
69	316.740177154541	pulse	1	t		67.0	2.5	/experiments/AOT/AOT_stimuli/rescaled_final/0934_fw.mp4	0.0	336.23638701438904	
69	317.25626516342163	fix_post	2		12	67.0	2.5	/experiments/AOT/AOT_stimuli/rescaled_final/0934_fw.mp4	0.0	336.75247502326965	0.10043597221374512
70	317.3567011356354	fix_pre	0		119	68.0	2.5	blank	1.0	336.8529109954834	0.9915778636932373
70	318.3401210308075	pulse	0	t		68.0	2.5	blank	1.0	337.8363308906555	
70	318.3482789993286	movie	1		301	68.0	2.5	blank	1.0	337.84448885917664	2.50838303565979
70	319.9401559829712	pulse	1	t		68.0	2.5	blank	1.0	339.4363658428192	
70	320.8566620349884	fix_post	2		12	68.0	2.5	blank	1.0	340.3528718948364	0.09998393058776855
71	320.9566459655762	fix_pre	0		120	69.0	2.5	/experiments/AOT/AOT_stimuli/rescaled_final/1925_fw.mp4	0.0	340.4528558254242	1.0000200271606445
71	321.5401611328125	pulse	0	t		69.0	2.5	/experiments/AOT/AOT_stimuli/rescaled_final/1925_fw.mp4	0.0	341.0363709926605	
71	321.9566659927368	movie	1		242	69.0	2.5	/experiments/AOT/AOT_stimuli/rescaled_final/1925_fw.mp4	0.0	341.45287585258484	2.49997615814209
71	323.1402871608734	pulse	1	t		69.0	2.5	/experiments/AOT/AOT_stimuli/rescaled_final/1925_fw.mp4	0.0	342.63649702072144	
71	324.4566421508789	fix_post	2		12	69.0	2.5	/experiments/AOT/AOT_stimuli/rescaled_final/1925_fw.mp4	0.0	343.95285201072693	0.10000491142272949
72	324.55664706230164	fix_pre	0		120	70.0	2.5	/experiments/AOT/AOT_stimuli/rescaled_final/0543_fw.mp4	0.0	344.05285692214966	1.0000250339508057
72	324.74017214775085	pulse	0	t		70.0	2.5	/experiments/AOT/AOT_stimuli/rescaled_final/0543_fw.mp4	0.0	344.2363820075989	
72	325.55667209625244	movie	1		244	70.0	2.5	/experiments/AOT/AOT_stimuli/rescaled_final/0543_fw.mp4	0.0	345.05288195610046	2.4999630451202393
72	326.34019708633423	pulse	1	t		70.0	2.5	/experiments/AOT/AOT_stimuli/rescaled_final/0543_fw.mp4	0.0	345.83640694618225	
72	327.93898010253906	pulse	1	t		70.0	2.5	/experiments/AOT/AOT_stimuli/rescaled_final/0543_fw.mp4	0.0	347.4351899623871	
72	328.0566351413727	fix_post	2		12	70.0	2.5	/experiments/AOT/AOT_stimuli/rescaled_final/0543_fw.mp4	0.0	347.5528450012207	0.09993195533752441
73	328.1565670967102	fix_pre	0		120	71.0	2.5	/experiments/AOT/AOT_stimuli/rescaled_final/2071_rv.mp4	0.0	347.6527769565582	0.999992847442627
73	329.15655994415283	movie	1		243	71.0	2.5	/experiments/AOT/AOT_stimuli/rescaled_final/2071_rv.mp4	0.0	348.65276980400085	2.499953031539917
73	329.53988909721375	pulse	1	t		71.0	2.5	/experiments/AOT/AOT_stimuli/rescaled_final/2071_rv.mp4	0.0	349.03609895706177	
73	331.14005398750305	pulse	1	t		71.0	2.5	/experiments/AOT/AOT_stimuli/rescaled_final/2071_rv.mp4	0.0	350.6362638473511	
73	331.65651297569275	fix_post	2		12	71.0	2.5	/experiments/AOT/AOT_stimuli/rescaled_final/2071_rv.mp4	0.0	351.15272283554077	0.10009098052978516
74	331.75660395622253	fix_pre	0		119	72.0	2.5	/experiments/AOT/AOT_stimuli/rescaled_final/1302_fw.mp4	0.0	351.25281381607056	0.9917349815368652
74	332.74015402793884	pulse	0	t		72.0	2.5	/experiments/AOT/AOT_stimuli/rescaled_final/1302_fw.mp4	0.0	352.23636388778687	
74	332.7483389377594	movie	1		245	72.0	2.5	/experiments/AOT/AOT_stimuli/rescaled_final/1302_fw.mp4	0.0	352.2445487976074	2.5082640647888184
74	334.3399541378021	pulse	1	t		72.0	2.5	/experiments/AOT/AOT_stimuli/rescaled_final/1302_fw.mp4	0.0	353.83616399765015	
74	335.2566030025482	fix_post	2		12	72.0	2.5	/experiments/AOT/AOT_stimuli/rescaled_final/1302_fw.mp4	0.0	354.75281286239624	0.09992599487304688
75	335.35652899742126	fix_pre	0		120	73.0	2.5	/experiments/AOT/AOT_stimuli/rescaled_final/1663_fw.mp4	0.0	354.8527388572693	1.0000591278076172
75	335.9400210380554	pulse	0	t		73.0	2.5	/experiments/AOT/AOT_stimuli/rescaled_final/1663_fw.mp4	0.0	355.43623089790344	
75	336.3565881252289	movie	1		244	73.0	2.5	/experiments/AOT/AOT_stimuli/rescaled_final/1663_fw.mp4	0.0	355.8527979850769	2.5000009536743164
75	337.54013204574585	pulse	1	t		73.0	2.5	/experiments/AOT/AOT_stimuli/rescaled_final/1663_fw.mp4	0.0	357.0363419055939	
75	338.8565890789032	fix_post	2		12	73.0	2.5	/experiments/AOT/AOT_stimuli/rescaled_final/1663_fw.mp4	0.0	358.3527989387512	0.10001802444458008
76	338.9566071033478	fix_pre	0		120	74.0	2.5	/experiments/AOT/AOT_stimuli/rescaled_final/0566_fw.mp4	0.0	358.4528169631958	0.9999818801879883
76	339.1401319503784	pulse	0	t		74.0	2.5	/experiments/AOT/AOT_stimuli/rescaled_final/0566_fw.mp4	0.0	358.63634181022644	
76	339.95658898353577	movie	1		243	74.0	2.5	/experiments/AOT/AOT_stimuli/rescaled_final/0566_fw.mp4	0.0	359.4527988433838	2.499562978744507
76	340.74010705947876	pulse	1	t		74.0	2.5	/experiments/AOT/AOT_stimuli/rescaled_final/0566_fw.mp4	0.0	360.2363169193268	
76	342.3384530544281	pulse	1	t		74.0	2.5	/experiments/AOT/AOT_stimuli/rescaled_final/0566_fw.mp4	0.0	361.8346629142761	
76	342.4561519622803	fix_post	2		12	74.0	2.5	/experiments/AOT/AOT_stimuli/rescaled_final/0566_fw.mp4	0.0	361.9523618221283	0.10037612915039062
77	342.55652809143066	fix_pre	0		120	75.0	2.5	/experiments/AOT/AOT_stimuli/rescaled_final/1497_fw.mp4	0.0	362.0527379512787	1.0000150203704834
77	343.55654311180115	movie	1		245	75.0	2.5	/experiments/AOT/AOT_stimuli/rescaled_final/1497_fw.mp4	0.0	363.05275297164917	2.5001728534698486
77	343.9392490386963	pulse	1	t		75.0	2.5	/experiments/AOT/AOT_stimuli/rescaled_final/1497_fw.mp4	0.0	363.4354588985443	
77	345.5397000312805	pulse	1	t		75.0	2.5	/experiments/AOT/AOT_stimuli/rescaled_final/1497_fw.mp4	0.0	365.03590989112854	
77	346.056715965271	fix_post	2		12	75.0	2.5	/experiments/AOT/AOT_stimuli/rescaled_final/1497_fw.mp4	0.0	365.552925825119	0.10004210472106934
78	346.15675806999207	fix_pre	0		119	76.0	2.5	/experiments/AOT/AOT_stimuli/rescaled_final/0576_rv.mp4	0.0	365.6529679298401	0.9913740158081055
78	347.1400339603424	pulse	0	t		76.0	2.5	/experiments/AOT/AOT_stimuli/rescaled_final/0576_rv.mp4	0.0	366.63624382019043	
78	347.14813208580017	movie	1		247	76.0	2.5	/experiments/AOT/AOT_stimuli/rescaled_final/0576_rv.mp4	0.0	366.6443419456482	2.508357048034668
78	348.7396249771118	pulse	1	t		76.0	2.5	/experiments/AOT/AOT_stimuli/rescaled_final/0576_rv.mp4	0.0	368.23583483695984	
78	349.65648913383484	fix_post	2		12	76.0	2.5	/experiments/AOT/AOT_stimuli/rescaled_final/0576_rv.mp4	0.0	369.15269899368286	0.1000819206237793
79	349.7565710544586	fix_pre	0		120	77.0	2.5	blank	1.0	369.25278091430664	0.9999239444732666
79	350.3400299549103	pulse	0	t		77.0	2.5	blank	1.0	369.8362398147583	
79	350.7564949989319	movie	1		300	77.0	2.5	blank	1.0	370.2527048587799	2.4999489784240723
79	351.93999314308167	pulse	1	t		77.0	2.5	blank	1.0	371.4362030029297	
79	353.25644397735596	fix_post	2		12	77.0	2.5	blank	1.0	372.752653837204	0.09999203681945801
80	353.3564360141754	fix_pre	0		120	78.0	2.5	/experiments/AOT/AOT_stimuli/rescaled_final/1497_rv.mp4	0.0	372.85264587402344	1.0000121593475342
80	353.53994703292847	pulse	0	t		78.0	2.5	/experiments/AOT/AOT_stimuli/rescaled_final/1497_rv.mp4	0.0	373.0361568927765	
80	354.35644817352295	movie	1		246	78.0	2.5	/experiments/AOT/AOT_stimuli/rescaled_final/1497_rv.mp4	0.0	373.852658033371	2.499579906463623
80	355.14000511169434	pulse	1	t		78.0	2.5	/experiments/AOT/AOT_stimuli/rescaled_final/1497_rv.mp4	0.0	374.63621497154236	
80	356.73863101005554	pulse	1	t		78.0	2.5	/experiments/AOT/AOT_stimuli/rescaled_final/1497_rv.mp4	0.0	376.23484086990356	
80	356.8560280799866	fix_post	2		12	78.0	2.5	/experiments/AOT/AOT_stimuli/rescaled_final/1497_rv.mp4	0.0	376.3522379398346	0.10049986839294434
81	356.9565279483795	fix_pre	0		120	79.0	2.5	/experiments/AOT/AOT_stimuli/rescaled_final/0816_rv.mp4	0.0	376.45273780822754	0.9999411106109619
81	357.9564690589905	movie	1		245	79.0	2.5	/experiments/AOT/AOT_stimuli/rescaled_final/0816_rv.mp4	0.0	377.4526789188385	2.499962091445923
81	358.34116196632385	pulse	1	t		79.0	2.5	/experiments/AOT/AOT_stimuli/rescaled_final/0816_rv.mp4	0.0	377.8373718261719	
81	359.9399070739746	pulse	1	t		79.0	2.5	/experiments/AOT/AOT_stimuli/rescaled_final/0816_rv.mp4	0.0	379.43611693382263	
81	360.4564311504364	fix_post	2		12	79.0	2.5	/experiments/AOT/AOT_stimuli/rescaled_final/0816_rv.mp4	0.0	379.9526410102844	0.10000991821289062
82	360.5564410686493	fix_pre	0		119	80.0	2.5	/experiments/AOT/AOT_stimuli/rescaled_final/0760_fw.mp4	0.0	380.0526509284973	0.9916360378265381
82	361.5399241447449	pulse	0	t		80.0	2.5	/experiments/AOT/AOT_stimuli/rescaled_final/0760_fw.mp4	0.0	381.0361340045929	
82	361.54807710647583	movie	1		247	80.0	2.5	/experiments/AOT/AOT_stimuli/rescaled_final/0760_fw.mp4	0.0	381.04428696632385	2.5083088874816895
82	363.13967204093933	pulse	1	t		80.0	2.5	/experiments/AOT/AOT_stimuli/rescaled_final/0760_fw.mp4	0.0	382.63588190078735	
82	364.0563859939575	fix_post	2		12	80.0	2.5	/experiments/AOT/AOT_stimuli/rescaled_final/0760_fw.mp4	0.0	383.55259585380554	0.10003399848937988
83	364.1564199924469	fix_pre	0		120	81.0	2.5	/experiments/AOT/AOT_stimuli/rescaled_final/0571_fw.mp4	0.0	383.6526298522949	1.0000290870666504
83	364.7399821281433	pulse	0	t		81.0	2.5	/experiments/AOT/AOT_stimuli/rescaled_final/0571_fw.mp4	0.0	384.23619198799133	
83	365.15644907951355	movie	1		243	81.0	2.5	/experiments/AOT/AOT_stimuli/rescaled_final/0571_fw.mp4	0.0	384.6526589393616	2.499553918838501
83	366.3400559425354	pulse	1	t		81.0	2.5	/experiments/AOT/AOT_stimuli/rescaled_final/0571_fw.mp4	0.0	385.8362658023834	
83	367.65600299835205	fix_post	2		12	81.0	2.5	/experiments/AOT/AOT_stimuli/rescaled_final/0571_fw.mp4	0.0	387.1522128582001	0.10043096542358398
84	367.75643396377563	fix_pre	0		120	82.0	2.5	blank	1.0	387.25264382362366	0.999934196472168
84	367.9398889541626	pulse	0	t		82.0	2.5	blank	1.0	387.4360988140106	
84	368.7563681602478	movie	1		300	82.0	2.5	blank	1.0	388.2525780200958	2.5000088214874268
84	369.5399100780487	pulse	1	t		82.0	2.5	blank	1.0	389.03611993789673	
84	371.1399130821228	pulse	1	t		82.0	2.5	blank	1.0	390.6361229419708	
84	371.25637698173523	fix_post	2		12	82.0	2.5	blank	1.0	390.75258684158325	0.09999799728393555
85	371.35637497901917	fix_pre	0		120	83.0	2.5	/experiments/AOT/AOT_stimuli/rescaled_final/1089_fw.mp4	0.0	390.8525848388672	1.0000700950622559
85	372.3564450740814	movie	1		245	83.0	2.5	/experiments/AOT/AOT_stimuli/rescaled_final/1089_fw.mp4	0.0	391.85265493392944	2.499998092651367
85	372.7408790588379	pulse	1	t		83.0	2.5	/experiments/AOT/AOT_stimuli/rescaled_final/1089_fw.mp4	0.0	392.2370889186859	
85	374.3398139476776	pulse	1	t		83.0	2.5	/experiments/AOT/AOT_stimuli/rescaled_final/1089_fw.mp4	0.0	393.83602380752563	
85	374.8564431667328	fix_post	2		12	83.0	2.5	/experiments/AOT/AOT_stimuli/rescaled_final/1089_fw.mp4	0.0	394.3526530265808	0.09990096092224121
87	374.95634412765503	stim	0		1716					394.45255398750305	14.299968004226685
87	375.9399070739746	pulse	0	t						395.43611693382263	
87	377.53983306884766	pulse	0	t						397.0360429286957	
87	379.1398401260376	pulse	0	t						398.6360499858856	
87	380.7399580478668	pulse	0	t						400.23616790771484	
87	382.33987307548523	pulse	0	t						401.83608293533325	
87	383.9398350715637	pulse	0	t						403.43604493141174	
87	385.5397939682007	pulse	0	t						405.0360038280487	
87	387.1397671699524	pulse	0	t						406.6359770298004	
87	388.73973512649536	pulse	0	t						408.2359449863434	
