trial_nr	onset	event_type	phase	response	nr_frames	movie_index	movie_duration	movie_file	blank	onset_abs	duration
0	0.191694974899292	stim	0		1184					30.469910860061646	9.8680100440979
0	10.051697969436646	response	0	space						40.329913854599	
1	10.059705018997192	stim	0		4567					40.337920904159546	38.07411193847656
1	48.12381601333618	pulse	0	t						78.40203189849854	
1	48.133816957473755	stim	1		1715					78.41203284263611	14.30031704902649
1	49.715842962265015	pulse	1	t						79.99405884742737	
1	51.308457136154175	pulse	1	t						81.58667302131653	
1	52.90874099731445	pulse	1	t						83.1869568824768	
1	54.5089750289917	pulse	1	t						84.78719091415405	
1	56.10916614532471	pulse	1	t						86.38738203048706	
1	57.70851397514343	pulse	1	t						87.98672986030579	
1	59.30876111984253	pulse	1	t						89.58697700500488	
1	60.909090995788574	pulse	1	t						91.18730688095093	
2	62.434134006500244	fix_pre	0		10	0.0	2.5	/experiments/knapen_AOT/AOT_stimuli/rescaled_final/0119_fw.mp4	0.0	92.7123498916626	0.08330106735229492
2	62.509281158447266	pulse	0	t		0.0	2.5	/experiments/knapen_AOT/AOT_stimuli/rescaled_final/0119_fw.mp4	0.0	92.78749704360962	
2	62.51743507385254	movie	1		243	0.0	2.5	/experiments/knapen_AOT/AOT_stimuli/rescaled_final/0119_fw.mp4	0.0	92.79565095901489	2.508747100830078
2	64.1103150844574	pulse	1	t		0.0	2.5	/experiments/knapen_AOT/AOT_stimuli/rescaled_final/0119_fw.mp4	0.0	94.38853096961975	
2	65.02618217468262	fix_post	2		12	0.0	2.5	/experiments/knapen_AOT/AOT_stimuli/rescaled_final/0119_fw.mp4	0.0	95.30439805984497	0.10001778602600098
3	65.12619996070862	fix_pre	0		120	1.0	2.5	/experiments/knapen_AOT/AOT_stimuli/rescaled_final/0131_fw.mp4	0.0	95.40441584587097	1.0001580715179443
3	65.70984411239624	pulse	0	t		1.0	2.5	/experiments/knapen_AOT/AOT_stimuli/rescaled_final/0131_fw.mp4	0.0	95.9880599975586	
3	66.12635803222656	movie	1		243	1.0	2.5	/experiments/knapen_AOT/AOT_stimuli/rescaled_final/0131_fw.mp4	0.0	96.40457391738892	2.5003621578216553
3	67.31023907661438	pulse	1	t		1.0	2.5	/experiments/knapen_AOT/AOT_stimuli/rescaled_final/0131_fw.mp4	0.0	97.58845496177673	
3	68.62672019004822	fix_post	2		12	1.0	2.5	/experiments/knapen_AOT/AOT_stimuli/rescaled_final/0131_fw.mp4	0.0	98.90493607521057	0.10009193420410156
4	68.72681212425232	fix_pre	0		120	2.0	2.5	/experiments/knapen_AOT/AOT_stimuli/rescaled_final/0370_rv.mp4	0.0	99.00502800941467	1.0000619888305664
4	68.91025304794312	pulse	0	t		2.0	2.5	/experiments/knapen_AOT/AOT_stimuli/rescaled_final/0370_rv.mp4	0.0	99.18846893310547	
4	69.72687411308289	movie	1		244	2.0	2.5	/experiments/knapen_AOT/AOT_stimuli/rescaled_final/0370_rv.mp4	0.0	100.00508999824524	2.5003929138183594
4	70.51058101654053	pulse	1	t		2.0	2.5	/experiments/knapen_AOT/AOT_stimuli/rescaled_final/0370_rv.mp4	0.0	100.78879690170288	
4	72.11095595359802	pulse	1	t		2.0	2.5	/experiments/knapen_AOT/AOT_stimuli/rescaled_final/0370_rv.mp4	0.0	102.38917183876038	
4	72.22726702690125	fix_post	2		12	2.0	2.5	/experiments/knapen_AOT/AOT_stimuli/rescaled_final/0370_rv.mp4	0.0	102.5054829120636	0.10011005401611328
5	72.32737708091736	fix_pre	0		120	3.0	2.5	/experiments/knapen_AOT/AOT_stimuli/rescaled_final/1552_rv.mp4	0.0	102.60559296607971	1.0000650882720947
5	73.32744216918945	movie	1		240	3.0	2.5	/experiments/knapen_AOT/AOT_stimuli/rescaled_final/1552_rv.mp4	0.0	103.6056580543518	2.492158889770508
5	73.71160697937012	pulse	1	t		3.0	2.5	/experiments/knapen_AOT/AOT_stimuli/rescaled_final/1552_rv.mp4	0.0	103.98982286453247	
5	75.31121802330017	pulse	1	t		3.0	2.5	/experiments/knapen_AOT/AOT_stimuli/rescaled_final/1552_rv.mp4	0.0	105.58943390846252	
5	75.81960105895996	fix_post	2		12	3.0	2.5	/experiments/knapen_AOT/AOT_stimuli/rescaled_final/1552_rv.mp4	0.0	106.09781694412231	0.09987092018127441
6	75.91947197914124	fix_pre	0		120	4.0	2.5	/experiments/knapen_AOT/AOT_stimuli/rescaled_final/0833_rv.mp4	0.0	106.19768786430359	1.0001451969146729
6	76.91158413887024	pulse	0	t		4.0	2.5	/experiments/knapen_AOT/AOT_stimuli/rescaled_final/0833_rv.mp4	0.0	107.18980002403259	
6	76.91961717605591	movie	1		245	4.0	2.5	/experiments/knapen_AOT/AOT_stimuli/rescaled_final/0833_rv.mp4	0.0	107.19783306121826	2.5086917877197266
6	78.51218318939209	pulse	1	t		4.0	2.5	/experiments/knapen_AOT/AOT_stimuli/rescaled_final/0833_rv.mp4	0.0	108.79039907455444	
6	79.42830896377563	fix_post	2		12	4.0	2.5	/experiments/knapen_AOT/AOT_stimuli/rescaled_final/0833_rv.mp4	0.0	109.70652484893799	0.1000981330871582
7	79.5284070968628	fix_pre	0		120	5.0	2.5	blank	1.0	109.80662298202515	1.000096082687378
7	80.11200714111328	pulse	0	t		5.0	2.5	blank	1.0	110.39022302627563	
7	80.52850317955017	movie	1		300	5.0	2.5	blank	1.0	110.80671906471252	2.500361919403076
7	81.71224212646484	pulse	1	t		5.0	2.5	blank	1.0	111.9904580116272	
7	83.02886509895325	fix_post	2		12	5.0	2.5	blank	1.0	113.3070809841156	0.10000491142272949
8	83.12887001037598	fix_pre	0		120	6.0	2.5	/experiments/knapen_AOT/AOT_stimuli/rescaled_final/0182_rv.mp4	0.0	113.40708589553833	1.0001270771026611
8	83.31257796287537	pulse	0	t		6.0	2.5	/experiments/knapen_AOT/AOT_stimuli/rescaled_final/0182_rv.mp4	0.0	113.59079384803772	
8	84.12899708747864	movie	1		243	6.0	2.5	/experiments/knapen_AOT/AOT_stimuli/rescaled_final/0182_rv.mp4	0.0	114.40721297264099	2.500412940979004
8	84.9127881526947	pulse	1	t		6.0	2.5	/experiments/knapen_AOT/AOT_stimuli/rescaled_final/0182_rv.mp4	0.0	115.19100403785706	
8	86.51364517211914	pulse	1	t		6.0	2.5	/experiments/knapen_AOT/AOT_stimuli/rescaled_final/0182_rv.mp4	0.0	116.7918610572815	
8	86.62941002845764	fix_post	2		12	6.0	2.5	/experiments/knapen_AOT/AOT_stimuli/rescaled_final/0182_rv.mp4	0.0	116.90762591362	0.1000361442565918
9	86.72944617271423	fix_pre	0		120	7.0	2.5	/experiments/knapen_AOT/AOT_stimuli/rescaled_final/0537_rv.mp4	0.0	117.00766205787659	1.000154972076416
9	87.72960114479065	movie	1		243	7.0	2.5	/experiments/knapen_AOT/AOT_stimuli/rescaled_final/0537_rv.mp4	0.0	118.007817029953	2.4920008182525635
9	88.11381196975708	pulse	1	t		7.0	2.5	/experiments/knapen_AOT/AOT_stimuli/rescaled_final/0537_rv.mp4	0.0	118.39202785491943	
9	89.71339201927185	pulse	1	t		7.0	2.5	/experiments/knapen_AOT/AOT_stimuli/rescaled_final/0537_rv.mp4	0.0	119.9916079044342	
9	90.22160196304321	fix_post	2		12	7.0	2.5	/experiments/knapen_AOT/AOT_stimuli/rescaled_final/0537_rv.mp4	0.0	120.49981784820557	0.10008716583251953
10	90.32168912887573	fix_pre	0		120	8.0	2.5	/experiments/knapen_AOT/AOT_stimuli/rescaled_final/0519_rv.mp4	0.0	120.59990501403809	1.000105857849121
10	91.31374001502991	pulse	0	t		8.0	2.5	/experiments/knapen_AOT/AOT_stimuli/rescaled_final/0519_rv.mp4	0.0	121.59195590019226	
10	91.32179498672485	movie	1		245	8.0	2.5	/experiments/knapen_AOT/AOT_stimuli/rescaled_final/0519_rv.mp4	0.0	121.6000108718872	2.5086829662323
10	92.91455602645874	pulse	1	t		8.0	2.5	/experiments/knapen_AOT/AOT_stimuli/rescaled_final/0519_rv.mp4	0.0	123.1927719116211	
10	93.83047795295715	fix_post	2		12	8.0	2.5	/experiments/knapen_AOT/AOT_stimuli/rescaled_final/0519_rv.mp4	0.0	124.1086938381195	0.09999203681945801
11	93.93046998977661	fix_pre	0		120	9.0	2.5	/experiments/knapen_AOT/AOT_stimuli/rescaled_final/0188_fw.mp4	0.0	124.20868587493896	1.0001931190490723
11	94.5141429901123	pulse	0	t		9.0	2.5	/experiments/knapen_AOT/AOT_stimuli/rescaled_final/0188_fw.mp4	0.0	124.79235887527466	
11	94.93066310882568	movie	1		245	9.0	2.5	/experiments/knapen_AOT/AOT_stimuli/rescaled_final/0188_fw.mp4	0.0	125.20887899398804	2.5003299713134766
11	96.1145191192627	pulse	1	t		9.0	2.5	/experiments/knapen_AOT/AOT_stimuli/rescaled_final/0188_fw.mp4	0.0	126.39273500442505	
11	97.43099308013916	fix_post	2		12	9.0	2.5	/experiments/knapen_AOT/AOT_stimuli/rescaled_final/0188_fw.mp4	0.0	127.70920896530151	0.10005497932434082
12	97.5310480594635	fix_pre	0		120	10.0	2.5	/experiments/knapen_AOT/AOT_stimuli/rescaled_final/0374_fw.mp4	0.0	127.80926394462585	1.0001459121704102
12	97.71470308303833	pulse	0	t		10.0	2.5	/experiments/knapen_AOT/AOT_stimuli/rescaled_final/0374_fw.mp4	0.0	127.99291896820068	
12	98.53119397163391	movie	1		244	10.0	2.5	/experiments/knapen_AOT/AOT_stimuli/rescaled_final/0374_fw.mp4	0.0	128.80940985679626	2.5005221366882324
12	99.31491613388062	pulse	1	t		10.0	2.5	/experiments/knapen_AOT/AOT_stimuli/rescaled_final/0374_fw.mp4	0.0	129.59313201904297	
12	100.91502499580383	pulse	1	t		10.0	2.5	/experiments/knapen_AOT/AOT_stimuli/rescaled_final/0374_fw.mp4	0.0	131.1932408809662	
12	101.03171610832214	fix_post	2		12	10.0	2.5	/experiments/knapen_AOT/AOT_stimuli/rescaled_final/0374_fw.mp4	0.0	131.3099319934845	0.0998849868774414
13	101.13160109519958	fix_pre	0		120	11.0	2.5	/experiments/knapen_AOT/AOT_stimuli/rescaled_final/1630_rv.mp4	0.0	131.40981698036194	1.0001258850097656
13	102.13172698020935	movie	1		242	11.0	2.5	/experiments/knapen_AOT/AOT_stimuli/rescaled_final/1630_rv.mp4	0.0	132.4099428653717	2.4920060634613037
13	102.51601004600525	pulse	1	t		11.0	2.5	/experiments/knapen_AOT/AOT_stimuli/rescaled_final/1630_rv.mp4	0.0	132.7942259311676	
13	104.11566996574402	pulse	1	t		11.0	2.5	/experiments/knapen_AOT/AOT_stimuli/rescaled_final/1630_rv.mp4	0.0	134.39388585090637	
13	104.62373304367065	fix_post	2		12	11.0	2.5	/experiments/knapen_AOT/AOT_stimuli/rescaled_final/1630_rv.mp4	0.0	134.901948928833	0.10006499290466309
14	104.72379803657532	fix_pre	0		120	12.0	2.5	blank	1.0	135.00201392173767	1.0001239776611328
14	105.7158751487732	pulse	0	t		12.0	2.5	blank	1.0	135.99409103393555	
14	105.72392201423645	movie	1		301	12.0	2.5	blank	1.0	136.0021378993988	2.508707046508789
14	107.31612801551819	pulse	1	t		12.0	2.5	blank	1.0	137.59434390068054	
14	108.23262906074524	fix_post	2		12	12.0	2.5	blank	1.0	138.5108449459076	0.10004806518554688
15	108.33267712593079	fix_pre	0		120	13.0	2.5	/experiments/knapen_AOT/AOT_stimuli/rescaled_final/0188_rv.mp4	0.0	138.61089301109314	1.0001108646392822
15	108.91621112823486	pulse	0	t		13.0	2.5	/experiments/knapen_AOT/AOT_stimuli/rescaled_final/0188_rv.mp4	0.0	139.19442701339722	
15	109.33278799057007	movie	1		245	13.0	2.5	/experiments/knapen_AOT/AOT_stimuli/rescaled_final/0188_rv.mp4	0.0	139.61100387573242	2.5003600120544434
15	110.51665997505188	pulse	1	t		13.0	2.5	/experiments/knapen_AOT/AOT_stimuli/rescaled_final/0188_rv.mp4	0.0	140.79487586021423	
15	111.83314800262451	fix_post	2		12	13.0	2.5	/experiments/knapen_AOT/AOT_stimuli/rescaled_final/0188_rv.mp4	0.0	142.11136388778687	0.10008406639099121
16	111.9332320690155	fix_pre	0		120	14.0	2.5	/experiments/knapen_AOT/AOT_stimuli/rescaled_final/1819_fw.mp4	0.0	142.21144795417786	1.000093936920166
16	112.10914015769958	pulse	0	t		14.0	2.5	/experiments/knapen_AOT/AOT_stimuli/rescaled_final/1819_fw.mp4	0.0	142.38735604286194	
16	112.93332600593567	movie	1		244	14.0	2.5	/experiments/knapen_AOT/AOT_stimuli/rescaled_final/1819_fw.mp4	0.0	143.21154189109802	2.500359058380127
16	113.70964407920837	pulse	1	t		14.0	2.5	/experiments/knapen_AOT/AOT_stimuli/rescaled_final/1819_fw.mp4	0.0	143.98785996437073	
16	115.31740117073059	pulse	1	t		14.0	2.5	/experiments/knapen_AOT/AOT_stimuli/rescaled_final/1819_fw.mp4	0.0	145.59561705589294	
16	115.4336850643158	fix_post	2		12	14.0	2.5	/experiments/knapen_AOT/AOT_stimuli/rescaled_final/1819_fw.mp4	0.0	145.71190094947815	0.10001397132873535
17	115.53369903564453	fix_pre	0		120	15.0	2.5	/experiments/knapen_AOT/AOT_stimuli/rescaled_final/0932_rv.mp4	0.0	145.81191492080688	1.0002191066741943
17	116.53391814231873	movie	1		243	15.0	2.5	/experiments/knapen_AOT/AOT_stimuli/rescaled_final/0932_rv.mp4	0.0	146.81213402748108	2.4920239448547363
17	116.9186601638794	pulse	1	t		15.0	2.5	/experiments/knapen_AOT/AOT_stimuli/rescaled_final/0932_rv.mp4	0.0	147.19687604904175	
17	118.509446144104	pulse	1	t		15.0	2.5	/experiments/knapen_AOT/AOT_stimuli/rescaled_final/0932_rv.mp4	0.0	148.78766202926636	
17	119.02594208717346	fix_post	2		12	15.0	2.5	/experiments/knapen_AOT/AOT_stimuli/rescaled_final/0932_rv.mp4	0.0	149.30415797233582	0.10002899169921875
18	119.12597107887268	fix_pre	0		119	16.0	2.5	/experiments/knapen_AOT/AOT_stimuli/rescaled_final/0536_fw.mp4	0.0	149.40418696403503	0.9917659759521484
18	120.10953617095947	pulse	0	t		16.0	2.5	/experiments/knapen_AOT/AOT_stimuli/rescaled_final/0536_fw.mp4	0.0	150.38775205612183	
18	120.11773705482483	movie	1		245	16.0	2.5	/experiments/knapen_AOT/AOT_stimuli/rescaled_final/0536_fw.mp4	0.0	150.39595293998718	2.508707046508789
18	121.71129202842712	pulse	1	t		16.0	2.5	/experiments/knapen_AOT/AOT_stimuli/rescaled_final/0536_fw.mp4	0.0	151.98950791358948	
18	122.62644410133362	fix_post	2		12	16.0	2.5	/experiments/knapen_AOT/AOT_stimuli/rescaled_final/0536_fw.mp4	0.0	152.90465998649597	0.09998893737792969
19	122.72643303871155	fix_pre	0		120	17.0	2.5	/experiments/knapen_AOT/AOT_stimuli/rescaled_final/0479_rv.mp4	0.0	153.0046489238739	1.0001800060272217
19	123.31013202667236	pulse	0	t		17.0	2.5	/experiments/knapen_AOT/AOT_stimuli/rescaled_final/0479_rv.mp4	0.0	153.58834791183472	
19	123.72661304473877	movie	1		243	17.0	2.5	/experiments/knapen_AOT/AOT_stimuli/rescaled_final/0479_rv.mp4	0.0	154.00482892990112	2.500370979309082
19	124.91033005714417	pulse	1	t		17.0	2.5	/experiments/knapen_AOT/AOT_stimuli/rescaled_final/0479_rv.mp4	0.0	155.18854594230652	
19	126.22698402404785	fix_post	2		12	17.0	2.5	/experiments/knapen_AOT/AOT_stimuli/rescaled_final/0479_rv.mp4	0.0	156.5051999092102	0.1000521183013916
20	126.32703614234924	fix_pre	0		120	18.0	2.5	/experiments/knapen_AOT/AOT_stimuli/rescaled_final/1262_rv.mp4	0.0	156.6052520275116	1.0000929832458496
20	126.51059103012085	pulse	0	t		18.0	2.5	/experiments/knapen_AOT/AOT_stimuli/rescaled_final/1262_rv.mp4	0.0	156.7888069152832	
20	127.32712912559509	movie	1		245	18.0	2.5	/experiments/knapen_AOT/AOT_stimuli/rescaled_final/1262_rv.mp4	0.0	157.60534501075745	2.5004069805145264
20	128.11084699630737	pulse	1	t		18.0	2.5	/experiments/knapen_AOT/AOT_stimuli/rescaled_final/1262_rv.mp4	0.0	158.38906288146973	
20	129.70834302902222	pulse	1	t		18.0	2.5	/experiments/knapen_AOT/AOT_stimuli/rescaled_final/1262_rv.mp4	0.0	159.98655891418457	
20	129.82753610610962	fix_post	2		12	18.0	2.5	/experiments/knapen_AOT/AOT_stimuli/rescaled_final/1262_rv.mp4	0.0	160.10575199127197	0.09999585151672363
21	129.92753195762634	fix_pre	0		120	19.0	2.5	/experiments/knapen_AOT/AOT_stimuli/rescaled_final/0912_rv.mp4	0.0	160.2057478427887	1.00018310546875
21	130.9277150630951	movie	1		244	19.0	2.5	/experiments/knapen_AOT/AOT_stimuli/rescaled_final/0912_rv.mp4	0.0	161.20593094825745	2.4920389652252197
21	131.31590604782104	pulse	1	t		19.0	2.5	/experiments/knapen_AOT/AOT_stimuli/rescaled_final/0912_rv.mp4	0.0	161.5941219329834	
21	132.9115960597992	pulse	1	t		19.0	2.5	/experiments/knapen_AOT/AOT_stimuli/rescaled_final/0912_rv.mp4	0.0	163.18981194496155	
21	133.4197540283203	fix_post	2		10	19.0	2.5	/experiments/knapen_AOT/AOT_stimuli/rescaled_final/0912_rv.mp4	0.0	163.69796991348267	0.10001111030578613
22	133.5197651386261	fix_pre	0		120	20.0	2.5	blank	1.0	163.79798102378845	1.0001609325408936
22	134.51182317733765	pulse	0	t		20.0	2.5	blank	1.0	164.7900390625	
22	134.519926071167	movie	1		301	20.0	2.5	blank	1.0	164.79814195632935	2.508668899536133
22	136.11213397979736	pulse	1	t		20.0	2.5	blank	1.0	166.39034986495972	
22	137.02859497070312	fix_post	2		12	20.0	2.5	blank	1.0	167.30681085586548	0.10002017021179199
23	137.12861514091492	fix_pre	0		120	21.0	2.5	/experiments/knapen_AOT/AOT_stimuli/rescaled_final/0906_fw.mp4	0.0	167.40683102607727	1.0001540184020996
23	137.7122449874878	pulse	0	t		21.0	2.5	/experiments/knapen_AOT/AOT_stimuli/rescaled_final/0906_fw.mp4	0.0	167.99046087265015	
23	138.12876915931702	movie	1		246	21.0	2.5	/experiments/knapen_AOT/AOT_stimuli/rescaled_final/0906_fw.mp4	0.0	168.40698504447937	2.5003368854522705
23	139.31254315376282	pulse	1	t		21.0	2.5	/experiments/knapen_AOT/AOT_stimuli/rescaled_final/0906_fw.mp4	0.0	169.59075903892517	
23	140.6291060447693	fix_post	2		12	21.0	2.5	/experiments/knapen_AOT/AOT_stimuli/rescaled_final/0906_fw.mp4	0.0	170.90732192993164	0.10004401206970215
24	140.729150056839	fix_pre	0		120	22.0	2.5	/experiments/knapen_AOT/AOT_stimuli/rescaled_final/0598_rv.mp4	0.0	171.00736594200134	1.0001449584960938
24	140.91270804405212	pulse	0	t		22.0	2.5	/experiments/knapen_AOT/AOT_stimuli/rescaled_final/0598_rv.mp4	0.0	171.19092392921448	
24	141.72929501533508	movie	1		247	22.0	2.5	/experiments/knapen_AOT/AOT_stimuli/rescaled_final/0598_rv.mp4	0.0	172.00751090049744	2.5003950595855713
24	142.51307201385498	pulse	1	t		22.0	2.5	/experiments/knapen_AOT/AOT_stimuli/rescaled_final/0598_rv.mp4	0.0	172.79128789901733	
24	144.1133279800415	pulse	1	t		22.0	2.5	/experiments/knapen_AOT/AOT_stimuli/rescaled_final/0598_rv.mp4	0.0	174.39154386520386	
24	144.22969007492065	fix_post	2		12	22.0	2.5	/experiments/knapen_AOT/AOT_stimuli/rescaled_final/0598_rv.mp4	0.0	174.507905960083	0.10000991821289062
25	144.32969999313354	fix_pre	0		120	23.0	2.5	/experiments/knapen_AOT/AOT_stimuli/rescaled_final/1035_rv.mp4	0.0	174.6079158782959	1.0001311302185059
25	145.32983112335205	movie	1		244	23.0	2.5	/experiments/knapen_AOT/AOT_stimuli/rescaled_final/1035_rv.mp4	0.0	175.6080470085144	2.492065906524658
25	145.71381402015686	pulse	1	t		23.0	2.5	/experiments/knapen_AOT/AOT_stimuli/rescaled_final/1035_rv.mp4	0.0	175.9920299053192	
25	147.31360912322998	pulse	1	t		23.0	2.5	/experiments/knapen_AOT/AOT_stimuli/rescaled_final/1035_rv.mp4	0.0	177.59182500839233	
25	147.8218970298767	fix_post	2		12	23.0	2.5	/experiments/knapen_AOT/AOT_stimuli/rescaled_final/1035_rv.mp4	0.0	178.10011291503906	0.10003399848937988
26	147.9219310283661	fix_pre	0		120	24.0	2.5	/experiments/knapen_AOT/AOT_stimuli/rescaled_final/1888_fw.mp4	0.0	178.20014691352844	1.0000879764556885
26	148.91396307945251	pulse	0	t		24.0	2.5	/experiments/knapen_AOT/AOT_stimuli/rescaled_final/1888_fw.mp4	0.0	179.19217896461487	
26	148.92201900482178	movie	1		245	24.0	2.5	/experiments/knapen_AOT/AOT_stimuli/rescaled_final/1888_fw.mp4	0.0	179.20023488998413	2.5087201595306396
26	150.51540613174438	pulse	1	t		24.0	2.5	/experiments/knapen_AOT/AOT_stimuli/rescaled_final/1888_fw.mp4	0.0	180.79362201690674	
26	151.43073916435242	fix_post	2		12	24.0	2.5	/experiments/knapen_AOT/AOT_stimuli/rescaled_final/1888_fw.mp4	0.0	181.70895504951477	0.10003900527954102
27	151.53077816963196	fix_pre	0		120	25.0	2.5	/experiments/knapen_AOT/AOT_stimuli/rescaled_final/0370_rv.mp4	0.0	181.8089940547943	1.000126838684082
27	152.11434316635132	pulse	0	t		25.0	2.5	/experiments/knapen_AOT/AOT_stimuli/rescaled_final/0370_rv.mp4	0.0	182.39255905151367	
27	152.53090500831604	movie	1		245	25.0	2.5	/experiments/knapen_AOT/AOT_stimuli/rescaled_final/0370_rv.mp4	0.0	182.8091208934784	2.5003931522369385
27	153.71470308303833	pulse	1	t		25.0	2.5	/experiments/knapen_AOT/AOT_stimuli/rescaled_final/0370_rv.mp4	0.0	183.99291896820068	
27	155.03129816055298	fix_post	2		12	25.0	2.5	/experiments/knapen_AOT/AOT_stimuli/rescaled_final/0370_rv.mp4	0.0	185.30951404571533	0.09997296333312988
28	155.1312711238861	fix_pre	0		120	26.0	2.5	blank	1.0	185.40948700904846	1.0002110004425049
28	155.31488418579102	pulse	0	t		26.0	2.5	blank	1.0	185.59310007095337	
28	156.1314821243286	movie	1		300	26.0	2.5	blank	1.0	186.40969800949097	2.5003509521484375
28	156.91516995429993	pulse	1	t		26.0	2.5	blank	1.0	187.19338583946228	
28	158.51525616645813	pulse	1	t		26.0	2.5	blank	1.0	188.79347205162048	
28	158.63183307647705	fix_post	2		12	26.0	2.5	blank	1.0	188.9100489616394	0.09999608993530273
29	158.73182916641235	fix_pre	0		120	27.0	2.5	/experiments/knapen_AOT/AOT_stimuli/rescaled_final/1409_rv.mp4	0.0	189.0100450515747	1.000152826309204
29	159.73198199272156	movie	1		242	27.0	2.5	/experiments/knapen_AOT/AOT_stimuli/rescaled_final/1409_rv.mp4	0.0	190.0101978778839	2.4920501708984375
29	160.11677408218384	pulse	1	t		27.0	2.5	/experiments/knapen_AOT/AOT_stimuli/rescaled_final/1409_rv.mp4	0.0	190.3949899673462	
29	161.7158191204071	pulse	1	t		27.0	2.5	/experiments/knapen_AOT/AOT_stimuli/rescaled_final/1409_rv.mp4	0.0	191.99403500556946	
29	162.22403216362	fix_post	2		12	27.0	2.5	/experiments/knapen_AOT/AOT_stimuli/rescaled_final/1409_rv.mp4	0.0	192.50224804878235	0.09998893737792969
30	162.32402110099792	fix_pre	0		120	28.0	2.5	/experiments/knapen_AOT/AOT_stimuli/rescaled_final/0400_fw.mp4	0.0	192.60223698616028	1.0001850128173828
30	163.31608200073242	pulse	0	t		28.0	2.5	/experiments/knapen_AOT/AOT_stimuli/rescaled_final/0400_fw.mp4	0.0	193.59429788589478	
30	163.3242061138153	movie	1		246	28.0	2.5	/experiments/knapen_AOT/AOT_stimuli/rescaled_final/0400_fw.mp4	0.0	193.60242199897766	2.508697986602783
30	164.9174931049347	pulse	1	t		28.0	2.5	/experiments/knapen_AOT/AOT_stimuli/rescaled_final/0400_fw.mp4	0.0	195.19570899009705	
30	165.8329041004181	fix_post	2		12	28.0	2.5	/experiments/knapen_AOT/AOT_stimuli/rescaled_final/0400_fw.mp4	0.0	196.11111998558044	0.10003495216369629
31	165.9329390525818	fix_pre	0		120	29.0	2.5	/experiments/knapen_AOT/AOT_stimuli/rescaled_final/1035_fw.mp4	0.0	196.21115493774414	1.0001220703125
31	166.5089840888977	pulse	0	t		29.0	2.5	/experiments/knapen_AOT/AOT_stimuli/rescaled_final/1035_fw.mp4	0.0	196.78719997406006	
31	166.9330611228943	movie	1		245	29.0	2.5	/experiments/knapen_AOT/AOT_stimuli/rescaled_final/1035_fw.mp4	0.0	197.21127700805664	2.50036883354187
31	168.11282110214233	pulse	1	t		29.0	2.5	/experiments/knapen_AOT/AOT_stimuli/rescaled_final/1035_fw.mp4	0.0	198.3910369873047	
31	169.43342995643616	fix_post	2		12	29.0	2.5	/experiments/knapen_AOT/AOT_stimuli/rescaled_final/1035_fw.mp4	0.0	199.7116458415985	0.1000971794128418
32	169.533527135849	fix_pre	0		120	30.0	2.5	/experiments/knapen_AOT/AOT_stimuli/rescaled_final/0531_rv.mp4	0.0	199.81174302101135	1.0000710487365723
32	169.7094521522522	pulse	0	t		30.0	2.5	/experiments/knapen_AOT/AOT_stimuli/rescaled_final/0531_rv.mp4	0.0	199.98766803741455	
32	170.53359818458557	movie	1		244	30.0	2.5	/experiments/knapen_AOT/AOT_stimuli/rescaled_final/0531_rv.mp4	0.0	200.81181406974792	2.5003647804260254
32	171.30902218818665	pulse	1	t		30.0	2.5	/experiments/knapen_AOT/AOT_stimuli/rescaled_final/0531_rv.mp4	0.0	201.587238073349	
32	172.90908217430115	pulse	1	t		30.0	2.5	/experiments/knapen_AOT/AOT_stimuli/rescaled_final/0531_rv.mp4	0.0	203.1872980594635	
32	173.0339629650116	fix_post	2		12	30.0	2.5	/experiments/knapen_AOT/AOT_stimuli/rescaled_final/0531_rv.mp4	0.0	203.31217885017395	0.09999513626098633
33	173.13395810127258	fix_pre	0		119	31.0	2.5	/experiments/knapen_AOT/AOT_stimuli/rescaled_final/0857_fw.mp4	0.0	203.41217398643494	0.9918708801269531
33	174.12582898139954	movie	1		244	31.0	2.5	/experiments/knapen_AOT/AOT_stimuli/rescaled_final/0857_fw.mp4	0.0	204.4040448665619	2.5003631114959717
33	174.5100519657135	pulse	1	t		31.0	2.5	/experiments/knapen_AOT/AOT_stimuli/rescaled_final/0857_fw.mp4	0.0	204.78826785087585	
33	176.10977697372437	pulse	1	t		31.0	2.5	/experiments/knapen_AOT/AOT_stimuli/rescaled_final/0857_fw.mp4	0.0	206.38799285888672	
33	176.6261920928955	fix_post	2		12	31.0	2.5	/experiments/knapen_AOT/AOT_stimuli/rescaled_final/0857_fw.mp4	0.0	206.90440797805786	0.10001587867736816
34	176.72620797157288	fix_pre	0		119	32.0	2.5	/experiments/knapen_AOT/AOT_stimuli/rescaled_final/1655_fw.mp4	0.0	207.00442385673523	0.9917972087860107
34	177.7098741531372	pulse	0	t		32.0	2.5	/experiments/knapen_AOT/AOT_stimuli/rescaled_final/1655_fw.mp4	0.0	207.98809003829956	
34	177.7180051803589	movie	1		244	32.0	2.5	/experiments/knapen_AOT/AOT_stimuli/rescaled_final/1655_fw.mp4	0.0	207.99622106552124	2.5086958408355713
34	179.31435799598694	pulse	1	t		32.0	2.5	/experiments/knapen_AOT/AOT_stimuli/rescaled_final/1655_fw.mp4	0.0	209.5925738811493	
34	180.22670102119446	fix_post	2		12	32.0	2.5	/experiments/knapen_AOT/AOT_stimuli/rescaled_final/1655_fw.mp4	0.0	210.5049169063568	0.10002398490905762
35	180.32672500610352	fix_pre	0		120	33.0	2.5	/experiments/knapen_AOT/AOT_stimuli/rescaled_final/0225_fw.mp4	0.0	210.60494089126587	1.0001721382141113
35	180.9102861881256	pulse	0	t		33.0	2.5	/experiments/knapen_AOT/AOT_stimuli/rescaled_final/0225_fw.mp4	0.0	211.18850207328796	
35	181.32689714431763	movie	1		243	33.0	2.5	/experiments/knapen_AOT/AOT_stimuli/rescaled_final/0225_fw.mp4	0.0	211.60511302947998	2.5003278255462646
35	182.51057410240173	pulse	1	t		33.0	2.5	/experiments/knapen_AOT/AOT_stimuli/rescaled_final/0225_fw.mp4	0.0	212.7887899875641	
35	183.8272249698639	fix_post	2		12	33.0	2.5	/experiments/knapen_AOT/AOT_stimuli/rescaled_final/0225_fw.mp4	0.0	214.10544085502625	0.10016512870788574
36	183.92739009857178	fix_pre	0		120	34.0	2.5	/experiments/knapen_AOT/AOT_stimuli/rescaled_final/0057_fw.mp4	0.0	214.20560598373413	1.0000460147857666
36	184.11087203025818	pulse	0	t		34.0	2.5	/experiments/knapen_AOT/AOT_stimuli/rescaled_final/0057_fw.mp4	0.0	214.38908791542053	
36	184.92743611335754	movie	1		246	34.0	2.5	/experiments/knapen_AOT/AOT_stimuli/rescaled_final/0057_fw.mp4	0.0	215.2056519985199	2.500365972518921
36	185.7110619544983	pulse	1	t		34.0	2.5	/experiments/knapen_AOT/AOT_stimuli/rescaled_final/0057_fw.mp4	0.0	215.98927783966064	
36	187.31126403808594	pulse	1	t		34.0	2.5	/experiments/knapen_AOT/AOT_stimuli/rescaled_final/0057_fw.mp4	0.0	217.5894799232483	
36	187.42780208587646	fix_post	2		12	34.0	2.5	/experiments/knapen_AOT/AOT_stimuli/rescaled_final/0057_fw.mp4	0.0	217.70601797103882	0.10001087188720703
37	187.52781295776367	fix_pre	0		120	35.0	2.5	blank	1.0	217.80602884292603	1.0001461505889893
37	188.52795910835266	movie	1		299	35.0	2.5	blank	1.0	218.80617499351501	2.4920239448547363
37	188.91163110733032	pulse	1	t		35.0	2.5	blank	1.0	219.18984699249268	
37	190.5119550228119	pulse	1	t		35.0	2.5	blank	1.0	220.79017090797424	
37	191.0199830532074	fix_post	2		12	35.0	2.5	blank	1.0	221.29819893836975	0.10000395774841309
38	191.1199870109558	fix_pre	0		116	36.0	2.5	/experiments/knapen_AOT/AOT_stimuli/rescaled_final/1502_rv.mp4	0.0	221.39820289611816	1.000204086303711
38	192.11202597618103	pulse	0	t		36.0	2.5	/experiments/knapen_AOT/AOT_stimuli/rescaled_final/1502_rv.mp4	0.0	222.39024186134338	
38	192.12019109725952	movie	1		247	36.0	2.5	/experiments/knapen_AOT/AOT_stimuli/rescaled_final/1502_rv.mp4	0.0	222.39840698242188	2.5087080001831055
38	193.71350002288818	pulse	1	t		36.0	2.5	/experiments/knapen_AOT/AOT_stimuli/rescaled_final/1502_rv.mp4	0.0	223.99171590805054	
38	194.62889909744263	fix_post	2		12	36.0	2.5	/experiments/knapen_AOT/AOT_stimuli/rescaled_final/1502_rv.mp4	0.0	224.90711498260498	0.09996986389160156
39	194.72886896133423	fix_pre	0		120	37.0	2.5	/experiments/knapen_AOT/AOT_stimuli/rescaled_final/0614_rv.mp4	0.0	225.00708484649658	1.000157117843628
39	195.3125729560852	pulse	0	t		37.0	2.5	/experiments/knapen_AOT/AOT_stimuli/rescaled_final/0614_rv.mp4	0.0	225.59078884124756	
39	195.72902607917786	movie	1		245	37.0	2.5	/experiments/knapen_AOT/AOT_stimuli/rescaled_final/0614_rv.mp4	0.0	226.0072419643402	2.5003700256347656
39	196.91289615631104	pulse	1	t		37.0	2.5	/experiments/knapen_AOT/AOT_stimuli/rescaled_final/0614_rv.mp4	0.0	227.1911120414734	
39	198.22939610481262	fix_post	2		12	37.0	2.5	/experiments/knapen_AOT/AOT_stimuli/rescaled_final/0614_rv.mp4	0.0	228.50761198997498	0.1000070571899414
40	198.32940316200256	fix_pre	0		120	38.0	2.5	/experiments/knapen_AOT/AOT_stimuli/rescaled_final/0491_fw.mp4	0.0	228.60761904716492	1.0001859664916992
40	198.51294708251953	pulse	0	t		38.0	2.5	/experiments/knapen_AOT/AOT_stimuli/rescaled_final/0491_fw.mp4	0.0	228.79116296768188	
40	199.32958912849426	movie	1		245	38.0	2.5	/experiments/knapen_AOT/AOT_stimuli/rescaled_final/0491_fw.mp4	0.0	229.60780501365662	2.500337839126587
40	200.11325097084045	pulse	1	t		38.0	2.5	/experiments/knapen_AOT/AOT_stimuli/rescaled_final/0491_fw.mp4	0.0	230.3914668560028	
40	201.71097898483276	pulse	1	t		38.0	2.5	/experiments/knapen_AOT/AOT_stimuli/rescaled_final/0491_fw.mp4	0.0	231.98919486999512	
40	201.82992696762085	fix_post	2		12	38.0	2.5	/experiments/knapen_AOT/AOT_stimuli/rescaled_final/0491_fw.mp4	0.0	232.1081428527832	0.10002708435058594
41	201.92995405197144	fix_pre	0		119	39.0	2.5	/experiments/knapen_AOT/AOT_stimuli/rescaled_final/0435_rv.mp4	0.0	232.2081699371338	0.9918041229248047
41	202.92175817489624	movie	1		244	39.0	2.5	/experiments/knapen_AOT/AOT_stimuli/rescaled_final/0435_rv.mp4	0.0	233.1999740600586	2.5003538131713867
41	203.31385898590088	pulse	1	t		39.0	2.5	/experiments/knapen_AOT/AOT_stimuli/rescaled_final/0435_rv.mp4	0.0	233.59207487106323	
41	204.91406798362732	pulse	1	t		39.0	2.5	/experiments/knapen_AOT/AOT_stimuli/rescaled_final/0435_rv.mp4	0.0	235.19228386878967	
41	205.42211198806763	fix_post	2		12	39.0	2.5	/experiments/knapen_AOT/AOT_stimuli/rescaled_final/0435_rv.mp4	0.0	235.70032787322998	0.1000370979309082
42	205.52214908599854	fix_pre	0		120	40.0	2.5	blank	1.0	235.8003649711609	1.0002539157867432
42	206.51416516304016	pulse	0	t		40.0	2.5	blank	1.0	236.79238104820251	
42	206.52240300178528	movie	1		301	40.0	2.5	blank	1.0	236.80061888694763	2.5086071491241455
42	208.11433506011963	pulse	1	t		40.0	2.5	blank	1.0	238.39255094528198	
42	209.03101015090942	fix_post	2		12	40.0	2.5	blank	1.0	239.30922603607178	0.09999394416809082
43	209.13100409507751	fix_pre	0		120	41.0	2.5	/experiments/knapen_AOT/AOT_stimuli/rescaled_final/1567_fw.mp4	0.0	239.40921998023987	1.0001749992370605
43	209.7147080898285	pulse	0	t		41.0	2.5	/experiments/knapen_AOT/AOT_stimuli/rescaled_final/1567_fw.mp4	0.0	239.99292397499084	
43	210.13117909431458	movie	1		245	41.0	2.5	/experiments/knapen_AOT/AOT_stimuli/rescaled_final/1567_fw.mp4	0.0	240.40939497947693	2.500369071960449
43	211.31507802009583	pulse	1	t		41.0	2.5	/experiments/knapen_AOT/AOT_stimuli/rescaled_final/1567_fw.mp4	0.0	241.59329390525818	
43	212.63154816627502	fix_post	2		12	41.0	2.5	/experiments/knapen_AOT/AOT_stimuli/rescaled_final/1567_fw.mp4	0.0	242.90976405143738	0.10000991821289062
44	212.73155808448792	fix_pre	0		120	42.0	2.5	/experiments/knapen_AOT/AOT_stimuli/rescaled_final/0906_rv.mp4	0.0	243.00977396965027	1.0002009868621826
44	212.9151451587677	pulse	0	t		42.0	2.5	/experiments/knapen_AOT/AOT_stimuli/rescaled_final/0906_rv.mp4	0.0	243.19336104393005	
44	213.7317590713501	movie	1		247	42.0	2.5	/experiments/knapen_AOT/AOT_stimuli/rescaled_final/0906_rv.mp4	0.0	244.00997495651245	2.500312089920044
44	214.51529002189636	pulse	1	t		42.0	2.5	/experiments/knapen_AOT/AOT_stimuli/rescaled_final/0906_rv.mp4	0.0	244.79350590705872	
44	216.11584210395813	pulse	1	t		42.0	2.5	/experiments/knapen_AOT/AOT_stimuli/rescaled_final/0906_rv.mp4	0.0	246.39405798912048	
44	216.23207116127014	fix_post	2		12	42.0	2.5	/experiments/knapen_AOT/AOT_stimuli/rescaled_final/0906_rv.mp4	0.0	246.5102870464325	0.10001897811889648
45	216.33209013938904	fix_pre	0		119	43.0	2.5	/experiments/knapen_AOT/AOT_stimuli/rescaled_final/2017_fw.mp4	0.0	246.6103060245514	0.9918110370635986
45	217.32390117645264	movie	1		244	43.0	2.5	/experiments/knapen_AOT/AOT_stimuli/rescaled_final/2017_fw.mp4	0.0	247.602117061615	2.5003609657287598
45	217.7160370349884	pulse	1	t		43.0	2.5	/experiments/knapen_AOT/AOT_stimuli/rescaled_final/2017_fw.mp4	0.0	247.99425292015076	
45	219.31612706184387	pulse	1	t		43.0	2.5	/experiments/knapen_AOT/AOT_stimuli/rescaled_final/2017_fw.mp4	0.0	249.59434294700623	
45	219.8242621421814	fix_post	2		12	43.0	2.5	/experiments/knapen_AOT/AOT_stimuli/rescaled_final/2017_fw.mp4	0.0	250.10247802734375	0.10003495216369629
46	219.9242970943451	fix_pre	0		120	44.0	2.5	/experiments/knapen_AOT/AOT_stimuli/rescaled_final/1655_rv.mp4	0.0	250.20251297950745	1.0001580715179443
46	220.90878915786743	pulse	0	t		44.0	2.5	/experiments/knapen_AOT/AOT_stimuli/rescaled_final/1655_rv.mp4	0.0	251.18700504302979	
46	220.92445516586304	movie	1		245	44.0	2.5	/experiments/knapen_AOT/AOT_stimuli/rescaled_final/1655_rv.mp4	0.0	251.2026710510254	2.508725881576538
46	222.51704597473145	pulse	1	t		44.0	2.5	/experiments/knapen_AOT/AOT_stimuli/rescaled_final/1655_rv.mp4	0.0	252.7952618598938	
46	223.43318104743958	fix_post	2		12	44.0	2.5	/experiments/knapen_AOT/AOT_stimuli/rescaled_final/1655_rv.mp4	0.0	253.71139693260193	0.09998393058776855
47	223.53316497802734	fix_pre	0		120	45.0	2.5	/experiments/knapen_AOT/AOT_stimuli/rescaled_final/2057_rv.mp4	0.0	253.8113808631897	1.0001680850982666
47	224.10855507850647	pulse	0	t		45.0	2.5	/experiments/knapen_AOT/AOT_stimuli/rescaled_final/2057_rv.mp4	0.0	254.38677096366882	
47	224.5333330631256	movie	1		243	45.0	2.5	/experiments/knapen_AOT/AOT_stimuli/rescaled_final/2057_rv.mp4	0.0	254.81154894828796	2.5003790855407715
47	225.70921802520752	pulse	1	t		45.0	2.5	/experiments/knapen_AOT/AOT_stimuli/rescaled_final/2057_rv.mp4	0.0	255.98743391036987	
47	227.03371214866638	fix_post	2		12	45.0	2.5	/experiments/knapen_AOT/AOT_stimuli/rescaled_final/2057_rv.mp4	0.0	257.31192803382874	0.1000368595123291
48	227.1337490081787	fix_pre	0		120	46.0	2.5	/experiments/knapen_AOT/AOT_stimuli/rescaled_final/1035_fw.mp4	0.0	257.41196489334106	1.0001349449157715
48	227.3088619709015	pulse	0	t		46.0	2.5	/experiments/knapen_AOT/AOT_stimuli/rescaled_final/1035_fw.mp4	0.0	257.58707785606384	
48	228.13388395309448	movie	1		243	46.0	2.5	/experiments/knapen_AOT/AOT_stimuli/rescaled_final/1035_fw.mp4	0.0	258.41209983825684	2.4919960498809814
48	228.90915417671204	pulse	1	t		46.0	2.5	/experiments/knapen_AOT/AOT_stimuli/rescaled_final/1035_fw.mp4	0.0	259.1873700618744	
48	230.50937509536743	pulse	1	t		46.0	2.5	/experiments/knapen_AOT/AOT_stimuli/rescaled_final/1035_fw.mp4	0.0	260.7875909805298	
48	230.62588000297546	fix_post	2		12	46.0	2.5	/experiments/knapen_AOT/AOT_stimuli/rescaled_final/1035_fw.mp4	0.0	260.9040958881378	0.10010409355163574
49	230.7259840965271	fix_pre	0		120	47.0	2.5	/experiments/knapen_AOT/AOT_stimuli/rescaled_final/1576_rv.mp4	0.0	261.00419998168945	1.0000979900360107
49	231.7260820865631	movie	1		245	47.0	2.5	/experiments/knapen_AOT/AOT_stimuli/rescaled_final/1576_rv.mp4	0.0	262.00429797172546	2.500356912612915
49	232.11024117469788	pulse	1	t		47.0	2.5	/experiments/knapen_AOT/AOT_stimuli/rescaled_final/1576_rv.mp4	0.0	262.38845705986023	
49	233.7100110054016	pulse	1	t		47.0	2.5	/experiments/knapen_AOT/AOT_stimuli/rescaled_final/1576_rv.mp4	0.0	263.98822689056396	
49	234.22643899917603	fix_post	2		12	47.0	2.5	/experiments/knapen_AOT/AOT_stimuli/rescaled_final/1576_rv.mp4	0.0	264.5046548843384	0.1000821590423584
50	234.32652115821838	fix_pre	0		119	48.0	2.5	blank	1.0	264.60473704338074	0.9917309284210205
50	235.31014895439148	pulse	0	t		48.0	2.5	blank	1.0	265.58836483955383	
50	235.3182520866394	movie	1		301	48.0	2.5	blank	1.0	265.59646797180176	2.5087380409240723
50	236.91029596328735	pulse	1	t		48.0	2.5	blank	1.0	267.1885118484497	
50	237.82699012756348	fix_post	2		12	48.0	2.5	blank	1.0	268.10520601272583	0.09998703002929688
51	237.92697715759277	fix_pre	0		120	49.0	2.5	/experiments/knapen_AOT/AOT_stimuli/rescaled_final/0537_rv.mp4	0.0	268.2051930427551	1.0001959800720215
51	238.5105540752411	pulse	0	t		49.0	2.5	/experiments/knapen_AOT/AOT_stimuli/rescaled_final/0537_rv.mp4	0.0	268.78876996040344	
51	238.9271731376648	movie	1		244	49.0	2.5	/experiments/knapen_AOT/AOT_stimuli/rescaled_final/0537_rv.mp4	0.0	269.20538902282715	2.500370979309082
51	240.11094117164612	pulse	1	t		49.0	2.5	/experiments/knapen_AOT/AOT_stimuli/rescaled_final/0537_rv.mp4	0.0	270.3891570568085	
51	241.42754411697388	fix_post	2		12	49.0	2.5	/experiments/knapen_AOT/AOT_stimuli/rescaled_final/0537_rv.mp4	0.0	271.70576000213623	0.09999299049377441
52	241.52753710746765	fix_pre	0		120	50.0	2.5	/experiments/knapen_AOT/AOT_stimuli/rescaled_final/2153_fw.mp4	0.0	271.80575299263	1.0001070499420166
52	241.7111210823059	pulse	0	t		50.0	2.5	/experiments/knapen_AOT/AOT_stimuli/rescaled_final/2153_fw.mp4	0.0	271.98933696746826	
52	242.52764415740967	movie	1		244	50.0	2.5	/experiments/knapen_AOT/AOT_stimuli/rescaled_final/2153_fw.mp4	0.0	272.805860042572	2.500379800796509
52	243.31130504608154	pulse	1	t		50.0	2.5	/experiments/knapen_AOT/AOT_stimuli/rescaled_final/2153_fw.mp4	0.0	273.5895209312439	
52	244.91160917282104	pulse	1	t		50.0	2.5	/experiments/knapen_AOT/AOT_stimuli/rescaled_final/2153_fw.mp4	0.0	275.1898250579834	
52	245.02802395820618	fix_post	2		12	50.0	2.5	/experiments/knapen_AOT/AOT_stimuli/rescaled_final/2153_fw.mp4	0.0	275.30623984336853	0.10003113746643066
53	245.1280550956726	fix_pre	0		120	51.0	2.5	/experiments/knapen_AOT/AOT_stimuli/rescaled_final/0681_fw.mp4	0.0	275.40627098083496	1.0001499652862549
53	246.12820506095886	movie	1		243	51.0	2.5	/experiments/knapen_AOT/AOT_stimuli/rescaled_final/0681_fw.mp4	0.0	276.4064209461212	2.4920310974121094
53	246.51301097869873	pulse	1	t		51.0	2.5	/experiments/knapen_AOT/AOT_stimuli/rescaled_final/0681_fw.mp4	0.0	276.7912268638611	
53	248.1120879650116	pulse	1	t		51.0	2.5	/experiments/knapen_AOT/AOT_stimuli/rescaled_final/0681_fw.mp4	0.0	278.39030385017395	
53	248.62023615837097	fix_post	2		12	51.0	2.5	/experiments/knapen_AOT/AOT_stimuli/rescaled_final/0681_fw.mp4	0.0	278.8984520435333	0.10003781318664551
54	248.72027397155762	fix_pre	0		120	52.0	2.5	/experiments/knapen_AOT/AOT_stimuli/rescaled_final/0790_fw.mp4	0.0	278.99848985671997	1.0001611709594727
54	249.71229600906372	pulse	0	t		52.0	2.5	/experiments/knapen_AOT/AOT_stimuli/rescaled_final/0790_fw.mp4	0.0	279.9905118942261	
54	249.7204351425171	movie	1		245	52.0	2.5	/experiments/knapen_AOT/AOT_stimuli/rescaled_final/0790_fw.mp4	0.0	279.99865102767944	2.5086758136749268
54	251.31290197372437	pulse	1	t		52.0	2.5	/experiments/knapen_AOT/AOT_stimuli/rescaled_final/0790_fw.mp4	0.0	281.5911178588867	
54	252.22911095619202	fix_post	2		12	52.0	2.5	/experiments/knapen_AOT/AOT_stimuli/rescaled_final/0790_fw.mp4	0.0	282.50732684135437	0.1000661849975586
55	252.32917714118958	fix_pre	0		117	53.0	2.5	/experiments/knapen_AOT/AOT_stimuli/rescaled_final/1198_fw.mp4	0.0	282.60739302635193	1.0002238750457764
55	252.91280007362366	pulse	0	t		53.0	2.5	/experiments/knapen_AOT/AOT_stimuli/rescaled_final/1198_fw.mp4	0.0	283.191015958786	
55	253.32940101623535	movie	1		243	53.0	2.5	/experiments/knapen_AOT/AOT_stimuli/rescaled_final/1198_fw.mp4	0.0	283.6076169013977	2.5002601146698
55	254.51307201385498	pulse	1	t		53.0	2.5	/experiments/knapen_AOT/AOT_stimuli/rescaled_final/1198_fw.mp4	0.0	284.79128789901733	
55	255.82966113090515	fix_post	2		12	53.0	2.5	/experiments/knapen_AOT/AOT_stimuli/rescaled_final/1198_fw.mp4	0.0	286.1078770160675	0.10003185272216797
56	255.92969298362732	fix_pre	0		120	54.0	2.5	/experiments/knapen_AOT/AOT_stimuli/rescaled_final/0987_fw.mp4	0.0	286.2079088687897	1.0001351833343506
56	256.11324095726013	pulse	0	t		54.0	2.5	/experiments/knapen_AOT/AOT_stimuli/rescaled_final/0987_fw.mp4	0.0	286.3914568424225	
56	256.92982816696167	movie	1		244	54.0	2.5	/experiments/knapen_AOT/AOT_stimuli/rescaled_final/0987_fw.mp4	0.0	287.208044052124	2.500370979309082
56	257.7135601043701	pulse	1	t		54.0	2.5	/experiments/knapen_AOT/AOT_stimuli/rescaled_final/0987_fw.mp4	0.0	287.99177598953247	
56	259.31371903419495	pulse	1	t		54.0	2.5	/experiments/knapen_AOT/AOT_stimuli/rescaled_final/0987_fw.mp4	0.0	289.5919349193573	
56	259.43019914627075	fix_post	2		12	54.0	2.5	/experiments/knapen_AOT/AOT_stimuli/rescaled_final/0987_fw.mp4	0.0	289.7084150314331	0.10007190704345703
57	259.5302710533142	fix_pre	0		120	55.0	2.5	/experiments/knapen_AOT/AOT_stimuli/rescaled_final/0906_rv.mp4	0.0	289.80848693847656	1.0001659393310547
57	260.53043699264526	movie	1		245	55.0	2.5	/experiments/knapen_AOT/AOT_stimuli/rescaled_final/0906_rv.mp4	0.0	290.8086528778076	2.4920029640197754
57	260.91524600982666	pulse	1	t		55.0	2.5	/experiments/knapen_AOT/AOT_stimuli/rescaled_final/0906_rv.mp4	0.0	291.193461894989	
57	262.51417303085327	pulse	1	t		55.0	2.5	/experiments/knapen_AOT/AOT_stimuli/rescaled_final/0906_rv.mp4	0.0	292.7923889160156	
57	263.02243995666504	fix_post	2		12	55.0	2.5	/experiments/knapen_AOT/AOT_stimuli/rescaled_final/0906_rv.mp4	0.0	293.3006558418274	0.10007500648498535
58	263.12251496315	fix_pre	0		120	56.0	2.5	blank	1.0	293.4007308483124	1.0000410079956055
58	264.1144449710846	pulse	0	t		56.0	2.5	blank	1.0	294.39266085624695	
58	264.12255597114563	movie	1		301	56.0	2.5	blank	1.0	294.400771856308	2.5086891651153564
58	265.7147409915924	pulse	1	t		56.0	2.5	blank	1.0	295.99295687675476	
58	266.631245136261	fix_post	2		12	56.0	2.5	blank	1.0	296.90946102142334	0.1000359058380127
59	266.731281042099	fix_pre	0		120	57.0	2.5	/experiments/knapen_AOT/AOT_stimuli/rescaled_final/2071_rv.mp4	0.0	297.00949692726135	1.0002069473266602
59	267.3149230480194	pulse	0	t		57.0	2.5	/experiments/knapen_AOT/AOT_stimuli/rescaled_final/2071_rv.mp4	0.0	297.59313893318176	
59	267.73148798942566	movie	1		244	57.0	2.5	/experiments/knapen_AOT/AOT_stimuli/rescaled_final/2071_rv.mp4	0.0	298.009703874588	2.5003180503845215
59	268.9152810573578	pulse	1	t		57.0	2.5	/experiments/knapen_AOT/AOT_stimuli/rescaled_final/2071_rv.mp4	0.0	299.19349694252014	
59	270.2318060398102	fix_post	2		12	57.0	2.5	/experiments/knapen_AOT/AOT_stimuli/rescaled_final/2071_rv.mp4	0.0	300.51002192497253	0.1000220775604248
60	270.3318281173706	fix_pre	0		120	58.0	2.5	/experiments/knapen_AOT/AOT_stimuli/rescaled_final/0151_fw.mp4	0.0	300.61004400253296	1.0001330375671387
60	270.51532912254333	pulse	0	t		58.0	2.5	/experiments/knapen_AOT/AOT_stimuli/rescaled_final/0151_fw.mp4	0.0	300.7935450077057	
60	271.33196115493774	movie	1		243	58.0	2.5	/experiments/knapen_AOT/AOT_stimuli/rescaled_final/0151_fw.mp4	0.0	301.6101770401001	2.500394821166992
60	272.11572313308716	pulse	1	t		58.0	2.5	/experiments/knapen_AOT/AOT_stimuli/rescaled_final/0151_fw.mp4	0.0	302.3939390182495	
60	273.715763092041	pulse	1	t		58.0	2.5	/experiments/knapen_AOT/AOT_stimuli/rescaled_final/0151_fw.mp4	0.0	303.99397897720337	
60	273.83235597610474	fix_post	2		12	58.0	2.5	/experiments/knapen_AOT/AOT_stimuli/rescaled_final/0151_fw.mp4	0.0	304.1105718612671	0.09999418258666992
61	273.9323501586914	fix_pre	0		120	59.0	2.5	/experiments/knapen_AOT/AOT_stimuli/rescaled_final/1567_fw.mp4	0.0	304.21056604385376	1.0002398490905762
61	274.932590007782	movie	1		243	59.0	2.5	/experiments/knapen_AOT/AOT_stimuli/rescaled_final/1567_fw.mp4	0.0	305.21080589294434	2.492030143737793
61	275.31731510162354	pulse	1	t		59.0	2.5	/experiments/knapen_AOT/AOT_stimuli/rescaled_final/1567_fw.mp4	0.0	305.5955309867859	
61	276.91644406318665	pulse	1	t		59.0	2.5	/experiments/knapen_AOT/AOT_stimuli/rescaled_final/1567_fw.mp4	0.0	307.194659948349	
61	277.4246201515198	fix_post	2		12	59.0	2.5	/experiments/knapen_AOT/AOT_stimuli/rescaled_final/1567_fw.mp4	0.0	307.70283603668213	0.09995484352111816
62	277.5245749950409	fix_pre	0		120	60.0	2.5	/experiments/knapen_AOT/AOT_stimuli/rescaled_final/0268_fw.mp4	0.0	307.80279088020325	1.000108003616333
62	278.5091600418091	pulse	0	t		60.0	2.5	/experiments/knapen_AOT/AOT_stimuli/rescaled_final/0268_fw.mp4	0.0	308.78737592697144	
62	278.5246829986572	movie	1		245	60.0	2.5	/experiments/knapen_AOT/AOT_stimuli/rescaled_final/0268_fw.mp4	0.0	308.8028988838196	2.508740186691284
62	280.11725211143494	pulse	1	t		60.0	2.5	/experiments/knapen_AOT/AOT_stimuli/rescaled_final/0268_fw.mp4	0.0	310.3954679965973	
62	281.0334231853485	fix_post	2		12	60.0	2.5	/experiments/knapen_AOT/AOT_stimuli/rescaled_final/0268_fw.mp4	0.0	311.31163907051086	0.10002684593200684
63	281.1334500312805	fix_pre	0		120	61.0	2.5	blank	1.0	311.41166591644287	1.0001389980316162
63	281.7095730304718	pulse	0	t		61.0	2.5	blank	1.0	311.98778891563416	
63	282.13358902931213	movie	1		300	61.0	2.5	blank	1.0	312.4118049144745	2.5003600120544434
63	283.30988216400146	pulse	1	t		61.0	2.5	blank	1.0	313.5880980491638	
63	284.6339490413666	fix_post	2		12	61.0	2.5	blank	1.0	314.91216492652893	0.10002613067626953
64	284.73397517204285	fix_pre	0		120	62.0	2.5	/experiments/knapen_AOT/AOT_stimuli/rescaled_final/0118_rv.mp4	0.0	315.0121910572052	1.0001449584960938
64	284.9099500179291	pulse	0	t		62.0	2.5	/experiments/knapen_AOT/AOT_stimuli/rescaled_final/0118_rv.mp4	0.0	315.18816590309143	
64	285.73412013053894	movie	1		243	62.0	2.5	/experiments/knapen_AOT/AOT_stimuli/rescaled_final/0118_rv.mp4	0.0	316.0123360157013	2.500393867492676
64	286.50939416885376	pulse	1	t		62.0	2.5	/experiments/knapen_AOT/AOT_stimuli/rescaled_final/0118_rv.mp4	0.0	316.7876100540161	
64	288.10959911346436	pulse	1	t		62.0	2.5	/experiments/knapen_AOT/AOT_stimuli/rescaled_final/0118_rv.mp4	0.0	318.3878149986267	
64	288.2345139980316	fix_post	2		12	62.0	2.5	/experiments/knapen_AOT/AOT_stimuli/rescaled_final/0118_rv.mp4	0.0	318.51272988319397	0.10004901885986328
65	288.3345630168915	fix_pre	0		120	63.0	2.5	/experiments/knapen_AOT/AOT_stimuli/rescaled_final/1402_rv.mp4	0.0	318.61277890205383	1.0001659393310547
65	289.33472895622253	movie	1		242	63.0	2.5	/experiments/knapen_AOT/AOT_stimuli/rescaled_final/1402_rv.mp4	0.0	319.6129448413849	2.4920032024383545
65	289.7099139690399	pulse	1	t		63.0	2.5	/experiments/knapen_AOT/AOT_stimuli/rescaled_final/1402_rv.mp4	0.0	319.98812985420227	
65	291.31026911735535	pulse	1	t		63.0	2.5	/experiments/knapen_AOT/AOT_stimuli/rescaled_final/1402_rv.mp4	0.0	321.5884850025177	
65	291.8267321586609	fix_post	2		12	63.0	2.5	/experiments/knapen_AOT/AOT_stimuli/rescaled_final/1402_rv.mp4	0.0	322.10494804382324	0.10007095336914062
66	291.92680311203003	fix_pre	0		119	64.0	2.5	/experiments/knapen_AOT/AOT_stimuli/rescaled_final/2097_fw.mp4	0.0	322.2050189971924	0.9917399883270264
66	292.9103510379791	pulse	0	t		64.0	2.5	/experiments/knapen_AOT/AOT_stimuli/rescaled_final/2097_fw.mp4	0.0	323.1885669231415	
66	292.91854310035706	movie	1		244	64.0	2.5	/experiments/knapen_AOT/AOT_stimuli/rescaled_final/2097_fw.mp4	0.0	323.1967589855194	2.5086960792541504
66	294.5111219882965	pulse	1	t		64.0	2.5	/experiments/knapen_AOT/AOT_stimuli/rescaled_final/2097_fw.mp4	0.0	324.78933787345886	
66	295.4272391796112	fix_post	2		12	64.0	2.5	/experiments/knapen_AOT/AOT_stimuli/rescaled_final/2097_fw.mp4	0.0	325.70545506477356	0.09999680519104004
67	295.52723598480225	fix_pre	0		120	65.0	2.5	/experiments/knapen_AOT/AOT_stimuli/rescaled_final/0194_rv.mp4	0.0	325.8054518699646	1.0001771450042725
67	296.11086916923523	pulse	0	t		65.0	2.5	/experiments/knapen_AOT/AOT_stimuli/rescaled_final/0194_rv.mp4	0.0	326.3890850543976	
67	296.5274131298065	movie	1		248	65.0	2.5	/experiments/knapen_AOT/AOT_stimuli/rescaled_final/0194_rv.mp4	0.0	326.8056290149689	2.5003819465637207
67	297.7111999988556	pulse	1	t		65.0	2.5	/experiments/knapen_AOT/AOT_stimuli/rescaled_final/0194_rv.mp4	0.0	327.98941588401794	
67	299.02779507637024	fix_post	2		12	65.0	2.5	/experiments/knapen_AOT/AOT_stimuli/rescaled_final/0194_rv.mp4	0.0	329.3060109615326	0.10011601448059082
68	299.12791109085083	fix_pre	0		120	66.0	2.5	/experiments/knapen_AOT/AOT_stimuli/rescaled_final/2072_fw.mp4	0.0	329.4061269760132	1.000067949295044
68	299.31126618385315	pulse	0	t		66.0	2.5	/experiments/knapen_AOT/AOT_stimuli/rescaled_final/2072_fw.mp4	0.0	329.5894820690155	
68	300.1279790401459	movie	1		245	66.0	2.5	/experiments/knapen_AOT/AOT_stimuli/rescaled_final/2072_fw.mp4	0.0	330.4061949253082	2.5003340244293213
68	300.9116711616516	pulse	1	t		66.0	2.5	/experiments/knapen_AOT/AOT_stimuli/rescaled_final/2072_fw.mp4	0.0	331.18988704681396	
68	302.51180696487427	pulse	1	t		66.0	2.5	/experiments/knapen_AOT/AOT_stimuli/rescaled_final/2072_fw.mp4	0.0	332.7900228500366	
68	302.6283130645752	fix_post	2		12	66.0	2.5	/experiments/knapen_AOT/AOT_stimuli/rescaled_final/2072_fw.mp4	0.0	332.90652894973755	0.10007810592651367
69	302.7283911705017	fix_pre	0		120	67.0	2.5	/experiments/knapen_AOT/AOT_stimuli/rescaled_final/0547_rv.mp4	0.0	333.00660705566406	1.000133991241455
69	303.72852516174316	movie	1		244	67.0	2.5	/experiments/knapen_AOT/AOT_stimuli/rescaled_final/0547_rv.mp4	0.0	334.0067410469055	2.4919848442077637
69	304.1128261089325	pulse	1	t		67.0	2.5	/experiments/knapen_AOT/AOT_stimuli/rescaled_final/0547_rv.mp4	0.0	334.39104199409485	
69	305.7122690677643	pulse	1	t		67.0	2.5	/experiments/knapen_AOT/AOT_stimuli/rescaled_final/0547_rv.mp4	0.0	335.99048495292664	
69	306.2205100059509	fix_post	2		12	67.0	2.5	/experiments/knapen_AOT/AOT_stimuli/rescaled_final/0547_rv.mp4	0.0	336.4987258911133	0.10004997253417969
70	306.3205599784851	fix_pre	0		120	68.0	2.5	/experiments/knapen_AOT/AOT_stimuli/rescaled_final/0225_rv.mp4	0.0	336.59877586364746	1.0001530647277832
70	307.312625169754	pulse	0	t		68.0	2.5	/experiments/knapen_AOT/AOT_stimuli/rescaled_final/0225_rv.mp4	0.0	337.5908410549164	
70	307.3207130432129	movie	1		244	68.0	2.5	/experiments/knapen_AOT/AOT_stimuli/rescaled_final/0225_rv.mp4	0.0	337.59892892837524	2.5086629390716553
70	308.913192987442	pulse	1	t		68.0	2.5	/experiments/knapen_AOT/AOT_stimuli/rescaled_final/0225_rv.mp4	0.0	339.19140887260437	
70	309.82937598228455	fix_post	2		12	68.0	2.5	/experiments/knapen_AOT/AOT_stimuli/rescaled_final/0225_rv.mp4	0.0	340.1075918674469	0.10002017021179199
71	309.92939615249634	fix_pre	0		120	69.0	2.5	blank	1.0	340.2076120376587	1.000147819519043
71	310.5131390094757	pulse	0	t		69.0	2.5	blank	1.0	340.79135489463806	
71	310.9295439720154	movie	1		300	69.0	2.5	blank	1.0	341.20775985717773	2.5003809928894043
71	312.1132380962372	pulse	1	t		69.0	2.5	blank	1.0	342.39145398139954	
71	313.4299249649048	fix_post	2		12	69.0	2.5	blank	1.0	343.70814085006714	0.1000680923461914
72	313.529993057251	fix_pre	0		120	70.0	2.5	/experiments/knapen_AOT/AOT_stimuli/rescaled_final/1077_fw.mp4	0.0	343.80820894241333	1.0001459121704102
72	313.7135281562805	pulse	0	t		70.0	2.5	/experiments/knapen_AOT/AOT_stimuli/rescaled_final/1077_fw.mp4	0.0	343.99174404144287	
72	314.5301389694214	movie	1		240	70.0	2.5	/experiments/knapen_AOT/AOT_stimuli/rescaled_final/1077_fw.mp4	0.0	344.80835485458374	2.5004830360412598
72	315.31382513046265	pulse	1	t		70.0	2.5	/experiments/knapen_AOT/AOT_stimuli/rescaled_final/1077_fw.mp4	0.0	345.592041015625	
72	316.9137201309204	pulse	1	t		70.0	2.5	/experiments/knapen_AOT/AOT_stimuli/rescaled_final/1077_fw.mp4	0.0	347.19193601608276	
72	317.03062200546265	fix_post	2		12	70.0	2.5	/experiments/knapen_AOT/AOT_stimuli/rescaled_final/1077_fw.mp4	0.0	347.308837890625	0.09983706474304199
73	317.1304590702057	fix_pre	0		120	71.0	2.5	/experiments/knapen_AOT/AOT_stimuli/rescaled_final/1614_rv.mp4	0.0	347.40867495536804	1.0001749992370605
73	318.13063406944275	movie	1		244	71.0	2.5	/experiments/knapen_AOT/AOT_stimuli/rescaled_final/1614_rv.mp4	0.0	348.4088499546051	2.49200701713562
73	318.5148401260376	pulse	1	t		71.0	2.5	/experiments/knapen_AOT/AOT_stimuli/rescaled_final/1614_rv.mp4	0.0	348.79305601119995	
73	320.11443305015564	pulse	1	t		71.0	2.5	/experiments/knapen_AOT/AOT_stimuli/rescaled_final/1614_rv.mp4	0.0	350.392648935318	
73	320.62264108657837	fix_post	2		12	71.0	2.5	/experiments/knapen_AOT/AOT_stimuli/rescaled_final/1614_rv.mp4	0.0	350.9008569717407	0.10001087188720703
74	320.7226519584656	fix_pre	0		120	72.0	2.5	/experiments/knapen_AOT/AOT_stimuli/rescaled_final/0602_rv.mp4	0.0	351.00086784362793	1.000241994857788
74	321.7147159576416	pulse	0	t		72.0	2.5	/experiments/knapen_AOT/AOT_stimuli/rescaled_final/0602_rv.mp4	0.0	351.99293184280396	
74	321.72289395332336	movie	1		245	72.0	2.5	/experiments/knapen_AOT/AOT_stimuli/rescaled_final/0602_rv.mp4	0.0	352.0011098384857	2.5086450576782227
74	323.3153431415558	pulse	1	t		72.0	2.5	/experiments/knapen_AOT/AOT_stimuli/rescaled_final/0602_rv.mp4	0.0	353.59355902671814	
74	324.2315390110016	fix_post	2		12	72.0	2.5	/experiments/knapen_AOT/AOT_stimuli/rescaled_final/0602_rv.mp4	0.0	354.50975489616394	0.09998202323913574
75	324.3315210342407	fix_pre	0		120	73.0	2.5	/experiments/knapen_AOT/AOT_stimuli/rescaled_final/0399_rv.mp4	0.0	354.6097369194031	1.000244140625
75	324.91527009010315	pulse	0	t		73.0	2.5	/experiments/knapen_AOT/AOT_stimuli/rescaled_final/0399_rv.mp4	0.0	355.1934859752655	
75	325.3317651748657	movie	1		245	73.0	2.5	/experiments/knapen_AOT/AOT_stimuli/rescaled_final/0399_rv.mp4	0.0	355.6099810600281	2.5003058910369873
75	326.5154650211334	pulse	1	t		73.0	2.5	/experiments/knapen_AOT/AOT_stimuli/rescaled_final/0399_rv.mp4	0.0	356.7936809062958	
75	327.8320710659027	fix_post	2		12	73.0	2.5	/experiments/knapen_AOT/AOT_stimuli/rescaled_final/0399_rv.mp4	0.0	358.11028695106506	0.10005998611450195
76	327.9321310520172	fix_pre	0		120	74.0	2.5	/experiments/knapen_AOT/AOT_stimuli/rescaled_final/0914_rv.mp4	0.0	358.21034693717957	1.0001769065856934
76	328.11562514305115	pulse	0	t		74.0	2.5	/experiments/knapen_AOT/AOT_stimuli/rescaled_final/0914_rv.mp4	0.0	358.3938410282135	
76	328.9323079586029	movie	1		246	74.0	2.5	/experiments/knapen_AOT/AOT_stimuli/rescaled_final/0914_rv.mp4	0.0	359.21052384376526	2.500319004058838
76	329.7161440849304	pulse	1	t		74.0	2.5	/experiments/knapen_AOT/AOT_stimuli/rescaled_final/0914_rv.mp4	0.0	359.9943599700928	
76	331.3162190914154	pulse	1	t		74.0	2.5	/experiments/knapen_AOT/AOT_stimuli/rescaled_final/0914_rv.mp4	0.0	361.59443497657776	
76	331.43262696266174	fix_post	2		12	74.0	2.5	/experiments/knapen_AOT/AOT_stimuli/rescaled_final/0914_rv.mp4	0.0	361.7108428478241	0.10006213188171387
77	331.53268909454346	fix_pre	0		120	75.0	2.5	/experiments/knapen_AOT/AOT_stimuli/rescaled_final/0838_rv.mp4	0.0	361.8109049797058	1.0000720024108887
77	332.53276109695435	movie	1		243	75.0	2.5	/experiments/knapen_AOT/AOT_stimuli/rescaled_final/0838_rv.mp4	0.0	362.8109769821167	2.492043972015381
77	332.91704201698303	pulse	1	t		75.0	2.5	/experiments/knapen_AOT/AOT_stimuli/rescaled_final/0838_rv.mp4	0.0	363.1952579021454	
77	334.50926899909973	pulse	1	t		75.0	2.5	/experiments/knapen_AOT/AOT_stimuli/rescaled_final/0838_rv.mp4	0.0	364.7874848842621	
77	335.0248050689697	fix_post	2		12	75.0	2.5	/experiments/knapen_AOT/AOT_stimuli/rescaled_final/0838_rv.mp4	0.0	365.3030209541321	0.10000205039978027
78	335.1248071193695	fix_pre	0		120	76.0	2.5	blank	1.0	365.40302300453186	1.0001778602600098
78	336.1094081401825	pulse	0	t		76.0	2.5	blank	1.0	366.38762402534485	
78	336.1249849796295	movie	1		301	76.0	2.5	blank	1.0	366.40320086479187	2.5087051391601562
78	337.7094750404358	pulse	1	t		76.0	2.5	blank	1.0	367.98769092559814	
78	338.6336901187897	fix_post	2		12	76.0	2.5	blank	1.0	368.911906003952	0.10003805160522461
79	338.7337281703949	fix_pre	0		120	77.0	2.5	/experiments/knapen_AOT/AOT_stimuli/rescaled_final/2160_rv.mp4	0.0	369.01194405555725	1.0000989437103271
79	339.3089909553528	pulse	0	t		77.0	2.5	/experiments/knapen_AOT/AOT_stimuli/rescaled_final/2160_rv.mp4	0.0	369.58720684051514	
79	339.7338271141052	movie	1		245	77.0	2.5	/experiments/knapen_AOT/AOT_stimuli/rescaled_final/2160_rv.mp4	0.0	370.0120429992676	2.5003600120544434
79	340.91076612472534	pulse	1	t		77.0	2.5	/experiments/knapen_AOT/AOT_stimuli/rescaled_final/2160_rv.mp4	0.0	371.1889820098877	
79	342.23418712615967	fix_post	2		12	77.0	2.5	/experiments/knapen_AOT/AOT_stimuli/rescaled_final/2160_rv.mp4	0.0	372.512403011322	0.1000218391418457
80	342.3342089653015	fix_pre	0		120	78.0	2.5	/experiments/knapen_AOT/AOT_stimuli/rescaled_final/1953_rv.mp4	0.0	372.61242485046387	1.0001640319824219
80	342.5094630718231	pulse	0	t		78.0	2.5	/experiments/knapen_AOT/AOT_stimuli/rescaled_final/1953_rv.mp4	0.0	372.7876789569855	
80	343.33437299728394	movie	1		243	78.0	2.5	/experiments/knapen_AOT/AOT_stimuli/rescaled_final/1953_rv.mp4	0.0	373.6125888824463	2.5003809928894043
80	344.1097309589386	pulse	1	t		78.0	2.5	/experiments/knapen_AOT/AOT_stimuli/rescaled_final/1953_rv.mp4	0.0	374.38794684410095	
80	345.7098970413208	pulse	1	t		78.0	2.5	/experiments/knapen_AOT/AOT_stimuli/rescaled_final/1953_rv.mp4	0.0	375.98811292648315	
80	345.83475399017334	fix_post	2		12	78.0	2.5	/experiments/knapen_AOT/AOT_stimuli/rescaled_final/1953_rv.mp4	0.0	376.1129698753357	0.10008907318115234
81	345.9348430633545	fix_pre	0		119	79.0	2.5	/experiments/knapen_AOT/AOT_stimuli/rescaled_final/0746_rv.mp4	0.0	376.21305894851685	0.9917769432067871
81	346.9266200065613	movie	1		244	79.0	2.5	/experiments/knapen_AOT/AOT_stimuli/rescaled_final/0746_rv.mp4	0.0	377.20483589172363	2.5003199577331543
81	347.314572095871	pulse	1	t		79.0	2.5	/experiments/knapen_AOT/AOT_stimuli/rescaled_final/0746_rv.mp4	0.0	377.5927879810333	
81	348.91036200523376	pulse	1	t		79.0	2.5	/experiments/knapen_AOT/AOT_stimuli/rescaled_final/0746_rv.mp4	0.0	379.1885778903961	
81	349.42693996429443	fix_post	2		12	79.0	2.5	/experiments/knapen_AOT/AOT_stimuli/rescaled_final/0746_rv.mp4	0.0	379.7051558494568	0.10003805160522461
82	349.52697801589966	fix_pre	0		119	80.0	2.5	/experiments/knapen_AOT/AOT_stimuli/rescaled_final/0746_fw.mp4	0.0	379.805193901062	0.9918479919433594
82	350.510617017746	pulse	0	t		80.0	2.5	/experiments/knapen_AOT/AOT_stimuli/rescaled_final/0746_fw.mp4	0.0	380.7888329029083	
82	350.518826007843	movie	1		246	80.0	2.5	/experiments/knapen_AOT/AOT_stimuli/rescaled_final/0746_fw.mp4	0.0	380.79704189300537	2.508690118789673
82	352.11570596694946	pulse	1	t		80.0	2.5	/experiments/knapen_AOT/AOT_stimuli/rescaled_final/0746_fw.mp4	0.0	382.3939218521118	
82	353.0275161266327	fix_post	2		12	80.0	2.5	/experiments/knapen_AOT/AOT_stimuli/rescaled_final/0746_fw.mp4	0.0	383.30573201179504	0.10002994537353516
83	353.1275460720062	fix_pre	0		120	81.0	2.5	/experiments/knapen_AOT/AOT_stimuli/rescaled_final/2070_fw.mp4	0.0	383.4057619571686	1.0001449584960938
83	353.7110891342163	pulse	0	t		81.0	2.5	/experiments/knapen_AOT/AOT_stimuli/rescaled_final/2070_fw.mp4	0.0	383.98930501937866	
83	354.1276910305023	movie	1		245	81.0	2.5	/experiments/knapen_AOT/AOT_stimuli/rescaled_final/2070_fw.mp4	0.0	384.4059069156647	2.5003321170806885
83	355.31143712997437	pulse	1	t		81.0	2.5	/experiments/knapen_AOT/AOT_stimuli/rescaled_final/2070_fw.mp4	0.0	385.5896530151367	
83	356.628023147583	fix_post	2		12	81.0	2.5	/experiments/knapen_AOT/AOT_stimuli/rescaled_final/2070_fw.mp4	0.0	386.90623903274536	0.10002899169921875
84	356.7280521392822	fix_pre	0		120	82.0	2.5	blank	1.0	387.0062680244446	1.0001070499420166
84	356.9117350578308	pulse	0	t		82.0	2.5	blank	1.0	387.18995094299316	
84	357.72815918922424	movie	1		300	82.0	2.5	blank	1.0	388.0063750743866	2.5004239082336426
84	358.5118670463562	pulse	1	t		82.0	2.5	blank	1.0	388.79008293151855	
84	360.11209201812744	pulse	1	t		82.0	2.5	blank	1.0	390.3903079032898	
84	360.2285830974579	fix_post	2		12	82.0	2.5	blank	1.0	390.50679898262024	0.09999489784240723
85	360.3285779953003	fix_pre	0		120	83.0	2.5	/experiments/knapen_AOT/AOT_stimuli/rescaled_final/1391_fw.mp4	0.0	390.60679388046265	1.0001370906829834
85	361.3287150859833	movie	1		243	83.0	2.5	/experiments/knapen_AOT/AOT_stimuli/rescaled_final/1391_fw.mp4	0.0	391.60693097114563	2.492069959640503
85	361.7127540111542	pulse	1	t		83.0	2.5	/experiments/knapen_AOT/AOT_stimuli/rescaled_final/1391_fw.mp4	0.0	391.9909698963165	
85	363.3126931190491	pulse	1	t		83.0	2.5	/experiments/knapen_AOT/AOT_stimuli/rescaled_final/1391_fw.mp4	0.0	393.5909090042114	
85	363.8207850456238	fix_post	2		12	83.0	2.5	/experiments/knapen_AOT/AOT_stimuli/rescaled_final/1391_fw.mp4	0.0	394.09900093078613	0.10002994537353516
87	363.9208149909973	stim	0		1716					394.19903087615967	14.302136182785034
87	364.9129421710968	pulse	0	t						395.19115805625916	
87	366.5130319595337	pulse	0	t						396.79124784469604	
87	368.1132299900055	pulse	0	t						398.39144587516785	
87	369.7135920524597	pulse	0	t						399.99180793762207	
87	371.31380915641785	pulse	0	t						401.5920250415802	
87	372.91397500038147	pulse	0	t						403.1921908855438	
87	374.51414704322815	pulse	0	t						404.7923629283905	
87	376.11445212364197	pulse	0	t						406.3926680088043	
87	377.7147550582886	pulse	0	t						407.9929709434509	
