trial_nr	onset	event_type	phase	response	nr_frames	movie_index	movie_duration	movie_file	blank	onset_abs	duration
0	0.14995789527893066	stim	0		36					19.302109956741333	0.29996514320373535
0	0.43482303619384766	response	0	space						19.58697509765625	
1	0.449923038482666	stim	0		4646					19.60207509994507	38.716392993927
1	39.16267108917236	pulse	0	t						58.314823150634766	
1	39.16631603240967	stim	1		1717					58.31846809387207	14.308284997940063
1	40.758272886276245	pulse	1	t						59.91042494773865	
1	42.358208894729614	pulse	1	t						61.51036095619202	
1	43.958208084106445	pulse	1	t						63.11036014556885	
1	45.55830907821655	pulse	1	t						64.71046113967896	
1	47.15820598602295	pulse	1	t						66.31035804748535	
1	48.75816893577576	pulse	1	t						67.91032099723816	
1	50.358211040496826	pulse	1	t						69.51036310195923	
1	51.95816993713379	pulse	1	t						71.11032199859619	
2	53.47460103034973	fix_pre	0		11	0.0	2.5	/experiments/AOT/AOT_stimuli/rescaled_final/1976_fw.mp4	0.0	72.62675309181213	0.09171605110168457
2	53.55812692642212	pulse	0	t		0.0	2.5	/experiments/AOT/AOT_stimuli/rescaled_final/1976_fw.mp4	0.0	72.71027898788452	
2	53.566317081451416	movie	1		243	0.0	2.5	/experiments/AOT/AOT_stimuli/rescaled_final/1976_fw.mp4	0.0	72.71846914291382	2.5083768367767334
2	55.15764808654785	pulse	1	t		0.0	2.5	/experiments/AOT/AOT_stimuli/rescaled_final/1976_fw.mp4	0.0	74.30980014801025	
2	56.07469391822815	fix_post	2		12	0.0	2.5	/experiments/AOT/AOT_stimuli/rescaled_final/1976_fw.mp4	0.0	75.22684597969055	0.09997701644897461
3	56.174670934677124	fix_pre	0		120	1.0	2.5	/experiments/AOT/AOT_stimuli/rescaled_final/0707_rv.mp4	0.0	75.32682299613953	1.0000290870666504
3	56.758177042007446	pulse	0	t		1.0	2.5	/experiments/AOT/AOT_stimuli/rescaled_final/0707_rv.mp4	0.0	75.91032910346985	
3	57.174700021743774	movie	1		243	1.0	2.5	/experiments/AOT/AOT_stimuli/rescaled_final/0707_rv.mp4	0.0	76.32685208320618	2.499898910522461
3	58.35818004608154	pulse	1	t		1.0	2.5	/experiments/AOT/AOT_stimuli/rescaled_final/0707_rv.mp4	0.0	77.51033210754395	
3	59.674598932266235	fix_post	2		12	1.0	2.5	/experiments/AOT/AOT_stimuli/rescaled_final/0707_rv.mp4	0.0	78.82675099372864	0.10002708435058594
4	59.77462601661682	fix_pre	0		120	2.0	2.5	/experiments/AOT/AOT_stimuli/rescaled_final/1465_fw.mp4	0.0	78.92677807807922	0.9999699592590332
4	59.95802593231201	pulse	0	t		2.0	2.5	/experiments/AOT/AOT_stimuli/rescaled_final/1465_fw.mp4	0.0	79.11017799377441	
4	60.774595975875854	movie	1		244	2.0	2.5	/experiments/AOT/AOT_stimuli/rescaled_final/1465_fw.mp4	0.0	79.92674803733826	2.4999959468841553
4	61.55815100669861	pulse	1	t		2.0	2.5	/experiments/AOT/AOT_stimuli/rescaled_final/1465_fw.mp4	0.0	80.71030306816101	
4	63.15682291984558	pulse	1	t		2.0	2.5	/experiments/AOT/AOT_stimuli/rescaled_final/1465_fw.mp4	0.0	82.30897498130798	
4	63.27459192276001	fix_post	2		12	2.0	2.5	/experiments/AOT/AOT_stimuli/rescaled_final/1465_fw.mp4	0.0	82.42674398422241	0.10008096694946289
5	63.37467288970947	fix_pre	0		120	3.0	2.5	/experiments/AOT/AOT_stimuli/rescaled_final/0329_fw.mp4	0.0	82.52682495117188	1.0000171661376953
5	64.37469005584717	movie	1		244	3.0	2.5	/experiments/AOT/AOT_stimuli/rescaled_final/0329_fw.mp4	0.0	83.52684211730957	2.499985933303833
5	64.75746989250183	pulse	1	t		3.0	2.5	/experiments/AOT/AOT_stimuli/rescaled_final/0329_fw.mp4	0.0	83.90962195396423	
5	66.35768699645996	pulse	1	t		3.0	2.5	/experiments/AOT/AOT_stimuli/rescaled_final/0329_fw.mp4	0.0	85.50983905792236	
5	66.874675989151	fix_post	2		12	3.0	2.5	/experiments/AOT/AOT_stimuli/rescaled_final/0329_fw.mp4	0.0	86.0268280506134	0.10001492500305176
6	66.97469091415405	fix_pre	0		119	4.0	2.5	/experiments/AOT/AOT_stimuli/rescaled_final/0322_fw.mp4	0.0	86.12684297561646	0.9918570518493652
6	67.9583489894867	pulse	0	t		4.0	2.5	/experiments/AOT/AOT_stimuli/rescaled_final/0322_fw.mp4	0.0	87.1105010509491	
6	67.96654796600342	movie	1		247	4.0	2.5	/experiments/AOT/AOT_stimuli/rescaled_final/0322_fw.mp4	0.0	87.11870002746582	2.508057117462158
6	69.55820894241333	pulse	1	t		4.0	2.5	/experiments/AOT/AOT_stimuli/rescaled_final/0322_fw.mp4	0.0	88.71036100387573	
6	70.47460508346558	fix_post	2		12	4.0	2.5	/experiments/AOT/AOT_stimuli/rescaled_final/0322_fw.mp4	0.0	89.62675714492798	0.10009193420410156
7	70.57469701766968	fix_pre	0		120	5.0	2.5	/experiments/AOT/AOT_stimuli/rescaled_final/0162_rv.mp4	0.0	89.72684907913208	0.9999439716339111
7	71.15813899040222	pulse	0	t		5.0	2.5	/experiments/AOT/AOT_stimuli/rescaled_final/0162_rv.mp4	0.0	90.31029105186462	
7	71.57464098930359	movie	1		245	5.0	2.5	/experiments/AOT/AOT_stimuli/rescaled_final/0162_rv.mp4	0.0	90.72679305076599	2.4998879432678223
7	72.75811100006104	pulse	1	t		5.0	2.5	/experiments/AOT/AOT_stimuli/rescaled_final/0162_rv.mp4	0.0	91.91026306152344	
7	74.07452893257141	fix_post	2		12	5.0	2.5	/experiments/AOT/AOT_stimuli/rescaled_final/0162_rv.mp4	0.0	93.22668099403381	0.1000211238861084
8	74.17455005645752	fix_pre	0		120	6.0	2.5	/experiments/AOT/AOT_stimuli/rescaled_final/1103_rv.mp4	0.0	93.32670211791992	1.0000019073486328
8	74.35802698135376	pulse	0	t		6.0	2.5	/experiments/AOT/AOT_stimuli/rescaled_final/1103_rv.mp4	0.0	93.51017904281616	
8	75.17455196380615	movie	1		243	6.0	2.5	/experiments/AOT/AOT_stimuli/rescaled_final/1103_rv.mp4	0.0	94.32670402526855	2.5000851154327393
8	75.9579439163208	pulse	1	t		6.0	2.5	/experiments/AOT/AOT_stimuli/rescaled_final/1103_rv.mp4	0.0	95.1100959777832	
8	77.55649709701538	pulse	1	t		6.0	2.5	/experiments/AOT/AOT_stimuli/rescaled_final/1103_rv.mp4	0.0	96.70864915847778	
8	77.67463707923889	fix_post	2		12	6.0	2.5	/experiments/AOT/AOT_stimuli/rescaled_final/1103_rv.mp4	0.0	96.8267891407013	0.0999138355255127
9	77.7745509147644	fix_pre	0		120	7.0	2.5	blank	1.0	96.9267029762268	0.9999680519104004
9	78.7745189666748	movie	1		300	7.0	2.5	blank	1.0	97.9266710281372	2.499980926513672
9	79.15806603431702	pulse	1	t		7.0	2.5	blank	1.0	98.31021809577942	
9	80.75798106193542	pulse	1	t		7.0	2.5	blank	1.0	99.91013312339783	
9	81.27449989318848	fix_post	2		12	7.0	2.5	blank	1.0	100.42665195465088	0.09959006309509277
10	81.37408995628357	fix_pre	0		119	8.0	2.5	/experiments/AOT/AOT_stimuli/rescaled_final/0142_rv.mp4	0.0	100.52624201774597	0.9921309947967529
10	82.35804009437561	pulse	0	t		8.0	2.5	/experiments/AOT/AOT_stimuli/rescaled_final/0142_rv.mp4	0.0	101.51019215583801	
10	82.36622095108032	movie	1		245	8.0	2.5	/experiments/AOT/AOT_stimuli/rescaled_final/0142_rv.mp4	0.0	101.51837301254272	2.507866144180298
10	83.95825695991516	pulse	1	t		8.0	2.5	/experiments/AOT/AOT_stimuli/rescaled_final/0142_rv.mp4	0.0	103.11040902137756	
10	84.87408709526062	fix_post	2		12	8.0	2.5	/experiments/AOT/AOT_stimuli/rescaled_final/0142_rv.mp4	0.0	104.02623915672302	0.10043501853942871
11	84.97452211380005	fix_pre	0		120	9.0	2.5	/experiments/AOT/AOT_stimuli/rescaled_final/1320_fw.mp4	0.0	104.12667417526245	1.0000009536743164
11	85.55800104141235	pulse	0	t		9.0	2.5	/experiments/AOT/AOT_stimuli/rescaled_final/1320_fw.mp4	0.0	104.71015310287476	
11	85.97452306747437	movie	1		245	9.0	2.5	/experiments/AOT/AOT_stimuli/rescaled_final/1320_fw.mp4	0.0	105.12667512893677	2.499933958053589
11	87.15807509422302	pulse	1	t		9.0	2.5	/experiments/AOT/AOT_stimuli/rescaled_final/1320_fw.mp4	0.0	106.31022715568542	
11	88.47445702552795	fix_post	2		12	9.0	2.5	/experiments/AOT/AOT_stimuli/rescaled_final/1320_fw.mp4	0.0	107.62660908699036	0.09998393058776855
12	88.57444095611572	fix_pre	0		120	10.0	2.5	/experiments/AOT/AOT_stimuli/rescaled_final/0498_rv.mp4	0.0	107.72659301757812	1.0000340938568115
12	88.7580099105835	pulse	0	t		10.0	2.5	/experiments/AOT/AOT_stimuli/rescaled_final/0498_rv.mp4	0.0	107.9101619720459	
12	89.57447504997253	movie	1		243	10.0	2.5	/experiments/AOT/AOT_stimuli/rescaled_final/0498_rv.mp4	0.0	108.72662711143494	2.499553918838501
12	90.35798597335815	pulse	1	t		10.0	2.5	/experiments/AOT/AOT_stimuli/rescaled_final/0498_rv.mp4	0.0	109.51013803482056	
12	91.95638298988342	pulse	1	t		10.0	2.5	/experiments/AOT/AOT_stimuli/rescaled_final/0498_rv.mp4	0.0	111.10853505134583	
12	92.07402896881104	fix_post	2		12	10.0	2.5	/experiments/AOT/AOT_stimuli/rescaled_final/0498_rv.mp4	0.0	111.22618103027344	0.10051393508911133
13	92.17454290390015	fix_pre	0		120	11.0	2.5	/experiments/AOT/AOT_stimuli/rescaled_final/1090_rv.mp4	0.0	111.32669496536255	0.9999120235443115
13	93.17445492744446	movie	1		244	11.0	2.5	/experiments/AOT/AOT_stimuli/rescaled_final/1090_rv.mp4	0.0	112.32660698890686	2.499575138092041
13	93.55775690078735	pulse	1	t		11.0	2.5	/experiments/AOT/AOT_stimuli/rescaled_final/1090_rv.mp4	0.0	112.70990896224976	
13	95.15787291526794	pulse	1	t		11.0	2.5	/experiments/AOT/AOT_stimuli/rescaled_final/1090_rv.mp4	0.0	114.31002497673035	
13	95.6740300655365	fix_post	2		12	11.0	2.5	/experiments/AOT/AOT_stimuli/rescaled_final/1090_rv.mp4	0.0	114.8261821269989	0.10046100616455078
14	95.77449107170105	fix_pre	0		119	12.0	2.5	/experiments/AOT/AOT_stimuli/rescaled_final/1941_fw.mp4	0.0	114.92664313316345	0.9916088581085205
14	96.75792098045349	pulse	0	t		12.0	2.5	/experiments/AOT/AOT_stimuli/rescaled_final/1941_fw.mp4	0.0	115.9100730419159	
14	96.76609992980957	movie	1		244	12.0	2.5	/experiments/AOT/AOT_stimuli/rescaled_final/1941_fw.mp4	0.0	115.91825199127197	2.5083060264587402
14	98.35784602165222	pulse	1	t		12.0	2.5	/experiments/AOT/AOT_stimuli/rescaled_final/1941_fw.mp4	0.0	117.50999808311462	
14	99.27440595626831	fix_post	2		12	12.0	2.5	/experiments/AOT/AOT_stimuli/rescaled_final/1941_fw.mp4	0.0	118.42655801773071	0.1001119613647461
15	99.37451791763306	fix_pre	0		120	13.0	2.5	/experiments/AOT/AOT_stimuli/rescaled_final/0162_rv.mp4	0.0	118.52666997909546	0.9999799728393555
15	99.95798397064209	pulse	0	t		13.0	2.5	/experiments/AOT/AOT_stimuli/rescaled_final/0162_rv.mp4	0.0	119.11013603210449	
15	100.37449789047241	movie	1		245	13.0	2.5	/experiments/AOT/AOT_stimuli/rescaled_final/0162_rv.mp4	0.0	119.52664995193481	2.499922037124634
15	101.55794906616211	pulse	1	t		13.0	2.5	/experiments/AOT/AOT_stimuli/rescaled_final/0162_rv.mp4	0.0	120.71010112762451	
15	102.87441992759705	fix_post	2		12	13.0	2.5	/experiments/AOT/AOT_stimuli/rescaled_final/0162_rv.mp4	0.0	122.02657198905945	0.10004115104675293
16	102.9744610786438	fix_pre	0		120	14.0	2.5	blank	1.0	122.1266131401062	1.0000278949737549
16	103.15796709060669	pulse	0	t		14.0	2.5	blank	1.0	122.31011915206909	
16	103.97448897361755	movie	1		300	14.0	2.5	blank	1.0	123.12664103507996	2.499911069869995
16	104.75789403915405	pulse	1	t		14.0	2.5	blank	1.0	123.91004610061646	
16	106.35788202285767	pulse	1	t		14.0	2.5	blank	1.0	125.51003408432007	
16	106.47440004348755	fix_post	2		12	14.0	2.5	blank	1.0	125.62655210494995	0.10001492500305176
17	106.5744149684906	fix_pre	0		120	15.0	2.5	/experiments/AOT/AOT_stimuli/rescaled_final/0331_fw.mp4	0.0	125.726567029953	1.0000710487365723
17	107.57448601722717	movie	1		245	15.0	2.5	/experiments/AOT/AOT_stimuli/rescaled_final/0331_fw.mp4	0.0	126.72663807868958	2.4998838901519775
17	107.95730590820312	pulse	1	t		15.0	2.5	/experiments/AOT/AOT_stimuli/rescaled_final/0331_fw.mp4	0.0	127.10945796966553	
17	109.55779004096985	pulse	1	t		15.0	2.5	/experiments/AOT/AOT_stimuli/rescaled_final/0331_fw.mp4	0.0	128.70994210243225	
17	110.07436990737915	fix_post	2		12	15.0	2.5	/experiments/AOT/AOT_stimuli/rescaled_final/0331_fw.mp4	0.0	129.22652196884155	0.10006499290466309
18	110.17443490028381	fix_pre	0		119	16.0	2.5	/experiments/AOT/AOT_stimuli/rescaled_final/1996_fw.mp4	0.0	129.32658696174622	0.9916350841522217
18	111.15782403945923	pulse	0	t		16.0	2.5	/experiments/AOT/AOT_stimuli/rescaled_final/1996_fw.mp4	0.0	130.30997610092163	
18	111.16606998443604	movie	1		243	16.0	2.5	/experiments/AOT/AOT_stimuli/rescaled_final/1996_fw.mp4	0.0	130.31822204589844	2.5082530975341797
18	112.7573709487915	pulse	1	t		16.0	2.5	/experiments/AOT/AOT_stimuli/rescaled_final/1996_fw.mp4	0.0	131.9095230102539	
18	113.67432308197021	fix_post	2		12	16.0	2.5	/experiments/AOT/AOT_stimuli/rescaled_final/1996_fw.mp4	0.0	132.82647514343262	0.10007500648498535
19	113.7743980884552	fix_pre	0		120	17.0	2.5	/experiments/AOT/AOT_stimuli/rescaled_final/0146_fw.mp4	0.0	132.9265501499176	1.0000410079956055
19	114.35790705680847	pulse	0	t		17.0	2.5	/experiments/AOT/AOT_stimuli/rescaled_final/0146_fw.mp4	0.0	133.51005911827087	
19	114.7744390964508	movie	1		245	17.0	2.5	/experiments/AOT/AOT_stimuli/rescaled_final/0146_fw.mp4	0.0	133.9265911579132	2.499882936477661
19	115.95802688598633	pulse	1	t		17.0	2.5	/experiments/AOT/AOT_stimuli/rescaled_final/0146_fw.mp4	0.0	135.11017894744873	
19	117.27432203292847	fix_post	2		12	17.0	2.5	/experiments/AOT/AOT_stimuli/rescaled_final/0146_fw.mp4	0.0	136.42647409439087	0.10010099411010742
20	117.37442302703857	fix_pre	0		120	18.0	2.5	/experiments/AOT/AOT_stimuli/rescaled_final/1320_rv.mp4	0.0	136.52657508850098	0.9999940395355225
20	117.55781507492065	pulse	0	t		18.0	2.5	/experiments/AOT/AOT_stimuli/rescaled_final/1320_rv.mp4	0.0	136.70996713638306	
20	118.3744170665741	movie	1		244	18.0	2.5	/experiments/AOT/AOT_stimuli/rescaled_final/1320_rv.mp4	0.0	137.5265691280365	2.4999618530273438
20	119.15795588493347	pulse	1	t		18.0	2.5	/experiments/AOT/AOT_stimuli/rescaled_final/1320_rv.mp4	0.0	138.31010794639587	
20	120.75652599334717	pulse	1	t		18.0	2.5	/experiments/AOT/AOT_stimuli/rescaled_final/1320_rv.mp4	0.0	139.90867805480957	
20	120.87437891960144	fix_post	2		12	18.0	2.5	/experiments/AOT/AOT_stimuli/rescaled_final/1320_rv.mp4	0.0	140.02653098106384	0.09999704360961914
21	120.97437596321106	fix_pre	0		120	19.0	2.5	/experiments/AOT/AOT_stimuli/rescaled_final/1402_rv.mp4	0.0	140.12652802467346	1.0
21	121.97437596321106	movie	1		243	19.0	2.5	/experiments/AOT/AOT_stimuli/rescaled_final/1402_rv.mp4	0.0	141.12652802467346	2.499907970428467
21	122.35737895965576	pulse	1	t		19.0	2.5	/experiments/AOT/AOT_stimuli/rescaled_final/1402_rv.mp4	0.0	141.50953102111816	
21	123.95773196220398	pulse	1	t		19.0	2.5	/experiments/AOT/AOT_stimuli/rescaled_final/1402_rv.mp4	0.0	143.10988402366638	
21	124.47428393363953	fix_post	2		12	19.0	2.5	/experiments/AOT/AOT_stimuli/rescaled_final/1402_rv.mp4	0.0	143.62643599510193	0.10000395774841309
22	124.57428789138794	fix_pre	0		119	20.0	2.5	/experiments/AOT/AOT_stimuli/rescaled_final/0574_fw.mp4	0.0	143.72643995285034	0.99173903465271
22	125.55796504020691	pulse	0	t		20.0	2.5	/experiments/AOT/AOT_stimuli/rescaled_final/0574_fw.mp4	0.0	144.7101171016693	
22	125.56602692604065	movie	1		247	20.0	2.5	/experiments/AOT/AOT_stimuli/rescaled_final/0574_fw.mp4	0.0	144.71817898750305	2.5083250999450684
22	127.15745902061462	pulse	1	t		20.0	2.5	/experiments/AOT/AOT_stimuli/rescaled_final/0574_fw.mp4	0.0	146.30961108207703	
22	128.07435202598572	fix_post	2		12	20.0	2.5	/experiments/AOT/AOT_stimuli/rescaled_final/0574_fw.mp4	0.0	147.22650408744812	0.09997797012329102
23	128.174329996109	fix_pre	0		120	21.0	2.5	blank	1.0	147.3264820575714	1.0000290870666504
23	128.7590630054474	pulse	0	t		21.0	2.5	blank	1.0	147.9112150669098	
23	129.17435908317566	movie	1		300	21.0	2.5	blank	1.0	148.32651114463806	2.499955892562866
23	130.3578290939331	pulse	1	t		21.0	2.5	blank	1.0	149.5099811553955	
23	131.67431497573853	fix_post	2		12	21.0	2.5	blank	1.0	150.82646703720093	0.09991693496704102
24	131.77423191070557	fix_pre	0		120	22.0	2.5	/experiments/AOT/AOT_stimuli/rescaled_final/0835_rv.mp4	0.0	150.92638397216797	0.9999620914459229
24	131.9577579498291	pulse	0	t		22.0	2.5	/experiments/AOT/AOT_stimuli/rescaled_final/0835_rv.mp4	0.0	151.1099100112915	
24	132.7741940021515	movie	1		246	22.0	2.5	/experiments/AOT/AOT_stimuli/rescaled_final/0835_rv.mp4	0.0	151.9263460636139	2.500087022781372
24	133.55781292915344	pulse	1	t		22.0	2.5	/experiments/AOT/AOT_stimuli/rescaled_final/0835_rv.mp4	0.0	152.70996499061584	
24	135.1562008857727	pulse	1	t		22.0	2.5	/experiments/AOT/AOT_stimuli/rescaled_final/0835_rv.mp4	0.0	154.3083529472351	
24	135.27428102493286	fix_post	2		12	22.0	2.5	/experiments/AOT/AOT_stimuli/rescaled_final/0835_rv.mp4	0.0	154.42643308639526	0.10001587867736816
25	135.37429690361023	fix_pre	0		120	23.0	2.5	/experiments/AOT/AOT_stimuli/rescaled_final/0131_rv.mp4	0.0	154.52644896507263	0.9999151229858398
25	136.37421202659607	movie	1		245	23.0	2.5	/experiments/AOT/AOT_stimuli/rescaled_final/0131_rv.mp4	0.0	155.52636408805847	2.5000290870666504
25	136.7579801082611	pulse	1	t		23.0	2.5	/experiments/AOT/AOT_stimuli/rescaled_final/0131_rv.mp4	0.0	155.9101321697235	
25	138.35783100128174	pulse	1	t		23.0	2.5	/experiments/AOT/AOT_stimuli/rescaled_final/0131_rv.mp4	0.0	157.50998306274414	
25	138.87424111366272	fix_post	2		12	23.0	2.5	/experiments/AOT/AOT_stimuli/rescaled_final/0131_rv.mp4	0.0	158.02639317512512	0.09999799728393555
26	138.97423911094666	fix_pre	0		119	24.0	2.5	/experiments/AOT/AOT_stimuli/rescaled_final/1409_fw.mp4	0.0	158.12639117240906	0.9916799068450928
26	139.9576768875122	pulse	0	t		24.0	2.5	/experiments/AOT/AOT_stimuli/rescaled_final/1409_fw.mp4	0.0	159.1098289489746	
26	139.96591901779175	movie	1		246	24.0	2.5	/experiments/AOT/AOT_stimuli/rescaled_final/1409_fw.mp4	0.0	159.11807107925415	2.508293867111206
26	141.5576629638672	pulse	1	t		24.0	2.5	/experiments/AOT/AOT_stimuli/rescaled_final/1409_fw.mp4	0.0	160.7098150253296	
26	142.47421288490295	fix_post	2		12	24.0	2.5	/experiments/AOT/AOT_stimuli/rescaled_final/1409_fw.mp4	0.0	161.62636494636536	0.10000300407409668
27	142.57421588897705	fix_pre	0		120	25.0	2.5	/experiments/AOT/AOT_stimuli/rescaled_final/0498_fw.mp4	0.0	161.72636795043945	1.0000791549682617
27	143.1577010154724	pulse	0	t		25.0	2.5	/experiments/AOT/AOT_stimuli/rescaled_final/0498_fw.mp4	0.0	162.30985307693481	
27	143.5742950439453	movie	1		246	25.0	2.5	/experiments/AOT/AOT_stimuli/rescaled_final/0498_fw.mp4	0.0	162.72644710540771	2.4999468326568604
27	144.75765991210938	pulse	1	t		25.0	2.5	/experiments/AOT/AOT_stimuli/rescaled_final/0498_fw.mp4	0.0	163.90981197357178	
27	146.07424187660217	fix_post	2		12	25.0	2.5	/experiments/AOT/AOT_stimuli/rescaled_final/0498_fw.mp4	0.0	165.22639393806458	0.10005807876586914
28	146.17429995536804	fix_pre	0		120	26.0	2.5	blank	1.0	165.32645201683044	0.9999439716339111
28	146.3576900959015	pulse	0	t		26.0	2.5	blank	1.0	165.5098421573639	
28	147.17424392700195	movie	1		300	26.0	2.5	blank	1.0	166.32639598846436	2.500033140182495
28	147.9576621055603	pulse	1	t		26.0	2.5	blank	1.0	167.1098141670227	
28	149.55767393112183	pulse	1	t		26.0	2.5	blank	1.0	168.70982599258423	
28	149.67427706718445	fix_post	2		12	26.0	2.5	blank	1.0	168.82642912864685	0.0998678207397461
29	149.7741448879242	fix_pre	0		120	27.0	2.5	/experiments/AOT/AOT_stimuli/rescaled_final/1081_fw.mp4	0.0	168.9262969493866	1.0001940727233887
29	150.77433896064758	movie	1		247	27.0	2.5	/experiments/AOT/AOT_stimuli/rescaled_final/1081_fw.mp4	0.0	169.92649102210999	2.4994449615478516
29	151.1586558818817	pulse	1	t		27.0	2.5	/experiments/AOT/AOT_stimuli/rescaled_final/1081_fw.mp4	0.0	170.31080794334412	
29	152.75764989852905	pulse	1	t		27.0	2.5	/experiments/AOT/AOT_stimuli/rescaled_final/1081_fw.mp4	0.0	171.90980195999146	
29	153.27378392219543	fix_post	2		12	27.0	2.5	/experiments/AOT/AOT_stimuli/rescaled_final/1081_fw.mp4	0.0	172.42593598365784	0.10052108764648438
30	153.37430500984192	fix_pre	0		119	28.0	2.5	/experiments/AOT/AOT_stimuli/rescaled_final/0926_rv.mp4	0.0	172.52645707130432	0.9915509223937988
30	154.3576900959015	pulse	0	t		28.0	2.5	/experiments/AOT/AOT_stimuli/rescaled_final/0926_rv.mp4	0.0	173.5098421573639	
30	154.36585593223572	movie	1		248	28.0	2.5	/experiments/AOT/AOT_stimuli/rescaled_final/0926_rv.mp4	0.0	173.51800799369812	2.5083320140838623
30	155.9571669101715	pulse	1	t		28.0	2.5	/experiments/AOT/AOT_stimuli/rescaled_final/0926_rv.mp4	0.0	175.1093189716339	
30	156.87418794631958	fix_post	2		12	28.0	2.5	/experiments/AOT/AOT_stimuli/rescaled_final/0926_rv.mp4	0.0	176.02634000778198	0.09990811347961426
31	156.9740960597992	fix_pre	0		120	29.0	2.5	/experiments/AOT/AOT_stimuli/rescaled_final/0657_fw.mp4	0.0	176.1262481212616	1.0001249313354492
31	157.55771589279175	pulse	0	t		29.0	2.5	/experiments/AOT/AOT_stimuli/rescaled_final/0657_fw.mp4	0.0	176.70986795425415	
31	157.97422099113464	movie	1		244	29.0	2.5	/experiments/AOT/AOT_stimuli/rescaled_final/0657_fw.mp4	0.0	177.12637305259705	2.499933958053589
31	159.1577479839325	pulse	1	t		29.0	2.5	/experiments/AOT/AOT_stimuli/rescaled_final/0657_fw.mp4	0.0	178.3099000453949	
31	160.47415494918823	fix_post	2		12	29.0	2.5	/experiments/AOT/AOT_stimuli/rescaled_final/0657_fw.mp4	0.0	179.62630701065063	0.10003805160522461
32	160.57419300079346	fix_pre	0		120	30.0	2.5	/experiments/AOT/AOT_stimuli/rescaled_final/0725_fw.mp4	0.0	179.72634506225586	0.9999980926513672
32	160.7576630115509	pulse	0	t		30.0	2.5	/experiments/AOT/AOT_stimuli/rescaled_final/0725_fw.mp4	0.0	179.9098150730133	
32	161.57419109344482	movie	1		245	30.0	2.5	/experiments/AOT/AOT_stimuli/rescaled_final/0725_fw.mp4	0.0	180.72634315490723	2.499940872192383
32	162.35759091377258	pulse	1	t		30.0	2.5	/experiments/AOT/AOT_stimuli/rescaled_final/0725_fw.mp4	0.0	181.50974297523499	
32	163.95370388031006	pulse	1	t		30.0	2.5	/experiments/AOT/AOT_stimuli/rescaled_final/0725_fw.mp4	0.0	183.10585594177246	
32	164.0741319656372	fix_post	2		12	30.0	2.5	/experiments/AOT/AOT_stimuli/rescaled_final/0725_fw.mp4	0.0	183.2262840270996	0.0999910831451416
33	164.17412304878235	fix_pre	0		120	31.0	2.5	/experiments/AOT/AOT_stimuli/rescaled_final/0329_rv.mp4	0.0	183.32627511024475	0.9999730587005615
33	165.1740961074829	movie	1		242	31.0	2.5	/experiments/AOT/AOT_stimuli/rescaled_final/0329_rv.mp4	0.0	184.3262481689453	2.4995968341827393
33	165.55730199813843	pulse	1	t		31.0	2.5	/experiments/AOT/AOT_stimuli/rescaled_final/0329_rv.mp4	0.0	184.70945405960083	
33	167.15764808654785	pulse	1	t		31.0	2.5	/experiments/AOT/AOT_stimuli/rescaled_final/0329_rv.mp4	0.0	186.30980014801025	
33	167.67369294166565	fix_post	2		12	31.0	2.5	/experiments/AOT/AOT_stimuli/rescaled_final/0329_rv.mp4	0.0	186.82584500312805	0.10040712356567383
34	167.77410006523132	fix_pre	0		119	32.0	2.5	/experiments/AOT/AOT_stimuli/rescaled_final/1741_rv.mp4	0.0	186.92625212669373	0.9917378425598145
34	168.75765800476074	pulse	0	t		32.0	2.5	/experiments/AOT/AOT_stimuli/rescaled_final/1741_rv.mp4	0.0	187.90981006622314	
34	168.76583790779114	movie	1		244	32.0	2.5	/experiments/AOT/AOT_stimuli/rescaled_final/1741_rv.mp4	0.0	187.91798996925354	2.507805109024048
34	170.3575620651245	pulse	1	t		32.0	2.5	/experiments/AOT/AOT_stimuli/rescaled_final/1741_rv.mp4	0.0	189.5097141265869	
34	171.27364301681519	fix_post	2		12	32.0	2.5	/experiments/AOT/AOT_stimuli/rescaled_final/1741_rv.mp4	0.0	190.4257950782776	0.10047602653503418
35	171.37411904335022	fix_pre	0		120	33.0	2.5	/experiments/AOT/AOT_stimuli/rescaled_final/1774_rv.mp4	0.0	190.52627110481262	0.999953031539917
35	171.95762395858765	pulse	0	t		33.0	2.5	/experiments/AOT/AOT_stimuli/rescaled_final/1774_rv.mp4	0.0	191.10977602005005	
35	172.37407207489014	movie	1		244	33.0	2.5	/experiments/AOT/AOT_stimuli/rescaled_final/1774_rv.mp4	0.0	191.52622413635254	2.500077962875366
35	173.5576720237732	pulse	1	t		33.0	2.5	/experiments/AOT/AOT_stimuli/rescaled_final/1774_rv.mp4	0.0	192.7098240852356	
35	174.8741500377655	fix_post	2		12	33.0	2.5	/experiments/AOT/AOT_stimuli/rescaled_final/1774_rv.mp4	0.0	194.0263020992279	0.0999748706817627
36	174.97412490844727	fix_pre	0		120	34.0	2.5	/experiments/AOT/AOT_stimuli/rescaled_final/0502_fw.mp4	0.0	194.12627696990967	1.0000500679016113
36	175.15758395195007	pulse	0	t		34.0	2.5	/experiments/AOT/AOT_stimuli/rescaled_final/0502_fw.mp4	0.0	194.30973601341248	
36	175.97417497634888	movie	1		243	34.0	2.5	/experiments/AOT/AOT_stimuli/rescaled_final/0502_fw.mp4	0.0	195.12632703781128	2.500378131866455
36	176.75712490081787	pulse	1	t		34.0	2.5	/experiments/AOT/AOT_stimuli/rescaled_final/0502_fw.mp4	0.0	195.90927696228027	
36	178.3565480709076	pulse	1	t		34.0	2.5	/experiments/AOT/AOT_stimuli/rescaled_final/0502_fw.mp4	0.0	197.50870013237	
36	178.47455310821533	fix_post	2		12	34.0	2.5	/experiments/AOT/AOT_stimuli/rescaled_final/0502_fw.mp4	0.0	197.62670516967773	0.09916281700134277
37	178.57371592521667	fix_pre	0		120	35.0	2.5	blank	1.0	197.72586798667908	1.0001380443572998
37	179.57385396957397	movie	1		300	35.0	2.5	blank	1.0	198.72600603103638	2.500204086303711
37	179.95745706558228	pulse	1	t		35.0	2.5	blank	1.0	199.10960912704468	
37	181.5575408935547	pulse	1	t		35.0	2.5	blank	1.0	200.7096929550171	
37	182.07405805587769	fix_post	2		12	35.0	2.5	blank	1.0	201.2262101173401	0.1000058650970459
38	182.17406392097473	fix_pre	0		119	36.0	2.5	/experiments/AOT/AOT_stimuli/rescaled_final/0644_fw.mp4	0.0	201.32621598243713	0.9916331768035889
38	183.15763807296753	pulse	0	t		36.0	2.5	/experiments/AOT/AOT_stimuli/rescaled_final/0644_fw.mp4	0.0	202.30979013442993	
38	183.16569709777832	movie	1		245	36.0	2.5	/experiments/AOT/AOT_stimuli/rescaled_final/0644_fw.mp4	0.0	202.31784915924072	2.5082499980926514
38	184.75712704658508	pulse	1	t		36.0	2.5	/experiments/AOT/AOT_stimuli/rescaled_final/0644_fw.mp4	0.0	203.90927910804749	
38	185.67394709587097	fix_post	2		12	36.0	2.5	/experiments/AOT/AOT_stimuli/rescaled_final/0644_fw.mp4	0.0	204.82609915733337	0.1000208854675293
39	185.7739679813385	fix_pre	0		120	37.0	2.5	/experiments/AOT/AOT_stimuli/rescaled_final/1996_fw.mp4	0.0	204.9261200428009	1.0000309944152832
39	186.3574779033661	pulse	0	t		37.0	2.5	/experiments/AOT/AOT_stimuli/rescaled_final/1996_fw.mp4	0.0	205.5096299648285	
39	186.77399897575378	movie	1		243	37.0	2.5	/experiments/AOT/AOT_stimuli/rescaled_final/1996_fw.mp4	0.0	205.9261510372162	2.5000290870666504
39	187.95754504203796	pulse	1	t		37.0	2.5	/experiments/AOT/AOT_stimuli/rescaled_final/1996_fw.mp4	0.0	207.10969710350037	
39	189.27402806282043	fix_post	2		12	37.0	2.5	/experiments/AOT/AOT_stimuli/rescaled_final/1996_fw.mp4	0.0	208.42618012428284	0.09995889663696289
40	189.3739869594574	fix_pre	0		120	38.0	2.5	/experiments/AOT/AOT_stimuli/rescaled_final/0507_fw.mp4	0.0	208.5261390209198	1.00006103515625
40	189.5574390888214	pulse	0	t		38.0	2.5	/experiments/AOT/AOT_stimuli/rescaled_final/0507_fw.mp4	0.0	208.7095911502838	
40	190.37404799461365	movie	1		242	38.0	2.5	/experiments/AOT/AOT_stimuli/rescaled_final/0507_fw.mp4	0.0	209.52620005607605	2.4999399185180664
40	191.15747904777527	pulse	1	t		38.0	2.5	/experiments/AOT/AOT_stimuli/rescaled_final/0507_fw.mp4	0.0	210.30963110923767	
40	192.75598096847534	pulse	1	t		38.0	2.5	/experiments/AOT/AOT_stimuli/rescaled_final/0507_fw.mp4	0.0	211.90813302993774	
40	192.8739879131317	fix_post	2		12	38.0	2.5	/experiments/AOT/AOT_stimuli/rescaled_final/0507_fw.mp4	0.0	212.02613997459412	0.09995603561401367
41	192.97394394874573	fix_pre	0		120	39.0	2.5	/experiments/AOT/AOT_stimuli/rescaled_final/1099_rv.mp4	0.0	212.12609601020813	1.000007152557373
41	193.9739511013031	movie	1		244	39.0	2.5	/experiments/AOT/AOT_stimuli/rescaled_final/1099_rv.mp4	0.0	213.1261031627655	2.5000998973846436
41	194.35731506347656	pulse	1	t		39.0	2.5	/experiments/AOT/AOT_stimuli/rescaled_final/1099_rv.mp4	0.0	213.50946712493896	
41	195.95748710632324	pulse	1	t		39.0	2.5	/experiments/AOT/AOT_stimuli/rescaled_final/1099_rv.mp4	0.0	215.10963916778564	
41	196.47405099868774	fix_post	2		12	39.0	2.5	/experiments/AOT/AOT_stimuli/rescaled_final/1099_rv.mp4	0.0	215.62620306015015	0.09993505477905273
42	196.5739860534668	fix_pre	0		119	40.0	2.5	blank	1.0	215.7261381149292	0.9916419982910156
42	197.5576150417328	pulse	0	t		40.0	2.5	blank	1.0	216.7097671031952	
42	197.5656280517578	movie	1		301	40.0	2.5	blank	1.0	216.71778011322021	2.508368968963623
42	199.15741395950317	pulse	1	t		40.0	2.5	blank	1.0	218.30956602096558	
42	200.07399702072144	fix_post	2		12	40.0	2.5	blank	1.0	219.22614908218384	0.09999299049377441
43	200.1739900112152	fix_pre	0		120	41.0	2.5	/experiments/AOT/AOT_stimuli/rescaled_final/1050_fw.mp4	0.0	219.3261420726776	0.9999709129333496
43	200.75745105743408	pulse	0	t		41.0	2.5	/experiments/AOT/AOT_stimuli/rescaled_final/1050_fw.mp4	0.0	219.90960311889648	
43	201.17396092414856	movie	1		245	41.0	2.5	/experiments/AOT/AOT_stimuli/rescaled_final/1050_fw.mp4	0.0	220.32611298561096	2.4999661445617676
43	202.35751390457153	pulse	1	t		41.0	2.5	/experiments/AOT/AOT_stimuli/rescaled_final/1050_fw.mp4	0.0	221.50966596603394	
43	203.67392706871033	fix_post	2		12	41.0	2.5	/experiments/AOT/AOT_stimuli/rescaled_final/1050_fw.mp4	0.0	222.82607913017273	0.10002994537353516
44	203.77395701408386	fix_pre	0		120	42.0	2.5	/experiments/AOT/AOT_stimuli/rescaled_final/1814_fw.mp4	0.0	222.92610907554626	1.0000510215759277
44	203.95747804641724	pulse	0	t		42.0	2.5	/experiments/AOT/AOT_stimuli/rescaled_final/1814_fw.mp4	0.0	223.10963010787964	
44	204.7740080356598	movie	1		245	42.0	2.5	/experiments/AOT/AOT_stimuli/rescaled_final/1814_fw.mp4	0.0	223.9261600971222	2.499847888946533
44	205.55745100975037	pulse	1	t		42.0	2.5	/experiments/AOT/AOT_stimuli/rescaled_final/1814_fw.mp4	0.0	224.70960307121277	
44	207.1559760570526	pulse	1	t		42.0	2.5	/experiments/AOT/AOT_stimuli/rescaled_final/1814_fw.mp4	0.0	226.30812811851501	
44	207.27385592460632	fix_post	2		12	42.0	2.5	/experiments/AOT/AOT_stimuli/rescaled_final/1814_fw.mp4	0.0	226.42600798606873	0.10006999969482422
45	207.37392592430115	fix_pre	0		120	43.0	2.5	/experiments/AOT/AOT_stimuli/rescaled_final/0728_fw.mp4	0.0	226.52607798576355	0.9999241828918457
45	208.373850107193	movie	1		244	43.0	2.5	/experiments/AOT/AOT_stimuli/rescaled_final/0728_fw.mp4	0.0	227.5260021686554	2.5000147819519043
45	208.757071018219	pulse	1	t		43.0	2.5	/experiments/AOT/AOT_stimuli/rescaled_final/0728_fw.mp4	0.0	227.9092230796814	
45	210.357323884964	pulse	1	t		43.0	2.5	/experiments/AOT/AOT_stimuli/rescaled_final/0728_fw.mp4	0.0	229.5094759464264	
45	210.8738648891449	fix_post	2		12	43.0	2.5	/experiments/AOT/AOT_stimuli/rescaled_final/0728_fw.mp4	0.0	230.0260169506073	0.10010313987731934
46	210.97396802902222	fix_pre	0		119	44.0	2.5	/experiments/AOT/AOT_stimuli/rescaled_final/1133_rv.mp4	0.0	230.12612009048462	0.9916629791259766
46	211.95744109153748	pulse	0	t		44.0	2.5	/experiments/AOT/AOT_stimuli/rescaled_final/1133_rv.mp4	0.0	231.10959315299988	
46	211.9656310081482	movie	1		244	44.0	2.5	/experiments/AOT/AOT_stimuli/rescaled_final/1133_rv.mp4	0.0	231.1177830696106	2.5082778930664062
46	213.55706596374512	pulse	1	t		44.0	2.5	/experiments/AOT/AOT_stimuli/rescaled_final/1133_rv.mp4	0.0	232.70921802520752	
46	214.4739089012146	fix_post	2		12	44.0	2.5	/experiments/AOT/AOT_stimuli/rescaled_final/1133_rv.mp4	0.0	233.626060962677	0.10004305839538574
47	214.57395195960999	fix_pre	0		120	45.0	2.5	/experiments/AOT/AOT_stimuli/rescaled_final/1500_rv.mp4	0.0	233.7261040210724	0.9999790191650391
47	215.15732598304749	pulse	0	t		45.0	2.5	/experiments/AOT/AOT_stimuli/rescaled_final/1500_rv.mp4	0.0	234.3094780445099	
47	215.57393097877502	movie	1		245	45.0	2.5	/experiments/AOT/AOT_stimuli/rescaled_final/1500_rv.mp4	0.0	234.72608304023743	2.5000510215759277
47	216.75747203826904	pulse	1	t		45.0	2.5	/experiments/AOT/AOT_stimuli/rescaled_final/1500_rv.mp4	0.0	235.90962409973145	
47	218.07398200035095	fix_post	2		12	45.0	2.5	/experiments/AOT/AOT_stimuli/rescaled_final/1500_rv.mp4	0.0	237.22613406181335	0.0999140739440918
48	218.17389607429504	fix_pre	0		120	46.0	2.5	/experiments/AOT/AOT_stimuli/rescaled_final/1402_fw.mp4	0.0	237.32604813575745	1.0000648498535156
48	218.35741305351257	pulse	0	t		46.0	2.5	/experiments/AOT/AOT_stimuli/rescaled_final/1402_fw.mp4	0.0	237.50956511497498	
48	219.17396092414856	movie	1		243	46.0	2.5	/experiments/AOT/AOT_stimuli/rescaled_final/1402_fw.mp4	0.0	238.32611298561096	2.4999420642852783
48	219.95732593536377	pulse	1	t		46.0	2.5	/experiments/AOT/AOT_stimuli/rescaled_final/1402_fw.mp4	0.0	239.10947799682617	
48	221.55589890480042	pulse	1	t		46.0	2.5	/experiments/AOT/AOT_stimuli/rescaled_final/1402_fw.mp4	0.0	240.70805096626282	
48	221.67390298843384	fix_post	2		12	46.0	2.5	/experiments/AOT/AOT_stimuli/rescaled_final/1402_fw.mp4	0.0	240.82605504989624	0.09998011589050293
49	221.77388310432434	fix_pre	0		120	47.0	2.5	blank	1.0	240.92603516578674	1.0000238418579102
49	222.77390694618225	movie	1		300	47.0	2.5	blank	1.0	241.92605900764465	2.4999799728393555
49	223.15735387802124	pulse	1	t		47.0	2.5	blank	1.0	242.30950593948364	
49	224.75751304626465	pulse	1	t		47.0	2.5	blank	1.0	243.90966510772705	
49	225.2738869190216	fix_post	2		12	47.0	2.5	blank	1.0	244.426038980484	0.0999610424041748
50	225.37384796142578	fix_pre	0		119	48.0	2.5	/experiments/AOT/AOT_stimuli/rescaled_final/1636_rv.mp4	0.0	244.52600002288818	0.9916830062866211
50	226.35732698440552	pulse	0	t		48.0	2.5	/experiments/AOT/AOT_stimuli/rescaled_final/1636_rv.mp4	0.0	245.50947904586792	
50	226.3655309677124	movie	1		246	48.0	2.5	/experiments/AOT/AOT_stimuli/rescaled_final/1636_rv.mp4	0.0	245.5176830291748	2.5083470344543457
50	227.95852899551392	pulse	1	t		48.0	2.5	/experiments/AOT/AOT_stimuli/rescaled_final/1636_rv.mp4	0.0	247.11068105697632	
50	228.87387800216675	fix_post	2		12	48.0	2.5	/experiments/AOT/AOT_stimuli/rescaled_final/1636_rv.mp4	0.0	248.02603006362915	0.10017609596252441
51	228.97405409812927	fix_pre	0		120	49.0	2.5	/experiments/AOT/AOT_stimuli/rescaled_final/0761_rv.mp4	0.0	248.12620615959167	0.9998250007629395
51	229.5573170185089	pulse	0	t		49.0	2.5	/experiments/AOT/AOT_stimuli/rescaled_final/0761_rv.mp4	0.0	248.7094690799713	
51	229.9738790988922	movie	1		246	49.0	2.5	/experiments/AOT/AOT_stimuli/rescaled_final/0761_rv.mp4	0.0	249.12603116035461	2.4999899864196777
51	231.15735006332397	pulse	1	t		49.0	2.5	/experiments/AOT/AOT_stimuli/rescaled_final/0761_rv.mp4	0.0	250.30950212478638	
51	232.4738690853119	fix_post	2		12	49.0	2.5	/experiments/AOT/AOT_stimuli/rescaled_final/0761_rv.mp4	0.0	251.6260211467743	0.09995293617248535
52	232.57382202148438	fix_pre	0		120	50.0	2.5	/experiments/AOT/AOT_stimuli/rescaled_final/1266_fw.mp4	0.0	251.72597408294678	0.9996609687805176
52	232.75734210014343	pulse	0	t		50.0	2.5	/experiments/AOT/AOT_stimuli/rescaled_final/1266_fw.mp4	0.0	251.90949416160583	
52	233.5734829902649	movie	1		246	50.0	2.5	/experiments/AOT/AOT_stimuli/rescaled_final/1266_fw.mp4	0.0	252.7256350517273	2.500601053237915
52	234.3569049835205	pulse	1	t		50.0	2.5	/experiments/AOT/AOT_stimuli/rescaled_final/1266_fw.mp4	0.0	253.5090570449829	
52	235.95327711105347	pulse	1	t		50.0	2.5	/experiments/AOT/AOT_stimuli/rescaled_final/1266_fw.mp4	0.0	255.10542917251587	
52	236.0740840435028	fix_post	2		12	50.0	2.5	/experiments/AOT/AOT_stimuli/rescaled_final/1266_fw.mp4	0.0	255.2262361049652	0.10008502006530762
53	236.17416906356812	fix_pre	0		120	51.0	2.5	/experiments/AOT/AOT_stimuli/rescaled_final/0155_fw.mp4	0.0	255.32632112503052	0.9996428489685059
53	237.17381191253662	movie	1		243	51.0	2.5	/experiments/AOT/AOT_stimuli/rescaled_final/0155_fw.mp4	0.0	256.325963973999	2.499535083770752
53	237.55843806266785	pulse	1	t		51.0	2.5	/experiments/AOT/AOT_stimuli/rescaled_final/0155_fw.mp4	0.0	256.71059012413025	
53	239.1572461128235	pulse	1	t		51.0	2.5	/experiments/AOT/AOT_stimuli/rescaled_final/0155_fw.mp4	0.0	258.3093981742859	
53	239.67334699630737	fix_post	2		12	51.0	2.5	/experiments/AOT/AOT_stimuli/rescaled_final/0155_fw.mp4	0.0	258.8254990577698	0.10038089752197266
54	239.77372789382935	fix_pre	0		119	52.0	2.5	/experiments/AOT/AOT_stimuli/rescaled_final/0394_rv.mp4	0.0	258.92587995529175	0.9917001724243164
54	240.75724005699158	pulse	0	t		52.0	2.5	/experiments/AOT/AOT_stimuli/rescaled_final/0394_rv.mp4	0.0	259.909392118454	
54	240.76542806625366	movie	1		245	52.0	2.5	/experiments/AOT/AOT_stimuli/rescaled_final/0394_rv.mp4	0.0	259.91758012771606	2.5083179473876953
54	242.3570671081543	pulse	1	t		52.0	2.5	/experiments/AOT/AOT_stimuli/rescaled_final/0394_rv.mp4	0.0	261.5092191696167	
54	243.27374601364136	fix_post	2		12	52.0	2.5	/experiments/AOT/AOT_stimuli/rescaled_final/0394_rv.mp4	0.0	262.42589807510376	0.09997200965881348
55	243.37371802330017	fix_pre	0		120	53.0	2.5	/experiments/AOT/AOT_stimuli/rescaled_final/1811_rv.mp4	0.0	262.5258700847626	0.9999949932098389
55	243.95724987983704	pulse	0	t		53.0	2.5	/experiments/AOT/AOT_stimuli/rescaled_final/1811_rv.mp4	0.0	263.10940194129944	
55	244.37371301651	movie	1		244	53.0	2.5	/experiments/AOT/AOT_stimuli/rescaled_final/1811_rv.mp4	0.0	263.5258650779724	2.4999818801879883
55	245.55732893943787	pulse	1	t		53.0	2.5	/experiments/AOT/AOT_stimuli/rescaled_final/1811_rv.mp4	0.0	264.70948100090027	
55	246.873694896698	fix_post	2		12	53.0	2.5	/experiments/AOT/AOT_stimuli/rescaled_final/1811_rv.mp4	0.0	266.0258469581604	0.09999513626098633
56	246.97369003295898	fix_pre	0		120	54.0	2.5	/experiments/AOT/AOT_stimuli/rescaled_final/1752_fw.mp4	0.0	266.1258420944214	1.0000550746917725
56	247.1571969985962	pulse	0	t		54.0	2.5	/experiments/AOT/AOT_stimuli/rescaled_final/1752_fw.mp4	0.0	266.3093490600586	
56	247.97374510765076	movie	1		245	54.0	2.5	/experiments/AOT/AOT_stimuli/rescaled_final/1752_fw.mp4	0.0	267.12589716911316	2.4999659061431885
56	248.75714802742004	pulse	1	t		54.0	2.5	/experiments/AOT/AOT_stimuli/rescaled_final/1752_fw.mp4	0.0	267.90930008888245	
56	250.35580492019653	pulse	1	t		54.0	2.5	/experiments/AOT/AOT_stimuli/rescaled_final/1752_fw.mp4	0.0	269.50795698165894	
56	250.47371101379395	fix_post	2		12	54.0	2.5	/experiments/AOT/AOT_stimuli/rescaled_final/1752_fw.mp4	0.0	269.62586307525635	0.10002493858337402
57	250.57373595237732	fix_pre	0		120	55.0	2.5	/experiments/AOT/AOT_stimuli/rescaled_final/1404_fw.mp4	0.0	269.7258880138397	0.9999361038208008
57	251.57367205619812	movie	1		245	55.0	2.5	/experiments/AOT/AOT_stimuli/rescaled_final/1404_fw.mp4	0.0	270.7258241176605	2.50002384185791
57	251.95685410499573	pulse	1	t		55.0	2.5	/experiments/AOT/AOT_stimuli/rescaled_final/1404_fw.mp4	0.0	271.10900616645813	
57	253.55722403526306	pulse	1	t		55.0	2.5	/experiments/AOT/AOT_stimuli/rescaled_final/1404_fw.mp4	0.0	272.70937609672546	
57	254.07369589805603	fix_post	2		12	55.0	2.5	/experiments/AOT/AOT_stimuli/rescaled_final/1404_fw.mp4	0.0	273.22584795951843	0.0999751091003418
58	254.17367100715637	fix_pre	0		119	56.0	2.5	blank	1.0	273.3258230686188	0.9916548728942871
58	255.15721988677979	pulse	0	t		56.0	2.5	blank	1.0	274.3093719482422	
58	255.16532588005066	movie	1		301	56.0	2.5	blank	1.0	274.31747794151306	2.5082812309265137
58	256.7572019100189	pulse	1	t		56.0	2.5	blank	1.0	275.9093539714813	
58	257.6736071109772	fix_post	2		12	56.0	2.5	blank	1.0	276.8257591724396	0.10010290145874023
59	257.7737100124359	fix_pre	0		120	57.0	2.5	/experiments/AOT/AOT_stimuli/rescaled_final/1473_fw.mp4	0.0	276.9258620738983	0.9999189376831055
59	258.35715889930725	pulse	0	t		57.0	2.5	/experiments/AOT/AOT_stimuli/rescaled_final/1473_fw.mp4	0.0	277.50931096076965	
59	258.773628950119	movie	1		244	57.0	2.5	/experiments/AOT/AOT_stimuli/rescaled_final/1473_fw.mp4	0.0	277.9257810115814	2.5001220703125
59	259.9572169780731	pulse	1	t		57.0	2.5	/experiments/AOT/AOT_stimuli/rescaled_final/1473_fw.mp4	0.0	279.1093690395355	
59	261.2737510204315	fix_post	2		12	57.0	2.5	/experiments/AOT/AOT_stimuli/rescaled_final/1473_fw.mp4	0.0	280.4259030818939	0.09994292259216309
60	261.3736939430237	fix_pre	0		120	58.0	2.5	/experiments/AOT/AOT_stimuli/rescaled_final/1541_fw.mp4	0.0	280.5258460044861	0.9996330738067627
60	261.55712699890137	pulse	0	t		58.0	2.5	/experiments/AOT/AOT_stimuli/rescaled_final/1541_fw.mp4	0.0	280.70927906036377	
60	262.37332701683044	movie	1		244	58.0	2.5	/experiments/AOT/AOT_stimuli/rescaled_final/1541_fw.mp4	0.0	281.52547907829285	2.5003960132598877
60	263.15721011161804	pulse	1	t		58.0	2.5	/experiments/AOT/AOT_stimuli/rescaled_final/1541_fw.mp4	0.0	282.30936217308044	
60	264.75762701034546	pulse	1	t		58.0	2.5	/experiments/AOT/AOT_stimuli/rescaled_final/1541_fw.mp4	0.0	283.90977907180786	
60	264.87372303009033	fix_post	2		12	58.0	2.5	/experiments/AOT/AOT_stimuli/rescaled_final/1541_fw.mp4	0.0	284.02587509155273	0.09995603561401367
61	264.97367906570435	fix_pre	0		120	59.0	2.5	/experiments/AOT/AOT_stimuli/rescaled_final/0146_rv.mp4	0.0	284.12583112716675	1.0000720024108887
61	265.97375106811523	movie	1		244	59.0	2.5	/experiments/AOT/AOT_stimuli/rescaled_final/0146_rv.mp4	0.0	285.12590312957764	2.499861001968384
61	266.35663890838623	pulse	1	t		59.0	2.5	/experiments/AOT/AOT_stimuli/rescaled_final/0146_rv.mp4	0.0	285.50879096984863	
61	267.95708990097046	pulse	1	t		59.0	2.5	/experiments/AOT/AOT_stimuli/rescaled_final/0146_rv.mp4	0.0	287.10924196243286	
61	268.4736120700836	fix_post	2		12	59.0	2.5	/experiments/AOT/AOT_stimuli/rescaled_final/0146_rv.mp4	0.0	287.625764131546	0.1000528335571289
62	268.57366490364075	fix_pre	0		119	60.0	2.5	/experiments/AOT/AOT_stimuli/rescaled_final/2140_fw.mp4	0.0	287.72581696510315	0.9916601181030273
62	269.5571041107178	pulse	0	t		60.0	2.5	/experiments/AOT/AOT_stimuli/rescaled_final/2140_fw.mp4	0.0	288.7092561721802	
62	269.5653250217438	movie	1		244	60.0	2.5	/experiments/AOT/AOT_stimuli/rescaled_final/2140_fw.mp4	0.0	288.7174770832062	2.508228063583374
62	271.1572449207306	pulse	1	t		60.0	2.5	/experiments/AOT/AOT_stimuli/rescaled_final/2140_fw.mp4	0.0	290.309396982193	
62	272.07355308532715	fix_post	2		12	60.0	2.5	/experiments/AOT/AOT_stimuli/rescaled_final/2140_fw.mp4	0.0	291.22570514678955	0.1000678539276123
63	272.17362093925476	fix_pre	0		120	61.0	2.5	/experiments/AOT/AOT_stimuli/rescaled_final/1818_fw.mp4	0.0	291.32577300071716	1.000002145767212
63	272.7571189403534	pulse	0	t		61.0	2.5	/experiments/AOT/AOT_stimuli/rescaled_final/1818_fw.mp4	0.0	291.9092710018158	
63	273.173623085022	movie	1		243	61.0	2.5	/experiments/AOT/AOT_stimuli/rescaled_final/1818_fw.mp4	0.0	292.3257751464844	2.4999618530273438
63	274.3571729660034	pulse	1	t		61.0	2.5	/experiments/AOT/AOT_stimuli/rescaled_final/1818_fw.mp4	0.0	293.5093250274658	
63	275.6735849380493	fix_post	2		12	61.0	2.5	/experiments/AOT/AOT_stimuli/rescaled_final/1818_fw.mp4	0.0	294.8257369995117	0.09995508193969727
64	275.773540019989	fix_pre	0		120	62.0	2.5	/experiments/AOT/AOT_stimuli/rescaled_final/2084_rv.mp4	0.0	294.9256920814514	1.0000989437103271
64	275.95704889297485	pulse	0	t		62.0	2.5	/experiments/AOT/AOT_stimuli/rescaled_final/2084_rv.mp4	0.0	295.10920095443726	
64	276.77363896369934	movie	1		243	62.0	2.5	/experiments/AOT/AOT_stimuli/rescaled_final/2084_rv.mp4	0.0	295.92579102516174	2.4999539852142334
64	277.55709409713745	pulse	1	t		62.0	2.5	/experiments/AOT/AOT_stimuli/rescaled_final/2084_rv.mp4	0.0	296.70924615859985	
64	279.15549898147583	pulse	1	t		62.0	2.5	/experiments/AOT/AOT_stimuli/rescaled_final/2084_rv.mp4	0.0	298.30765104293823	
64	279.2735929489136	fix_post	2		12	62.0	2.5	/experiments/AOT/AOT_stimuli/rescaled_final/2084_rv.mp4	0.0	298.425745010376	0.10008692741394043
65	279.3736798763275	fix_pre	0		120	63.0	2.5	blank	1.0	298.5258319377899	0.9998822212219238
65	280.37356209754944	movie	1		300	63.0	2.5	blank	1.0	299.52571415901184	2.49995493888855
65	280.7571210861206	pulse	1	t		63.0	2.5	blank	1.0	299.909273147583	
65	282.3569920063019	pulse	1	t		63.0	2.5	blank	1.0	301.5091440677643	
65	282.873517036438	fix_post	2		12	63.0	2.5	blank	1.0	302.0256690979004	0.10002899169921875
66	282.9735460281372	fix_pre	0		119	64.0	2.5	/experiments/AOT/AOT_stimuli/rescaled_final/1367_fw.mp4	0.0	302.1256980895996	0.9916749000549316
66	283.9570109844208	pulse	0	t		64.0	2.5	/experiments/AOT/AOT_stimuli/rescaled_final/1367_fw.mp4	0.0	303.1091630458832	
66	283.96522092819214	movie	1		244	64.0	2.5	/experiments/AOT/AOT_stimuli/rescaled_final/1367_fw.mp4	0.0	303.11737298965454	2.5083181858062744
66	285.556715965271	pulse	1	t		64.0	2.5	/experiments/AOT/AOT_stimuli/rescaled_final/1367_fw.mp4	0.0	304.7088680267334	
66	286.4735391139984	fix_post	2		12	64.0	2.5	/experiments/AOT/AOT_stimuli/rescaled_final/1367_fw.mp4	0.0	305.6256911754608	0.10001897811889648
67	286.5735580921173	fix_pre	0		120	65.0	2.5	/experiments/AOT/AOT_stimuli/rescaled_final/1132_rv.mp4	0.0	305.7257101535797	0.9995968341827393
67	287.15705490112305	pulse	0	t		65.0	2.5	/experiments/AOT/AOT_stimuli/rescaled_final/1132_rv.mp4	0.0	306.30920696258545	
67	287.57315492630005	movie	1		246	65.0	2.5	/experiments/AOT/AOT_stimuli/rescaled_final/1132_rv.mp4	0.0	306.72530698776245	2.500089168548584
67	288.75664806365967	pulse	1	t		65.0	2.5	/experiments/AOT/AOT_stimuli/rescaled_final/1132_rv.mp4	0.0	307.90880012512207	
67	290.07324409484863	fix_post	2		12	65.0	2.5	/experiments/AOT/AOT_stimuli/rescaled_final/1132_rv.mp4	0.0	309.22539615631104	0.1004018783569336
68	290.17364597320557	fix_pre	0		120	66.0	2.5	/experiments/AOT/AOT_stimuli/rescaled_final/1804_fw.mp4	0.0	309.32579803466797	0.999675989151001
68	290.3567318916321	pulse	0	t		66.0	2.5	/experiments/AOT/AOT_stimuli/rescaled_final/1804_fw.mp4	0.0	309.5088839530945	
68	291.17332196235657	movie	1		246	66.0	2.5	/experiments/AOT/AOT_stimuli/rescaled_final/1804_fw.mp4	0.0	310.32547402381897	2.500174045562744
68	291.9568660259247	pulse	1	t		66.0	2.5	/experiments/AOT/AOT_stimuli/rescaled_final/1804_fw.mp4	0.0	311.1090180873871	
68	293.5565800666809	pulse	1	t		66.0	2.5	/experiments/AOT/AOT_stimuli/rescaled_final/1804_fw.mp4	0.0	312.7087321281433	
68	293.6734960079193	fix_post	2		12	66.0	2.5	/experiments/AOT/AOT_stimuli/rescaled_final/1804_fw.mp4	0.0	312.8256480693817	0.10001206398010254
69	293.7735080718994	fix_pre	0		120	67.0	2.5	/experiments/AOT/AOT_stimuli/rescaled_final/0032_rv.mp4	0.0	312.9256601333618	0.9999608993530273
69	294.77346897125244	movie	1		247	67.0	2.5	/experiments/AOT/AOT_stimuli/rescaled_final/0032_rv.mp4	0.0	313.92562103271484	2.500056028366089
69	295.1565680503845	pulse	1	t		67.0	2.5	/experiments/AOT/AOT_stimuli/rescaled_final/0032_rv.mp4	0.0	314.3087201118469	
69	296.7569019794464	pulse	1	t		67.0	2.5	/experiments/AOT/AOT_stimuli/rescaled_final/0032_rv.mp4	0.0	315.9090540409088	
69	297.27352499961853	fix_post	2		12	67.0	2.5	/experiments/AOT/AOT_stimuli/rescaled_final/0032_rv.mp4	0.0	316.42567706108093	0.09995007514953613
70	297.37347507476807	fix_pre	0		119	68.0	2.5	blank	1.0	316.52562713623047	0.9916238784790039
70	298.35697889328003	pulse	0	t		68.0	2.5	blank	1.0	317.50913095474243	
70	298.36509895324707	movie	1		301	68.0	2.5	blank	1.0	317.5172510147095	2.508329153060913
70	299.9569408893585	pulse	1	t		68.0	2.5	blank	1.0	319.1090929508209	
70	300.873428106308	fix_post	2		12	68.0	2.5	blank	1.0	320.0255801677704	0.10001683235168457
71	300.97344493865967	fix_pre	0		120	69.0	2.5	/experiments/AOT/AOT_stimuli/rescaled_final/1681_rv.mp4	0.0	320.12559700012207	0.9999790191650391
71	301.5569438934326	pulse	0	t		69.0	2.5	/experiments/AOT/AOT_stimuli/rescaled_final/1681_rv.mp4	0.0	320.709095954895	
71	301.9734239578247	movie	1		245	69.0	2.5	/experiments/AOT/AOT_stimuli/rescaled_final/1681_rv.mp4	0.0	321.1255760192871	2.500072956085205
71	303.157075881958	pulse	1	t		69.0	2.5	/experiments/AOT/AOT_stimuli/rescaled_final/1681_rv.mp4	0.0	322.3092279434204	
71	304.4734969139099	fix_post	2		12	69.0	2.5	/experiments/AOT/AOT_stimuli/rescaled_final/1681_rv.mp4	0.0	323.6256489753723	0.09992313385009766
72	304.57342004776	fix_pre	0		120	70.0	2.5	/experiments/AOT/AOT_stimuli/rescaled_final/1483_fw.mp4	0.0	323.7255721092224	1.0000050067901611
72	304.7569489479065	pulse	0	t		70.0	2.5	/experiments/AOT/AOT_stimuli/rescaled_final/1483_fw.mp4	0.0	323.9091010093689	
72	305.57342505455017	movie	1		243	70.0	2.5	/experiments/AOT/AOT_stimuli/rescaled_final/1483_fw.mp4	0.0	324.7255771160126	2.4999828338623047
72	306.3569641113281	pulse	1	t		70.0	2.5	/experiments/AOT/AOT_stimuli/rescaled_final/1483_fw.mp4	0.0	325.5091161727905	
72	307.95547103881836	pulse	1	t		70.0	2.5	/experiments/AOT/AOT_stimuli/rescaled_final/1483_fw.mp4	0.0	327.10762310028076	
72	308.0734078884125	fix_post	2		12	70.0	2.5	/experiments/AOT/AOT_stimuli/rescaled_final/1483_fw.mp4	0.0	327.2255599498749	0.09998917579650879
73	308.173397064209	fix_pre	0		120	71.0	2.5	/experiments/AOT/AOT_stimuli/rescaled_final/0833_fw.mp4	0.0	327.3255491256714	1.000032901763916
73	309.1734299659729	movie	1		243	71.0	2.5	/experiments/AOT/AOT_stimuli/rescaled_final/0833_fw.mp4	0.0	328.3255820274353	2.4996209144592285
73	309.5573170185089	pulse	1	t		71.0	2.5	/experiments/AOT/AOT_stimuli/rescaled_final/0833_fw.mp4	0.0	328.7094690799713	
73	311.15689396858215	pulse	1	t		71.0	2.5	/experiments/AOT/AOT_stimuli/rescaled_final/0833_fw.mp4	0.0	330.30904603004456	
73	311.67305088043213	fix_post	2		12	71.0	2.5	/experiments/AOT/AOT_stimuli/rescaled_final/0833_fw.mp4	0.0	330.82520294189453	0.09998321533203125
74	311.77303409576416	fix_pre	0		119	72.0	2.5	/experiments/AOT/AOT_stimuli/rescaled_final/0616_rv.mp4	0.0	330.92518615722656	0.9920399188995361
74	312.75685811042786	pulse	0	t		72.0	2.5	/experiments/AOT/AOT_stimuli/rescaled_final/0616_rv.mp4	0.0	331.90901017189026	
74	312.7650740146637	movie	1		244	72.0	2.5	/experiments/AOT/AOT_stimuli/rescaled_final/0616_rv.mp4	0.0	331.9172260761261	2.508239984512329
74	314.35812997817993	pulse	1	t		72.0	2.5	/experiments/AOT/AOT_stimuli/rescaled_final/0616_rv.mp4	0.0	333.51028203964233	
74	315.273313999176	fix_post	2		12	72.0	2.5	/experiments/AOT/AOT_stimuli/rescaled_final/0616_rv.mp4	0.0	334.4254660606384	0.1000509262084961
75	315.3733649253845	fix_pre	0		120	73.0	2.5	/experiments/AOT/AOT_stimuli/rescaled_final/1065_rv.mp4	0.0	334.5255169868469	0.9999401569366455
75	315.9569020271301	pulse	0	t		73.0	2.5	/experiments/AOT/AOT_stimuli/rescaled_final/1065_rv.mp4	0.0	335.10905408859253	
75	316.37330508232117	movie	1		247	73.0	2.5	/experiments/AOT/AOT_stimuli/rescaled_final/1065_rv.mp4	0.0	335.52545714378357	2.5001168251037598
75	317.55692195892334	pulse	1	t		73.0	2.5	/experiments/AOT/AOT_stimuli/rescaled_final/1065_rv.mp4	0.0	336.70907402038574	
75	318.8734219074249	fix_post	2		12	73.0	2.5	/experiments/AOT/AOT_stimuli/rescaled_final/1065_rv.mp4	0.0	338.02557396888733	0.09997320175170898
76	318.97339510917664	fix_pre	0		120	74.0	2.5	/experiments/AOT/AOT_stimuli/rescaled_final/1100_rv.mp4	0.0	338.12554717063904	1.0000298023223877
76	319.15689492225647	pulse	0	t		74.0	2.5	/experiments/AOT/AOT_stimuli/rescaled_final/1100_rv.mp4	0.0	338.3090469837189	
76	319.973424911499	movie	1		244	74.0	2.5	/experiments/AOT/AOT_stimuli/rescaled_final/1100_rv.mp4	0.0	339.1255769729614	2.499566078186035
76	320.7569360733032	pulse	1	t		74.0	2.5	/experiments/AOT/AOT_stimuli/rescaled_final/1100_rv.mp4	0.0	339.9090881347656	
76	322.3553330898285	pulse	1	t		74.0	2.5	/experiments/AOT/AOT_stimuli/rescaled_final/1100_rv.mp4	0.0	341.5074851512909	
76	322.47299098968506	fix_post	2		12	74.0	2.5	/experiments/AOT/AOT_stimuli/rescaled_final/1100_rv.mp4	0.0	341.62514305114746	0.10038590431213379
77	322.5733768939972	fix_pre	0		120	75.0	2.5	/experiments/AOT/AOT_stimuli/rescaled_final/1870_rv.mp4	0.0	341.7255289554596	1.0000300407409668
77	323.57340693473816	movie	1		244	75.0	2.5	/experiments/AOT/AOT_stimuli/rescaled_final/1870_rv.mp4	0.0	342.72555899620056	2.4999351501464844
77	323.956561088562	pulse	1	t		75.0	2.5	/experiments/AOT/AOT_stimuli/rescaled_final/1870_rv.mp4	0.0	343.1087131500244	
77	325.5569009780884	pulse	1	t		75.0	2.5	/experiments/AOT/AOT_stimuli/rescaled_final/1870_rv.mp4	0.0	344.7090530395508	
77	326.07334208488464	fix_post	2		12	75.0	2.5	/experiments/AOT/AOT_stimuli/rescaled_final/1870_rv.mp4	0.0	345.22549414634705	0.10003781318664551
78	326.1733798980713	fix_pre	0		119	76.0	2.5	blank	1.0	345.3255319595337	0.9916391372680664
78	327.15682792663574	pulse	0	t		76.0	2.5	blank	1.0	346.30897998809814	
78	327.16501903533936	movie	1		301	76.0	2.5	blank	1.0	346.31717109680176	2.5083868503570557
78	328.75684905052185	pulse	1	t		76.0	2.5	blank	1.0	347.90900111198425	
78	329.6734058856964	fix_post	2		12	76.0	2.5	blank	1.0	348.8255579471588	0.09989213943481445
79	329.7732980251312	fix_pre	0		120	77.0	2.5	/experiments/AOT/AOT_stimuli/rescaled_final/1342_rv.mp4	0.0	348.9254500865936	1.000072956085205
79	330.35708594322205	pulse	0	t		77.0	2.5	/experiments/AOT/AOT_stimuli/rescaled_final/1342_rv.mp4	0.0	349.50923800468445	
79	330.77337098121643	movie	1		244	77.0	2.5	/experiments/AOT/AOT_stimuli/rescaled_final/1342_rv.mp4	0.0	349.92552304267883	2.500006914138794
79	331.9568738937378	pulse	1	t		77.0	2.5	/experiments/AOT/AOT_stimuli/rescaled_final/1342_rv.mp4	0.0	351.1090259552002	
79	333.2733778953552	fix_post	2		12	77.0	2.5	/experiments/AOT/AOT_stimuli/rescaled_final/1342_rv.mp4	0.0	352.4255299568176	0.100006103515625
80	333.37338399887085	fix_pre	0		120	78.0	2.5	/experiments/AOT/AOT_stimuli/rescaled_final/1847_fw.mp4	0.0	352.52553606033325	0.9999570846557617
80	333.5568709373474	pulse	0	t		78.0	2.5	/experiments/AOT/AOT_stimuli/rescaled_final/1847_fw.mp4	0.0	352.7090229988098	
80	334.3733410835266	movie	1		243	78.0	2.5	/experiments/AOT/AOT_stimuli/rescaled_final/1847_fw.mp4	0.0	353.525493144989	2.499915838241577
80	335.1568160057068	pulse	1	t		78.0	2.5	/experiments/AOT/AOT_stimuli/rescaled_final/1847_fw.mp4	0.0	354.3089680671692	
80	336.75513911247253	pulse	1	t		78.0	2.5	/experiments/AOT/AOT_stimuli/rescaled_final/1847_fw.mp4	0.0	355.90729117393494	
80	336.8732569217682	fix_post	2		12	78.0	2.5	/experiments/AOT/AOT_stimuli/rescaled_final/1847_fw.mp4	0.0	356.0254089832306	0.10010600090026855
81	336.97336292266846	fix_pre	0		120	79.0	2.5	/experiments/AOT/AOT_stimuli/rescaled_final/0571_fw.mp4	0.0	356.12551498413086	1.000014066696167
81	337.9733769893646	movie	1		243	79.0	2.5	/experiments/AOT/AOT_stimuli/rescaled_final/0571_fw.mp4	0.0	357.125529050827	2.5000669956207275
81	338.3578178882599	pulse	1	t		79.0	2.5	/experiments/AOT/AOT_stimuli/rescaled_final/0571_fw.mp4	0.0	357.5099699497223	
81	339.9568018913269	pulse	1	t		79.0	2.5	/experiments/AOT/AOT_stimuli/rescaled_final/0571_fw.mp4	0.0	359.1089539527893	
81	340.47344398498535	fix_post	2		12	79.0	2.5	/experiments/AOT/AOT_stimuli/rescaled_final/0571_fw.mp4	0.0	359.62559604644775	0.09980201721191406
82	340.57324600219727	fix_pre	0		119	80.0	2.5	/experiments/AOT/AOT_stimuli/rescaled_final/1419_fw.mp4	0.0	359.72539806365967	0.9918019771575928
82	341.5569100379944	pulse	0	t		80.0	2.5	/experiments/AOT/AOT_stimuli/rescaled_final/1419_fw.mp4	0.0	360.7090620994568	
82	341.56504797935486	movie	1		246	80.0	2.5	/experiments/AOT/AOT_stimuli/rescaled_final/1419_fw.mp4	0.0	360.71720004081726	2.5082879066467285
82	343.1565001010895	pulse	1	t		80.0	2.5	/experiments/AOT/AOT_stimuli/rescaled_final/1419_fw.mp4	0.0	362.3086521625519	
82	344.0733358860016	fix_post	2		12	80.0	2.5	/experiments/AOT/AOT_stimuli/rescaled_final/1419_fw.mp4	0.0	363.225487947464	0.09996318817138672
83	344.173299074173	fix_pre	0		120	81.0	2.5	/experiments/AOT/AOT_stimuli/rescaled_final/0852_fw.mp4	0.0	363.3254511356354	1.00003981590271
83	344.7567780017853	pulse	0	t		81.0	2.5	/experiments/AOT/AOT_stimuli/rescaled_final/0852_fw.mp4	0.0	363.9089300632477	
83	345.1733388900757	movie	1		243	81.0	2.5	/experiments/AOT/AOT_stimuli/rescaled_final/0852_fw.mp4	0.0	364.3254909515381	2.499833106994629
83	346.35647106170654	pulse	1	t		81.0	2.5	/experiments/AOT/AOT_stimuli/rescaled_final/0852_fw.mp4	0.0	365.50862312316895	
83	347.6731719970703	fix_post	2		12	81.0	2.5	/experiments/AOT/AOT_stimuli/rescaled_final/0852_fw.mp4	0.0	366.8253240585327	0.09996509552001953
84	347.77313709259033	fix_pre	0		120	82.0	2.5	blank	1.0	366.92528915405273	1.000199794769287
84	347.95667910575867	pulse	0	t		82.0	2.5	blank	1.0	367.10883116722107	
84	348.7733368873596	movie	1		300	82.0	2.5	blank	1.0	367.925488948822	2.4999430179595947
84	349.556725025177	pulse	1	t		82.0	2.5	blank	1.0	368.7088770866394	
84	351.1568109989166	pulse	1	t		82.0	2.5	blank	1.0	370.308963060379	
84	351.2732799053192	fix_post	2		12	82.0	2.5	blank	1.0	370.4254319667816	0.09997200965881348
85	351.373251914978	fix_pre	0		120	83.0	2.5	/experiments/AOT/AOT_stimuli/rescaled_final/1734_rv.mp4	0.0	370.52540397644043	1.0000531673431396
85	352.37330508232117	movie	1		243	83.0	2.5	/experiments/AOT/AOT_stimuli/rescaled_final/1734_rv.mp4	0.0	371.52545714378357	2.4999818801879883
85	352.756649017334	pulse	1	t		83.0	2.5	/experiments/AOT/AOT_stimuli/rescaled_final/1734_rv.mp4	0.0	371.9088010787964	
85	354.35669207572937	pulse	1	t		83.0	2.5	/experiments/AOT/AOT_stimuli/rescaled_final/1734_rv.mp4	0.0	373.5088441371918	
85	354.87328696250916	fix_post	2		12	83.0	2.5	/experiments/AOT/AOT_stimuli/rescaled_final/1734_rv.mp4	0.0	374.02543902397156	0.09989500045776367
87	354.9731819629669	stim	0		1716					374.1253340244293	14.299957990646362
87	355.956787109375	pulse	0	t						375.1089391708374	
87	357.5567009449005	pulse	0	t						376.7088530063629	
87	359.1566240787506	pulse	0	t						378.308776140213	
87	360.7565619945526	pulse	0	t						379.908714056015	
87	362.3566629886627	pulse	0	t						381.5088150501251	
87	363.95661211013794	pulse	0	t						383.10876417160034	
87	365.5565950870514	pulse	0	t						384.7087471485138	
87	367.15664410591125	pulse	0	t						386.30879616737366	
87	368.75663805007935	pulse	0	t						387.90879011154175	
