trial_nr	onset	event_type	phase	response	nr_frames	movie_index	movie_duration	movie_file	blank	onset_abs	duration
0	0.2081620693206787	stim	0		64					26.211421012878418	0.5334270000457764
0	0.7334880828857422	response	0	space						26.73674702644348	
1	0.7415890693664551	stim	0		5194					26.744848012924194	43.32676291465759
1	44.053547859191895	pulse	0	t						70.05680680274963	
1	44.06835198402405	stim	1		1715					70.07161092758179	14.298503875732422
1	45.64846205711365	pulse	1	t						71.65172100067139	
1	47.248847007751465	pulse	1	t						73.2521059513092	
1	48.849071979522705	pulse	1	t						74.85233092308044	
1	50.449259996414185	pulse	1	t						76.45251893997192	
1	52.04197287559509	pulse	1	t						78.04523181915283	
1	53.6420419216156	pulse	1	t						79.64530086517334	
1	55.242258071899414	pulse	1	t						81.24551701545715	
1	56.8425829410553	pulse	1	t						82.84584188461304	
2	58.36685585975647	fix_pre	0		11	0.0	2.5	/experiments/knapen_AOT/AOT_stimuli/rescaled_final/1340_fw.mp4	0.0	84.37011480331421	0.09171605110168457
2	58.44280290603638	pulse	0	t		0.0	2.5	/experiments/knapen_AOT/AOT_stimuli/rescaled_final/1340_fw.mp4	0.0	84.44606184959412	
2	58.458571910858154	movie	1		239	0.0	2.5	/experiments/knapen_AOT/AOT_stimuli/rescaled_final/1340_fw.mp4	0.0	84.4618308544159	2.5086779594421387
2	60.04233002662659	pulse	1	t		0.0	2.5	/experiments/knapen_AOT/AOT_stimuli/rescaled_final/1340_fw.mp4	0.0	86.04558897018433	
2	60.96724987030029	fix_post	2		12	0.0	2.5	/experiments/knapen_AOT/AOT_stimuli/rescaled_final/1340_fw.mp4	0.0	86.97050881385803	0.100006103515625
3	61.06725597381592	fix_pre	0		120	1.0	2.5	/experiments/knapen_AOT/AOT_stimuli/rescaled_final/2065_fw.mp4	0.0	87.07051491737366	1.0001330375671387
3	61.64245390892029	pulse	0	t		1.0	2.5	/experiments/knapen_AOT/AOT_stimuli/rescaled_final/2065_fw.mp4	0.0	87.64571285247803	
3	62.06738901138306	movie	1		244	1.0	2.5	/experiments/knapen_AOT/AOT_stimuli/rescaled_final/2065_fw.mp4	0.0	88.0706479549408	2.5003769397735596
3	63.2432119846344	pulse	1	t		1.0	2.5	/experiments/knapen_AOT/AOT_stimuli/rescaled_final/2065_fw.mp4	0.0	89.24647092819214	
3	64.56776595115662	fix_post	2		12	1.0	2.5	/experiments/knapen_AOT/AOT_stimuli/rescaled_final/2065_fw.mp4	0.0	90.57102489471436	0.1000070571899414
4	64.66777300834656	fix_pre	0		120	2.0	2.5	/experiments/knapen_AOT/AOT_stimuli/rescaled_final/0890_rv.mp4	0.0	90.6710319519043	1.0002059936523438
4	64.84311103820801	pulse	0	t		2.0	2.5	/experiments/knapen_AOT/AOT_stimuli/rescaled_final/0890_rv.mp4	0.0	90.84636998176575	
4	65.6679790019989	movie	1		244	2.0	2.5	/experiments/knapen_AOT/AOT_stimuli/rescaled_final/0890_rv.mp4	0.0	91.67123794555664	2.50034499168396
4	66.4432098865509	pulse	1	t		2.0	2.5	/experiments/knapen_AOT/AOT_stimuli/rescaled_final/0890_rv.mp4	0.0	92.44646883010864	
4	68.043536901474	pulse	1	t		2.0	2.5	/experiments/knapen_AOT/AOT_stimuli/rescaled_final/0890_rv.mp4	0.0	94.04679584503174	
4	68.16832399368286	fix_post	2		12	2.0	2.5	/experiments/knapen_AOT/AOT_stimuli/rescaled_final/0890_rv.mp4	0.0	94.1715829372406	0.09999299049377441
5	68.26831698417664	fix_pre	0		119	3.0	2.5	/experiments/knapen_AOT/AOT_stimuli/rescaled_final/0383_fw.mp4	0.0	94.27157592773438	0.9918360710144043
5	69.26015305519104	movie	1		247	3.0	2.5	/experiments/knapen_AOT/AOT_stimuli/rescaled_final/0383_fw.mp4	0.0	95.26341199874878	2.500363826751709
5	69.64410495758057	pulse	1	t		3.0	2.5	/experiments/knapen_AOT/AOT_stimuli/rescaled_final/0383_fw.mp4	0.0	95.6473639011383	
5	71.24397206306458	pulse	1	t		3.0	2.5	/experiments/knapen_AOT/AOT_stimuli/rescaled_final/0383_fw.mp4	0.0	97.24723100662231	
5	71.76051688194275	fix_post	2		12	3.0	2.5	/experiments/knapen_AOT/AOT_stimuli/rescaled_final/0383_fw.mp4	0.0	97.76377582550049	0.10003113746643066
6	71.86054801940918	fix_pre	0		119	4.0	2.5	/experiments/knapen_AOT/AOT_stimuli/rescaled_final/0821_fw.mp4	0.0	97.86380696296692	0.9917809963226318
6	72.84425091743469	pulse	0	t		4.0	2.5	/experiments/knapen_AOT/AOT_stimuli/rescaled_final/0821_fw.mp4	0.0	98.84750986099243	
6	72.85232901573181	movie	1		245	4.0	2.5	/experiments/knapen_AOT/AOT_stimuli/rescaled_final/0821_fw.mp4	0.0	98.85558795928955	2.508730888366699
6	74.44882702827454	pulse	1	t		4.0	2.5	/experiments/knapen_AOT/AOT_stimuli/rescaled_final/0821_fw.mp4	0.0	100.45208597183228	
6	75.36105990409851	fix_post	2		12	4.0	2.5	/experiments/knapen_AOT/AOT_stimuli/rescaled_final/0821_fw.mp4	0.0	101.36431884765625	0.10002899169921875
7	75.46108889579773	fix_pre	0		120	5.0	2.5	/experiments/knapen_AOT/AOT_stimuli/rescaled_final/0201_rv.mp4	0.0	101.46434783935547	1.0001239776611328
7	76.04475688934326	pulse	0	t		5.0	2.5	/experiments/knapen_AOT/AOT_stimuli/rescaled_final/0201_rv.mp4	0.0	102.048015832901	
7	76.46121287345886	movie	1		245	5.0	2.5	/experiments/knapen_AOT/AOT_stimuli/rescaled_final/0201_rv.mp4	0.0	102.4644718170166	2.500385046005249
7	77.64497685432434	pulse	1	t		5.0	2.5	/experiments/knapen_AOT/AOT_stimuli/rescaled_final/0201_rv.mp4	0.0	103.64823579788208	
7	78.96159791946411	fix_post	2		12	5.0	2.5	/experiments/knapen_AOT/AOT_stimuli/rescaled_final/0201_rv.mp4	0.0	104.96485686302185	0.10001015663146973
8	79.06160807609558	fix_pre	0		120	6.0	2.5	blank	1.0	105.06486701965332	1.0001399517059326
8	79.24519205093384	pulse	0	t		6.0	2.5	blank	1.0	105.24845099449158	
8	80.06174802780151	movie	1		300	6.0	2.5	blank	1.0	106.06500697135925	2.50039005279541
8	80.8454520702362	pulse	1	t		6.0	2.5	blank	1.0	106.84871101379395	
8	82.44574499130249	pulse	1	t		6.0	2.5	blank	1.0	108.44900393486023	
8	82.56213808059692	fix_post	2		12	6.0	2.5	blank	1.0	108.56539702415466	0.09996294975280762
9	82.66210103034973	fix_pre	0		120	7.0	2.5	/experiments/knapen_AOT/AOT_stimuli/rescaled_final/0265_fw.mp4	0.0	108.66535997390747	1.000154972076416
9	83.66225600242615	movie	1		244	7.0	2.5	/experiments/knapen_AOT/AOT_stimuli/rescaled_final/0265_fw.mp4	0.0	109.66551494598389	2.4920899868011475
9	84.04715085029602	pulse	1	t		7.0	2.5	/experiments/knapen_AOT/AOT_stimuli/rescaled_final/0265_fw.mp4	0.0	110.05040979385376	
9	85.64620685577393	pulse	1	t		7.0	2.5	/experiments/knapen_AOT/AOT_stimuli/rescaled_final/0265_fw.mp4	0.0	111.64946579933167	
9	86.1543459892273	fix_post	2		12	7.0	2.5	/experiments/knapen_AOT/AOT_stimuli/rescaled_final/0265_fw.mp4	0.0	112.15760493278503	0.09998703002929688
10	86.25433301925659	fix_pre	0		120	8.0	2.5	/experiments/knapen_AOT/AOT_stimuli/rescaled_final/0799_rv.mp4	0.0	112.25759196281433	1.000166893005371
10	87.246346950531	pulse	0	t		8.0	2.5	/experiments/knapen_AOT/AOT_stimuli/rescaled_final/0799_rv.mp4	0.0	113.24960589408875	
10	87.25449991226196	movie	1		244	8.0	2.5	/experiments/knapen_AOT/AOT_stimuli/rescaled_final/0799_rv.mp4	0.0	113.2577588558197	2.5087130069732666
10	88.84839391708374	pulse	1	t		8.0	2.5	/experiments/knapen_AOT/AOT_stimuli/rescaled_final/0799_rv.mp4	0.0	114.85165286064148	
10	89.76321291923523	fix_post	2		12	8.0	2.5	/experiments/knapen_AOT/AOT_stimuli/rescaled_final/0799_rv.mp4	0.0	115.76647186279297	0.09998703002929688
11	89.86319994926453	fix_pre	0		120	9.0	2.5	/experiments/knapen_AOT/AOT_stimuli/rescaled_final/0545_rv.mp4	0.0	115.86645889282227	1.000180959701538
11	90.44688105583191	pulse	0	t		9.0	2.5	/experiments/knapen_AOT/AOT_stimuli/rescaled_final/0545_rv.mp4	0.0	116.45013999938965	
11	90.86338090896606	movie	1		244	9.0	2.5	/experiments/knapen_AOT/AOT_stimuli/rescaled_final/0545_rv.mp4	0.0	116.8666398525238	2.5004119873046875
11	92.04715204238892	pulse	1	t		9.0	2.5	/experiments/knapen_AOT/AOT_stimuli/rescaled_final/0545_rv.mp4	0.0	118.05041098594666	
11	93.36379289627075	fix_post	2		12	9.0	2.5	/experiments/knapen_AOT/AOT_stimuli/rescaled_final/0545_rv.mp4	0.0	119.36705183982849	0.09996294975280762
12	93.46375584602356	fix_pre	0		120	10.0	2.5	/experiments/knapen_AOT/AOT_stimuli/rescaled_final/1605_rv.mp4	0.0	119.4670147895813	1.000150203704834
12	93.64732599258423	pulse	0	t		10.0	2.5	/experiments/knapen_AOT/AOT_stimuli/rescaled_final/1605_rv.mp4	0.0	119.65058493614197	
12	94.4639060497284	movie	1		244	10.0	2.5	/experiments/knapen_AOT/AOT_stimuli/rescaled_final/1605_rv.mp4	0.0	120.46716499328613	2.5003669261932373
12	95.24759006500244	pulse	1	t		10.0	2.5	/experiments/knapen_AOT/AOT_stimuli/rescaled_final/1605_rv.mp4	0.0	121.25084900856018	
12	96.8512659072876	pulse	1	t		10.0	2.5	/experiments/knapen_AOT/AOT_stimuli/rescaled_final/1605_rv.mp4	0.0	122.85452485084534	
12	96.96427297592163	fix_post	2		12	10.0	2.5	/experiments/knapen_AOT/AOT_stimuli/rescaled_final/1605_rv.mp4	0.0	122.96753191947937	0.09999990463256836
13	97.0642728805542	fix_pre	0		119	11.0	2.5	/experiments/knapen_AOT/AOT_stimuli/rescaled_final/1080_rv.mp4	0.0	123.06753182411194	0.991832971572876
13	98.05610585212708	movie	1		244	11.0	2.5	/experiments/knapen_AOT/AOT_stimuli/rescaled_final/1080_rv.mp4	0.0	124.05936479568481	2.5003511905670166
13	98.44429898262024	pulse	1	t		11.0	2.5	/experiments/knapen_AOT/AOT_stimuli/rescaled_final/1080_rv.mp4	0.0	124.44755792617798	
13	100.04829406738281	pulse	1	t		11.0	2.5	/experiments/knapen_AOT/AOT_stimuli/rescaled_final/1080_rv.mp4	0.0	126.05155301094055	
13	100.55645704269409	fix_post	2		12	11.0	2.5	/experiments/knapen_AOT/AOT_stimuli/rescaled_final/1080_rv.mp4	0.0	126.55971598625183	0.10002493858337402
14	100.65648198127747	fix_pre	0		120	12.0	2.5	/experiments/knapen_AOT/AOT_stimuli/rescaled_final/0890_rv.mp4	0.0	126.6597409248352	1.000154972076416
14	101.64854001998901	pulse	0	t		12.0	2.5	/experiments/knapen_AOT/AOT_stimuli/rescaled_final/0890_rv.mp4	0.0	127.65179896354675	
14	101.65663695335388	movie	1		245	12.0	2.5	/experiments/knapen_AOT/AOT_stimuli/rescaled_final/0890_rv.mp4	0.0	127.65989589691162	2.5087790489196777
14	103.24972105026245	pulse	1	t		12.0	2.5	/experiments/knapen_AOT/AOT_stimuli/rescaled_final/0890_rv.mp4	0.0	129.2529799938202	
14	104.16541600227356	fix_post	2		12	12.0	2.5	/experiments/knapen_AOT/AOT_stimuli/rescaled_final/0890_rv.mp4	0.0	130.1686749458313	0.09991002082824707
15	104.2653260231018	fix_pre	0		120	13.0	2.5	/experiments/knapen_AOT/AOT_stimuli/rescaled_final/1667_fw.mp4	0.0	130.26858496665955	1.0002188682556152
15	104.84908294677734	pulse	0	t		13.0	2.5	/experiments/knapen_AOT/AOT_stimuli/rescaled_final/1667_fw.mp4	0.0	130.85234189033508	
15	105.26554489135742	movie	1		244	13.0	2.5	/experiments/knapen_AOT/AOT_stimuli/rescaled_final/1667_fw.mp4	0.0	131.26880383491516	2.5003089904785156
15	106.44927787780762	pulse	1	t		13.0	2.5	/experiments/knapen_AOT/AOT_stimuli/rescaled_final/1667_fw.mp4	0.0	132.45253682136536	
15	107.76585388183594	fix_post	2		12	13.0	2.5	/experiments/knapen_AOT/AOT_stimuli/rescaled_final/1667_fw.mp4	0.0	133.76911282539368	0.10003805160522461
16	107.86589193344116	fix_pre	0		120	14.0	2.5	blank	1.0	133.8691508769989	1.0001771450042725
16	108.04951286315918	pulse	0	t		14.0	2.5	blank	1.0	134.05277180671692	
16	108.86606907844543	movie	1		300	14.0	2.5	blank	1.0	134.86932802200317	2.5003559589385986
16	109.64980888366699	pulse	1	t		14.0	2.5	blank	1.0	135.65306782722473	
16	111.2500479221344	pulse	1	t		14.0	2.5	blank	1.0	137.25330686569214	
16	111.36642503738403	fix_post	2		12	14.0	2.5	blank	1.0	137.36968398094177	0.10007286071777344
17	111.4664978981018	fix_pre	0		120	15.0	2.5	/experiments/knapen_AOT/AOT_stimuli/rescaled_final/0264_fw.mp4	0.0	137.46975684165955	1.0000691413879395
17	112.46656703948975	movie	1		242	15.0	2.5	/experiments/knapen_AOT/AOT_stimuli/rescaled_final/0264_fw.mp4	0.0	138.46982598304749	2.49210786819458
17	112.85132193565369	pulse	1	t		15.0	2.5	/experiments/knapen_AOT/AOT_stimuli/rescaled_final/0264_fw.mp4	0.0	138.85458087921143	
17	114.44297385215759	pulse	1	t		15.0	2.5	/experiments/knapen_AOT/AOT_stimuli/rescaled_final/0264_fw.mp4	0.0	140.44623279571533	
17	114.95867490768433	fix_post	2		12	15.0	2.5	/experiments/knapen_AOT/AOT_stimuli/rescaled_final/0264_fw.mp4	0.0	140.96193385124207	0.09999513626098633
18	115.05867004394531	fix_pre	0		118	16.0	2.5	/experiments/knapen_AOT/AOT_stimuli/rescaled_final/1672_rv.mp4	0.0	141.06192898750305	1.0001468658447266
18	116.04311490058899	pulse	0	t		16.0	2.5	/experiments/knapen_AOT/AOT_stimuli/rescaled_final/1672_rv.mp4	0.0	142.04637384414673	
18	116.05881690979004	movie	1		244	16.0	2.5	/experiments/knapen_AOT/AOT_stimuli/rescaled_final/1672_rv.mp4	0.0	142.06207585334778	2.5086519718170166
18	117.65132904052734	pulse	1	t		16.0	2.5	/experiments/knapen_AOT/AOT_stimuli/rescaled_final/1672_rv.mp4	0.0	143.65458798408508	
18	118.56746888160706	fix_post	2		12	16.0	2.5	/experiments/knapen_AOT/AOT_stimuli/rescaled_final/1672_rv.mp4	0.0	144.5707278251648	0.10007810592651367
19	118.66754698753357	fix_pre	0		120	17.0	2.5	/experiments/knapen_AOT/AOT_stimuli/rescaled_final/2085_fw.mp4	0.0	144.6708059310913	1.0001399517059326
19	119.24355387687683	pulse	0	t		17.0	2.5	/experiments/knapen_AOT/AOT_stimuli/rescaled_final/2085_fw.mp4	0.0	145.24681282043457	
19	119.6676869392395	movie	1		244	17.0	2.5	/experiments/knapen_AOT/AOT_stimuli/rescaled_final/2085_fw.mp4	0.0	145.67094588279724	2.5003631114959717
19	120.84346795082092	pulse	1	t		17.0	2.5	/experiments/knapen_AOT/AOT_stimuli/rescaled_final/2085_fw.mp4	0.0	146.84672689437866	
19	122.16805005073547	fix_post	2		12	17.0	2.5	/experiments/knapen_AOT/AOT_stimuli/rescaled_final/2085_fw.mp4	0.0	148.1713089942932	0.09997987747192383
20	122.2680299282074	fix_pre	0		120	18.0	2.5	/experiments/knapen_AOT/AOT_stimuli/rescaled_final/0149_rv.mp4	0.0	148.27128887176514	1.0001509189605713
20	122.44319605827332	pulse	0	t		18.0	2.5	/experiments/knapen_AOT/AOT_stimuli/rescaled_final/0149_rv.mp4	0.0	148.44645500183105	
20	123.26818084716797	movie	1		244	18.0	2.5	/experiments/knapen_AOT/AOT_stimuli/rescaled_final/0149_rv.mp4	0.0	149.2714397907257	2.500469207763672
20	124.04350304603577	pulse	1	t		18.0	2.5	/experiments/knapen_AOT/AOT_stimuli/rescaled_final/0149_rv.mp4	0.0	150.0467619895935	
20	125.64386796951294	pulse	1	t		18.0	2.5	/experiments/knapen_AOT/AOT_stimuli/rescaled_final/0149_rv.mp4	0.0	151.64712691307068	
20	125.76865005493164	fix_post	2		12	18.0	2.5	/experiments/knapen_AOT/AOT_stimuli/rescaled_final/0149_rv.mp4	0.0	151.77190899848938	0.10000181198120117
21	125.86865186691284	fix_pre	0		120	19.0	2.5	blank	1.0	151.87191081047058	1.0001070499420166
21	126.86875891685486	movie	1		299	19.0	2.5	blank	1.0	152.8720178604126	2.492074966430664
21	127.24406504631042	pulse	1	t		19.0	2.5	blank	1.0	153.24732398986816	
21	128.84422397613525	pulse	1	t		19.0	2.5	blank	1.0	154.847482919693	
21	129.36083388328552	fix_post	2		12	19.0	2.5	blank	1.0	155.36409282684326	0.09997010231018066
22	129.4608039855957	fix_pre	0		119	20.0	2.5	/experiments/knapen_AOT/AOT_stimuli/rescaled_final/0852_rv.mp4	0.0	155.46406292915344	0.9918160438537598
22	130.44445490837097	pulse	0	t		20.0	2.5	/experiments/knapen_AOT/AOT_stimuli/rescaled_final/0852_rv.mp4	0.0	156.4477138519287	
22	130.45262002944946	movie	1		244	20.0	2.5	/experiments/knapen_AOT/AOT_stimuli/rescaled_final/0852_rv.mp4	0.0	156.4558789730072	2.5086629390716553
22	132.04506492614746	pulse	1	t		20.0	2.5	/experiments/knapen_AOT/AOT_stimuli/rescaled_final/0852_rv.mp4	0.0	158.0483238697052	
22	132.96128296852112	fix_post	2		12	20.0	2.5	/experiments/knapen_AOT/AOT_stimuli/rescaled_final/0852_rv.mp4	0.0	158.96454191207886	0.10006308555603027
23	133.06134605407715	fix_pre	0		120	21.0	2.5	/experiments/knapen_AOT/AOT_stimuli/rescaled_final/1325_rv.mp4	0.0	159.0646049976349	1.0001378059387207
23	133.64508485794067	pulse	0	t		21.0	2.5	/experiments/knapen_AOT/AOT_stimuli/rescaled_final/1325_rv.mp4	0.0	159.6483438014984	
23	134.06148386001587	movie	1		243	21.0	2.5	/experiments/knapen_AOT/AOT_stimuli/rescaled_final/1325_rv.mp4	0.0	160.0647428035736	2.500375986099243
23	135.24532008171082	pulse	1	t		21.0	2.5	/experiments/knapen_AOT/AOT_stimuli/rescaled_final/1325_rv.mp4	0.0	161.24857902526855	
23	136.5618598461151	fix_post	2		12	21.0	2.5	/experiments/knapen_AOT/AOT_stimuli/rescaled_final/1325_rv.mp4	0.0	162.56511878967285	0.10002422332763672
24	136.66188406944275	fix_pre	0		120	22.0	2.5	/experiments/knapen_AOT/AOT_stimuli/rescaled_final/1369_rv.mp4	0.0	162.6651430130005	1.0001637935638428
24	136.8453929424286	pulse	0	t		22.0	2.5	/experiments/knapen_AOT/AOT_stimuli/rescaled_final/1369_rv.mp4	0.0	162.84865188598633	
24	137.6620478630066	movie	1		243	22.0	2.5	/experiments/knapen_AOT/AOT_stimuli/rescaled_final/1369_rv.mp4	0.0	163.66530680656433	2.5003721714019775
24	138.44576406478882	pulse	1	t		22.0	2.5	/experiments/knapen_AOT/AOT_stimuli/rescaled_final/1369_rv.mp4	0.0	164.44902300834656	
24	140.04580903053284	pulse	1	t		22.0	2.5	/experiments/knapen_AOT/AOT_stimuli/rescaled_final/1369_rv.mp4	0.0	166.04906797409058	
24	140.16242003440857	fix_post	2		12	22.0	2.5	/experiments/knapen_AOT/AOT_stimuli/rescaled_final/1369_rv.mp4	0.0	166.1656789779663	0.09996485710144043
25	140.26238489151	fix_pre	0		119	23.0	2.5	/experiments/knapen_AOT/AOT_stimuli/rescaled_final/0177_rv.mp4	0.0	166.26564383506775	0.9918301105499268
25	141.25421500205994	movie	1		245	23.0	2.5	/experiments/knapen_AOT/AOT_stimuli/rescaled_final/0177_rv.mp4	0.0	167.25747394561768	2.500454902648926
25	141.6463429927826	pulse	1	t		23.0	2.5	/experiments/knapen_AOT/AOT_stimuli/rescaled_final/0177_rv.mp4	0.0	167.64960193634033	
25	143.24635195732117	pulse	1	t		23.0	2.5	/experiments/knapen_AOT/AOT_stimuli/rescaled_final/0177_rv.mp4	0.0	169.2496109008789	
25	143.75466990470886	fix_post	2		12	23.0	2.5	/experiments/knapen_AOT/AOT_stimuli/rescaled_final/0177_rv.mp4	0.0	169.7579288482666	0.09992194175720215
26	143.85459184646606	fix_pre	0		120	24.0	2.5	/experiments/knapen_AOT/AOT_stimuli/rescaled_final/0799_fw.mp4	0.0	169.8578507900238	1.0002291202545166
26	144.84657406806946	pulse	0	t		24.0	2.5	/experiments/knapen_AOT/AOT_stimuli/rescaled_final/0799_fw.mp4	0.0	170.8498330116272	
26	144.85482096672058	movie	1		247	24.0	2.5	/experiments/knapen_AOT/AOT_stimuli/rescaled_final/0799_fw.mp4	0.0	170.85807991027832	2.5086100101470947
26	146.44653797149658	pulse	1	t		24.0	2.5	/experiments/knapen_AOT/AOT_stimuli/rescaled_final/0799_fw.mp4	0.0	172.44979691505432	
26	147.36343097686768	fix_post	2		12	24.0	2.5	/experiments/knapen_AOT/AOT_stimuli/rescaled_final/0799_fw.mp4	0.0	173.36668992042542	0.10008406639099121
27	147.46351504325867	fix_pre	0		120	25.0	2.5	/experiments/knapen_AOT/AOT_stimuli/rescaled_final/1655_rv.mp4	0.0	173.4667739868164	1.000166893005371
27	148.04724407196045	pulse	0	t		25.0	2.5	/experiments/knapen_AOT/AOT_stimuli/rescaled_final/1655_rv.mp4	0.0	174.0505030155182	
27	148.46368193626404	movie	1		244	25.0	2.5	/experiments/knapen_AOT/AOT_stimuli/rescaled_final/1655_rv.mp4	0.0	174.46694087982178	2.500312089920044
27	149.64739894866943	pulse	1	t		25.0	2.5	/experiments/knapen_AOT/AOT_stimuli/rescaled_final/1655_rv.mp4	0.0	175.65065789222717	
27	150.96399402618408	fix_post	2		12	25.0	2.5	/experiments/knapen_AOT/AOT_stimuli/rescaled_final/1655_rv.mp4	0.0	176.96725296974182	0.10003304481506348
28	151.06402707099915	fix_pre	0		120	26.0	2.5	/experiments/knapen_AOT/AOT_stimuli/rescaled_final/0770_fw.mp4	0.0	177.06728601455688	1.000135898590088
28	151.2475130558014	pulse	0	t		26.0	2.5	/experiments/knapen_AOT/AOT_stimuli/rescaled_final/0770_fw.mp4	0.0	177.25077199935913	
28	152.06416296958923	movie	1		248	26.0	2.5	/experiments/knapen_AOT/AOT_stimuli/rescaled_final/0770_fw.mp4	0.0	178.06742191314697	2.5003719329833984
28	152.84779405593872	pulse	1	t		26.0	2.5	/experiments/knapen_AOT/AOT_stimuli/rescaled_final/0770_fw.mp4	0.0	178.85105299949646	
28	154.44810891151428	pulse	1	t		26.0	2.5	/experiments/knapen_AOT/AOT_stimuli/rescaled_final/0770_fw.mp4	0.0	180.45136785507202	
28	154.56453490257263	fix_post	2		12	26.0	2.5	/experiments/knapen_AOT/AOT_stimuli/rescaled_final/0770_fw.mp4	0.0	180.56779384613037	0.10000205039978027
29	154.6645369529724	fix_pre	0		120	27.0	2.5	blank	1.0	180.66779589653015	1.0002009868621826
29	155.6647379398346	movie	1		299	27.0	2.5	blank	1.0	181.66799688339233	2.4920389652252197
29	156.04825687408447	pulse	1	t		27.0	2.5	blank	1.0	182.0515158176422	
29	157.6484980583191	pulse	1	t		27.0	2.5	blank	1.0	183.65175700187683	
29	158.15677690505981	fix_post	2		12	27.0	2.5	blank	1.0	184.16003584861755	0.09994912147521973
30	158.25672602653503	fix_pre	0		120	28.0	2.5	/experiments/knapen_AOT/AOT_stimuli/rescaled_final/1917_fw.mp4	0.0	184.25998497009277	1.0002100467681885
30	159.24880003929138	pulse	0	t		28.0	2.5	/experiments/knapen_AOT/AOT_stimuli/rescaled_final/1917_fw.mp4	0.0	185.25205898284912	
30	159.25693607330322	movie	1		251	28.0	2.5	/experiments/knapen_AOT/AOT_stimuli/rescaled_final/1917_fw.mp4	0.0	185.26019501686096	2.5086708068847656
30	160.8498239517212	pulse	1	t		28.0	2.5	/experiments/knapen_AOT/AOT_stimuli/rescaled_final/1917_fw.mp4	0.0	186.85308289527893	
30	161.765606880188	fix_post	2		12	28.0	2.5	/experiments/knapen_AOT/AOT_stimuli/rescaled_final/1917_fw.mp4	0.0	187.76886582374573	0.10002613067626953
31	161.86563301086426	fix_pre	0		120	29.0	2.5	/experiments/knapen_AOT/AOT_stimuli/rescaled_final/0177_fw.mp4	0.0	187.868891954422	1.0001368522644043
31	162.44937705993652	pulse	0	t		29.0	2.5	/experiments/knapen_AOT/AOT_stimuli/rescaled_final/0177_fw.mp4	0.0	188.45263600349426	
31	162.86576986312866	movie	1		245	29.0	2.5	/experiments/knapen_AOT/AOT_stimuli/rescaled_final/0177_fw.mp4	0.0	188.8690288066864	2.5003721714019775
31	164.04962301254272	pulse	1	t		29.0	2.5	/experiments/knapen_AOT/AOT_stimuli/rescaled_final/0177_fw.mp4	0.0	190.05288195610046	
31	165.36614203453064	fix_post	2		12	29.0	2.5	/experiments/knapen_AOT/AOT_stimuli/rescaled_final/0177_fw.mp4	0.0	191.36940097808838	0.10001993179321289
32	165.46616196632385	fix_pre	0		120	30.0	2.5	/experiments/knapen_AOT/AOT_stimuli/rescaled_final/1917_rv.mp4	0.0	191.4694209098816	1.0001840591430664
32	165.6497449874878	pulse	0	t		30.0	2.5	/experiments/knapen_AOT/AOT_stimuli/rescaled_final/1917_rv.mp4	0.0	191.65300393104553	
32	166.46634602546692	movie	1		247	30.0	2.5	/experiments/knapen_AOT/AOT_stimuli/rescaled_final/1917_rv.mp4	0.0	192.46960496902466	2.5003669261932373
32	167.24255394935608	pulse	1	t		30.0	2.5	/experiments/knapen_AOT/AOT_stimuli/rescaled_final/1917_rv.mp4	0.0	193.24581289291382	
32	168.84281992912292	pulse	1	t		30.0	2.5	/experiments/knapen_AOT/AOT_stimuli/rescaled_final/1917_rv.mp4	0.0	194.84607887268066	
32	168.96671295166016	fix_post	2		12	30.0	2.5	/experiments/knapen_AOT/AOT_stimuli/rescaled_final/1917_rv.mp4	0.0	194.9699718952179	0.09998893737792969
33	169.0667018890381	fix_pre	0		120	31.0	2.5	/experiments/knapen_AOT/AOT_stimuli/rescaled_final/2106_fw.mp4	0.0	195.06996083259583	1.000169038772583
33	170.06687092781067	movie	1		244	31.0	2.5	/experiments/knapen_AOT/AOT_stimuli/rescaled_final/2106_fw.mp4	0.0	196.0701298713684	2.492116928100586
33	170.4509470462799	pulse	1	t		31.0	2.5	/experiments/knapen_AOT/AOT_stimuli/rescaled_final/2106_fw.mp4	0.0	196.45420598983765	
33	172.0426459312439	pulse	1	t		31.0	2.5	/experiments/knapen_AOT/AOT_stimuli/rescaled_final/2106_fw.mp4	0.0	198.04590487480164	
33	172.55898785591125	fix_post	2		12	31.0	2.5	/experiments/knapen_AOT/AOT_stimuli/rescaled_final/2106_fw.mp4	0.0	198.562246799469	0.09993600845336914
34	172.65892386436462	fix_pre	0		119	32.0	2.5	/experiments/knapen_AOT/AOT_stimuli/rescaled_final/0464_fw.mp4	0.0	198.66218280792236	0.9918110370635986
34	173.64257907867432	pulse	0	t		32.0	2.5	/experiments/knapen_AOT/AOT_stimuli/rescaled_final/0464_fw.mp4	0.0	199.64583802223206	
34	173.65073490142822	movie	1		246	32.0	2.5	/experiments/knapen_AOT/AOT_stimuli/rescaled_final/0464_fw.mp4	0.0	199.65399384498596	2.5086920261383057
34	175.24391889572144	pulse	1	t		32.0	2.5	/experiments/knapen_AOT/AOT_stimuli/rescaled_final/0464_fw.mp4	0.0	201.24717783927917	
34	176.15942692756653	fix_post	2		12	32.0	2.5	/experiments/knapen_AOT/AOT_stimuli/rescaled_final/0464_fw.mp4	0.0	202.16268587112427	0.10115408897399902
35	176.26058101654053	fix_pre	0		118	33.0	2.5	/experiments/knapen_AOT/AOT_stimuli/rescaled_final/0075_fw.mp4	0.0	202.26383996009827	0.9989888668060303
35	176.84301686286926	pulse	0	t		33.0	2.5	/experiments/knapen_AOT/AOT_stimuli/rescaled_final/0075_fw.mp4	0.0	202.846275806427	
35	177.25956988334656	movie	1		246	33.0	2.5	/experiments/knapen_AOT/AOT_stimuli/rescaled_final/0075_fw.mp4	0.0	203.2628288269043	2.50045108795166
35	178.44333505630493	pulse	1	t		33.0	2.5	/experiments/knapen_AOT/AOT_stimuli/rescaled_final/0075_fw.mp4	0.0	204.44659399986267	
35	179.76002097129822	fix_post	2		12	33.0	2.5	/experiments/knapen_AOT/AOT_stimuli/rescaled_final/0075_fw.mp4	0.0	205.76327991485596	0.0999600887298584
36	179.85998106002808	fix_pre	0		120	34.0	2.5	blank	1.0	205.86324000358582	1.000147819519043
36	180.04354691505432	pulse	0	t		34.0	2.5	blank	1.0	206.04680585861206	
36	180.86012887954712	movie	1		300	34.0	2.5	blank	1.0	206.86338782310486	2.500385046005249
36	181.643816947937	pulse	1	t		34.0	2.5	blank	1.0	207.64707589149475	
36	183.24395895004272	pulse	1	t		34.0	2.5	blank	1.0	209.24721789360046	
36	183.36051392555237	fix_post	2		12	34.0	2.5	blank	1.0	209.3637728691101	0.09998798370361328
37	183.46050190925598	fix_pre	0		120	35.0	2.5	/experiments/knapen_AOT/AOT_stimuli/rescaled_final/1198_fw.mp4	0.0	209.46376085281372	1.000162124633789
37	184.46066403388977	movie	1		244	35.0	2.5	/experiments/knapen_AOT/AOT_stimuli/rescaled_final/1198_fw.mp4	0.0	210.4639229774475	2.4920358657836914
37	184.84461998939514	pulse	1	t		35.0	2.5	/experiments/knapen_AOT/AOT_stimuli/rescaled_final/1198_fw.mp4	0.0	210.84787893295288	
37	186.44456505775452	pulse	1	t		35.0	2.5	/experiments/knapen_AOT/AOT_stimuli/rescaled_final/1198_fw.mp4	0.0	212.44782400131226	
37	186.95269989967346	fix_post	2		12	35.0	2.5	/experiments/knapen_AOT/AOT_stimuli/rescaled_final/1198_fw.mp4	0.0	212.9559588432312	0.10002899169921875
38	187.05272889137268	fix_pre	0		120	36.0	2.5	/experiments/knapen_AOT/AOT_stimuli/rescaled_final/1677_rv.mp4	0.0	213.05598783493042	1.000162124633789
38	188.04483294487	pulse	0	t		36.0	2.5	/experiments/knapen_AOT/AOT_stimuli/rescaled_final/1677_rv.mp4	0.0	214.04809188842773	
38	188.05289101600647	movie	1		246	36.0	2.5	/experiments/knapen_AOT/AOT_stimuli/rescaled_final/1677_rv.mp4	0.0	214.0561499595642	2.5086898803710938
38	189.6453719139099	pulse	1	t		36.0	2.5	/experiments/knapen_AOT/AOT_stimuli/rescaled_final/1677_rv.mp4	0.0	215.64863085746765	
38	190.56158089637756	fix_post	2		12	36.0	2.5	/experiments/knapen_AOT/AOT_stimuli/rescaled_final/1677_rv.mp4	0.0	216.5648398399353	0.09999895095825195
39	190.66157984733582	fix_pre	0		120	37.0	2.5	/experiments/knapen_AOT/AOT_stimuli/rescaled_final/1655_fw.mp4	0.0	216.66483879089355	1.0001611709594727
39	191.2451570034027	pulse	0	t		37.0	2.5	/experiments/knapen_AOT/AOT_stimuli/rescaled_final/1655_fw.mp4	0.0	217.24841594696045	
39	191.6617410182953	movie	1		245	37.0	2.5	/experiments/knapen_AOT/AOT_stimuli/rescaled_final/1655_fw.mp4	0.0	217.66499996185303	2.5003459453582764
39	192.84552693367004	pulse	1	t		37.0	2.5	/experiments/knapen_AOT/AOT_stimuli/rescaled_final/1655_fw.mp4	0.0	218.84878587722778	
39	194.16208696365356	fix_post	2		12	37.0	2.5	/experiments/knapen_AOT/AOT_stimuli/rescaled_final/1655_fw.mp4	0.0	220.1653459072113	0.10001301765441895
40	194.26209998130798	fix_pre	0		120	38.0	2.5	/experiments/knapen_AOT/AOT_stimuli/rescaled_final/0952_fw.mp4	0.0	220.26535892486572	1.000180959701538
40	194.4457070827484	pulse	0	t		38.0	2.5	/experiments/knapen_AOT/AOT_stimuli/rescaled_final/0952_fw.mp4	0.0	220.44896602630615	
40	195.26228094100952	movie	1		248	38.0	2.5	/experiments/knapen_AOT/AOT_stimuli/rescaled_final/0952_fw.mp4	0.0	221.26553988456726	2.5003960132598877
40	196.04605793952942	pulse	1	t		38.0	2.5	/experiments/knapen_AOT/AOT_stimuli/rescaled_final/0952_fw.mp4	0.0	222.04931688308716	
40	197.64617800712585	pulse	1	t		38.0	2.5	/experiments/knapen_AOT/AOT_stimuli/rescaled_final/0952_fw.mp4	0.0	223.6494369506836	
40	197.7626769542694	fix_post	2		12	38.0	2.5	/experiments/knapen_AOT/AOT_stimuli/rescaled_final/0952_fw.mp4	0.0	223.76593589782715	0.10000395774841309
41	197.86268091201782	fix_pre	0		120	39.0	2.5	/experiments/knapen_AOT/AOT_stimuli/rescaled_final/1672_rv.mp4	0.0	223.86593985557556	1.0001280307769775
41	198.8628089427948	movie	1		243	39.0	2.5	/experiments/knapen_AOT/AOT_stimuli/rescaled_final/1672_rv.mp4	0.0	224.86606788635254	2.4920690059661865
41	199.24751806259155	pulse	1	t		39.0	2.5	/experiments/knapen_AOT/AOT_stimuli/rescaled_final/1672_rv.mp4	0.0	225.2507770061493	
41	200.84675908088684	pulse	1	t		39.0	2.5	/experiments/knapen_AOT/AOT_stimuli/rescaled_final/1672_rv.mp4	0.0	226.85001802444458	
41	201.354877948761	fix_post	2		12	39.0	2.5	/experiments/knapen_AOT/AOT_stimuli/rescaled_final/1672_rv.mp4	0.0	227.35813689231873	0.09999799728393555
42	201.45487594604492	fix_pre	0		120	40.0	2.5	/experiments/knapen_AOT/AOT_stimuli/rescaled_final/0902_fw.mp4	0.0	227.45813488960266	1.0001420974731445
42	202.44701600074768	pulse	0	t		40.0	2.5	/experiments/knapen_AOT/AOT_stimuli/rescaled_final/0902_fw.mp4	0.0	228.45027494430542	
42	202.45501804351807	movie	1		249	40.0	2.5	/experiments/knapen_AOT/AOT_stimuli/rescaled_final/0902_fw.mp4	0.0	228.4582769870758	2.5087618827819824
42	204.04808807373047	pulse	1	t		40.0	2.5	/experiments/knapen_AOT/AOT_stimuli/rescaled_final/0902_fw.mp4	0.0	230.0513470172882	
42	204.96377992630005	fix_post	2		12	40.0	2.5	/experiments/knapen_AOT/AOT_stimuli/rescaled_final/0902_fw.mp4	0.0	230.9670388698578	0.09995698928833008
43	205.06373691558838	fix_pre	0		120	41.0	2.5	/experiments/knapen_AOT/AOT_stimuli/rescaled_final/1849_rv.mp4	0.0	231.06699585914612	1.0002000331878662
43	205.64734196662903	pulse	0	t		41.0	2.5	/experiments/knapen_AOT/AOT_stimuli/rescaled_final/1849_rv.mp4	0.0	231.65060091018677	
43	206.06393694877625	movie	1		244	41.0	2.5	/experiments/knapen_AOT/AOT_stimuli/rescaled_final/1849_rv.mp4	0.0	232.06719589233398	2.5003039836883545
43	207.24779987335205	pulse	1	t		41.0	2.5	/experiments/knapen_AOT/AOT_stimuli/rescaled_final/1849_rv.mp4	0.0	233.2510588169098	
43	208.5642409324646	fix_post	2		12	41.0	2.5	/experiments/knapen_AOT/AOT_stimuli/rescaled_final/1849_rv.mp4	0.0	234.56749987602234	0.1000070571899414
44	208.66424798965454	fix_pre	0		120	42.0	2.5	blank	1.0	234.66750693321228	1.0002470016479492
44	208.84796905517578	pulse	0	t		42.0	2.5	blank	1.0	234.85122799873352	
44	209.6644949913025	movie	1		300	42.0	2.5	blank	1.0	235.66775393486023	2.5003390312194824
44	210.44810700416565	pulse	1	t		42.0	2.5	blank	1.0	236.4513659477234	
44	212.04826307296753	pulse	1	t		42.0	2.5	blank	1.0	238.05152201652527	
44	212.16483402252197	fix_post	2		12	42.0	2.5	blank	1.0	238.1680929660797	0.09995889663696289
45	212.26479291915894	fix_pre	0		120	43.0	2.5	/experiments/knapen_AOT/AOT_stimuli/rescaled_final/1487_fw.mp4	0.0	238.26805186271667	1.0001580715179443
45	213.26495099067688	movie	1		246	43.0	2.5	/experiments/knapen_AOT/AOT_stimuli/rescaled_final/1487_fw.mp4	0.0	239.26820993423462	2.4920239448547363
45	213.6488950252533	pulse	1	t		43.0	2.5	/experiments/knapen_AOT/AOT_stimuli/rescaled_final/1487_fw.mp4	0.0	239.65215396881104	
45	215.24888586997986	pulse	1	t		43.0	2.5	/experiments/knapen_AOT/AOT_stimuli/rescaled_final/1487_fw.mp4	0.0	241.2521448135376	
45	215.75697493553162	fix_post	2		12	43.0	2.5	/experiments/knapen_AOT/AOT_stimuli/rescaled_final/1487_fw.mp4	0.0	241.76023387908936	0.10005712509155273
46	215.85703206062317	fix_pre	0		120	44.0	2.5	/experiments/knapen_AOT/AOT_stimuli/rescaled_final/1205_fw.mp4	0.0	241.8602910041809	1.0001509189605713
46	216.8491609096527	pulse	0	t		44.0	2.5	/experiments/knapen_AOT/AOT_stimuli/rescaled_final/1205_fw.mp4	0.0	242.85241985321045	
46	216.85718297958374	movie	1		247	44.0	2.5	/experiments/knapen_AOT/AOT_stimuli/rescaled_final/1205_fw.mp4	0.0	242.86044192314148	2.508768081665039
46	218.44983792304993	pulse	1	t		44.0	2.5	/experiments/knapen_AOT/AOT_stimuli/rescaled_final/1205_fw.mp4	0.0	244.45309686660767	
46	219.36595106124878	fix_post	2		12	44.0	2.5	/experiments/knapen_AOT/AOT_stimuli/rescaled_final/1205_fw.mp4	0.0	245.36921000480652	0.09997081756591797
47	219.4659218788147	fix_pre	0		120	45.0	2.5	/experiments/knapen_AOT/AOT_stimuli/rescaled_final/0302_fw.mp4	0.0	245.46918082237244	1.0001990795135498
47	220.04954195022583	pulse	0	t		45.0	2.5	/experiments/knapen_AOT/AOT_stimuli/rescaled_final/0302_fw.mp4	0.0	246.05280089378357	
47	220.46612095832825	movie	1		244	45.0	2.5	/experiments/knapen_AOT/AOT_stimuli/rescaled_final/0302_fw.mp4	0.0	246.469379901886	2.500274896621704
47	221.64996600151062	pulse	1	t		45.0	2.5	/experiments/knapen_AOT/AOT_stimuli/rescaled_final/0302_fw.mp4	0.0	247.65322494506836	
47	222.96639585494995	fix_post	2		12	45.0	2.5	/experiments/knapen_AOT/AOT_stimuli/rescaled_final/0302_fw.mp4	0.0	248.9696547985077	0.09998917579650879
48	223.06638503074646	fix_pre	0		120	46.0	2.5	/experiments/knapen_AOT/AOT_stimuli/rescaled_final/1659_rv.mp4	0.0	249.0696439743042	1.0001769065856934
48	223.2501139640808	pulse	0	t		46.0	2.5	/experiments/knapen_AOT/AOT_stimuli/rescaled_final/1659_rv.mp4	0.0	249.25337290763855	
48	224.06656193733215	movie	1		247	46.0	2.5	/experiments/knapen_AOT/AOT_stimuli/rescaled_final/1659_rv.mp4	0.0	250.0698208808899	2.5003740787506104
48	224.8503119945526	pulse	1	t		46.0	2.5	/experiments/knapen_AOT/AOT_stimuli/rescaled_final/1659_rv.mp4	0.0	250.85357093811035	
48	226.45044589042664	pulse	1	t		46.0	2.5	/experiments/knapen_AOT/AOT_stimuli/rescaled_final/1659_rv.mp4	0.0	252.45370483398438	
48	226.56693601608276	fix_post	2		12	46.0	2.5	/experiments/knapen_AOT/AOT_stimuli/rescaled_final/1659_rv.mp4	0.0	252.5701949596405	0.1000218391418457
49	226.6669578552246	fix_pre	0		120	47.0	2.5	blank	1.0	252.67021679878235	1.000162124633789
49	227.6671199798584	movie	1		299	47.0	2.5	blank	1.0	253.67037892341614	2.492033004760742
49	228.04320001602173	pulse	1	t		47.0	2.5	blank	1.0	254.04645895957947	
49	229.64344692230225	pulse	1	t		47.0	2.5	blank	1.0	255.64670586585999	
49	230.15915298461914	fix_post	2		12	47.0	2.5	blank	1.0	256.1624119281769	0.10000491142272949
50	230.25915789604187	fix_pre	0		120	48.0	2.5	/experiments/knapen_AOT/AOT_stimuli/rescaled_final/0551_fw.mp4	0.0	256.2624168395996	1.0001649856567383
50	231.24395203590393	pulse	0	t		48.0	2.5	/experiments/knapen_AOT/AOT_stimuli/rescaled_final/0551_fw.mp4	0.0	257.24721097946167	
50	231.2593228816986	movie	1		244	48.0	2.5	/experiments/knapen_AOT/AOT_stimuli/rescaled_final/0551_fw.mp4	0.0	257.26258182525635	2.508751153945923
50	232.85177397727966	pulse	1	t		48.0	2.5	/experiments/knapen_AOT/AOT_stimuli/rescaled_final/0551_fw.mp4	0.0	258.8550329208374	
50	233.76807403564453	fix_post	2		12	48.0	2.5	/experiments/knapen_AOT/AOT_stimuli/rescaled_final/0551_fw.mp4	0.0	259.77133297920227	0.09997797012329102
51	233.86805200576782	fix_pre	0		120	49.0	2.5	/experiments/knapen_AOT/AOT_stimuli/rescaled_final/1253_fw.mp4	0.0	259.87131094932556	1.000140905380249
51	234.44331002235413	pulse	0	t		49.0	2.5	/experiments/knapen_AOT/AOT_stimuli/rescaled_final/1253_fw.mp4	0.0	260.44656896591187	
51	234.86819291114807	movie	1		244	49.0	2.5	/experiments/knapen_AOT/AOT_stimuli/rescaled_final/1253_fw.mp4	0.0	260.8714518547058	2.500401020050049
51	236.04768204689026	pulse	1	t		49.0	2.5	/experiments/knapen_AOT/AOT_stimuli/rescaled_final/1253_fw.mp4	0.0	262.050940990448	
51	237.36859393119812	fix_post	2		12	49.0	2.5	/experiments/knapen_AOT/AOT_stimuli/rescaled_final/1253_fw.mp4	0.0	263.37185287475586	0.09997391700744629
52	237.46856784820557	fix_pre	0		118	50.0	2.5	/experiments/knapen_AOT/AOT_stimuli/rescaled_final/1278_rv.mp4	0.0	263.4718267917633	1.0001540184020996
52	237.6437840461731	pulse	0	t		50.0	2.5	/experiments/knapen_AOT/AOT_stimuli/rescaled_final/1278_rv.mp4	0.0	263.64704298973083	
52	238.46872186660767	movie	1		245	50.0	2.5	/experiments/knapen_AOT/AOT_stimuli/rescaled_final/1278_rv.mp4	0.0	264.4719808101654	2.5003910064697266
52	239.24411702156067	pulse	1	t		50.0	2.5	/experiments/knapen_AOT/AOT_stimuli/rescaled_final/1278_rv.mp4	0.0	265.2473759651184	
52	240.84431290626526	pulse	1	t		50.0	2.5	/experiments/knapen_AOT/AOT_stimuli/rescaled_final/1278_rv.mp4	0.0	266.847571849823	
52	240.9691128730774	fix_post	2		12	50.0	2.5	/experiments/knapen_AOT/AOT_stimuli/rescaled_final/1278_rv.mp4	0.0	266.97237181663513	0.09998607635498047
53	241.06909894943237	fix_pre	0		119	51.0	2.5	/experiments/knapen_AOT/AOT_stimuli/rescaled_final/1042_rv.mp4	0.0	267.0723578929901	0.991826057434082
53	242.06092500686646	movie	1		247	51.0	2.5	/experiments/knapen_AOT/AOT_stimuli/rescaled_final/1042_rv.mp4	0.0	268.0641839504242	2.5004050731658936
53	242.44509291648865	pulse	1	t		51.0	2.5	/experiments/knapen_AOT/AOT_stimuli/rescaled_final/1042_rv.mp4	0.0	268.4483518600464	
53	244.04481196403503	pulse	1	t		51.0	2.5	/experiments/knapen_AOT/AOT_stimuli/rescaled_final/1042_rv.mp4	0.0	270.0480709075928	
53	244.56133008003235	fix_post	2		12	51.0	2.5	/experiments/knapen_AOT/AOT_stimuli/rescaled_final/1042_rv.mp4	0.0	270.5645890235901	0.09997296333312988
54	244.66130304336548	fix_pre	0		119	52.0	2.5	/experiments/knapen_AOT/AOT_stimuli/rescaled_final/0139_rv.mp4	0.0	270.6645619869232	0.9918339252471924
54	245.64499807357788	pulse	0	t		52.0	2.5	/experiments/knapen_AOT/AOT_stimuli/rescaled_final/0139_rv.mp4	0.0	271.6482570171356	
54	245.65313696861267	movie	1		248	52.0	2.5	/experiments/knapen_AOT/AOT_stimuli/rescaled_final/0139_rv.mp4	0.0	271.6563959121704	2.5086779594421387
54	247.24639105796814	pulse	1	t		52.0	2.5	/experiments/knapen_AOT/AOT_stimuli/rescaled_final/0139_rv.mp4	0.0	273.2496500015259	
54	248.1618149280548	fix_post	2		12	52.0	2.5	/experiments/knapen_AOT/AOT_stimuli/rescaled_final/0139_rv.mp4	0.0	274.16507387161255	0.10003304481506348
55	248.26184797286987	fix_pre	0		120	53.0	2.5	/experiments/knapen_AOT/AOT_stimuli/rescaled_final/1806_fw.mp4	0.0	274.2651069164276	1.000148057937622
55	248.84547901153564	pulse	0	t		53.0	2.5	/experiments/knapen_AOT/AOT_stimuli/rescaled_final/1806_fw.mp4	0.0	274.8487379550934	
55	249.2619960308075	movie	1		245	53.0	2.5	/experiments/knapen_AOT/AOT_stimuli/rescaled_final/1806_fw.mp4	0.0	275.26525497436523	2.500396966934204
55	250.44581294059753	pulse	1	t		53.0	2.5	/experiments/knapen_AOT/AOT_stimuli/rescaled_final/1806_fw.mp4	0.0	276.4490718841553	
55	251.7623929977417	fix_post	2		12	53.0	2.5	/experiments/knapen_AOT/AOT_stimuli/rescaled_final/1806_fw.mp4	0.0	277.76565194129944	0.10001206398010254
56	251.8624050617218	fix_pre	0		120	54.0	2.5	blank	1.0	277.86566400527954	1.000105857849121
56	252.04606890678406	pulse	0	t		54.0	2.5	blank	1.0	278.0493278503418	
56	252.86251091957092	movie	1		300	54.0	2.5	blank	1.0	278.86576986312866	2.5003981590270996
56	253.64627385139465	pulse	1	t		54.0	2.5	blank	1.0	279.6495327949524	
56	255.24639797210693	pulse	1	t		54.0	2.5	blank	1.0	281.2496569156647	
56	255.36290907859802	fix_post	2		12	54.0	2.5	blank	1.0	281.36616802215576	0.10005879402160645
57	255.46296787261963	fix_pre	0		120	55.0	2.5	/experiments/knapen_AOT/AOT_stimuli/rescaled_final/1655_fw.mp4	0.0	281.46622681617737	1.0001230239868164
57	256.46309089660645	movie	1		243	55.0	2.5	/experiments/knapen_AOT/AOT_stimuli/rescaled_final/1655_fw.mp4	0.0	282.4663498401642	2.4920451641082764
57	256.84734296798706	pulse	1	t		55.0	2.5	/experiments/knapen_AOT/AOT_stimuli/rescaled_final/1655_fw.mp4	0.0	282.8506019115448	
57	258.4469349384308	pulse	1	t		55.0	2.5	/experiments/knapen_AOT/AOT_stimuli/rescaled_final/1655_fw.mp4	0.0	284.4501938819885	
57	258.9551360607147	fix_post	2		12	55.0	2.5	/experiments/knapen_AOT/AOT_stimuli/rescaled_final/1655_fw.mp4	0.0	284.95839500427246	0.10001587867736816
58	259.0551519393921	fix_pre	0		120	56.0	2.5	/experiments/knapen_AOT/AOT_stimuli/rescaled_final/1555_rv.mp4	0.0	285.05841088294983	1.0001139640808105
58	260.0472638607025	pulse	0	t		56.0	2.5	/experiments/knapen_AOT/AOT_stimuli/rescaled_final/1555_rv.mp4	0.0	286.05052280426025	
58	260.0552659034729	movie	1		246	56.0	2.5	/experiments/knapen_AOT/AOT_stimuli/rescaled_final/1555_rv.mp4	0.0	286.05852484703064	2.508708953857422
58	261.64786195755005	pulse	1	t		56.0	2.5	/experiments/knapen_AOT/AOT_stimuli/rescaled_final/1555_rv.mp4	0.0	287.6511209011078	
58	262.5639748573303	fix_post	2		12	56.0	2.5	/experiments/knapen_AOT/AOT_stimuli/rescaled_final/1555_rv.mp4	0.0	288.56723380088806	0.10002803802490234
59	262.6640028953552	fix_pre	0		120	57.0	2.5	/experiments/knapen_AOT/AOT_stimuli/rescaled_final/0265_rv.mp4	0.0	288.66726183891296	1.0001599788665771
59	263.2477090358734	pulse	0	t		57.0	2.5	/experiments/knapen_AOT/AOT_stimuli/rescaled_final/0265_rv.mp4	0.0	289.25096797943115	
59	263.6641628742218	movie	1		245	57.0	2.5	/experiments/knapen_AOT/AOT_stimuli/rescaled_final/0265_rv.mp4	0.0	289.66742181777954	2.5003390312194824
59	264.84798097610474	pulse	1	t		57.0	2.5	/experiments/knapen_AOT/AOT_stimuli/rescaled_final/0265_rv.mp4	0.0	290.8512399196625	
59	266.1645019054413	fix_post	2		12	57.0	2.5	/experiments/knapen_AOT/AOT_stimuli/rescaled_final/0265_rv.mp4	0.0	292.167760848999	0.10003113746643066
60	266.2645330429077	fix_pre	0		120	58.0	2.5	/experiments/knapen_AOT/AOT_stimuli/rescaled_final/1898_fw.mp4	0.0	292.26779198646545	1.0001208782196045
60	266.4481420516968	pulse	0	t		58.0	2.5	/experiments/knapen_AOT/AOT_stimuli/rescaled_final/1898_fw.mp4	0.0	292.4514009952545	
60	267.2646539211273	movie	1		246	58.0	2.5	/experiments/knapen_AOT/AOT_stimuli/rescaled_final/1898_fw.mp4	0.0	293.26791286468506	2.500380039215088
60	268.04835200309753	pulse	1	t		58.0	2.5	/experiments/knapen_AOT/AOT_stimuli/rescaled_final/1898_fw.mp4	0.0	294.0516109466553	
60	269.64866185188293	pulse	1	t		58.0	2.5	/experiments/knapen_AOT/AOT_stimuli/rescaled_final/1898_fw.mp4	0.0	295.6519207954407	
60	269.7650339603424	fix_post	2		12	58.0	2.5	/experiments/knapen_AOT/AOT_stimuli/rescaled_final/1898_fw.mp4	0.0	295.76829290390015	0.10001802444458008
61	269.865051984787	fix_pre	0		120	59.0	2.5	/experiments/knapen_AOT/AOT_stimuli/rescaled_final/1624_rv.mp4	0.0	295.8683109283447	1.0001749992370605
61	270.86522698402405	movie	1		245	59.0	2.5	/experiments/knapen_AOT/AOT_stimuli/rescaled_final/1624_rv.mp4	0.0	296.8684859275818	2.492042064666748
61	271.2492799758911	pulse	1	t		59.0	2.5	/experiments/knapen_AOT/AOT_stimuli/rescaled_final/1624_rv.mp4	0.0	297.25253891944885	
61	272.8491349220276	pulse	1	t		59.0	2.5	/experiments/knapen_AOT/AOT_stimuli/rescaled_final/1624_rv.mp4	0.0	298.8523938655853	
61	273.3572690486908	fix_post	2		12	59.0	2.5	/experiments/knapen_AOT/AOT_stimuli/rescaled_final/1624_rv.mp4	0.0	299.36052799224854	0.09998583793640137
62	273.4572548866272	fix_pre	0		120	60.0	2.5	/experiments/knapen_AOT/AOT_stimuli/rescaled_final/0176_fw.mp4	0.0	299.46051383018494	1.0001640319824219
62	274.44926500320435	pulse	0	t		60.0	2.5	/experiments/knapen_AOT/AOT_stimuli/rescaled_final/0176_fw.mp4	0.0	300.4525239467621	
62	274.4574189186096	movie	1		246	60.0	2.5	/experiments/knapen_AOT/AOT_stimuli/rescaled_final/0176_fw.mp4	0.0	300.46067786216736	2.5086920261383057
62	276.0501639842987	pulse	1	t		60.0	2.5	/experiments/knapen_AOT/AOT_stimuli/rescaled_final/0176_fw.mp4	0.0	302.05342292785645	
62	276.9661109447479	fix_post	2		12	60.0	2.5	/experiments/knapen_AOT/AOT_stimuli/rescaled_final/0176_fw.mp4	0.0	302.96936988830566	0.10003304481506348
63	277.066143989563	fix_pre	0		120	61.0	2.5	/experiments/knapen_AOT/AOT_stimuli/rescaled_final/1186_rv.mp4	0.0	303.0694029331207	1.0001180171966553
63	277.64987993240356	pulse	0	t		61.0	2.5	/experiments/knapen_AOT/AOT_stimuli/rescaled_final/1186_rv.mp4	0.0	303.6531388759613	
63	278.06626200675964	movie	1		248	61.0	2.5	/experiments/knapen_AOT/AOT_stimuli/rescaled_final/1186_rv.mp4	0.0	304.0695209503174	2.5004138946533203
63	279.25011801719666	pulse	1	t		61.0	2.5	/experiments/knapen_AOT/AOT_stimuli/rescaled_final/1186_rv.mp4	0.0	305.2533769607544	
63	280.56667590141296	fix_post	2		12	61.0	2.5	/experiments/knapen_AOT/AOT_stimuli/rescaled_final/1186_rv.mp4	0.0	306.5699348449707	0.10005998611450195
64	280.66673588752747	fix_pre	0		120	62.0	2.5	blank	1.0	306.6699948310852	1.0001189708709717
64	280.8428120613098	pulse	0	t		62.0	2.5	blank	1.0	306.84607100486755	
64	281.66685485839844	movie	1		300	62.0	2.5	blank	1.0	307.6701138019562	2.500361204147339
64	282.4429259300232	pulse	1	t		62.0	2.5	blank	1.0	308.44618487358093	
64	284.0431180000305	pulse	1	t		62.0	2.5	blank	1.0	310.04637694358826	
64	284.1672160625458	fix_post	2		12	62.0	2.5	blank	1.0	310.1704750061035	0.09998893737792969
65	284.2672049999237	fix_pre	0		120	63.0	2.5	/experiments/knapen_AOT/AOT_stimuli/rescaled_final/0943_fw.mp4	0.0	310.27046394348145	1.0001790523529053
65	285.2673840522766	movie	1		246	63.0	2.5	/experiments/knapen_AOT/AOT_stimuli/rescaled_final/0943_fw.mp4	0.0	311.27064299583435	2.491990804672241
65	285.6555030345917	pulse	1	t		63.0	2.5	/experiments/knapen_AOT/AOT_stimuli/rescaled_final/0943_fw.mp4	0.0	311.6587619781494	
65	287.2439088821411	pulse	1	t		63.0	2.5	/experiments/knapen_AOT/AOT_stimuli/rescaled_final/0943_fw.mp4	0.0	313.24716782569885	
65	287.75937485694885	fix_post	2		12	63.0	2.5	/experiments/knapen_AOT/AOT_stimuli/rescaled_final/0943_fw.mp4	0.0	313.7626338005066	0.1000981330871582
66	287.859472990036	fix_pre	0		119	64.0	2.5	/experiments/knapen_AOT/AOT_stimuli/rescaled_final/1309_fw.mp4	0.0	313.86273193359375	0.9917728900909424
66	288.8431098461151	pulse	0	t		64.0	2.5	/experiments/knapen_AOT/AOT_stimuli/rescaled_final/1309_fw.mp4	0.0	314.84636878967285	
66	288.85124588012695	movie	1		251	64.0	2.5	/experiments/knapen_AOT/AOT_stimuli/rescaled_final/1309_fw.mp4	0.0	314.8545048236847	2.508730173110962
66	290.44395303726196	pulse	1	t		64.0	2.5	/experiments/knapen_AOT/AOT_stimuli/rescaled_final/1309_fw.mp4	0.0	316.4472119808197	
66	291.3599760532379	fix_post	2		12	64.0	2.5	/experiments/knapen_AOT/AOT_stimuli/rescaled_final/1309_fw.mp4	0.0	317.36323499679565	0.09999299049377441
67	291.4599690437317	fix_pre	0		120	65.0	2.5	/experiments/knapen_AOT/AOT_stimuli/rescaled_final/0770_fw.mp4	0.0	317.46322798728943	1.0001559257507324
67	292.0437150001526	pulse	0	t		65.0	2.5	/experiments/knapen_AOT/AOT_stimuli/rescaled_final/0770_fw.mp4	0.0	318.0469739437103	
67	292.4601249694824	movie	1		257	65.0	2.5	/experiments/knapen_AOT/AOT_stimuli/rescaled_final/0770_fw.mp4	0.0	318.46338391304016	2.500386953353882
67	293.6439678668976	pulse	1	t		65.0	2.5	/experiments/knapen_AOT/AOT_stimuli/rescaled_final/0770_fw.mp4	0.0	319.6472268104553	
67	294.9605119228363	fix_post	2		12	65.0	2.5	/experiments/knapen_AOT/AOT_stimuli/rescaled_final/0770_fw.mp4	0.0	320.96377086639404	0.10007905960083008
68	295.06059098243713	fix_pre	0		120	66.0	2.5	/experiments/knapen_AOT/AOT_stimuli/rescaled_final/0711_rv.mp4	0.0	321.0638499259949	1.000079870223999
68	295.2441039085388	pulse	0	t		66.0	2.5	/experiments/knapen_AOT/AOT_stimuli/rescaled_final/0711_rv.mp4	0.0	321.24736285209656	
68	296.06067085266113	movie	1		245	66.0	2.5	/experiments/knapen_AOT/AOT_stimuli/rescaled_final/0711_rv.mp4	0.0	322.0639297962189	2.500319004058838
68	296.8442499637604	pulse	1	t		66.0	2.5	/experiments/knapen_AOT/AOT_stimuli/rescaled_final/0711_rv.mp4	0.0	322.8475089073181	
68	298.4445450305939	pulse	1	t		66.0	2.5	/experiments/knapen_AOT/AOT_stimuli/rescaled_final/0711_rv.mp4	0.0	324.4478039741516	
68	298.56098985671997	fix_post	2		12	66.0	2.5	/experiments/knapen_AOT/AOT_stimuli/rescaled_final/0711_rv.mp4	0.0	324.5642488002777	0.10008621215820312
69	298.6610760688782	fix_pre	0		118	67.0	2.5	/experiments/knapen_AOT/AOT_stimuli/rescaled_final/2085_rv.mp4	0.0	324.6643350124359	1.000126838684082
69	299.66120290756226	movie	1		244	67.0	2.5	/experiments/knapen_AOT/AOT_stimuli/rescaled_final/2085_rv.mp4	0.0	325.66446185112	2.491986036300659
69	300.0487549304962	pulse	1	t		67.0	2.5	/experiments/knapen_AOT/AOT_stimuli/rescaled_final/2085_rv.mp4	0.0	326.05201387405396	
69	301.6451199054718	pulse	1	t		67.0	2.5	/experiments/knapen_AOT/AOT_stimuli/rescaled_final/2085_rv.mp4	0.0	327.64837884902954	
69	302.1531889438629	fix_post	2		12	67.0	2.5	/experiments/knapen_AOT/AOT_stimuli/rescaled_final/2085_rv.mp4	0.0	328.15644788742065	0.10004091262817383
70	302.2532298564911	fix_pre	0		120	68.0	2.5	blank	1.0	328.2564888000488	1.0002150535583496
70	303.2452368736267	pulse	0	t		68.0	2.5	blank	1.0	329.24849581718445	
70	303.25344491004944	movie	1		301	68.0	2.5	blank	1.0	329.2567038536072	2.5086660385131836
70	304.8455140590668	pulse	1	t		68.0	2.5	blank	1.0	330.8487730026245	
70	305.7621109485626	fix_post	2		12	68.0	2.5	blank	1.0	331.76536989212036	0.0999751091003418
71	305.86208605766296	fix_pre	0		120	69.0	2.5	/experiments/knapen_AOT/AOT_stimuli/rescaled_final/0759_rv.mp4	0.0	331.8653450012207	1.0001568794250488
71	306.4458999633789	pulse	0	t		69.0	2.5	/experiments/knapen_AOT/AOT_stimuli/rescaled_final/0759_rv.mp4	0.0	332.44915890693665	
71	306.862242937088	movie	1		245	69.0	2.5	/experiments/knapen_AOT/AOT_stimuli/rescaled_final/0759_rv.mp4	0.0	332.86550188064575	2.5004639625549316
71	308.0460698604584	pulse	1	t		69.0	2.5	/experiments/knapen_AOT/AOT_stimuli/rescaled_final/0759_rv.mp4	0.0	334.0493288040161	
71	309.36270689964294	fix_post	2		12	69.0	2.5	/experiments/knapen_AOT/AOT_stimuli/rescaled_final/0759_rv.mp4	0.0	335.3659658432007	0.09996795654296875
72	309.4626748561859	fix_pre	0		120	70.0	2.5	/experiments/knapen_AOT/AOT_stimuli/rescaled_final/0902_rv.mp4	0.0	335.46593379974365	1.000124216079712
72	309.64622807502747	pulse	0	t		70.0	2.5	/experiments/knapen_AOT/AOT_stimuli/rescaled_final/0902_rv.mp4	0.0	335.6494870185852	
72	310.4627990722656	movie	1		247	70.0	2.5	/experiments/knapen_AOT/AOT_stimuli/rescaled_final/0902_rv.mp4	0.0	336.46605801582336	2.5003368854522705
72	311.24641394615173	pulse	1	t		70.0	2.5	/experiments/knapen_AOT/AOT_stimuli/rescaled_final/0902_rv.mp4	0.0	337.2496728897095	
72	312.8467960357666	pulse	1	t		70.0	2.5	/experiments/knapen_AOT/AOT_stimuli/rescaled_final/0902_rv.mp4	0.0	338.85005497932434	
72	312.9631359577179	fix_post	2		12	70.0	2.5	/experiments/knapen_AOT/AOT_stimuli/rescaled_final/0902_rv.mp4	0.0	338.96639490127563	0.10006189346313477
73	313.06319785118103	fix_pre	0		120	71.0	2.5	/experiments/knapen_AOT/AOT_stimuli/rescaled_final/1555_rv.mp4	0.0	339.06645679473877	1.0001142024993896
73	314.0633120536804	movie	1		244	71.0	2.5	/experiments/knapen_AOT/AOT_stimuli/rescaled_final/1555_rv.mp4	0.0	340.06657099723816	2.4920928478240967
73	314.4482879638672	pulse	1	t		71.0	2.5	/experiments/knapen_AOT/AOT_stimuli/rescaled_final/1555_rv.mp4	0.0	340.4515469074249	
73	316.0472710132599	pulse	1	t		71.0	2.5	/experiments/knapen_AOT/AOT_stimuli/rescaled_final/1555_rv.mp4	0.0	342.0505299568176	
73	316.5554049015045	fix_post	2		12	71.0	2.5	/experiments/knapen_AOT/AOT_stimuli/rescaled_final/1555_rv.mp4	0.0	342.55866384506226	0.10008001327514648
74	316.65548491477966	fix_pre	0		120	72.0	2.5	/experiments/knapen_AOT/AOT_stimuli/rescaled_final/1075_fw.mp4	0.0	342.6587438583374	1.000101089477539
74	317.64736700057983	pulse	0	t		72.0	2.5	/experiments/knapen_AOT/AOT_stimuli/rescaled_final/1075_fw.mp4	0.0	343.6506259441376	
74	317.6555860042572	movie	1		245	72.0	2.5	/experiments/knapen_AOT/AOT_stimuli/rescaled_final/1075_fw.mp4	0.0	343.65884494781494	2.5086870193481445
74	319.251718044281	pulse	1	t		72.0	2.5	/experiments/knapen_AOT/AOT_stimuli/rescaled_final/1075_fw.mp4	0.0	345.25497698783875	
74	320.16427302360535	fix_post	2		12	72.0	2.5	/experiments/knapen_AOT/AOT_stimuli/rescaled_final/1075_fw.mp4	0.0	346.1675319671631	0.0999598503112793
75	320.2642328739166	fix_pre	0		120	73.0	2.5	/experiments/knapen_AOT/AOT_stimuli/rescaled_final/0662_fw.mp4	0.0	346.26749181747437	1.0002620220184326
75	320.8480839729309	pulse	0	t		73.0	2.5	/experiments/knapen_AOT/AOT_stimuli/rescaled_final/0662_fw.mp4	0.0	346.85134291648865	
75	321.26449489593506	movie	1		244	73.0	2.5	/experiments/knapen_AOT/AOT_stimuli/rescaled_final/0662_fw.mp4	0.0	347.2677538394928	2.5003230571746826
75	322.44831800460815	pulse	1	t		73.0	2.5	/experiments/knapen_AOT/AOT_stimuli/rescaled_final/0662_fw.mp4	0.0	348.4515769481659	
75	323.76481795310974	fix_post	2		12	73.0	2.5	/experiments/knapen_AOT/AOT_stimuli/rescaled_final/0662_fw.mp4	0.0	349.7680768966675	0.099945068359375
76	323.8647630214691	fix_pre	0		120	74.0	2.5	/experiments/knapen_AOT/AOT_stimuli/rescaled_final/0083_rv.mp4	0.0	349.86802196502686	1.0002038478851318
76	324.04831290245056	pulse	0	t		74.0	2.5	/experiments/knapen_AOT/AOT_stimuli/rescaled_final/0083_rv.mp4	0.0	350.0515718460083	
76	324.86496686935425	movie	1		244	74.0	2.5	/experiments/knapen_AOT/AOT_stimuli/rescaled_final/0083_rv.mp4	0.0	350.868225812912	2.5003621578216553
76	325.64877796173096	pulse	1	t		74.0	2.5	/experiments/knapen_AOT/AOT_stimuli/rescaled_final/0083_rv.mp4	0.0	351.6520369052887	
76	327.2515468597412	pulse	1	t		74.0	2.5	/experiments/knapen_AOT/AOT_stimuli/rescaled_final/0083_rv.mp4	0.0	353.25480580329895	
76	327.3653290271759	fix_post	2		12	74.0	2.5	/experiments/knapen_AOT/AOT_stimuli/rescaled_final/0083_rv.mp4	0.0	353.36858797073364	0.09999704360961914
77	327.4653260707855	fix_pre	0		119	75.0	2.5	/experiments/knapen_AOT/AOT_stimuli/rescaled_final/0226_rv.mp4	0.0	353.46858501434326	0.991865873336792
77	328.4571919441223	movie	1		245	75.0	2.5	/experiments/knapen_AOT/AOT_stimuli/rescaled_final/0226_rv.mp4	0.0	354.46045088768005	2.500375986099243
77	328.8492429256439	pulse	1	t		75.0	2.5	/experiments/knapen_AOT/AOT_stimuli/rescaled_final/0226_rv.mp4	0.0	354.85250186920166	
77	330.4492599964142	pulse	1	t		75.0	2.5	/experiments/knapen_AOT/AOT_stimuli/rescaled_final/0226_rv.mp4	0.0	356.4525189399719	
77	330.95756793022156	fix_post	2		12	75.0	2.5	/experiments/knapen_AOT/AOT_stimuli/rescaled_final/0226_rv.mp4	0.0	356.9608268737793	0.09995508193969727
78	331.05752301216125	fix_pre	0		120	76.0	2.5	/experiments/knapen_AOT/AOT_stimuli/rescaled_final/0754_rv.mp4	0.0	357.060781955719	1.000175952911377
78	332.0495090484619	pulse	0	t		76.0	2.5	/experiments/knapen_AOT/AOT_stimuli/rescaled_final/0754_rv.mp4	0.0	358.05276799201965	
78	332.05769896507263	movie	1		246	76.0	2.5	/experiments/knapen_AOT/AOT_stimuli/rescaled_final/0754_rv.mp4	0.0	358.06095790863037	2.508711099624634
78	333.65318393707275	pulse	1	t		76.0	2.5	/experiments/knapen_AOT/AOT_stimuli/rescaled_final/0754_rv.mp4	0.0	359.6564428806305	
78	334.56641006469727	fix_post	2		12	76.0	2.5	/experiments/knapen_AOT/AOT_stimuli/rescaled_final/0754_rv.mp4	0.0	360.569669008255	0.09997701644897461
79	334.66638708114624	fix_pre	0		120	77.0	2.5	blank	1.0	360.669646024704	1.0001728534698486
79	335.2424519062042	pulse	0	t		77.0	2.5	blank	1.0	361.24571084976196	
79	335.6665599346161	movie	1		300	77.0	2.5	blank	1.0	361.6698188781738	2.5004639625549316
79	336.8428258895874	pulse	1	t		77.0	2.5	blank	1.0	362.84608483314514	
79	338.167023897171	fix_post	2		12	77.0	2.5	blank	1.0	364.17028284072876	0.099884033203125
80	338.26690793037415	fix_pre	0		120	78.0	2.5	/experiments/knapen_AOT/AOT_stimuli/rescaled_final/1063_rv.mp4	0.0	364.2701668739319	1.000154972076416
80	338.44301986694336	pulse	0	t		78.0	2.5	/experiments/knapen_AOT/AOT_stimuli/rescaled_final/1063_rv.mp4	0.0	364.4462788105011	
80	339.26706290245056	movie	1		250	78.0	2.5	/experiments/knapen_AOT/AOT_stimuli/rescaled_final/1063_rv.mp4	0.0	365.2703218460083	2.500375986099243
80	340.0432159900665	pulse	1	t		78.0	2.5	/experiments/knapen_AOT/AOT_stimuli/rescaled_final/1063_rv.mp4	0.0	366.04647493362427	
80	341.6425838470459	pulse	1	t		78.0	2.5	/experiments/knapen_AOT/AOT_stimuli/rescaled_final/1063_rv.mp4	0.0	367.64584279060364	
80	341.7674388885498	fix_post	2		12	78.0	2.5	/experiments/knapen_AOT/AOT_stimuli/rescaled_final/1063_rv.mp4	0.0	367.77069783210754	0.10001897811889648
81	341.8674578666687	fix_pre	0		119	79.0	2.5	/experiments/knapen_AOT/AOT_stimuli/rescaled_final/1672_fw.mp4	0.0	367.87071681022644	0.9918181896209717
81	342.8592760562897	movie	1		245	79.0	2.5	/experiments/knapen_AOT/AOT_stimuli/rescaled_final/1672_fw.mp4	0.0	368.8625349998474	2.5004019737243652
81	343.24337887763977	pulse	1	t		79.0	2.5	/experiments/knapen_AOT/AOT_stimuli/rescaled_final/1672_fw.mp4	0.0	369.2466378211975	
81	344.8433470726013	pulse	1	t		79.0	2.5	/experiments/knapen_AOT/AOT_stimuli/rescaled_final/1672_fw.mp4	0.0	370.84660601615906	
81	345.35967803001404	fix_post	2		12	79.0	2.5	/experiments/knapen_AOT/AOT_stimuli/rescaled_final/1672_fw.mp4	0.0	371.3629369735718	0.10007596015930176
82	345.45975399017334	fix_pre	0		119	80.0	2.5	/experiments/knapen_AOT/AOT_stimuli/rescaled_final/1957_rv.mp4	0.0	371.4630129337311	0.9917640686035156
82	346.44328904151917	pulse	0	t		80.0	2.5	/experiments/knapen_AOT/AOT_stimuli/rescaled_final/1957_rv.mp4	0.0	372.4465479850769	
82	346.45151805877686	movie	1		245	80.0	2.5	/experiments/knapen_AOT/AOT_stimuli/rescaled_final/1957_rv.mp4	0.0	372.4547770023346	2.508713960647583
82	348.0442409515381	pulse	1	t		80.0	2.5	/experiments/knapen_AOT/AOT_stimuli/rescaled_final/1957_rv.mp4	0.0	374.0474998950958	
82	348.96023201942444	fix_post	2		12	80.0	2.5	/experiments/knapen_AOT/AOT_stimuli/rescaled_final/1957_rv.mp4	0.0	374.9634909629822	0.09997987747192383
83	349.06021189689636	fix_pre	0		120	81.0	2.5	/experiments/knapen_AOT/AOT_stimuli/rescaled_final/1954_rv.mp4	0.0	375.0634708404541	1.0001821517944336
83	349.64382886886597	pulse	0	t		81.0	2.5	/experiments/knapen_AOT/AOT_stimuli/rescaled_final/1954_rv.mp4	0.0	375.6470878124237	
83	350.0603940486908	movie	1		244	81.0	2.5	/experiments/knapen_AOT/AOT_stimuli/rescaled_final/1954_rv.mp4	0.0	376.06365299224854	2.500382900238037
83	351.24417304992676	pulse	1	t		81.0	2.5	/experiments/knapen_AOT/AOT_stimuli/rescaled_final/1954_rv.mp4	0.0	377.2474319934845	
83	352.56077694892883	fix_post	2		12	81.0	2.5	/experiments/knapen_AOT/AOT_stimuli/rescaled_final/1954_rv.mp4	0.0	378.5640358924866	0.09995102882385254
84	352.6607279777527	fix_pre	0		120	82.0	2.5	blank	1.0	378.6639869213104	1.0002388954162598
84	352.84432005882263	pulse	0	t		82.0	2.5	blank	1.0	378.84757900238037	
84	353.66096687316895	movie	1		300	82.0	2.5	blank	1.0	379.6642258167267	2.50032114982605
84	354.444561958313	pulse	1	t		82.0	2.5	blank	1.0	380.4478209018707	
84	356.0448498725891	pulse	1	t		82.0	2.5	blank	1.0	382.04810881614685	
84	356.161288022995	fix_post	2		12	82.0	2.5	blank	1.0	382.16454696655273	0.09999895095825195
85	356.26128697395325	fix_pre	0		120	83.0	2.5	/experiments/knapen_AOT/AOT_stimuli/rescaled_final/0233_rv.mp4	0.0	382.264545917511	1.0001590251922607
85	357.2614459991455	movie	1		244	83.0	2.5	/experiments/knapen_AOT/AOT_stimuli/rescaled_final/0233_rv.mp4	0.0	383.26470494270325	2.4920129776000977
85	357.64609694480896	pulse	1	t		83.0	2.5	/experiments/knapen_AOT/AOT_stimuli/rescaled_final/0233_rv.mp4	0.0	383.6493558883667	
85	359.2452828884125	pulse	1	t		83.0	2.5	/experiments/knapen_AOT/AOT_stimuli/rescaled_final/0233_rv.mp4	0.0	385.2485418319702	
85	359.7534589767456	fix_post	2		12	83.0	2.5	/experiments/knapen_AOT/AOT_stimuli/rescaled_final/0233_rv.mp4	0.0	385.75671792030334	0.10000896453857422
87	359.8534679412842	stim	0		1716					385.8567268848419	14.302300930023193
87	360.8455798625946	pulse	0	t						386.84883880615234	
87	362.44573307037354	pulse	0	t						388.4489920139313	
87	364.0459740161896	pulse	0	t						390.0492329597473	
87	365.64628291130066	pulse	0	t						391.6495418548584	
87	367.2464060783386	pulse	0	t						393.24966502189636	
87	368.846736907959	pulse	0	t						394.8499958515167	
87	370.4469609260559	pulse	0	t						396.45021986961365	
87	372.04718804359436	pulse	0	t						398.0504469871521	
87	373.6473569869995	pulse	0	t						399.65061593055725	
