trial_nr	onset	event_type	phase	response	nr_frames	movie_index	movie_duration	movie_file	blank	onset_abs	duration
0	0.14989900588989258	stim	0		44					20.66918706893921	0.36666393280029297
0	0.5013420581817627	response	0	space						21.02063012123108	
1	0.5165629386901855	stim	0		5377					21.035851001739502	44.80808401107788
1	45.32139205932617	pulse	0	t						65.84068012237549	
1	45.324646949768066	stim	1		1717					65.84393501281738	14.308226108551025
1	46.916505098342896	pulse	1	t						67.43579316139221	
1	48.51653003692627	pulse	1	t						69.03581809997559	
1	50.1164710521698	pulse	1	t						70.63575911521912	
1	51.71646499633789	pulse	1	t						72.2357530593872	
1	53.31645393371582	pulse	1	t						73.83574199676514	
1	54.916502952575684	pulse	1	t						75.435791015625	
1	56.516361951828	pulse	1	t						77.03565001487732	
1	58.11643600463867	pulse	1	t						78.63572406768799	
2	59.63287305831909	fix_pre	0		11	0.0	2.5	/experiments/AOT/AOT_stimuli/rescaled_final/2004_rv.mp4	0.0	80.15216112136841	0.0916898250579834
2	59.71648406982422	pulse	0	t		0.0	2.5	/experiments/AOT/AOT_stimuli/rescaled_final/2004_rv.mp4	0.0	80.23577213287354	
2	59.724562883377075	movie	1		242	0.0	2.5	/experiments/AOT/AOT_stimuli/rescaled_final/2004_rv.mp4	0.0	80.24385094642639	2.508371114730835
2	61.315979957580566	pulse	1	t		0.0	2.5	/experiments/AOT/AOT_stimuli/rescaled_final/2004_rv.mp4	0.0	81.83526802062988	
2	62.23293399810791	fix_post	2		12	0.0	2.5	/experiments/AOT/AOT_stimuli/rescaled_final/2004_rv.mp4	0.0	82.75222206115723	0.09995007514953613
3	62.332884073257446	fix_pre	0		120	1.0	2.5	/experiments/AOT/AOT_stimuli/rescaled_final/0031_fw.mp4	0.0	82.85217213630676	1.0000720024108887
3	62.916455030441284	pulse	0	t		1.0	2.5	/experiments/AOT/AOT_stimuli/rescaled_final/0031_fw.mp4	0.0	83.4357430934906	
3	63.332956075668335	movie	1		244	1.0	2.5	/experiments/AOT/AOT_stimuli/rescaled_final/0031_fw.mp4	0.0	83.85224413871765	2.499552011489868
3	64.51645088195801	pulse	1	t		1.0	2.5	/experiments/AOT/AOT_stimuli/rescaled_final/0031_fw.mp4	0.0	85.03573894500732	
3	65.8325080871582	fix_post	2		12	1.0	2.5	/experiments/AOT/AOT_stimuli/rescaled_final/0031_fw.mp4	0.0	86.35179615020752	0.10042595863342285
4	65.93293404579163	fix_pre	0		120	2.0	2.5	/experiments/AOT/AOT_stimuli/rescaled_final/1393_rv.mp4	0.0	86.45222210884094	0.9995479583740234
4	66.11643600463867	pulse	0	t		2.0	2.5	/experiments/AOT/AOT_stimuli/rescaled_final/1393_rv.mp4	0.0	86.63572406768799	
4	66.93248200416565	movie	1		244	2.0	2.5	/experiments/AOT/AOT_stimuli/rescaled_final/1393_rv.mp4	0.0	87.45177006721497	2.5008158683776855
4	67.71604108810425	pulse	1	t		2.0	2.5	/experiments/AOT/AOT_stimuli/rescaled_final/1393_rv.mp4	0.0	88.23532915115356	
4	69.31526803970337	pulse	1	t		2.0	2.5	/experiments/AOT/AOT_stimuli/rescaled_final/1393_rv.mp4	0.0	89.83455610275269	
4	69.43329787254333	fix_post	2		12	2.0	2.5	/experiments/AOT/AOT_stimuli/rescaled_final/1393_rv.mp4	0.0	89.95258593559265	0.09996318817138672
5	69.53326106071472	fix_pre	0		120	3.0	2.5	/experiments/AOT/AOT_stimuli/rescaled_final/0859_rv.mp4	0.0	90.05254912376404	0.9996898174285889
5	70.53295087814331	movie	1		243	3.0	2.5	/experiments/AOT/AOT_stimuli/rescaled_final/0859_rv.mp4	0.0	91.05223894119263	2.4999430179595947
5	70.91614103317261	pulse	1	t		3.0	2.5	/experiments/AOT/AOT_stimuli/rescaled_final/0859_rv.mp4	0.0	91.43542909622192	
5	72.51626205444336	pulse	1	t		3.0	2.5	/experiments/AOT/AOT_stimuli/rescaled_final/0859_rv.mp4	0.0	93.03555011749268	
5	73.0328938961029	fix_post	2		12	3.0	2.5	/experiments/AOT/AOT_stimuli/rescaled_final/0859_rv.mp4	0.0	93.55218195915222	0.10007119178771973
6	73.13296508789062	fix_pre	0		119	4.0	2.5	/experiments/AOT/AOT_stimuli/rescaled_final/0209_rv.mp4	0.0	93.65225315093994	0.9915239810943604
6	74.11637806892395	pulse	0	t		4.0	2.5	/experiments/AOT/AOT_stimuli/rescaled_final/0209_rv.mp4	0.0	94.63566613197327	
6	74.12448906898499	movie	1		245	4.0	2.5	/experiments/AOT/AOT_stimuli/rescaled_final/0209_rv.mp4	0.0	94.6437771320343	2.508281946182251
6	75.71757292747498	pulse	1	t		4.0	2.5	/experiments/AOT/AOT_stimuli/rescaled_final/0209_rv.mp4	0.0	96.23686099052429	
6	76.63277101516724	fix_post	2		12	4.0	2.5	/experiments/AOT/AOT_stimuli/rescaled_final/0209_rv.mp4	0.0	97.15205907821655	0.10004901885986328
7	76.7328200340271	fix_pre	0		120	5.0	2.5	/experiments/AOT/AOT_stimuli/rescaled_final/0014_rv.mp4	0.0	97.25210809707642	0.9999480247497559
7	77.31632709503174	pulse	0	t		5.0	2.5	/experiments/AOT/AOT_stimuli/rescaled_final/0014_rv.mp4	0.0	97.83561515808105	
7	77.73276805877686	movie	1		244	5.0	2.5	/experiments/AOT/AOT_stimuli/rescaled_final/0014_rv.mp4	0.0	98.25205612182617	2.500067949295044
7	78.91639804840088	pulse	1	t		5.0	2.5	/experiments/AOT/AOT_stimuli/rescaled_final/0014_rv.mp4	0.0	99.4356861114502	
7	80.2328360080719	fix_post	2		12	5.0	2.5	/experiments/AOT/AOT_stimuli/rescaled_final/0014_rv.mp4	0.0	100.75212407112122	0.09991788864135742
8	80.33275389671326	fix_pre	0		120	6.0	2.5	blank	1.0	100.85204195976257	0.9997169971466064
8	80.51627802848816	pulse	0	t		6.0	2.5	blank	1.0	101.03556609153748	
8	81.33247089385986	movie	1		300	6.0	2.5	blank	1.0	101.85175895690918	2.5002989768981934
8	82.11627292633057	pulse	1	t		6.0	2.5	blank	1.0	102.63556098937988	
8	83.71632194519043	pulse	1	t		6.0	2.5	blank	1.0	104.23561000823975	
8	83.83276987075806	fix_post	2		12	6.0	2.5	blank	1.0	104.35205793380737	0.09999608993530273
9	83.93276596069336	fix_pre	0		120	7.0	2.5	/experiments/AOT/AOT_stimuli/rescaled_final/0831_fw.mp4	0.0	104.45205402374268	1.0000081062316895
9	84.93277406692505	movie	1		244	7.0	2.5	/experiments/AOT/AOT_stimuli/rescaled_final/0831_fw.mp4	0.0	105.45206212997437	2.50002384185791
9	85.31592607498169	pulse	1	t		7.0	2.5	/experiments/AOT/AOT_stimuli/rescaled_final/0831_fw.mp4	0.0	105.835214138031	
9	86.91628909111023	pulse	1	t		7.0	2.5	/experiments/AOT/AOT_stimuli/rescaled_final/0831_fw.mp4	0.0	107.43557715415955	
9	87.43279790878296	fix_post	2		12	7.0	2.5	/experiments/AOT/AOT_stimuli/rescaled_final/0831_fw.mp4	0.0	107.95208597183228	0.0999910831451416
10	87.5327889919281	fix_pre	0		119	8.0	2.5	/experiments/AOT/AOT_stimuli/rescaled_final/2004_rv.mp4	0.0	108.05207705497742	0.9916720390319824
10	88.51624989509583	pulse	0	t		8.0	2.5	/experiments/AOT/AOT_stimuli/rescaled_final/2004_rv.mp4	0.0	109.03553795814514	
10	88.52446103096008	movie	1		246	8.0	2.5	/experiments/AOT/AOT_stimuli/rescaled_final/2004_rv.mp4	0.0	109.0437490940094	2.508262872695923
10	90.11570501327515	pulse	1	t		8.0	2.5	/experiments/AOT/AOT_stimuli/rescaled_final/2004_rv.mp4	0.0	110.63499307632446	
10	91.032723903656	fix_post	2		12	8.0	2.5	/experiments/AOT/AOT_stimuli/rescaled_final/2004_rv.mp4	0.0	111.55201196670532	0.10002708435058594
11	91.13275098800659	fix_pre	0		120	9.0	2.5	/experiments/AOT/AOT_stimuli/rescaled_final/1957_rv.mp4	0.0	111.65203905105591	0.9999051094055176
11	91.71627306938171	pulse	0	t		9.0	2.5	/experiments/AOT/AOT_stimuli/rescaled_final/1957_rv.mp4	0.0	112.23556113243103	
11	92.13265609741211	movie	1		243	9.0	2.5	/experiments/AOT/AOT_stimuli/rescaled_final/1957_rv.mp4	0.0	112.65194416046143	2.5000789165496826
11	93.31640791893005	pulse	1	t		9.0	2.5	/experiments/AOT/AOT_stimuli/rescaled_final/1957_rv.mp4	0.0	113.83569598197937	
11	94.63273501396179	fix_post	2		12	9.0	2.5	/experiments/AOT/AOT_stimuli/rescaled_final/1957_rv.mp4	0.0	115.15202307701111	0.1000359058380127
12	94.7327709197998	fix_pre	0		120	10.0	2.5	/experiments/AOT/AOT_stimuli/rescaled_final/2082_rv.mp4	0.0	115.25205898284912	0.9999721050262451
12	94.9162929058075	pulse	0	t		10.0	2.5	/experiments/AOT/AOT_stimuli/rescaled_final/2082_rv.mp4	0.0	115.43558096885681	
12	95.73274302482605	movie	1		244	10.0	2.5	/experiments/AOT/AOT_stimuli/rescaled_final/2082_rv.mp4	0.0	116.25203108787537	2.500035047531128
12	96.51621508598328	pulse	1	t		10.0	2.5	/experiments/AOT/AOT_stimuli/rescaled_final/2082_rv.mp4	0.0	117.03550314903259	
12	98.11705708503723	pulse	1	t		10.0	2.5	/experiments/AOT/AOT_stimuli/rescaled_final/2082_rv.mp4	0.0	118.63634514808655	
12	98.23277807235718	fix_post	2		12	10.0	2.5	/experiments/AOT/AOT_stimuli/rescaled_final/2082_rv.mp4	0.0	118.7520661354065	0.09989094734191895
13	98.3326690196991	fix_pre	0		120	11.0	2.5	/experiments/AOT/AOT_stimuli/rescaled_final/0490_fw.mp4	0.0	118.85195708274841	1.0000550746917725
13	99.33272409439087	movie	1		244	11.0	2.5	/experiments/AOT/AOT_stimuli/rescaled_final/0490_fw.mp4	0.0	119.85201215744019	2.499537944793701
13	99.71600699424744	pulse	1	t		11.0	2.5	/experiments/AOT/AOT_stimuli/rescaled_final/0490_fw.mp4	0.0	120.23529505729675	
13	101.31618309020996	pulse	1	t		11.0	2.5	/experiments/AOT/AOT_stimuli/rescaled_final/0490_fw.mp4	0.0	121.83547115325928	
13	101.83226203918457	fix_post	2		12	11.0	2.5	/experiments/AOT/AOT_stimuli/rescaled_final/0490_fw.mp4	0.0	122.35155010223389	0.10046505928039551
14	101.93272709846497	fix_pre	0		119	12.0	2.5	/experiments/AOT/AOT_stimuli/rescaled_final/2106_rv.mp4	0.0	122.45201516151428	0.9916989803314209
14	102.9161958694458	pulse	0	t		12.0	2.5	/experiments/AOT/AOT_stimuli/rescaled_final/2106_rv.mp4	0.0	123.43548393249512	
14	102.92442607879639	movie	1		245	12.0	2.5	/experiments/AOT/AOT_stimuli/rescaled_final/2106_rv.mp4	0.0	123.4437141418457	2.5082077980041504
14	104.51548290252686	pulse	1	t		12.0	2.5	/experiments/AOT/AOT_stimuli/rescaled_final/2106_rv.mp4	0.0	125.03477096557617	
14	105.43263387680054	fix_post	2		12	12.0	2.5	/experiments/AOT/AOT_stimuli/rescaled_final/2106_rv.mp4	0.0	125.95192193984985	0.1001121997833252
15	105.53274607658386	fix_pre	0		120	13.0	2.5	/experiments/AOT/AOT_stimuli/rescaled_final/1909_rv.mp4	0.0	126.05203413963318	0.9999618530273438
15	106.11622905731201	pulse	0	t		13.0	2.5	/experiments/AOT/AOT_stimuli/rescaled_final/1909_rv.mp4	0.0	126.63551712036133	
15	106.5327079296112	movie	1		245	13.0	2.5	/experiments/AOT/AOT_stimuli/rescaled_final/1909_rv.mp4	0.0	127.05199599266052	2.500051975250244
15	107.71619510650635	pulse	1	t		13.0	2.5	/experiments/AOT/AOT_stimuli/rescaled_final/1909_rv.mp4	0.0	128.23548316955566	
15	109.03275990486145	fix_post	2		12	13.0	2.5	/experiments/AOT/AOT_stimuli/rescaled_final/1909_rv.mp4	0.0	129.55204796791077	0.09990811347961426
16	109.13266801834106	fix_pre	0		120	14.0	2.5	blank	1.0	129.65195608139038	0.9996459484100342
16	109.31613802909851	pulse	0	t		14.0	2.5	blank	1.0	129.83542609214783	
16	110.1323139667511	movie	1		300	14.0	2.5	blank	1.0	130.65160202980042	2.5003490447998047
16	110.91616201400757	pulse	1	t		14.0	2.5	blank	1.0	131.43545007705688	
16	112.51612091064453	pulse	1	t		14.0	2.5	blank	1.0	133.03540897369385	
16	112.6326630115509	fix_post	2		12	14.0	2.5	blank	1.0	133.15195107460022	0.1000359058380127
17	112.73269891738892	fix_pre	0		120	15.0	2.5	/experiments/AOT/AOT_stimuli/rescaled_final/1673_fw.mp4	0.0	133.25198698043823	0.9995191097259521
17	113.73221802711487	movie	1		243	15.0	2.5	/experiments/AOT/AOT_stimuli/rescaled_final/1673_fw.mp4	0.0	134.25150609016418	2.5000040531158447
17	114.11585593223572	pulse	1	t		15.0	2.5	/experiments/AOT/AOT_stimuli/rescaled_final/1673_fw.mp4	0.0	134.63514399528503	
17	115.71608209609985	pulse	1	t		15.0	2.5	/experiments/AOT/AOT_stimuli/rescaled_final/1673_fw.mp4	0.0	136.23537015914917	
17	116.23222208023071	fix_post	2		12	15.0	2.5	/experiments/AOT/AOT_stimuli/rescaled_final/1673_fw.mp4	0.0	136.75151014328003	0.10047388076782227
18	116.33269596099854	fix_pre	0		119	16.0	2.5	/experiments/AOT/AOT_stimuli/rescaled_final/0559_rv.mp4	0.0	136.85198402404785	0.9916539192199707
18	117.31621193885803	pulse	0	t		16.0	2.5	/experiments/AOT/AOT_stimuli/rescaled_final/0559_rv.mp4	0.0	137.83550000190735	
18	117.3243498802185	movie	1		243	16.0	2.5	/experiments/AOT/AOT_stimuli/rescaled_final/0559_rv.mp4	0.0	137.84363794326782	2.5077731609344482
18	118.91620588302612	pulse	1	t		16.0	2.5	/experiments/AOT/AOT_stimuli/rescaled_final/0559_rv.mp4	0.0	139.43549394607544	
18	119.83212304115295	fix_post	2		12	16.0	2.5	/experiments/AOT/AOT_stimuli/rescaled_final/0559_rv.mp4	0.0	140.35141110420227	0.10051703453063965
19	119.9326400756836	fix_pre	0		120	17.0	2.5	/experiments/AOT/AOT_stimuli/rescaled_final/1673_fw.mp4	0.0	140.4519281387329	1.0
19	120.51623010635376	pulse	0	t		17.0	2.5	/experiments/AOT/AOT_stimuli/rescaled_final/1673_fw.mp4	0.0	141.03551816940308	
19	120.9326400756836	movie	1		242	17.0	2.5	/experiments/AOT/AOT_stimuli/rescaled_final/1673_fw.mp4	0.0	141.4519281387329	2.4996228218078613
19	122.11569595336914	pulse	1	t		17.0	2.5	/experiments/AOT/AOT_stimuli/rescaled_final/1673_fw.mp4	0.0	142.63498401641846	
19	123.43226289749146	fix_post	2		12	17.0	2.5	/experiments/AOT/AOT_stimuli/rescaled_final/1673_fw.mp4	0.0	143.95155096054077	0.10039019584655762
20	123.53265309333801	fix_pre	0		120	18.0	2.5	/experiments/AOT/AOT_stimuli/rescaled_final/0887_fw.mp4	0.0	144.05194115638733	1.0001599788665771
20	123.71616792678833	pulse	0	t		18.0	2.5	/experiments/AOT/AOT_stimuli/rescaled_final/0887_fw.mp4	0.0	144.23545598983765	
20	124.53281307220459	movie	1		244	18.0	2.5	/experiments/AOT/AOT_stimuli/rescaled_final/0887_fw.mp4	0.0	145.0521011352539	2.4997398853302
20	125.31597304344177	pulse	1	t		18.0	2.5	/experiments/AOT/AOT_stimuli/rescaled_final/0887_fw.mp4	0.0	145.8352611064911	
20	126.91446208953857	pulse	1	t		18.0	2.5	/experiments/AOT/AOT_stimuli/rescaled_final/0887_fw.mp4	0.0	147.4337501525879	
20	127.03255295753479	fix_post	2		12	18.0	2.5	/experiments/AOT/AOT_stimuli/rescaled_final/0887_fw.mp4	0.0	147.5518410205841	0.10004997253417969
21	127.13260293006897	fix_pre	0		120	19.0	2.5	/experiments/AOT/AOT_stimuli/rescaled_final/1648_rv.mp4	0.0	147.6518909931183	0.9999840259552002
21	128.13258695602417	movie	1		245	19.0	2.5	/experiments/AOT/AOT_stimuli/rescaled_final/1648_rv.mp4	0.0	148.6518750190735	2.5001220703125
21	128.51708388328552	pulse	1	t		19.0	2.5	/experiments/AOT/AOT_stimuli/rescaled_final/1648_rv.mp4	0.0	149.03637194633484	
21	130.115984916687	pulse	1	t		19.0	2.5	/experiments/AOT/AOT_stimuli/rescaled_final/1648_rv.mp4	0.0	150.63527297973633	
21	130.63270902633667	fix_post	2		12	19.0	2.5	/experiments/AOT/AOT_stimuli/rescaled_final/1648_rv.mp4	0.0	151.151997089386	0.09979605674743652
22	130.7325050830841	fix_pre	0		119	20.0	2.5	/experiments/AOT/AOT_stimuli/rescaled_final/1285_fw.mp4	0.0	151.25179314613342	0.9917008876800537
22	131.71602487564087	pulse	0	t		20.0	2.5	/experiments/AOT/AOT_stimuli/rescaled_final/1285_fw.mp4	0.0	152.23531293869019	
22	131.72420597076416	movie	1		248	20.0	2.5	/experiments/AOT/AOT_stimuli/rescaled_final/1285_fw.mp4	0.0	152.24349403381348	2.5079119205474854
22	133.31555604934692	pulse	1	t		20.0	2.5	/experiments/AOT/AOT_stimuli/rescaled_final/1285_fw.mp4	0.0	153.83484411239624	
22	134.23211789131165	fix_post	2		12	20.0	2.5	/experiments/AOT/AOT_stimuli/rescaled_final/1285_fw.mp4	0.0	154.75140595436096	0.10041618347167969
23	134.33253407478333	fix_pre	0		120	21.0	2.5	blank	1.0	154.85182213783264	1.0000109672546387
23	134.91606307029724	pulse	0	t		21.0	2.5	blank	1.0	155.43535113334656	
23	135.33254504203796	movie	1		300	21.0	2.5	blank	1.0	155.85183310508728	2.4998998641967773
23	136.5160210132599	pulse	1	t		21.0	2.5	blank	1.0	157.0353090763092	
23	137.83244490623474	fix_post	2		12	21.0	2.5	blank	1.0	158.35173296928406	0.10003399848937988
24	137.93247890472412	fix_pre	0		120	22.0	2.5	/experiments/AOT/AOT_stimuli/rescaled_final/0788_fw.mp4	0.0	158.45176696777344	1.0000519752502441
24	138.11602592468262	pulse	0	t		22.0	2.5	/experiments/AOT/AOT_stimuli/rescaled_final/0788_fw.mp4	0.0	158.63531398773193	
24	138.93253087997437	movie	1		244	22.0	2.5	/experiments/AOT/AOT_stimuli/rescaled_final/0788_fw.mp4	0.0	159.45181894302368	2.4999961853027344
24	139.7159869670868	pulse	1	t		22.0	2.5	/experiments/AOT/AOT_stimuli/rescaled_final/0788_fw.mp4	0.0	160.2352750301361	
24	141.314759016037	pulse	1	t		22.0	2.5	/experiments/AOT/AOT_stimuli/rescaled_final/0788_fw.mp4	0.0	161.8340470790863	
24	141.4325270652771	fix_post	2		12	22.0	2.5	/experiments/AOT/AOT_stimuli/rescaled_final/0788_fw.mp4	0.0	161.95181512832642	0.09993600845336914
25	141.53246307373047	fix_pre	0		120	23.0	2.5	/experiments/AOT/AOT_stimuli/rescaled_final/1727_rv.mp4	0.0	162.05175113677979	1.0001139640808105
25	142.53257703781128	movie	1		244	23.0	2.5	/experiments/AOT/AOT_stimuli/rescaled_final/1727_rv.mp4	0.0	163.0518651008606	2.4999139308929443
25	142.91561198234558	pulse	1	t		23.0	2.5	/experiments/AOT/AOT_stimuli/rescaled_final/1727_rv.mp4	0.0	163.4349000453949	
25	144.51600098609924	pulse	1	t		23.0	2.5	/experiments/AOT/AOT_stimuli/rescaled_final/1727_rv.mp4	0.0	165.03528904914856	
25	145.03249096870422	fix_post	2		12	23.0	2.5	/experiments/AOT/AOT_stimuli/rescaled_final/1727_rv.mp4	0.0	165.55177903175354	0.09999394416809082
26	145.13248491287231	fix_pre	0		119	24.0	2.5	/experiments/AOT/AOT_stimuli/rescaled_final/1477_rv.mp4	0.0	165.65177297592163	0.9916341304779053
26	146.11598896980286	pulse	0	t		24.0	2.5	/experiments/AOT/AOT_stimuli/rescaled_final/1477_rv.mp4	0.0	166.63527703285217	
26	146.12411904335022	movie	1		247	24.0	2.5	/experiments/AOT/AOT_stimuli/rescaled_final/1477_rv.mp4	0.0	166.64340710639954	2.5084009170532227
26	147.7155680656433	pulse	1	t		24.0	2.5	/experiments/AOT/AOT_stimuli/rescaled_final/1477_rv.mp4	0.0	168.23485612869263	
26	148.63251996040344	fix_post	2		12	24.0	2.5	/experiments/AOT/AOT_stimuli/rescaled_final/1477_rv.mp4	0.0	169.15180802345276	0.10003399848937988
27	148.73255395889282	fix_pre	0		120	25.0	2.5	/experiments/AOT/AOT_stimuli/rescaled_final/1880_rv.mp4	0.0	169.25184202194214	0.9998760223388672
27	149.31597805023193	pulse	0	t		25.0	2.5	/experiments/AOT/AOT_stimuli/rescaled_final/1880_rv.mp4	0.0	169.83526611328125	
27	149.7324299812317	movie	1		247	25.0	2.5	/experiments/AOT/AOT_stimuli/rescaled_final/1880_rv.mp4	0.0	170.251718044281	2.5000009536743164
27	150.91613006591797	pulse	1	t		25.0	2.5	/experiments/AOT/AOT_stimuli/rescaled_final/1880_rv.mp4	0.0	171.43541812896729	
27	152.232430934906	fix_post	2		12	25.0	2.5	/experiments/AOT/AOT_stimuli/rescaled_final/1880_rv.mp4	0.0	172.75171899795532	0.09997797012329102
28	152.3324089050293	fix_pre	0		120	26.0	2.5	/experiments/AOT/AOT_stimuli/rescaled_final/1903_fw.mp4	0.0	172.8516969680786	1.000020980834961
28	152.51609897613525	pulse	0	t		26.0	2.5	/experiments/AOT/AOT_stimuli/rescaled_final/1903_fw.mp4	0.0	173.03538703918457	
28	153.33242988586426	movie	1		244	26.0	2.5	/experiments/AOT/AOT_stimuli/rescaled_final/1903_fw.mp4	0.0	173.85171794891357	2.5000641345977783
28	154.1159119606018	pulse	1	t		26.0	2.5	/experiments/AOT/AOT_stimuli/rescaled_final/1903_fw.mp4	0.0	174.63520002365112	
28	155.7151460647583	pulse	1	t		26.0	2.5	/experiments/AOT/AOT_stimuli/rescaled_final/1903_fw.mp4	0.0	176.23443412780762	
28	155.83249402046204	fix_post	2		12	26.0	2.5	/experiments/AOT/AOT_stimuli/rescaled_final/1903_fw.mp4	0.0	176.35178208351135	0.09997987747192383
29	155.93247389793396	fix_pre	0		120	27.0	2.5	/experiments/AOT/AOT_stimuli/rescaled_final/0755_rv.mp4	0.0	176.45176196098328	0.9999291896820068
29	156.93240308761597	movie	1		246	27.0	2.5	/experiments/AOT/AOT_stimuli/rescaled_final/0755_rv.mp4	0.0	177.45169115066528	2.5000369548797607
29	157.3155119419098	pulse	1	t		27.0	2.5	/experiments/AOT/AOT_stimuli/rescaled_final/0755_rv.mp4	0.0	177.8348000049591	
29	158.91588497161865	pulse	1	t		27.0	2.5	/experiments/AOT/AOT_stimuli/rescaled_final/0755_rv.mp4	0.0	179.43517303466797	
29	159.43244004249573	fix_post	2		12	27.0	2.5	/experiments/AOT/AOT_stimuli/rescaled_final/0755_rv.mp4	0.0	179.95172810554504	0.09993886947631836
30	159.53237891197205	fix_pre	0		119	28.0	2.5	blank	1.0	180.05166697502136	0.9916059970855713
30	160.5158989429474	pulse	0	t		28.0	2.5	blank	1.0	181.0351870059967	
30	160.52398490905762	movie	1		301	28.0	2.5	blank	1.0	181.04327297210693	2.5084900856018066
30	162.11589789390564	pulse	1	t		28.0	2.5	blank	1.0	182.63518595695496	
30	163.03247499465942	fix_post	2		12	28.0	2.5	blank	1.0	183.55176305770874	0.09995007514953613
31	163.13242506980896	fix_pre	0		120	29.0	2.5	/experiments/AOT/AOT_stimuli/rescaled_final/2036_rv.mp4	0.0	183.65171313285828	1.0000388622283936
31	163.71591305732727	pulse	0	t		29.0	2.5	/experiments/AOT/AOT_stimuli/rescaled_final/2036_rv.mp4	0.0	184.2352011203766	
31	164.13246393203735	movie	1		245	29.0	2.5	/experiments/AOT/AOT_stimuli/rescaled_final/2036_rv.mp4	0.0	184.65175199508667	2.4994821548461914
31	165.31596398353577	pulse	1	t		29.0	2.5	/experiments/AOT/AOT_stimuli/rescaled_final/2036_rv.mp4	0.0	185.83525204658508	
31	166.63194608688354	fix_post	2		12	29.0	2.5	/experiments/AOT/AOT_stimuli/rescaled_final/2036_rv.mp4	0.0	187.15123414993286	0.10050296783447266
32	166.73244905471802	fix_pre	0		120	30.0	2.5	/experiments/AOT/AOT_stimuli/rescaled_final/1573_fw.mp4	0.0	187.25173711776733	0.9998698234558105
32	166.91588306427002	pulse	0	t		30.0	2.5	/experiments/AOT/AOT_stimuli/rescaled_final/1573_fw.mp4	0.0	187.43517112731934	
32	167.73231887817383	movie	1		244	30.0	2.5	/experiments/AOT/AOT_stimuli/rescaled_final/1573_fw.mp4	0.0	188.25160694122314	2.5001680850982666
32	168.51590299606323	pulse	1	t		30.0	2.5	/experiments/AOT/AOT_stimuli/rescaled_final/1573_fw.mp4	0.0	189.03519105911255	
32	170.11566710472107	pulse	1	t		30.0	2.5	/experiments/AOT/AOT_stimuli/rescaled_final/1573_fw.mp4	0.0	190.63495516777039	
32	170.2324869632721	fix_post	2		12	30.0	2.5	/experiments/AOT/AOT_stimuli/rescaled_final/1573_fw.mp4	0.0	190.7517750263214	0.09982514381408691
33	170.33231210708618	fix_pre	0		120	31.0	2.5	/experiments/AOT/AOT_stimuli/rescaled_final/0502_fw.mp4	0.0	190.8516001701355	1.000126838684082
33	171.33243894577026	movie	1		243	31.0	2.5	/experiments/AOT/AOT_stimuli/rescaled_final/0502_fw.mp4	0.0	191.85172700881958	2.49991512298584
33	171.71523904800415	pulse	1	t		31.0	2.5	/experiments/AOT/AOT_stimuli/rescaled_final/0502_fw.mp4	0.0	192.23452711105347	
33	173.31581902503967	pulse	1	t		31.0	2.5	/experiments/AOT/AOT_stimuli/rescaled_final/0502_fw.mp4	0.0	193.835107088089	
33	173.8323540687561	fix_post	2		12	31.0	2.5	/experiments/AOT/AOT_stimuli/rescaled_final/0502_fw.mp4	0.0	194.35164213180542	0.10003280639648438
34	173.9323868751526	fix_pre	0		119	32.0	2.5	/experiments/AOT/AOT_stimuli/rescaled_final/0189_fw.mp4	0.0	194.4516749382019	0.9916591644287109
34	174.915855884552	pulse	0	t		32.0	2.5	/experiments/AOT/AOT_stimuli/rescaled_final/0189_fw.mp4	0.0	195.43514394760132	
34	174.9240460395813	movie	1		244	32.0	2.5	/experiments/AOT/AOT_stimuli/rescaled_final/0189_fw.mp4	0.0	195.44333410263062	2.5083670616149902
34	176.51551008224487	pulse	1	t		32.0	2.5	/experiments/AOT/AOT_stimuli/rescaled_final/0189_fw.mp4	0.0	197.0347981452942	
34	177.4324131011963	fix_post	2		12	32.0	2.5	/experiments/AOT/AOT_stimuli/rescaled_final/0189_fw.mp4	0.0	197.9517011642456	0.09997892379760742
35	177.5323920249939	fix_pre	0		120	33.0	2.5	/experiments/AOT/AOT_stimuli/rescaled_final/0409_fw.mp4	0.0	198.0516800880432	0.9996159076690674
35	178.11543202400208	pulse	0	t		33.0	2.5	/experiments/AOT/AOT_stimuli/rescaled_final/0409_fw.mp4	0.0	198.6347200870514	
35	178.53200793266296	movie	1		244	33.0	2.5	/experiments/AOT/AOT_stimuli/rescaled_final/0409_fw.mp4	0.0	199.05129599571228	2.5006000995635986
35	179.71595692634583	pulse	1	t		33.0	2.5	/experiments/AOT/AOT_stimuli/rescaled_final/0409_fw.mp4	0.0	200.23524498939514	
35	181.03260803222656	fix_post	2		12	33.0	2.5	/experiments/AOT/AOT_stimuli/rescaled_final/0409_fw.mp4	0.0	201.55189609527588	0.10001087188720703
36	181.13261890411377	fix_pre	0		120	34.0	2.5	/experiments/AOT/AOT_stimuli/rescaled_final/2138_rv.mp4	0.0	201.6519069671631	0.9997761249542236
36	181.31573295593262	pulse	0	t		34.0	2.5	/experiments/AOT/AOT_stimuli/rescaled_final/2138_rv.mp4	0.0	201.83502101898193	
36	182.132395029068	movie	1		245	34.0	2.5	/experiments/AOT/AOT_stimuli/rescaled_final/2138_rv.mp4	0.0	202.6516830921173	2.4999120235443115
36	182.91571307182312	pulse	1	t		34.0	2.5	/experiments/AOT/AOT_stimuli/rescaled_final/2138_rv.mp4	0.0	203.43500113487244	
36	184.51404094696045	pulse	1	t		34.0	2.5	/experiments/AOT/AOT_stimuli/rescaled_final/2138_rv.mp4	0.0	205.03332901000977	
36	184.6323070526123	fix_post	2		12	34.0	2.5	/experiments/AOT/AOT_stimuli/rescaled_final/2138_rv.mp4	0.0	205.15159511566162	0.0999898910522461
37	184.73229694366455	fix_pre	0		120	35.0	2.5	blank	1.0	205.25158500671387	0.9999921321868896
37	185.73228907585144	movie	1		300	35.0	2.5	blank	1.0	206.25157713890076	2.500030994415283
37	186.11571288108826	pulse	1	t		35.0	2.5	blank	1.0	206.63500094413757	
37	187.7157609462738	pulse	1	t		35.0	2.5	blank	1.0	208.23504900932312	
37	188.23232007026672	fix_post	2		12	35.0	2.5	blank	1.0	208.75160813331604	0.09988093376159668
38	188.33220100402832	fix_pre	0		119	36.0	2.5	/experiments/AOT/AOT_stimuli/rescaled_final/2030_fw.mp4	0.0	208.85148906707764	0.9917058944702148
38	189.31575798988342	pulse	0	t		36.0	2.5	/experiments/AOT/AOT_stimuli/rescaled_final/2030_fw.mp4	0.0	209.83504605293274	
38	189.32390689849854	movie	1		245	36.0	2.5	/experiments/AOT/AOT_stimuli/rescaled_final/2030_fw.mp4	0.0	209.84319496154785	2.5083770751953125
38	190.91544008255005	pulse	1	t		36.0	2.5	/experiments/AOT/AOT_stimuli/rescaled_final/2030_fw.mp4	0.0	211.43472814559937	
38	191.83228397369385	fix_post	2		12	36.0	2.5	/experiments/AOT/AOT_stimuli/rescaled_final/2030_fw.mp4	0.0	212.35157203674316	0.10002493858337402
39	191.93230891227722	fix_pre	0		120	37.0	2.5	/experiments/AOT/AOT_stimuli/rescaled_final/1137_fw.mp4	0.0	212.45159697532654	0.999946117401123
39	192.51575088500977	pulse	0	t		37.0	2.5	/experiments/AOT/AOT_stimuli/rescaled_final/1137_fw.mp4	0.0	213.03503894805908	
39	192.93225502967834	movie	1		246	37.0	2.5	/experiments/AOT/AOT_stimuli/rescaled_final/1137_fw.mp4	0.0	213.45154309272766	2.4999780654907227
39	194.11573600769043	pulse	1	t		37.0	2.5	/experiments/AOT/AOT_stimuli/rescaled_final/1137_fw.mp4	0.0	214.63502407073975	
39	195.43223309516907	fix_post	2		12	37.0	2.5	/experiments/AOT/AOT_stimuli/rescaled_final/1137_fw.mp4	0.0	215.95152115821838	0.10003781318664551
40	195.5322709083557	fix_pre	0		120	38.0	2.5	/experiments/AOT/AOT_stimuli/rescaled_final/1377_fw.mp4	0.0	216.05155897140503	1.0000061988830566
40	195.71567487716675	pulse	0	t		38.0	2.5	/experiments/AOT/AOT_stimuli/rescaled_final/1377_fw.mp4	0.0	216.23496294021606	
40	196.53227710723877	movie	1		243	38.0	2.5	/experiments/AOT/AOT_stimuli/rescaled_final/1377_fw.mp4	0.0	217.0515651702881	2.4999868869781494
40	197.3159248828888	pulse	1	t		38.0	2.5	/experiments/AOT/AOT_stimuli/rescaled_final/1377_fw.mp4	0.0	217.8352129459381	
40	198.91413807868958	pulse	1	t		38.0	2.5	/experiments/AOT/AOT_stimuli/rescaled_final/1377_fw.mp4	0.0	219.4334261417389	
40	199.03226399421692	fix_post	2		12	38.0	2.5	/experiments/AOT/AOT_stimuli/rescaled_final/1377_fw.mp4	0.0	219.55155205726624	0.09996294975280762
41	199.13222694396973	fix_pre	0		120	39.0	2.5	/experiments/AOT/AOT_stimuli/rescaled_final/0815_fw.mp4	0.0	219.65151500701904	0.9999690055847168
41	200.13219594955444	movie	1		245	39.0	2.5	/experiments/AOT/AOT_stimuli/rescaled_final/0815_fw.mp4	0.0	220.65148401260376	2.5000901222229004
41	200.5152130126953	pulse	1	t		39.0	2.5	/experiments/AOT/AOT_stimuli/rescaled_final/0815_fw.mp4	0.0	221.03450107574463	
41	202.115660905838	pulse	1	t		39.0	2.5	/experiments/AOT/AOT_stimuli/rescaled_final/0815_fw.mp4	0.0	222.63494896888733	
41	202.63228607177734	fix_post	2		12	39.0	2.5	/experiments/AOT/AOT_stimuli/rescaled_final/0815_fw.mp4	0.0	223.15157413482666	0.0999598503112793
42	202.73224592208862	fix_pre	0		119	40.0	2.5	/experiments/AOT/AOT_stimuli/rescaled_final/1639_fw.mp4	0.0	223.25153398513794	0.9916021823883057
42	203.71567797660828	pulse	0	t		40.0	2.5	/experiments/AOT/AOT_stimuli/rescaled_final/1639_fw.mp4	0.0	224.2349660396576	
42	203.72384810447693	movie	1		246	40.0	2.5	/experiments/AOT/AOT_stimuli/rescaled_final/1639_fw.mp4	0.0	224.24313616752625	2.5079078674316406
42	205.31521201133728	pulse	1	t		40.0	2.5	/experiments/AOT/AOT_stimuli/rescaled_final/1639_fw.mp4	0.0	225.8345000743866	
42	206.23175597190857	fix_post	2		12	40.0	2.5	/experiments/AOT/AOT_stimuli/rescaled_final/1639_fw.mp4	0.0	226.75104403495789	0.1005549430847168
43	206.3323109149933	fix_pre	0		120	41.0	2.5	/experiments/AOT/AOT_stimuli/rescaled_final/0860_rv.mp4	0.0	226.8515989780426	0.99996018409729
43	206.91572904586792	pulse	0	t		41.0	2.5	/experiments/AOT/AOT_stimuli/rescaled_final/0860_rv.mp4	0.0	227.43501710891724	
43	207.33227109909058	movie	1		244	41.0	2.5	/experiments/AOT/AOT_stimuli/rescaled_final/0860_rv.mp4	0.0	227.8515591621399	2.4998509883880615
43	208.51567387580872	pulse	1	t		41.0	2.5	/experiments/AOT/AOT_stimuli/rescaled_final/0860_rv.mp4	0.0	229.03496193885803	
43	209.83212208747864	fix_post	2		12	41.0	2.5	/experiments/AOT/AOT_stimuli/rescaled_final/0860_rv.mp4	0.0	230.35141015052795	0.10000300407409668
44	209.93212509155273	fix_pre	0		120	42.0	2.5	blank	1.0	230.45141315460205	1.0000598430633545
44	210.11563396453857	pulse	0	t		42.0	2.5	blank	1.0	230.6349220275879	
44	210.9321849346161	movie	1		300	42.0	2.5	blank	1.0	231.4514729976654	2.499994993209839
44	211.71567392349243	pulse	1	t		42.0	2.5	blank	1.0	232.23496198654175	
44	213.31562900543213	pulse	1	t		42.0	2.5	blank	1.0	233.83491706848145	
44	213.43217992782593	fix_post	2		12	42.0	2.5	blank	1.0	233.95146799087524	0.09962201118469238
45	213.53180193901062	fix_pre	0		120	43.0	2.5	/experiments/AOT/AOT_stimuli/rescaled_final/1546_fw.mp4	0.0	234.05109000205994	1.0002939701080322
45	214.53209590911865	movie	1		246	43.0	2.5	/experiments/AOT/AOT_stimuli/rescaled_final/1546_fw.mp4	0.0	235.05138397216797	2.5000321865081787
45	214.9170639514923	pulse	1	t		43.0	2.5	/experiments/AOT/AOT_stimuli/rescaled_final/1546_fw.mp4	0.0	235.43635201454163	
45	216.5156729221344	pulse	1	t		43.0	2.5	/experiments/AOT/AOT_stimuli/rescaled_final/1546_fw.mp4	0.0	237.03496098518372	
45	217.03212809562683	fix_post	2		12	43.0	2.5	/experiments/AOT/AOT_stimuli/rescaled_final/1546_fw.mp4	0.0	237.55141615867615	0.10004496574401855
46	217.13217306137085	fix_pre	0		119	44.0	2.5	/experiments/AOT/AOT_stimuli/rescaled_final/0124_fw.mp4	0.0	237.65146112442017	0.9915378093719482
46	218.11563396453857	pulse	0	t		44.0	2.5	/experiments/AOT/AOT_stimuli/rescaled_final/0124_fw.mp4	0.0	238.6349220275879	
46	218.1237108707428	movie	1		246	44.0	2.5	/experiments/AOT/AOT_stimuli/rescaled_final/0124_fw.mp4	0.0	238.64299893379211	2.5084800720214844
46	219.71661591529846	pulse	1	t		44.0	2.5	/experiments/AOT/AOT_stimuli/rescaled_final/0124_fw.mp4	0.0	240.23590397834778	
46	220.63219094276428	fix_post	2		12	44.0	2.5	/experiments/AOT/AOT_stimuli/rescaled_final/0124_fw.mp4	0.0	241.1514790058136	0.09992003440856934
47	220.73211097717285	fix_pre	0		120	45.0	2.5	/experiments/AOT/AOT_stimuli/rescaled_final/1909_rv.mp4	0.0	241.25139904022217	0.9996120929718018
47	221.31558394432068	pulse	0	t		45.0	2.5	/experiments/AOT/AOT_stimuli/rescaled_final/1909_rv.mp4	0.0	241.83487200737	
47	221.73172307014465	movie	1		244	45.0	2.5	/experiments/AOT/AOT_stimuli/rescaled_final/1909_rv.mp4	0.0	242.25101113319397	2.5004169940948486
47	222.91564202308655	pulse	1	t		45.0	2.5	/experiments/AOT/AOT_stimuli/rescaled_final/1909_rv.mp4	0.0	243.43493008613586	
47	224.2321400642395	fix_post	2		12	45.0	2.5	/experiments/AOT/AOT_stimuli/rescaled_final/1909_rv.mp4	0.0	244.75142812728882	0.09993886947631836
48	224.33207893371582	fix_pre	0		120	46.0	2.5	/experiments/AOT/AOT_stimuli/rescaled_final/1775_rv.mp4	0.0	244.85136699676514	1.0000450611114502
48	224.51558709144592	pulse	0	t		46.0	2.5	/experiments/AOT/AOT_stimuli/rescaled_final/1775_rv.mp4	0.0	245.03487515449524	
48	225.33212399482727	movie	1		245	46.0	2.5	/experiments/AOT/AOT_stimuli/rescaled_final/1775_rv.mp4	0.0	245.8514120578766	2.500048875808716
48	226.11560797691345	pulse	1	t		46.0	2.5	/experiments/AOT/AOT_stimuli/rescaled_final/1775_rv.mp4	0.0	246.63489603996277	
48	227.71415305137634	pulse	1	t		46.0	2.5	/experiments/AOT/AOT_stimuli/rescaled_final/1775_rv.mp4	0.0	248.23344111442566	
48	227.832172870636	fix_post	2		12	46.0	2.5	/experiments/AOT/AOT_stimuli/rescaled_final/1775_rv.mp4	0.0	248.3514609336853	0.0998680591583252
49	227.9320409297943	fix_pre	0		120	47.0	2.5	blank	1.0	248.45132899284363	1.0002319812774658
49	228.93227291107178	movie	1		300	47.0	2.5	blank	1.0	249.4515609741211	2.499912977218628
49	229.31563210487366	pulse	1	t		47.0	2.5	blank	1.0	249.83492016792297	
49	230.91557693481445	pulse	1	t		47.0	2.5	blank	1.0	251.43486499786377	
49	231.4321858882904	fix_post	2		12	47.0	2.5	blank	1.0	251.95147395133972	0.09991908073425293
50	231.53210496902466	fix_pre	0		119	48.0	2.5	/experiments/AOT/AOT_stimuli/rescaled_final/0221_fw.mp4	0.0	252.05139303207397	0.9916341304779053
50	232.51561188697815	pulse	0	t		48.0	2.5	/experiments/AOT/AOT_stimuli/rescaled_final/0221_fw.mp4	0.0	253.03489995002747	
50	232.52373909950256	movie	1		246	48.0	2.5	/experiments/AOT/AOT_stimuli/rescaled_final/0221_fw.mp4	0.0	253.04302716255188	2.507978916168213
50	234.11564898490906	pulse	1	t		48.0	2.5	/experiments/AOT/AOT_stimuli/rescaled_final/0221_fw.mp4	0.0	254.63493704795837	
50	235.03171801567078	fix_post	2		12	48.0	2.5	/experiments/AOT/AOT_stimuli/rescaled_final/0221_fw.mp4	0.0	255.5510060787201	0.09993290901184082
51	235.13165092468262	fix_pre	0		120	49.0	2.5	/experiments/AOT/AOT_stimuli/rescaled_final/1561_rv.mp4	0.0	255.65093898773193	1.0003061294555664
51	235.7151939868927	pulse	0	t		49.0	2.5	/experiments/AOT/AOT_stimuli/rescaled_final/1561_rv.mp4	0.0	256.234482049942	
51	236.13195705413818	movie	1		246	49.0	2.5	/experiments/AOT/AOT_stimuli/rescaled_final/1561_rv.mp4	0.0	256.6512451171875	2.5001349449157715
51	237.31548309326172	pulse	1	t		49.0	2.5	/experiments/AOT/AOT_stimuli/rescaled_final/1561_rv.mp4	0.0	257.83477115631104	
51	238.63209199905396	fix_post	2		12	49.0	2.5	/experiments/AOT/AOT_stimuli/rescaled_final/1561_rv.mp4	0.0	259.15138006210327	0.09995889663696289
52	238.73205089569092	fix_pre	0		120	50.0	2.5	/experiments/AOT/AOT_stimuli/rescaled_final/2008_fw.mp4	0.0	259.25133895874023	1.0000121593475342
52	238.9156150817871	pulse	0	t		50.0	2.5	/experiments/AOT/AOT_stimuli/rescaled_final/2008_fw.mp4	0.0	259.4349031448364	
52	239.73206305503845	movie	1		246	50.0	2.5	/experiments/AOT/AOT_stimuli/rescaled_final/2008_fw.mp4	0.0	260.25135111808777	2.499958038330078
52	240.51546502113342	pulse	1	t		50.0	2.5	/experiments/AOT/AOT_stimuli/rescaled_final/2008_fw.mp4	0.0	261.03475308418274	
52	242.11494708061218	pulse	1	t		50.0	2.5	/experiments/AOT/AOT_stimuli/rescaled_final/2008_fw.mp4	0.0	262.6342351436615	
52	242.23202109336853	fix_post	2		12	50.0	2.5	/experiments/AOT/AOT_stimuli/rescaled_final/2008_fw.mp4	0.0	262.75130915641785	0.09996700286865234
53	242.33198809623718	fix_pre	0		120	51.0	2.5	/experiments/AOT/AOT_stimuli/rescaled_final/1477_fw.mp4	0.0	262.8512761592865	0.9999659061431885
53	243.33195400238037	movie	1		246	51.0	2.5	/experiments/AOT/AOT_stimuli/rescaled_final/1477_fw.mp4	0.0	263.8512420654297	2.5000109672546387
53	243.71496987342834	pulse	1	t		51.0	2.5	/experiments/AOT/AOT_stimuli/rescaled_final/1477_fw.mp4	0.0	264.23425793647766	
53	245.31544303894043	pulse	1	t		51.0	2.5	/experiments/AOT/AOT_stimuli/rescaled_final/1477_fw.mp4	0.0	265.83473110198975	
53	245.831964969635	fix_post	2		12	51.0	2.5	/experiments/AOT/AOT_stimuli/rescaled_final/1477_fw.mp4	0.0	266.3512530326843	0.10004091262817383
54	245.93200588226318	fix_pre	0		119	52.0	2.5	/experiments/AOT/AOT_stimuli/rescaled_final/0014_fw.mp4	0.0	266.4512939453125	0.9915871620178223
54	246.91542291641235	pulse	0	t		52.0	2.5	/experiments/AOT/AOT_stimuli/rescaled_final/0014_fw.mp4	0.0	267.43471097946167	
54	246.923593044281	movie	1		247	52.0	2.5	/experiments/AOT/AOT_stimuli/rescaled_final/0014_fw.mp4	0.0	267.4428811073303	2.5083470344543457
54	248.514995098114	pulse	1	t		52.0	2.5	/experiments/AOT/AOT_stimuli/rescaled_final/0014_fw.mp4	0.0	269.03428316116333	
54	249.43194007873535	fix_post	2		12	52.0	2.5	/experiments/AOT/AOT_stimuli/rescaled_final/0014_fw.mp4	0.0	269.95122814178467	0.0999898910522461
55	249.5319299697876	fix_pre	0		120	53.0	2.5	/experiments/AOT/AOT_stimuli/rescaled_final/1983_fw.mp4	0.0	270.0512180328369	1.000075101852417
55	250.11542892456055	pulse	0	t		53.0	2.5	/experiments/AOT/AOT_stimuli/rescaled_final/1983_fw.mp4	0.0	270.63471698760986	
55	250.53200507164001	movie	1		249	53.0	2.5	/experiments/AOT/AOT_stimuli/rescaled_final/1983_fw.mp4	0.0	271.05129313468933	2.4995839595794678
55	251.71549797058105	pulse	1	t		53.0	2.5	/experiments/AOT/AOT_stimuli/rescaled_final/1983_fw.mp4	0.0	272.23478603363037	
55	253.03158903121948	fix_post	2		12	53.0	2.5	/experiments/AOT/AOT_stimuli/rescaled_final/1983_fw.mp4	0.0	273.5508770942688	0.10031700134277344
56	253.13190603256226	fix_pre	0		120	54.0	2.5	/experiments/AOT/AOT_stimuli/rescaled_final/0383_fw.mp4	0.0	273.6511940956116	1.0001649856567383
56	253.31536889076233	pulse	0	t		54.0	2.5	/experiments/AOT/AOT_stimuli/rescaled_final/0383_fw.mp4	0.0	273.83465695381165	
56	254.132071018219	movie	1		244	54.0	2.5	/experiments/AOT/AOT_stimuli/rescaled_final/0383_fw.mp4	0.0	274.6513590812683	2.49981689453125
56	254.91549801826477	pulse	1	t		54.0	2.5	/experiments/AOT/AOT_stimuli/rescaled_final/0383_fw.mp4	0.0	275.4347860813141	
56	256.5140058994293	pulse	1	t		54.0	2.5	/experiments/AOT/AOT_stimuli/rescaled_final/0383_fw.mp4	0.0	277.03329396247864	
56	256.63188791275024	fix_post	2		12	54.0	2.5	/experiments/AOT/AOT_stimuli/rescaled_final/0383_fw.mp4	0.0	277.15117597579956	0.10003519058227539
57	256.7319231033325	fix_pre	0		120	55.0	2.5	/experiments/AOT/AOT_stimuli/rescaled_final/1732_fw.mp4	0.0	277.25121116638184	0.9999988079071045
57	257.7319219112396	movie	1		243	55.0	2.5	/experiments/AOT/AOT_stimuli/rescaled_final/1732_fw.mp4	0.0	278.25120997428894	2.4999501705169678
57	258.11504101753235	pulse	1	t		55.0	2.5	/experiments/AOT/AOT_stimuli/rescaled_final/1732_fw.mp4	0.0	278.63432908058167	
57	259.715411901474	pulse	1	t		55.0	2.5	/experiments/AOT/AOT_stimuli/rescaled_final/1732_fw.mp4	0.0	280.2346999645233	
57	260.2318720817566	fix_post	2		12	55.0	2.5	/experiments/AOT/AOT_stimuli/rescaled_final/1732_fw.mp4	0.0	280.7511601448059	0.10009098052978516
58	260.3319630622864	fix_pre	0		119	56.0	2.5	blank	1.0	280.8512511253357	0.9915728569030762
58	261.3154389858246	pulse	0	t		56.0	2.5	blank	1.0	281.8347270488739	
58	261.32353591918945	movie	1		301	56.0	2.5	blank	1.0	281.84282398223877	2.5083930492401123
58	262.9154279232025	pulse	1	t		56.0	2.5	blank	1.0	283.43471598625183	
58	263.83192896842957	fix_post	2		12	56.0	2.5	blank	1.0	284.3512170314789	0.09998106956481934
59	263.9319100379944	fix_pre	0		120	57.0	2.5	/experiments/AOT/AOT_stimuli/rescaled_final/1278_rv.mp4	0.0	284.4511981010437	1.0000109672546387
59	264.51540994644165	pulse	0	t		57.0	2.5	/experiments/AOT/AOT_stimuli/rescaled_final/1278_rv.mp4	0.0	285.03469800949097	
59	264.931921005249	movie	1		246	57.0	2.5	/experiments/AOT/AOT_stimuli/rescaled_final/1278_rv.mp4	0.0	285.45120906829834	2.4995598793029785
59	266.115464925766	pulse	1	t		57.0	2.5	/experiments/AOT/AOT_stimuli/rescaled_final/1278_rv.mp4	0.0	286.6347529888153	
59	267.431480884552	fix_post	2		12	57.0	2.5	/experiments/AOT/AOT_stimuli/rescaled_final/1278_rv.mp4	0.0	287.9507689476013	0.10043001174926758
60	267.53191089630127	fix_pre	0		120	58.0	2.5	/experiments/AOT/AOT_stimuli/rescaled_final/0903_fw.mp4	0.0	288.0511989593506	0.9999771118164062
60	267.7153329849243	pulse	0	t		58.0	2.5	/experiments/AOT/AOT_stimuli/rescaled_final/0903_fw.mp4	0.0	288.23462104797363	
60	268.5318880081177	movie	1		246	58.0	2.5	/experiments/AOT/AOT_stimuli/rescaled_final/0903_fw.mp4	0.0	289.051176071167	2.499990940093994
60	269.3153429031372	pulse	1	t		58.0	2.5	/experiments/AOT/AOT_stimuli/rescaled_final/0903_fw.mp4	0.0	289.8346309661865	
60	270.9149179458618	pulse	1	t		58.0	2.5	/experiments/AOT/AOT_stimuli/rescaled_final/0903_fw.mp4	0.0	291.43420600891113	
60	271.03187894821167	fix_post	2		12	58.0	2.5	/experiments/AOT/AOT_stimuli/rescaled_final/0903_fw.mp4	0.0	291.551167011261	0.09989500045776367
61	271.13177394866943	fix_pre	0		120	59.0	2.5	/experiments/AOT/AOT_stimuli/rescaled_final/0705_fw.mp4	0.0	291.65106201171875	1.0001070499420166
61	272.13188099861145	movie	1		243	59.0	2.5	/experiments/AOT/AOT_stimuli/rescaled_final/0705_fw.mp4	0.0	292.65116906166077	2.4999709129333496
61	272.51658391952515	pulse	1	t		59.0	2.5	/experiments/AOT/AOT_stimuli/rescaled_final/0705_fw.mp4	0.0	293.03587198257446	
61	274.11539101600647	pulse	1	t		59.0	2.5	/experiments/AOT/AOT_stimuli/rescaled_final/0705_fw.mp4	0.0	294.6346790790558	
61	274.6318519115448	fix_post	2		12	59.0	2.5	/experiments/AOT/AOT_stimuli/rescaled_final/0705_fw.mp4	0.0	295.1511399745941	0.0999760627746582
62	274.73182797431946	fix_pre	0		119	60.0	2.5	/experiments/AOT/AOT_stimuli/rescaled_final/0343_rv.mp4	0.0	295.2511160373688	0.9917049407958984
62	275.7152409553528	pulse	0	t		60.0	2.5	/experiments/AOT/AOT_stimuli/rescaled_final/0343_rv.mp4	0.0	296.2345290184021	
62	275.72353291511536	movie	1		244	60.0	2.5	/experiments/AOT/AOT_stimuli/rescaled_final/0343_rv.mp4	0.0	296.2428209781647	2.5078821182250977
62	277.31524109840393	pulse	1	t		60.0	2.5	/experiments/AOT/AOT_stimuli/rescaled_final/0343_rv.mp4	0.0	297.83452916145325	
62	278.23141503334045	fix_post	2		12	60.0	2.5	/experiments/AOT/AOT_stimuli/rescaled_final/0343_rv.mp4	0.0	298.75070309638977	0.10046005249023438
63	278.3318750858307	fix_pre	0		120	61.0	2.5	blank	1.0	298.85116314888	1.0000028610229492
63	278.9153039455414	pulse	0	t		61.0	2.5	blank	1.0	299.4345920085907	
63	279.33187794685364	movie	1		300	61.0	2.5	blank	1.0	299.85116600990295	2.499997138977051
63	280.5153501033783	pulse	1	t		61.0	2.5	blank	1.0	301.0346381664276	
63	281.8318750858307	fix_post	2		12	61.0	2.5	blank	1.0	302.35116314888	0.09991288185119629
64	281.9317879676819	fix_pre	0		120	62.0	2.5	/experiments/AOT/AOT_stimuli/rescaled_final/0124_fw.mp4	0.0	302.4510760307312	0.9999749660491943
64	282.11531805992126	pulse	0	t		62.0	2.5	/experiments/AOT/AOT_stimuli/rescaled_final/0124_fw.mp4	0.0	302.6346061229706	
64	282.9317629337311	movie	1		243	62.0	2.5	/experiments/AOT/AOT_stimuli/rescaled_final/0124_fw.mp4	0.0	303.4510509967804	2.499948024749756
64	283.7153470516205	pulse	1	t		62.0	2.5	/experiments/AOT/AOT_stimuli/rescaled_final/0124_fw.mp4	0.0	304.2346351146698	
64	285.31372690200806	pulse	1	t		62.0	2.5	/experiments/AOT/AOT_stimuli/rescaled_final/0124_fw.mp4	0.0	305.8330149650574	
64	285.43171095848083	fix_post	2		12	62.0	2.5	/experiments/AOT/AOT_stimuli/rescaled_final/0124_fw.mp4	0.0	305.95099902153015	0.10006403923034668
65	285.5317749977112	fix_pre	0		120	63.0	2.5	/experiments/AOT/AOT_stimuli/rescaled_final/2138_fw.mp4	0.0	306.0510630607605	0.9999589920043945
65	286.5317339897156	movie	1		245	63.0	2.5	/experiments/AOT/AOT_stimuli/rescaled_final/2138_fw.mp4	0.0	307.0510220527649	2.5001120567321777
65	286.91492795944214	pulse	1	t		63.0	2.5	/experiments/AOT/AOT_stimuli/rescaled_final/2138_fw.mp4	0.0	307.43421602249146	
65	288.5153489112854	pulse	1	t		63.0	2.5	/experiments/AOT/AOT_stimuli/rescaled_final/2138_fw.mp4	0.0	309.0346369743347	
65	289.03184604644775	fix_post	2		12	63.0	2.5	/experiments/AOT/AOT_stimuli/rescaled_final/2138_fw.mp4	0.0	309.55113410949707	0.09992384910583496
66	289.1317698955536	fix_pre	0		119	64.0	2.5	/experiments/AOT/AOT_stimuli/rescaled_final/0296_fw.mp4	0.0	309.6510579586029	0.991671085357666
66	290.11488699913025	pulse	0	t		64.0	2.5	/experiments/AOT/AOT_stimuli/rescaled_final/0296_fw.mp4	0.0	310.63417506217957	
66	290.12344098091125	movie	1		246	64.0	2.5	/experiments/AOT/AOT_stimuli/rescaled_final/0296_fw.mp4	0.0	310.64272904396057	2.5082509517669678
66	291.71460795402527	pulse	1	t		64.0	2.5	/experiments/AOT/AOT_stimuli/rescaled_final/0296_fw.mp4	0.0	312.2338960170746	
66	292.6316919326782	fix_post	2		12	64.0	2.5	/experiments/AOT/AOT_stimuli/rescaled_final/0296_fw.mp4	0.0	313.15097999572754	0.10042095184326172
67	292.7321128845215	fix_pre	0		120	65.0	2.5	/experiments/AOT/AOT_stimuli/rescaled_final/0355_rv.mp4	0.0	313.2514009475708	0.999284029006958
67	293.31526708602905	pulse	0	t		65.0	2.5	/experiments/AOT/AOT_stimuli/rescaled_final/0355_rv.mp4	0.0	313.83455514907837	
67	293.73139691352844	movie	1		246	65.0	2.5	/experiments/AOT/AOT_stimuli/rescaled_final/0355_rv.mp4	0.0	314.25068497657776	2.500338077545166
67	294.91529297828674	pulse	1	t		65.0	2.5	/experiments/AOT/AOT_stimuli/rescaled_final/0355_rv.mp4	0.0	315.43458104133606	
67	296.2317349910736	fix_post	2		12	65.0	2.5	/experiments/AOT/AOT_stimuli/rescaled_final/0355_rv.mp4	0.0	316.7510230541229	0.1000680923461914
68	296.3318030834198	fix_pre	0		120	66.0	2.5	/experiments/AOT/AOT_stimuli/rescaled_final/1078_rv.mp4	0.0	316.8510911464691	0.9998619556427002
68	296.5153179168701	pulse	0	t		66.0	2.5	/experiments/AOT/AOT_stimuli/rescaled_final/1078_rv.mp4	0.0	317.03460597991943	
68	297.3316650390625	movie	1		243	66.0	2.5	/experiments/AOT/AOT_stimuli/rescaled_final/1078_rv.mp4	0.0	317.8509531021118	2.500079870223999
68	298.11523509025574	pulse	1	t		66.0	2.5	/experiments/AOT/AOT_stimuli/rescaled_final/1078_rv.mp4	0.0	318.63452315330505	
68	299.7137448787689	pulse	1	t		66.0	2.5	/experiments/AOT/AOT_stimuli/rescaled_final/1078_rv.mp4	0.0	320.23303294181824	
68	299.8317449092865	fix_post	2		12	66.0	2.5	/experiments/AOT/AOT_stimuli/rescaled_final/1078_rv.mp4	0.0	320.3510329723358	0.09988212585449219
69	299.931627035141	fix_pre	0		120	67.0	2.5	/experiments/AOT/AOT_stimuli/rescaled_final/0745_rv.mp4	0.0	320.4509150981903	1.0000710487365723
69	300.93169808387756	movie	1		244	67.0	2.5	/experiments/AOT/AOT_stimuli/rescaled_final/0745_rv.mp4	0.0	321.4509861469269	2.500002861022949
69	301.31463098526	pulse	1	t		67.0	2.5	/experiments/AOT/AOT_stimuli/rescaled_final/0745_rv.mp4	0.0	321.8339190483093	
69	302.9151270389557	pulse	1	t		67.0	2.5	/experiments/AOT/AOT_stimuli/rescaled_final/0745_rv.mp4	0.0	323.434415102005	
69	303.4317009449005	fix_post	2		12	67.0	2.5	/experiments/AOT/AOT_stimuli/rescaled_final/0745_rv.mp4	0.0	323.95098900794983	0.10000300407409668
70	303.5317039489746	fix_pre	0		119	68.0	2.5	blank	1.0	324.0509920120239	0.9916400909423828
70	304.5152060985565	pulse	0	t		68.0	2.5	blank	1.0	325.03449416160583	
70	304.523344039917	movie	1		301	68.0	2.5	blank	1.0	325.0426321029663	2.50838303565979
70	306.11518907546997	pulse	1	t		68.0	2.5	blank	1.0	326.6344771385193	
70	307.0317270755768	fix_post	2		12	68.0	2.5	blank	1.0	327.5510151386261	0.09991788864135742
71	307.13164496421814	fix_pre	0		120	69.0	2.5	/experiments/AOT/AOT_stimuli/rescaled_final/1260_rv.mp4	0.0	327.65093302726746	1.0000770092010498
71	307.7151598930359	pulse	0	t		69.0	2.5	/experiments/AOT/AOT_stimuli/rescaled_final/1260_rv.mp4	0.0	328.2344479560852	
71	308.1317219734192	movie	1		247	69.0	2.5	/experiments/AOT/AOT_stimuli/rescaled_final/1260_rv.mp4	0.0	328.6510100364685	2.499972105026245
71	309.3151500225067	pulse	1	t		69.0	2.5	/experiments/AOT/AOT_stimuli/rescaled_final/1260_rv.mp4	0.0	329.83443808555603	
71	310.63169407844543	fix_post	2		12	69.0	2.5	/experiments/AOT/AOT_stimuli/rescaled_final/1260_rv.mp4	0.0	331.15098214149475	0.0999758243560791
72	310.7316699028015	fix_pre	0		120	70.0	2.5	/experiments/AOT/AOT_stimuli/rescaled_final/1880_fw.mp4	0.0	331.25095796585083	0.9999511241912842
72	310.91520500183105	pulse	0	t		70.0	2.5	/experiments/AOT/AOT_stimuli/rescaled_final/1880_fw.mp4	0.0	331.43449306488037	
72	311.7316210269928	movie	1		245	70.0	2.5	/experiments/AOT/AOT_stimuli/rescaled_final/1880_fw.mp4	0.0	332.2509090900421	2.4996390342712402
72	312.5151479244232	pulse	1	t		70.0	2.5	/experiments/AOT/AOT_stimuli/rescaled_final/1880_fw.mp4	0.0	333.03443598747253	
72	314.11354303359985	pulse	1	t		70.0	2.5	/experiments/AOT/AOT_stimuli/rescaled_final/1880_fw.mp4	0.0	334.63283109664917	
72	314.23126006126404	fix_post	2		12	70.0	2.5	/experiments/AOT/AOT_stimuli/rescaled_final/1880_fw.mp4	0.0	334.75054812431335	0.10036087036132812
73	314.33162093162537	fix_pre	0		120	71.0	2.5	/experiments/AOT/AOT_stimuli/rescaled_final/1586_fw.mp4	0.0	334.8509089946747	1.000002145767212
73	315.3316230773926	movie	1		245	71.0	2.5	/experiments/AOT/AOT_stimuli/rescaled_final/1586_fw.mp4	0.0	335.8509111404419	2.5001590251922607
73	315.71583795547485	pulse	1	t		71.0	2.5	/experiments/AOT/AOT_stimuli/rescaled_final/1586_fw.mp4	0.0	336.23512601852417	
73	317.3153929710388	pulse	1	t		71.0	2.5	/experiments/AOT/AOT_stimuli/rescaled_final/1586_fw.mp4	0.0	337.83468103408813	
73	317.83178210258484	fix_post	2		12	71.0	2.5	/experiments/AOT/AOT_stimuli/rescaled_final/1586_fw.mp4	0.0	338.35107016563416	0.0998837947845459
74	317.9316658973694	fix_pre	0		119	72.0	2.5	/experiments/AOT/AOT_stimuli/rescaled_final/0220_fw.mp4	0.0	338.4509539604187	0.9915790557861328
74	318.91515493392944	pulse	0	t		72.0	2.5	/experiments/AOT/AOT_stimuli/rescaled_final/0220_fw.mp4	0.0	339.43444299697876	
74	318.9232449531555	movie	1		245	72.0	2.5	/experiments/AOT/AOT_stimuli/rescaled_final/0220_fw.mp4	0.0	339.44253301620483	2.5083210468292236
74	320.51517605781555	pulse	1	t		72.0	2.5	/experiments/AOT/AOT_stimuli/rescaled_final/0220_fw.mp4	0.0	341.03446412086487	
74	321.43156599998474	fix_post	2		12	72.0	2.5	/experiments/AOT/AOT_stimuli/rescaled_final/0220_fw.mp4	0.0	341.95085406303406	0.10008001327514648
75	321.5316460132599	fix_pre	0		120	73.0	2.5	/experiments/AOT/AOT_stimuli/rescaled_final/2084_fw.mp4	0.0	342.0509340763092	1.0000090599060059
75	322.11508297920227	pulse	0	t		73.0	2.5	/experiments/AOT/AOT_stimuli/rescaled_final/2084_fw.mp4	0.0	342.6343710422516	
75	322.5316550731659	movie	1		243	73.0	2.5	/experiments/AOT/AOT_stimuli/rescaled_final/2084_fw.mp4	0.0	343.0509431362152	2.4999189376831055
75	323.71515703201294	pulse	1	t		73.0	2.5	/experiments/AOT/AOT_stimuli/rescaled_final/2084_fw.mp4	0.0	344.23444509506226	
75	325.031574010849	fix_post	2		12	73.0	2.5	/experiments/AOT/AOT_stimuli/rescaled_final/2084_fw.mp4	0.0	345.5508620738983	0.09995603561401367
76	325.131530046463	fix_pre	0		120	74.0	2.5	/experiments/AOT/AOT_stimuli/rescaled_final/1768_fw.mp4	0.0	345.65081810951233	1.0000858306884766
76	325.31521105766296	pulse	0	t		74.0	2.5	/experiments/AOT/AOT_stimuli/rescaled_final/1768_fw.mp4	0.0	345.8344991207123	
76	326.1316158771515	movie	1		245	74.0	2.5	/experiments/AOT/AOT_stimuli/rescaled_final/1768_fw.mp4	0.0	346.6509039402008	2.499974012374878
76	326.91504096984863	pulse	1	t		74.0	2.5	/experiments/AOT/AOT_stimuli/rescaled_final/1768_fw.mp4	0.0	347.43432903289795	
76	328.5132329463959	pulse	1	t		74.0	2.5	/experiments/AOT/AOT_stimuli/rescaled_final/1768_fw.mp4	0.0	349.0325210094452	
76	328.63158988952637	fix_post	2		12	74.0	2.5	/experiments/AOT/AOT_stimuli/rescaled_final/1768_fw.mp4	0.0	349.1508779525757	0.10001611709594727
77	328.7316060066223	fix_pre	0		120	75.0	2.5	blank	1.0	349.25089406967163	0.9994890689849854
77	329.7310950756073	movie	1		300	75.0	2.5	blank	1.0	350.2503831386566	2.500476837158203
77	330.11512303352356	pulse	1	t		75.0	2.5	blank	1.0	350.6344110965729	
77	331.71506690979004	pulse	1	t		75.0	2.5	blank	1.0	352.23435497283936	
77	332.2315719127655	fix_post	2		12	75.0	2.5	blank	1.0	352.7508599758148	0.09994196891784668
78	332.33151388168335	fix_pre	0		119	76.0	2.5	/experiments/AOT/AOT_stimuli/rescaled_final/1899_rv.mp4	0.0	352.85080194473267	0.9916930198669434
78	333.31505608558655	pulse	0	t		76.0	2.5	/experiments/AOT/AOT_stimuli/rescaled_final/1899_rv.mp4	0.0	353.83434414863586	
78	333.3232069015503	movie	1		244	76.0	2.5	/experiments/AOT/AOT_stimuli/rescaled_final/1899_rv.mp4	0.0	353.8424949645996	2.5082170963287354
78	334.9148690700531	pulse	1	t		76.0	2.5	/experiments/AOT/AOT_stimuli/rescaled_final/1899_rv.mp4	0.0	355.4341571331024	
78	335.831423997879	fix_post	2		12	76.0	2.5	/experiments/AOT/AOT_stimuli/rescaled_final/1899_rv.mp4	0.0	356.35071206092834	0.10016798973083496
79	335.93159198760986	fix_pre	0		120	77.0	2.5	/experiments/AOT/AOT_stimuli/rescaled_final/0301_rv.mp4	0.0	356.4508800506592	0.9994978904724121
79	336.5150420665741	pulse	0	t		77.0	2.5	/experiments/AOT/AOT_stimuli/rescaled_final/0301_rv.mp4	0.0	357.0343301296234	
79	336.9310898780823	movie	1		243	77.0	2.5	/experiments/AOT/AOT_stimuli/rescaled_final/0301_rv.mp4	0.0	357.4503779411316	2.500392198562622
79	338.11503291130066	pulse	1	t		77.0	2.5	/experiments/AOT/AOT_stimuli/rescaled_final/0301_rv.mp4	0.0	358.63432097435	
79	339.4314820766449	fix_post	2		12	77.0	2.5	/experiments/AOT/AOT_stimuli/rescaled_final/0301_rv.mp4	0.0	359.9507701396942	0.1001138687133789
80	339.5315959453583	fix_pre	0		120	78.0	2.5	/experiments/AOT/AOT_stimuli/rescaled_final/1581_rv.mp4	0.0	360.0508840084076	0.999891996383667
80	339.715087890625	pulse	0	t		78.0	2.5	/experiments/AOT/AOT_stimuli/rescaled_final/1581_rv.mp4	0.0	360.2343759536743	
80	340.53148794174194	movie	1		246	78.0	2.5	/experiments/AOT/AOT_stimuli/rescaled_final/1581_rv.mp4	0.0	361.05077600479126	2.4999630451202393
80	341.3149540424347	pulse	1	t		78.0	2.5	/experiments/AOT/AOT_stimuli/rescaled_final/1581_rv.mp4	0.0	361.834242105484	
80	342.9145209789276	pulse	1	t		78.0	2.5	/experiments/AOT/AOT_stimuli/rescaled_final/1581_rv.mp4	0.0	363.43380904197693	
80	343.0314509868622	fix_post	2		12	78.0	2.5	/experiments/AOT/AOT_stimuli/rescaled_final/1581_rv.mp4	0.0	363.5507390499115	0.10008907318115234
81	343.13154006004333	fix_pre	0		120	79.0	2.5	/experiments/AOT/AOT_stimuli/rescaled_final/1561_fw.mp4	0.0	363.65082812309265	0.9999978542327881
81	344.1315379142761	movie	1		244	79.0	2.5	/experiments/AOT/AOT_stimuli/rescaled_final/1561_fw.mp4	0.0	364.65082597732544	2.499680995941162
81	344.51590609550476	pulse	1	t		79.0	2.5	/experiments/AOT/AOT_stimuli/rescaled_final/1561_fw.mp4	0.0	365.0351941585541	
81	346.11447191238403	pulse	1	t		79.0	2.5	/experiments/AOT/AOT_stimuli/rescaled_final/1561_fw.mp4	0.0	366.63375997543335	
81	346.6312189102173	fix_post	2		12	79.0	2.5	/experiments/AOT/AOT_stimuli/rescaled_final/1561_fw.mp4	0.0	367.1505069732666	0.10057401657104492
82	346.73179292678833	fix_pre	0		119	80.0	2.5	/experiments/AOT/AOT_stimuli/rescaled_final/1287_fw.mp4	0.0	367.25108098983765	0.9911899566650391
82	347.7147960662842	pulse	0	t		80.0	2.5	/experiments/AOT/AOT_stimuli/rescaled_final/1287_fw.mp4	0.0	368.2340841293335	
82	347.72298288345337	movie	1		247	80.0	2.5	/experiments/AOT/AOT_stimuli/rescaled_final/1287_fw.mp4	0.0	368.2422709465027	2.5081870555877686
82	349.3143289089203	pulse	1	t		80.0	2.5	/experiments/AOT/AOT_stimuli/rescaled_final/1287_fw.mp4	0.0	369.8336169719696	
82	350.23116993904114	fix_post	2		12	80.0	2.5	/experiments/AOT/AOT_stimuli/rescaled_final/1287_fw.mp4	0.0	370.75045800209045	0.10029411315917969
83	350.3314640522003	fix_pre	0		120	81.0	2.5	/experiments/AOT/AOT_stimuli/rescaled_final/1287_rv.mp4	0.0	370.85075211524963	1.0002069473266602
83	350.91495299339294	pulse	0	t		81.0	2.5	/experiments/AOT/AOT_stimuli/rescaled_final/1287_rv.mp4	0.0	371.43424105644226	
83	351.331670999527	movie	1		245	81.0	2.5	/experiments/AOT/AOT_stimuli/rescaled_final/1287_rv.mp4	0.0	371.8509590625763	2.4997329711914062
83	352.5150570869446	pulse	1	t		81.0	2.5	/experiments/AOT/AOT_stimuli/rescaled_final/1287_rv.mp4	0.0	373.0343451499939	
83	353.8314039707184	fix_post	2		12	81.0	2.5	/experiments/AOT/AOT_stimuli/rescaled_final/1287_rv.mp4	0.0	374.3506920337677	0.09972691535949707
84	353.9311308860779	fix_pre	0		120	82.0	2.5	blank	1.0	374.4504189491272	1.0002691745758057
84	354.1149139404297	pulse	0	t		82.0	2.5	blank	1.0	374.634202003479	
84	354.9314000606537	movie	1		300	82.0	2.5	blank	1.0	375.450688123703	2.499987840652466
84	355.7148530483246	pulse	1	t		82.0	2.5	blank	1.0	376.2341411113739	
84	357.31498098373413	pulse	1	t		82.0	2.5	blank	1.0	377.83426904678345	
84	357.43138790130615	fix_post	2		12	82.0	2.5	blank	1.0	377.95067596435547	0.10007119178771973
85	357.5314590930939	fix_pre	0		120	83.0	2.5	/experiments/AOT/AOT_stimuli/rescaled_final/0189_rv.mp4	0.0	378.0507471561432	0.9999477863311768
85	358.53140687942505	movie	1		244	83.0	2.5	/experiments/AOT/AOT_stimuli/rescaled_final/0189_rv.mp4	0.0	379.05069494247437	2.5000832080841064
85	358.9147300720215	pulse	1	t		83.0	2.5	/experiments/AOT/AOT_stimuli/rescaled_final/0189_rv.mp4	0.0	379.4340181350708	
85	360.5148808956146	pulse	1	t		83.0	2.5	/experiments/AOT/AOT_stimuli/rescaled_final/0189_rv.mp4	0.0	381.03416895866394	
85	361.03149008750916	fix_post	2		12	83.0	2.5	/experiments/AOT/AOT_stimuli/rescaled_final/0189_rv.mp4	0.0	381.5507781505585	0.09988999366760254
87	361.13138008117676	stim	0		1716					381.6506681442261	14.3000009059906
87	362.1150209903717	pulse	0	t						382.634309053421	
87	363.7149019241333	pulse	0	t						384.2341899871826	
87	365.31490302085876	pulse	0	t						385.8341910839081	
87	366.9148769378662	pulse	0	t						387.4341650009155	
87	368.51486897468567	pulse	0	t						389.034157037735	
87	370.11490988731384	pulse	0	t						390.63419795036316	
87	371.7148449420929	pulse	0	t						392.2341330051422	
87	373.3148488998413	pulse	0	t						393.8341369628906	
87	374.9150490760803	pulse	0	t						395.43433713912964	
