trial_nr	onset	event_type	phase	response	nr_frames	movie_index	movie_duration	movie_file	blank	onset_abs	duration
0	0.17488718032836914	stim	0		1					24.67940330505371	0.008254528045654297
0	0.14386701583862305	response	0	space						24.648383140563965	
1	0.18314170837402344	stim	0		4813					24.687657833099365	40.1263952255249
1	40.29507493972778	pulse	0	t						64.79959106445312	
1	40.309536933898926	stim	1		1714					64.81405305862427	14.29831600189209
1	41.889498472213745	pulse	1	t						66.39401459693909	
1	43.489728689193726	pulse	1	t						67.99424481391907	
1	45.0899076461792	pulse	1	t						69.59442377090454	
1	46.69017577171326	pulse	1	t						71.1946918964386	
1	48.29043507575989	pulse	1	t						72.79495120048523	
1	49.89068055152893	pulse	1	t						74.39519667625427	
1	51.491108655929565	pulse	1	t						75.99562478065491	
1	53.091126918792725	pulse	1	t						77.59564304351807	
2	54.607852935791016	fix_pre	0		11	0.0	2.5	/experiments/Knapen_AOT/AOT_stimuli/rescaled_final/0237_fw.mp4	0.0	79.11236906051636	0.10842180252075195
2	54.691439390182495	pulse	0	t		0.0	2.5	/experiments/Knapen_AOT/AOT_stimuli/rescaled_final/0237_fw.mp4	0.0	79.19595551490784	
2	54.71627473831177	movie	1		284	0.0	2.5	/experiments/Knapen_AOT/AOT_stimuli/rescaled_final/0237_fw.mp4	0.0	79.22079086303711	2.4921369552612305
2	56.290247201919556	pulse	1	t		0.0	2.5	/experiments/Knapen_AOT/AOT_stimuli/rescaled_final/0237_fw.mp4	0.0	80.7947633266449	
2	57.208411693573	fix_post	2		12	0.0	2.5	/experiments/Knapen_AOT/AOT_stimuli/rescaled_final/0237_fw.mp4	0.0	81.71292781829834	0.09993600845336914
3	57.30834770202637	fix_pre	0		120	1.0	2.5	/experiments/Knapen_AOT/AOT_stimuli/rescaled_final/0728_rv.mp4	0.0	81.81286382675171	1.008378028869629
3	57.88430213928223	pulse	0	t		1.0	2.5	/experiments/Knapen_AOT/AOT_stimuli/rescaled_final/0728_rv.mp4	0.0	82.38881826400757	
3	58.316725730895996	movie	1		277	1.0	2.5	/experiments/Knapen_AOT/AOT_stimuli/rescaled_final/0728_rv.mp4	0.0	82.82124185562134	2.492042303085327
3	59.492247581481934	pulse	1	t		1.0	2.5	/experiments/Knapen_AOT/AOT_stimuli/rescaled_final/0728_rv.mp4	0.0	83.99676370620728	
3	60.80876803398132	fix_post	2		12	1.0	2.5	/experiments/Knapen_AOT/AOT_stimuli/rescaled_final/0728_rv.mp4	0.0	85.31328415870667	0.10000991821289062
4	60.908777952194214	fix_pre	0		120	2.0	2.5	/experiments/Knapen_AOT/AOT_stimuli/rescaled_final/0405_rv.mp4	0.0	85.41329407691956	1.0085060596466064
4	61.084067821502686	pulse	0	t		2.0	2.5	/experiments/Knapen_AOT/AOT_stimuli/rescaled_final/0405_rv.mp4	0.0	85.58858394622803	
4	61.91728401184082	movie	1		283	2.0	2.5	/experiments/Knapen_AOT/AOT_stimuli/rescaled_final/0405_rv.mp4	0.0	86.42180013656616	2.4920530319213867
4	62.68432664871216	pulse	1	t		2.0	2.5	/experiments/Knapen_AOT/AOT_stimuli/rescaled_final/0405_rv.mp4	0.0	87.1888427734375	
4	64.28450059890747	pulse	1	t		2.0	2.5	/experiments/Knapen_AOT/AOT_stimuli/rescaled_final/0405_rv.mp4	0.0	88.78901672363281	
4	64.4093370437622	fix_post	2		12	2.0	2.5	/experiments/Knapen_AOT/AOT_stimuli/rescaled_final/0405_rv.mp4	0.0	88.91385316848755	0.09999322891235352
5	64.50933027267456	fix_pre	0		120	3.0	2.5	/experiments/Knapen_AOT/AOT_stimuli/rescaled_final/0338_rv.mp4	0.0	89.0138463973999	1.0085084438323975
5	65.51783871650696	movie	1		285	3.0	2.5	/experiments/Knapen_AOT/AOT_stimuli/rescaled_final/0338_rv.mp4	0.0	90.0223548412323	2.492037534713745
5	65.88481092453003	pulse	1	t		3.0	2.5	/experiments/Knapen_AOT/AOT_stimuli/rescaled_final/0338_rv.mp4	0.0	90.38932704925537	
5	67.48505926132202	pulse	1	t		3.0	2.5	/experiments/Knapen_AOT/AOT_stimuli/rescaled_final/0338_rv.mp4	0.0	91.98957538604736	
5	68.0098762512207	fix_post	2		12	3.0	2.5	/experiments/Knapen_AOT/AOT_stimuli/rescaled_final/0338_rv.mp4	0.0	92.51439237594604	0.10000038146972656
6	68.10987663269043	fix_pre	0		118	4.0	2.5	/experiments/Knapen_AOT/AOT_stimuli/rescaled_final/0038_rv.mp4	0.0	92.61439275741577	0.991826057434082
6	69.08526539802551	pulse	0	t		4.0	2.5	/experiments/Knapen_AOT/AOT_stimuli/rescaled_final/0038_rv.mp4	0.0	93.58978152275085	
6	69.10170269012451	movie	1		290	4.0	2.5	/experiments/Knapen_AOT/AOT_stimuli/rescaled_final/0038_rv.mp4	0.0	93.60621881484985	2.500382661819458
6	70.68555545806885	pulse	1	t		4.0	2.5	/experiments/Knapen_AOT/AOT_stimuli/rescaled_final/0038_rv.mp4	0.0	95.19007158279419	
6	71.60208535194397	fix_post	2		12	4.0	2.5	/experiments/Knapen_AOT/AOT_stimuli/rescaled_final/0038_rv.mp4	0.0	96.10660147666931	0.10000228881835938
7	71.70208764076233	fix_pre	0		120	5.0	2.5	/experiments/Knapen_AOT/AOT_stimuli/rescaled_final/1248_rv.mp4	0.0	96.20660376548767	1.0085110664367676
7	72.28576135635376	pulse	0	t		5.0	2.5	/experiments/Knapen_AOT/AOT_stimuli/rescaled_final/1248_rv.mp4	0.0	96.7902774810791	
7	72.7105987071991	movie	1		282	5.0	2.5	/experiments/Knapen_AOT/AOT_stimuli/rescaled_final/1248_rv.mp4	0.0	97.21511483192444	2.4921138286590576
7	73.88596749305725	pulse	1	t		5.0	2.5	/experiments/Knapen_AOT/AOT_stimuli/rescaled_final/1248_rv.mp4	0.0	98.39048361778259	
7	75.20271253585815	fix_post	2		12	5.0	2.5	/experiments/Knapen_AOT/AOT_stimuli/rescaled_final/1248_rv.mp4	0.0	99.7072286605835	0.09997034072875977
8	75.30268287658691	fix_pre	0		120	6.0	2.5	blank	1.0	99.80719900131226	1.0000932216644287
8	75.48619151115417	pulse	0	t		6.0	2.5	blank	1.0	99.99070763587952	
8	76.30277609825134	movie	1		300	6.0	2.5	blank	1.0	100.80729222297668	2.5003702640533447
8	77.08643341064453	pulse	1	t		6.0	2.5	blank	1.0	101.59094953536987	
8	78.68667364120483	pulse	1	t		6.0	2.5	blank	1.0	103.19118976593018	
8	78.80314636230469	fix_post	2		12	6.0	2.5	blank	1.0	103.30766248703003	0.10001254081726074
9	78.90315890312195	fix_pre	0		120	7.0	2.5	/experiments/Knapen_AOT/AOT_stimuli/rescaled_final/0237_fw.mp4	0.0	103.40767502784729	1.0085430145263672
9	79.91170191764832	movie	1		289	7.0	2.5	/experiments/Knapen_AOT/AOT_stimuli/rescaled_final/0237_fw.mp4	0.0	104.41621804237366	2.4920191764831543
9	80.28546071052551	pulse	1	t		7.0	2.5	/experiments/Knapen_AOT/AOT_stimuli/rescaled_final/0237_fw.mp4	0.0	104.78997683525085	
9	81.88520336151123	pulse	1	t		7.0	2.5	/experiments/Knapen_AOT/AOT_stimuli/rescaled_final/0237_fw.mp4	0.0	106.38971948623657	
9	82.40372109413147	fix_post	2		12	7.0	2.5	/experiments/Knapen_AOT/AOT_stimuli/rescaled_final/0237_fw.mp4	0.0	106.90823721885681	0.09999632835388184
10	82.50371742248535	fix_pre	0		119	8.0	2.5	/experiments/Knapen_AOT/AOT_stimuli/rescaled_final/0359_fw.mp4	0.0	107.0082335472107	1.0001637935638428
10	83.48743748664856	pulse	0	t		8.0	2.5	/experiments/Knapen_AOT/AOT_stimuli/rescaled_final/0359_fw.mp4	0.0	107.9919536113739	
10	83.5038812160492	movie	1		291	8.0	2.5	/experiments/Knapen_AOT/AOT_stimuli/rescaled_final/0359_fw.mp4	0.0	108.00839734077454	2.5003182888031006
10	85.08604884147644	pulse	1	t		8.0	2.5	/experiments/Knapen_AOT/AOT_stimuli/rescaled_final/0359_fw.mp4	0.0	109.59056496620178	
10	86.0041995048523	fix_post	2		12	8.0	2.5	/experiments/Knapen_AOT/AOT_stimuli/rescaled_final/0359_fw.mp4	0.0	110.50871562957764	0.10001373291015625
11	86.10421323776245	fix_pre	0		120	9.0	2.5	/experiments/Knapen_AOT/AOT_stimuli/rescaled_final/1206_fw.mp4	0.0	110.6087293624878	1.0001542568206787
11	86.68793749809265	pulse	0	t		9.0	2.5	/experiments/Knapen_AOT/AOT_stimuli/rescaled_final/1206_fw.mp4	0.0	111.192453622818	
11	87.10436749458313	movie	1		294	9.0	2.5	/experiments/Knapen_AOT/AOT_stimuli/rescaled_final/1206_fw.mp4	0.0	111.60888361930847	2.5003693103790283
11	88.28381633758545	pulse	1	t		9.0	2.5	/experiments/Knapen_AOT/AOT_stimuli/rescaled_final/1206_fw.mp4	0.0	112.78833246231079	
11	89.60473680496216	fix_post	2		12	9.0	2.5	/experiments/Knapen_AOT/AOT_stimuli/rescaled_final/1206_fw.mp4	0.0	114.1092529296875	0.10002374649047852
12	89.70476055145264	fix_pre	0		120	10.0	2.5	/experiments/Knapen_AOT/AOT_stimuli/rescaled_final/2047_rv.mp4	0.0	114.20927667617798	1.0086243152618408
12	89.8882987499237	pulse	0	t		10.0	2.5	/experiments/Knapen_AOT/AOT_stimuli/rescaled_final/2047_rv.mp4	0.0	114.39281487464905	
12	90.71338486671448	movie	1		289	10.0	2.5	/experiments/Knapen_AOT/AOT_stimuli/rescaled_final/2047_rv.mp4	0.0	115.21790099143982	2.491903305053711
12	91.48425054550171	pulse	1	t		10.0	2.5	/experiments/Knapen_AOT/AOT_stimuli/rescaled_final/2047_rv.mp4	0.0	115.98876667022705	
12	93.08612108230591	pulse	1	t		10.0	2.5	/experiments/Knapen_AOT/AOT_stimuli/rescaled_final/2047_rv.mp4	0.0	117.59063720703125	
12	93.20528817176819	fix_post	2		12	10.0	2.5	/experiments/Knapen_AOT/AOT_stimuli/rescaled_final/2047_rv.mp4	0.0	117.70980429649353	0.10002756118774414
13	93.30531573295593	fix_pre	0		120	11.0	2.5	/experiments/Knapen_AOT/AOT_stimuli/rescaled_final/0449_rv.mp4	0.0	117.80983185768127	1.0085012912750244
13	94.31381702423096	movie	1		294	11.0	2.5	/experiments/Knapen_AOT/AOT_stimuli/rescaled_final/0449_rv.mp4	0.0	118.8183331489563	2.4920177459716797
13	94.68501996994019	pulse	1	t		11.0	2.5	/experiments/Knapen_AOT/AOT_stimuli/rescaled_final/0449_rv.mp4	0.0	119.18953609466553	
13	96.28648710250854	pulse	1	t		11.0	2.5	/experiments/Knapen_AOT/AOT_stimuli/rescaled_final/0449_rv.mp4	0.0	120.79100322723389	
13	96.80583477020264	fix_post	2		12	11.0	2.5	/experiments/Knapen_AOT/AOT_stimuli/rescaled_final/0449_rv.mp4	0.0	121.31035089492798	0.10005307197570801
14	96.90588784217834	fix_pre	0		119	12.0	2.5	/experiments/Knapen_AOT/AOT_stimuli/rescaled_final/1725_rv.mp4	0.0	121.41040396690369	1.000194787979126
14	97.88981008529663	pulse	0	t		12.0	2.5	/experiments/Knapen_AOT/AOT_stimuli/rescaled_final/1725_rv.mp4	0.0	122.39432621002197	
14	97.90608263015747	movie	1		273	12.0	2.5	/experiments/Knapen_AOT/AOT_stimuli/rescaled_final/1725_rv.mp4	0.0	122.41059875488281	2.5003085136413574
14	99.48803067207336	pulse	1	t		12.0	2.5	/experiments/Knapen_AOT/AOT_stimuli/rescaled_final/1725_rv.mp4	0.0	123.9925467967987	
14	100.40639114379883	fix_post	2		12	12.0	2.5	/experiments/Knapen_AOT/AOT_stimuli/rescaled_final/1725_rv.mp4	0.0	124.91090726852417	0.10001754760742188
15	100.50640869140625	fix_pre	0		120	13.0	2.5	blank	1.0	125.01092481613159	1.0002100467681885
15	101.09016561508179	pulse	0	t		13.0	2.5	blank	1.0	125.59468173980713	
15	101.50661873817444	movie	1		300	13.0	2.5	blank	1.0	126.01113486289978	2.500317096710205
15	102.69027185440063	pulse	1	t		13.0	2.5	blank	1.0	127.19478797912598	
15	104.00693583488464	fix_post	2		12	13.0	2.5	blank	1.0	128.51145195960999	0.10004496574401855
16	104.10698080062866	fix_pre	0		120	14.0	2.5	/experiments/Knapen_AOT/AOT_stimuli/rescaled_final/1981_fw.mp4	0.0	128.611496925354	1.0084965229034424
16	104.29068493843079	pulse	0	t		14.0	2.5	/experiments/Knapen_AOT/AOT_stimuli/rescaled_final/1981_fw.mp4	0.0	128.79520106315613	
16	105.1154773235321	movie	1		275	14.0	2.5	/experiments/Knapen_AOT/AOT_stimuli/rescaled_final/1981_fw.mp4	0.0	129.61999344825745	2.492025852203369
16	105.88855838775635	pulse	1	t		14.0	2.5	/experiments/Knapen_AOT/AOT_stimuli/rescaled_final/1981_fw.mp4	0.0	130.3930745124817	
16	107.4888699054718	pulse	1	t		14.0	2.5	/experiments/Knapen_AOT/AOT_stimuli/rescaled_final/1981_fw.mp4	0.0	131.99338603019714	
16	107.60750317573547	fix_post	2		12	14.0	2.5	/experiments/Knapen_AOT/AOT_stimuli/rescaled_final/1981_fw.mp4	0.0	132.11201930046082	0.09998631477355957
17	107.70748949050903	fix_pre	0		120	15.0	2.5	/experiments/Knapen_AOT/AOT_stimuli/rescaled_final/0432_rv.mp4	0.0	132.21200561523438	1.0084984302520752
17	108.71598792076111	movie	1		271	15.0	2.5	/experiments/Knapen_AOT/AOT_stimuli/rescaled_final/0432_rv.mp4	0.0	133.22050404548645	2.492055654525757
17	109.08979177474976	pulse	1	t		15.0	2.5	/experiments/Knapen_AOT/AOT_stimuli/rescaled_final/0432_rv.mp4	0.0	133.5943078994751	
17	110.68928050994873	pulse	1	t		15.0	2.5	/experiments/Knapen_AOT/AOT_stimuli/rescaled_final/0432_rv.mp4	0.0	135.19379663467407	
17	111.20804357528687	fix_post	2		12	15.0	2.5	/experiments/Knapen_AOT/AOT_stimuli/rescaled_final/0432_rv.mp4	0.0	135.7125597000122	0.0999903678894043
18	111.30803394317627	fix_pre	0		119	16.0	2.5	/experiments/Knapen_AOT/AOT_stimuli/rescaled_final/1998_rv.mp4	0.0	135.8125500679016	1.0001554489135742
18	112.29175066947937	pulse	0	t		16.0	2.5	/experiments/Knapen_AOT/AOT_stimuli/rescaled_final/1998_rv.mp4	0.0	136.7962667942047	
18	112.30818939208984	movie	1		275	16.0	2.5	/experiments/Knapen_AOT/AOT_stimuli/rescaled_final/1998_rv.mp4	0.0	136.81270551681519	2.5003974437713623
18	113.89025712013245	pulse	1	t		16.0	2.5	/experiments/Knapen_AOT/AOT_stimuli/rescaled_final/1998_rv.mp4	0.0	138.3947732448578	
18	114.8085868358612	fix_post	2		12	16.0	2.5	/experiments/Knapen_AOT/AOT_stimuli/rescaled_final/1998_rv.mp4	0.0	139.31310296058655	0.1000058650970459
19	114.90859270095825	fix_pre	0		120	17.0	2.5	/experiments/Knapen_AOT/AOT_stimuli/rescaled_final/1161_fw.mp4	0.0	139.4131088256836	1.0084660053253174
19	115.48452281951904	pulse	0	t		17.0	2.5	/experiments/Knapen_AOT/AOT_stimuli/rescaled_final/1161_fw.mp4	0.0	139.98903894424438	
19	115.91705870628357	movie	1		290	17.0	2.5	/experiments/Knapen_AOT/AOT_stimuli/rescaled_final/1161_fw.mp4	0.0	140.4215748310089	2.4920403957366943
19	117.08431649208069	pulse	1	t		17.0	2.5	/experiments/Knapen_AOT/AOT_stimuli/rescaled_final/1161_fw.mp4	0.0	141.58883261680603	
19	118.40909910202026	fix_post	2		12	17.0	2.5	/experiments/Knapen_AOT/AOT_stimuli/rescaled_final/1161_fw.mp4	0.0	142.9136152267456	0.10001754760742188
20	118.50911664962769	fix_pre	0		120	18.0	2.5	/experiments/Knapen_AOT/AOT_stimuli/rescaled_final/0981_rv.mp4	0.0	143.01363277435303	1.0085139274597168
20	118.68441343307495	pulse	0	t		18.0	2.5	/experiments/Knapen_AOT/AOT_stimuli/rescaled_final/0981_rv.mp4	0.0	143.1889295578003	
20	119.5176305770874	movie	1		275	18.0	2.5	/experiments/Knapen_AOT/AOT_stimuli/rescaled_final/0981_rv.mp4	0.0	144.02214670181274	2.4920260906219482
20	120.28484964370728	pulse	1	t		18.0	2.5	/experiments/Knapen_AOT/AOT_stimuli/rescaled_final/0981_rv.mp4	0.0	144.78936576843262	
20	121.88485598564148	pulse	1	t		18.0	2.5	/experiments/Knapen_AOT/AOT_stimuli/rescaled_final/0981_rv.mp4	0.0	146.38937211036682	
20	122.00965666770935	fix_post	2		12	18.0	2.5	/experiments/Knapen_AOT/AOT_stimuli/rescaled_final/0981_rv.mp4	0.0	146.5141727924347	0.10004663467407227
21	122.10970330238342	fix_pre	0		120	19.0	2.5	/experiments/Knapen_AOT/AOT_stimuli/rescaled_final/1602_fw.mp4	0.0	146.61421942710876	1.00844407081604
21	123.11814737319946	movie	1		288	19.0	2.5	/experiments/Knapen_AOT/AOT_stimuli/rescaled_final/1602_fw.mp4	0.0	147.6226634979248	2.4921395778656006
21	123.48519372940063	pulse	1	t		19.0	2.5	/experiments/Knapen_AOT/AOT_stimuli/rescaled_final/1602_fw.mp4	0.0	147.98970985412598	
21	125.0853202342987	pulse	1	t		19.0	2.5	/experiments/Knapen_AOT/AOT_stimuli/rescaled_final/1602_fw.mp4	0.0	149.58983635902405	
21	125.61028695106506	fix_post	2		12	19.0	2.5	/experiments/Knapen_AOT/AOT_stimuli/rescaled_final/1602_fw.mp4	0.0	150.1148030757904	0.09991931915283203
22	125.7102062702179	fix_pre	0		118	20.0	2.5	blank	1.0	150.21472239494324	0.9834802150726318
22	126.68572044372559	pulse	0	t		20.0	2.5	blank	1.0	151.19023656845093	
22	126.69368648529053	movie	1		301	20.0	2.5	blank	1.0	151.19820261001587	2.508697748184204
22	128.2858669757843	pulse	1	t		20.0	2.5	blank	1.0	152.79038310050964	
22	129.20238423347473	fix_post	2		12	20.0	2.5	blank	1.0	153.70690035820007	0.10001683235168457
23	129.30240106582642	fix_pre	0		120	21.0	2.5	/experiments/Knapen_AOT/AOT_stimuli/rescaled_final/1962_fw.mp4	0.0	153.80691719055176	1.0085368156433105
23	129.88601803779602	pulse	0	t		21.0	2.5	/experiments/Knapen_AOT/AOT_stimuli/rescaled_final/1962_fw.mp4	0.0	154.39053416252136	
23	130.31093788146973	movie	1		285	21.0	2.5	/experiments/Knapen_AOT/AOT_stimuli/rescaled_final/1962_fw.mp4	0.0	154.81545400619507	2.492016077041626
23	131.4853777885437	pulse	1	t		21.0	2.5	/experiments/Knapen_AOT/AOT_stimuli/rescaled_final/1962_fw.mp4	0.0	155.98989391326904	
23	132.80295395851135	fix_post	2		12	21.0	2.5	/experiments/Knapen_AOT/AOT_stimuli/rescaled_final/1962_fw.mp4	0.0	157.3074700832367	0.09999608993530273
24	132.90295004844666	fix_pre	0		120	22.0	2.5	/experiments/Knapen_AOT/AOT_stimuli/rescaled_final/0642_fw.mp4	0.0	157.407466173172	1.0085058212280273
24	133.08652019500732	pulse	0	t		22.0	2.5	/experiments/Knapen_AOT/AOT_stimuli/rescaled_final/0642_fw.mp4	0.0	157.59103631973267	
24	133.91145586967468	movie	1		280	22.0	2.5	/experiments/Knapen_AOT/AOT_stimuli/rescaled_final/0642_fw.mp4	0.0	158.41597199440002	2.492069959640503
24	134.68468189239502	pulse	1	t		22.0	2.5	/experiments/Knapen_AOT/AOT_stimuli/rescaled_final/0642_fw.mp4	0.0	159.18919801712036	
24	136.285151720047	pulse	1	t		22.0	2.5	/experiments/Knapen_AOT/AOT_stimuli/rescaled_final/0642_fw.mp4	0.0	160.78966784477234	
24	136.40352582931519	fix_post	2		12	22.0	2.5	/experiments/Knapen_AOT/AOT_stimuli/rescaled_final/0642_fw.mp4	0.0	160.90804195404053	0.09997940063476562
25	136.50350522994995	fix_pre	0		120	23.0	2.5	/experiments/Knapen_AOT/AOT_stimuli/rescaled_final/1619_rv.mp4	0.0	161.0080213546753	1.0084960460662842
25	137.51200127601624	movie	1		281	23.0	2.5	/experiments/Knapen_AOT/AOT_stimuli/rescaled_final/1619_rv.mp4	0.0	162.01651740074158	2.492008924484253
25	137.88563632965088	pulse	1	t		23.0	2.5	/experiments/Knapen_AOT/AOT_stimuli/rescaled_final/1619_rv.mp4	0.0	162.39015245437622	
25	139.4858102798462	pulse	1	t		23.0	2.5	/experiments/Knapen_AOT/AOT_stimuli/rescaled_final/1619_rv.mp4	0.0	163.99032640457153	
25	140.0040102005005	fix_post	2		12	23.0	2.5	/experiments/Knapen_AOT/AOT_stimuli/rescaled_final/1619_rv.mp4	0.0	164.50852632522583	0.10004687309265137
26	140.10405707359314	fix_pre	0		119	24.0	2.5	/experiments/Knapen_AOT/AOT_stimuli/rescaled_final/0232_rv.mp4	0.0	164.60857319831848	1.0001394748687744
26	141.08771681785583	pulse	0	t		24.0	2.5	/experiments/Knapen_AOT/AOT_stimuli/rescaled_final/0232_rv.mp4	0.0	165.59223294258118	
26	141.1041965484619	movie	1		290	24.0	2.5	/experiments/Knapen_AOT/AOT_stimuli/rescaled_final/0232_rv.mp4	0.0	165.60871267318726	2.5004351139068604
26	142.68653655052185	pulse	1	t		24.0	2.5	/experiments/Knapen_AOT/AOT_stimuli/rescaled_final/0232_rv.mp4	0.0	167.1910526752472	
26	143.60463166236877	fix_post	2		12	24.0	2.5	/experiments/Knapen_AOT/AOT_stimuli/rescaled_final/0232_rv.mp4	0.0	168.10914778709412	0.09995436668395996
27	143.70458602905273	fix_pre	0		120	25.0	2.5	/experiments/Knapen_AOT/AOT_stimuli/rescaled_final/0038_fw.mp4	0.0	168.20910215377808	1.0084893703460693
27	144.2882091999054	pulse	0	t		25.0	2.5	/experiments/Knapen_AOT/AOT_stimuli/rescaled_final/0038_fw.mp4	0.0	168.79272532463074	
27	144.7130753993988	movie	1		289	25.0	2.5	/experiments/Knapen_AOT/AOT_stimuli/rescaled_final/0038_fw.mp4	0.0	169.21759152412415	2.492021083831787
27	145.88658905029297	pulse	1	t		25.0	2.5	/experiments/Knapen_AOT/AOT_stimuli/rescaled_final/0038_fw.mp4	0.0	170.3911051750183	
27	147.2050964832306	fix_post	2		12	25.0	2.5	/experiments/Knapen_AOT/AOT_stimuli/rescaled_final/0038_fw.mp4	0.0	171.70961260795593	0.10003399848937988
28	147.30513048171997	fix_pre	0		120	26.0	2.5	/experiments/Knapen_AOT/AOT_stimuli/rescaled_final/0166_rv.mp4	0.0	171.8096466064453	1.0085089206695557
28	147.48866939544678	pulse	0	t		26.0	2.5	/experiments/Knapen_AOT/AOT_stimuli/rescaled_final/0166_rv.mp4	0.0	171.99318552017212	
28	148.31363940238953	movie	1		290	26.0	2.5	/experiments/Knapen_AOT/AOT_stimuli/rescaled_final/0166_rv.mp4	0.0	172.81815552711487	2.4920601844787598
28	149.08700847625732	pulse	1	t		26.0	2.5	/experiments/Knapen_AOT/AOT_stimuli/rescaled_final/0166_rv.mp4	0.0	173.59152460098267	
28	150.6890938282013	pulse	1	t		26.0	2.5	/experiments/Knapen_AOT/AOT_stimuli/rescaled_final/0166_rv.mp4	0.0	175.19360995292664	
28	150.8056995868683	fix_post	2		11	26.0	2.5	/experiments/Knapen_AOT/AOT_stimuli/rescaled_final/0166_rv.mp4	0.0	175.31021571159363	0.10000419616699219
29	150.90570378303528	fix_pre	0		120	27.0	2.5	/experiments/Knapen_AOT/AOT_stimuli/rescaled_final/0440_fw.mp4	0.0	175.41021990776062	1.0084583759307861
29	151.91416215896606	movie	1		283	27.0	2.5	/experiments/Knapen_AOT/AOT_stimuli/rescaled_final/0440_fw.mp4	0.0	176.4186782836914	2.4920566082000732
29	152.28805422782898	pulse	1	t		27.0	2.5	/experiments/Knapen_AOT/AOT_stimuli/rescaled_final/0440_fw.mp4	0.0	176.79257035255432	
29	153.88843250274658	pulse	1	t		27.0	2.5	/experiments/Knapen_AOT/AOT_stimuli/rescaled_final/0440_fw.mp4	0.0	178.39294862747192	
29	154.40621876716614	fix_post	2		12	27.0	2.5	/experiments/Knapen_AOT/AOT_stimuli/rescaled_final/0440_fw.mp4	0.0	178.91073489189148	0.0999917984008789
30	154.50621056556702	fix_pre	0		119	28.0	2.5	blank	1.0	179.01072669029236	0.991797685623169
30	155.49015378952026	pulse	0	t		28.0	2.5	blank	1.0	179.9946699142456	
30	155.49800825119019	movie	1		301	28.0	2.5	blank	1.0	180.00252437591553	2.50873064994812
30	157.09019899368286	pulse	1	t		28.0	2.5	blank	1.0	181.5947151184082	
30	158.0067389011383	fix_post	2		12	28.0	2.5	blank	1.0	182.51125502586365	0.10000991821289062
31	158.1067488193512	fix_pre	0		120	29.0	2.5	/experiments/Knapen_AOT/AOT_stimuli/rescaled_final/1078_rv.mp4	0.0	182.61126494407654	1.0084729194641113
31	158.690425157547	pulse	0	t		29.0	2.5	/experiments/Knapen_AOT/AOT_stimuli/rescaled_final/1078_rv.mp4	0.0	183.19494128227234	
31	159.1152217388153	movie	1		275	29.0	2.5	/experiments/Knapen_AOT/AOT_stimuli/rescaled_final/1078_rv.mp4	0.0	183.61973786354065	2.492037057876587
31	160.28902769088745	pulse	1	t		29.0	2.5	/experiments/Knapen_AOT/AOT_stimuli/rescaled_final/1078_rv.mp4	0.0	184.7935438156128	
31	161.6072587966919	fix_post	2		12	29.0	2.5	/experiments/Knapen_AOT/AOT_stimuli/rescaled_final/1078_rv.mp4	0.0	186.11177492141724	0.10000848770141602
32	161.7072672843933	fix_pre	0		120	30.0	2.5	/experiments/Knapen_AOT/AOT_stimuli/rescaled_final/1981_rv.mp4	0.0	186.21178340911865	1.0084874629974365
32	161.89086484909058	pulse	0	t		30.0	2.5	/experiments/Knapen_AOT/AOT_stimuli/rescaled_final/1981_rv.mp4	0.0	186.39538097381592	
32	162.71575474739075	movie	1		281	30.0	2.5	/experiments/Knapen_AOT/AOT_stimuli/rescaled_final/1981_rv.mp4	0.0	187.2202708721161	2.4920501708984375
32	163.48877596855164	pulse	1	t		30.0	2.5	/experiments/Knapen_AOT/AOT_stimuli/rescaled_final/1981_rv.mp4	0.0	187.99329209327698	
32	165.08936476707458	pulse	1	t		30.0	2.5	/experiments/Knapen_AOT/AOT_stimuli/rescaled_final/1981_rv.mp4	0.0	189.59388089179993	
32	165.20780491828918	fix_post	2		12	30.0	2.5	/experiments/Knapen_AOT/AOT_stimuli/rescaled_final/1981_rv.mp4	0.0	189.71232104301453	0.10000038146972656
33	165.3078052997589	fix_pre	0		120	31.0	2.5	/experiments/Knapen_AOT/AOT_stimuli/rescaled_final/1565_fw.mp4	0.0	189.81232142448425	1.0085022449493408
33	166.31630754470825	movie	1		279	31.0	2.5	/experiments/Knapen_AOT/AOT_stimuli/rescaled_final/1565_fw.mp4	0.0	190.8208236694336	2.4920268058776855
33	166.69006872177124	pulse	1	t		31.0	2.5	/experiments/Knapen_AOT/AOT_stimuli/rescaled_final/1565_fw.mp4	0.0	191.19458484649658	
33	168.28387355804443	pulse	1	t		31.0	2.5	/experiments/Knapen_AOT/AOT_stimuli/rescaled_final/1565_fw.mp4	0.0	192.78838968276978	
33	168.80833435058594	fix_post	2		12	31.0	2.5	/experiments/Knapen_AOT/AOT_stimuli/rescaled_final/1565_fw.mp4	0.0	193.31285047531128	0.10008621215820312
34	168.90842056274414	fix_pre	0		118	32.0	2.5	/experiments/Knapen_AOT/AOT_stimuli/rescaled_final/0432_fw.mp4	0.0	193.41293668746948	0.9917676448822021
34	169.88375854492188	pulse	0	t		32.0	2.5	/experiments/Knapen_AOT/AOT_stimuli/rescaled_final/0432_fw.mp4	0.0	194.38827466964722	
34	169.90018820762634	movie	1		289	32.0	2.5	/experiments/Knapen_AOT/AOT_stimuli/rescaled_final/0432_fw.mp4	0.0	194.40470433235168	2.5003714561462402
34	171.4843611717224	pulse	1	t		32.0	2.5	/experiments/Knapen_AOT/AOT_stimuli/rescaled_final/0432_fw.mp4	0.0	195.98887729644775	
34	172.40055966377258	fix_post	2		12	32.0	2.5	/experiments/Knapen_AOT/AOT_stimuli/rescaled_final/0432_fw.mp4	0.0	196.90507578849792	0.10001897811889648
35	172.50057864189148	fix_pre	0		120	33.0	2.5	/experiments/Knapen_AOT/AOT_stimuli/rescaled_final/0349_rv.mp4	0.0	197.00509476661682	1.008479356765747
35	173.08421087265015	pulse	0	t		33.0	2.5	/experiments/Knapen_AOT/AOT_stimuli/rescaled_final/0349_rv.mp4	0.0	197.5887269973755	
35	173.50905799865723	movie	1		262	33.0	2.5	/experiments/Knapen_AOT/AOT_stimuli/rescaled_final/0349_rv.mp4	0.0	198.01357412338257	2.492034435272217
35	174.6844801902771	pulse	1	t		33.0	2.5	/experiments/Knapen_AOT/AOT_stimuli/rescaled_final/0349_rv.mp4	0.0	199.18899631500244	
35	176.00109243392944	fix_post	2		12	33.0	2.5	/experiments/Knapen_AOT/AOT_stimuli/rescaled_final/0349_rv.mp4	0.0	200.50560855865479	0.10001325607299805
36	176.10110569000244	fix_pre	0		120	34.0	2.5	/experiments/Knapen_AOT/AOT_stimuli/rescaled_final/1491_rv.mp4	0.0	200.60562181472778	1.008598804473877
36	176.2848720550537	pulse	0	t		34.0	2.5	/experiments/Knapen_AOT/AOT_stimuli/rescaled_final/1491_rv.mp4	0.0	200.78938817977905	
36	177.10970449447632	movie	1		284	34.0	2.5	/experiments/Knapen_AOT/AOT_stimuli/rescaled_final/1491_rv.mp4	0.0	201.61422061920166	2.4919440746307373
36	177.88494968414307	pulse	1	t		34.0	2.5	/experiments/Knapen_AOT/AOT_stimuli/rescaled_final/1491_rv.mp4	0.0	202.3894658088684	
36	179.48552298545837	pulse	1	t		34.0	2.5	/experiments/Knapen_AOT/AOT_stimuli/rescaled_final/1491_rv.mp4	0.0	203.99003911018372	
36	179.60164856910706	fix_post	2		12	34.0	2.5	/experiments/Knapen_AOT/AOT_stimuli/rescaled_final/1491_rv.mp4	0.0	204.1061646938324	0.10003185272216797
37	179.70168042182922	fix_pre	0		120	35.0	2.5	blank	1.0	204.20619654655457	1.0001189708709717
37	180.7017993927002	movie	1		300	35.0	2.5	blank	1.0	205.20631551742554	2.5003762245178223
37	181.08545112609863	pulse	1	t		35.0	2.5	blank	1.0	205.58996725082397	
37	182.68565201759338	pulse	1	t		35.0	2.5	blank	1.0	207.19016814231873	
37	183.20217561721802	fix_post	2		12	35.0	2.5	blank	1.0	207.70669174194336	0.10001993179321289
38	183.30219554901123	fix_pre	0		119	36.0	2.5	/experiments/Knapen_AOT/AOT_stimuli/rescaled_final/0068_rv.mp4	0.0	207.80671167373657	1.0001323223114014
38	184.28603553771973	pulse	0	t		36.0	2.5	/experiments/Knapen_AOT/AOT_stimuli/rescaled_final/0068_rv.mp4	0.0	208.79055166244507	
38	184.30232787132263	movie	1		284	36.0	2.5	/experiments/Knapen_AOT/AOT_stimuli/rescaled_final/0068_rv.mp4	0.0	208.80684399604797	2.5003912448883057
38	185.88469672203064	pulse	1	t		36.0	2.5	/experiments/Knapen_AOT/AOT_stimuli/rescaled_final/0068_rv.mp4	0.0	210.38921284675598	
38	186.80271911621094	fix_post	2		12	36.0	2.5	/experiments/Knapen_AOT/AOT_stimuli/rescaled_final/0068_rv.mp4	0.0	211.30723524093628	0.10005474090576172
39	186.9027738571167	fix_pre	0		120	37.0	2.5	/experiments/Knapen_AOT/AOT_stimuli/rescaled_final/0475_fw.mp4	0.0	211.40728998184204	1.0085015296936035
39	187.48638820648193	pulse	0	t		37.0	2.5	/experiments/Knapen_AOT/AOT_stimuli/rescaled_final/0475_fw.mp4	0.0	211.99090433120728	
39	187.9112753868103	movie	1		293	37.0	2.5	/experiments/Knapen_AOT/AOT_stimuli/rescaled_final/0475_fw.mp4	0.0	212.41579151153564	2.492041826248169
39	189.0858497619629	pulse	1	t		37.0	2.5	/experiments/Knapen_AOT/AOT_stimuli/rescaled_final/0475_fw.mp4	0.0	213.59036588668823	
39	190.40331721305847	fix_post	2		12	37.0	2.5	/experiments/Knapen_AOT/AOT_stimuli/rescaled_final/0475_fw.mp4	0.0	214.9078333377838	0.10001039505004883
40	190.50332760810852	fix_pre	0		120	38.0	2.5	/experiments/Knapen_AOT/AOT_stimuli/rescaled_final/1557_rv.mp4	0.0	215.00784373283386	1.008465051651001
40	190.68683910369873	pulse	0	t		38.0	2.5	/experiments/Knapen_AOT/AOT_stimuli/rescaled_final/1557_rv.mp4	0.0	215.19135522842407	
40	191.51179265975952	movie	1		284	38.0	2.5	/experiments/Knapen_AOT/AOT_stimuli/rescaled_final/1557_rv.mp4	0.0	216.01630878448486	2.4920167922973633
40	192.28810501098633	pulse	1	t		38.0	2.5	/experiments/Knapen_AOT/AOT_stimuli/rescaled_final/1557_rv.mp4	0.0	216.79262113571167	
40	193.88543939590454	pulse	1	t		38.0	2.5	/experiments/Knapen_AOT/AOT_stimuli/rescaled_final/1557_rv.mp4	0.0	218.38995552062988	
40	194.00380945205688	fix_post	2		12	38.0	2.5	/experiments/Knapen_AOT/AOT_stimuli/rescaled_final/1557_rv.mp4	0.0	218.50832557678223	0.10000991821289062
41	194.10381937026978	fix_pre	0		120	39.0	2.5	/experiments/Knapen_AOT/AOT_stimuli/rescaled_final/0533_fw.mp4	0.0	218.60833549499512	1.0085175037384033
41	195.11233687400818	movie	1		284	39.0	2.5	/experiments/Knapen_AOT/AOT_stimuli/rescaled_final/0533_fw.mp4	0.0	219.61685299873352	2.4920287132263184
41	195.48562836647034	pulse	1	t		39.0	2.5	/experiments/Knapen_AOT/AOT_stimuli/rescaled_final/0533_fw.mp4	0.0	219.99014449119568	
41	197.08593368530273	pulse	1	t		39.0	2.5	/experiments/Knapen_AOT/AOT_stimuli/rescaled_final/0533_fw.mp4	0.0	221.59044981002808	
41	197.6043655872345	fix_post	2		12	39.0	2.5	/experiments/Knapen_AOT/AOT_stimuli/rescaled_final/0533_fw.mp4	0.0	222.10888171195984	0.10001730918884277
42	197.70438289642334	fix_pre	0		119	40.0	2.5	/experiments/Knapen_AOT/AOT_stimuli/rescaled_final/1539_rv.mp4	0.0	222.20889902114868	1.0001006126403809
42	198.68818378448486	pulse	0	t		40.0	2.5	/experiments/Knapen_AOT/AOT_stimuli/rescaled_final/1539_rv.mp4	0.0	223.1926999092102	
42	198.70448350906372	movie	1		289	40.0	2.5	/experiments/Knapen_AOT/AOT_stimuli/rescaled_final/1539_rv.mp4	0.0	223.20899963378906	2.5004067420959473
42	200.28678154945374	pulse	1	t		40.0	2.5	/experiments/Knapen_AOT/AOT_stimuli/rescaled_final/1539_rv.mp4	0.0	224.79129767417908	
42	201.20489025115967	fix_post	2		12	40.0	2.5	/experiments/Knapen_AOT/AOT_stimuli/rescaled_final/1539_rv.mp4	0.0	225.709406375885	0.1000213623046875
43	201.30491161346436	fix_pre	0		120	41.0	2.5	/experiments/Knapen_AOT/AOT_stimuli/rescaled_final/0697_rv.mp4	0.0	225.8094277381897	1.0085113048553467
43	201.88855934143066	pulse	0	t		41.0	2.5	/experiments/Knapen_AOT/AOT_stimuli/rescaled_final/0697_rv.mp4	0.0	226.393075466156	
43	202.3134229183197	movie	1		270	41.0	2.5	/experiments/Knapen_AOT/AOT_stimuli/rescaled_final/0697_rv.mp4	0.0	226.81793904304504	2.492009401321411
43	203.4866361618042	pulse	1	t		41.0	2.5	/experiments/Knapen_AOT/AOT_stimuli/rescaled_final/0697_rv.mp4	0.0	227.99115228652954	
43	204.8054323196411	fix_post	2		12	41.0	2.5	/experiments/Knapen_AOT/AOT_stimuli/rescaled_final/0697_rv.mp4	0.0	229.30994844436646	0.10012006759643555
44	204.90555238723755	fix_pre	0		120	42.0	2.5	blank	1.0	229.4100685119629	1.000046968460083
44	205.0890245437622	pulse	0	t		42.0	2.5	blank	1.0	229.59354066848755	
44	205.90559935569763	movie	1		300	42.0	2.5	blank	1.0	230.41011548042297	2.500521183013916
44	206.68936562538147	pulse	1	t		42.0	2.5	blank	1.0	231.1938817501068	
44	208.28947257995605	pulse	1	t		42.0	2.5	blank	1.0	232.7939887046814	
44	208.40612053871155	fix_post	2		12	42.0	2.5	blank	1.0	232.9106366634369	0.09987616539001465
45	208.50599670410156	fix_pre	0		120	43.0	2.5	/experiments/Knapen_AOT/AOT_stimuli/rescaled_final/0067_rv.mp4	0.0	233.0105128288269	1.0084686279296875
45	209.51446533203125	movie	1		277	43.0	2.5	/experiments/Knapen_AOT/AOT_stimuli/rescaled_final/0067_rv.mp4	0.0	234.0189814567566	2.4920382499694824
45	209.88806462287903	pulse	1	t		43.0	2.5	/experiments/Knapen_AOT/AOT_stimuli/rescaled_final/0067_rv.mp4	0.0	234.39258074760437	
45	211.48802781105042	pulse	1	t		43.0	2.5	/experiments/Knapen_AOT/AOT_stimuli/rescaled_final/0067_rv.mp4	0.0	235.99254393577576	
45	212.00650358200073	fix_post	2		12	43.0	2.5	/experiments/Knapen_AOT/AOT_stimuli/rescaled_final/0067_rv.mp4	0.0	236.51101970672607	0.10003137588500977
46	212.10653495788574	fix_pre	0		119	44.0	2.5	/experiments/Knapen_AOT/AOT_stimuli/rescaled_final/0978_fw.mp4	0.0	236.61105108261108	1.0001978874206543
46	213.09044551849365	pulse	0	t		44.0	2.5	/experiments/Knapen_AOT/AOT_stimuli/rescaled_final/0978_fw.mp4	0.0	237.594961643219	
46	213.1067328453064	movie	1		285	44.0	2.5	/experiments/Knapen_AOT/AOT_stimuli/rescaled_final/0978_fw.mp4	0.0	237.61124897003174	2.500338315963745
46	214.68913960456848	pulse	1	t		44.0	2.5	/experiments/Knapen_AOT/AOT_stimuli/rescaled_final/0978_fw.mp4	0.0	239.19365572929382	
46	215.60707116127014	fix_post	2		12	44.0	2.5	/experiments/Knapen_AOT/AOT_stimuli/rescaled_final/0978_fw.mp4	0.0	240.11158728599548	0.10000944137573242
47	215.70708060264587	fix_pre	0		120	45.0	2.5	/experiments/Knapen_AOT/AOT_stimuli/rescaled_final/1810_rv.mp4	0.0	240.21159672737122	1.0084803104400635
47	216.29069471359253	pulse	0	t		45.0	2.5	/experiments/Knapen_AOT/AOT_stimuli/rescaled_final/1810_rv.mp4	0.0	240.79521083831787	
47	216.71556091308594	movie	1		248	45.0	2.5	/experiments/Knapen_AOT/AOT_stimuli/rescaled_final/1810_rv.mp4	0.0	241.22007703781128	2.492042303085327
47	217.8869879245758	pulse	1	t		45.0	2.5	/experiments/Knapen_AOT/AOT_stimuli/rescaled_final/1810_rv.mp4	0.0	242.39150404930115	
47	219.20760321617126	fix_post	2		12	45.0	2.5	/experiments/Knapen_AOT/AOT_stimuli/rescaled_final/1810_rv.mp4	0.0	243.7121193408966	0.10004496574401855
48	219.30764818191528	fix_pre	0		120	46.0	2.5	/experiments/Knapen_AOT/AOT_stimuli/rescaled_final/1271_rv.mp4	0.0	243.81216430664062	1.00848388671875
48	219.49139666557312	pulse	0	t		46.0	2.5	/experiments/Knapen_AOT/AOT_stimuli/rescaled_final/1271_rv.mp4	0.0	243.99591279029846	
48	220.31613206863403	movie	1		286	46.0	2.5	/experiments/Knapen_AOT/AOT_stimuli/rescaled_final/1271_rv.mp4	0.0	244.82064819335938	2.492006301879883
48	221.08969926834106	pulse	1	t		46.0	2.5	/experiments/Knapen_AOT/AOT_stimuli/rescaled_final/1271_rv.mp4	0.0	245.5942153930664	
48	222.68956303596497	pulse	1	t		46.0	2.5	/experiments/Knapen_AOT/AOT_stimuli/rescaled_final/1271_rv.mp4	0.0	247.1940791606903	
48	222.80813837051392	fix_post	2		12	46.0	2.5	/experiments/Knapen_AOT/AOT_stimuli/rescaled_final/1271_rv.mp4	0.0	247.31265449523926	0.10005474090576172
49	222.90819311141968	fix_pre	0		120	47.0	2.5	blank	1.0	247.41270923614502	1.0001323223114014
49	223.90832543373108	movie	1		300	47.0	2.5	blank	1.0	248.41284155845642	2.50038743019104
49	224.28401565551758	pulse	1	t		47.0	2.5	blank	1.0	248.78853178024292	
49	225.8844428062439	pulse	1	t		47.0	2.5	blank	1.0	250.38895893096924	
49	226.40871286392212	fix_post	2		12	47.0	2.5	blank	1.0	250.91322898864746	0.10002326965332031
50	226.50873613357544	fix_pre	0		118	48.0	2.5	/experiments/Knapen_AOT/AOT_stimuli/rescaled_final/2159_rv.mp4	0.0	251.01325225830078	1.0001261234283447
50	227.48419713974	pulse	0	t		48.0	2.5	/experiments/Knapen_AOT/AOT_stimuli/rescaled_final/2159_rv.mp4	0.0	251.98871326446533	
50	227.50886225700378	movie	1		275	48.0	2.5	/experiments/Knapen_AOT/AOT_stimuli/rescaled_final/2159_rv.mp4	0.0	252.01337838172913	2.492011308670044
50	229.0843904018402	pulse	1	t		48.0	2.5	/experiments/Knapen_AOT/AOT_stimuli/rescaled_final/2159_rv.mp4	0.0	253.58890652656555	
50	230.00087356567383	fix_post	2		12	48.0	2.5	/experiments/Knapen_AOT/AOT_stimuli/rescaled_final/2159_rv.mp4	0.0	254.50538969039917	0.10002303123474121
51	230.10089659690857	fix_pre	0		120	49.0	2.5	/experiments/Knapen_AOT/AOT_stimuli/rescaled_final/1249_fw.mp4	0.0	254.6054127216339	1.0085172653198242
51	230.68462705612183	pulse	0	t		49.0	2.5	/experiments/Knapen_AOT/AOT_stimuli/rescaled_final/1249_fw.mp4	0.0	255.18914318084717	
51	231.1094138622284	movie	1		285	49.0	2.5	/experiments/Knapen_AOT/AOT_stimuli/rescaled_final/1249_fw.mp4	0.0	255.61392998695374	2.492002487182617
51	232.28492140769958	pulse	1	t		49.0	2.5	/experiments/Knapen_AOT/AOT_stimuli/rescaled_final/1249_fw.mp4	0.0	256.7894375324249	
51	233.601416349411	fix_post	2		12	49.0	2.5	/experiments/Knapen_AOT/AOT_stimuli/rescaled_final/1249_fw.mp4	0.0	258.10593247413635	0.10006451606750488
52	233.70148086547852	fix_pre	0		120	50.0	2.5	/experiments/Knapen_AOT/AOT_stimuli/rescaled_final/2092_rv.mp4	0.0	258.20599699020386	1.0084614753723145
52	233.88522696495056	pulse	0	t		50.0	2.5	/experiments/Knapen_AOT/AOT_stimuli/rescaled_final/2092_rv.mp4	0.0	258.3897430896759	
52	234.70994234085083	movie	1		282	50.0	2.5	/experiments/Knapen_AOT/AOT_stimuli/rescaled_final/2092_rv.mp4	0.0	259.2144584655762	2.4920244216918945
52	235.4855387210846	pulse	1	t		50.0	2.5	/experiments/Knapen_AOT/AOT_stimuli/rescaled_final/2092_rv.mp4	0.0	259.99005484580994	
52	237.08548665046692	pulse	1	t		50.0	2.5	/experiments/Knapen_AOT/AOT_stimuli/rescaled_final/2092_rv.mp4	0.0	261.59000277519226	
52	237.20196676254272	fix_post	2		12	50.0	2.5	/experiments/Knapen_AOT/AOT_stimuli/rescaled_final/2092_rv.mp4	0.0	261.70648288726807	0.10000824928283691
53	237.30197501182556	fix_pre	0		120	51.0	2.5	/experiments/Knapen_AOT/AOT_stimuli/rescaled_final/0180_rv.mp4	0.0	261.8064911365509	1.0085349082946777
53	238.31050992012024	movie	1		265	51.0	2.5	/experiments/Knapen_AOT/AOT_stimuli/rescaled_final/0180_rv.mp4	0.0	262.8150260448456	2.491990327835083
53	238.68432474136353	pulse	1	t		51.0	2.5	/experiments/Knapen_AOT/AOT_stimuli/rescaled_final/0180_rv.mp4	0.0	263.18884086608887	
53	240.28595972061157	pulse	1	t		51.0	2.5	/experiments/Knapen_AOT/AOT_stimuli/rescaled_final/0180_rv.mp4	0.0	264.7904758453369	
53	240.80250024795532	fix_post	2		12	51.0	2.5	/experiments/Knapen_AOT/AOT_stimuli/rescaled_final/0180_rv.mp4	0.0	265.30701637268066	0.10002279281616211
54	240.90252304077148	fix_pre	0		119	52.0	2.5	/experiments/Knapen_AOT/AOT_stimuli/rescaled_final/1605_fw.mp4	0.0	265.4070391654968	1.000178575515747
54	241.88623070716858	pulse	0	t		52.0	2.5	/experiments/Knapen_AOT/AOT_stimuli/rescaled_final/1605_fw.mp4	0.0	266.3907468318939	
54	241.90270161628723	movie	1		284	52.0	2.5	/experiments/Knapen_AOT/AOT_stimuli/rescaled_final/1605_fw.mp4	0.0	266.4072177410126	2.500380039215088
54	243.48498558998108	pulse	1	t		52.0	2.5	/experiments/Knapen_AOT/AOT_stimuli/rescaled_final/1605_fw.mp4	0.0	267.9895017147064	
54	244.40308165550232	fix_post	2		12	52.0	2.5	/experiments/Knapen_AOT/AOT_stimuli/rescaled_final/1605_fw.mp4	0.0	268.90759778022766	0.09997677803039551
55	244.50305843353271	fix_pre	0		120	53.0	2.5	/experiments/Knapen_AOT/AOT_stimuli/rescaled_final/2054_rv.mp4	0.0	269.00757455825806	1.0085301399230957
55	245.08667492866516	pulse	0	t		53.0	2.5	/experiments/Knapen_AOT/AOT_stimuli/rescaled_final/2054_rv.mp4	0.0	269.5911910533905	
55	245.5115885734558	movie	1		277	53.0	2.5	/experiments/Knapen_AOT/AOT_stimuli/rescaled_final/2054_rv.mp4	0.0	270.01610469818115	2.492069721221924
55	246.68536758422852	pulse	1	t		53.0	2.5	/experiments/Knapen_AOT/AOT_stimuli/rescaled_final/2054_rv.mp4	0.0	271.18988370895386	
55	248.00365829467773	fix_post	2		12	53.0	2.5	/experiments/Knapen_AOT/AOT_stimuli/rescaled_final/2054_rv.mp4	0.0	272.5081744194031	0.0999605655670166
56	248.10361886024475	fix_pre	0		120	54.0	2.5	/experiments/Knapen_AOT/AOT_stimuli/rescaled_final/0521_rv.mp4	0.0	272.6081349849701	1.0084714889526367
56	248.28727412223816	pulse	0	t		54.0	2.5	/experiments/Knapen_AOT/AOT_stimuli/rescaled_final/0521_rv.mp4	0.0	272.7917902469635	
56	249.1120903491974	movie	1		276	54.0	2.5	/experiments/Knapen_AOT/AOT_stimuli/rescaled_final/0521_rv.mp4	0.0	273.61660647392273	2.4920413494110107
56	249.8860273361206	pulse	1	t		54.0	2.5	/experiments/Knapen_AOT/AOT_stimuli/rescaled_final/0521_rv.mp4	0.0	274.39054346084595	
56	251.48596858978271	pulse	1	t		54.0	2.5	/experiments/Knapen_AOT/AOT_stimuli/rescaled_final/0521_rv.mp4	0.0	275.99048471450806	
56	251.6041316986084	fix_post	2		12	54.0	2.5	/experiments/Knapen_AOT/AOT_stimuli/rescaled_final/0521_rv.mp4	0.0	276.10864782333374	0.1000223159790039
57	251.7041540145874	fix_pre	0		120	55.0	2.5	blank	1.0	276.20867013931274	1.0001304149627686
57	252.70428442955017	movie	1		300	55.0	2.5	blank	1.0	277.2088005542755	2.5003976821899414
57	253.08793807029724	pulse	1	t		55.0	2.5	blank	1.0	277.5924541950226	
57	254.68811345100403	pulse	1	t		55.0	2.5	blank	1.0	279.19262957572937	
57	255.2046821117401	fix_post	2		12	55.0	2.5	blank	1.0	279.70919823646545	0.10000896453857422
58	255.3046910762787	fix_pre	0		119	56.0	2.5	/experiments/Knapen_AOT/AOT_stimuli/rescaled_final/0426_fw.mp4	0.0	279.809207201004	1.0001473426818848
58	256.2886619567871	pulse	0	t		56.0	2.5	/experiments/Knapen_AOT/AOT_stimuli/rescaled_final/0426_fw.mp4	0.0	280.79317808151245	
58	256.30483841896057	movie	1		293	56.0	2.5	/experiments/Knapen_AOT/AOT_stimuli/rescaled_final/0426_fw.mp4	0.0	280.8093545436859	2.500382900238037
58	257.8871877193451	pulse	1	t		56.0	2.5	/experiments/Knapen_AOT/AOT_stimuli/rescaled_final/0426_fw.mp4	0.0	282.39170384407043	
58	258.8052213191986	fix_post	2		12	56.0	2.5	/experiments/Knapen_AOT/AOT_stimuli/rescaled_final/0426_fw.mp4	0.0	283.30973744392395	0.1000220775604248
59	258.90524339675903	fix_pre	0		120	57.0	2.5	/experiments/Knapen_AOT/AOT_stimuli/rescaled_final/1673_fw.mp4	0.0	283.4097595214844	1.0084607601165771
59	259.48899698257446	pulse	0	t		57.0	2.5	/experiments/Knapen_AOT/AOT_stimuli/rescaled_final/1673_fw.mp4	0.0	283.9935131072998	
59	259.9137041568756	movie	1		283	57.0	2.5	/experiments/Knapen_AOT/AOT_stimuli/rescaled_final/1673_fw.mp4	0.0	284.41822028160095	2.4920425415039062
59	261.08726501464844	pulse	1	t		57.0	2.5	/experiments/Knapen_AOT/AOT_stimuli/rescaled_final/1673_fw.mp4	0.0	285.5917811393738	
59	262.4057466983795	fix_post	2		12	57.0	2.5	/experiments/Knapen_AOT/AOT_stimuli/rescaled_final/1673_fw.mp4	0.0	286.91026282310486	0.10001611709594727
60	262.50576281547546	fix_pre	0		120	58.0	2.5	/experiments/Knapen_AOT/AOT_stimuli/rescaled_final/1854_fw.mp4	0.0	287.0102789402008	1.008568525314331
60	262.68937397003174	pulse	0	t		58.0	2.5	/experiments/Knapen_AOT/AOT_stimuli/rescaled_final/1854_fw.mp4	0.0	287.1938900947571	
60	263.5143313407898	movie	1		283	58.0	2.5	/experiments/Knapen_AOT/AOT_stimuli/rescaled_final/1854_fw.mp4	0.0	288.01884746551514	2.491960287094116
60	264.2877676486969	pulse	1	t		58.0	2.5	/experiments/Knapen_AOT/AOT_stimuli/rescaled_final/1854_fw.mp4	0.0	288.79228377342224	
60	265.8879771232605	pulse	1	t		58.0	2.5	/experiments/Knapen_AOT/AOT_stimuli/rescaled_final/1854_fw.mp4	0.0	290.39249324798584	
60	266.0062916278839	fix_post	2		12	58.0	2.5	/experiments/Knapen_AOT/AOT_stimuli/rescaled_final/1854_fw.mp4	0.0	290.51080775260925	0.09999394416809082
61	266.106285572052	fix_pre	0		120	59.0	2.5	/experiments/Knapen_AOT/AOT_stimuli/rescaled_final/0072_fw.mp4	0.0	290.61080169677734	1.008622646331787
61	267.1149082183838	movie	1		280	59.0	2.5	/experiments/Knapen_AOT/AOT_stimuli/rescaled_final/0072_fw.mp4	0.0	291.61942434310913	2.491973638534546
61	267.4903106689453	pulse	1	t		59.0	2.5	/experiments/Knapen_AOT/AOT_stimuli/rescaled_final/0072_fw.mp4	0.0	291.99482679367065	
61	269.0880699157715	pulse	1	t		59.0	2.5	/experiments/Knapen_AOT/AOT_stimuli/rescaled_final/0072_fw.mp4	0.0	293.5925860404968	
61	269.60688185691833	fix_post	2		12	59.0	2.5	/experiments/Knapen_AOT/AOT_stimuli/rescaled_final/0072_fw.mp4	0.0	294.1113979816437	0.09997344017028809
62	269.7068552970886	fix_pre	0		119	60.0	2.5	/experiments/Knapen_AOT/AOT_stimuli/rescaled_final/1037_rv.mp4	0.0	294.21137142181396	1.000176191329956
62	270.6907784938812	pulse	0	t		60.0	2.5	/experiments/Knapen_AOT/AOT_stimuli/rescaled_final/1037_rv.mp4	0.0	295.19529461860657	
62	270.7070314884186	movie	1		284	60.0	2.5	/experiments/Knapen_AOT/AOT_stimuli/rescaled_final/1037_rv.mp4	0.0	295.2115476131439	2.5003345012664795
62	272.29096698760986	pulse	1	t		60.0	2.5	/experiments/Knapen_AOT/AOT_stimuli/rescaled_final/1037_rv.mp4	0.0	296.7954831123352	
62	273.20736598968506	fix_post	2		12	60.0	2.5	/experiments/Knapen_AOT/AOT_stimuli/rescaled_final/1037_rv.mp4	0.0	297.7118821144104	0.10004019737243652
63	273.3074061870575	fix_pre	0		120	61.0	2.5	blank	1.0	297.81192231178284	1.000126600265503
63	273.8910686969757	pulse	0	t		61.0	2.5	blank	1.0	298.39558482170105	
63	274.307532787323	movie	1		300	61.0	2.5	blank	1.0	298.81204891204834	2.5003862380981445
63	275.49149894714355	pulse	1	t		61.0	2.5	blank	1.0	299.9960150718689	
63	276.80791902542114	fix_post	2		12	61.0	2.5	blank	1.0	301.3124351501465	0.10001158714294434
64	276.9079306125641	fix_pre	0		120	62.0	2.5	/experiments/Knapen_AOT/AOT_stimuli/rescaled_final/0165_fw.mp4	0.0	301.41244673728943	1.008514404296875
64	277.0915639400482	pulse	0	t		62.0	2.5	/experiments/Knapen_AOT/AOT_stimuli/rescaled_final/0165_fw.mp4	0.0	301.59608006477356	
64	277.91644501686096	movie	1		283	62.0	2.5	/experiments/Knapen_AOT/AOT_stimuli/rescaled_final/0165_fw.mp4	0.0	302.4209611415863	2.4920105934143066
64	278.69208455085754	pulse	1	t		62.0	2.5	/experiments/Knapen_AOT/AOT_stimuli/rescaled_final/0165_fw.mp4	0.0	303.1966006755829	
64	280.29017639160156	pulse	1	t		62.0	2.5	/experiments/Knapen_AOT/AOT_stimuli/rescaled_final/0165_fw.mp4	0.0	304.7946925163269	
64	280.40845561027527	fix_post	2		12	62.0	2.5	/experiments/Knapen_AOT/AOT_stimuli/rescaled_final/0165_fw.mp4	0.0	304.9129717350006	0.10001707077026367
65	280.50847268104553	fix_pre	0		120	63.0	2.5	/experiments/Knapen_AOT/AOT_stimuli/rescaled_final/1683_rv.mp4	0.0	305.0129888057709	1.0085601806640625
65	281.5170328617096	movie	1		289	63.0	2.5	/experiments/Knapen_AOT/AOT_stimuli/rescaled_final/1683_rv.mp4	0.0	306.02154898643494	2.4919893741607666
65	281.8908905982971	pulse	1	t		63.0	2.5	/experiments/Knapen_AOT/AOT_stimuli/rescaled_final/1683_rv.mp4	0.0	306.39540672302246	
65	283.4907715320587	pulse	1	t		63.0	2.5	/experiments/Knapen_AOT/AOT_stimuli/rescaled_final/1683_rv.mp4	0.0	307.99528765678406	
65	284.00902223587036	fix_post	2		12	63.0	2.5	/experiments/Knapen_AOT/AOT_stimuli/rescaled_final/1683_rv.mp4	0.0	308.5135383605957	0.09999537467956543
66	284.1090176105499	fix_pre	0		118	64.0	2.5	/experiments/Knapen_AOT/AOT_stimuli/rescaled_final/0310_fw.mp4	0.0	308.61353373527527	0.991823673248291
66	285.08467531204224	pulse	0	t		64.0	2.5	/experiments/Knapen_AOT/AOT_stimuli/rescaled_final/0310_fw.mp4	0.0	309.5891914367676	
66	285.1008412837982	movie	1		285	64.0	2.5	/experiments/Knapen_AOT/AOT_stimuli/rescaled_final/0310_fw.mp4	0.0	309.60535740852356	2.50038480758667
66	286.6847388744354	pulse	1	t		64.0	2.5	/experiments/Knapen_AOT/AOT_stimuli/rescaled_final/0310_fw.mp4	0.0	311.18925499916077	
66	287.6012260913849	fix_post	2		12	64.0	2.5	/experiments/Knapen_AOT/AOT_stimuli/rescaled_final/0310_fw.mp4	0.0	312.10574221611023	0.1000056266784668
67	287.70123171806335	fix_pre	0		120	65.0	2.5	/experiments/Knapen_AOT/AOT_stimuli/rescaled_final/1167_fw.mp4	0.0	312.2057478427887	1.0085039138793945
67	288.2849106788635	pulse	0	t		65.0	2.5	/experiments/Knapen_AOT/AOT_stimuli/rescaled_final/1167_fw.mp4	0.0	312.78942680358887	
67	288.70973563194275	movie	1		270	65.0	2.5	/experiments/Knapen_AOT/AOT_stimuli/rescaled_final/1167_fw.mp4	0.0	313.2142517566681	2.492154836654663
67	289.8851954936981	pulse	1	t		65.0	2.5	/experiments/Knapen_AOT/AOT_stimuli/rescaled_final/1167_fw.mp4	0.0	314.38971161842346	
67	291.2018904685974	fix_post	2		12	65.0	2.5	/experiments/Knapen_AOT/AOT_stimuli/rescaled_final/1167_fw.mp4	0.0	315.70640659332275	0.09994101524353027
68	291.30183148384094	fix_pre	0		120	66.0	2.5	/experiments/Knapen_AOT/AOT_stimuli/rescaled_final/0505_fw.mp4	0.0	315.8063476085663	1.0084624290466309
68	291.48536252975464	pulse	0	t		66.0	2.5	/experiments/Knapen_AOT/AOT_stimuli/rescaled_final/0505_fw.mp4	0.0	315.98987865448	
68	292.3102939128876	movie	1		282	66.0	2.5	/experiments/Knapen_AOT/AOT_stimuli/rescaled_final/0505_fw.mp4	0.0	316.8148100376129	2.4920146465301514
68	293.08477878570557	pulse	1	t		66.0	2.5	/experiments/Knapen_AOT/AOT_stimuli/rescaled_final/0505_fw.mp4	0.0	317.5892949104309	
68	294.68582010269165	pulse	1	t		66.0	2.5	/experiments/Knapen_AOT/AOT_stimuli/rescaled_final/0505_fw.mp4	0.0	319.190336227417	
68	294.8023085594177	fix_post	2		12	66.0	2.5	/experiments/Knapen_AOT/AOT_stimuli/rescaled_final/0505_fw.mp4	0.0	319.30682468414307	0.10005044937133789
69	294.90235900878906	fix_pre	0		120	67.0	2.5	/experiments/Knapen_AOT/AOT_stimuli/rescaled_final/0237_rv.mp4	0.0	319.4068751335144	1.0085186958312988
69	295.91087770462036	movie	1		276	67.0	2.5	/experiments/Knapen_AOT/AOT_stimuli/rescaled_final/0237_rv.mp4	0.0	320.4153938293457	2.4919633865356445
69	296.28632044792175	pulse	1	t		67.0	2.5	/experiments/Knapen_AOT/AOT_stimuli/rescaled_final/0237_rv.mp4	0.0	320.7908365726471	
69	297.8851282596588	pulse	1	t		67.0	2.5	/experiments/Knapen_AOT/AOT_stimuli/rescaled_final/0237_rv.mp4	0.0	322.38964438438416	
69	298.402841091156	fix_post	2		12	67.0	2.5	/experiments/Knapen_AOT/AOT_stimuli/rescaled_final/0237_rv.mp4	0.0	322.90735721588135	0.10005617141723633
70	298.50289726257324	fix_pre	0		119	68.0	2.5	blank	1.0	323.0074133872986	0.9918360710144043
70	299.4867813587189	pulse	0	t		68.0	2.5	blank	1.0	323.9912974834442	
70	299.49473333358765	movie	1		301	68.0	2.5	blank	1.0	323.999249458313	2.5086677074432373
70	301.086874961853	pulse	1	t		68.0	2.5	blank	1.0	325.59139108657837	
70	302.0034010410309	fix_post	2		12	68.0	2.5	blank	1.0	326.5079171657562	0.1000356674194336
71	302.1034367084503	fix_pre	0		120	69.0	2.5	/experiments/Knapen_AOT/AOT_stimuli/rescaled_final/0104_fw.mp4	0.0	326.60795283317566	1.0085105895996094
71	302.687043428421	pulse	0	t		69.0	2.5	/experiments/Knapen_AOT/AOT_stimuli/rescaled_final/0104_fw.mp4	0.0	327.19155955314636	
71	303.1119472980499	movie	1		276	69.0	2.5	/experiments/Knapen_AOT/AOT_stimuli/rescaled_final/0104_fw.mp4	0.0	327.61646342277527	2.4920387268066406
71	304.28549671173096	pulse	1	t		69.0	2.5	/experiments/Knapen_AOT/AOT_stimuli/rescaled_final/0104_fw.mp4	0.0	328.7900128364563	
71	305.60398602485657	fix_post	2		12	69.0	2.5	/experiments/Knapen_AOT/AOT_stimuli/rescaled_final/0104_fw.mp4	0.0	330.1085021495819	0.100006103515625
72	305.7039921283722	fix_pre	0		120	70.0	2.5	/experiments/Knapen_AOT/AOT_stimuli/rescaled_final/0486_fw.mp4	0.0	330.20850825309753	1.0085041522979736
72	305.88762068748474	pulse	0	t		70.0	2.5	/experiments/Knapen_AOT/AOT_stimuli/rescaled_final/0486_fw.mp4	0.0	330.3921368122101	
72	306.71249628067017	movie	1		283	70.0	2.5	/experiments/Knapen_AOT/AOT_stimuli/rescaled_final/0486_fw.mp4	0.0	331.2170124053955	2.49204421043396
72	307.48591113090515	pulse	1	t		70.0	2.5	/experiments/Knapen_AOT/AOT_stimuli/rescaled_final/0486_fw.mp4	0.0	331.9904272556305	
72	309.09003925323486	pulse	1	t		70.0	2.5	/experiments/Knapen_AOT/AOT_stimuli/rescaled_final/0486_fw.mp4	0.0	333.5945553779602	
72	309.2045404911041	fix_post	2		12	70.0	2.5	/experiments/Knapen_AOT/AOT_stimuli/rescaled_final/0486_fw.mp4	0.0	333.70905661582947	0.09998869895935059
73	309.3045291900635	fix_pre	0		120	71.0	2.5	/experiments/Knapen_AOT/AOT_stimuli/rescaled_final/0966_rv.mp4	0.0	333.8090453147888	1.0085172653198242
73	310.3130464553833	movie	1		287	71.0	2.5	/experiments/Knapen_AOT/AOT_stimuli/rescaled_final/0966_rv.mp4	0.0	334.81756258010864	2.4920177459716797
73	310.6869134902954	pulse	1	t		71.0	2.5	/experiments/Knapen_AOT/AOT_stimuli/rescaled_final/0966_rv.mp4	0.0	335.19142961502075	
73	312.28671383857727	pulse	1	t		71.0	2.5	/experiments/Knapen_AOT/AOT_stimuli/rescaled_final/0966_rv.mp4	0.0	336.7912299633026	
73	312.805064201355	fix_post	2		12	71.0	2.5	/experiments/Knapen_AOT/AOT_stimuli/rescaled_final/0966_rv.mp4	0.0	337.3095803260803	0.09999871253967285
74	312.90506291389465	fix_pre	0		119	72.0	2.5	/experiments/Knapen_AOT/AOT_stimuli/rescaled_final/2088_rv.mp4	0.0	337.40957903862	1.0086517333984375
74	313.88889384269714	pulse	0	t		72.0	2.5	/experiments/Knapen_AOT/AOT_stimuli/rescaled_final/2088_rv.mp4	0.0	338.3934099674225	
74	313.9137146472931	movie	1		280	72.0	2.5	/experiments/Knapen_AOT/AOT_stimuli/rescaled_final/2088_rv.mp4	0.0	338.41823077201843	2.491913318634033
74	315.4879901409149	pulse	1	t		72.0	2.5	/experiments/Knapen_AOT/AOT_stimuli/rescaled_final/2088_rv.mp4	0.0	339.99250626564026	
74	316.4056279659271	fix_post	2		12	72.0	2.5	/experiments/Knapen_AOT/AOT_stimuli/rescaled_final/2088_rv.mp4	0.0	340.91014409065247	0.10002493858337402
75	316.5056529045105	fix_pre	0		120	73.0	2.5	/experiments/Knapen_AOT/AOT_stimuli/rescaled_final/0905_rv.mp4	0.0	341.01016902923584	1.0084540843963623
75	317.08938336372375	pulse	0	t		73.0	2.5	/experiments/Knapen_AOT/AOT_stimuli/rescaled_final/0905_rv.mp4	0.0	341.5938994884491	
75	317.51410698890686	movie	1		279	73.0	2.5	/experiments/Knapen_AOT/AOT_stimuli/rescaled_final/0905_rv.mp4	0.0	342.0186231136322	2.4920620918273926
75	318.68847393989563	pulse	1	t		73.0	2.5	/experiments/Knapen_AOT/AOT_stimuli/rescaled_final/0905_rv.mp4	0.0	343.192990064621	
75	320.00616908073425	fix_post	2		12	73.0	2.5	/experiments/Knapen_AOT/AOT_stimuli/rescaled_final/0905_rv.mp4	0.0	344.5106852054596	0.10007143020629883
76	320.10624051094055	fix_pre	0		120	74.0	2.5	/experiments/Knapen_AOT/AOT_stimuli/rescaled_final/2092_rv.mp4	0.0	344.6107566356659	1.0084636211395264
76	320.28986144065857	pulse	0	t		74.0	2.5	/experiments/Knapen_AOT/AOT_stimuli/rescaled_final/2092_rv.mp4	0.0	344.7943775653839	
76	321.1147041320801	movie	1		285	74.0	2.5	/experiments/Knapen_AOT/AOT_stimuli/rescaled_final/2092_rv.mp4	0.0	345.6192202568054	2.492006301879883
76	321.8882131576538	pulse	1	t		74.0	2.5	/experiments/Knapen_AOT/AOT_stimuli/rescaled_final/2092_rv.mp4	0.0	346.39272928237915	
76	323.4882822036743	pulse	1	t		74.0	2.5	/experiments/Knapen_AOT/AOT_stimuli/rescaled_final/2092_rv.mp4	0.0	347.99279832839966	
76	323.60671043395996	fix_post	2		12	74.0	2.5	/experiments/Knapen_AOT/AOT_stimuli/rescaled_final/2092_rv.mp4	0.0	348.1112265586853	0.10018801689147949
77	323.70689845085144	fix_pre	0		120	75.0	2.5	blank	1.0	348.2114145755768	0.9999644756317139
77	324.70686292648315	movie	1		300	75.0	2.5	blank	1.0	349.2113790512085	2.500396728515625
77	325.0905604362488	pulse	1	t		75.0	2.5	blank	1.0	349.5950765609741	
77	326.6907048225403	pulse	1	t		75.0	2.5	blank	1.0	351.1952209472656	
77	327.2072596549988	fix_post	2		12	75.0	2.5	blank	1.0	351.7117757797241	0.10000348091125488
78	327.30726313591003	fix_pre	0		119	76.0	2.5	/experiments/Knapen_AOT/AOT_stimuli/rescaled_final/0162_rv.mp4	0.0	351.8117792606354	1.0001792907714844
78	328.29125213623047	pulse	0	t		76.0	2.5	/experiments/Knapen_AOT/AOT_stimuli/rescaled_final/0162_rv.mp4	0.0	352.7957682609558	
78	328.3074424266815	movie	1		279	76.0	2.5	/experiments/Knapen_AOT/AOT_stimuli/rescaled_final/0162_rv.mp4	0.0	352.81195855140686	2.5003931522369385
78	329.89037346839905	pulse	1	t		76.0	2.5	/experiments/Knapen_AOT/AOT_stimuli/rescaled_final/0162_rv.mp4	0.0	354.3948895931244	
78	330.80783557891846	fix_post	2		12	76.0	2.5	/experiments/Knapen_AOT/AOT_stimuli/rescaled_final/0162_rv.mp4	0.0	355.3123517036438	0.10000157356262207
79	330.9078371524811	fix_pre	0		120	77.0	2.5	/experiments/Knapen_AOT/AOT_stimuli/rescaled_final/0039_fw.mp4	0.0	355.4123532772064	1.0084571838378906
79	331.4915421009064	pulse	0	t		77.0	2.5	/experiments/Knapen_AOT/AOT_stimuli/rescaled_final/0039_fw.mp4	0.0	355.9960582256317	
79	331.91629433631897	movie	1		284	77.0	2.5	/experiments/Knapen_AOT/AOT_stimuli/rescaled_final/0039_fw.mp4	0.0	356.4208104610443	2.492047071456909
79	333.0921013355255	pulse	1	t		77.0	2.5	/experiments/Knapen_AOT/AOT_stimuli/rescaled_final/0039_fw.mp4	0.0	357.59661746025085	
79	334.4083414077759	fix_post	2		12	77.0	2.5	/experiments/Knapen_AOT/AOT_stimuli/rescaled_final/0039_fw.mp4	0.0	358.9128575325012	0.10002994537353516
80	334.5083713531494	fix_pre	0		120	78.0	2.5	/experiments/Knapen_AOT/AOT_stimuli/rescaled_final/1002_fw.mp4	0.0	359.01288747787476	1.0085058212280273
80	334.6844482421875	pulse	0	t		78.0	2.5	/experiments/Knapen_AOT/AOT_stimuli/rescaled_final/1002_fw.mp4	0.0	359.18896436691284	
80	335.51687717437744	movie	1		276	78.0	2.5	/experiments/Knapen_AOT/AOT_stimuli/rescaled_final/1002_fw.mp4	0.0	360.0213932991028	2.4920315742492676
80	336.2840328216553	pulse	1	t		78.0	2.5	/experiments/Knapen_AOT/AOT_stimuli/rescaled_final/1002_fw.mp4	0.0	360.7885489463806	
80	337.88430762290955	pulse	1	t		78.0	2.5	/experiments/Knapen_AOT/AOT_stimuli/rescaled_final/1002_fw.mp4	0.0	362.3888237476349	
80	338.0089087486267	fix_post	2		12	78.0	2.5	/experiments/Knapen_AOT/AOT_stimuli/rescaled_final/1002_fw.mp4	0.0	362.51342487335205	0.10008835792541504
81	338.1089971065521	fix_pre	0		120	79.0	2.5	/experiments/Knapen_AOT/AOT_stimuli/rescaled_final/0969_fw.mp4	0.0	362.61351323127747	1.0084383487701416
81	339.11743545532227	movie	1		260	79.0	2.5	/experiments/Knapen_AOT/AOT_stimuli/rescaled_final/0969_fw.mp4	0.0	363.6219515800476	2.4920201301574707
81	339.48455452919006	pulse	1	t		79.0	2.5	/experiments/Knapen_AOT/AOT_stimuli/rescaled_final/0969_fw.mp4	0.0	363.9890706539154	
81	341.0848319530487	pulse	1	t		79.0	2.5	/experiments/Knapen_AOT/AOT_stimuli/rescaled_final/0969_fw.mp4	0.0	365.58934807777405	
81	341.60945558547974	fix_post	2		12	79.0	2.5	/experiments/Knapen_AOT/AOT_stimuli/rescaled_final/0969_fw.mp4	0.0	366.1139717102051	0.10001230239868164
82	341.7094678878784	fix_pre	0		118	80.0	2.5	/experiments/Knapen_AOT/AOT_stimuli/rescaled_final/0981_rv.mp4	0.0	366.21398401260376	0.9918358325958252
82	342.6848533153534	pulse	0	t		80.0	2.5	/experiments/Knapen_AOT/AOT_stimuli/rescaled_final/0981_rv.mp4	0.0	367.18936944007874	
82	342.70130372047424	movie	1		277	80.0	2.5	/experiments/Knapen_AOT/AOT_stimuli/rescaled_final/0981_rv.mp4	0.0	367.2058198451996	2.500441789627075
82	344.2851161956787	pulse	1	t		80.0	2.5	/experiments/Knapen_AOT/AOT_stimuli/rescaled_final/0981_rv.mp4	0.0	368.78963232040405	
82	345.2017455101013	fix_post	2		12	80.0	2.5	/experiments/Knapen_AOT/AOT_stimuli/rescaled_final/0981_rv.mp4	0.0	369.70626163482666	0.09995746612548828
83	345.3017029762268	fix_pre	0		120	81.0	2.5	/experiments/Knapen_AOT/AOT_stimuli/rescaled_final/2047_fw.mp4	0.0	369.80621910095215	1.0084874629974365
83	345.8855288028717	pulse	0	t		81.0	2.5	/experiments/Knapen_AOT/AOT_stimuli/rescaled_final/2047_fw.mp4	0.0	370.39004492759705	
83	346.31019043922424	movie	1		279	81.0	2.5	/experiments/Knapen_AOT/AOT_stimuli/rescaled_final/2047_fw.mp4	0.0	370.8147065639496	2.4920148849487305
83	347.4855978488922	pulse	1	t		81.0	2.5	/experiments/Knapen_AOT/AOT_stimuli/rescaled_final/2047_fw.mp4	0.0	371.99011397361755	
83	348.802205324173	fix_post	2		12	81.0	2.5	/experiments/Knapen_AOT/AOT_stimuli/rescaled_final/2047_fw.mp4	0.0	373.3067214488983	0.10003113746643066
84	348.9022364616394	fix_pre	0		120	82.0	2.5	blank	1.0	373.40675258636475	1.0001440048217773
84	349.0861372947693	pulse	0	t		82.0	2.5	blank	1.0	373.59065341949463	
84	349.9023804664612	movie	1		300	82.0	2.5	blank	1.0	374.4068965911865	2.500389814376831
84	350.6860873699188	pulse	1	t		82.0	2.5	blank	1.0	375.19060349464417	
84	352.28661370277405	pulse	1	t		82.0	2.5	blank	1.0	376.7911298274994	
84	352.402770280838	fix_post	2		12	82.0	2.5	blank	1.0	376.90728640556335	0.10001969337463379
85	352.50278997421265	fix_pre	0		120	83.0	2.5	/experiments/Knapen_AOT/AOT_stimuli/rescaled_final/0162_rv.mp4	0.0	377.007306098938	1.0085065364837646
85	353.5112965106964	movie	1		268	83.0	2.5	/experiments/Knapen_AOT/AOT_stimuli/rescaled_final/0162_rv.mp4	0.0	378.01581263542175	2.492034912109375
85	353.8851156234741	pulse	1	t		83.0	2.5	/experiments/Knapen_AOT/AOT_stimuli/rescaled_final/0162_rv.mp4	0.0	378.38963174819946	
85	355.4851179122925	pulse	1	t		83.0	2.5	/experiments/Knapen_AOT/AOT_stimuli/rescaled_final/0162_rv.mp4	0.0	379.9896340370178	
85	356.0033314228058	fix_post	2		12	83.0	2.5	/experiments/Knapen_AOT/AOT_stimuli/rescaled_final/0162_rv.mp4	0.0	380.5078475475311	0.09999823570251465
87	356.1033296585083	stim	0		1715					380.60784578323364	14.293899536132812
87	357.08704257011414	pulse	0	t						381.5915586948395	
87	358.68760991096497	pulse	0	t						383.1921260356903	
87	360.2877950668335	pulse	0	t						384.79231119155884	
87	361.88777136802673	pulse	0	t						386.3922874927521	
87	363.488037109375	pulse	0	t						387.99255323410034	
87	365.08829402923584	pulse	0	t						389.5928101539612	
87	366.6884796619415	pulse	0	t						391.19299578666687	
87	368.28898334503174	pulse	0	t						392.7934994697571	
87	369.889123916626	pulse	0	t						394.3936400413513	
