trial_nr	onset	event_type	phase	response	nr_frames	movie_index	movie_duration	movie_file	blank	onset_abs	duration
0	0.133652925491333	stim	0		33					21.070276021957397	0.27498912811279297
0	0.4006540775299072	response	0	space						21.33727717399597	
1	0.408642053604126	stim	0		4673					21.34526515007019	38.9415340423584
1	39.33975696563721	pulse	0	t						60.27638006210327	
1	39.350176095962524	stim	1		1717					60.28679919242859	14.308169841766357
1	40.93434500694275	pulse	1	t						61.87096810340881	
1	42.53441596031189	pulse	1	t						63.471039056777954	
1	44.13427495956421	pulse	1	t						65.07089805603027	
1	45.74190092086792	pulse	1	t						66.67852401733398	
1	47.33456206321716	pulse	1	t						68.27118515968323	
1	48.93440389633179	pulse	1	t						69.87102699279785	
1	50.53438401222229	pulse	1	t						71.47100710868835	
1	52.134334087371826	pulse	1	t						73.07095718383789	
2	53.65834593772888	fix_pre	0		11	0.0	2.5	/experiments/AOT/AOT_stimuli/rescaled_final/0192_rv.mp4	0.0	74.59496903419495	0.0916750431060791
2	53.73449897766113	pulse	0	t		0.0	2.5	/experiments/AOT/AOT_stimuli/rescaled_final/0192_rv.mp4	0.0	74.6711220741272	
2	53.75002098083496	movie	1		244	0.0	2.5	/experiments/AOT/AOT_stimuli/rescaled_final/0192_rv.mp4	0.0	74.68664407730103	2.5078940391540527
2	55.34131097793579	pulse	1	t		0.0	2.5	/experiments/AOT/AOT_stimuli/rescaled_final/0192_rv.mp4	0.0	76.27793407440186	
2	56.257915019989014	fix_post	2		12	0.0	2.5	/experiments/AOT/AOT_stimuli/rescaled_final/0192_rv.mp4	0.0	77.19453811645508	0.10052299499511719
3	56.35843801498413	fix_pre	0		120	1.0	2.5	/experiments/AOT/AOT_stimuli/rescaled_final/0627_rv.mp4	0.0	77.2950611114502	0.9999749660491943
3	56.93427896499634	pulse	0	t		1.0	2.5	/experiments/AOT/AOT_stimuli/rescaled_final/0627_rv.mp4	0.0	77.8709020614624	
3	57.358412981033325	movie	1		243	1.0	2.5	/experiments/AOT/AOT_stimuli/rescaled_final/0627_rv.mp4	0.0	78.29503607749939	2.4995040893554688
3	58.534728050231934	pulse	1	t		1.0	2.5	/experiments/AOT/AOT_stimuli/rescaled_final/0627_rv.mp4	0.0	79.471351146698	
3	59.857917070388794	fix_post	2		12	1.0	2.5	/experiments/AOT/AOT_stimuli/rescaled_final/0627_rv.mp4	0.0	80.79454016685486	0.10036182403564453
4	59.95827889442444	fix_pre	0		120	2.0	2.5	/experiments/AOT/AOT_stimuli/rescaled_final/0154_rv.mp4	0.0	80.8949019908905	0.9996590614318848
4	60.13356900215149	pulse	0	t		2.0	2.5	/experiments/AOT/AOT_stimuli/rescaled_final/0154_rv.mp4	0.0	81.07019209861755	
4	60.95793795585632	movie	1		245	2.0	2.5	/experiments/AOT/AOT_stimuli/rescaled_final/0154_rv.mp4	0.0	81.89456105232239	2.50032114982605
4	61.73485803604126	pulse	1	t		2.0	2.5	/experiments/AOT/AOT_stimuli/rescaled_final/0154_rv.mp4	0.0	82.67148113250732	
4	63.340275049209595	pulse	1	t		2.0	2.5	/experiments/AOT/AOT_stimuli/rescaled_final/0154_rv.mp4	0.0	84.27689814567566	
4	63.45825910568237	fix_post	2		12	2.0	2.5	/experiments/AOT/AOT_stimuli/rescaled_final/0154_rv.mp4	0.0	84.39488220214844	0.09968876838684082
5	63.557947874069214	fix_pre	0		120	3.0	2.5	/experiments/AOT/AOT_stimuli/rescaled_final/1758_fw.mp4	0.0	84.49457097053528	1.0003480911254883
5	64.5582959651947	movie	1		245	3.0	2.5	/experiments/AOT/AOT_stimuli/rescaled_final/1758_fw.mp4	0.0	85.49491906166077	2.500005006790161
5	64.94300889968872	pulse	1	t		3.0	2.5	/experiments/AOT/AOT_stimuli/rescaled_final/1758_fw.mp4	0.0	85.87963199615479	
5	66.53450894355774	pulse	1	t		3.0	2.5	/experiments/AOT/AOT_stimuli/rescaled_final/1758_fw.mp4	0.0	87.4711320400238	
5	67.05830097198486	fix_post	2		12	3.0	2.5	/experiments/AOT/AOT_stimuli/rescaled_final/1758_fw.mp4	0.0	87.99492406845093	0.09964394569396973
6	67.15794491767883	fix_pre	0		119	4.0	2.5	/experiments/AOT/AOT_stimuli/rescaled_final/0540_fw.mp4	0.0	88.0945680141449	0.9920370578765869
6	68.13431787490845	pulse	0	t		4.0	2.5	/experiments/AOT/AOT_stimuli/rescaled_final/0540_fw.mp4	0.0	89.07094097137451	
6	68.14998197555542	movie	1		247	4.0	2.5	/experiments/AOT/AOT_stimuli/rescaled_final/0540_fw.mp4	0.0	89.08660507202148	2.5083000659942627
6	69.74192810058594	pulse	1	t		4.0	2.5	/experiments/AOT/AOT_stimuli/rescaled_final/0540_fw.mp4	0.0	90.678551197052	
6	70.65828204154968	fix_post	2		12	4.0	2.5	/experiments/AOT/AOT_stimuli/rescaled_final/0540_fw.mp4	0.0	91.59490513801575	0.10002994537353516
7	70.75831198692322	fix_pre	0		120	5.0	2.5	/experiments/AOT/AOT_stimuli/rescaled_final/0509_fw.mp4	0.0	91.69493508338928	0.9995310306549072
7	71.33435487747192	pulse	0	t		5.0	2.5	/experiments/AOT/AOT_stimuli/rescaled_final/0509_fw.mp4	0.0	92.27097797393799	
7	71.75784301757812	movie	1		246	5.0	2.5	/experiments/AOT/AOT_stimuli/rescaled_final/0509_fw.mp4	0.0	92.69446611404419	2.500408887863159
7	72.94186496734619	pulse	1	t		5.0	2.5	/experiments/AOT/AOT_stimuli/rescaled_final/0509_fw.mp4	0.0	93.87848806381226	
7	74.25825190544128	fix_post	2		12	5.0	2.5	/experiments/AOT/AOT_stimuli/rescaled_final/0509_fw.mp4	0.0	95.19487500190735	0.10004019737243652
8	74.35829210281372	fix_pre	0		120	6.0	2.5	blank	1.0	95.29491519927979	0.9999978542327881
8	74.53426694869995	pulse	0	t		6.0	2.5	blank	1.0	95.47089004516602	
8	75.35828995704651	movie	1		300	6.0	2.5	blank	1.0	96.29491305351257	2.49993896484375
8	76.13426089286804	pulse	1	t		6.0	2.5	blank	1.0	97.0708839893341	
8	77.74178194999695	pulse	1	t		6.0	2.5	blank	1.0	98.67840504646301	
8	77.85822892189026	fix_post	2		12	6.0	2.5	blank	1.0	98.79485201835632	0.09959006309509277
9	77.95781898498535	fix_pre	0		120	7.0	2.5	/experiments/AOT/AOT_stimuli/rescaled_final/1410_fw.mp4	0.0	98.89444208145142	1.000502109527588
9	78.95832109451294	movie	1		245	7.0	2.5	/experiments/AOT/AOT_stimuli/rescaled_final/1410_fw.mp4	0.0	99.894944190979	2.499908924102783
9	79.34279203414917	pulse	1	t		7.0	2.5	/experiments/AOT/AOT_stimuli/rescaled_final/1410_fw.mp4	0.0	100.27941513061523	
9	80.93437099456787	pulse	1	t		7.0	2.5	/experiments/AOT/AOT_stimuli/rescaled_final/1410_fw.mp4	0.0	101.87099409103394	
9	81.45823001861572	fix_post	2		12	7.0	2.5	/experiments/AOT/AOT_stimuli/rescaled_final/1410_fw.mp4	0.0	102.39485311508179	0.10004997253417969
10	81.5582799911499	fix_pre	0		119	8.0	2.5	/experiments/AOT/AOT_stimuli/rescaled_final/1654_rv.mp4	0.0	102.49490308761597	0.9915740489959717
10	82.53438091278076	pulse	0	t		8.0	2.5	/experiments/AOT/AOT_stimuli/rescaled_final/1654_rv.mp4	0.0	103.47100400924683	
10	82.54985404014587	movie	1		245	8.0	2.5	/experiments/AOT/AOT_stimuli/rescaled_final/1654_rv.mp4	0.0	103.48647713661194	2.5079500675201416
10	84.14153099060059	pulse	1	t		8.0	2.5	/experiments/AOT/AOT_stimuli/rescaled_final/1654_rv.mp4	0.0	105.07815408706665	
10	85.05780410766602	fix_post	2		12	8.0	2.5	/experiments/AOT/AOT_stimuli/rescaled_final/1654_rv.mp4	0.0	105.99442720413208	0.10036396980285645
11	85.15816807746887	fix_pre	0		120	9.0	2.5	/experiments/AOT/AOT_stimuli/rescaled_final/1807_fw.mp4	0.0	106.09479117393494	1.000108003616333
11	85.73415803909302	pulse	0	t		9.0	2.5	/experiments/AOT/AOT_stimuli/rescaled_final/1807_fw.mp4	0.0	106.67078113555908	
11	86.1582760810852	movie	1		244	9.0	2.5	/experiments/AOT/AOT_stimuli/rescaled_final/1807_fw.mp4	0.0	107.09489917755127	2.499891996383667
11	87.34175705909729	pulse	1	t		9.0	2.5	/experiments/AOT/AOT_stimuli/rescaled_final/1807_fw.mp4	0.0	108.27838015556335	
11	88.65816807746887	fix_post	2		12	9.0	2.5	/experiments/AOT/AOT_stimuli/rescaled_final/1807_fw.mp4	0.0	109.59479117393494	0.1000528335571289
12	88.758220911026	fix_pre	0		120	10.0	2.5	/experiments/AOT/AOT_stimuli/rescaled_final/1445_rv.mp4	0.0	109.69484400749207	1.0000090599060059
12	88.93426609039307	pulse	0	t		10.0	2.5	/experiments/AOT/AOT_stimuli/rescaled_final/1445_rv.mp4	0.0	109.87088918685913	
12	89.758229970932	movie	1		244	10.0	2.5	/experiments/AOT/AOT_stimuli/rescaled_final/1445_rv.mp4	0.0	110.69485306739807	2.499752998352051
12	90.53433108329773	pulse	1	t		10.0	2.5	/experiments/AOT/AOT_stimuli/rescaled_final/1445_rv.mp4	0.0	111.4709541797638	
12	92.14012598991394	pulse	1	t		10.0	2.5	/experiments/AOT/AOT_stimuli/rescaled_final/1445_rv.mp4	0.0	113.07674908638	
12	92.25798296928406	fix_post	2		12	10.0	2.5	/experiments/AOT/AOT_stimuli/rescaled_final/1445_rv.mp4	0.0	113.19460606575012	0.09998607635498047
13	92.35796904563904	fix_pre	0		120	11.0	2.5	/experiments/AOT/AOT_stimuli/rescaled_final/1654_fw.mp4	0.0	113.2945921421051	1.0000848770141602
13	93.3580539226532	movie	1		247	11.0	2.5	/experiments/AOT/AOT_stimuli/rescaled_final/1654_fw.mp4	0.0	114.29467701911926	2.5001211166381836
13	93.74222803115845	pulse	1	t		11.0	2.5	/experiments/AOT/AOT_stimuli/rescaled_final/1654_fw.mp4	0.0	114.67885112762451	
13	95.34173488616943	pulse	1	t		11.0	2.5	/experiments/AOT/AOT_stimuli/rescaled_final/1654_fw.mp4	0.0	116.2783579826355	
13	95.85817503929138	fix_post	2		12	11.0	2.5	/experiments/AOT/AOT_stimuli/rescaled_final/1654_fw.mp4	0.0	116.79479813575745	0.10007500648498535
14	95.95825004577637	fix_pre	0		119	12.0	2.5	/experiments/AOT/AOT_stimuli/rescaled_final/0516_fw.mp4	0.0	116.89487314224243	0.9917068481445312
14	96.94168400764465	pulse	0	t		12.0	2.5	/experiments/AOT/AOT_stimuli/rescaled_final/0516_fw.mp4	0.0	117.87830710411072	
14	96.9499568939209	movie	1		245	12.0	2.5	/experiments/AOT/AOT_stimuli/rescaled_final/0516_fw.mp4	0.0	117.88657999038696	2.5082521438598633
14	98.54178404808044	pulse	1	t		12.0	2.5	/experiments/AOT/AOT_stimuli/rescaled_final/0516_fw.mp4	0.0	119.47840714454651	
14	99.45820903778076	fix_post	2		12	12.0	2.5	/experiments/AOT/AOT_stimuli/rescaled_final/0516_fw.mp4	0.0	120.39483213424683	0.09996795654296875
15	99.55817699432373	fix_pre	0		120	13.0	2.5	/experiments/AOT/AOT_stimuli/rescaled_final/0150_rv.mp4	0.0	120.4948000907898	1.0000309944152832
15	100.14162087440491	pulse	0	t		13.0	2.5	/experiments/AOT/AOT_stimuli/rescaled_final/0150_rv.mp4	0.0	121.07824397087097	
15	100.55820798873901	movie	1		243	13.0	2.5	/experiments/AOT/AOT_stimuli/rescaled_final/0150_rv.mp4	0.0	121.49483108520508	2.499969005584717
15	101.74166893959045	pulse	1	t		13.0	2.5	/experiments/AOT/AOT_stimuli/rescaled_final/0150_rv.mp4	0.0	122.67829203605652	
15	103.05817699432373	fix_post	2		12	13.0	2.5	/experiments/AOT/AOT_stimuli/rescaled_final/0150_rv.mp4	0.0	123.9948000907898	0.10004401206970215
16	103.15822100639343	fix_pre	0		120	14.0	2.5	blank	1.0	124.0948441028595	0.9999499320983887
16	103.3340950012207	pulse	0	t		14.0	2.5	blank	1.0	124.27071809768677	
16	104.15817093849182	movie	1		300	14.0	2.5	blank	1.0	125.09479403495789	2.4999380111694336
16	104.93424105644226	pulse	1	t		14.0	2.5	blank	1.0	125.87086415290833	
16	106.53427195549011	pulse	1	t		14.0	2.5	blank	1.0	127.47089505195618	
16	106.65810894966125	fix_post	2		12	14.0	2.5	blank	1.0	127.59473204612732	0.1001441478729248
17	106.75825309753418	fix_pre	0		120	15.0	2.5	/experiments/AOT/AOT_stimuli/rescaled_final/0289_rv.mp4	0.0	127.69487619400024	0.9998378753662109
17	107.75809097290039	movie	1		246	15.0	2.5	/experiments/AOT/AOT_stimuli/rescaled_final/0289_rv.mp4	0.0	128.69471406936646	2.4995899200439453
17	108.14131689071655	pulse	1	t		15.0	2.5	/experiments/AOT/AOT_stimuli/rescaled_final/0289_rv.mp4	0.0	129.07793998718262	
17	109.74153995513916	pulse	1	t		15.0	2.5	/experiments/AOT/AOT_stimuli/rescaled_final/0289_rv.mp4	0.0	130.67816305160522	
17	110.25768089294434	fix_post	2		12	15.0	2.5	/experiments/AOT/AOT_stimuli/rescaled_final/0289_rv.mp4	0.0	131.1943039894104	0.10039305686950684
18	110.35807394981384	fix_pre	0		119	16.0	2.5	/experiments/AOT/AOT_stimuli/rescaled_final/1093_fw.mp4	0.0	131.2946970462799	0.9917089939117432
18	111.34173202514648	pulse	0	t		16.0	2.5	/experiments/AOT/AOT_stimuli/rescaled_final/1093_fw.mp4	0.0	132.27835512161255	
18	111.34978294372559	movie	1		246	16.0	2.5	/experiments/AOT/AOT_stimuli/rescaled_final/1093_fw.mp4	0.0	132.28640604019165	2.508263111114502
18	112.94139695167542	pulse	1	t		16.0	2.5	/experiments/AOT/AOT_stimuli/rescaled_final/1093_fw.mp4	0.0	133.87802004814148	
18	113.85804605484009	fix_post	2		12	16.0	2.5	/experiments/AOT/AOT_stimuli/rescaled_final/1093_fw.mp4	0.0	134.79466915130615	0.1000359058380127
19	113.9580819606781	fix_pre	0		120	17.0	2.5	/experiments/AOT/AOT_stimuli/rescaled_final/2130_fw.mp4	0.0	134.89470505714417	0.9996030330657959
19	114.54161500930786	pulse	0	t		17.0	2.5	/experiments/AOT/AOT_stimuli/rescaled_final/2130_fw.mp4	0.0	135.47823810577393	
19	114.9576849937439	movie	1		246	17.0	2.5	/experiments/AOT/AOT_stimuli/rescaled_final/2130_fw.mp4	0.0	135.89430809020996	2.500412940979004
19	116.14168405532837	pulse	1	t		17.0	2.5	/experiments/AOT/AOT_stimuli/rescaled_final/2130_fw.mp4	0.0	137.07830715179443	
19	117.4580979347229	fix_post	2		12	17.0	2.5	/experiments/AOT/AOT_stimuli/rescaled_final/2130_fw.mp4	0.0	138.39472103118896	0.10000395774841309
20	117.55810189247131	fix_pre	0		120	18.0	2.5	/experiments/AOT/AOT_stimuli/rescaled_final/0200_fw.mp4	0.0	138.49472498893738	0.9999210834503174
20	117.7415668964386	pulse	0	t		18.0	2.5	/experiments/AOT/AOT_stimuli/rescaled_final/0200_fw.mp4	0.0	138.67818999290466	
20	118.55802297592163	movie	1		246	18.0	2.5	/experiments/AOT/AOT_stimuli/rescaled_final/0200_fw.mp4	0.0	139.4946460723877	2.500054121017456
20	119.33431196212769	pulse	1	t		18.0	2.5	/experiments/AOT/AOT_stimuli/rescaled_final/0200_fw.mp4	0.0	140.27093505859375	
20	120.94150805473328	pulse	1	t		18.0	2.5	/experiments/AOT/AOT_stimuli/rescaled_final/0200_fw.mp4	0.0	141.87813115119934	
20	121.05807709693909	fix_post	2		12	18.0	2.5	/experiments/AOT/AOT_stimuli/rescaled_final/0200_fw.mp4	0.0	141.99470019340515	0.09998679161071777
21	121.1580638885498	fix_pre	0		120	19.0	2.5	/experiments/AOT/AOT_stimuli/rescaled_final/0531_rv.mp4	0.0	142.09468698501587	0.9999520778656006
21	122.1580159664154	movie	1		244	19.0	2.5	/experiments/AOT/AOT_stimuli/rescaled_final/0531_rv.mp4	0.0	143.09463906288147	2.5000181198120117
21	122.54292607307434	pulse	1	t		19.0	2.5	/experiments/AOT/AOT_stimuli/rescaled_final/0531_rv.mp4	0.0	143.4795491695404	
21	124.13418507575989	pulse	1	t		19.0	2.5	/experiments/AOT/AOT_stimuli/rescaled_final/0531_rv.mp4	0.0	145.07080817222595	
21	124.65803408622742	fix_post	2		12	19.0	2.5	/experiments/AOT/AOT_stimuli/rescaled_final/0531_rv.mp4	0.0	145.59465718269348	0.10007286071777344
22	124.75810694694519	fix_pre	0		119	20.0	2.5	/experiments/AOT/AOT_stimuli/rescaled_final/1028_fw.mp4	0.0	145.69473004341125	0.9915821552276611
22	125.74154210090637	pulse	0	t		20.0	2.5	/experiments/AOT/AOT_stimuli/rescaled_final/1028_fw.mp4	0.0	146.67816519737244	
22	125.74968910217285	movie	1		248	20.0	2.5	/experiments/AOT/AOT_stimuli/rescaled_final/1028_fw.mp4	0.0	146.68631219863892	2.5079050064086914
22	127.34107303619385	pulse	1	t		20.0	2.5	/experiments/AOT/AOT_stimuli/rescaled_final/1028_fw.mp4	0.0	148.2776961326599	
22	128.25759410858154	fix_post	2		12	20.0	2.5	/experiments/AOT/AOT_stimuli/rescaled_final/1028_fw.mp4	0.0	149.1942172050476	0.10041594505310059
23	128.35801005363464	fix_pre	0		120	21.0	2.5	blank	1.0	149.2946331501007	1.0000369548797607
23	128.94149208068848	pulse	0	t		21.0	2.5	blank	1.0	149.87811517715454	
23	129.3580470085144	movie	1		300	21.0	2.5	blank	1.0	150.29467010498047	2.4999239444732666
23	130.54152703285217	pulse	1	t		21.0	2.5	blank	1.0	151.47815012931824	
23	131.85797095298767	fix_post	2		12	21.0	2.5	blank	1.0	152.79459404945374	0.09960794448852539
24	131.9575788974762	fix_pre	0		120	22.0	2.5	/experiments/AOT/AOT_stimuli/rescaled_final/1992_rv.mp4	0.0	152.89420199394226	1.0003399848937988
24	132.1415250301361	pulse	0	t		22.0	2.5	/experiments/AOT/AOT_stimuli/rescaled_final/1992_rv.mp4	0.0	153.07814812660217	
24	132.95791888237	movie	1		245	22.0	2.5	/experiments/AOT/AOT_stimuli/rescaled_final/1992_rv.mp4	0.0	153.89454197883606	2.500014066696167
24	133.7414939403534	pulse	1	t		22.0	2.5	/experiments/AOT/AOT_stimuli/rescaled_final/1992_rv.mp4	0.0	154.67811703681946	
24	135.34010100364685	pulse	1	t		22.0	2.5	/experiments/AOT/AOT_stimuli/rescaled_final/1992_rv.mp4	0.0	156.27672410011292	
24	135.45793294906616	fix_post	2		12	22.0	2.5	/experiments/AOT/AOT_stimuli/rescaled_final/1992_rv.mp4	0.0	156.39455604553223	0.10006594657897949
25	135.55799889564514	fix_pre	0		120	23.0	2.5	/experiments/AOT/AOT_stimuli/rescaled_final/0630_rv.mp4	0.0	156.4946219921112	1.000042200088501
25	136.55804109573364	movie	1		244	23.0	2.5	/experiments/AOT/AOT_stimuli/rescaled_final/0630_rv.mp4	0.0	157.4946641921997	2.499971866607666
25	136.94106793403625	pulse	1	t		23.0	2.5	/experiments/AOT/AOT_stimuli/rescaled_final/0630_rv.mp4	0.0	157.87769103050232	
25	138.53409099578857	pulse	1	t		23.0	2.5	/experiments/AOT/AOT_stimuli/rescaled_final/0630_rv.mp4	0.0	159.47071409225464	
25	139.0580129623413	fix_post	2		12	23.0	2.5	/experiments/AOT/AOT_stimuli/rescaled_final/0630_rv.mp4	0.0	159.99463605880737	0.09991693496704102
26	139.15792989730835	fix_pre	0		119	24.0	2.5	/experiments/AOT/AOT_stimuli/rescaled_final/2161_rv.mp4	0.0	160.0945529937744	0.9916830062866211
26	140.13397097587585	pulse	0	t		24.0	2.5	/experiments/AOT/AOT_stimuli/rescaled_final/2161_rv.mp4	0.0	161.07059407234192	
26	140.14961290359497	movie	1		245	24.0	2.5	/experiments/AOT/AOT_stimuli/rescaled_final/2161_rv.mp4	0.0	161.08623600006104	2.5082931518554688
26	141.74131989479065	pulse	1	t		24.0	2.5	/experiments/AOT/AOT_stimuli/rescaled_final/2161_rv.mp4	0.0	162.6779429912567	
26	142.65790605545044	fix_post	2		12	24.0	2.5	/experiments/AOT/AOT_stimuli/rescaled_final/2161_rv.mp4	0.0	163.5945291519165	0.09961986541748047
27	142.75752592086792	fix_pre	0		120	25.0	2.5	/experiments/AOT/AOT_stimuli/rescaled_final/1612_rv.mp4	0.0	163.69414901733398	1.000473976135254
27	143.34150791168213	pulse	0	t		25.0	2.5	/experiments/AOT/AOT_stimuli/rescaled_final/1612_rv.mp4	0.0	164.2781310081482	
27	143.75799989700317	movie	1		243	25.0	2.5	/experiments/AOT/AOT_stimuli/rescaled_final/1612_rv.mp4	0.0	164.69462299346924	2.4999611377716064
27	144.94155597686768	pulse	1	t		25.0	2.5	/experiments/AOT/AOT_stimuli/rescaled_final/1612_rv.mp4	0.0	165.87817907333374	
27	146.25796103477478	fix_post	2		12	25.0	2.5	/experiments/AOT/AOT_stimuli/rescaled_final/1612_rv.mp4	0.0	167.19458413124084	0.09996390342712402
28	146.3579249382019	fix_pre	0		120	26.0	2.5	blank	1.0	167.29454803466797	1.000014066696167
28	146.54147291183472	pulse	0	t		26.0	2.5	blank	1.0	167.47809600830078	
28	147.35793900489807	movie	1		300	26.0	2.5	blank	1.0	168.29456210136414	2.499871015548706
28	148.1411108970642	pulse	1	t		26.0	2.5	blank	1.0	169.07773399353027	
28	149.74122595787048	pulse	1	t		26.0	2.5	blank	1.0	170.67784905433655	
28	149.85781002044678	fix_post	2		12	26.0	2.5	blank	1.0	170.79443311691284	0.10000801086425781
29	149.95781803131104	fix_pre	0		120	27.0	2.5	/experiments/AOT/AOT_stimuli/rescaled_final/0933_rv.mp4	0.0	170.8944411277771	1.0001180171966553
29	150.9579360485077	movie	1		245	27.0	2.5	/experiments/AOT/AOT_stimuli/rescaled_final/0933_rv.mp4	0.0	171.89455914497375	2.5000460147857666
29	151.34138202667236	pulse	1	t		27.0	2.5	/experiments/AOT/AOT_stimuli/rescaled_final/0933_rv.mp4	0.0	172.27800512313843	
29	152.94137692451477	pulse	1	t		27.0	2.5	/experiments/AOT/AOT_stimuli/rescaled_final/0933_rv.mp4	0.0	173.87800002098083	
29	153.45798206329346	fix_post	2		12	27.0	2.5	/experiments/AOT/AOT_stimuli/rescaled_final/0933_rv.mp4	0.0	174.39460515975952	0.09994697570800781
30	153.55792903900146	fix_pre	0		119	28.0	2.5	/experiments/AOT/AOT_stimuli/rescaled_final/0269_fw.mp4	0.0	174.49455213546753	0.9916799068450928
30	154.53411889076233	pulse	0	t		28.0	2.5	/experiments/AOT/AOT_stimuli/rescaled_final/0269_fw.mp4	0.0	175.4707419872284	
30	154.54960894584656	movie	1		247	28.0	2.5	/experiments/AOT/AOT_stimuli/rescaled_final/0269_fw.mp4	0.0	175.48623204231262	2.508263111114502
30	156.14111590385437	pulse	1	t		28.0	2.5	/experiments/AOT/AOT_stimuli/rescaled_final/0269_fw.mp4	0.0	177.07773900032043	
30	157.05787205696106	fix_post	2		12	28.0	2.5	/experiments/AOT/AOT_stimuli/rescaled_final/0269_fw.mp4	0.0	177.99449515342712	0.09992194175720215
31	157.15779399871826	fix_pre	0		120	29.0	2.5	/experiments/AOT/AOT_stimuli/rescaled_final/2047_fw.mp4	0.0	178.09441709518433	1.0001060962677002
31	157.74142909049988	pulse	0	t		29.0	2.5	/experiments/AOT/AOT_stimuli/rescaled_final/2047_fw.mp4	0.0	178.67805218696594	
31	158.15790009498596	movie	1		246	29.0	2.5	/experiments/AOT/AOT_stimuli/rescaled_final/2047_fw.mp4	0.0	179.09452319145203	2.4999518394470215
31	159.34136199951172	pulse	1	t		29.0	2.5	/experiments/AOT/AOT_stimuli/rescaled_final/2047_fw.mp4	0.0	180.27798509597778	
31	160.65785193443298	fix_post	2		12	29.0	2.5	/experiments/AOT/AOT_stimuli/rescaled_final/2047_fw.mp4	0.0	181.59447503089905	0.09995412826538086
32	160.75780606269836	fix_pre	0		120	30.0	2.5	/experiments/AOT/AOT_stimuli/rescaled_final/1452_fw.mp4	0.0	181.69442915916443	0.9996678829193115
32	160.9412989616394	pulse	0	t		30.0	2.5	/experiments/AOT/AOT_stimuli/rescaled_final/1452_fw.mp4	0.0	181.87792205810547	
32	161.75747394561768	movie	1		243	30.0	2.5	/experiments/AOT/AOT_stimuli/rescaled_final/1452_fw.mp4	0.0	182.69409704208374	2.499880075454712
32	162.54127502441406	pulse	1	t		30.0	2.5	/experiments/AOT/AOT_stimuli/rescaled_final/1452_fw.mp4	0.0	183.47789812088013	
32	164.1395719051361	pulse	1	t		30.0	2.5	/experiments/AOT/AOT_stimuli/rescaled_final/1452_fw.mp4	0.0	185.07619500160217	
32	164.2573540210724	fix_post	2		12	30.0	2.5	/experiments/AOT/AOT_stimuli/rescaled_final/1452_fw.mp4	0.0	185.19397711753845	0.1004638671875
33	164.3578178882599	fix_pre	0		120	31.0	2.5	/experiments/AOT/AOT_stimuli/rescaled_final/1785_rv.mp4	0.0	185.29444098472595	1.0000641345977783
33	165.35788202285767	movie	1		243	31.0	2.5	/experiments/AOT/AOT_stimuli/rescaled_final/1785_rv.mp4	0.0	186.29450511932373	2.4995310306549072
33	165.74104690551758	pulse	1	t		31.0	2.5	/experiments/AOT/AOT_stimuli/rescaled_final/1785_rv.mp4	0.0	186.67767000198364	
33	167.34134697914124	pulse	1	t		31.0	2.5	/experiments/AOT/AOT_stimuli/rescaled_final/1785_rv.mp4	0.0	188.2779700756073	
33	167.85741305351257	fix_post	2		12	31.0	2.5	/experiments/AOT/AOT_stimuli/rescaled_final/1785_rv.mp4	0.0	188.79403614997864	0.10041999816894531
34	167.95783305168152	fix_pre	0		119	32.0	2.5	/experiments/AOT/AOT_stimuli/rescaled_final/1093_rv.mp4	0.0	188.89445614814758	0.9915728569030762
34	168.9412670135498	pulse	0	t		32.0	2.5	/experiments/AOT/AOT_stimuli/rescaled_final/1093_rv.mp4	0.0	189.87789011001587	
34	168.9494059085846	movie	1		245	32.0	2.5	/experiments/AOT/AOT_stimuli/rescaled_final/1093_rv.mp4	0.0	189.88602900505066	2.5084311962127686
34	170.54099798202515	pulse	1	t		32.0	2.5	/experiments/AOT/AOT_stimuli/rescaled_final/1093_rv.mp4	0.0	191.4776210784912	
34	171.45783710479736	fix_post	2		12	32.0	2.5	/experiments/AOT/AOT_stimuli/rescaled_final/1093_rv.mp4	0.0	192.39446020126343	0.09998297691345215
35	171.55782008171082	fix_pre	0		120	33.0	2.5	/experiments/AOT/AOT_stimuli/rescaled_final/0130_rv.mp4	0.0	192.49444317817688	0.9995849132537842
35	172.13379287719727	pulse	0	t		33.0	2.5	/experiments/AOT/AOT_stimuli/rescaled_final/0130_rv.mp4	0.0	193.07041597366333	
35	172.5574049949646	movie	1		244	33.0	2.5	/experiments/AOT/AOT_stimuli/rescaled_final/0130_rv.mp4	0.0	193.49402809143066	2.499941110610962
35	173.74137210845947	pulse	1	t		33.0	2.5	/experiments/AOT/AOT_stimuli/rescaled_final/0130_rv.mp4	0.0	194.67799520492554	
35	175.05734610557556	fix_post	2		12	33.0	2.5	/experiments/AOT/AOT_stimuli/rescaled_final/0130_rv.mp4	0.0	195.99396920204163	0.10047698020935059
36	175.1578230857849	fix_pre	0		120	34.0	2.5	/experiments/AOT/AOT_stimuli/rescaled_final/0222_rv.mp4	0.0	196.09444618225098	1.0000197887420654
36	175.3413028717041	pulse	0	t		34.0	2.5	/experiments/AOT/AOT_stimuli/rescaled_final/0222_rv.mp4	0.0	196.27792596817017	
36	176.15784287452698	movie	1		246	34.0	2.5	/experiments/AOT/AOT_stimuli/rescaled_final/0222_rv.mp4	0.0	197.09446597099304	2.499521017074585
36	176.9413299560547	pulse	1	t		34.0	2.5	/experiments/AOT/AOT_stimuli/rescaled_final/0222_rv.mp4	0.0	197.87795305252075	
36	178.53995299339294	pulse	1	t		34.0	2.5	/experiments/AOT/AOT_stimuli/rescaled_final/0222_rv.mp4	0.0	199.476576089859	
36	178.65736389160156	fix_post	2		12	34.0	2.5	/experiments/AOT/AOT_stimuli/rescaled_final/0222_rv.mp4	0.0	199.59398698806763	0.10002899169921875
37	178.75739288330078	fix_pre	0		120	35.0	2.5	blank	1.0	199.69401597976685	1.0003211498260498
37	179.75771403312683	movie	1		300	35.0	2.5	blank	1.0	200.6943371295929	2.500063896179199
37	180.1414361000061	pulse	1	t		35.0	2.5	blank	1.0	201.07805919647217	
37	181.74124193191528	pulse	1	t		35.0	2.5	blank	1.0	202.67786502838135	
37	182.25777792930603	fix_post	2		12	35.0	2.5	blank	1.0	203.1944010257721	0.09996795654296875
38	182.357745885849	fix_pre	0		119	36.0	2.5	/experiments/AOT/AOT_stimuli/rescaled_final/0279_fw.mp4	0.0	203.29436898231506	0.9916250705718994
38	183.34122610092163	pulse	0	t		36.0	2.5	/experiments/AOT/AOT_stimuli/rescaled_final/0279_fw.mp4	0.0	204.2778491973877	
38	183.3493709564209	movie	1		244	36.0	2.5	/experiments/AOT/AOT_stimuli/rescaled_final/0279_fw.mp4	0.0	204.28599405288696	2.5082790851593018
38	184.94087505340576	pulse	1	t		36.0	2.5	/experiments/AOT/AOT_stimuli/rescaled_final/0279_fw.mp4	0.0	205.87749814987183	
38	185.8576500415802	fix_post	2		12	36.0	2.5	/experiments/AOT/AOT_stimuli/rescaled_final/0279_fw.mp4	0.0	206.79427313804626	0.10009288787841797
39	185.95774292945862	fix_pre	0		120	37.0	2.5	/experiments/AOT/AOT_stimuli/rescaled_final/0509_rv.mp4	0.0	206.89436602592468	0.9995579719543457
39	186.54123401641846	pulse	0	t		37.0	2.5	/experiments/AOT/AOT_stimuli/rescaled_final/0509_rv.mp4	0.0	207.47785711288452	
39	186.95730090141296	movie	1		245	37.0	2.5	/experiments/AOT/AOT_stimuli/rescaled_final/0509_rv.mp4	0.0	207.89392399787903	2.5004770755767822
39	188.14125990867615	pulse	1	t		37.0	2.5	/experiments/AOT/AOT_stimuli/rescaled_final/0509_rv.mp4	0.0	209.0778830051422	
39	189.45777797698975	fix_post	2		12	37.0	2.5	/experiments/AOT/AOT_stimuli/rescaled_final/0509_rv.mp4	0.0	210.3944010734558	0.09993600845336914
40	189.55771398544312	fix_pre	0		120	38.0	2.5	/experiments/AOT/AOT_stimuli/rescaled_final/2161_fw.mp4	0.0	210.49433708190918	0.99993896484375
40	189.74110102653503	pulse	0	t		38.0	2.5	/experiments/AOT/AOT_stimuli/rescaled_final/2161_fw.mp4	0.0	210.6777241230011	
40	190.55765295028687	movie	1		244	38.0	2.5	/experiments/AOT/AOT_stimuli/rescaled_final/2161_fw.mp4	0.0	211.49427604675293	2.499613046646118
40	191.34122395515442	pulse	1	t		38.0	2.5	/experiments/AOT/AOT_stimuli/rescaled_final/2161_fw.mp4	0.0	212.27784705162048	
40	192.9395010471344	pulse	1	t		38.0	2.5	/experiments/AOT/AOT_stimuli/rescaled_final/2161_fw.mp4	0.0	213.87612414360046	
40	193.05726599693298	fix_post	2		12	38.0	2.5	/experiments/AOT/AOT_stimuli/rescaled_final/2161_fw.mp4	0.0	213.99388909339905	0.1003880500793457
41	193.15765404701233	fix_pre	0		120	39.0	2.5	/experiments/AOT/AOT_stimuli/rescaled_final/0297_rv.mp4	0.0	214.0942771434784	1.0000309944152832
41	194.1576850414276	movie	1		244	39.0	2.5	/experiments/AOT/AOT_stimuli/rescaled_final/0297_rv.mp4	0.0	215.09430813789368	2.4999449253082275
41	194.5408010482788	pulse	1	t		39.0	2.5	/experiments/AOT/AOT_stimuli/rescaled_final/0297_rv.mp4	0.0	215.47742414474487	
41	196.14115595817566	pulse	1	t		39.0	2.5	/experiments/AOT/AOT_stimuli/rescaled_final/0297_rv.mp4	0.0	217.07777905464172	
41	196.65762996673584	fix_post	2		12	39.0	2.5	/experiments/AOT/AOT_stimuli/rescaled_final/0297_rv.mp4	0.0	217.5942530632019	0.10020899772644043
42	196.75783896446228	fix_pre	0		119	40.0	2.5	/experiments/AOT/AOT_stimuli/rescaled_final/0907_rv.mp4	0.0	217.69446206092834	0.9916160106658936
42	197.74122405052185	pulse	0	t		40.0	2.5	/experiments/AOT/AOT_stimuli/rescaled_final/0907_rv.mp4	0.0	218.67784714698792	
42	197.74945497512817	movie	1		245	40.0	2.5	/experiments/AOT/AOT_stimuli/rescaled_final/0907_rv.mp4	0.0	218.68607807159424	2.508173942565918
42	199.34066009521484	pulse	1	t		40.0	2.5	/experiments/AOT/AOT_stimuli/rescaled_final/0907_rv.mp4	0.0	220.2772831916809	
42	200.2576289176941	fix_post	2		12	40.0	2.5	/experiments/AOT/AOT_stimuli/rescaled_final/0907_rv.mp4	0.0	221.19425201416016	0.09998607635498047
43	200.35761499404907	fix_pre	0		120	41.0	2.5	/experiments/AOT/AOT_stimuli/rescaled_final/1630_rv.mp4	0.0	221.29423809051514	1.0000970363616943
43	200.94127202033997	pulse	0	t		41.0	2.5	/experiments/AOT/AOT_stimuli/rescaled_final/1630_rv.mp4	0.0	221.87789511680603	
43	201.35771203041077	movie	1		243	41.0	2.5	/experiments/AOT/AOT_stimuli/rescaled_final/1630_rv.mp4	0.0	222.29433512687683	2.4996659755706787
43	202.54128289222717	pulse	1	t		41.0	2.5	/experiments/AOT/AOT_stimuli/rescaled_final/1630_rv.mp4	0.0	223.47790598869324	
43	203.85737800598145	fix_post	2		12	41.0	2.5	/experiments/AOT/AOT_stimuli/rescaled_final/1630_rv.mp4	0.0	224.7940011024475	0.0999290943145752
44	203.95730710029602	fix_pre	0		120	42.0	2.5	blank	1.0	224.89393019676208	1.0001089572906494
44	204.1408441066742	pulse	0	t		42.0	2.5	blank	1.0	225.07746720314026	
44	204.95741605758667	movie	1		300	42.0	2.5	blank	1.0	225.89403915405273	2.5002028942108154
44	205.74100399017334	pulse	1	t		42.0	2.5	blank	1.0	226.6776270866394	
44	207.34125208854675	pulse	1	t		42.0	2.5	blank	1.0	228.27787518501282	
44	207.45761895179749	fix_post	2		12	42.0	2.5	blank	1.0	228.39424204826355	0.09999513626098633
45	207.55761408805847	fix_pre	0		120	43.0	2.5	/experiments/AOT/AOT_stimuli/rescaled_final/0200_fw.mp4	0.0	228.49423718452454	1.0000429153442383
45	208.5576570034027	movie	1		246	43.0	2.5	/experiments/AOT/AOT_stimuli/rescaled_final/0200_fw.mp4	0.0	229.49428009986877	2.499993085861206
45	208.9407560825348	pulse	1	t		43.0	2.5	/experiments/AOT/AOT_stimuli/rescaled_final/0200_fw.mp4	0.0	229.87737917900085	
45	210.54110097885132	pulse	1	t		43.0	2.5	/experiments/AOT/AOT_stimuli/rescaled_final/0200_fw.mp4	0.0	231.47772407531738	
45	211.05765008926392	fix_post	2		12	43.0	2.5	/experiments/AOT/AOT_stimuli/rescaled_final/0200_fw.mp4	0.0	231.99427318572998	0.09993886947631836
46	211.15758895874023	fix_pre	0		119	44.0	2.5	/experiments/AOT/AOT_stimuli/rescaled_final/1620_rv.mp4	0.0	232.0942120552063	0.9916880130767822
46	212.14115190505981	pulse	0	t		44.0	2.5	/experiments/AOT/AOT_stimuli/rescaled_final/1620_rv.mp4	0.0	233.07777500152588	
46	212.14927697181702	movie	1		245	44.0	2.5	/experiments/AOT/AOT_stimuli/rescaled_final/1620_rv.mp4	0.0	233.08590006828308	2.5083179473876953
46	213.7408049106598	pulse	1	t		44.0	2.5	/experiments/AOT/AOT_stimuli/rescaled_final/1620_rv.mp4	0.0	234.67742800712585	
46	214.6575949192047	fix_post	2		12	44.0	2.5	/experiments/AOT/AOT_stimuli/rescaled_final/1620_rv.mp4	0.0	235.59421801567078	0.10007810592651367
47	214.75767302513123	fix_pre	0		120	45.0	2.5	/experiments/AOT/AOT_stimuli/rescaled_final/1547_rv.mp4	0.0	235.6942961215973	0.9999189376831055
47	215.34108591079712	pulse	0	t		45.0	2.5	/experiments/AOT/AOT_stimuli/rescaled_final/1547_rv.mp4	0.0	236.27770900726318	
47	215.75759196281433	movie	1		246	45.0	2.5	/experiments/AOT/AOT_stimuli/rescaled_final/1547_rv.mp4	0.0	236.6942150592804	2.500020980834961
47	216.94113492965698	pulse	1	t		45.0	2.5	/experiments/AOT/AOT_stimuli/rescaled_final/1547_rv.mp4	0.0	237.87775802612305	
47	218.2576129436493	fix_post	2		12	45.0	2.5	/experiments/AOT/AOT_stimuli/rescaled_final/1547_rv.mp4	0.0	239.19423604011536	0.0999751091003418
48	218.35758805274963	fix_pre	0		120	46.0	2.5	/experiments/AOT/AOT_stimuli/rescaled_final/1630_fw.mp4	0.0	239.2942111492157	0.999945878982544
48	218.54112887382507	pulse	0	t		46.0	2.5	/experiments/AOT/AOT_stimuli/rescaled_final/1630_fw.mp4	0.0	239.47775197029114	
48	219.35753393173218	movie	1		244	46.0	2.5	/experiments/AOT/AOT_stimuli/rescaled_final/1630_fw.mp4	0.0	240.29415702819824	2.500058174133301
48	220.1409831047058	pulse	1	t		46.0	2.5	/experiments/AOT/AOT_stimuli/rescaled_final/1630_fw.mp4	0.0	241.07760620117188	
48	221.7393879890442	pulse	1	t		46.0	2.5	/experiments/AOT/AOT_stimuli/rescaled_final/1630_fw.mp4	0.0	242.67601108551025	
48	221.85759210586548	fix_post	2		12	46.0	2.5	/experiments/AOT/AOT_stimuli/rescaled_final/1630_fw.mp4	0.0	242.79421520233154	0.09962081909179688
49	221.95721292495728	fix_pre	0		120	47.0	2.5	/experiments/AOT/AOT_stimuli/rescaled_final/0233_fw.mp4	0.0	242.89383602142334	0.999967098236084
49	222.95718002319336	movie	1		245	47.0	2.5	/experiments/AOT/AOT_stimuli/rescaled_final/0233_fw.mp4	0.0	243.89380311965942	2.4999139308929443
49	223.34075093269348	pulse	1	t		47.0	2.5	/experiments/AOT/AOT_stimuli/rescaled_final/0233_fw.mp4	0.0	244.27737402915955	
49	224.9410490989685	pulse	1	t		47.0	2.5	/experiments/AOT/AOT_stimuli/rescaled_final/0233_fw.mp4	0.0	245.87767219543457	
49	225.4570939540863	fix_post	2		12	47.0	2.5	/experiments/AOT/AOT_stimuli/rescaled_final/0233_fw.mp4	0.0	246.39371705055237	0.10043907165527344
50	225.55753302574158	fix_pre	0		119	48.0	2.5	/experiments/AOT/AOT_stimuli/rescaled_final/1915_rv.mp4	0.0	246.49415612220764	0.9916749000549316
50	226.54109001159668	pulse	0	t		48.0	2.5	/experiments/AOT/AOT_stimuli/rescaled_final/1915_rv.mp4	0.0	247.47771310806274	
50	226.5492079257965	movie	1		244	48.0	2.5	/experiments/AOT/AOT_stimuli/rescaled_final/1915_rv.mp4	0.0	247.48583102226257	2.5078821182250977
50	228.1412239074707	pulse	1	t		48.0	2.5	/experiments/AOT/AOT_stimuli/rescaled_final/1915_rv.mp4	0.0	249.07784700393677	
50	229.0570900440216	fix_post	2		12	48.0	2.5	/experiments/AOT/AOT_stimuli/rescaled_final/1915_rv.mp4	0.0	249.99371314048767	0.1004340648651123
51	229.15752410888672	fix_pre	0		120	49.0	2.5	blank	1.0	250.09414720535278	0.999741792678833
51	229.74097895622253	pulse	0	t		49.0	2.5	blank	1.0	250.6776020526886	
51	230.15726590156555	movie	1		300	49.0	2.5	blank	1.0	251.09388899803162	2.500312089920044
51	231.34109687805176	pulse	1	t		49.0	2.5	blank	1.0	252.27771997451782	
51	232.6575779914856	fix_post	2		12	49.0	2.5	blank	1.0	253.59420108795166	0.09990191459655762
52	232.75747990608215	fix_pre	0		120	50.0	2.5	/experiments/AOT/AOT_stimuli/rescaled_final/2005_rv.mp4	0.0	253.69410300254822	0.9996070861816406
52	232.94100308418274	pulse	0	t		50.0	2.5	/experiments/AOT/AOT_stimuli/rescaled_final/2005_rv.mp4	0.0	253.8776261806488	
52	233.7570869922638	movie	1		249	50.0	2.5	/experiments/AOT/AOT_stimuli/rescaled_final/2005_rv.mp4	0.0	254.69371008872986	2.499948024749756
52	234.54093098640442	pulse	1	t		50.0	2.5	/experiments/AOT/AOT_stimuli/rescaled_final/2005_rv.mp4	0.0	255.47755408287048	
52	236.14102387428284	pulse	1	t		50.0	2.5	/experiments/AOT/AOT_stimuli/rescaled_final/2005_rv.mp4	0.0	257.0776469707489	
52	236.25703501701355	fix_post	2		12	50.0	2.5	/experiments/AOT/AOT_stimuli/rescaled_final/2005_rv.mp4	0.0	257.1936581134796	0.10047507286071777
53	236.35751008987427	fix_pre	0		120	51.0	2.5	/experiments/AOT/AOT_stimuli/rescaled_final/0692_fw.mp4	0.0	257.29413318634033	0.9999339580535889
53	237.35744404792786	movie	1		245	51.0	2.5	/experiments/AOT/AOT_stimuli/rescaled_final/0692_fw.mp4	0.0	258.2940671443939	2.500035047531128
53	237.74217700958252	pulse	1	t		51.0	2.5	/experiments/AOT/AOT_stimuli/rescaled_final/0692_fw.mp4	0.0	258.6788001060486	
53	239.34090995788574	pulse	1	t		51.0	2.5	/experiments/AOT/AOT_stimuli/rescaled_final/0692_fw.mp4	0.0	260.2775330543518	
53	239.85747909545898	fix_post	2		12	51.0	2.5	/experiments/AOT/AOT_stimuli/rescaled_final/0692_fw.mp4	0.0	260.79410219192505	0.0996088981628418
54	239.95708799362183	fix_pre	0		119	52.0	2.5	/experiments/AOT/AOT_stimuli/rescaled_final/0254_fw.mp4	0.0	260.8937110900879	0.9920370578765869
54	240.94101905822754	pulse	0	t		52.0	2.5	/experiments/AOT/AOT_stimuli/rescaled_final/0254_fw.mp4	0.0	261.8776421546936	
54	240.9491250514984	movie	1		247	52.0	2.5	/experiments/AOT/AOT_stimuli/rescaled_final/0254_fw.mp4	0.0	261.8857481479645	2.5083789825439453
54	242.5402569770813	pulse	1	t		52.0	2.5	/experiments/AOT/AOT_stimuli/rescaled_final/0254_fw.mp4	0.0	263.47688007354736	
54	243.45750403404236	fix_post	2		12	52.0	2.5	/experiments/AOT/AOT_stimuli/rescaled_final/0254_fw.mp4	0.0	264.3941271305084	0.0999300479888916
55	243.55743408203125	fix_pre	0		120	53.0	2.5	/experiments/AOT/AOT_stimuli/rescaled_final/1589_fw.mp4	0.0	264.4940571784973	0.9995930194854736
55	244.14096593856812	pulse	0	t		53.0	2.5	/experiments/AOT/AOT_stimuli/rescaled_final/1589_fw.mp4	0.0	265.0775890350342	
55	244.55702710151672	movie	1		245	53.0	2.5	/experiments/AOT/AOT_stimuli/rescaled_final/1589_fw.mp4	0.0	265.4936501979828	2.500053882598877
55	245.7410430908203	pulse	1	t		53.0	2.5	/experiments/AOT/AOT_stimuli/rescaled_final/1589_fw.mp4	0.0	266.6776661872864	
55	247.0570809841156	fix_post	2		12	53.0	2.5	/experiments/AOT/AOT_stimuli/rescaled_final/1589_fw.mp4	0.0	267.99370408058167	0.10041499137878418
56	247.15749597549438	fix_pre	0		120	54.0	2.5	/experiments/AOT/AOT_stimuli/rescaled_final/2047_rv.mp4	0.0	268.09411907196045	0.9999361038208008
56	247.34099292755127	pulse	0	t		54.0	2.5	/experiments/AOT/AOT_stimuli/rescaled_final/2047_rv.mp4	0.0	268.27761602401733	
56	248.15743207931519	movie	1		244	54.0	2.5	/experiments/AOT/AOT_stimuli/rescaled_final/2047_rv.mp4	0.0	269.09405517578125	2.5000479221343994
56	248.94090509414673	pulse	1	t		54.0	2.5	/experiments/AOT/AOT_stimuli/rescaled_final/2047_rv.mp4	0.0	269.8775281906128	
56	250.54007005691528	pulse	1	t		54.0	2.5	/experiments/AOT/AOT_stimuli/rescaled_final/2047_rv.mp4	0.0	271.47669315338135	
56	250.65748000144958	fix_post	2		12	54.0	2.5	/experiments/AOT/AOT_stimuli/rescaled_final/2047_rv.mp4	0.0	271.59410309791565	0.09989190101623535
57	250.75737190246582	fix_pre	0		120	55.0	2.5	/experiments/AOT/AOT_stimuli/rescaled_final/1301_fw.mp4	0.0	271.6939949989319	1.0001230239868164
57	251.75749492645264	movie	1		245	55.0	2.5	/experiments/AOT/AOT_stimuli/rescaled_final/1301_fw.mp4	0.0	272.6941180229187	2.499912977218628
57	252.1421558856964	pulse	1	t		55.0	2.5	/experiments/AOT/AOT_stimuli/rescaled_final/1301_fw.mp4	0.0	273.0787789821625	
57	253.7409369945526	pulse	1	t		55.0	2.5	/experiments/AOT/AOT_stimuli/rescaled_final/1301_fw.mp4	0.0	274.6775600910187	
57	254.25740790367126	fix_post	2		12	55.0	2.5	/experiments/AOT/AOT_stimuli/rescaled_final/1301_fw.mp4	0.0	275.19403100013733	0.10006213188171387
58	254.35747003555298	fix_pre	0		119	56.0	2.5	blank	1.0	275.29409313201904	0.9917080402374268
58	255.34096598625183	pulse	0	t		56.0	2.5	blank	1.0	276.2775890827179	
58	255.3491780757904	movie	1		301	56.0	2.5	blank	1.0	276.28580117225647	2.5082848072052
58	256.9409649372101	pulse	1	t		56.0	2.5	blank	1.0	277.87758803367615	
58	257.8574628829956	fix_post	2		12	56.0	2.5	blank	1.0	278.79408597946167	0.10002613067626953
59	257.9574890136719	fix_pre	0		120	57.0	2.5	/experiments/AOT/AOT_stimuli/rescaled_final/1690_fw.mp4	0.0	278.89411211013794	1.000096082687378
59	258.5409789085388	pulse	0	t		57.0	2.5	/experiments/AOT/AOT_stimuli/rescaled_final/1690_fw.mp4	0.0	279.4776020050049	
59	258.95758509635925	movie	1		245	57.0	2.5	/experiments/AOT/AOT_stimuli/rescaled_final/1690_fw.mp4	0.0	279.8942081928253	2.4995839595794678
59	260.14057993888855	pulse	1	t		57.0	2.5	/experiments/AOT/AOT_stimuli/rescaled_final/1690_fw.mp4	0.0	281.0772030353546	
59	261.4571690559387	fix_post	2		12	57.0	2.5	/experiments/AOT/AOT_stimuli/rescaled_final/1690_fw.mp4	0.0	282.3937921524048	0.10014104843139648
60	261.5573101043701	fix_pre	0		120	58.0	2.5	/experiments/AOT/AOT_stimuli/rescaled_final/0175_fw.mp4	0.0	282.4939332008362	1.0000429153442383
60	261.740797996521	pulse	0	t		58.0	2.5	/experiments/AOT/AOT_stimuli/rescaled_final/0175_fw.mp4	0.0	282.67742109298706	
60	262.55735301971436	movie	1		246	58.0	2.5	/experiments/AOT/AOT_stimuli/rescaled_final/0175_fw.mp4	0.0	283.4939761161804	2.500025987625122
60	263.34086990356445	pulse	1	t		58.0	2.5	/experiments/AOT/AOT_stimuli/rescaled_final/0175_fw.mp4	0.0	284.2774930000305	
60	264.93943905830383	pulse	1	t		58.0	2.5	/experiments/AOT/AOT_stimuli/rescaled_final/0175_fw.mp4	0.0	285.8760621547699	
60	265.0573790073395	fix_post	2		12	58.0	2.5	/experiments/AOT/AOT_stimuli/rescaled_final/0175_fw.mp4	0.0	285.99400210380554	0.09994006156921387
61	265.1573190689087	fix_pre	0		120	59.0	2.5	/experiments/AOT/AOT_stimuli/rescaled_final/1495_rv.mp4	0.0	286.09394216537476	1.0001499652862549
61	266.15746903419495	movie	1		246	59.0	2.5	/experiments/AOT/AOT_stimuli/rescaled_final/1495_rv.mp4	0.0	287.094092130661	2.499508857727051
61	266.54118299484253	pulse	1	t		59.0	2.5	/experiments/AOT/AOT_stimuli/rescaled_final/1495_rv.mp4	0.0	287.4778060913086	
61	268.14074087142944	pulse	1	t		59.0	2.5	/experiments/AOT/AOT_stimuli/rescaled_final/1495_rv.mp4	0.0	289.0773639678955	
61	268.656977891922	fix_post	2		12	59.0	2.5	/experiments/AOT/AOT_stimuli/rescaled_final/1495_rv.mp4	0.0	289.59360098838806	0.09992718696594238
62	268.75690507888794	fix_pre	0		119	60.0	2.5	/experiments/AOT/AOT_stimuli/rescaled_final/1602_fw.mp4	0.0	289.693528175354	0.9921448230743408
62	269.7408130168915	pulse	0	t		60.0	2.5	/experiments/AOT/AOT_stimuli/rescaled_final/1602_fw.mp4	0.0	290.67743611335754	
62	269.7490499019623	movie	1		246	60.0	2.5	/experiments/AOT/AOT_stimuli/rescaled_final/1602_fw.mp4	0.0	290.68567299842834	2.5082221031188965
62	271.340518951416	pulse	1	t		60.0	2.5	/experiments/AOT/AOT_stimuli/rescaled_final/1602_fw.mp4	0.0	292.2771420478821	
62	272.2572720050812	fix_post	2		12	60.0	2.5	/experiments/AOT/AOT_stimuli/rescaled_final/1602_fw.mp4	0.0	293.19389510154724	0.10002899169921875
63	272.3573009967804	fix_pre	0		120	61.0	2.5	blank	1.0	293.29392409324646	0.9999909400939941
63	272.94076704978943	pulse	0	t		61.0	2.5	blank	1.0	293.8773901462555	
63	273.3572919368744	movie	1		300	61.0	2.5	blank	1.0	294.29391503334045	2.4999711513519287
63	274.5407860279083	pulse	1	t		61.0	2.5	blank	1.0	295.4774091243744	
63	275.8572630882263	fix_post	2		12	61.0	2.5	blank	1.0	296.7938861846924	0.09957289695739746
64	275.9568359851837	fix_pre	0		120	62.0	2.5	/experiments/AOT/AOT_stimuli/rescaled_final/1483_rv.mp4	0.0	296.8934590816498	1.000485897064209
64	276.1408500671387	pulse	0	t		62.0	2.5	/experiments/AOT/AOT_stimuli/rescaled_final/1483_rv.mp4	0.0	297.07747316360474	
64	276.9573218822479	movie	1		243	62.0	2.5	/experiments/AOT/AOT_stimuli/rescaled_final/1483_rv.mp4	0.0	297.893944978714	2.499929189682007
64	277.7408380508423	pulse	1	t		62.0	2.5	/experiments/AOT/AOT_stimuli/rescaled_final/1483_rv.mp4	0.0	298.67746114730835	
64	279.33914494514465	pulse	1	t		62.0	2.5	/experiments/AOT/AOT_stimuli/rescaled_final/1483_rv.mp4	0.0	300.2757680416107	
64	279.45725107192993	fix_post	2		12	62.0	2.5	/experiments/AOT/AOT_stimuli/rescaled_final/1483_rv.mp4	0.0	300.393874168396	0.10004901885986328
65	279.5573000907898	fix_pre	0		120	63.0	2.5	/experiments/AOT/AOT_stimuli/rescaled_final/1445_fw.mp4	0.0	300.49392318725586	1.0000147819519043
65	280.5573148727417	movie	1		243	63.0	2.5	/experiments/AOT/AOT_stimuli/rescaled_final/1445_fw.mp4	0.0	301.49393796920776	2.4999611377716064
65	280.94044494628906	pulse	1	t		63.0	2.5	/experiments/AOT/AOT_stimuli/rescaled_final/1445_fw.mp4	0.0	301.8770680427551	
65	282.54076194763184	pulse	1	t		63.0	2.5	/experiments/AOT/AOT_stimuli/rescaled_final/1445_fw.mp4	0.0	303.4773850440979	
65	283.0572760105133	fix_post	2		12	63.0	2.5	/experiments/AOT/AOT_stimuli/rescaled_final/1445_fw.mp4	0.0	303.99389910697937	0.1000208854675293
66	283.15729689598083	fix_pre	0		119	64.0	2.5	/experiments/AOT/AOT_stimuli/rescaled_final/2012_fw.mp4	0.0	304.0939199924469	0.9916720390319824
66	284.1407730579376	pulse	0	t		64.0	2.5	/experiments/AOT/AOT_stimuli/rescaled_final/2012_fw.mp4	0.0	305.0773961544037	
66	284.1489689350128	movie	1		246	64.0	2.5	/experiments/AOT/AOT_stimuli/rescaled_final/2012_fw.mp4	0.0	305.0855920314789	2.507884979248047
66	285.7406339645386	pulse	1	t		64.0	2.5	/experiments/AOT/AOT_stimuli/rescaled_final/2012_fw.mp4	0.0	306.67725706100464	
66	286.65685391426086	fix_post	2		12	64.0	2.5	/experiments/AOT/AOT_stimuli/rescaled_final/2012_fw.mp4	0.0	307.59347701072693	0.10001897811889648
67	286.75687289237976	fix_pre	0		120	65.0	2.5	/experiments/AOT/AOT_stimuli/rescaled_final/1814_rv.mp4	0.0	307.6934959888458	0.9999780654907227
67	287.34084701538086	pulse	0	t		65.0	2.5	/experiments/AOT/AOT_stimuli/rescaled_final/1814_rv.mp4	0.0	308.2774701118469	
67	287.7568509578705	movie	1		245	65.0	2.5	/experiments/AOT/AOT_stimuli/rescaled_final/1814_rv.mp4	0.0	308.69347405433655	2.500011920928955
67	288.94078397750854	pulse	1	t		65.0	2.5	/experiments/AOT/AOT_stimuli/rescaled_final/1814_rv.mp4	0.0	309.8774070739746	
67	290.25686287879944	fix_post	2		12	65.0	2.5	/experiments/AOT/AOT_stimuli/rescaled_final/1814_rv.mp4	0.0	311.1934859752655	0.10037922859191895
68	290.35724210739136	fix_pre	0		120	66.0	2.5	/experiments/AOT/AOT_stimuli/rescaled_final/0370_rv.mp4	0.0	311.2938652038574	1.000013828277588
68	290.54073691368103	pulse	0	t		66.0	2.5	/experiments/AOT/AOT_stimuli/rescaled_final/0370_rv.mp4	0.0	311.4773600101471	
68	291.35725593566895	movie	1		244	66.0	2.5	/experiments/AOT/AOT_stimuli/rescaled_final/0370_rv.mp4	0.0	312.293879032135	2.500005006790161
68	292.1407539844513	pulse	1	t		66.0	2.5	/experiments/AOT/AOT_stimuli/rescaled_final/0370_rv.mp4	0.0	313.07737708091736	
68	293.7395119667053	pulse	1	t		66.0	2.5	/experiments/AOT/AOT_stimuli/rescaled_final/0370_rv.mp4	0.0	314.6761350631714	
68	293.8572609424591	fix_post	2		12	66.0	2.5	/experiments/AOT/AOT_stimuli/rescaled_final/0370_rv.mp4	0.0	314.79388403892517	0.10000014305114746
69	293.95726108551025	fix_pre	0		120	67.0	2.5	/experiments/AOT/AOT_stimuli/rescaled_final/2047_rv.mp4	0.0	314.8938841819763	1.0000348091125488
69	294.9572958946228	movie	1		244	67.0	2.5	/experiments/AOT/AOT_stimuli/rescaled_final/2047_rv.mp4	0.0	315.89391899108887	2.4998910427093506
69	295.3408000469208	pulse	1	t		67.0	2.5	/experiments/AOT/AOT_stimuli/rescaled_final/2047_rv.mp4	0.0	316.27742314338684	
69	296.9406180381775	pulse	1	t		67.0	2.5	/experiments/AOT/AOT_stimuli/rescaled_final/2047_rv.mp4	0.0	317.87724113464355	
69	297.45718693733215	fix_post	2		12	67.0	2.5	/experiments/AOT/AOT_stimuli/rescaled_final/2047_rv.mp4	0.0	318.3938100337982	0.10007309913635254
70	297.5572600364685	fix_pre	0		119	68.0	2.5	/experiments/AOT/AOT_stimuli/rescaled_final/1101_rv.mp4	0.0	318.49388313293457	0.9915590286254883
70	298.5407280921936	pulse	0	t		68.0	2.5	/experiments/AOT/AOT_stimuli/rescaled_final/1101_rv.mp4	0.0	319.47735118865967	
70	298.548819065094	movie	1		244	68.0	2.5	/experiments/AOT/AOT_stimuli/rescaled_final/1101_rv.mp4	0.0	319.48544216156006	2.5083179473876953
70	300.14024901390076	pulse	1	t		68.0	2.5	/experiments/AOT/AOT_stimuli/rescaled_final/1101_rv.mp4	0.0	321.0768721103668	
70	301.0571370124817	fix_post	2		12	68.0	2.5	/experiments/AOT/AOT_stimuli/rescaled_final/1101_rv.mp4	0.0	321.99376010894775	0.09997296333312988
71	301.1571099758148	fix_pre	0		120	69.0	2.5	blank	1.0	322.0937330722809	1.0000629425048828
71	301.74067306518555	pulse	0	t		69.0	2.5	blank	1.0	322.6772961616516	
71	302.1571729183197	movie	1		300	69.0	2.5	blank	1.0	323.09379601478577	2.4999630451202393
71	303.3406550884247	pulse	1	t		69.0	2.5	blank	1.0	324.27727818489075	
71	304.65713596343994	fix_post	2		12	69.0	2.5	blank	1.0	325.593759059906	0.10001492500305176
72	304.757150888443	fix_pre	0		120	70.0	2.5	/experiments/AOT/AOT_stimuli/rescaled_final/1685_fw.mp4	0.0	325.69377398490906	1.0000050067901611
72	304.9407289028168	pulse	0	t		70.0	2.5	/experiments/AOT/AOT_stimuli/rescaled_final/1685_fw.mp4	0.0	325.87735199928284	
72	305.75715589523315	movie	1		243	70.0	2.5	/experiments/AOT/AOT_stimuli/rescaled_final/1685_fw.mp4	0.0	326.6937789916992	2.499610185623169
72	306.54062390327454	pulse	1	t		70.0	2.5	/experiments/AOT/AOT_stimuli/rescaled_final/1685_fw.mp4	0.0	327.4772469997406	
72	308.139456987381	pulse	1	t		70.0	2.5	/experiments/AOT/AOT_stimuli/rescaled_final/1685_fw.mp4	0.0	329.07608008384705	
72	308.2567660808563	fix_post	2		12	70.0	2.5	/experiments/AOT/AOT_stimuli/rescaled_final/1685_fw.mp4	0.0	329.1933891773224	0.10036396980285645
73	308.3571300506592	fix_pre	0		120	71.0	2.5	/experiments/AOT/AOT_stimuli/rescaled_final/1295_rv.mp4	0.0	329.29375314712524	0.9996278285980225
73	309.3567578792572	movie	1		244	71.0	2.5	/experiments/AOT/AOT_stimuli/rescaled_final/1295_rv.mp4	0.0	330.29338097572327	2.500378131866455
73	309.74067306518555	pulse	1	t		71.0	2.5	/experiments/AOT/AOT_stimuli/rescaled_final/1295_rv.mp4	0.0	330.6772961616516	
73	311.340744972229	pulse	1	t		71.0	2.5	/experiments/AOT/AOT_stimuli/rescaled_final/1295_rv.mp4	0.0	332.27736806869507	
73	311.85713601112366	fix_post	2		12	71.0	2.5	/experiments/AOT/AOT_stimuli/rescaled_final/1295_rv.mp4	0.0	332.7937591075897	0.09998607635498047
74	311.95712208747864	fix_pre	0		119	72.0	2.5	/experiments/AOT/AOT_stimuli/rescaled_final/0731_rv.mp4	0.0	332.8937451839447	0.9916598796844482
74	312.94070506095886	pulse	0	t		72.0	2.5	/experiments/AOT/AOT_stimuli/rescaled_final/0731_rv.mp4	0.0	333.8773281574249	
74	312.9487819671631	movie	1		247	72.0	2.5	/experiments/AOT/AOT_stimuli/rescaled_final/0731_rv.mp4	0.0	333.88540506362915	2.507956027984619
74	314.53968691825867	pulse	1	t		72.0	2.5	/experiments/AOT/AOT_stimuli/rescaled_final/0731_rv.mp4	0.0	335.47631001472473	
74	315.4567379951477	fix_post	2		12	72.0	2.5	/experiments/AOT/AOT_stimuli/rescaled_final/0731_rv.mp4	0.0	336.39336109161377	0.09999608993530273
75	315.556734085083	fix_pre	0		120	73.0	2.5	/experiments/AOT/AOT_stimuli/rescaled_final/1207_rv.mp4	0.0	336.4933571815491	1.0001699924468994
75	316.1403579711914	pulse	0	t		73.0	2.5	/experiments/AOT/AOT_stimuli/rescaled_final/1207_rv.mp4	0.0	337.07698106765747	
75	316.5569040775299	movie	1		244	73.0	2.5	/experiments/AOT/AOT_stimuli/rescaled_final/1207_rv.mp4	0.0	337.493527173996	2.5002448558807373
75	317.7406358718872	pulse	1	t		73.0	2.5	/experiments/AOT/AOT_stimuli/rescaled_final/1207_rv.mp4	0.0	338.67725896835327	
75	319.05714893341064	fix_post	2		12	73.0	2.5	/experiments/AOT/AOT_stimuli/rescaled_final/1207_rv.mp4	0.0	339.9937720298767	0.09997296333312988
76	319.1571218967438	fix_pre	0		120	74.0	2.5	/experiments/AOT/AOT_stimuli/rescaled_final/0136_rv.mp4	0.0	340.09374499320984	0.9999620914459229
76	319.3406240940094	pulse	0	t		74.0	2.5	/experiments/AOT/AOT_stimuli/rescaled_final/0136_rv.mp4	0.0	340.27724719047546	
76	320.1570839881897	movie	1		243	74.0	2.5	/experiments/AOT/AOT_stimuli/rescaled_final/0136_rv.mp4	0.0	341.09370708465576	2.499556064605713
76	320.9406249523163	pulse	1	t		74.0	2.5	/experiments/AOT/AOT_stimuli/rescaled_final/0136_rv.mp4	0.0	341.87724804878235	
76	322.5391230583191	pulse	1	t		74.0	2.5	/experiments/AOT/AOT_stimuli/rescaled_final/0136_rv.mp4	0.0	343.47574615478516	
76	322.6566400527954	fix_post	2		12	74.0	2.5	/experiments/AOT/AOT_stimuli/rescaled_final/0136_rv.mp4	0.0	343.5932631492615	0.10037398338317871
77	322.7570140361786	fix_pre	0		120	75.0	2.5	/experiments/AOT/AOT_stimuli/rescaled_final/1501_fw.mp4	0.0	343.69363713264465	1.0000269412994385
77	323.757040977478	movie	1		245	75.0	2.5	/experiments/AOT/AOT_stimuli/rescaled_final/1501_fw.mp4	0.0	344.6936640739441	2.500001907348633
77	324.1406168937683	pulse	1	t		75.0	2.5	/experiments/AOT/AOT_stimuli/rescaled_final/1501_fw.mp4	0.0	345.0772399902344	
77	325.74051094055176	pulse	1	t		75.0	2.5	/experiments/AOT/AOT_stimuli/rescaled_final/1501_fw.mp4	0.0	346.6771340370178	
77	326.25704288482666	fix_post	2		12	75.0	2.5	/experiments/AOT/AOT_stimuli/rescaled_final/1501_fw.mp4	0.0	347.1936659812927	0.10008406639099121
78	326.35712695121765	fix_pre	0		119	76.0	2.5	/experiments/AOT/AOT_stimuli/rescaled_final/0246_fw.mp4	0.0	347.2937500476837	0.9915199279785156
78	327.340539932251	pulse	0	t		76.0	2.5	/experiments/AOT/AOT_stimuli/rescaled_final/0246_fw.mp4	0.0	348.27716302871704	
78	327.34864687919617	movie	1		244	76.0	2.5	/experiments/AOT/AOT_stimuli/rescaled_final/0246_fw.mp4	0.0	348.28526997566223	2.507972002029419
78	328.94014501571655	pulse	1	t		76.0	2.5	/experiments/AOT/AOT_stimuli/rescaled_final/0246_fw.mp4	0.0	349.8767681121826	
78	329.8566188812256	fix_post	2		12	76.0	2.5	/experiments/AOT/AOT_stimuli/rescaled_final/0246_fw.mp4	0.0	350.79324197769165	0.1003880500793457
79	329.95700693130493	fix_pre	0		120	77.0	2.5	blank	1.0	350.893630027771	0.9999940395355225
79	330.54056906700134	pulse	0	t		77.0	2.5	blank	1.0	351.4771921634674	
79	330.95700097084045	movie	1		300	77.0	2.5	blank	1.0	351.8936240673065	2.5000720024108887
79	332.1405420303345	pulse	1	t		77.0	2.5	blank	1.0	353.07716512680054	
79	333.45707297325134	fix_post	2		12	77.0	2.5	blank	1.0	354.3936960697174	0.09992408752441406
80	333.55699706077576	fix_pre	0		120	78.0	2.5	/experiments/AOT/AOT_stimuli/rescaled_final/1200_fw.mp4	0.0	354.4936201572418	0.9996159076690674
80	333.7405049800873	pulse	0	t		78.0	2.5	/experiments/AOT/AOT_stimuli/rescaled_final/1200_fw.mp4	0.0	354.67712807655334	
80	334.5566129684448	movie	1		243	78.0	2.5	/experiments/AOT/AOT_stimuli/rescaled_final/1200_fw.mp4	0.0	355.4932360649109	2.500030994415283
80	335.3405249118805	pulse	1	t		78.0	2.5	/experiments/AOT/AOT_stimuli/rescaled_final/1200_fw.mp4	0.0	356.27714800834656	
80	336.93885493278503	pulse	1	t		78.0	2.5	/experiments/AOT/AOT_stimuli/rescaled_final/1200_fw.mp4	0.0	357.8754780292511	
80	337.0566439628601	fix_post	2		12	78.0	2.5	/experiments/AOT/AOT_stimuli/rescaled_final/1200_fw.mp4	0.0	357.9932670593262	0.10005402565002441
81	337.15669798851013	fix_pre	0		120	79.0	2.5	/experiments/AOT/AOT_stimuli/rescaled_final/1758_fw.mp4	0.0	358.0933210849762	1.0002410411834717
81	338.1569390296936	movie	1		244	79.0	2.5	/experiments/AOT/AOT_stimuli/rescaled_final/1758_fw.mp4	0.0	359.09356212615967	2.4997010231018066
81	338.5403289794922	pulse	1	t		79.0	2.5	/experiments/AOT/AOT_stimuli/rescaled_final/1758_fw.mp4	0.0	359.47695207595825	
81	340.14052987098694	pulse	1	t		79.0	2.5	/experiments/AOT/AOT_stimuli/rescaled_final/1758_fw.mp4	0.0	361.077152967453	
81	340.6566400527954	fix_post	2		12	79.0	2.5	/experiments/AOT/AOT_stimuli/rescaled_final/1758_fw.mp4	0.0	361.5932631492615	0.10036301612854004
82	340.75700306892395	fix_pre	0		119	80.0	2.5	/experiments/AOT/AOT_stimuli/rescaled_final/2175_rv.mp4	0.0	361.69362616539	0.9917159080505371
82	341.74051094055176	pulse	0	t		80.0	2.5	/experiments/AOT/AOT_stimuli/rescaled_final/2175_rv.mp4	0.0	362.6771340370178	
82	341.7487189769745	movie	1		246	80.0	2.5	/experiments/AOT/AOT_stimuli/rescaled_final/2175_rv.mp4	0.0	362.68534207344055	2.5078790187835693
82	343.34167098999023	pulse	1	t		80.0	2.5	/experiments/AOT/AOT_stimuli/rescaled_final/2175_rv.mp4	0.0	364.2782940864563	
82	344.25659799575806	fix_post	2		12	80.0	2.5	/experiments/AOT/AOT_stimuli/rescaled_final/2175_rv.mp4	0.0	365.1932210922241	0.10032987594604492
83	344.3569278717041	fix_pre	0		120	81.0	2.5	/experiments/AOT/AOT_stimuli/rescaled_final/2150_fw.mp4	0.0	365.29355096817017	1.000063180923462
83	344.94051790237427	pulse	0	t		81.0	2.5	/experiments/AOT/AOT_stimuli/rescaled_final/2150_fw.mp4	0.0	365.87714099884033	
83	345.35699105262756	movie	1		243	81.0	2.5	/experiments/AOT/AOT_stimuli/rescaled_final/2150_fw.mp4	0.0	366.2936141490936	2.4998979568481445
83	346.5405728816986	pulse	1	t		81.0	2.5	/experiments/AOT/AOT_stimuli/rescaled_final/2150_fw.mp4	0.0	367.4771959781647	
83	347.8568890094757	fix_post	2		12	81.0	2.5	/experiments/AOT/AOT_stimuli/rescaled_final/2150_fw.mp4	0.0	368.7935121059418	0.10001993179321289
84	347.9569089412689	fix_pre	0		120	82.0	2.5	/experiments/AOT/AOT_stimuli/rescaled_final/0503_fw.mp4	0.0	368.893532037735	0.9995980262756348
84	348.1404809951782	pulse	0	t		82.0	2.5	/experiments/AOT/AOT_stimuli/rescaled_final/0503_fw.mp4	0.0	369.0771040916443	
84	348.95650696754456	movie	1		244	82.0	2.5	/experiments/AOT/AOT_stimuli/rescaled_final/0503_fw.mp4	0.0	369.8931300640106	2.5004119873046875
84	349.74041390419006	pulse	1	t		82.0	2.5	/experiments/AOT/AOT_stimuli/rescaled_final/0503_fw.mp4	0.0	370.6770370006561	
84	351.3366560935974	pulse	1	t		82.0	2.5	/experiments/AOT/AOT_stimuli/rescaled_final/0503_fw.mp4	0.0	372.2732791900635	
84	351.45691895484924	fix_post	2		12	82.0	2.5	/experiments/AOT/AOT_stimuli/rescaled_final/0503_fw.mp4	0.0	372.3935420513153	0.10002613067626953
85	351.5569450855255	fix_pre	0		120	83.0	2.5	blank	1.0	372.4935681819916	0.9999749660491943
85	352.5569200515747	movie	1		300	83.0	2.5	blank	1.0	373.49354314804077	2.5000438690185547
85	352.9403998851776	pulse	1	t		83.0	2.5	blank	1.0	373.8770229816437	
85	354.54033493995667	pulse	1	t		83.0	2.5	blank	1.0	375.47695803642273	
85	355.05696392059326	fix_post	2		12	83.0	2.5	blank	1.0	375.9935870170593	0.09995603561401367
87	355.1569199562073	stim	0		1716					376.09354305267334	14.300132989883423
87	356.14037704467773	pulse	0	t						377.0770001411438	
87	357.74037504196167	pulse	0	t						378.67699813842773	
87	359.34039306640625	pulse	0	t						380.2770161628723	
87	360.9404470920563	pulse	0	t						381.87707018852234	
87	362.5402889251709	pulse	0	t						383.47691202163696	
87	364.1403799057007	pulse	0	t						385.07700300216675	
87	365.740336894989	pulse	0	t						386.6769599914551	
87	367.3402650356293	pulse	0	t						388.27688813209534	
87	368.9403998851776	pulse	0	t						389.8770229816437	
