trial_nr	onset	event_type	phase	response	nr_frames	movie_index	movie_duration	movie_file	blank	onset_abs	duration
0	0.16652178764343262	stim	0		130					114.12634658813477	1.0836548805236816
0	1.241856336593628	response	0	space						115.20168113708496	
1	1.2501766681671143	stim	0		4960					115.21000146865845	41.350966691970825
1	42.59139084815979	pulse	0	t						156.55121564865112	
1	42.60114336013794	stim	1		1716					156.56096816062927	14.30721664428711
1	44.18174934387207	pulse	1	t						158.1415741443634	
1	45.781901597976685	pulse	1	t						159.74172639846802	
1	47.38217067718506	pulse	1	t						161.3419954776764	
1	48.98232173919678	pulse	1	t						162.9421465396881	
1	50.58265209197998	pulse	1	t						164.5424768924713	
1	52.18300986289978	pulse	1	t						166.1428346633911	
1	53.78324913978577	pulse	1	t						167.7430739402771	
1	55.383357524871826	pulse	1	t						169.34318232536316	
2	56.90836000442505	fix_pre	0		10	0.0	2.5	/experiments/Knapen_AOT/AOT_stimuli/rescaled_final/0846_fw.mp4	0.0	170.86818480491638	0.10005760192871094
2	56.98358511924744	pulse	0	t		0.0	2.5	/experiments/Knapen_AOT/AOT_stimuli/rescaled_final/0846_fw.mp4	0.0	170.94340991973877	
2	57.00841760635376	movie	1		281	0.0	2.5	/experiments/Knapen_AOT/AOT_stimuli/rescaled_final/0846_fw.mp4	0.0	170.9682424068451	2.4919638633728027
2	58.58245038986206	pulse	1	t		0.0	2.5	/experiments/Knapen_AOT/AOT_stimuli/rescaled_final/0846_fw.mp4	0.0	172.5422751903534	
2	59.50038146972656	fix_post	2		12	0.0	2.5	/experiments/Knapen_AOT/AOT_stimuli/rescaled_final/0846_fw.mp4	0.0	173.4602062702179	0.10001158714294434
3	59.60039305686951	fix_pre	0		120	1.0	2.5	/experiments/Knapen_AOT/AOT_stimuli/rescaled_final/1909_fw.mp4	0.0	173.56021785736084	1.0084812641143799
3	60.18402600288391	pulse	0	t		1.0	2.5	/experiments/Knapen_AOT/AOT_stimuli/rescaled_final/1909_fw.mp4	0.0	174.14385080337524	
3	60.60887432098389	movie	1		274	1.0	2.5	/experiments/Knapen_AOT/AOT_stimuli/rescaled_final/1909_fw.mp4	0.0	174.56869912147522	2.4920763969421387
3	61.7821409702301	pulse	1	t		1.0	2.5	/experiments/Knapen_AOT/AOT_stimuli/rescaled_final/1909_fw.mp4	0.0	175.74196577072144	
3	63.100950717926025	fix_post	2		12	1.0	2.5	/experiments/Knapen_AOT/AOT_stimuli/rescaled_final/1909_fw.mp4	0.0	177.06077551841736	0.10003948211669922
4	63.200990200042725	fix_pre	0		120	2.0	2.5	/experiments/Knapen_AOT/AOT_stimuli/rescaled_final/0877_fw.mp4	0.0	177.16081500053406	1.0084846019744873
4	63.38448476791382	pulse	0	t		2.0	2.5	/experiments/Knapen_AOT/AOT_stimuli/rescaled_final/0877_fw.mp4	0.0	177.34430956840515	
4	64.20947480201721	movie	1		273	2.0	2.5	/experiments/Knapen_AOT/AOT_stimuli/rescaled_final/0877_fw.mp4	0.0	178.16929960250854	2.49196457862854
4	64.98247337341309	pulse	1	t		2.0	2.5	/experiments/Knapen_AOT/AOT_stimuli/rescaled_final/0877_fw.mp4	0.0	178.94229817390442	
4	66.58315134048462	pulse	1	t		2.0	2.5	/experiments/Knapen_AOT/AOT_stimuli/rescaled_final/0877_fw.mp4	0.0	180.54297614097595	
4	66.70143938064575	fix_post	2		12	2.0	2.5	/experiments/Knapen_AOT/AOT_stimuli/rescaled_final/0877_fw.mp4	0.0	180.66126418113708	0.10004115104675293
5	66.8014805316925	fix_pre	0		120	3.0	2.5	/experiments/Knapen_AOT/AOT_stimuli/rescaled_final/0591_rv.mp4	0.0	180.76130533218384	1.008509635925293
5	67.8099901676178	movie	1		284	3.0	2.5	/experiments/Knapen_AOT/AOT_stimuli/rescaled_final/0591_rv.mp4	0.0	181.76981496810913	2.492001533508301
5	68.18527793884277	pulse	1	t		3.0	2.5	/experiments/Knapen_AOT/AOT_stimuli/rescaled_final/0591_rv.mp4	0.0	182.1451027393341	
5	69.78378510475159	pulse	1	t		3.0	2.5	/experiments/Knapen_AOT/AOT_stimuli/rescaled_final/0591_rv.mp4	0.0	183.74360990524292	
5	70.3019917011261	fix_post	2		12	3.0	2.5	/experiments/Knapen_AOT/AOT_stimuli/rescaled_final/0591_rv.mp4	0.0	184.26181650161743	0.10002493858337402
6	70.40201663970947	fix_pre	0		119	4.0	2.5	/experiments/Knapen_AOT/AOT_stimuli/rescaled_final/0942_fw.mp4	0.0	184.3618414402008	1.0002875328063965
6	71.38567686080933	pulse	0	t		4.0	2.5	/experiments/Knapen_AOT/AOT_stimuli/rescaled_final/0942_fw.mp4	0.0	185.34550166130066	
6	71.40230417251587	movie	1		295	4.0	2.5	/experiments/Knapen_AOT/AOT_stimuli/rescaled_final/0942_fw.mp4	0.0	185.3621289730072	2.5002450942993164
6	72.98459243774414	pulse	1	t		4.0	2.5	/experiments/Knapen_AOT/AOT_stimuli/rescaled_final/0942_fw.mp4	0.0	186.94441723823547	
6	73.90254926681519	fix_post	2		12	4.0	2.5	/experiments/Knapen_AOT/AOT_stimuli/rescaled_final/0942_fw.mp4	0.0	187.86237406730652	0.10000801086425781
7	74.00255727767944	fix_pre	0		120	5.0	2.5	blank	1.0	187.96238207817078	1.0003137588500977
7	74.58618974685669	pulse	0	t		5.0	2.5	blank	1.0	188.54601454734802	
7	75.00287103652954	movie	1		300	5.0	2.5	blank	1.0	188.96269583702087	2.5002214908599854
7	76.18640780448914	pulse	1	t		5.0	2.5	blank	1.0	190.14623260498047	
7	77.50309252738953	fix_post	2		12	5.0	2.5	blank	1.0	191.46291732788086	0.10002565383911133
8	77.60311818122864	fix_pre	0		120	6.0	2.5	/experiments/Knapen_AOT/AOT_stimuli/rescaled_final/2057_fw.mp4	0.0	191.56294298171997	1.0084688663482666
8	77.78671836853027	pulse	0	t		6.0	2.5	/experiments/Knapen_AOT/AOT_stimuli/rescaled_final/2057_fw.mp4	0.0	191.7465431690216	
8	78.6115870475769	movie	1		279	6.0	2.5	/experiments/Knapen_AOT/AOT_stimuli/rescaled_final/2057_fw.mp4	0.0	192.57141184806824	2.4920334815979004
8	79.38462400436401	pulse	1	t		6.0	2.5	/experiments/Knapen_AOT/AOT_stimuli/rescaled_final/2057_fw.mp4	0.0	193.34444880485535	
8	80.98493909835815	pulse	1	t		6.0	2.5	/experiments/Knapen_AOT/AOT_stimuli/rescaled_final/2057_fw.mp4	0.0	194.9447638988495	
8	81.1036205291748	fix_post	2		12	6.0	2.5	/experiments/Knapen_AOT/AOT_stimuli/rescaled_final/2057_fw.mp4	0.0	195.06344532966614	0.10001230239868164
9	81.20363283157349	fix_pre	0		120	7.0	2.5	/experiments/Knapen_AOT/AOT_stimuli/rescaled_final/1532_fw.mp4	0.0	195.16345763206482	1.0086286067962646
9	82.21226143836975	movie	1		288	7.0	2.5	/experiments/Knapen_AOT/AOT_stimuli/rescaled_final/1532_fw.mp4	0.0	196.17208623886108	2.491924524307251
9	82.58560109138489	pulse	1	t		7.0	2.5	/experiments/Knapen_AOT/AOT_stimuli/rescaled_final/1532_fw.mp4	0.0	196.54542589187622	
9	84.18536257743835	pulse	1	t		7.0	2.5	/experiments/Knapen_AOT/AOT_stimuli/rescaled_final/1532_fw.mp4	0.0	198.1451873779297	
9	84.704185962677	fix_post	2		12	7.0	2.5	/experiments/Knapen_AOT/AOT_stimuli/rescaled_final/1532_fw.mp4	0.0	198.66401076316833	0.100006103515625
10	84.80419206619263	fix_pre	0		119	8.0	2.5	/experiments/Knapen_AOT/AOT_stimuli/rescaled_final/1338_fw.mp4	0.0	198.76401686668396	1.0001740455627441
10	85.78800940513611	pulse	0	t		8.0	2.5	/experiments/Knapen_AOT/AOT_stimuli/rescaled_final/1338_fw.mp4	0.0	199.74783420562744	
10	85.80436611175537	movie	1		281	8.0	2.5	/experiments/Knapen_AOT/AOT_stimuli/rescaled_final/1338_fw.mp4	0.0	199.7641909122467	2.500366449356079
10	87.38679671287537	pulse	1	t		8.0	2.5	/experiments/Knapen_AOT/AOT_stimuli/rescaled_final/1338_fw.mp4	0.0	201.3466215133667	
10	88.30473256111145	fix_post	2		12	8.0	2.5	/experiments/Knapen_AOT/AOT_stimuli/rescaled_final/1338_fw.mp4	0.0	202.26455736160278	0.09998869895935059
11	88.4047212600708	fix_pre	0		120	9.0	2.5	/experiments/Knapen_AOT/AOT_stimuli/rescaled_final/1409_fw.mp4	0.0	202.36454606056213	1.0084941387176514
11	88.9888207912445	pulse	0	t		9.0	2.5	/experiments/Knapen_AOT/AOT_stimuli/rescaled_final/1409_fw.mp4	0.0	202.94864559173584	
11	89.41321539878845	movie	1		283	9.0	2.5	/experiments/Knapen_AOT/AOT_stimuli/rescaled_final/1409_fw.mp4	0.0	203.37304019927979	2.4920454025268555
11	90.58667778968811	pulse	1	t		9.0	2.5	/experiments/Knapen_AOT/AOT_stimuli/rescaled_final/1409_fw.mp4	0.0	204.54650259017944	
11	91.90526080131531	fix_post	2		12	9.0	2.5	/experiments/Knapen_AOT/AOT_stimuli/rescaled_final/1409_fw.mp4	0.0	205.86508560180664	0.09999728202819824
12	92.0052580833435	fix_pre	0		120	10.0	2.5	/experiments/Knapen_AOT/AOT_stimuli/rescaled_final/1889_fw.mp4	0.0	205.96508288383484	1.00850248336792
12	92.18120813369751	pulse	0	t		10.0	2.5	/experiments/Knapen_AOT/AOT_stimuli/rescaled_final/1889_fw.mp4	0.0	206.14103293418884	
12	93.01376056671143	movie	1		276	10.0	2.5	/experiments/Knapen_AOT/AOT_stimuli/rescaled_final/1889_fw.mp4	0.0	206.97358536720276	2.4921276569366455
12	93.78099584579468	pulse	1	t		10.0	2.5	/experiments/Knapen_AOT/AOT_stimuli/rescaled_final/1889_fw.mp4	0.0	207.740820646286	
12	95.38105511665344	pulse	1	t		10.0	2.5	/experiments/Knapen_AOT/AOT_stimuli/rescaled_final/1889_fw.mp4	0.0	209.34087991714478	
12	95.50588822364807	fix_post	2		12	10.0	2.5	/experiments/Knapen_AOT/AOT_stimuli/rescaled_final/1889_fw.mp4	0.0	209.4657130241394	0.09994387626647949
13	95.60583209991455	fix_pre	0		120	11.0	2.5	/experiments/Knapen_AOT/AOT_stimuli/rescaled_final/1351_fw.mp4	0.0	209.56565690040588	1.0084545612335205
13	96.61428666114807	movie	1		275	11.0	2.5	/experiments/Knapen_AOT/AOT_stimuli/rescaled_final/1351_fw.mp4	0.0	210.5741114616394	2.492046356201172
13	96.98149299621582	pulse	1	t		11.0	2.5	/experiments/Knapen_AOT/AOT_stimuli/rescaled_final/1351_fw.mp4	0.0	210.94131779670715	
13	98.58163475990295	pulse	1	t		11.0	2.5	/experiments/Knapen_AOT/AOT_stimuli/rescaled_final/1351_fw.mp4	0.0	212.5414595603943	
13	99.10633301734924	fix_post	2		12	11.0	2.5	/experiments/Knapen_AOT/AOT_stimuli/rescaled_final/1351_fw.mp4	0.0	213.06615781784058	0.1000213623046875
14	99.20635437965393	fix_pre	0		118	12.0	2.5	blank	1.0	213.16617918014526	0.9834680557250977
14	100.18169689178467	pulse	0	t		12.0	2.5	blank	1.0	214.141521692276	
14	100.18982243537903	movie	1		301	12.0	2.5	blank	1.0	214.14964723587036	2.508732557296753
14	101.78194808959961	pulse	1	t		12.0	2.5	blank	1.0	215.74177289009094	
14	102.69855499267578	fix_post	2		12	12.0	2.5	blank	1.0	216.65837979316711	0.09999489784240723
15	102.79854989051819	fix_pre	0		120	13.0	2.5	/experiments/Knapen_AOT/AOT_stimuli/rescaled_final/0243_rv.mp4	0.0	216.75837469100952	1.0085222721099854
15	103.38250684738159	pulse	0	t		13.0	2.5	/experiments/Knapen_AOT/AOT_stimuli/rescaled_final/0243_rv.mp4	0.0	217.34233164787292	
15	103.80707216262817	movie	1		279	13.0	2.5	/experiments/Knapen_AOT/AOT_stimuli/rescaled_final/0243_rv.mp4	0.0	217.7668969631195	2.492023229598999
15	104.98249197006226	pulse	1	t		13.0	2.5	/experiments/Knapen_AOT/AOT_stimuli/rescaled_final/0243_rv.mp4	0.0	218.9423167705536	
15	106.29909539222717	fix_post	2		12	13.0	2.5	/experiments/Knapen_AOT/AOT_stimuli/rescaled_final/0243_rv.mp4	0.0	220.2589201927185	0.10000467300415039
16	106.39910006523132	fix_pre	0		120	14.0	2.5	/experiments/Knapen_AOT/AOT_stimuli/rescaled_final/0572_fw.mp4	0.0	220.35892486572266	1.0084869861602783
16	106.5826723575592	pulse	0	t		14.0	2.5	/experiments/Knapen_AOT/AOT_stimuli/rescaled_final/0572_fw.mp4	0.0	220.54249715805054	
16	107.4075870513916	movie	1		280	14.0	2.5	/experiments/Knapen_AOT/AOT_stimuli/rescaled_final/0572_fw.mp4	0.0	221.36741185188293	2.4920527935028076
16	108.18293690681458	pulse	1	t		14.0	2.5	/experiments/Knapen_AOT/AOT_stimuli/rescaled_final/0572_fw.mp4	0.0	222.1427617073059	
16	109.78142023086548	pulse	1	t		14.0	2.5	/experiments/Knapen_AOT/AOT_stimuli/rescaled_final/0572_fw.mp4	0.0	223.7412450313568	
16	109.89963984489441	fix_post	2		12	14.0	2.5	/experiments/Knapen_AOT/AOT_stimuli/rescaled_final/0572_fw.mp4	0.0	223.85946464538574	0.10000801086425781
17	109.99964785575867	fix_pre	0		120	15.0	2.5	/experiments/Knapen_AOT/AOT_stimuli/rescaled_final/0808_rv.mp4	0.0	223.95947265625	1.008521556854248
17	111.00816941261292	movie	1		281	15.0	2.5	/experiments/Knapen_AOT/AOT_stimuli/rescaled_final/0808_rv.mp4	0.0	224.96799421310425	2.492075204849243
17	111.38149785995483	pulse	1	t		15.0	2.5	/experiments/Knapen_AOT/AOT_stimuli/rescaled_final/0808_rv.mp4	0.0	225.34132266044617	
17	112.98142409324646	pulse	1	t		15.0	2.5	/experiments/Knapen_AOT/AOT_stimuli/rescaled_final/0808_rv.mp4	0.0	226.9412488937378	
17	113.50024461746216	fix_post	2		12	15.0	2.5	/experiments/Knapen_AOT/AOT_stimuli/rescaled_final/0808_rv.mp4	0.0	227.4600694179535	0.1000511646270752
18	113.60029578208923	fix_pre	0		119	16.0	2.5	/experiments/Knapen_AOT/AOT_stimuli/rescaled_final/0299_rv.mp4	0.0	227.56012058258057	1.0000829696655273
18	114.58386468887329	pulse	0	t		16.0	2.5	/experiments/Knapen_AOT/AOT_stimuli/rescaled_final/0299_rv.mp4	0.0	228.54368948936462	
18	114.60037875175476	movie	1		284	16.0	2.5	/experiments/Knapen_AOT/AOT_stimuli/rescaled_final/0299_rv.mp4	0.0	228.5602035522461	2.50036358833313
18	116.18279695510864	pulse	1	t		16.0	2.5	/experiments/Knapen_AOT/AOT_stimuli/rescaled_final/0299_rv.mp4	0.0	230.14262175559998	
18	117.10074234008789	fix_post	2		12	16.0	2.5	/experiments/Knapen_AOT/AOT_stimuli/rescaled_final/0299_rv.mp4	0.0	231.06056714057922	0.09997773170471191
19	117.2007200717926	fix_pre	0		120	17.0	2.5	/experiments/Knapen_AOT/AOT_stimuli/rescaled_final/0566_fw.mp4	0.0	231.16054487228394	1.0085327625274658
19	117.78436493873596	pulse	0	t		17.0	2.5	/experiments/Knapen_AOT/AOT_stimuli/rescaled_final/0566_fw.mp4	0.0	231.7441897392273	
19	118.20925283432007	movie	1		285	17.0	2.5	/experiments/Knapen_AOT/AOT_stimuli/rescaled_final/0566_fw.mp4	0.0	232.1690776348114	2.4920172691345215
19	119.38273620605469	pulse	1	t		17.0	2.5	/experiments/Knapen_AOT/AOT_stimuli/rescaled_final/0566_fw.mp4	0.0	233.34256100654602	
19	120.70127010345459	fix_post	2		12	17.0	2.5	/experiments/Knapen_AOT/AOT_stimuli/rescaled_final/0566_fw.mp4	0.0	234.66109490394592	0.09998655319213867
20	120.80125665664673	fix_pre	0		120	18.0	2.5	/experiments/Knapen_AOT/AOT_stimuli/rescaled_final/0427_fw.mp4	0.0	234.76108145713806	1.008497953414917
20	120.98489212989807	pulse	0	t		18.0	2.5	/experiments/Knapen_AOT/AOT_stimuli/rescaled_final/0427_fw.mp4	0.0	234.9447169303894	
20	121.80975461006165	movie	1		277	18.0	2.5	/experiments/Knapen_AOT/AOT_stimuli/rescaled_final/0427_fw.mp4	0.0	235.76957941055298	2.4920408725738525
20	122.5827260017395	pulse	1	t		18.0	2.5	/experiments/Knapen_AOT/AOT_stimuli/rescaled_final/0427_fw.mp4	0.0	236.54255080223083	
20	124.18320202827454	pulse	1	t		18.0	2.5	/experiments/Knapen_AOT/AOT_stimuli/rescaled_final/0427_fw.mp4	0.0	238.14302682876587	
20	124.3017954826355	fix_post	2		12	18.0	2.5	/experiments/Knapen_AOT/AOT_stimuli/rescaled_final/0427_fw.mp4	0.0	238.26162028312683	0.1000373363494873
21	124.40183281898499	fix_pre	0		120	19.0	2.5	/experiments/Knapen_AOT/AOT_stimuli/rescaled_final/0379_fw.mp4	0.0	238.36165761947632	1.008481502532959
21	125.41031432151794	movie	1		283	19.0	2.5	/experiments/Knapen_AOT/AOT_stimuli/rescaled_final/0379_fw.mp4	0.0	239.37013912200928	2.492070436477661
21	125.78468298912048	pulse	1	t		19.0	2.5	/experiments/Knapen_AOT/AOT_stimuli/rescaled_final/0379_fw.mp4	0.0	239.74450778961182	
21	127.3859314918518	pulse	1	t		19.0	2.5	/experiments/Knapen_AOT/AOT_stimuli/rescaled_final/0379_fw.mp4	0.0	241.34575629234314	
21	127.9023847579956	fix_post	2		12	19.0	2.5	/experiments/Knapen_AOT/AOT_stimuli/rescaled_final/0379_fw.mp4	0.0	241.86220955848694	0.09995365142822266
22	128.00233840942383	fix_pre	0		119	20.0	2.5	/experiments/Knapen_AOT/AOT_stimuli/rescaled_final/0159_fw.mp4	0.0	241.96216320991516	1.0001742839813232
22	128.9860496520996	pulse	0	t		20.0	2.5	/experiments/Knapen_AOT/AOT_stimuli/rescaled_final/0159_fw.mp4	0.0	242.94587445259094	
22	129.00251269340515	movie	1		285	20.0	2.5	/experiments/Knapen_AOT/AOT_stimuli/rescaled_final/0159_fw.mp4	0.0	242.96233749389648	2.5087153911590576
22	130.58505415916443	pulse	1	t		20.0	2.5	/experiments/Knapen_AOT/AOT_stimuli/rescaled_final/0159_fw.mp4	0.0	244.54487895965576	
22	131.5112280845642	fix_post	2		11	20.0	2.5	/experiments/Knapen_AOT/AOT_stimuli/rescaled_final/0159_fw.mp4	0.0	245.47105288505554	0.09166669845581055
23	131.60289478302002	fix_pre	0		120	21.0	2.5	blank	1.0	245.56271958351135	1.0001740455627441
23	132.1865520477295	pulse	0	t		21.0	2.5	blank	1.0	246.14637684822083	
23	132.60306882858276	movie	1		300	21.0	2.5	blank	1.0	246.5628936290741	2.500356435775757
23	133.78681683540344	pulse	1	t		21.0	2.5	blank	1.0	247.74664163589478	
23	135.10342526435852	fix_post	2		12	21.0	2.5	blank	1.0	249.06325006484985	0.100006103515625
24	135.20343136787415	fix_pre	0		120	22.0	2.5	/experiments/Knapen_AOT/AOT_stimuli/rescaled_final/0234_fw.mp4	0.0	249.16325616836548	1.0084764957427979
24	135.38702487945557	pulse	0	t		22.0	2.5	/experiments/Knapen_AOT/AOT_stimuli/rescaled_final/0234_fw.mp4	0.0	249.3468496799469	
24	136.21190786361694	movie	1		286	22.0	2.5	/experiments/Knapen_AOT/AOT_stimuli/rescaled_final/0234_fw.mp4	0.0	250.17173266410828	2.492049217224121
24	136.9854121208191	pulse	1	t		22.0	2.5	/experiments/Knapen_AOT/AOT_stimuli/rescaled_final/0234_fw.mp4	0.0	250.94523692131042	
24	138.58542609214783	pulse	1	t		22.0	2.5	/experiments/Knapen_AOT/AOT_stimuli/rescaled_final/0234_fw.mp4	0.0	252.54525089263916	
24	138.70395708084106	fix_post	2		12	22.0	2.5	/experiments/Knapen_AOT/AOT_stimuli/rescaled_final/0234_fw.mp4	0.0	252.6637818813324	0.10001564025878906
25	138.80397272109985	fix_pre	0		120	23.0	2.5	/experiments/Knapen_AOT/AOT_stimuli/rescaled_final/1218_fw.mp4	0.0	252.7637975215912	1.0084950923919678
25	139.81246781349182	movie	1		283	23.0	2.5	/experiments/Knapen_AOT/AOT_stimuli/rescaled_final/1218_fw.mp4	0.0	253.77229261398315	2.492013931274414
25	140.1875672340393	pulse	1	t		23.0	2.5	/experiments/Knapen_AOT/AOT_stimuli/rescaled_final/1218_fw.mp4	0.0	254.14739203453064	
25	141.78610706329346	pulse	1	t		23.0	2.5	/experiments/Knapen_AOT/AOT_stimuli/rescaled_final/1218_fw.mp4	0.0	255.7459318637848	
25	142.30448174476624	fix_post	2		12	23.0	2.5	/experiments/Knapen_AOT/AOT_stimuli/rescaled_final/1218_fw.mp4	0.0	256.26430654525757	0.10002684593200684
26	142.40450859069824	fix_pre	0		119	24.0	2.5	/experiments/Knapen_AOT/AOT_stimuli/rescaled_final/0124_fw.mp4	0.0	256.3643333911896	1.008667230606079
26	143.38840866088867	pulse	0	t		24.0	2.5	/experiments/Knapen_AOT/AOT_stimuli/rescaled_final/0124_fw.mp4	0.0	257.34823346138	
26	143.41317582130432	movie	1		266	24.0	2.5	/experiments/Knapen_AOT/AOT_stimuli/rescaled_final/0124_fw.mp4	0.0	257.37300062179565	2.491875648498535
26	144.98689436912537	pulse	1	t		24.0	2.5	/experiments/Knapen_AOT/AOT_stimuli/rescaled_final/0124_fw.mp4	0.0	258.9467191696167	
26	145.90505146980286	fix_post	2		12	24.0	2.5	/experiments/Knapen_AOT/AOT_stimuli/rescaled_final/0124_fw.mp4	0.0	259.8648762702942	0.10001802444458008
27	146.00506949424744	fix_pre	0		120	25.0	2.5	/experiments/Knapen_AOT/AOT_stimuli/rescaled_final/0418_fw.mp4	0.0	259.96489429473877	1.0084891319274902
27	146.5817265510559	pulse	0	t		25.0	2.5	/experiments/Knapen_AOT/AOT_stimuli/rescaled_final/0418_fw.mp4	0.0	260.54155135154724	
27	147.01355862617493	movie	1		280	25.0	2.5	/experiments/Knapen_AOT/AOT_stimuli/rescaled_final/0418_fw.mp4	0.0	260.97338342666626	2.492058038711548
27	148.1871521472931	pulse	1	t		25.0	2.5	/experiments/Knapen_AOT/AOT_stimuli/rescaled_final/0418_fw.mp4	0.0	262.1469769477844	
27	149.50561666488647	fix_post	2		12	25.0	2.5	/experiments/Knapen_AOT/AOT_stimuli/rescaled_final/0418_fw.mp4	0.0	263.4654414653778	0.09997797012329102
28	149.60559463500977	fix_pre	0		120	26.0	2.5	/experiments/Knapen_AOT/AOT_stimuli/rescaled_final/2128_fw.mp4	0.0	263.5654194355011	1.0085442066192627
28	149.78920912742615	pulse	0	t		26.0	2.5	/experiments/Knapen_AOT/AOT_stimuli/rescaled_final/2128_fw.mp4	0.0	263.7490339279175	
28	150.61413884162903	movie	1		272	26.0	2.5	/experiments/Knapen_AOT/AOT_stimuli/rescaled_final/2128_fw.mp4	0.0	264.57396364212036	2.4920318126678467
28	151.38151359558105	pulse	1	t		26.0	2.5	/experiments/Knapen_AOT/AOT_stimuli/rescaled_final/2128_fw.mp4	0.0	265.3413383960724	
28	152.98172616958618	pulse	1	t		26.0	2.5	/experiments/Knapen_AOT/AOT_stimuli/rescaled_final/2128_fw.mp4	0.0	266.9415509700775	
28	153.10617065429688	fix_post	2		12	26.0	2.5	/experiments/Knapen_AOT/AOT_stimuli/rescaled_final/2128_fw.mp4	0.0	267.0659954547882	0.10004425048828125
29	153.20621490478516	fix_pre	0		120	27.0	2.5	blank	1.0	267.1660397052765	1.000105619430542
29	154.2063205242157	movie	1		300	27.0	2.5	blank	1.0	268.16614532470703	2.500340700149536
29	154.58173370361328	pulse	1	t		27.0	2.5	blank	1.0	268.5415585041046	
29	156.18186378479004	pulse	1	t		27.0	2.5	blank	1.0	270.1416885852814	
29	156.70666122436523	fix_post	2		12	27.0	2.5	blank	1.0	270.66648602485657	0.10011649131774902
30	156.80677771568298	fix_pre	0		118	28.0	2.5	/experiments/Knapen_AOT/AOT_stimuli/rescaled_final/2071_fw.mp4	0.0	270.7666025161743	1.0001351833343506
30	157.78212022781372	pulse	0	t		28.0	2.5	/experiments/Knapen_AOT/AOT_stimuli/rescaled_final/2071_fw.mp4	0.0	271.74194502830505	
30	157.80691289901733	movie	1		285	28.0	2.5	/experiments/Knapen_AOT/AOT_stimuli/rescaled_final/2071_fw.mp4	0.0	271.76673769950867	2.491962194442749
30	159.38252687454224	pulse	1	t		28.0	2.5	/experiments/Knapen_AOT/AOT_stimuli/rescaled_final/2071_fw.mp4	0.0	273.34235167503357	
30	160.29887509346008	fix_post	2		12	28.0	2.5	/experiments/Knapen_AOT/AOT_stimuli/rescaled_final/2071_fw.mp4	0.0	274.2586998939514	0.09999418258666992
31	160.39886927604675	fix_pre	0		120	29.0	2.5	/experiments/Knapen_AOT/AOT_stimuli/rescaled_final/1733_rv.mp4	0.0	274.3586940765381	1.0085937976837158
31	160.98251628875732	pulse	0	t		29.0	2.5	/experiments/Knapen_AOT/AOT_stimuli/rescaled_final/1733_rv.mp4	0.0	274.94234108924866	
31	161.40746307373047	movie	1		280	29.0	2.5	/experiments/Knapen_AOT/AOT_stimuli/rescaled_final/1733_rv.mp4	0.0	275.3672878742218	2.4921090602874756
31	162.58280420303345	pulse	1	t		29.0	2.5	/experiments/Knapen_AOT/AOT_stimuli/rescaled_final/1733_rv.mp4	0.0	276.5426290035248	
31	163.89957213401794	fix_post	2		12	29.0	2.5	/experiments/Knapen_AOT/AOT_stimuli/rescaled_final/1733_rv.mp4	0.0	277.8593969345093	0.09992408752441406
32	163.99949622154236	fix_pre	0		120	30.0	2.5	/experiments/Knapen_AOT/AOT_stimuli/rescaled_final/1740_fw.mp4	0.0	277.9593210220337	1.0084304809570312
32	164.1831419467926	pulse	0	t		30.0	2.5	/experiments/Knapen_AOT/AOT_stimuli/rescaled_final/1740_fw.mp4	0.0	278.14296674728394	
32	165.0079267024994	movie	1		277	30.0	2.5	/experiments/Knapen_AOT/AOT_stimuli/rescaled_final/1740_fw.mp4	0.0	278.9677515029907	2.4920284748077393
32	165.78249788284302	pulse	1	t		30.0	2.5	/experiments/Knapen_AOT/AOT_stimuli/rescaled_final/1740_fw.mp4	0.0	279.74232268333435	
32	167.38198566436768	pulse	1	t		30.0	2.5	/experiments/Knapen_AOT/AOT_stimuli/rescaled_final/1740_fw.mp4	0.0	281.341810464859	
32	167.49995517730713	fix_post	2		12	30.0	2.5	/experiments/Knapen_AOT/AOT_stimuli/rescaled_final/1740_fw.mp4	0.0	281.45977997779846	0.10001182556152344
33	167.59996700286865	fix_pre	0		120	31.0	2.5	/experiments/Knapen_AOT/AOT_stimuli/rescaled_final/0692_fw.mp4	0.0	281.55979180336	1.008507251739502
33	168.60847425460815	movie	1		272	31.0	2.5	/experiments/Knapen_AOT/AOT_stimuli/rescaled_final/0692_fw.mp4	0.0	282.5682990550995	2.49202561378479
33	168.98272943496704	pulse	1	t		31.0	2.5	/experiments/Knapen_AOT/AOT_stimuli/rescaled_final/0692_fw.mp4	0.0	282.9425542354584	
33	170.58205699920654	pulse	1	t		31.0	2.5	/experiments/Knapen_AOT/AOT_stimuli/rescaled_final/0692_fw.mp4	0.0	284.5418817996979	
33	171.10049986839294	fix_post	2		12	31.0	2.5	/experiments/Knapen_AOT/AOT_stimuli/rescaled_final/0692_fw.mp4	0.0	285.0603246688843	0.10000896453857422
34	171.20050883293152	fix_pre	0		119	32.0	2.5	/experiments/Knapen_AOT/AOT_stimuli/rescaled_final/0137_fw.mp4	0.0	285.16033363342285	1.000145435333252
34	172.1841962337494	pulse	0	t		32.0	2.5	/experiments/Knapen_AOT/AOT_stimuli/rescaled_final/0137_fw.mp4	0.0	286.1440210342407	
34	172.20065426826477	movie	1		287	32.0	2.5	/experiments/Knapen_AOT/AOT_stimuli/rescaled_final/0137_fw.mp4	0.0	286.1604790687561	2.5003726482391357
34	173.78317737579346	pulse	1	t		32.0	2.5	/experiments/Knapen_AOT/AOT_stimuli/rescaled_final/0137_fw.mp4	0.0	287.7430021762848	
34	174.7010269165039	fix_post	2		12	32.0	2.5	/experiments/Knapen_AOT/AOT_stimuli/rescaled_final/0137_fw.mp4	0.0	288.66085171699524	0.10004353523254395
35	174.80107045173645	fix_pre	0		120	33.0	2.5	/experiments/Knapen_AOT/AOT_stimuli/rescaled_final/0776_fw.mp4	0.0	288.7608952522278	1.0085217952728271
35	175.3847417831421	pulse	0	t		33.0	2.5	/experiments/Knapen_AOT/AOT_stimuli/rescaled_final/0776_fw.mp4	0.0	289.3445665836334	
35	175.80959224700928	movie	1		275	33.0	2.5	/experiments/Knapen_AOT/AOT_stimuli/rescaled_final/0776_fw.mp4	0.0	289.7694170475006	2.492002248764038
35	176.98341274261475	pulse	1	t		33.0	2.5	/experiments/Knapen_AOT/AOT_stimuli/rescaled_final/0776_fw.mp4	0.0	290.9432375431061	
35	178.30159449577332	fix_post	2		12	33.0	2.5	/experiments/Knapen_AOT/AOT_stimuli/rescaled_final/0776_fw.mp4	0.0	292.26141929626465	0.1000070571899414
36	178.40160155296326	fix_pre	0		120	34.0	2.5	blank	1.0	292.3614263534546	1.0002167224884033
36	178.5851502418518	pulse	0	t		34.0	2.5	blank	1.0	292.54497504234314	
36	179.40181827545166	movie	1		300	34.0	2.5	blank	1.0	293.361643075943	2.500312566757202
36	180.18540167808533	pulse	1	t		34.0	2.5	blank	1.0	294.14522647857666	
36	181.78570008277893	pulse	1	t		34.0	2.5	blank	1.0	295.74552488327026	
36	181.90213084220886	fix_post	2		12	34.0	2.5	blank	1.0	295.8619556427002	0.1000063419342041
37	182.00213718414307	fix_pre	0		120	35.0	2.5	/experiments/Knapen_AOT/AOT_stimuli/rescaled_final/0054_fw.mp4	0.0	295.9619619846344	1.0084805488586426
37	183.0106177330017	movie	1		283	35.0	2.5	/experiments/Knapen_AOT/AOT_stimuli/rescaled_final/0054_fw.mp4	0.0	296.97044253349304	2.492218255996704
37	183.38456916809082	pulse	1	t		35.0	2.5	/experiments/Knapen_AOT/AOT_stimuli/rescaled_final/0054_fw.mp4	0.0	297.34439396858215	
37	184.98431944847107	pulse	1	t		35.0	2.5	/experiments/Knapen_AOT/AOT_stimuli/rescaled_final/0054_fw.mp4	0.0	298.9441442489624	
37	185.5028359889984	fix_post	2		11	35.0	2.5	/experiments/Knapen_AOT/AOT_stimuli/rescaled_final/0054_fw.mp4	0.0	299.46266078948975	0.09985876083374023
38	185.60269474983215	fix_pre	0		119	36.0	2.5	/experiments/Knapen_AOT/AOT_stimuli/rescaled_final/1888_rv.mp4	0.0	299.5625195503235	1.0001006126403809
38	186.58633995056152	pulse	0	t		36.0	2.5	/experiments/Knapen_AOT/AOT_stimuli/rescaled_final/1888_rv.mp4	0.0	300.54616475105286	
38	186.60279536247253	movie	1		282	36.0	2.5	/experiments/Knapen_AOT/AOT_stimuli/rescaled_final/1888_rv.mp4	0.0	300.56262016296387	2.500410795211792
38	188.1860899925232	pulse	1	t		36.0	2.5	/experiments/Knapen_AOT/AOT_stimuli/rescaled_final/1888_rv.mp4	0.0	302.1459147930145	
38	189.10320615768433	fix_post	2		12	36.0	2.5	/experiments/Knapen_AOT/AOT_stimuli/rescaled_final/1888_rv.mp4	0.0	303.06303095817566	0.10001683235168457
39	189.203222990036	fix_pre	0		120	37.0	2.5	/experiments/Knapen_AOT/AOT_stimuli/rescaled_final/1912_rv.mp4	0.0	303.16304779052734	1.0085113048553467
39	189.7868893146515	pulse	0	t		37.0	2.5	/experiments/Knapen_AOT/AOT_stimuli/rescaled_final/1912_rv.mp4	0.0	303.7467141151428	
39	190.21173429489136	movie	1		280	37.0	2.5	/experiments/Knapen_AOT/AOT_stimuli/rescaled_final/1912_rv.mp4	0.0	304.1715590953827	2.492023468017578
39	191.38488912582397	pulse	1	t		37.0	2.5	/experiments/Knapen_AOT/AOT_stimuli/rescaled_final/1912_rv.mp4	0.0	305.3447139263153	
39	192.70375776290894	fix_post	2		12	37.0	2.5	/experiments/Knapen_AOT/AOT_stimuli/rescaled_final/1912_rv.mp4	0.0	306.66358256340027	0.10000395774841309
40	192.80376172065735	fix_pre	0		120	38.0	2.5	/experiments/Knapen_AOT/AOT_stimuli/rescaled_final/1157_fw.mp4	0.0	306.7635865211487	1.008495569229126
40	192.9873251914978	pulse	0	t		38.0	2.5	/experiments/Knapen_AOT/AOT_stimuli/rescaled_final/1157_fw.mp4	0.0	306.94714999198914	
40	193.81225728988647	movie	1		270	38.0	2.5	/experiments/Knapen_AOT/AOT_stimuli/rescaled_final/1157_fw.mp4	0.0	307.7720820903778	2.492048501968384
40	194.5876977443695	pulse	1	t		38.0	2.5	/experiments/Knapen_AOT/AOT_stimuli/rescaled_final/1157_fw.mp4	0.0	308.54752254486084	
40	196.18566727638245	pulse	1	t		38.0	2.5	/experiments/Knapen_AOT/AOT_stimuli/rescaled_final/1157_fw.mp4	0.0	310.1454920768738	
40	196.30430579185486	fix_post	2		12	38.0	2.5	/experiments/Knapen_AOT/AOT_stimuli/rescaled_final/1157_fw.mp4	0.0	310.2641305923462	0.10001587867736816
41	196.40432167053223	fix_pre	0		120	39.0	2.5	/experiments/Knapen_AOT/AOT_stimuli/rescaled_final/1928_rv.mp4	0.0	310.36414647102356	1.0084939002990723
41	197.4128155708313	movie	1		281	39.0	2.5	/experiments/Knapen_AOT/AOT_stimuli/rescaled_final/1928_rv.mp4	0.0	311.37264037132263	2.4920060634613037
41	197.78633403778076	pulse	1	t		39.0	2.5	/experiments/Knapen_AOT/AOT_stimuli/rescaled_final/1928_rv.mp4	0.0	311.7461588382721	
41	199.38646245002747	pulse	1	t		39.0	2.5	/experiments/Knapen_AOT/AOT_stimuli/rescaled_final/1928_rv.mp4	0.0	313.3462872505188	
41	199.9048216342926	fix_post	2		12	39.0	2.5	/experiments/Knapen_AOT/AOT_stimuli/rescaled_final/1928_rv.mp4	0.0	313.86464643478394	0.10005950927734375
42	200.00488114356995	fix_pre	0		119	40.0	2.5	blank	1.0	313.9647059440613	0.9917736053466797
42	200.98090505599976	pulse	0	t		40.0	2.5	blank	1.0	314.9407298564911	
42	200.99665474891663	movie	1		301	40.0	2.5	blank	1.0	314.95647954940796	2.508751153945923
42	202.58087038993835	pulse	1	t		40.0	2.5	blank	1.0	316.5406951904297	
42	203.50540590286255	fix_post	2		12	40.0	2.5	blank	1.0	317.4652307033539	0.09999346733093262
43	203.60539937019348	fix_pre	0		120	41.0	2.5	/experiments/Knapen_AOT/AOT_stimuli/rescaled_final/1219_rv.mp4	0.0	317.5652241706848	1.008552074432373
43	204.1808681488037	pulse	0	t		41.0	2.5	/experiments/Knapen_AOT/AOT_stimuli/rescaled_final/1219_rv.mp4	0.0	318.14069294929504	
43	204.61395144462585	movie	1		274	41.0	2.5	/experiments/Knapen_AOT/AOT_stimuli/rescaled_final/1219_rv.mp4	0.0	318.5737762451172	2.492015838623047
43	205.78102588653564	pulse	1	t		41.0	2.5	/experiments/Knapen_AOT/AOT_stimuli/rescaled_final/1219_rv.mp4	0.0	319.740850687027	
43	207.1059672832489	fix_post	2		12	41.0	2.5	/experiments/Knapen_AOT/AOT_stimuli/rescaled_final/1219_rv.mp4	0.0	321.06579208374023	0.09996509552001953
44	207.20593237876892	fix_pre	0		120	42.0	2.5	/experiments/Knapen_AOT/AOT_stimuli/rescaled_final/0536_rv.mp4	0.0	321.16575717926025	1.008476972579956
44	207.38116574287415	pulse	0	t		42.0	2.5	/experiments/Knapen_AOT/AOT_stimuli/rescaled_final/0536_rv.mp4	0.0	321.3409905433655	
44	208.21440935134888	movie	1		273	42.0	2.5	/experiments/Knapen_AOT/AOT_stimuli/rescaled_final/0536_rv.mp4	0.0	322.1742341518402	2.49206280708313
44	208.98151016235352	pulse	1	t		42.0	2.5	/experiments/Knapen_AOT/AOT_stimuli/rescaled_final/0536_rv.mp4	0.0	322.94133496284485	
44	210.58163452148438	pulse	1	t		42.0	2.5	/experiments/Knapen_AOT/AOT_stimuli/rescaled_final/0536_rv.mp4	0.0	324.5414593219757	
44	210.706472158432	fix_post	2		12	42.0	2.5	/experiments/Knapen_AOT/AOT_stimuli/rescaled_final/0536_rv.mp4	0.0	324.66629695892334	0.10010576248168945
45	210.8065779209137	fix_pre	0		120	43.0	2.5	/experiments/Knapen_AOT/AOT_stimuli/rescaled_final/1682_rv.mp4	0.0	324.76640272140503	1.0084407329559326
45	211.81501865386963	movie	1		264	43.0	2.5	/experiments/Knapen_AOT/AOT_stimuli/rescaled_final/1682_rv.mp4	0.0	325.77484345436096	2.4919631481170654
45	212.1818766593933	pulse	1	t		43.0	2.5	/experiments/Knapen_AOT/AOT_stimuli/rescaled_final/1682_rv.mp4	0.0	326.14170145988464	
45	213.91309142112732	pulse	1	t		43.0	2.5	/experiments/Knapen_AOT/AOT_stimuli/rescaled_final/1682_rv.mp4	0.0	327.87291622161865	
45	214.3069818019867	fix_post	2		12	43.0	2.5	/experiments/Knapen_AOT/AOT_stimuli/rescaled_final/1682_rv.mp4	0.0	328.266806602478	0.10001993179321289
46	214.4070017337799	fix_pre	0		118	44.0	2.5	/experiments/Knapen_AOT/AOT_stimuli/rescaled_final/1794_rv.mp4	0.0	328.36682653427124	0.9918184280395508
46	215.38237881660461	pulse	0	t		44.0	2.5	/experiments/Knapen_AOT/AOT_stimuli/rescaled_final/1794_rv.mp4	0.0	329.34220361709595	
46	215.39882016181946	movie	1		289	44.0	2.5	/experiments/Knapen_AOT/AOT_stimuli/rescaled_final/1794_rv.mp4	0.0	329.3586449623108	2.5004451274871826
46	216.98125195503235	pulse	1	t		44.0	2.5	/experiments/Knapen_AOT/AOT_stimuli/rescaled_final/1794_rv.mp4	0.0	330.9410767555237	
46	217.89926528930664	fix_post	2		12	44.0	2.5	/experiments/Knapen_AOT/AOT_stimuli/rescaled_final/1794_rv.mp4	0.0	331.859090089798	0.09998416900634766
47	217.999249458313	fix_pre	0		120	45.0	2.5	/experiments/Knapen_AOT/AOT_stimuli/rescaled_final/2057_rv.mp4	0.0	331.9590742588043	1.0085387229919434
47	218.58288669586182	pulse	0	t		45.0	2.5	/experiments/Knapen_AOT/AOT_stimuli/rescaled_final/2057_rv.mp4	0.0	332.54271149635315	
47	219.00778818130493	movie	1		267	45.0	2.5	/experiments/Knapen_AOT/AOT_stimuli/rescaled_final/2057_rv.mp4	0.0	332.96761298179626	2.4919562339782715
47	220.18090677261353	pulse	1	t		45.0	2.5	/experiments/Knapen_AOT/AOT_stimuli/rescaled_final/2057_rv.mp4	0.0	334.14073157310486	
47	221.4997444152832	fix_post	2		12	45.0	2.5	/experiments/Knapen_AOT/AOT_stimuli/rescaled_final/2057_rv.mp4	0.0	335.45956921577454	0.10001564025878906
48	221.599760055542	fix_pre	0		120	46.0	2.5	/experiments/Knapen_AOT/AOT_stimuli/rescaled_final/0822_rv.mp4	0.0	335.5595848560333	1.008497953414917
48	221.7833640575409	pulse	0	t		46.0	2.5	/experiments/Knapen_AOT/AOT_stimuli/rescaled_final/0822_rv.mp4	0.0	335.7431888580322	
48	222.6082580089569	movie	1		278	46.0	2.5	/experiments/Knapen_AOT/AOT_stimuli/rescaled_final/0822_rv.mp4	0.0	336.56808280944824	2.4920170307159424
48	223.38313627243042	pulse	1	t		46.0	2.5	/experiments/Knapen_AOT/AOT_stimuli/rescaled_final/0822_rv.mp4	0.0	337.34296107292175	
48	224.98516130447388	pulse	1	t		46.0	2.5	/experiments/Knapen_AOT/AOT_stimuli/rescaled_final/0822_rv.mp4	0.0	338.9449861049652	
48	225.10027503967285	fix_post	2		12	46.0	2.5	/experiments/Knapen_AOT/AOT_stimuli/rescaled_final/0822_rv.mp4	0.0	339.0600998401642	0.10007977485656738
49	225.20035481452942	fix_pre	0		120	47.0	2.5	/experiments/Knapen_AOT/AOT_stimuli/rescaled_final/1733_fw.mp4	0.0	339.16017961502075	1.00850248336792
49	226.20885729789734	movie	1		273	47.0	2.5	/experiments/Knapen_AOT/AOT_stimuli/rescaled_final/1733_fw.mp4	0.0	340.1686820983887	2.4919731616973877
49	226.583580493927	pulse	1	t		47.0	2.5	/experiments/Knapen_AOT/AOT_stimuli/rescaled_final/1733_fw.mp4	0.0	340.54340529441833	
49	228.18287634849548	pulse	1	t		47.0	2.5	/experiments/Knapen_AOT/AOT_stimuli/rescaled_final/1733_fw.mp4	0.0	342.1427011489868	
49	228.70083045959473	fix_post	2		12	47.0	2.5	/experiments/Knapen_AOT/AOT_stimuli/rescaled_final/1733_fw.mp4	0.0	342.66065526008606	0.10008001327514648
50	228.80091047286987	fix_pre	0		119	48.0	2.5	blank	1.0	342.7607352733612	0.9917054176330566
50	229.7845368385315	pulse	0	t		48.0	2.5	blank	1.0	343.7443616390228	
50	229.79261589050293	movie	1		301	48.0	2.5	blank	1.0	343.75244069099426	2.5088131427764893
50	231.38476872444153	pulse	1	t		48.0	2.5	blank	1.0	345.34459352493286	
50	232.30142903327942	fix_post	2		12	48.0	2.5	blank	1.0	346.26125383377075	0.09990334510803223
51	232.40133237838745	fix_pre	0		120	49.0	2.5	/experiments/Knapen_AOT/AOT_stimuli/rescaled_final/0036_fw.mp4	0.0	346.3611571788788	1.008514165878296
51	232.9851415157318	pulse	0	t		49.0	2.5	/experiments/Knapen_AOT/AOT_stimuli/rescaled_final/0036_fw.mp4	0.0	346.94496631622314	
51	233.40984654426575	movie	1		282	49.0	2.5	/experiments/Knapen_AOT/AOT_stimuli/rescaled_final/0036_fw.mp4	0.0	347.3696713447571	2.492097854614258
51	234.58324885368347	pulse	1	t		49.0	2.5	/experiments/Knapen_AOT/AOT_stimuli/rescaled_final/0036_fw.mp4	0.0	348.5430736541748	
51	235.90194439888	fix_post	2		12	49.0	2.5	/experiments/Knapen_AOT/AOT_stimuli/rescaled_final/0036_fw.mp4	0.0	349.86176919937134	0.10005593299865723
52	236.00200033187866	fix_pre	0		120	50.0	2.5	/experiments/Knapen_AOT/AOT_stimuli/rescaled_final/0591_fw.mp4	0.0	349.96182513237	1.0084185600280762
52	236.18552422523499	pulse	0	t		50.0	2.5	/experiments/Knapen_AOT/AOT_stimuli/rescaled_final/0591_fw.mp4	0.0	350.1453490257263	
52	237.01041889190674	movie	1		256	50.0	2.5	/experiments/Knapen_AOT/AOT_stimuli/rescaled_final/0591_fw.mp4	0.0	350.97024369239807	2.492037773132324
52	237.78363943099976	pulse	1	t		50.0	2.5	/experiments/Knapen_AOT/AOT_stimuli/rescaled_final/0591_fw.mp4	0.0	351.7434642314911	
52	239.38428735733032	pulse	1	t		50.0	2.5	/experiments/Knapen_AOT/AOT_stimuli/rescaled_final/0591_fw.mp4	0.0	353.34411215782166	
52	239.50245666503906	fix_post	2		12	50.0	2.5	/experiments/Knapen_AOT/AOT_stimuli/rescaled_final/0591_fw.mp4	0.0	353.4622814655304	0.10004925727844238
53	239.6025059223175	fix_pre	0		120	51.0	2.5	/experiments/Knapen_AOT/AOT_stimuli/rescaled_final/1592_rv.mp4	0.0	353.56233072280884	1.0084569454193115
53	240.61096286773682	movie	1		275	51.0	2.5	/experiments/Knapen_AOT/AOT_stimuli/rescaled_final/1592_rv.mp4	0.0	354.57078766822815	2.4920284748077393
53	240.98486876487732	pulse	1	t		51.0	2.5	/experiments/Knapen_AOT/AOT_stimuli/rescaled_final/1592_rv.mp4	0.0	354.94469356536865	
53	242.58480501174927	pulse	1	t		51.0	2.5	/experiments/Knapen_AOT/AOT_stimuli/rescaled_final/1592_rv.mp4	0.0	356.5446298122406	
53	243.10299134254456	fix_post	2		12	51.0	2.5	/experiments/Knapen_AOT/AOT_stimuli/rescaled_final/1592_rv.mp4	0.0	357.0628161430359	0.10007333755493164
54	243.2030646800995	fix_pre	0		119	52.0	2.5	/experiments/Knapen_AOT/AOT_stimuli/rescaled_final/1888_fw.mp4	0.0	357.1628894805908	1.0004713535308838
54	244.18669748306274	pulse	0	t		52.0	2.5	/experiments/Knapen_AOT/AOT_stimuli/rescaled_final/1888_fw.mp4	0.0	358.1465222835541	
54	244.20353603363037	movie	1		281	52.0	2.5	/experiments/Knapen_AOT/AOT_stimuli/rescaled_final/1888_fw.mp4	0.0	358.1633608341217	2.5000603199005127
54	245.7852942943573	pulse	1	t		52.0	2.5	/experiments/Knapen_AOT/AOT_stimuli/rescaled_final/1888_fw.mp4	0.0	359.74511909484863	
54	246.70359635353088	fix_post	2		12	52.0	2.5	/experiments/Knapen_AOT/AOT_stimuli/rescaled_final/1888_fw.mp4	0.0	360.6634211540222	0.10000419616699219
55	246.80360054969788	fix_pre	0		120	53.0	2.5	/experiments/Knapen_AOT/AOT_stimuli/rescaled_final/1219_fw.mp4	0.0	360.7634253501892	1.0085468292236328
55	247.38720059394836	pulse	0	t		53.0	2.5	/experiments/Knapen_AOT/AOT_stimuli/rescaled_final/1219_fw.mp4	0.0	361.3470253944397	
55	247.8121473789215	movie	1		269	53.0	2.5	/experiments/Knapen_AOT/AOT_stimuli/rescaled_final/1219_fw.mp4	0.0	361.77197217941284	2.49194073677063
55	248.98610424995422	pulse	1	t		53.0	2.5	/experiments/Knapen_AOT/AOT_stimuli/rescaled_final/1219_fw.mp4	0.0	362.94592905044556	
55	250.30408811569214	fix_post	2		12	53.0	2.5	/experiments/Knapen_AOT/AOT_stimuli/rescaled_final/1219_fw.mp4	0.0	364.2639129161835	0.10008859634399414
56	250.40417671203613	fix_pre	0		120	54.0	2.5	/experiments/Knapen_AOT/AOT_stimuli/rescaled_final/1781_rv.mp4	0.0	364.36400151252747	1.0083999633789062
56	250.58795952796936	pulse	0	t		54.0	2.5	/experiments/Knapen_AOT/AOT_stimuli/rescaled_final/1781_rv.mp4	0.0	364.5477843284607	
56	251.41257667541504	movie	1		267	54.0	2.5	/experiments/Knapen_AOT/AOT_stimuli/rescaled_final/1781_rv.mp4	0.0	365.3724014759064	2.492267608642578
56	252.18736577033997	pulse	1	t		54.0	2.5	/experiments/Knapen_AOT/AOT_stimuli/rescaled_final/1781_rv.mp4	0.0	366.1471905708313	
56	253.78617882728577	pulse	1	t		54.0	2.5	/experiments/Knapen_AOT/AOT_stimuli/rescaled_final/1781_rv.mp4	0.0	367.7460036277771	
56	253.90484428405762	fix_post	2		12	54.0	2.5	/experiments/Knapen_AOT/AOT_stimuli/rescaled_final/1781_rv.mp4	0.0	367.86466908454895	0.09978055953979492
57	254.0046248435974	fix_pre	0		120	55.0	2.5	/experiments/Knapen_AOT/AOT_stimuli/rescaled_final/0427_fw.mp4	0.0	367.96444964408875	1.0086479187011719
57	255.01327276229858	movie	1		272	55.0	2.5	/experiments/Knapen_AOT/AOT_stimuli/rescaled_final/0427_fw.mp4	0.0	368.9730975627899	2.491926908493042
57	255.38715076446533	pulse	1	t		55.0	2.5	/experiments/Knapen_AOT/AOT_stimuli/rescaled_final/0427_fw.mp4	0.0	369.34697556495667	
57	256.98663544654846	pulse	1	t		55.0	2.5	/experiments/Knapen_AOT/AOT_stimuli/rescaled_final/0427_fw.mp4	0.0	370.9464602470398	
57	257.5051996707916	fix_post	2		12	55.0	2.5	/experiments/Knapen_AOT/AOT_stimuli/rescaled_final/0427_fw.mp4	0.0	371.46502447128296	0.10005569458007812
58	257.6052553653717	fix_pre	0		119	56.0	2.5	blank	1.0	371.56508016586304	0.9916713237762451
58	258.58123111724854	pulse	0	t		56.0	2.5	blank	1.0	372.54105591773987	
58	258.59692668914795	movie	1		301	56.0	2.5	blank	1.0	372.5567514896393	2.5088284015655518
58	260.1813790798187	pulse	1	t		56.0	2.5	blank	1.0	374.14120388031006	
58	261.1057550907135	fix_post	2		12	56.0	2.5	blank	1.0	375.06557989120483	0.10001564025878906
59	261.2057707309723	fix_pre	0		120	57.0	2.5	/experiments/Knapen_AOT/AOT_stimuli/rescaled_final/1807_rv.mp4	0.0	375.1655955314636	1.0084121227264404
59	261.781259059906	pulse	0	t		57.0	2.5	/experiments/Knapen_AOT/AOT_stimuli/rescaled_final/1807_rv.mp4	0.0	375.74108386039734	
59	262.21418285369873	movie	1		265	57.0	2.5	/experiments/Knapen_AOT/AOT_stimuli/rescaled_final/1807_rv.mp4	0.0	376.17400765419006	2.4920594692230225
59	263.3815486431122	pulse	1	t		57.0	2.5	/experiments/Knapen_AOT/AOT_stimuli/rescaled_final/1807_rv.mp4	0.0	377.3413734436035	
59	264.70624232292175	fix_post	2		12	57.0	2.5	/experiments/Knapen_AOT/AOT_stimuli/rescaled_final/1807_rv.mp4	0.0	378.6660671234131	0.10005712509155273
60	264.8062994480133	fix_pre	0		120	58.0	2.5	/experiments/Knapen_AOT/AOT_stimuli/rescaled_final/0438_rv.mp4	0.0	378.76612424850464	1.008552074432373
60	264.9815638065338	pulse	0	t		58.0	2.5	/experiments/Knapen_AOT/AOT_stimuli/rescaled_final/0438_rv.mp4	0.0	378.94138860702515	
60	265.8148515224457	movie	1		266	58.0	2.5	/experiments/Knapen_AOT/AOT_stimuli/rescaled_final/0438_rv.mp4	0.0	379.774676322937	2.4919393062591553
60	266.58193802833557	pulse	1	t		58.0	2.5	/experiments/Knapen_AOT/AOT_stimuli/rescaled_final/0438_rv.mp4	0.0	380.5417628288269	
60	268.1816728115082	pulse	1	t		58.0	2.5	/experiments/Knapen_AOT/AOT_stimuli/rescaled_final/0438_rv.mp4	0.0	382.1414976119995	
60	268.30679082870483	fix_post	2		12	58.0	2.5	/experiments/Knapen_AOT/AOT_stimuli/rescaled_final/0438_rv.mp4	0.0	382.26661562919617	0.10001063346862793
61	268.40680146217346	fix_pre	0		120	59.0	2.5	/experiments/Knapen_AOT/AOT_stimuli/rescaled_final/1728_rv.mp4	0.0	382.3666262626648	1.0084989070892334
61	269.4153003692627	movie	1		270	59.0	2.5	/experiments/Knapen_AOT/AOT_stimuli/rescaled_final/1728_rv.mp4	0.0	383.375125169754	2.492011785507202
61	269.78160071372986	pulse	1	t		59.0	2.5	/experiments/Knapen_AOT/AOT_stimuli/rescaled_final/1728_rv.mp4	0.0	383.7414255142212	
61	271.38256192207336	pulse	1	t		59.0	2.5	/experiments/Knapen_AOT/AOT_stimuli/rescaled_final/1728_rv.mp4	0.0	385.3423867225647	
61	271.9073121547699	fix_post	2		12	59.0	2.5	/experiments/Knapen_AOT/AOT_stimuli/rescaled_final/1728_rv.mp4	0.0	385.86713695526123	0.10002398490905762
62	272.00733613967896	fix_pre	0		118	60.0	2.5	/experiments/Knapen_AOT/AOT_stimuli/rescaled_final/1634_fw.mp4	0.0	385.9671609401703	1.0002942085266113
62	272.98274874687195	pulse	0	t		60.0	2.5	/experiments/Knapen_AOT/AOT_stimuli/rescaled_final/1634_fw.mp4	0.0	386.9425735473633	
62	273.00763034820557	movie	1		279	60.0	2.5	/experiments/Knapen_AOT/AOT_stimuli/rescaled_final/1634_fw.mp4	0.0	386.9674551486969	2.4919233322143555
62	274.5813784599304	pulse	1	t		60.0	2.5	/experiments/Knapen_AOT/AOT_stimuli/rescaled_final/1634_fw.mp4	0.0	388.54120326042175	
62	275.4995536804199	fix_post	2		12	60.0	2.5	/experiments/Knapen_AOT/AOT_stimuli/rescaled_final/1634_fw.mp4	0.0	389.45937848091125	0.09998917579650879
63	275.59954285621643	fix_pre	0		120	61.0	2.5	blank	1.0	389.55936765670776	1.000159502029419
63	276.18318486213684	pulse	0	t		61.0	2.5	blank	1.0	390.1430096626282	
63	276.59970235824585	movie	1		300	61.0	2.5	blank	1.0	390.5595271587372	2.500366687774658
63	277.7834370136261	pulse	1	t		61.0	2.5	blank	1.0	391.74326181411743	
63	279.1000690460205	fix_post	2		12	61.0	2.5	blank	1.0	393.05989384651184	0.10001182556152344
64	279.20008087158203	fix_pre	0		120	62.0	2.5	/experiments/Knapen_AOT/AOT_stimuli/rescaled_final/0010_rv.mp4	0.0	393.15990567207336	1.008521318435669
64	279.38365960121155	pulse	0	t		62.0	2.5	/experiments/Knapen_AOT/AOT_stimuli/rescaled_final/0010_rv.mp4	0.0	393.3434844017029	
64	280.2086021900177	movie	1		281	62.0	2.5	/experiments/Knapen_AOT/AOT_stimuli/rescaled_final/0010_rv.mp4	0.0	394.16842699050903	2.4920880794525146
64	280.98230838775635	pulse	1	t		62.0	2.5	/experiments/Knapen_AOT/AOT_stimuli/rescaled_final/0010_rv.mp4	0.0	394.9421331882477	
64	282.5832438468933	pulse	1	t		62.0	2.5	/experiments/Knapen_AOT/AOT_stimuli/rescaled_final/0010_rv.mp4	0.0	396.54306864738464	
64	282.7006902694702	fix_post	2		12	62.0	2.5	/experiments/Knapen_AOT/AOT_stimuli/rescaled_final/0010_rv.mp4	0.0	396.66051506996155	0.09992742538452148
65	282.80061769485474	fix_pre	0		120	63.0	2.5	/experiments/Knapen_AOT/AOT_stimuli/rescaled_final/1781_rv.mp4	0.0	396.76044249534607	1.0085132122039795
65	283.8091309070587	movie	1		275	63.0	2.5	/experiments/Knapen_AOT/AOT_stimuli/rescaled_final/1781_rv.mp4	0.0	397.76895570755005	2.4920520782470703
65	284.1833550930023	pulse	1	t		63.0	2.5	/experiments/Knapen_AOT/AOT_stimuli/rescaled_final/1781_rv.mp4	0.0	398.14317989349365	
65	285.78313302993774	pulse	1	t		63.0	2.5	/experiments/Knapen_AOT/AOT_stimuli/rescaled_final/1781_rv.mp4	0.0	399.7429578304291	
65	286.3011829853058	fix_post	2		12	63.0	2.5	/experiments/Knapen_AOT/AOT_stimuli/rescaled_final/1781_rv.mp4	0.0	400.2610077857971	0.09999585151672363
66	286.4011788368225	fix_pre	0		119	64.0	2.5	/experiments/Knapen_AOT/AOT_stimuli/rescaled_final/1250_rv.mp4	0.0	400.36100363731384	1.0002529621124268
66	287.384991645813	pulse	0	t		64.0	2.5	/experiments/Knapen_AOT/AOT_stimuli/rescaled_final/1250_rv.mp4	0.0	401.3448164463043	
66	287.40143179893494	movie	1		272	64.0	2.5	/experiments/Knapen_AOT/AOT_stimuli/rescaled_final/1250_rv.mp4	0.0	401.36125659942627	2.500256299972534
66	288.9847502708435	pulse	1	t		64.0	2.5	/experiments/Knapen_AOT/AOT_stimuli/rescaled_final/1250_rv.mp4	0.0	402.94457507133484	
66	289.90168809890747	fix_post	2		12	64.0	2.5	/experiments/Knapen_AOT/AOT_stimuli/rescaled_final/1250_rv.mp4	0.0	403.8615128993988	0.10001397132873535
67	290.0017020702362	fix_pre	0		120	65.0	2.5	/experiments/Knapen_AOT/AOT_stimuli/rescaled_final/0462_fw.mp4	0.0	403.96152687072754	1.0085210800170898
67	290.58532547950745	pulse	0	t		65.0	2.5	/experiments/Knapen_AOT/AOT_stimuli/rescaled_final/0462_fw.mp4	0.0	404.5451502799988	
67	291.0102231502533	movie	1		266	65.0	2.5	/experiments/Knapen_AOT/AOT_stimuli/rescaled_final/0462_fw.mp4	0.0	404.97004795074463	2.492011547088623
67	292.18407678604126	pulse	1	t		65.0	2.5	/experiments/Knapen_AOT/AOT_stimuli/rescaled_final/0462_fw.mp4	0.0	406.1439015865326	
67	293.5022346973419	fix_post	2		12	65.0	2.5	/experiments/Knapen_AOT/AOT_stimuli/rescaled_final/0462_fw.mp4	0.0	407.46205949783325	0.10001397132873535
68	293.60224866867065	fix_pre	0		120	66.0	2.5	/experiments/Knapen_AOT/AOT_stimuli/rescaled_final/1376_rv.mp4	0.0	407.562073469162	1.008495569229126
68	293.78596782684326	pulse	0	t		66.0	2.5	/experiments/Knapen_AOT/AOT_stimuli/rescaled_final/1376_rv.mp4	0.0	407.7457926273346	
68	294.6107442378998	movie	1		278	66.0	2.5	/experiments/Knapen_AOT/AOT_stimuli/rescaled_final/1376_rv.mp4	0.0	408.5705690383911	2.4920525550842285
68	295.3841588497162	pulse	1	t		66.0	2.5	/experiments/Knapen_AOT/AOT_stimuli/rescaled_final/1376_rv.mp4	0.0	409.3439836502075	
68	296.9844756126404	pulse	1	t		66.0	2.5	/experiments/Knapen_AOT/AOT_stimuli/rescaled_final/1376_rv.mp4	0.0	410.9443004131317	
68	297.102796792984	fix_post	2		12	66.0	2.5	/experiments/Knapen_AOT/AOT_stimuli/rescaled_final/1376_rv.mp4	0.0	411.06262159347534	0.10005450248718262
69	297.2028512954712	fix_pre	0		120	67.0	2.5	/experiments/Knapen_AOT/AOT_stimuli/rescaled_final/1686_fw.mp4	0.0	411.1626760959625	1.0084483623504639
69	298.21129965782166	movie	1		262	67.0	2.5	/experiments/Knapen_AOT/AOT_stimuli/rescaled_final/1686_fw.mp4	0.0	412.171124458313	2.492018461227417
69	298.5849027633667	pulse	1	t		67.0	2.5	/experiments/Knapen_AOT/AOT_stimuli/rescaled_final/1686_fw.mp4	0.0	412.54472756385803	
69	300.1861243247986	pulse	1	t		67.0	2.5	/experiments/Knapen_AOT/AOT_stimuli/rescaled_final/1686_fw.mp4	0.0	414.1459491252899	
69	300.7033181190491	fix_post	2		12	67.0	2.5	/experiments/Knapen_AOT/AOT_stimuli/rescaled_final/1686_fw.mp4	0.0	414.6631429195404	0.1000509262084961
70	300.80336904525757	fix_pre	0		119	68.0	2.5	blank	1.0	414.7631938457489	0.991755485534668
70	301.78705167770386	pulse	0	t		68.0	2.5	blank	1.0	415.7468764781952	
70	301.79512453079224	movie	1		301	68.0	2.5	blank	1.0	415.75494933128357	2.5087342262268066
70	303.38728618621826	pulse	1	t		68.0	2.5	blank	1.0	417.3471109867096	
70	304.30385875701904	fix_post	2		12	68.0	2.5	blank	1.0	418.2636835575104	0.10000920295715332
71	304.4038679599762	fix_pre	0		120	69.0	2.5	/experiments/Knapen_AOT/AOT_stimuli/rescaled_final/1686_rv.mp4	0.0	418.36369276046753	1.0084850788116455
71	304.9875853061676	pulse	0	t		69.0	2.5	/experiments/Knapen_AOT/AOT_stimuli/rescaled_final/1686_rv.mp4	0.0	418.94741010665894	
71	305.41235303878784	movie	1		276	69.0	2.5	/experiments/Knapen_AOT/AOT_stimuli/rescaled_final/1686_rv.mp4	0.0	419.3721778392792	2.492043972015381
71	306.5865156650543	pulse	1	t		69.0	2.5	/experiments/Knapen_AOT/AOT_stimuli/rescaled_final/1686_rv.mp4	0.0	420.54634046554565	
71	307.9043970108032	fix_post	2		12	69.0	2.5	/experiments/Knapen_AOT/AOT_stimuli/rescaled_final/1686_rv.mp4	0.0	421.86422181129456	0.10001087188720703
72	308.00440788269043	fix_pre	0		120	70.0	2.5	/experiments/Knapen_AOT/AOT_stimuli/rescaled_final/1486_rv.mp4	0.0	421.96423268318176	1.0085906982421875
72	308.18801403045654	pulse	0	t		70.0	2.5	/experiments/Knapen_AOT/AOT_stimuli/rescaled_final/1486_rv.mp4	0.0	422.1478388309479	
72	309.0129985809326	movie	1		275	70.0	2.5	/experiments/Knapen_AOT/AOT_stimuli/rescaled_final/1486_rv.mp4	0.0	422.97282338142395	2.491940975189209
72	309.7873001098633	pulse	1	t		70.0	2.5	/experiments/Knapen_AOT/AOT_stimuli/rescaled_final/1486_rv.mp4	0.0	423.7471249103546	
72	311.38706278800964	pulse	1	t		70.0	2.5	/experiments/Knapen_AOT/AOT_stimuli/rescaled_final/1486_rv.mp4	0.0	425.346887588501	
72	311.5049395561218	fix_post	2		12	70.0	2.5	/experiments/Knapen_AOT/AOT_stimuli/rescaled_final/1486_rv.mp4	0.0	425.46476435661316	0.10010457038879395
73	311.6050441265106	fix_pre	0		120	71.0	2.5	/experiments/Knapen_AOT/AOT_stimuli/rescaled_final/1703_fw.mp4	0.0	425.56486892700195	1.008429765701294
73	312.6134738922119	movie	1		259	71.0	2.5	/experiments/Knapen_AOT/AOT_stimuli/rescaled_final/1703_fw.mp4	0.0	426.57329869270325	2.492039442062378
73	312.98717856407166	pulse	1	t		71.0	2.5	/experiments/Knapen_AOT/AOT_stimuli/rescaled_final/1703_fw.mp4	0.0	426.947003364563	
73	314.5891423225403	pulse	1	t		71.0	2.5	/experiments/Knapen_AOT/AOT_stimuli/rescaled_final/1703_fw.mp4	0.0	428.5489671230316	
73	315.1055133342743	fix_post	2		12	71.0	2.5	/experiments/Knapen_AOT/AOT_stimuli/rescaled_final/1703_fw.mp4	0.0	429.0653381347656	0.09998035430908203
74	315.2054936885834	fix_pre	0		119	72.0	2.5	/experiments/Knapen_AOT/AOT_stimuli/rescaled_final/2100_fw.mp4	0.0	429.1653184890747	1.00016450881958
74	316.1829905509949	pulse	0	t		72.0	2.5	/experiments/Knapen_AOT/AOT_stimuli/rescaled_final/2100_fw.mp4	0.0	430.1428153514862	
74	316.20565819740295	movie	1		274	72.0	2.5	/experiments/Knapen_AOT/AOT_stimuli/rescaled_final/2100_fw.mp4	0.0	430.1654829978943	2.500356912612915
74	317.78822088241577	pulse	1	t		72.0	2.5	/experiments/Knapen_AOT/AOT_stimuli/rescaled_final/2100_fw.mp4	0.0	431.7480456829071	
74	318.70601511001587	fix_post	2		12	72.0	2.5	/experiments/Knapen_AOT/AOT_stimuli/rescaled_final/2100_fw.mp4	0.0	432.6658399105072	0.09999561309814453
75	318.806010723114	fix_pre	0		120	73.0	2.5	/experiments/Knapen_AOT/AOT_stimuli/rescaled_final/0566_rv.mp4	0.0	432.76583552360535	1.0169429779052734
75	319.38178753852844	pulse	0	t		73.0	2.5	/experiments/Knapen_AOT/AOT_stimuli/rescaled_final/0566_rv.mp4	0.0	433.3416123390198	
75	319.8229537010193	movie	1		260	73.0	2.5	/experiments/Knapen_AOT/AOT_stimuli/rescaled_final/0566_rv.mp4	0.0	433.7827785015106	2.4836020469665527
75	320.98172545433044	pulse	1	t		73.0	2.5	/experiments/Knapen_AOT/AOT_stimuli/rescaled_final/0566_rv.mp4	0.0	434.9415502548218	
75	322.30655574798584	fix_post	2		12	73.0	2.5	/experiments/Knapen_AOT/AOT_stimuli/rescaled_final/0566_rv.mp4	0.0	436.2663805484772	0.10007977485656738
76	322.4066355228424	fix_pre	0		120	74.0	2.5	/experiments/Knapen_AOT/AOT_stimuli/rescaled_final/0299_fw.mp4	0.0	436.36646032333374	1.0084338188171387
76	322.5819396972656	pulse	0	t		74.0	2.5	/experiments/Knapen_AOT/AOT_stimuli/rescaled_final/0299_fw.mp4	0.0	436.54176449775696	
76	323.41506934165955	movie	1		273	74.0	2.5	/experiments/Knapen_AOT/AOT_stimuli/rescaled_final/0299_fw.mp4	0.0	437.3748941421509	2.492039442062378
76	324.18208479881287	pulse	1	t		74.0	2.5	/experiments/Knapen_AOT/AOT_stimuli/rescaled_final/0299_fw.mp4	0.0	438.1419095993042	
76	325.7823655605316	pulse	1	t		74.0	2.5	/experiments/Knapen_AOT/AOT_stimuli/rescaled_final/0299_fw.mp4	0.0	439.74219036102295	
76	325.9071087837219	fix_post	2		12	74.0	2.5	/experiments/Knapen_AOT/AOT_stimuli/rescaled_final/0299_fw.mp4	0.0	439.86693358421326	0.10002851486206055
77	326.007137298584	fix_pre	0		120	75.0	2.5	/experiments/Knapen_AOT/AOT_stimuli/rescaled_final/0054_rv.mp4	0.0	439.9669620990753	1.008521556854248
77	327.01565885543823	movie	1		283	75.0	2.5	/experiments/Knapen_AOT/AOT_stimuli/rescaled_final/0054_rv.mp4	0.0	440.97548365592957	2.4920430183410645
77	327.38261914253235	pulse	1	t		75.0	2.5	/experiments/Knapen_AOT/AOT_stimuli/rescaled_final/0054_rv.mp4	0.0	441.3424439430237	
77	328.9829158782959	pulse	1	t		75.0	2.5	/experiments/Knapen_AOT/AOT_stimuli/rescaled_final/0054_rv.mp4	0.0	442.94274067878723	
77	329.5077018737793	fix_post	2		12	75.0	2.5	/experiments/Knapen_AOT/AOT_stimuli/rescaled_final/0054_rv.mp4	0.0	443.46752667427063	0.09997916221618652
78	329.6076810359955	fix_pre	0		118	76.0	2.5	/experiments/Knapen_AOT/AOT_stimuli/rescaled_final/0881_rv.mp4	0.0	443.5675058364868	0.991779088973999
78	330.58307671546936	pulse	0	t		76.0	2.5	/experiments/Knapen_AOT/AOT_stimuli/rescaled_final/0881_rv.mp4	0.0	444.5429015159607	
78	330.5994601249695	movie	1		270	76.0	2.5	/experiments/Knapen_AOT/AOT_stimuli/rescaled_final/0881_rv.mp4	0.0	444.5592849254608	2.500386953353882
78	332.1828317642212	pulse	1	t		76.0	2.5	/experiments/Knapen_AOT/AOT_stimuli/rescaled_final/0881_rv.mp4	0.0	446.1426565647125	
78	333.09984707832336	fix_post	2		12	76.0	2.5	/experiments/Knapen_AOT/AOT_stimuli/rescaled_final/0881_rv.mp4	0.0	447.0596718788147	0.1000356674194336
79	333.1998827457428	fix_pre	0		120	77.0	2.5	blank	1.0	447.15970754623413	1.0001404285430908
79	333.78358697891235	pulse	0	t		77.0	2.5	blank	1.0	447.7434117794037	
79	334.2000231742859	movie	1		300	77.0	2.5	blank	1.0	448.1598479747772	2.5003867149353027
79	335.3841772079468	pulse	1	t		77.0	2.5	blank	1.0	449.3440020084381	
79	336.7004098892212	fix_post	2		12	77.0	2.5	blank	1.0	450.6602346897125	0.09997963905334473
80	336.80038952827454	fix_pre	0		120	78.0	2.5	/experiments/Knapen_AOT/AOT_stimuli/rescaled_final/0483_rv.mp4	0.0	450.76021432876587	1.0085294246673584
80	336.9839656352997	pulse	0	t		78.0	2.5	/experiments/Knapen_AOT/AOT_stimuli/rescaled_final/0483_rv.mp4	0.0	450.943790435791	
80	337.8089189529419	movie	1		259	78.0	2.5	/experiments/Knapen_AOT/AOT_stimuli/rescaled_final/0483_rv.mp4	0.0	451.7687437534332	2.492011785507202
80	338.5828468799591	pulse	1	t		78.0	2.5	/experiments/Knapen_AOT/AOT_stimuli/rescaled_final/0483_rv.mp4	0.0	452.54267168045044	
80	340.1827964782715	pulse	1	t		78.0	2.5	/experiments/Knapen_AOT/AOT_stimuli/rescaled_final/0483_rv.mp4	0.0	454.1426212787628	
80	340.3009307384491	fix_post	2		12	78.0	2.5	/experiments/Knapen_AOT/AOT_stimuli/rescaled_final/0483_rv.mp4	0.0	454.26075553894043	0.09998416900634766
81	340.40091490745544	fix_pre	0		120	79.0	2.5	/experiments/Knapen_AOT/AOT_stimuli/rescaled_final/1766_rv.mp4	0.0	454.3607397079468	1.008514642715454
81	341.4094295501709	movie	1		258	79.0	2.5	/experiments/Knapen_AOT/AOT_stimuli/rescaled_final/1766_rv.mp4	0.0	455.36925435066223	2.492042064666748
81	341.78305435180664	pulse	1	t		79.0	2.5	/experiments/Knapen_AOT/AOT_stimuli/rescaled_final/1766_rv.mp4	0.0	455.742879152298	
81	343.3842034339905	pulse	1	t		79.0	2.5	/experiments/Knapen_AOT/AOT_stimuli/rescaled_final/1766_rv.mp4	0.0	457.3440282344818	
81	343.90147161483765	fix_post	2		12	79.0	2.5	/experiments/Knapen_AOT/AOT_stimuli/rescaled_final/1766_rv.mp4	0.0	457.861296415329	0.10004162788391113
82	344.00151324272156	fix_pre	0		119	80.0	2.5	/experiments/Knapen_AOT/AOT_stimuli/rescaled_final/1376_fw.mp4	0.0	457.9613380432129	1.0087394714355469
82	344.9852819442749	pulse	0	t		80.0	2.5	/experiments/Knapen_AOT/AOT_stimuli/rescaled_final/1376_fw.mp4	0.0	458.94510674476624	
82	345.0102527141571	movie	1		252	80.0	2.5	/experiments/Knapen_AOT/AOT_stimuli/rescaled_final/1376_fw.mp4	0.0	458.97007751464844	2.4917778968811035
82	346.58394598960876	pulse	1	t		80.0	2.5	/experiments/Knapen_AOT/AOT_stimuli/rescaled_final/1376_fw.mp4	0.0	460.5437707901001	
82	347.5020306110382	fix_post	2		12	80.0	2.5	/experiments/Knapen_AOT/AOT_stimuli/rescaled_final/1376_fw.mp4	0.0	461.46185541152954	0.10001039505004883
83	347.60204100608826	fix_pre	0		120	81.0	2.5	/experiments/Knapen_AOT/AOT_stimuli/rescaled_final/0020_rv.mp4	0.0	461.5618658065796	1.0085194110870361
83	348.18569564819336	pulse	0	t		81.0	2.5	/experiments/Knapen_AOT/AOT_stimuli/rescaled_final/0020_rv.mp4	0.0	462.1455204486847	
83	348.6105604171753	movie	1		265	81.0	2.5	/experiments/Knapen_AOT/AOT_stimuli/rescaled_final/0020_rv.mp4	0.0	462.5703852176666	2.492041826248169
83	349.7858054637909	pulse	1	t		81.0	2.5	/experiments/Knapen_AOT/AOT_stimuli/rescaled_final/0020_rv.mp4	0.0	463.7456302642822	
83	351.10260224342346	fix_post	2		12	81.0	2.5	/experiments/Knapen_AOT/AOT_stimuli/rescaled_final/0020_rv.mp4	0.0	465.0624270439148	0.10003781318664551
84	351.2026400566101	fix_pre	0		120	82.0	2.5	blank	1.0	465.16246485710144	1.0000908374786377
84	351.3862280845642	pulse	0	t		82.0	2.5	blank	1.0	465.34605288505554	
84	352.20273089408875	movie	1		300	82.0	2.5	blank	1.0	466.1625556945801	2.500398635864258
84	352.98667573928833	pulse	1	t		82.0	2.5	blank	1.0	466.94650053977966	
84	354.5866241455078	pulse	1	t		82.0	2.5	blank	1.0	468.54644894599915	
84	354.703129529953	fix_post	2		12	82.0	2.5	blank	1.0	468.66295433044434	0.1000051498413086
85	354.8031346797943	fix_pre	0		120	83.0	2.5	/experiments/Knapen_AOT/AOT_stimuli/rescaled_final/1140_rv.mp4	0.0	468.76295948028564	1.008484125137329
85	355.81161880493164	movie	1		272	83.0	2.5	/experiments/Knapen_AOT/AOT_stimuli/rescaled_final/1140_rv.mp4	0.0	469.771443605423	2.5004830360412598
85	356.1855754852295	pulse	1	t		83.0	2.5	/experiments/Knapen_AOT/AOT_stimuli/rescaled_final/1140_rv.mp4	0.0	470.1454002857208	
85	357.78553104400635	pulse	1	t		83.0	2.5	/experiments/Knapen_AOT/AOT_stimuli/rescaled_final/1140_rv.mp4	0.0	471.7453558444977	
85	358.3121018409729	fix_post	2		11	83.0	2.5	/experiments/Knapen_AOT/AOT_stimuli/rescaled_final/1140_rv.mp4	0.0	472.27192664146423	0.1250159740447998
87	358.4371178150177	stim	0		1711					472.39694261550903	14.260336875915527
87	359.38736176490784	pulse	0	t						473.34718656539917	
87	360.9876275062561	pulse	0	t						474.94745230674744	
87	362.5878155231476	pulse	0	t						476.5476403236389	
87	364.1882359981537	pulse	0	t						478.148060798645	
87	365.7814335823059	pulse	0	t						479.74125838279724	
87	367.3817706108093	pulse	0	t						481.34159541130066	
87	368.9810109138489	pulse	0	t						482.9408357143402	
87	370.5813720226288	pulse	0	t						484.5411968231201	
87	372.18101024627686	pulse	0	t						486.1408350467682	
