trial_nr	onset	event_type	phase	response	nr_frames	movie_index	movie_duration	movie_file	blank	onset_abs	duration
0	0.16664934158325195	stim	0		37					33.50992012023926	0.3080620765686035
0	0.4667236804962158	response	0	space						33.80999445915222	
1	0.47471141815185547	stim	0		4592					33.81798219680786	38.282859802246094
1	38.74792289733887	pulse	0	t						72.09119367599487	
1	38.75757122039795	stim	1		1716					72.10084199905396	14.30838942527771
1	40.33950448036194	pulse	1	t						73.68277525901794	
1	41.93948292732239	pulse	1	t						75.2827537059784	
1	43.5397834777832	pulse	1	t						76.88305425643921	
1	45.13208270072937	pulse	1	t						78.47535347938538	
1	46.73203492164612	pulse	1	t						80.07530570030212	
1	48.33208990097046	pulse	1	t						81.67536067962646	
1	49.93236231803894	pulse	1	t						83.27563309669495	
1	51.53260898590088	pulse	1	t						84.87587976455688	
2	53.06596064567566	fix_pre	0		9	0.0	2.5	/experiments/Knapen_AOT/AOT_stimuli/rescaled_final/0373_fw.mp4	0.0	86.40923142433167	0.09177374839782715
2	53.13293433189392	pulse	0	t		0.0	2.5	/experiments/Knapen_AOT/AOT_stimuli/rescaled_final/0373_fw.mp4	0.0	86.47620511054993	
2	53.157734394073486	movie	1		293	0.0	2.5	/experiments/Knapen_AOT/AOT_stimuli/rescaled_final/0373_fw.mp4	0.0	86.50100517272949	2.4919745922088623
2	54.73311233520508	pulse	1	t		0.0	2.5	/experiments/Knapen_AOT/AOT_stimuli/rescaled_final/0373_fw.mp4	0.0	88.07638311386108	
2	55.64970898628235	fix_post	2		12	0.0	2.5	/experiments/Knapen_AOT/AOT_stimuli/rescaled_final/0373_fw.mp4	0.0	88.99297976493835	0.10005736351013184
3	55.74976634979248	fix_pre	0		120	1.0	2.5	/experiments/Knapen_AOT/AOT_stimuli/rescaled_final/1832_fw.mp4	0.0	89.09303712844849	1.0084781646728516
3	56.33370900154114	pulse	0	t		1.0	2.5	/experiments/Knapen_AOT/AOT_stimuli/rescaled_final/1832_fw.mp4	0.0	89.67697978019714	
3	56.75824451446533	movie	1		287	1.0	2.5	/experiments/Knapen_AOT/AOT_stimuli/rescaled_final/1832_fw.mp4	0.0	90.10151529312134	2.4919826984405518
3	57.933613777160645	pulse	1	t		1.0	2.5	/experiments/Knapen_AOT/AOT_stimuli/rescaled_final/1832_fw.mp4	0.0	91.27688455581665	
3	59.250227212905884	fix_post	2		12	1.0	2.5	/experiments/Knapen_AOT/AOT_stimuli/rescaled_final/1832_fw.mp4	0.0	92.59349799156189	0.09999942779541016
4	59.350226640701294	fix_pre	0		120	2.0	2.5	/experiments/Knapen_AOT/AOT_stimuli/rescaled_final/0877_fw.mp4	0.0	92.6934974193573	1.0084893703460693
4	59.534263134002686	pulse	0	t		2.0	2.5	/experiments/Knapen_AOT/AOT_stimuli/rescaled_final/0877_fw.mp4	0.0	92.87753391265869	
4	60.35871601104736	movie	1		291	2.0	2.5	/experiments/Knapen_AOT/AOT_stimuli/rescaled_final/0877_fw.mp4	0.0	93.70198678970337	2.4920413494110107
4	61.133973360061646	pulse	1	t		2.0	2.5	/experiments/Knapen_AOT/AOT_stimuli/rescaled_final/0877_fw.mp4	0.0	94.47724413871765	
4	62.734286069869995	pulse	1	t		2.0	2.5	/experiments/Knapen_AOT/AOT_stimuli/rescaled_final/0877_fw.mp4	0.0	96.077556848526	
4	62.850757360458374	fix_post	2		12	2.0	2.5	/experiments/Knapen_AOT/AOT_stimuli/rescaled_final/0877_fw.mp4	0.0	96.19402813911438	0.10007143020629883
5	62.95082879066467	fix_pre	0		120	3.0	2.5	/experiments/Knapen_AOT/AOT_stimuli/rescaled_final/1726_rv.mp4	0.0	96.29409956932068	1.0084538459777832
5	63.959282636642456	movie	1		293	3.0	2.5	/experiments/Knapen_AOT/AOT_stimuli/rescaled_final/1726_rv.mp4	0.0	97.30255341529846	2.492015838623047
5	64.33268070220947	pulse	1	t		3.0	2.5	/experiments/Knapen_AOT/AOT_stimuli/rescaled_final/1726_rv.mp4	0.0	97.67595148086548	
5	65.932852268219	pulse	1	t		3.0	2.5	/experiments/Knapen_AOT/AOT_stimuli/rescaled_final/1726_rv.mp4	0.0	99.276123046875	
5	66.4512984752655	fix_post	2		12	3.0	2.5	/experiments/Knapen_AOT/AOT_stimuli/rescaled_final/1726_rv.mp4	0.0	99.79456925392151	0.10009098052978516
6	66.55138945579529	fix_pre	0		119	4.0	2.5	/experiments/Knapen_AOT/AOT_stimuli/rescaled_final/1902_rv.mp4	0.0	99.8946602344513	1.0001168251037598
6	67.53502106666565	pulse	0	t		4.0	2.5	/experiments/Knapen_AOT/AOT_stimuli/rescaled_final/1902_rv.mp4	0.0	100.87829184532166	
6	67.55150628089905	movie	1		292	4.0	2.5	/experiments/Knapen_AOT/AOT_stimuli/rescaled_final/1902_rv.mp4	0.0	100.89477705955505	2.500354528427124
6	69.13336682319641	pulse	1	t		4.0	2.5	/experiments/Knapen_AOT/AOT_stimuli/rescaled_final/1902_rv.mp4	0.0	102.47663760185242	
6	70.05186080932617	fix_post	2		12	4.0	2.5	/experiments/Knapen_AOT/AOT_stimuli/rescaled_final/1902_rv.mp4	0.0	103.39513158798218	0.10000014305114746
7	70.15186095237732	fix_pre	0		120	5.0	2.5	/experiments/Knapen_AOT/AOT_stimuli/rescaled_final/0040_fw.mp4	0.0	103.49513173103333	1.0085208415985107
7	70.73540616035461	pulse	0	t		5.0	2.5	/experiments/Knapen_AOT/AOT_stimuli/rescaled_final/0040_fw.mp4	0.0	104.07867693901062	
7	71.16038179397583	movie	1		290	5.0	2.5	/experiments/Knapen_AOT/AOT_stimuli/rescaled_final/0040_fw.mp4	0.0	104.50365257263184	2.4920029640197754
7	72.33372211456299	pulse	1	t		5.0	2.5	/experiments/Knapen_AOT/AOT_stimuli/rescaled_final/0040_fw.mp4	0.0	105.676992893219	
7	73.6523847579956	fix_post	2		12	5.0	2.5	/experiments/Knapen_AOT/AOT_stimuli/rescaled_final/0040_fw.mp4	0.0	106.99565553665161	0.10001468658447266
8	73.75239944458008	fix_pre	0		120	6.0	2.5	/experiments/Knapen_AOT/AOT_stimuli/rescaled_final/0590_fw.mp4	0.0	107.09567022323608	1.0085246562957764
8	73.93590688705444	pulse	0	t		6.0	2.5	/experiments/Knapen_AOT/AOT_stimuli/rescaled_final/0590_fw.mp4	0.0	107.27917766571045	
8	74.76092410087585	movie	1		293	6.0	2.5	/experiments/Knapen_AOT/AOT_stimuli/rescaled_final/0590_fw.mp4	0.0	108.10419487953186	2.4920194149017334
8	75.53407502174377	pulse	1	t		6.0	2.5	/experiments/Knapen_AOT/AOT_stimuli/rescaled_final/0590_fw.mp4	0.0	108.87734580039978	
8	77.13445520401001	pulse	1	t		6.0	2.5	/experiments/Knapen_AOT/AOT_stimuli/rescaled_final/0590_fw.mp4	0.0	110.47772598266602	
8	77.25294351577759	fix_post	2		12	6.0	2.5	/experiments/Knapen_AOT/AOT_stimuli/rescaled_final/0590_fw.mp4	0.0	110.5962142944336	0.1000516414642334
9	77.35299515724182	fix_pre	0		120	7.0	2.5	blank	1.0	110.69626593589783	1.0000858306884766
9	78.3530809879303	movie	1		300	7.0	2.5	blank	1.0	111.6963517665863	2.5004000663757324
9	78.7370867729187	pulse	1	t		7.0	2.5	blank	1.0	112.0803575515747	
9	80.33735513687134	pulse	1	t		7.0	2.5	blank	1.0	113.68062591552734	
9	80.85348105430603	fix_post	2		12	7.0	2.5	blank	1.0	114.19675183296204	0.10000181198120117
10	80.95348286628723	fix_pre	0		119	8.0	2.5	/experiments/Knapen_AOT/AOT_stimuli/rescaled_final/0145_rv.mp4	0.0	114.29675364494324	1.0001630783081055
10	81.937246799469	pulse	0	t		8.0	2.5	/experiments/Knapen_AOT/AOT_stimuli/rescaled_final/0145_rv.mp4	0.0	115.280517578125	
10	81.95364594459534	movie	1		294	8.0	2.5	/experiments/Knapen_AOT/AOT_stimuli/rescaled_final/0145_rv.mp4	0.0	115.29691672325134	2.5003647804260254
10	83.53577756881714	pulse	1	t		8.0	2.5	/experiments/Knapen_AOT/AOT_stimuli/rescaled_final/0145_rv.mp4	0.0	116.87904834747314	
10	84.45401072502136	fix_post	2		12	8.0	2.5	/experiments/Knapen_AOT/AOT_stimuli/rescaled_final/0145_rv.mp4	0.0	117.79728150367737	0.10002565383911133
11	84.55403637886047	fix_pre	0		120	9.0	2.5	/experiments/Knapen_AOT/AOT_stimuli/rescaled_final/2046_rv.mp4	0.0	117.89730715751648	1.0085101127624512
11	85.137624502182	pulse	0	t		9.0	2.5	/experiments/Knapen_AOT/AOT_stimuli/rescaled_final/2046_rv.mp4	0.0	118.48089528083801	
11	85.56254649162292	movie	1		286	9.0	2.5	/experiments/Knapen_AOT/AOT_stimuli/rescaled_final/2046_rv.mp4	0.0	118.90581727027893	2.492009162902832
11	86.73691534996033	pulse	1	t		9.0	2.5	/experiments/Knapen_AOT/AOT_stimuli/rescaled_final/2046_rv.mp4	0.0	120.08018612861633	
11	88.05455565452576	fix_post	2		12	9.0	2.5	/experiments/Knapen_AOT/AOT_stimuli/rescaled_final/2046_rv.mp4	0.0	121.39782643318176	0.10002279281616211
12	88.15457844734192	fix_pre	0		120	10.0	2.5	/experiments/Knapen_AOT/AOT_stimuli/rescaled_final/0145_rv.mp4	0.0	121.49784922599792	1.008500099182129
12	88.33815956115723	pulse	0	t		10.0	2.5	/experiments/Knapen_AOT/AOT_stimuli/rescaled_final/0145_rv.mp4	0.0	121.68143033981323	
12	89.16307854652405	movie	1		290	10.0	2.5	/experiments/Knapen_AOT/AOT_stimuli/rescaled_final/0145_rv.mp4	0.0	122.50634932518005	2.4920401573181152
12	89.9360556602478	pulse	1	t		10.0	2.5	/experiments/Knapen_AOT/AOT_stimuli/rescaled_final/0145_rv.mp4	0.0	123.27932643890381	
12	91.53659009933472	pulse	1	t		10.0	2.5	/experiments/Knapen_AOT/AOT_stimuli/rescaled_final/0145_rv.mp4	0.0	124.87986087799072	
12	91.65511870384216	fix_post	2		12	10.0	2.5	/experiments/Knapen_AOT/AOT_stimuli/rescaled_final/0145_rv.mp4	0.0	124.99838948249817	0.10000777244567871
13	91.75512647628784	fix_pre	0		120	11.0	2.5	/experiments/Knapen_AOT/AOT_stimuli/rescaled_final/0693_rv.mp4	0.0	125.09839725494385	1.008474588394165
13	92.763601064682	movie	1		291	11.0	2.5	/experiments/Knapen_AOT/AOT_stimuli/rescaled_final/0693_rv.mp4	0.0	126.10687184333801	2.4920198917388916
13	93.13710117340088	pulse	1	t		11.0	2.5	/experiments/Knapen_AOT/AOT_stimuli/rescaled_final/0693_rv.mp4	0.0	126.48037195205688	
13	94.73687148094177	pulse	1	t		11.0	2.5	/experiments/Knapen_AOT/AOT_stimuli/rescaled_final/0693_rv.mp4	0.0	128.08014225959778	
13	95.2556209564209	fix_post	2		12	11.0	2.5	/experiments/Knapen_AOT/AOT_stimuli/rescaled_final/0693_rv.mp4	0.0	128.5988917350769	0.1001594066619873
14	95.35578036308289	fix_pre	0		119	12.0	2.5	/experiments/Knapen_AOT/AOT_stimuli/rescaled_final/0021_fw.mp4	0.0	128.6990511417389	1.0001468658447266
14	96.33134293556213	pulse	0	t		12.0	2.5	/experiments/Knapen_AOT/AOT_stimuli/rescaled_final/0021_fw.mp4	0.0	129.67461371421814	
14	96.35592722892761	movie	1		293	12.0	2.5	/experiments/Knapen_AOT/AOT_stimuli/rescaled_final/0021_fw.mp4	0.0	129.69919800758362	2.500264883041382
14	97.93138551712036	pulse	1	t		12.0	2.5	/experiments/Knapen_AOT/AOT_stimuli/rescaled_final/0021_fw.mp4	0.0	131.27465629577637	
14	98.856192111969	fix_post	2		12	12.0	2.5	/experiments/Knapen_AOT/AOT_stimuli/rescaled_final/0021_fw.mp4	0.0	132.199462890625	0.10003042221069336
15	98.95622253417969	fix_pre	0		120	13.0	2.5	blank	1.0	132.2994933128357	1.0001342296600342
15	99.53149557113647	pulse	0	t		13.0	2.5	blank	1.0	132.87476634979248	
15	99.95635676383972	movie	1		300	13.0	2.5	blank	1.0	133.29962754249573	2.5003583431243896
15	101.13171243667603	pulse	1	t		13.0	2.5	blank	1.0	134.47498321533203	
15	102.45671510696411	fix_post	2		12	13.0	2.5	blank	1.0	135.79998588562012	0.10007214546203613
16	102.55678725242615	fix_pre	0		120	14.0	2.5	/experiments/Knapen_AOT/AOT_stimuli/rescaled_final/0390_rv.mp4	0.0	135.90005803108215	1.0084640979766846
16	102.7319495677948	pulse	0	t		14.0	2.5	/experiments/Knapen_AOT/AOT_stimuli/rescaled_final/0390_rv.mp4	0.0	136.0752203464508	
16	103.56525135040283	movie	1		290	14.0	2.5	/experiments/Knapen_AOT/AOT_stimuli/rescaled_final/0390_rv.mp4	0.0	136.90852212905884	2.4920012950897217
16	104.3322286605835	pulse	1	t		14.0	2.5	/experiments/Knapen_AOT/AOT_stimuli/rescaled_final/0390_rv.mp4	0.0	137.6754994392395	
16	105.93238973617554	pulse	1	t		14.0	2.5	/experiments/Knapen_AOT/AOT_stimuli/rescaled_final/0390_rv.mp4	0.0	139.27566051483154	
16	106.05725264549255	fix_post	2		12	14.0	2.5	/experiments/Knapen_AOT/AOT_stimuli/rescaled_final/0390_rv.mp4	0.0	139.40052342414856	0.10002636909484863
17	106.1572790145874	fix_pre	0		120	15.0	2.5	/experiments/Knapen_AOT/AOT_stimuli/rescaled_final/0691_fw.mp4	0.0	139.5005497932434	1.008497953414917
17	107.16577696800232	movie	1		284	15.0	2.5	/experiments/Knapen_AOT/AOT_stimuli/rescaled_final/0691_fw.mp4	0.0	140.50904774665833	2.492013931274414
17	107.53151226043701	pulse	1	t		15.0	2.5	/experiments/Knapen_AOT/AOT_stimuli/rescaled_final/0691_fw.mp4	0.0	140.87478303909302	
17	109.13285183906555	pulse	1	t		15.0	2.5	/experiments/Knapen_AOT/AOT_stimuli/rescaled_final/0691_fw.mp4	0.0	142.47612261772156	
17	109.65779089927673	fix_post	2		12	15.0	2.5	/experiments/Knapen_AOT/AOT_stimuli/rescaled_final/0691_fw.mp4	0.0	143.00106167793274	0.10002851486206055
18	109.7578194141388	fix_pre	0		118	16.0	2.5	/experiments/Knapen_AOT/AOT_stimuli/rescaled_final/0170_rv.mp4	0.0	143.1010901927948	0.9918427467346191
18	110.7330892086029	pulse	0	t		16.0	2.5	/experiments/Knapen_AOT/AOT_stimuli/rescaled_final/0170_rv.mp4	0.0	144.0763599872589	
18	110.74966216087341	movie	1		289	16.0	2.5	/experiments/Knapen_AOT/AOT_stimuli/rescaled_final/0170_rv.mp4	0.0	144.09293293952942	2.5003437995910645
18	112.33396506309509	pulse	1	t		16.0	2.5	/experiments/Knapen_AOT/AOT_stimuli/rescaled_final/0170_rv.mp4	0.0	145.6772358417511	
18	113.25000596046448	fix_post	2		12	16.0	2.5	/experiments/Knapen_AOT/AOT_stimuli/rescaled_final/0170_rv.mp4	0.0	146.59327673912048	0.10002350807189941
19	113.35002946853638	fix_pre	0		120	17.0	2.5	/experiments/Knapen_AOT/AOT_stimuli/rescaled_final/1509_rv.mp4	0.0	146.69330024719238	1.0085070133209229
19	113.93366193771362	pulse	0	t		17.0	2.5	/experiments/Knapen_AOT/AOT_stimuli/rescaled_final/1509_rv.mp4	0.0	147.27693271636963	
19	114.3585364818573	movie	1		293	17.0	2.5	/experiments/Knapen_AOT/AOT_stimuli/rescaled_final/1509_rv.mp4	0.0	147.7018072605133	2.492027997970581
19	115.53193259239197	pulse	1	t		17.0	2.5	/experiments/Knapen_AOT/AOT_stimuli/rescaled_final/1509_rv.mp4	0.0	148.87520337104797	
19	116.85056447982788	fix_post	2		12	17.0	2.5	/experiments/Knapen_AOT/AOT_stimuli/rescaled_final/1509_rv.mp4	0.0	150.1938352584839	0.10000181198120117
20	116.95056629180908	fix_pre	0		120	18.0	2.5	/experiments/Knapen_AOT/AOT_stimuli/rescaled_final/0590_fw.mp4	0.0	150.2938370704651	1.008484125137329
20	117.13405585289001	pulse	0	t		18.0	2.5	/experiments/Knapen_AOT/AOT_stimuli/rescaled_final/0590_fw.mp4	0.0	150.47732663154602	
20	117.95905041694641	movie	1		294	18.0	2.5	/experiments/Knapen_AOT/AOT_stimuli/rescaled_final/0590_fw.mp4	0.0	151.30232119560242	2.4920341968536377
20	118.73256850242615	pulse	1	t		18.0	2.5	/experiments/Knapen_AOT/AOT_stimuli/rescaled_final/0590_fw.mp4	0.0	152.07583928108215	
20	120.33258199691772	pulse	1	t		18.0	2.5	/experiments/Knapen_AOT/AOT_stimuli/rescaled_final/0590_fw.mp4	0.0	153.67585277557373	
20	120.45108461380005	fix_post	2		12	18.0	2.5	/experiments/Knapen_AOT/AOT_stimuli/rescaled_final/0590_fw.mp4	0.0	153.79435539245605	0.10002803802490234
21	120.55111265182495	fix_pre	0		120	19.0	2.5	blank	1.0	153.89438343048096	1.0001425743103027
21	121.55125522613525	movie	1		300	19.0	2.5	blank	1.0	154.89452600479126	2.500375270843506
21	121.93478631973267	pulse	1	t		19.0	2.5	blank	1.0	155.27805709838867	
21	123.53501200675964	pulse	1	t		19.0	2.5	blank	1.0	156.87828278541565	
21	124.05163049697876	fix_post	2		12	19.0	2.5	blank	1.0	157.39490127563477	0.10002708435058594
22	124.15165758132935	fix_pre	0		119	20.0	2.5	/experiments/Knapen_AOT/AOT_stimuli/rescaled_final/0687_fw.mp4	0.0	157.49492835998535	1.000260591506958
22	125.13528680801392	pulse	0	t		20.0	2.5	/experiments/Knapen_AOT/AOT_stimuli/rescaled_final/0687_fw.mp4	0.0	158.47855758666992	
22	125.1519181728363	movie	1		288	20.0	2.5	/experiments/Knapen_AOT/AOT_stimuli/rescaled_final/0687_fw.mp4	0.0	158.4951889514923	2.5002784729003906
22	126.73402667045593	pulse	1	t		20.0	2.5	/experiments/Knapen_AOT/AOT_stimuli/rescaled_final/0687_fw.mp4	0.0	160.07729744911194	
22	127.6521966457367	fix_post	2		12	20.0	2.5	/experiments/Knapen_AOT/AOT_stimuli/rescaled_final/0687_fw.mp4	0.0	160.9954674243927	0.09998321533203125
23	127.75217986106873	fix_pre	0		120	21.0	2.5	/experiments/Knapen_AOT/AOT_stimuli/rescaled_final/1169_fw.mp4	0.0	161.09545063972473	1.0084848403930664
23	128.33578062057495	pulse	0	t		21.0	2.5	/experiments/Knapen_AOT/AOT_stimuli/rescaled_final/1169_fw.mp4	0.0	161.67905139923096	
23	128.7606647014618	movie	1		284	21.0	2.5	/experiments/Knapen_AOT/AOT_stimuli/rescaled_final/1169_fw.mp4	0.0	162.1039354801178	2.492046594619751
23	129.93428230285645	pulse	1	t		21.0	2.5	/experiments/Knapen_AOT/AOT_stimuli/rescaled_final/1169_fw.mp4	0.0	163.27755308151245	
23	131.25271129608154	fix_post	2		12	21.0	2.5	/experiments/Knapen_AOT/AOT_stimuli/rescaled_final/1169_fw.mp4	0.0	164.59598207473755	0.10002565383911133
24	131.35273694992065	fix_pre	0		120	22.0	2.5	/experiments/Knapen_AOT/AOT_stimuli/rescaled_final/0401_fw.mp4	0.0	164.69600772857666	1.0084736347198486
24	131.53638648986816	pulse	0	t		22.0	2.5	/experiments/Knapen_AOT/AOT_stimuli/rescaled_final/0401_fw.mp4	0.0	164.87965726852417	
24	132.3612105846405	movie	1		288	22.0	2.5	/experiments/Knapen_AOT/AOT_stimuli/rescaled_final/0401_fw.mp4	0.0	165.7044813632965	2.492042303085327
24	133.134357213974	pulse	1	t		22.0	2.5	/experiments/Knapen_AOT/AOT_stimuli/rescaled_final/0401_fw.mp4	0.0	166.47762799263	
24	134.73489046096802	pulse	1	t		22.0	2.5	/experiments/Knapen_AOT/AOT_stimuli/rescaled_final/0401_fw.mp4	0.0	168.07816123962402	
24	134.85325288772583	fix_post	2		12	22.0	2.5	/experiments/Knapen_AOT/AOT_stimuli/rescaled_final/0401_fw.mp4	0.0	168.19652366638184	0.10005712509155273
25	134.95331001281738	fix_pre	0		120	23.0	2.5	/experiments/Knapen_AOT/AOT_stimuli/rescaled_final/0565_fw.mp4	0.0	168.2965807914734	1.008476972579956
25	135.96178698539734	movie	1		287	23.0	2.5	/experiments/Knapen_AOT/AOT_stimuli/rescaled_final/0565_fw.mp4	0.0	169.30505776405334	2.4920012950897217
25	136.3355255126953	pulse	1	t		23.0	2.5	/experiments/Knapen_AOT/AOT_stimuli/rescaled_final/0565_fw.mp4	0.0	169.67879629135132	
25	137.93533563613892	pulse	1	t		23.0	2.5	/experiments/Knapen_AOT/AOT_stimuli/rescaled_final/0565_fw.mp4	0.0	171.27860641479492	
25	138.45378828048706	fix_post	2		12	23.0	2.5	/experiments/Knapen_AOT/AOT_stimuli/rescaled_final/0565_fw.mp4	0.0	171.79705905914307	0.10002756118774414
26	138.5538158416748	fix_pre	0		119	24.0	2.5	/experiments/Knapen_AOT/AOT_stimuli/rescaled_final/0198_rv.mp4	0.0	171.8970866203308	1.000136375427246
26	139.5374355316162	pulse	0	t		24.0	2.5	/experiments/Knapen_AOT/AOT_stimuli/rescaled_final/0198_rv.mp4	0.0	172.88070631027222	
26	139.55395221710205	movie	1		294	24.0	2.5	/experiments/Knapen_AOT/AOT_stimuli/rescaled_final/0198_rv.mp4	0.0	172.89722299575806	2.5003764629364014
26	141.13772702217102	pulse	1	t		24.0	2.5	/experiments/Knapen_AOT/AOT_stimuli/rescaled_final/0198_rv.mp4	0.0	174.48099780082703	
26	142.05432868003845	fix_post	2		12	24.0	2.5	/experiments/Knapen_AOT/AOT_stimuli/rescaled_final/0198_rv.mp4	0.0	175.39759945869446	0.10002565383911133
27	142.15435433387756	fix_pre	0		120	25.0	2.5	/experiments/Knapen_AOT/AOT_stimuli/rescaled_final/1973_fw.mp4	0.0	175.49762511253357	1.0084962844848633
27	142.73789167404175	pulse	0	t		25.0	2.5	/experiments/Knapen_AOT/AOT_stimuli/rescaled_final/1973_fw.mp4	0.0	176.08116245269775	
27	143.16285061836243	movie	1		285	25.0	2.5	/experiments/Knapen_AOT/AOT_stimuli/rescaled_final/1973_fw.mp4	0.0	176.50612139701843	2.4920272827148438
27	144.33786845207214	pulse	1	t		25.0	2.5	/experiments/Knapen_AOT/AOT_stimuli/rescaled_final/1973_fw.mp4	0.0	177.68113923072815	
27	145.65487790107727	fix_post	2		12	25.0	2.5	/experiments/Knapen_AOT/AOT_stimuli/rescaled_final/1973_fw.mp4	0.0	178.99814867973328	0.10003542900085449
28	145.75491333007812	fix_pre	0		120	26.0	2.5	/experiments/Knapen_AOT/AOT_stimuli/rescaled_final/0107_rv.mp4	0.0	179.09818410873413	1.0085034370422363
28	145.9383783340454	pulse	0	t		26.0	2.5	/experiments/Knapen_AOT/AOT_stimuli/rescaled_final/0107_rv.mp4	0.0	179.28164911270142	
28	146.76341676712036	movie	1		290	26.0	2.5	/experiments/Knapen_AOT/AOT_stimuli/rescaled_final/0107_rv.mp4	0.0	180.10668754577637	2.4920215606689453
28	147.5366132259369	pulse	1	t		26.0	2.5	/experiments/Knapen_AOT/AOT_stimuli/rescaled_final/0107_rv.mp4	0.0	180.8798840045929	
28	149.13765621185303	pulse	1	t		26.0	2.5	/experiments/Knapen_AOT/AOT_stimuli/rescaled_final/0107_rv.mp4	0.0	182.48092699050903	
28	149.2554383277893	fix_post	2		12	26.0	2.5	/experiments/Knapen_AOT/AOT_stimuli/rescaled_final/0107_rv.mp4	0.0	182.5987091064453	0.09999442100524902
29	149.35543274879456	fix_pre	0		120	27.0	2.5	/experiments/Knapen_AOT/AOT_stimuli/rescaled_final/0021_fw.mp4	0.0	182.69870352745056	1.0085253715515137
29	150.36395812034607	movie	1		288	27.0	2.5	/experiments/Knapen_AOT/AOT_stimuli/rescaled_final/0021_fw.mp4	0.0	183.70722889900208	2.4920365810394287
29	150.73744344711304	pulse	1	t		27.0	2.5	/experiments/Knapen_AOT/AOT_stimuli/rescaled_final/0021_fw.mp4	0.0	184.08071422576904	
29	152.33732557296753	pulse	1	t		27.0	2.5	/experiments/Knapen_AOT/AOT_stimuli/rescaled_final/0021_fw.mp4	0.0	185.68059635162354	
29	152.8559947013855	fix_post	2		12	27.0	2.5	/experiments/Knapen_AOT/AOT_stimuli/rescaled_final/0021_fw.mp4	0.0	186.1992654800415	0.09998226165771484
30	152.9559769630432	fix_pre	0		119	28.0	2.5	blank	1.0	186.29924774169922	0.9918060302734375
30	153.9397258758545	pulse	0	t		28.0	2.5	blank	1.0	187.2829966545105	
30	153.94778299331665	movie	1		301	28.0	2.5	blank	1.0	187.29105377197266	2.5087170600891113
30	155.53197073936462	pulse	1	t		28.0	2.5	blank	1.0	188.87524151802063	
30	156.45650005340576	fix_post	2		12	28.0	2.5	blank	1.0	189.79977083206177	0.1000216007232666
31	156.55652165412903	fix_pre	0		120	29.0	2.5	/experiments/Knapen_AOT/AOT_stimuli/rescaled_final/0405_rv.mp4	0.0	189.89979243278503	1.0085322856903076
31	157.13187074661255	pulse	0	t		29.0	2.5	/experiments/Knapen_AOT/AOT_stimuli/rescaled_final/0405_rv.mp4	0.0	190.47514152526855	
31	157.56505393981934	movie	1		292	29.0	2.5	/experiments/Knapen_AOT/AOT_stimuli/rescaled_final/0405_rv.mp4	0.0	190.90832471847534	2.4919986724853516
31	158.73210215568542	pulse	1	t		29.0	2.5	/experiments/Knapen_AOT/AOT_stimuli/rescaled_final/0405_rv.mp4	0.0	192.07537293434143	
31	160.0570526123047	fix_post	2		12	29.0	2.5	/experiments/Knapen_AOT/AOT_stimuli/rescaled_final/0405_rv.mp4	0.0	193.4003233909607	0.09998106956481934
32	160.1570336818695	fix_pre	0		120	30.0	2.5	/experiments/Knapen_AOT/AOT_stimuli/rescaled_final/0978_fw.mp4	0.0	193.5003044605255	1.00852370262146
32	160.33239698410034	pulse	0	t		30.0	2.5	/experiments/Knapen_AOT/AOT_stimuli/rescaled_final/0978_fw.mp4	0.0	193.67566776275635	
32	161.16555738449097	movie	1		290	30.0	2.5	/experiments/Knapen_AOT/AOT_stimuli/rescaled_final/0978_fw.mp4	0.0	194.50882816314697	2.492067575454712
32	161.93250560760498	pulse	1	t		30.0	2.5	/experiments/Knapen_AOT/AOT_stimuli/rescaled_final/0978_fw.mp4	0.0	195.275776386261	
32	163.53278255462646	pulse	1	t		30.0	2.5	/experiments/Knapen_AOT/AOT_stimuli/rescaled_final/0978_fw.mp4	0.0	196.87605333328247	
32	163.65762495994568	fix_post	2		12	30.0	2.5	/experiments/Knapen_AOT/AOT_stimuli/rescaled_final/0978_fw.mp4	0.0	197.00089573860168	0.09997129440307617
33	163.75759625434875	fix_pre	0		120	31.0	2.5	/experiments/Knapen_AOT/AOT_stimuli/rescaled_final/1508_rv.mp4	0.0	197.10086703300476	1.0085604190826416
33	164.7661566734314	movie	1		288	31.0	2.5	/experiments/Knapen_AOT/AOT_stimuli/rescaled_final/1508_rv.mp4	0.0	198.1094274520874	2.4919819831848145
33	165.1331808567047	pulse	1	t		31.0	2.5	/experiments/Knapen_AOT/AOT_stimuli/rescaled_final/1508_rv.mp4	0.0	198.47645163536072	
33	166.73319005966187	pulse	1	t		31.0	2.5	/experiments/Knapen_AOT/AOT_stimuli/rescaled_final/1508_rv.mp4	0.0	200.07646083831787	
33	167.2581386566162	fix_post	2		12	31.0	2.5	/experiments/Knapen_AOT/AOT_stimuli/rescaled_final/1508_rv.mp4	0.0	200.60140943527222	0.10000395774841309
34	167.35814261436462	fix_pre	0		118	32.0	2.5	/experiments/Knapen_AOT/AOT_stimuli/rescaled_final/2022_rv.mp4	0.0	200.70141339302063	0.9918365478515625
34	168.33345198631287	pulse	0	t		32.0	2.5	/experiments/Knapen_AOT/AOT_stimuli/rescaled_final/2022_rv.mp4	0.0	201.67672276496887	
34	168.3499791622162	movie	1		293	32.0	2.5	/experiments/Knapen_AOT/AOT_stimuli/rescaled_final/2022_rv.mp4	0.0	201.6932499408722	2.50034236907959
34	169.93218326568604	pulse	1	t		32.0	2.5	/experiments/Knapen_AOT/AOT_stimuli/rescaled_final/2022_rv.mp4	0.0	203.27545404434204	
34	170.85032153129578	fix_post	2		12	32.0	2.5	/experiments/Knapen_AOT/AOT_stimuli/rescaled_final/2022_rv.mp4	0.0	204.19359230995178	0.10004234313964844
35	170.95036387443542	fix_pre	0		120	33.0	2.5	/experiments/Knapen_AOT/AOT_stimuli/rescaled_final/1249_fw.mp4	0.0	204.29363465309143	1.0085015296936035
35	171.53398823738098	pulse	0	t		33.0	2.5	/experiments/Knapen_AOT/AOT_stimuli/rescaled_final/1249_fw.mp4	0.0	204.877259016037	
35	171.95886540412903	movie	1		285	33.0	2.5	/experiments/Knapen_AOT/AOT_stimuli/rescaled_final/1249_fw.mp4	0.0	205.30213618278503	2.492013454437256
35	173.13214421272278	pulse	1	t		33.0	2.5	/experiments/Knapen_AOT/AOT_stimuli/rescaled_final/1249_fw.mp4	0.0	206.47541499137878	
35	174.45087885856628	fix_post	2		12	33.0	2.5	/experiments/Knapen_AOT/AOT_stimuli/rescaled_final/1249_fw.mp4	0.0	207.7941496372223	0.1000051498413086
36	174.5508840084076	fix_pre	0		120	34.0	2.5	/experiments/Knapen_AOT/AOT_stimuli/rescaled_final/1673_fw.mp4	0.0	207.8941547870636	1.008554220199585
36	174.7344081401825	pulse	0	t		34.0	2.5	/experiments/Knapen_AOT/AOT_stimuli/rescaled_final/1673_fw.mp4	0.0	208.0776789188385	
36	175.55943822860718	movie	1		293	34.0	2.5	/experiments/Knapen_AOT/AOT_stimuli/rescaled_final/1673_fw.mp4	0.0	208.90270900726318	2.492058515548706
36	176.33260202407837	pulse	1	t		34.0	2.5	/experiments/Knapen_AOT/AOT_stimuli/rescaled_final/1673_fw.mp4	0.0	209.67587280273438	
36	177.93304681777954	pulse	1	t		34.0	2.5	/experiments/Knapen_AOT/AOT_stimuli/rescaled_final/1673_fw.mp4	0.0	211.27631759643555	
36	178.05149674415588	fix_post	2		12	34.0	2.5	/experiments/Knapen_AOT/AOT_stimuli/rescaled_final/1673_fw.mp4	0.0	211.3947675228119	0.09993338584899902
37	178.15143013000488	fix_pre	0		120	35.0	2.5	blank	1.0	211.4947009086609	1.0001726150512695
37	179.15160274505615	movie	1		300	35.0	2.5	blank	1.0	212.49487352371216	2.500347852706909
37	179.53510880470276	pulse	1	t		35.0	2.5	blank	1.0	212.87837958335876	
37	181.13532638549805	pulse	1	t		35.0	2.5	blank	1.0	214.47859716415405	
37	181.65195059776306	fix_post	2		12	35.0	2.5	blank	1.0	214.99522137641907	0.10001969337463379
38	181.7519702911377	fix_pre	0		119	36.0	2.5	/experiments/Knapen_AOT/AOT_stimuli/rescaled_final/0159_rv.mp4	0.0	215.0952410697937	1.008589506149292
38	182.73557496070862	pulse	0	t		36.0	2.5	/experiments/Knapen_AOT/AOT_stimuli/rescaled_final/0159_rv.mp4	0.0	216.07884573936462	
38	182.760559797287	movie	1		293	36.0	2.5	/experiments/Knapen_AOT/AOT_stimuli/rescaled_final/0159_rv.mp4	0.0	216.103830575943	2.491948366165161
38	184.33467864990234	pulse	1	t		36.0	2.5	/experiments/Knapen_AOT/AOT_stimuli/rescaled_final/0159_rv.mp4	0.0	217.67794942855835	
38	185.25250816345215	fix_post	2		12	36.0	2.5	/experiments/Knapen_AOT/AOT_stimuli/rescaled_final/0159_rv.mp4	0.0	218.59577894210815	0.10005331039428711
39	185.35256147384644	fix_pre	0		120	37.0	2.5	/experiments/Knapen_AOT/AOT_stimuli/rescaled_final/0565_fw.mp4	0.0	218.69583225250244	1.0085227489471436
39	185.93605184555054	pulse	0	t		37.0	2.5	/experiments/Knapen_AOT/AOT_stimuli/rescaled_final/0565_fw.mp4	0.0	219.27932262420654	
39	186.36108422279358	movie	1		292	37.0	2.5	/experiments/Knapen_AOT/AOT_stimuli/rescaled_final/0565_fw.mp4	0.0	219.70435500144958	2.4919333457946777
39	187.53472018241882	pulse	1	t		37.0	2.5	/experiments/Knapen_AOT/AOT_stimuli/rescaled_final/0565_fw.mp4	0.0	220.87799096107483	
39	188.85301756858826	fix_post	2		12	37.0	2.5	/experiments/Knapen_AOT/AOT_stimuli/rescaled_final/0565_fw.mp4	0.0	222.19628834724426	0.10001158714294434
40	188.9530291557312	fix_pre	0		120	38.0	2.5	/experiments/Knapen_AOT/AOT_stimuli/rescaled_final/1345_fw.mp4	0.0	222.2962999343872	1.000138759613037
40	189.13675355911255	pulse	0	t		38.0	2.5	/experiments/Knapen_AOT/AOT_stimuli/rescaled_final/1345_fw.mp4	0.0	222.48002433776855	
40	189.95316791534424	movie	1		294	38.0	2.5	/experiments/Knapen_AOT/AOT_stimuli/rescaled_final/1345_fw.mp4	0.0	223.29643869400024	2.5004444122314453
40	190.7323477268219	pulse	1	t		38.0	2.5	/experiments/Knapen_AOT/AOT_stimuli/rescaled_final/1345_fw.mp4	0.0	224.0756185054779	
40	192.33451128005981	pulse	1	t		38.0	2.5	/experiments/Knapen_AOT/AOT_stimuli/rescaled_final/1345_fw.mp4	0.0	225.67778205871582	
40	192.45361232757568	fix_post	2		12	38.0	2.5	/experiments/Knapen_AOT/AOT_stimuli/rescaled_final/1345_fw.mp4	0.0	225.7968831062317	0.0999908447265625
41	192.55360317230225	fix_pre	0		120	39.0	2.5	/experiments/Knapen_AOT/AOT_stimuli/rescaled_final/0615_fw.mp4	0.0	225.89687395095825	1.0084760189056396
41	193.56207919120789	movie	1		296	39.0	2.5	/experiments/Knapen_AOT/AOT_stimuli/rescaled_final/0615_fw.mp4	0.0	226.9053499698639	2.492055654525757
41	193.9365303516388	pulse	1	t		39.0	2.5	/experiments/Knapen_AOT/AOT_stimuli/rescaled_final/0615_fw.mp4	0.0	227.2798011302948	
41	195.53468823432922	pulse	1	t		39.0	2.5	/experiments/Knapen_AOT/AOT_stimuli/rescaled_final/0615_fw.mp4	0.0	228.87795901298523	
41	196.05413484573364	fix_post	2		12	39.0	2.5	/experiments/Knapen_AOT/AOT_stimuli/rescaled_final/0615_fw.mp4	0.0	229.39740562438965	0.09998226165771484
42	196.15411710739136	fix_pre	0		119	40.0	2.5	/experiments/Knapen_AOT/AOT_stimuli/rescaled_final/0971_rv.mp4	0.0	229.49738788604736	1.0002145767211914
42	197.13774180412292	pulse	0	t		40.0	2.5	/experiments/Knapen_AOT/AOT_stimuli/rescaled_final/0971_rv.mp4	0.0	230.48101258277893	
42	197.15433168411255	movie	1		292	40.0	2.5	/experiments/Knapen_AOT/AOT_stimuli/rescaled_final/0971_rv.mp4	0.0	230.49760246276855	2.5003163814544678
42	198.7366862297058	pulse	1	t		40.0	2.5	/experiments/Knapen_AOT/AOT_stimuli/rescaled_final/0971_rv.mp4	0.0	232.07995700836182	
42	199.65464806556702	fix_post	2		12	40.0	2.5	/experiments/Knapen_AOT/AOT_stimuli/rescaled_final/0971_rv.mp4	0.0	232.99791884422302	0.10003018379211426
43	199.75467824935913	fix_pre	0		120	41.0	2.5	blank	1.0	233.09794902801514	1.000187873840332
43	200.3382248878479	pulse	0	t		41.0	2.5	blank	1.0	233.6814956665039	
43	200.75486612319946	movie	1		300	41.0	2.5	blank	1.0	234.09813690185547	2.5003817081451416
43	201.9388473033905	pulse	1	t		41.0	2.5	blank	1.0	235.2821180820465	
43	203.2552478313446	fix_post	2		12	41.0	2.5	blank	1.0	236.5985186100006	0.09995436668395996
44	203.35520219802856	fix_pre	0		120	42.0	2.5	/experiments/Knapen_AOT/AOT_stimuli/rescaled_final/0159_fw.mp4	0.0	236.69847297668457	1.0085501670837402
44	203.53243780136108	pulse	0	t		42.0	2.5	/experiments/Knapen_AOT/AOT_stimuli/rescaled_final/0159_fw.mp4	0.0	236.8757085800171	
44	204.3637523651123	movie	1		283	42.0	2.5	/experiments/Knapen_AOT/AOT_stimuli/rescaled_final/0159_fw.mp4	0.0	237.7070231437683	2.4919986724853516
44	205.13722348213196	pulse	1	t		42.0	2.5	/experiments/Knapen_AOT/AOT_stimuli/rescaled_final/0159_fw.mp4	0.0	238.48049426078796	
44	206.73735642433167	pulse	1	t		42.0	2.5	/experiments/Knapen_AOT/AOT_stimuli/rescaled_final/0159_fw.mp4	0.0	240.08062720298767	
44	206.85575103759766	fix_post	2		12	42.0	2.5	/experiments/Knapen_AOT/AOT_stimuli/rescaled_final/0159_fw.mp4	0.0	240.19902181625366	0.10000729560852051
45	206.95575833320618	fix_pre	0		120	43.0	2.5	/experiments/Knapen_AOT/AOT_stimuli/rescaled_final/1664_fw.mp4	0.0	240.29902911186218	1.0084888935089111
45	207.9642472267151	movie	1		287	43.0	2.5	/experiments/Knapen_AOT/AOT_stimuli/rescaled_final/1664_fw.mp4	0.0	241.3075180053711	2.4922726154327393
45	208.3378369808197	pulse	1	t		43.0	2.5	/experiments/Knapen_AOT/AOT_stimuli/rescaled_final/1664_fw.mp4	0.0	241.6811077594757	
45	209.93740129470825	pulse	1	t		43.0	2.5	/experiments/Knapen_AOT/AOT_stimuli/rescaled_final/1664_fw.mp4	0.0	243.28067207336426	
45	210.45651984214783	fix_post	2		12	43.0	2.5	/experiments/Knapen_AOT/AOT_stimuli/rescaled_final/1664_fw.mp4	0.0	243.79979062080383	0.0997915267944336
46	210.55631136894226	fix_pre	0		119	44.0	2.5	/experiments/Knapen_AOT/AOT_stimuli/rescaled_final/1056_rv.mp4	0.0	243.89958214759827	1.0001637935638428
46	211.53993678092957	pulse	0	t		44.0	2.5	/experiments/Knapen_AOT/AOT_stimuli/rescaled_final/1056_rv.mp4	0.0	244.88320755958557	
46	211.5564751625061	movie	1		289	44.0	2.5	/experiments/Knapen_AOT/AOT_stimuli/rescaled_final/1056_rv.mp4	0.0	244.8997459411621	2.5003609657287598
46	213.13854336738586	pulse	1	t		44.0	2.5	/experiments/Knapen_AOT/AOT_stimuli/rescaled_final/1056_rv.mp4	0.0	246.48181414604187	
46	214.05683612823486	fix_post	2		12	44.0	2.5	/experiments/Knapen_AOT/AOT_stimuli/rescaled_final/1056_rv.mp4	0.0	247.40010690689087	0.1000204086303711
47	214.15685653686523	fix_pre	0		120	45.0	2.5	/experiments/Knapen_AOT/AOT_stimuli/rescaled_final/1968_fw.mp4	0.0	247.50012731552124	1.008495569229126
47	214.73235654830933	pulse	0	t		45.0	2.5	/experiments/Knapen_AOT/AOT_stimuli/rescaled_final/1968_fw.mp4	0.0	248.07562732696533	
47	215.16535210609436	movie	1		267	45.0	2.5	/experiments/Knapen_AOT/AOT_stimuli/rescaled_final/1968_fw.mp4	0.0	248.50862288475037	2.4920198917388916
47	216.33237957954407	pulse	1	t		45.0	2.5	/experiments/Knapen_AOT/AOT_stimuli/rescaled_final/1968_fw.mp4	0.0	249.67565035820007	
47	217.65737199783325	fix_post	2		12	45.0	2.5	/experiments/Knapen_AOT/AOT_stimuli/rescaled_final/1968_fw.mp4	0.0	251.00064277648926	0.10001254081726074
48	217.7573845386505	fix_pre	0		120	46.0	2.5	/experiments/Knapen_AOT/AOT_stimuli/rescaled_final/1485_rv.mp4	0.0	251.10065531730652	1.008516550064087
48	217.93274998664856	pulse	0	t		46.0	2.5	/experiments/Knapen_AOT/AOT_stimuli/rescaled_final/1485_rv.mp4	0.0	251.27602076530457	
48	218.7659010887146	movie	1		287	46.0	2.5	/experiments/Knapen_AOT/AOT_stimuli/rescaled_final/1485_rv.mp4	0.0	252.1091718673706	2.4920389652252197
48	219.53287267684937	pulse	1	t		46.0	2.5	/experiments/Knapen_AOT/AOT_stimuli/rescaled_final/1485_rv.mp4	0.0	252.87614345550537	
48	221.13315892219543	pulse	1	t		46.0	2.5	/experiments/Knapen_AOT/AOT_stimuli/rescaled_final/1485_rv.mp4	0.0	254.47642970085144	
48	221.25794005393982	fix_post	2		12	46.0	2.5	/experiments/Knapen_AOT/AOT_stimuli/rescaled_final/1485_rv.mp4	0.0	254.60121083259583	0.10002517700195312
49	221.35796523094177	fix_pre	0		120	47.0	2.5	blank	1.0	254.70123600959778	1.000115156173706
49	222.35808038711548	movie	1		300	47.0	2.5	blank	1.0	255.70135116577148	2.50036883354187
49	222.7333595752716	pulse	1	t		47.0	2.5	blank	1.0	256.0766303539276	
49	224.33359241485596	pulse	1	t		47.0	2.5	blank	1.0	257.67686319351196	
49	224.85844922065735	fix_post	2		12	47.0	2.5	blank	1.0	258.20171999931335	0.10003089904785156
50	224.9584801197052	fix_pre	0		118	48.0	2.5	/experiments/Knapen_AOT/AOT_stimuli/rescaled_final/0430_rv.mp4	0.0	258.3017508983612	0.9919548034667969
50	225.9338345527649	pulse	0	t		48.0	2.5	/experiments/Knapen_AOT/AOT_stimuli/rescaled_final/0430_rv.mp4	0.0	259.2771053314209	
50	225.950434923172	movie	1		290	48.0	2.5	/experiments/Knapen_AOT/AOT_stimuli/rescaled_final/0430_rv.mp4	0.0	259.293705701828	2.500372886657715
50	227.53277850151062	pulse	1	t		48.0	2.5	/experiments/Knapen_AOT/AOT_stimuli/rescaled_final/0430_rv.mp4	0.0	260.8760492801666	
50	228.4508078098297	fix_post	2		12	48.0	2.5	/experiments/Knapen_AOT/AOT_stimuli/rescaled_final/0430_rv.mp4	0.0	261.7940785884857	0.09988236427307129
51	228.55069017410278	fix_pre	0		120	49.0	2.5	/experiments/Knapen_AOT/AOT_stimuli/rescaled_final/1726_rv.mp4	0.0	261.8939609527588	1.0085337162017822
51	229.13439393043518	pulse	0	t		49.0	2.5	/experiments/Knapen_AOT/AOT_stimuli/rescaled_final/1726_rv.mp4	0.0	262.4776647090912	
51	229.55922389030457	movie	1		296	49.0	2.5	/experiments/Knapen_AOT/AOT_stimuli/rescaled_final/1726_rv.mp4	0.0	262.90249466896057	2.4920520782470703
51	230.73278093338013	pulse	1	t		49.0	2.5	/experiments/Knapen_AOT/AOT_stimuli/rescaled_final/1726_rv.mp4	0.0	264.07605171203613	
51	232.05127596855164	fix_post	2		12	49.0	2.5	/experiments/Knapen_AOT/AOT_stimuli/rescaled_final/1726_rv.mp4	0.0	265.39454674720764	0.09993767738342285
52	232.15121364593506	fix_pre	0		120	50.0	2.5	/experiments/Knapen_AOT/AOT_stimuli/rescaled_final/0430_fw.mp4	0.0	265.49448442459106	1.0085313320159912
52	232.33480954170227	pulse	0	t		50.0	2.5	/experiments/Knapen_AOT/AOT_stimuli/rescaled_final/0430_fw.mp4	0.0	265.6780803203583	
52	233.15974497795105	movie	1		290	50.0	2.5	/experiments/Knapen_AOT/AOT_stimuli/rescaled_final/0430_fw.mp4	0.0	266.50301575660706	2.4920151233673096
52	233.93306159973145	pulse	1	t		50.0	2.5	/experiments/Knapen_AOT/AOT_stimuli/rescaled_final/0430_fw.mp4	0.0	267.27633237838745	
52	235.53353428840637	pulse	1	t		50.0	2.5	/experiments/Knapen_AOT/AOT_stimuli/rescaled_final/0430_fw.mp4	0.0	268.8768050670624	
52	235.65176010131836	fix_post	2		12	50.0	2.5	/experiments/Knapen_AOT/AOT_stimuli/rescaled_final/0430_fw.mp4	0.0	268.99503087997437	0.10002470016479492
53	235.75178480148315	fix_pre	0		120	51.0	2.5	/experiments/Knapen_AOT/AOT_stimuli/rescaled_final/2100_fw.mp4	0.0	269.09505558013916	1.00850510597229
53	236.76028990745544	movie	1		282	51.0	2.5	/experiments/Knapen_AOT/AOT_stimuli/rescaled_final/2100_fw.mp4	0.0	270.10356068611145	2.491992473602295
53	237.1336269378662	pulse	1	t		51.0	2.5	/experiments/Knapen_AOT/AOT_stimuli/rescaled_final/2100_fw.mp4	0.0	270.4768977165222	
53	238.7335193157196	pulse	1	t		51.0	2.5	/experiments/Knapen_AOT/AOT_stimuli/rescaled_final/2100_fw.mp4	0.0	272.0767900943756	
53	239.25228238105774	fix_post	2		12	51.0	2.5	/experiments/Knapen_AOT/AOT_stimuli/rescaled_final/2100_fw.mp4	0.0	272.59555315971375	0.10005950927734375
54	239.35234189033508	fix_pre	0		119	52.0	2.5	/experiments/Knapen_AOT/AOT_stimuli/rescaled_final/1504_rv.mp4	0.0	272.6956126689911	1.0001347064971924
54	240.3360333442688	pulse	0	t		52.0	2.5	/experiments/Knapen_AOT/AOT_stimuli/rescaled_final/1504_rv.mp4	0.0	273.6793041229248	
54	240.35247659683228	movie	1		284	52.0	2.5	/experiments/Knapen_AOT/AOT_stimuli/rescaled_final/1504_rv.mp4	0.0	273.6957473754883	2.5003578662872314
54	241.9348006248474	pulse	1	t		52.0	2.5	/experiments/Knapen_AOT/AOT_stimuli/rescaled_final/1504_rv.mp4	0.0	275.2780714035034	
54	242.8528344631195	fix_post	2		12	52.0	2.5	/experiments/Knapen_AOT/AOT_stimuli/rescaled_final/1504_rv.mp4	0.0	276.1961052417755	0.10001945495605469
55	242.95285391807556	fix_pre	0		120	53.0	2.5	/experiments/Knapen_AOT/AOT_stimuli/rescaled_final/1586_rv.mp4	0.0	276.29612469673157	1.0085170269012451
55	243.53648567199707	pulse	0	t		53.0	2.5	/experiments/Knapen_AOT/AOT_stimuli/rescaled_final/1586_rv.mp4	0.0	276.8797564506531	
55	243.9613709449768	movie	1		287	53.0	2.5	/experiments/Knapen_AOT/AOT_stimuli/rescaled_final/1586_rv.mp4	0.0	277.3046417236328	2.491982936859131
55	245.1355013847351	pulse	1	t		53.0	2.5	/experiments/Knapen_AOT/AOT_stimuli/rescaled_final/1586_rv.mp4	0.0	278.4787721633911	
55	246.45335388183594	fix_post	2		12	53.0	2.5	/experiments/Knapen_AOT/AOT_stimuli/rescaled_final/1586_rv.mp4	0.0	279.79662466049194	0.10003829002380371
56	246.55339217185974	fix_pre	0		120	54.0	2.5	blank	1.0	279.89666295051575	1.0001981258392334
56	246.73706912994385	pulse	0	t		54.0	2.5	blank	1.0	280.08033990859985	
56	247.55359029769897	movie	1		300	54.0	2.5	blank	1.0	280.896861076355	2.500356435775757
56	248.33718752861023	pulse	1	t		54.0	2.5	blank	1.0	281.68045830726624	
56	249.9376139640808	pulse	1	t		54.0	2.5	blank	1.0	283.2808847427368	
56	250.05394673347473	fix_post	2		12	54.0	2.5	blank	1.0	283.39721751213074	0.10000061988830566
57	250.15394735336304	fix_pre	0		120	55.0	2.5	/experiments/Knapen_AOT/AOT_stimuli/rescaled_final/0977_rv.mp4	0.0	283.49721813201904	1.0084660053253174
57	251.16241335868835	movie	1		283	55.0	2.5	/experiments/Knapen_AOT/AOT_stimuli/rescaled_final/0977_rv.mp4	0.0	284.50568413734436	2.4920496940612793
57	251.53600239753723	pulse	1	t		55.0	2.5	/experiments/Knapen_AOT/AOT_stimuli/rescaled_final/0977_rv.mp4	0.0	284.87927317619324	
57	253.1361014842987	pulse	1	t		55.0	2.5	/experiments/Knapen_AOT/AOT_stimuli/rescaled_final/0977_rv.mp4	0.0	286.4793722629547	
57	253.65446305274963	fix_post	2		12	55.0	2.5	/experiments/Knapen_AOT/AOT_stimuli/rescaled_final/0977_rv.mp4	0.0	286.99773383140564	0.10010218620300293
58	253.75456523895264	fix_pre	0		119	56.0	2.5	/experiments/Knapen_AOT/AOT_stimuli/rescaled_final/1200_rv.mp4	0.0	287.09783601760864	1.0001704692840576
58	254.73821687698364	pulse	0	t		56.0	2.5	/experiments/Knapen_AOT/AOT_stimuli/rescaled_final/1200_rv.mp4	0.0	288.08148765563965	
58	254.7547357082367	movie	1		290	56.0	2.5	/experiments/Knapen_AOT/AOT_stimuli/rescaled_final/1200_rv.mp4	0.0	288.0980064868927	2.500274419784546
58	256.3380060195923	pulse	1	t		56.0	2.5	/experiments/Knapen_AOT/AOT_stimuli/rescaled_final/1200_rv.mp4	0.0	289.6812767982483	
58	257.25501012802124	fix_post	2		12	56.0	2.5	/experiments/Knapen_AOT/AOT_stimuli/rescaled_final/1200_rv.mp4	0.0	290.59828090667725	0.09999465942382812
59	257.35500478744507	fix_pre	0		120	57.0	2.5	/experiments/Knapen_AOT/AOT_stimuli/rescaled_final/1661_fw.mp4	0.0	290.6982755661011	1.0085208415985107
59	257.9387457370758	pulse	0	t		57.0	2.5	/experiments/Knapen_AOT/AOT_stimuli/rescaled_final/1661_fw.mp4	0.0	291.2820165157318	
59	258.3635256290436	movie	1		288	57.0	2.5	/experiments/Knapen_AOT/AOT_stimuli/rescaled_final/1661_fw.mp4	0.0	291.7067964076996	2.4920530319213867
59	259.5373969078064	pulse	1	t		57.0	2.5	/experiments/Knapen_AOT/AOT_stimuli/rescaled_final/1661_fw.mp4	0.0	292.8806676864624	
59	260.85557866096497	fix_post	2		12	57.0	2.5	/experiments/Knapen_AOT/AOT_stimuli/rescaled_final/1661_fw.mp4	0.0	294.198849439621	0.09998559951782227
60	260.9555642604828	fix_pre	0		120	58.0	2.5	/experiments/Knapen_AOT/AOT_stimuli/rescaled_final/0405_rv.mp4	0.0	294.2988350391388	1.008507490158081
60	261.13911509513855	pulse	0	t		58.0	2.5	/experiments/Knapen_AOT/AOT_stimuli/rescaled_final/0405_rv.mp4	0.0	294.48238587379456	
60	261.96407175064087	movie	1		284	58.0	2.5	/experiments/Knapen_AOT/AOT_stimuli/rescaled_final/0405_rv.mp4	0.0	295.3073425292969	2.49200701713562
60	262.737553358078	pulse	1	t		58.0	2.5	/experiments/Knapen_AOT/AOT_stimuli/rescaled_final/0405_rv.mp4	0.0	296.080824136734	
60	264.33747267723083	pulse	1	t		58.0	2.5	/experiments/Knapen_AOT/AOT_stimuli/rescaled_final/0405_rv.mp4	0.0	297.68074345588684	
60	264.4560787677765	fix_post	2		12	58.0	2.5	/experiments/Knapen_AOT/AOT_stimuli/rescaled_final/0405_rv.mp4	0.0	297.7993495464325	0.10002803802490234
61	264.5561068058014	fix_pre	0		120	59.0	2.5	/experiments/Knapen_AOT/AOT_stimuli/rescaled_final/1888_rv.mp4	0.0	297.8993775844574	1.0085232257843018
61	265.5646300315857	movie	1		292	59.0	2.5	/experiments/Knapen_AOT/AOT_stimuli/rescaled_final/1888_rv.mp4	0.0	298.9079008102417	2.492016077041626
61	265.93196535110474	pulse	1	t		59.0	2.5	/experiments/Knapen_AOT/AOT_stimuli/rescaled_final/1888_rv.mp4	0.0	299.27523612976074	
61	267.5318796634674	pulse	1	t		59.0	2.5	/experiments/Knapen_AOT/AOT_stimuli/rescaled_final/1888_rv.mp4	0.0	300.8751504421234	
61	268.0566461086273	fix_post	2		12	59.0	2.5	/experiments/Knapen_AOT/AOT_stimuli/rescaled_final/1888_rv.mp4	0.0	301.3999168872833	0.10001778602600098
62	268.1566638946533	fix_pre	0		118	60.0	2.5	/experiments/Knapen_AOT/AOT_stimuli/rescaled_final/1205_fw.mp4	0.0	301.4999346733093	0.9918334484100342
62	269.1319932937622	pulse	0	t		60.0	2.5	/experiments/Knapen_AOT/AOT_stimuli/rescaled_final/1205_fw.mp4	0.0	302.4752640724182	
62	269.14849734306335	movie	1		288	60.0	2.5	/experiments/Knapen_AOT/AOT_stimuli/rescaled_final/1205_fw.mp4	0.0	302.49176812171936	2.500309944152832
62	270.73232197761536	pulse	1	t		60.0	2.5	/experiments/Knapen_AOT/AOT_stimuli/rescaled_final/1205_fw.mp4	0.0	304.07559275627136	
62	271.6488072872162	fix_post	2		12	60.0	2.5	/experiments/Knapen_AOT/AOT_stimuli/rescaled_final/1205_fw.mp4	0.0	304.9920780658722	0.10004830360412598
63	271.7488555908203	fix_pre	0		120	61.0	2.5	blank	1.0	305.0921263694763	1.000121831893921
63	272.3325734138489	pulse	0	t		61.0	2.5	blank	1.0	305.6758441925049	
63	272.74897742271423	movie	1		300	61.0	2.5	blank	1.0	306.09224820137024	2.5003714561462402
63	273.9327392578125	pulse	1	t		61.0	2.5	blank	1.0	307.2760100364685	
63	275.2493488788605	fix_post	2		12	61.0	2.5	blank	1.0	308.5926196575165	0.1000053882598877
64	275.34935426712036	fix_pre	0		120	62.0	2.5	/experiments/Knapen_AOT/AOT_stimuli/rescaled_final/0977_fw.mp4	0.0	308.69262504577637	1.008528709411621
64	275.53305554389954	pulse	0	t		62.0	2.5	/experiments/Knapen_AOT/AOT_stimuli/rescaled_final/0977_fw.mp4	0.0	308.87632632255554	
64	276.357882976532	movie	1		284	62.0	2.5	/experiments/Knapen_AOT/AOT_stimuli/rescaled_final/0977_fw.mp4	0.0	309.701153755188	2.4921610355377197
64	277.1319613456726	pulse	1	t		62.0	2.5	/experiments/Knapen_AOT/AOT_stimuli/rescaled_final/0977_fw.mp4	0.0	310.4752321243286	
64	278.73339009284973	pulse	1	t		62.0	2.5	/experiments/Knapen_AOT/AOT_stimuli/rescaled_final/0977_fw.mp4	0.0	312.07666087150574	
64	278.8500440120697	fix_post	2		12	62.0	2.5	/experiments/Knapen_AOT/AOT_stimuli/rescaled_final/0977_fw.mp4	0.0	312.1933147907257	0.0999443531036377
65	278.94998836517334	fix_pre	0		120	63.0	2.5	/experiments/Knapen_AOT/AOT_stimuli/rescaled_final/1508_fw.mp4	0.0	312.29325914382935	1.0085158348083496
65	279.9585041999817	movie	1		291	63.0	2.5	/experiments/Knapen_AOT/AOT_stimuli/rescaled_final/1508_fw.mp4	0.0	313.3017749786377	2.5003819465637207
65	280.33394408226013	pulse	1	t		63.0	2.5	/experiments/Knapen_AOT/AOT_stimuli/rescaled_final/1508_fw.mp4	0.0	313.67721486091614	
65	281.9320685863495	pulse	1	t		63.0	2.5	/experiments/Knapen_AOT/AOT_stimuli/rescaled_final/1508_fw.mp4	0.0	315.2753393650055	
65	282.4588861465454	fix_post	2		11	63.0	2.5	/experiments/Knapen_AOT/AOT_stimuli/rescaled_final/1508_fw.mp4	0.0	315.8021569252014	0.09160304069519043
66	282.5504891872406	fix_pre	0		119	64.0	2.5	/experiments/Knapen_AOT/AOT_stimuli/rescaled_final/1505_fw.mp4	0.0	315.8937599658966	1.0001301765441895
66	283.53420209884644	pulse	0	t		64.0	2.5	/experiments/Knapen_AOT/AOT_stimuli/rescaled_final/1505_fw.mp4	0.0	316.87747287750244	
66	283.5506193637848	movie	1		292	64.0	2.5	/experiments/Knapen_AOT/AOT_stimuli/rescaled_final/1505_fw.mp4	0.0	316.8938901424408	2.500378370285034
66	285.133189201355	pulse	1	t		64.0	2.5	/experiments/Knapen_AOT/AOT_stimuli/rescaled_final/1505_fw.mp4	0.0	318.476459980011	
66	286.0509977340698	fix_post	2		12	64.0	2.5	/experiments/Knapen_AOT/AOT_stimuli/rescaled_final/1505_fw.mp4	0.0	319.39426851272583	0.10003924369812012
67	286.15103697776794	fix_pre	0		120	65.0	2.5	/experiments/Knapen_AOT/AOT_stimuli/rescaled_final/1257_rv.mp4	0.0	319.49430775642395	1.008500576019287
67	286.7346742153168	pulse	0	t		65.0	2.5	/experiments/Knapen_AOT/AOT_stimuli/rescaled_final/1257_rv.mp4	0.0	320.0779449939728	
67	287.15953755378723	movie	1		283	65.0	2.5	/experiments/Knapen_AOT/AOT_stimuli/rescaled_final/1257_rv.mp4	0.0	320.50280833244324	2.492068290710449
67	288.33572268486023	pulse	1	t		65.0	2.5	/experiments/Knapen_AOT/AOT_stimuli/rescaled_final/1257_rv.mp4	0.0	321.67899346351624	
67	289.6516058444977	fix_post	2		12	65.0	2.5	/experiments/Knapen_AOT/AOT_stimuli/rescaled_final/1257_rv.mp4	0.0	322.9948766231537	0.10008358955383301
68	289.7516894340515	fix_pre	0		120	66.0	2.5	/experiments/Knapen_AOT/AOT_stimuli/rescaled_final/0373_rv.mp4	0.0	323.0949602127075	1.0083324909210205
68	289.9351031780243	pulse	0	t		66.0	2.5	/experiments/Knapen_AOT/AOT_stimuli/rescaled_final/0373_rv.mp4	0.0	323.2783739566803	
68	290.76002192497253	movie	1		286	66.0	2.5	/experiments/Knapen_AOT/AOT_stimuli/rescaled_final/0373_rv.mp4	0.0	324.10329270362854	2.4920401573181152
68	291.5334162712097	pulse	1	t		66.0	2.5	/experiments/Knapen_AOT/AOT_stimuli/rescaled_final/0373_rv.mp4	0.0	324.8766870498657	
68	293.13376808166504	pulse	1	t		66.0	2.5	/experiments/Knapen_AOT/AOT_stimuli/rescaled_final/0373_rv.mp4	0.0	326.47703886032104	
68	293.25206208229065	fix_post	2		12	66.0	2.5	/experiments/Knapen_AOT/AOT_stimuli/rescaled_final/0373_rv.mp4	0.0	326.59533286094666	0.10007524490356445
69	293.3521373271942	fix_pre	0		120	67.0	2.5	/experiments/Knapen_AOT/AOT_stimuli/rescaled_final/0687_rv.mp4	0.0	326.6954081058502	1.008542776107788
69	294.360680103302	movie	1		284	67.0	2.5	/experiments/Knapen_AOT/AOT_stimuli/rescaled_final/0687_rv.mp4	0.0	327.703950881958	2.4919447898864746
69	294.73498725891113	pulse	1	t		67.0	2.5	/experiments/Knapen_AOT/AOT_stimuli/rescaled_final/0687_rv.mp4	0.0	328.07825803756714	
69	296.33381152153015	pulse	1	t		67.0	2.5	/experiments/Knapen_AOT/AOT_stimuli/rescaled_final/0687_rv.mp4	0.0	329.67708230018616	
69	296.8526248931885	fix_post	2		12	67.0	2.5	/experiments/Knapen_AOT/AOT_stimuli/rescaled_final/0687_rv.mp4	0.0	330.1958956718445	0.1000525951385498
70	296.952677488327	fix_pre	0		119	68.0	2.5	/experiments/Knapen_AOT/AOT_stimuli/rescaled_final/0440_rv.mp4	0.0	330.29594826698303	1.0000989437103271
70	297.9370667934418	pulse	0	t		68.0	2.5	/experiments/Knapen_AOT/AOT_stimuli/rescaled_final/0440_rv.mp4	0.0	331.2803375720978	
70	297.95277643203735	movie	1		291	68.0	2.5	/experiments/Knapen_AOT/AOT_stimuli/rescaled_final/0440_rv.mp4	0.0	331.29604721069336	2.500391721725464
70	299.53527903556824	pulse	1	t		68.0	2.5	/experiments/Knapen_AOT/AOT_stimuli/rescaled_final/0440_rv.mp4	0.0	332.87854981422424	
70	300.4531681537628	fix_post	2		12	68.0	2.5	/experiments/Knapen_AOT/AOT_stimuli/rescaled_final/0440_rv.mp4	0.0	333.7964389324188	0.10001111030578613
71	300.5531792640686	fix_pre	0		120	69.0	2.5	/experiments/Knapen_AOT/AOT_stimuli/rescaled_final/1654_fw.mp4	0.0	333.8964500427246	1.0085148811340332
71	301.1368215084076	pulse	0	t		69.0	2.5	/experiments/Knapen_AOT/AOT_stimuli/rescaled_final/1654_fw.mp4	0.0	334.4800922870636	
71	301.56169414520264	movie	1		283	69.0	2.5	/experiments/Knapen_AOT/AOT_stimuli/rescaled_final/1654_fw.mp4	0.0	334.90496492385864	2.4920623302459717
71	302.73511147499084	pulse	1	t		69.0	2.5	/experiments/Knapen_AOT/AOT_stimuli/rescaled_final/1654_fw.mp4	0.0	336.07838225364685	
71	304.0537564754486	fix_post	2		12	69.0	2.5	/experiments/Knapen_AOT/AOT_stimuli/rescaled_final/1654_fw.mp4	0.0	337.3970272541046	0.10000920295715332
72	304.15376567840576	fix_pre	0		120	70.0	2.5	blank	1.0	337.49703645706177	1.0001020431518555
72	304.33726382255554	pulse	0	t		70.0	2.5	blank	1.0	337.68053460121155	
72	305.1538677215576	movie	1		300	70.0	2.5	blank	1.0	338.4971385002136	2.500459909439087
72	305.93753123283386	pulse	1	t		70.0	2.5	blank	1.0	339.28080201148987	
72	307.5377995967865	pulse	1	t		70.0	2.5	blank	1.0	340.8810703754425	
72	307.6543276309967	fix_post	2		12	70.0	2.5	blank	1.0	340.9975984096527	0.09995293617248535
73	307.7542805671692	fix_pre	0		120	71.0	2.5	/experiments/Knapen_AOT/AOT_stimuli/rescaled_final/1586_fw.mp4	0.0	341.0975513458252	1.0084450244903564
73	308.76272559165955	movie	1		282	71.0	2.5	/experiments/Knapen_AOT/AOT_stimuli/rescaled_final/1586_fw.mp4	0.0	342.10599637031555	2.4921092987060547
73	309.1362977027893	pulse	1	t		71.0	2.5	/experiments/Knapen_AOT/AOT_stimuli/rescaled_final/1586_fw.mp4	0.0	342.4795684814453	
73	310.7364134788513	pulse	1	t		71.0	2.5	/experiments/Knapen_AOT/AOT_stimuli/rescaled_final/1586_fw.mp4	0.0	344.0796842575073	
73	311.2548348903656	fix_post	2		11	71.0	2.5	/experiments/Knapen_AOT/AOT_stimuli/rescaled_final/1586_fw.mp4	0.0	344.5981056690216	0.09995865821838379
74	311.354793548584	fix_pre	0		119	72.0	2.5	/experiments/Knapen_AOT/AOT_stimuli/rescaled_final/1509_fw.mp4	0.0	344.69806432724	1.00014066696167
74	312.33844804763794	pulse	0	t		72.0	2.5	/experiments/Knapen_AOT/AOT_stimuli/rescaled_final/1509_fw.mp4	0.0	345.68171882629395	
74	312.35493421554565	movie	1		279	72.0	2.5	/experiments/Knapen_AOT/AOT_stimuli/rescaled_final/1509_fw.mp4	0.0	345.69820499420166	2.5003836154937744
74	313.9375960826874	pulse	1	t		72.0	2.5	/experiments/Knapen_AOT/AOT_stimuli/rescaled_final/1509_fw.mp4	0.0	347.2808668613434	
74	314.85531783103943	fix_post	2		12	72.0	2.5	/experiments/Knapen_AOT/AOT_stimuli/rescaled_final/1509_fw.mp4	0.0	348.19858860969543	0.1000204086303711
75	314.9553382396698	fix_pre	0		120	73.0	2.5	/experiments/Knapen_AOT/AOT_stimuli/rescaled_final/1227_rv.mp4	0.0	348.2986090183258	1.0085303783416748
75	315.5389766693115	pulse	0	t		73.0	2.5	/experiments/Knapen_AOT/AOT_stimuli/rescaled_final/1227_rv.mp4	0.0	348.88224744796753	
75	315.9638686180115	movie	1		291	73.0	2.5	/experiments/Knapen_AOT/AOT_stimuli/rescaled_final/1227_rv.mp4	0.0	349.3071393966675	2.492011308670044
75	317.1374306678772	pulse	1	t		73.0	2.5	/experiments/Knapen_AOT/AOT_stimuli/rescaled_final/1227_rv.mp4	0.0	350.4807014465332	
75	318.4558799266815	fix_post	2		12	73.0	2.5	/experiments/Knapen_AOT/AOT_stimuli/rescaled_final/1227_rv.mp4	0.0	351.7991507053375	0.10009264945983887
76	318.55597257614136	fix_pre	0		120	74.0	2.5	/experiments/Knapen_AOT/AOT_stimuli/rescaled_final/1971_fw.mp4	0.0	351.89924335479736	1.008481502532959
76	318.73973178863525	pulse	0	t		74.0	2.5	/experiments/Knapen_AOT/AOT_stimuli/rescaled_final/1971_fw.mp4	0.0	352.08300256729126	
76	319.5644540786743	movie	1		288	74.0	2.5	/experiments/Knapen_AOT/AOT_stimuli/rescaled_final/1971_fw.mp4	0.0	352.9077248573303	2.49194598197937
76	320.3373951911926	pulse	1	t		74.0	2.5	/experiments/Knapen_AOT/AOT_stimuli/rescaled_final/1971_fw.mp4	0.0	353.68066596984863	
76	321.9381983280182	pulse	1	t		74.0	2.5	/experiments/Knapen_AOT/AOT_stimuli/rescaled_final/1971_fw.mp4	0.0	355.2814691066742	
76	322.0564000606537	fix_post	2		12	74.0	2.5	/experiments/Knapen_AOT/AOT_stimuli/rescaled_final/1971_fw.mp4	0.0	355.3996708393097	0.10001921653747559
77	322.15641927719116	fix_pre	0		120	75.0	2.5	/experiments/Knapen_AOT/AOT_stimuli/rescaled_final/0609_fw.mp4	0.0	355.49969005584717	1.0085172653198242
77	323.164936542511	movie	1		293	75.0	2.5	/experiments/Knapen_AOT/AOT_stimuli/rescaled_final/0609_fw.mp4	0.0	356.508207321167	2.4920082092285156
77	323.5384666919708	pulse	1	t		75.0	2.5	/experiments/Knapen_AOT/AOT_stimuli/rescaled_final/0609_fw.mp4	0.0	356.88173747062683	
77	325.132364988327	pulse	1	t		75.0	2.5	/experiments/Knapen_AOT/AOT_stimuli/rescaled_final/0609_fw.mp4	0.0	358.47563576698303	
77	325.6569447517395	fix_post	2		12	75.0	2.5	/experiments/Knapen_AOT/AOT_stimuli/rescaled_final/0609_fw.mp4	0.0	359.0002155303955	0.09998655319213867
78	325.75693130493164	fix_pre	0		118	76.0	2.5	blank	1.0	359.10020208358765	0.9835000038146973
78	326.73249220848083	pulse	0	t		76.0	2.5	blank	1.0	360.07576298713684	
78	326.74043130874634	movie	1		301	76.0	2.5	blank	1.0	360.08370208740234	2.5086920261383057
78	328.332594871521	pulse	1	t		76.0	2.5	blank	1.0	361.675865650177	
78	329.24912333488464	fix_post	2		12	76.0	2.5	blank	1.0	362.59239411354065	0.10005068778991699
79	329.34917402267456	fix_pre	0		120	77.0	2.5	/experiments/Knapen_AOT/AOT_stimuli/rescaled_final/1070_rv.mp4	0.0	362.69244480133057	1.0084669589996338
79	329.9328122138977	pulse	0	t		77.0	2.5	/experiments/Knapen_AOT/AOT_stimuli/rescaled_final/1070_rv.mp4	0.0	363.2760829925537	
79	330.3576409816742	movie	1		289	77.0	2.5	/experiments/Knapen_AOT/AOT_stimuli/rescaled_final/1070_rv.mp4	0.0	363.7009117603302	2.4920475482940674
79	331.53315591812134	pulse	1	t		77.0	2.5	/experiments/Knapen_AOT/AOT_stimuli/rescaled_final/1070_rv.mp4	0.0	364.87642669677734	
79	332.84968852996826	fix_post	2		12	77.0	2.5	/experiments/Knapen_AOT/AOT_stimuli/rescaled_final/1070_rv.mp4	0.0	366.19295930862427	0.1000375747680664
80	332.9497261047363	fix_pre	0		120	78.0	2.5	/experiments/Knapen_AOT/AOT_stimuli/rescaled_final/0591_rv.mp4	0.0	366.29299688339233	1.0085320472717285
80	333.13343119621277	pulse	0	t		78.0	2.5	/experiments/Knapen_AOT/AOT_stimuli/rescaled_final/0591_rv.mp4	0.0	366.4767019748688	
80	333.95825815200806	movie	1		284	78.0	2.5	/experiments/Knapen_AOT/AOT_stimuli/rescaled_final/0591_rv.mp4	0.0	367.30152893066406	2.491980791091919
80	334.73227739334106	pulse	1	t		78.0	2.5	/experiments/Knapen_AOT/AOT_stimuli/rescaled_final/0591_rv.mp4	0.0	368.07554817199707	
80	336.33370447158813	pulse	1	t		78.0	2.5	/experiments/Knapen_AOT/AOT_stimuli/rescaled_final/0591_rv.mp4	0.0	369.67697525024414	
80	336.4502389431	fix_post	2		12	78.0	2.5	/experiments/Knapen_AOT/AOT_stimuli/rescaled_final/0591_rv.mp4	0.0	369.793509721756	0.10006117820739746
81	336.5503001213074	fix_pre	0		120	79.0	2.5	/experiments/Knapen_AOT/AOT_stimuli/rescaled_final/0100_rv.mp4	0.0	369.8935708999634	1.00846266746521
81	337.5587627887726	movie	1		280	79.0	2.5	/experiments/Knapen_AOT/AOT_stimuli/rescaled_final/0100_rv.mp4	0.0	370.9020335674286	2.4920055866241455
81	337.9326477050781	pulse	1	t		79.0	2.5	/experiments/Knapen_AOT/AOT_stimuli/rescaled_final/0100_rv.mp4	0.0	371.27591848373413	
81	339.532258272171	pulse	1	t		79.0	2.5	/experiments/Knapen_AOT/AOT_stimuli/rescaled_final/0100_rv.mp4	0.0	372.875529050827	
81	340.05076837539673	fix_post	2		12	79.0	2.5	/experiments/Knapen_AOT/AOT_stimuli/rescaled_final/0100_rv.mp4	0.0	373.39403915405273	0.10001993179321289
82	340.15078830718994	fix_pre	0		119	80.0	2.5	/experiments/Knapen_AOT/AOT_stimuli/rescaled_final/2122_rv.mp4	0.0	373.49405908584595	1.0001678466796875
82	341.1344904899597	pulse	0	t		80.0	2.5	/experiments/Knapen_AOT/AOT_stimuli/rescaled_final/2122_rv.mp4	0.0	374.4777612686157	
82	341.15095615386963	movie	1		286	80.0	2.5	/experiments/Knapen_AOT/AOT_stimuli/rescaled_final/2122_rv.mp4	0.0	374.49422693252563	2.500380277633667
82	342.73350834846497	pulse	1	t		80.0	2.5	/experiments/Knapen_AOT/AOT_stimuli/rescaled_final/2122_rv.mp4	0.0	376.076779127121	
82	343.6513364315033	fix_post	2		12	80.0	2.5	/experiments/Knapen_AOT/AOT_stimuli/rescaled_final/2122_rv.mp4	0.0	376.9946072101593	0.09999847412109375
83	343.7513349056244	fix_pre	0		120	81.0	2.5	/experiments/Knapen_AOT/AOT_stimuli/rescaled_final/0978_rv.mp4	0.0	377.0946056842804	1.0085206031799316
83	344.3349997997284	pulse	0	t		81.0	2.5	/experiments/Knapen_AOT/AOT_stimuli/rescaled_final/0978_rv.mp4	0.0	377.6782705783844	
83	344.7598555088043	movie	1		290	81.0	2.5	/experiments/Knapen_AOT/AOT_stimuli/rescaled_final/0978_rv.mp4	0.0	378.1031262874603	2.492021083831787
83	345.93360924720764	pulse	1	t		81.0	2.5	/experiments/Knapen_AOT/AOT_stimuli/rescaled_final/0978_rv.mp4	0.0	379.27688002586365	
83	347.2518765926361	fix_post	2		12	81.0	2.5	/experiments/Knapen_AOT/AOT_stimuli/rescaled_final/0978_rv.mp4	0.0	380.5951473712921	0.10000157356262207
84	347.35187816619873	fix_pre	0		120	82.0	2.5	blank	1.0	380.69514894485474	1.000152587890625
84	347.5357925891876	pulse	0	t		82.0	2.5	blank	1.0	380.8790633678436	
84	348.35203075408936	movie	1		300	82.0	2.5	blank	1.0	381.69530153274536	2.500394105911255
84	349.1358799934387	pulse	1	t		82.0	2.5	blank	1.0	382.4791507720947	
84	350.73622012138367	pulse	1	t		82.0	2.5	blank	1.0	384.0794909000397	
84	350.8524248600006	fix_post	2		12	82.0	2.5	blank	1.0	384.1956956386566	0.09997320175170898
85	350.9523980617523	fix_pre	0		120	83.0	2.5	/experiments/Knapen_AOT/AOT_stimuli/rescaled_final/1832_rv.mp4	0.0	384.2956688404083	1.008584976196289
85	351.9609830379486	movie	1		277	83.0	2.5	/experiments/Knapen_AOT/AOT_stimuli/rescaled_final/1832_rv.mp4	0.0	385.3042538166046	2.491955280303955
85	352.3358051776886	pulse	1	t		83.0	2.5	/experiments/Knapen_AOT/AOT_stimuli/rescaled_final/1832_rv.mp4	0.0	385.6790759563446	
85	353.9345118999481	pulse	1	t		83.0	2.5	/experiments/Knapen_AOT/AOT_stimuli/rescaled_final/1832_rv.mp4	0.0	387.2777826786041	
85	354.45293831825256	fix_post	2		12	83.0	2.5	/experiments/Knapen_AOT/AOT_stimuli/rescaled_final/1832_rv.mp4	0.0	387.79620909690857	0.09999394416809082
87	354.55293226242065	stim	0		1715					387.89620304107666	14.293821334838867
87	355.53675079345703	pulse	0	t						388.88002157211304	
87	357.13707995414734	pulse	0	t						390.48035073280334	
87	358.7374122142792	pulse	0	t						392.0806829929352	
87	360.33770203590393	pulse	0	t						393.68097281455994	
87	361.93795824050903	pulse	0	t						395.28122901916504	
87	363.53796339035034	pulse	0	t						396.88123416900635	
87	365.138151884079	pulse	0	t						398.481422662735	
87	366.7383496761322	pulse	0	t						400.0816204547882	
87	368.33864879608154	pulse	0	t						401.68191957473755	
