trial_nr	onset	event_type	phase	response	nr_frames	movie_index	movie_duration	movie_file	blank	onset_abs	duration
0	0.19996094703674316	stim	0		15					17.962328910827637	0.12485814094543457
0	0.3167600631713867	response	0	space						18.07912802696228	
1	0.32481908798217773	stim	0		4705					18.08718705177307	39.22713088989258
1	39.53693699836731	pulse	0	t						57.2993049621582	
1	39.551949977874756	stim	1		1715					57.31431794166565	14.297495126724243
1	41.13116097450256	pulse	1	t						58.89352893829346	
1	42.73137807846069	pulse	1	t						60.49374604225159	
1	44.33147406578064	pulse	1	t						62.09384202957153	
1	45.93181610107422	pulse	1	t						63.69418406486511	
1	47.5320611000061	pulse	1	t						65.294429063797	
1	49.132261991500854	pulse	1	t						66.89462995529175	
1	50.73249411582947	pulse	1	t						68.49486207962036	
1	52.33274793624878	pulse	1	t						70.09511590003967	
2	53.849445104599	fix_pre	0		11	0.0	2.5	/experiments/knapen_AOT/AOT_stimuli/rescaled_final/0446_fw.mp4	0.0	71.61181306838989	0.09170079231262207
2	53.933002948760986	pulse	0	t		0.0	2.5	/experiments/knapen_AOT/AOT_stimuli/rescaled_final/0446_fw.mp4	0.0	71.69537091255188	
2	53.94114589691162	movie	1		242	0.0	2.5	/experiments/knapen_AOT/AOT_stimuli/rescaled_final/0446_fw.mp4	0.0	71.70351386070251	2.5087931156158447
2	55.533905029296875	pulse	1	t		0.0	2.5	/experiments/knapen_AOT/AOT_stimuli/rescaled_final/0446_fw.mp4	0.0	73.29627299308777	
2	56.449939012527466	fix_post	2		12	0.0	2.5	/experiments/knapen_AOT/AOT_stimuli/rescaled_final/0446_fw.mp4	0.0	74.21230697631836	0.09992694854736328
3	56.54986596107483	fix_pre	0		120	1.0	2.5	/experiments/knapen_AOT/AOT_stimuli/rescaled_final/0332_fw.mp4	0.0	74.31223392486572	1.0001990795135498
3	57.133501052856445	pulse	0	t		1.0	2.5	/experiments/knapen_AOT/AOT_stimuli/rescaled_final/0332_fw.mp4	0.0	74.89586901664734	
3	57.55006504058838	movie	1		247	1.0	2.5	/experiments/knapen_AOT/AOT_stimuli/rescaled_final/0332_fw.mp4	0.0	75.31243300437927	2.5003230571746826
3	58.73382592201233	pulse	1	t		1.0	2.5	/experiments/knapen_AOT/AOT_stimuli/rescaled_final/0332_fw.mp4	0.0	76.49619388580322	
3	60.05038809776306	fix_post	2		12	1.0	2.5	/experiments/knapen_AOT/AOT_stimuli/rescaled_final/0332_fw.mp4	0.0	77.81275606155396	0.09997892379760742
4	60.15036702156067	fix_pre	0		120	2.0	2.5	/experiments/knapen_AOT/AOT_stimuli/rescaled_final/1603_fw.mp4	0.0	77.91273498535156	1.000227928161621
4	60.33403396606445	pulse	0	t		2.0	2.5	/experiments/knapen_AOT/AOT_stimuli/rescaled_final/1603_fw.mp4	0.0	78.09640192985535	
4	61.15059494972229	movie	1		242	2.0	2.5	/experiments/knapen_AOT/AOT_stimuli/rescaled_final/1603_fw.mp4	0.0	78.91296291351318	2.5005249977111816
4	61.92681407928467	pulse	1	t		2.0	2.5	/experiments/knapen_AOT/AOT_stimuli/rescaled_final/1603_fw.mp4	0.0	79.68918204307556	
4	63.534265995025635	pulse	1	t		2.0	2.5	/experiments/knapen_AOT/AOT_stimuli/rescaled_final/1603_fw.mp4	0.0	81.29663395881653	
4	63.65111994743347	fix_post	2		12	2.0	2.5	/experiments/knapen_AOT/AOT_stimuli/rescaled_final/1603_fw.mp4	0.0	81.41348791122437	0.09982705116271973
5	63.75094699859619	fix_pre	0		120	3.0	2.5	/experiments/knapen_AOT/AOT_stimuli/rescaled_final/0081_rv.mp4	0.0	81.51331496238708	1.0001161098480225
5	64.75106310844421	movie	1		241	3.0	2.5	/experiments/knapen_AOT/AOT_stimuli/rescaled_final/0081_rv.mp4	0.0	82.51343107223511	2.4921369552612305
5	65.13524198532104	pulse	1	t		3.0	2.5	/experiments/knapen_AOT/AOT_stimuli/rescaled_final/0081_rv.mp4	0.0	82.89760994911194	
5	66.72752404212952	pulse	1	t		3.0	2.5	/experiments/knapen_AOT/AOT_stimuli/rescaled_final/0081_rv.mp4	0.0	84.48989200592041	
5	67.24320006370544	fix_post	2		12	3.0	2.5	/experiments/knapen_AOT/AOT_stimuli/rescaled_final/0081_rv.mp4	0.0	85.00556802749634	0.09995698928833008
6	67.34315705299377	fix_pre	0		119	4.0	2.5	/experiments/knapen_AOT/AOT_stimuli/rescaled_final/2031_rv.mp4	0.0	85.10552501678467	0.9917569160461426
6	68.32681488990784	pulse	0	t		4.0	2.5	/experiments/knapen_AOT/AOT_stimuli/rescaled_final/2031_rv.mp4	0.0	86.08918285369873	
6	68.33491396903992	movie	1		243	4.0	2.5	/experiments/knapen_AOT/AOT_stimuli/rescaled_final/2031_rv.mp4	0.0	86.09728193283081	2.5088610649108887
6	69.93143200874329	pulse	1	t		4.0	2.5	/experiments/knapen_AOT/AOT_stimuli/rescaled_final/2031_rv.mp4	0.0	87.69379997253418	
6	70.8437750339508	fix_post	2		12	4.0	2.5	/experiments/knapen_AOT/AOT_stimuli/rescaled_final/2031_rv.mp4	0.0	88.6061429977417	0.09989690780639648
7	70.9436719417572	fix_pre	0		120	5.0	2.5	/experiments/knapen_AOT/AOT_stimuli/rescaled_final/1937_fw.mp4	0.0	88.7060399055481	1.0002119541168213
7	71.52732610702515	pulse	0	t		5.0	2.5	/experiments/knapen_AOT/AOT_stimuli/rescaled_final/1937_fw.mp4	0.0	89.28969407081604	
7	71.94388389587402	movie	1		243	5.0	2.5	/experiments/knapen_AOT/AOT_stimuli/rescaled_final/1937_fw.mp4	0.0	89.70625185966492	2.5003950595855713
7	73.12755298614502	pulse	1	t		5.0	2.5	/experiments/knapen_AOT/AOT_stimuli/rescaled_final/1937_fw.mp4	0.0	90.88992094993591	
7	74.4442789554596	fix_post	2		12	5.0	2.5	/experiments/knapen_AOT/AOT_stimuli/rescaled_final/1937_fw.mp4	0.0	92.20664691925049	0.09993100166320801
8	74.5442099571228	fix_pre	0		120	6.0	2.5	/experiments/knapen_AOT/AOT_stimuli/rescaled_final/1593_fw.mp4	0.0	92.3065779209137	1.0001449584960938
8	74.72783303260803	pulse	0	t		6.0	2.5	/experiments/knapen_AOT/AOT_stimuli/rescaled_final/1593_fw.mp4	0.0	92.49020099639893	
8	75.5443549156189	movie	1		242	6.0	2.5	/experiments/knapen_AOT/AOT_stimuli/rescaled_final/1593_fw.mp4	0.0	93.30672287940979	2.500606060028076
8	76.3280611038208	pulse	1	t		6.0	2.5	/experiments/knapen_AOT/AOT_stimuli/rescaled_final/1593_fw.mp4	0.0	94.0904290676117	
8	77.92813205718994	pulse	1	t		6.0	2.5	/experiments/knapen_AOT/AOT_stimuli/rescaled_final/1593_fw.mp4	0.0	95.69050002098083	
8	78.04496097564697	fix_post	2		12	6.0	2.5	/experiments/knapen_AOT/AOT_stimuli/rescaled_final/1593_fw.mp4	0.0	95.80732893943787	0.09977507591247559
9	78.14473605155945	fix_pre	0		118	7.0	2.5	blank	1.0	95.90710401535034	1.000187873840332
9	79.14492392539978	movie	1		299	7.0	2.5	blank	1.0	96.90729188919067	2.4920620918273926
9	79.52842402458191	pulse	1	t		7.0	2.5	blank	1.0	97.2907919883728	
9	81.1287670135498	pulse	1	t		7.0	2.5	blank	1.0	98.8911349773407	
9	81.63698601722717	fix_post	2		12	7.0	2.5	blank	1.0	99.39935398101807	0.10001897811889648
10	81.73700499534607	fix_pre	0		120	8.0	2.5	/experiments/knapen_AOT/AOT_stimuli/rescaled_final/2009_rv.mp4	0.0	99.49937295913696	1.0000929832458496
10	82.72904992103577	pulse	0	t		8.0	2.5	/experiments/knapen_AOT/AOT_stimuli/rescaled_final/2009_rv.mp4	0.0	100.49141788482666	
10	82.73709797859192	movie	1		246	8.0	2.5	/experiments/knapen_AOT/AOT_stimuli/rescaled_final/2009_rv.mp4	0.0	100.49946594238281	2.5087459087371826
10	84.32980799674988	pulse	1	t		8.0	2.5	/experiments/knapen_AOT/AOT_stimuli/rescaled_final/2009_rv.mp4	0.0	102.09217596054077	
10	85.2458438873291	fix_post	2		12	8.0	2.5	/experiments/knapen_AOT/AOT_stimuli/rescaled_final/2009_rv.mp4	0.0	103.00821185112	0.10001921653747559
11	85.34586310386658	fix_pre	0		120	9.0	2.5	/experiments/knapen_AOT/AOT_stimuli/rescaled_final/1088_rv.mp4	0.0	103.10823106765747	1.0001628398895264
11	85.9294080734253	pulse	0	t		9.0	2.5	/experiments/knapen_AOT/AOT_stimuli/rescaled_final/1088_rv.mp4	0.0	103.69177603721619	
11	86.3460259437561	movie	1		244	9.0	2.5	/experiments/knapen_AOT/AOT_stimuli/rescaled_final/1088_rv.mp4	0.0	104.108393907547	2.500308036804199
11	87.5297179222107	pulse	1	t		9.0	2.5	/experiments/knapen_AOT/AOT_stimuli/rescaled_final/1088_rv.mp4	0.0	105.29208588600159	
11	88.8463339805603	fix_post	2		12	9.0	2.5	/experiments/knapen_AOT/AOT_stimuli/rescaled_final/1088_rv.mp4	0.0	106.6087019443512	0.09999203681945801
12	88.94632601737976	fix_pre	0		120	10.0	2.5	/experiments/knapen_AOT/AOT_stimuli/rescaled_final/0735_fw.mp4	0.0	106.70869398117065	1.0001769065856934
12	89.13002395629883	pulse	0	t		10.0	2.5	/experiments/knapen_AOT/AOT_stimuli/rescaled_final/0735_fw.mp4	0.0	106.89239192008972	
12	89.94650292396545	movie	1		244	10.0	2.5	/experiments/knapen_AOT/AOT_stimuli/rescaled_final/0735_fw.mp4	0.0	107.70887088775635	2.5003960132598877
12	90.73030209541321	pulse	1	t		10.0	2.5	/experiments/knapen_AOT/AOT_stimuli/rescaled_final/0735_fw.mp4	0.0	108.4926700592041	
12	92.33037805557251	pulse	1	t		10.0	2.5	/experiments/knapen_AOT/AOT_stimuli/rescaled_final/0735_fw.mp4	0.0	110.0927460193634	
12	92.44689893722534	fix_post	2		12	10.0	2.5	/experiments/knapen_AOT/AOT_stimuli/rescaled_final/0735_fw.mp4	0.0	110.20926690101624	0.09998607635498047
13	92.54688501358032	fix_pre	0		120	11.0	2.5	/experiments/knapen_AOT/AOT_stimuli/rescaled_final/0026_rv.mp4	0.0	110.30925297737122	1.000143051147461
13	93.54702806472778	movie	1		242	11.0	2.5	/experiments/knapen_AOT/AOT_stimuli/rescaled_final/0026_rv.mp4	0.0	111.30939602851868	2.4921748638153076
13	93.9313108921051	pulse	1	t		11.0	2.5	/experiments/knapen_AOT/AOT_stimuli/rescaled_final/0026_rv.mp4	0.0	111.693678855896	
13	95.53098392486572	pulse	1	t		11.0	2.5	/experiments/knapen_AOT/AOT_stimuli/rescaled_final/0026_rv.mp4	0.0	113.29335188865662	
13	96.03920292854309	fix_post	2		12	11.0	2.5	/experiments/knapen_AOT/AOT_stimuli/rescaled_final/0026_rv.mp4	0.0	113.80157089233398	0.09991812705993652
14	96.13912105560303	fix_pre	0		120	12.0	2.5	blank	1.0	113.90148901939392	1.0001070499420166
14	97.13116693496704	pulse	0	t		12.0	2.5	blank	1.0	114.89353489875793	
14	97.13922810554504	movie	1		301	12.0	2.5	blank	1.0	114.90159606933594	2.5087668895721436
14	98.731360912323	pulse	1	t		12.0	2.5	blank	1.0	116.49372887611389	
14	99.64799499511719	fix_post	2		12	12.0	2.5	blank	1.0	117.41036295890808	0.09999489784240723
15	99.7479898929596	fix_pre	0		120	13.0	2.5	/experiments/knapen_AOT/AOT_stimuli/rescaled_final/1668_rv.mp4	0.0	117.51035785675049	1.0001890659332275
15	100.33156299591064	pulse	0	t		13.0	2.5	/experiments/knapen_AOT/AOT_stimuli/rescaled_final/1668_rv.mp4	0.0	118.09393095970154	
15	100.74817895889282	movie	1		242	13.0	2.5	/experiments/knapen_AOT/AOT_stimuli/rescaled_final/1668_rv.mp4	0.0	118.51054692268372	2.5004160404205322
15	101.93194007873535	pulse	1	t		13.0	2.5	/experiments/knapen_AOT/AOT_stimuli/rescaled_final/1668_rv.mp4	0.0	119.69430804252625	
15	103.24859499931335	fix_post	2		12	13.0	2.5	/experiments/knapen_AOT/AOT_stimuli/rescaled_final/1668_rv.mp4	0.0	121.01096296310425	0.0998990535736084
16	103.34849405288696	fix_pre	0		120	14.0	2.5	/experiments/knapen_AOT/AOT_stimuli/rescaled_final/2082_fw.mp4	0.0	121.11086201667786	1.0001568794250488
16	103.53211688995361	pulse	0	t		14.0	2.5	/experiments/knapen_AOT/AOT_stimuli/rescaled_final/2082_fw.mp4	0.0	121.2944848537445	
16	104.34865093231201	movie	1		243	14.0	2.5	/experiments/knapen_AOT/AOT_stimuli/rescaled_final/2082_fw.mp4	0.0	122.1110188961029	2.5005481243133545
16	105.13234901428223	pulse	1	t		14.0	2.5	/experiments/knapen_AOT/AOT_stimuli/rescaled_final/2082_fw.mp4	0.0	122.89471697807312	
16	106.7325029373169	pulse	1	t		14.0	2.5	/experiments/knapen_AOT/AOT_stimuli/rescaled_final/2082_fw.mp4	0.0	124.49487090110779	
16	106.84919905662537	fix_post	2		12	14.0	2.5	/experiments/knapen_AOT/AOT_stimuli/rescaled_final/2082_fw.mp4	0.0	124.61156702041626	0.09989786148071289
17	106.94909691810608	fix_pre	0		120	15.0	2.5	/experiments/knapen_AOT/AOT_stimuli/rescaled_final/1415_rv.mp4	0.0	124.71146488189697	1.0001320838928223
17	107.9492290019989	movie	1		241	15.0	2.5	/experiments/knapen_AOT/AOT_stimuli/rescaled_final/1415_rv.mp4	0.0	125.7115969657898	2.492098093032837
17	108.33322191238403	pulse	1	t		15.0	2.5	/experiments/knapen_AOT/AOT_stimuli/rescaled_final/1415_rv.mp4	0.0	126.09558987617493	
17	109.93298888206482	pulse	1	t		15.0	2.5	/experiments/knapen_AOT/AOT_stimuli/rescaled_final/1415_rv.mp4	0.0	127.69535684585571	
17	110.44132709503174	fix_post	2		12	15.0	2.5	/experiments/knapen_AOT/AOT_stimuli/rescaled_final/1415_rv.mp4	0.0	128.20369505882263	0.09998893737792969
18	110.54131603240967	fix_pre	0		120	16.0	2.5	/experiments/knapen_AOT/AOT_stimuli/rescaled_final/0707_rv.mp4	0.0	128.30368399620056	1.0000510215759277
18	111.53331899642944	pulse	0	t		16.0	2.5	/experiments/knapen_AOT/AOT_stimuli/rescaled_final/0707_rv.mp4	0.0	129.29568696022034	
18	111.5413670539856	movie	1		244	16.0	2.5	/experiments/knapen_AOT/AOT_stimuli/rescaled_final/0707_rv.mp4	0.0	129.3037350177765	2.5087039470672607
18	113.1345419883728	pulse	1	t		16.0	2.5	/experiments/knapen_AOT/AOT_stimuli/rescaled_final/0707_rv.mp4	0.0	130.8969099521637	
18	114.05007100105286	fix_post	2		12	16.0	2.5	/experiments/knapen_AOT/AOT_stimuli/rescaled_final/0707_rv.mp4	0.0	131.81243896484375	0.10006189346313477
19	114.15013289451599	fix_pre	0		120	17.0	2.5	/experiments/knapen_AOT/AOT_stimuli/rescaled_final/0009_fw.mp4	0.0	131.91250085830688	1.000136137008667
19	114.72620797157288	pulse	0	t		17.0	2.5	/experiments/knapen_AOT/AOT_stimuli/rescaled_final/0009_fw.mp4	0.0	132.48857593536377	
19	115.15026903152466	movie	1		242	17.0	2.5	/experiments/knapen_AOT/AOT_stimuli/rescaled_final/0009_fw.mp4	0.0	132.91263699531555	2.5005500316619873
19	116.32706594467163	pulse	1	t		17.0	2.5	/experiments/knapen_AOT/AOT_stimuli/rescaled_final/0009_fw.mp4	0.0	134.08943390846252	
19	117.65081906318665	fix_post	2		12	17.0	2.5	/experiments/knapen_AOT/AOT_stimuli/rescaled_final/0009_fw.mp4	0.0	135.41318702697754	0.0998690128326416
20	117.75068807601929	fix_pre	0		120	18.0	2.5	/experiments/knapen_AOT/AOT_stimuli/rescaled_final/1418_rv.mp4	0.0	135.51305603981018	1.000128984451294
20	117.92666506767273	pulse	0	t		18.0	2.5	/experiments/knapen_AOT/AOT_stimuli/rescaled_final/1418_rv.mp4	0.0	135.68903303146362	
20	118.75081706047058	movie	1		243	18.0	2.5	/experiments/knapen_AOT/AOT_stimuli/rescaled_final/1418_rv.mp4	0.0	136.51318502426147	2.5005228519439697
20	119.52698707580566	pulse	1	t		18.0	2.5	/experiments/knapen_AOT/AOT_stimuli/rescaled_final/1418_rv.mp4	0.0	137.28935503959656	
20	121.1264500617981	pulse	1	t		18.0	2.5	/experiments/knapen_AOT/AOT_stimuli/rescaled_final/1418_rv.mp4	0.0	138.888818025589	
20	121.25133991241455	fix_post	2		12	18.0	2.5	/experiments/knapen_AOT/AOT_stimuli/rescaled_final/1418_rv.mp4	0.0	139.01370787620544	0.099884033203125
21	121.35122394561768	fix_pre	0		120	19.0	2.5	/experiments/knapen_AOT/AOT_stimuli/rescaled_final/1259_fw.mp4	0.0	139.11359190940857	1.0001220703125
21	122.35134601593018	movie	1		242	19.0	2.5	/experiments/knapen_AOT/AOT_stimuli/rescaled_final/1259_fw.mp4	0.0	140.11371397972107	2.492079019546509
21	122.72657489776611	pulse	1	t		19.0	2.5	/experiments/knapen_AOT/AOT_stimuli/rescaled_final/1259_fw.mp4	0.0	140.488942861557	
21	124.32686495780945	pulse	1	t		19.0	2.5	/experiments/knapen_AOT/AOT_stimuli/rescaled_final/1259_fw.mp4	0.0	142.08923292160034	
21	124.84342503547668	fix_post	2		12	19.0	2.5	/experiments/knapen_AOT/AOT_stimuli/rescaled_final/1259_fw.mp4	0.0	142.60579299926758	0.09993290901184082
22	124.94335794448853	fix_pre	0		119	20.0	2.5	/experiments/knapen_AOT/AOT_stimuli/rescaled_final/0205_fw.mp4	0.0	142.70572590827942	0.991847038269043
22	125.92717504501343	pulse	0	t		20.0	2.5	/experiments/knapen_AOT/AOT_stimuli/rescaled_final/0205_fw.mp4	0.0	143.68954300880432	
22	125.93520498275757	movie	1		245	20.0	2.5	/experiments/knapen_AOT/AOT_stimuli/rescaled_final/0205_fw.mp4	0.0	143.69757294654846	2.508744955062866
22	127.52766299247742	pulse	1	t		20.0	2.5	/experiments/knapen_AOT/AOT_stimuli/rescaled_final/0205_fw.mp4	0.0	145.2900309562683	
22	128.44394993782043	fix_post	2		12	20.0	2.5	/experiments/knapen_AOT/AOT_stimuli/rescaled_final/0205_fw.mp4	0.0	146.20631790161133	0.10003900527954102
23	128.54398894309998	fix_pre	0		120	21.0	2.5	blank	1.0	146.30635690689087	1.0000669956207275
23	129.12747311592102	pulse	0	t		21.0	2.5	blank	1.0	146.8898410797119	
23	129.5440559387207	movie	1		300	21.0	2.5	blank	1.0	147.3064239025116	2.5004570484161377
23	130.72771310806274	pulse	1	t		21.0	2.5	blank	1.0	148.49008107185364	
23	132.04451298713684	fix_post	2		12	21.0	2.5	blank	1.0	149.80688095092773	0.09994697570800781
24	132.14445996284485	fix_pre	0		120	22.0	2.5	/experiments/knapen_AOT/AOT_stimuli/rescaled_final/1328_fw.mp4	0.0	149.90682792663574	1.0001580715179443
24	132.32802391052246	pulse	0	t		22.0	2.5	/experiments/knapen_AOT/AOT_stimuli/rescaled_final/1328_fw.mp4	0.0	150.09039187431335	
24	133.1446180343628	movie	1		243	22.0	2.5	/experiments/knapen_AOT/AOT_stimuli/rescaled_final/1328_fw.mp4	0.0	150.9069859981537	2.5005979537963867
24	133.9283459186554	pulse	1	t		22.0	2.5	/experiments/knapen_AOT/AOT_stimuli/rescaled_final/1328_fw.mp4	0.0	151.6907138824463	
24	135.52843594551086	pulse	1	t		22.0	2.5	/experiments/knapen_AOT/AOT_stimuli/rescaled_final/1328_fw.mp4	0.0	153.29080390930176	
24	135.64521598815918	fix_post	2		12	22.0	2.5	/experiments/knapen_AOT/AOT_stimuli/rescaled_final/1328_fw.mp4	0.0	153.40758395195007	0.09982490539550781
25	135.7450408935547	fix_pre	0		120	23.0	2.5	/experiments/knapen_AOT/AOT_stimuli/rescaled_final/0017_rv.mp4	0.0	153.50740885734558	1.000136137008667
25	136.74517703056335	movie	1		242	23.0	2.5	/experiments/knapen_AOT/AOT_stimuli/rescaled_final/0017_rv.mp4	0.0	154.50754499435425	2.492198944091797
25	137.12949299812317	pulse	1	t		23.0	2.5	/experiments/knapen_AOT/AOT_stimuli/rescaled_final/0017_rv.mp4	0.0	154.89186096191406	
25	138.7290060520172	pulse	1	t		23.0	2.5	/experiments/knapen_AOT/AOT_stimuli/rescaled_final/0017_rv.mp4	0.0	156.4913740158081	
25	139.23737597465515	fix_post	2		12	23.0	2.5	/experiments/knapen_AOT/AOT_stimuli/rescaled_final/0017_rv.mp4	0.0	156.99974393844604	0.09986710548400879
26	139.33724308013916	fix_pre	0		120	24.0	2.5	/experiments/knapen_AOT/AOT_stimuli/rescaled_final/0009_rv.mp4	0.0	157.09961104393005	1.0000770092010498
26	140.32934403419495	pulse	0	t		24.0	2.5	/experiments/knapen_AOT/AOT_stimuli/rescaled_final/0009_rv.mp4	0.0	158.09171199798584	
26	140.3373200893402	movie	1		243	24.0	2.5	/experiments/knapen_AOT/AOT_stimuli/rescaled_final/0009_rv.mp4	0.0	158.0996880531311	2.5088999271392822
26	141.93083596229553	pulse	1	t		24.0	2.5	/experiments/knapen_AOT/AOT_stimuli/rescaled_final/0009_rv.mp4	0.0	159.69320392608643	
26	142.8462200164795	fix_post	2		12	24.0	2.5	/experiments/knapen_AOT/AOT_stimuli/rescaled_final/0009_rv.mp4	0.0	160.60858798027039	0.09992694854736328
27	142.94614696502686	fix_pre	0		120	25.0	2.5	/experiments/knapen_AOT/AOT_stimuli/rescaled_final/1413_rv.mp4	0.0	160.70851492881775	1.0000770092010498
27	143.52967190742493	pulse	0	t		25.0	2.5	/experiments/knapen_AOT/AOT_stimuli/rescaled_final/1413_rv.mp4	0.0	161.29203987121582	
27	143.9462239742279	movie	1		241	25.0	2.5	/experiments/knapen_AOT/AOT_stimuli/rescaled_final/1413_rv.mp4	0.0	161.7085919380188	2.5004091262817383
27	145.13005709648132	pulse	1	t		25.0	2.5	/experiments/knapen_AOT/AOT_stimuli/rescaled_final/1413_rv.mp4	0.0	162.89242506027222	
27	146.44663310050964	fix_post	2		12	25.0	2.5	/experiments/knapen_AOT/AOT_stimuli/rescaled_final/1413_rv.mp4	0.0	164.20900106430054	0.10008096694946289
28	146.5467140674591	fix_pre	0		120	26.0	2.5	/experiments/knapen_AOT/AOT_stimuli/rescaled_final/0537_fw.mp4	0.0	164.30908203125	1.000044822692871
28	146.73023009300232	pulse	0	t		26.0	2.5	/experiments/knapen_AOT/AOT_stimuli/rescaled_final/0537_fw.mp4	0.0	164.4925980567932	
28	147.54675889015198	movie	1		243	26.0	2.5	/experiments/knapen_AOT/AOT_stimuli/rescaled_final/0537_fw.mp4	0.0	165.30912685394287	2.5006730556488037
28	148.33043003082275	pulse	1	t		26.0	2.5	/experiments/knapen_AOT/AOT_stimuli/rescaled_final/0537_fw.mp4	0.0	166.09279799461365	
28	149.93107199668884	pulse	1	t		26.0	2.5	/experiments/knapen_AOT/AOT_stimuli/rescaled_final/0537_fw.mp4	0.0	167.69343996047974	
28	150.04743194580078	fix_post	2		12	26.0	2.5	/experiments/knapen_AOT/AOT_stimuli/rescaled_final/0537_fw.mp4	0.0	167.80979990959167	0.09977507591247559
29	150.14720702171326	fix_pre	0		120	27.0	2.5	/experiments/knapen_AOT/AOT_stimuli/rescaled_final/0178_fw.mp4	0.0	167.90957498550415	1.0000929832458496
29	151.1473000049591	movie	1		242	27.0	2.5	/experiments/knapen_AOT/AOT_stimuli/rescaled_final/0178_fw.mp4	0.0	168.90966796875	2.4920430183410645
29	151.5349040031433	pulse	1	t		27.0	2.5	/experiments/knapen_AOT/AOT_stimuli/rescaled_final/0178_fw.mp4	0.0	169.2972719669342	
29	153.13116788864136	pulse	1	t		27.0	2.5	/experiments/knapen_AOT/AOT_stimuli/rescaled_final/0178_fw.mp4	0.0	170.89353585243225	
29	153.63934302330017	fix_post	2		12	27.0	2.5	/experiments/knapen_AOT/AOT_stimuli/rescaled_final/0178_fw.mp4	0.0	171.40171098709106	0.09999203681945801
30	153.73933506011963	fix_pre	0		120	28.0	2.5	blank	1.0	171.50170302391052	1.0001440048217773
30	154.73133206367493	pulse	0	t		28.0	2.5	blank	1.0	172.49370002746582	
30	154.7394790649414	movie	1		301	28.0	2.5	blank	1.0	172.5018470287323	2.5087168216705322
30	156.33160305023193	pulse	1	t		28.0	2.5	blank	1.0	174.09397101402283	
30	157.24819588661194	fix_post	2		12	28.0	2.5	blank	1.0	175.01056385040283	0.10003900527954102
31	157.34823489189148	fix_pre	0		120	29.0	2.5	/experiments/knapen_AOT/AOT_stimuli/rescaled_final/0013_rv.mp4	0.0	175.11060285568237	1.0001130104064941
31	157.93191695213318	pulse	0	t		29.0	2.5	/experiments/knapen_AOT/AOT_stimuli/rescaled_final/0013_rv.mp4	0.0	175.69428491592407	
31	158.34834790229797	movie	1		243	29.0	2.5	/experiments/knapen_AOT/AOT_stimuli/rescaled_final/0013_rv.mp4	0.0	176.11071586608887	2.5005900859832764
31	159.52861404418945	pulse	1	t		29.0	2.5	/experiments/knapen_AOT/AOT_stimuli/rescaled_final/0013_rv.mp4	0.0	177.29098200798035	
31	160.84893798828125	fix_post	2		12	29.0	2.5	/experiments/knapen_AOT/AOT_stimuli/rescaled_final/0013_rv.mp4	0.0	178.61130595207214	0.09983396530151367
32	160.94877195358276	fix_pre	0		120	30.0	2.5	/experiments/knapen_AOT/AOT_stimuli/rescaled_final/1651_rv.mp4	0.0	178.71113991737366	1.0001790523529053
32	161.13229990005493	pulse	0	t		30.0	2.5	/experiments/knapen_AOT/AOT_stimuli/rescaled_final/1651_rv.mp4	0.0	178.89466786384583	
32	161.94895100593567	movie	1		242	30.0	2.5	/experiments/knapen_AOT/AOT_stimuli/rescaled_final/1651_rv.mp4	0.0	179.71131896972656	2.500432014465332
32	162.73249697685242	pulse	1	t		30.0	2.5	/experiments/knapen_AOT/AOT_stimuli/rescaled_final/1651_rv.mp4	0.0	180.4948649406433	
32	164.33260107040405	pulse	1	t		30.0	2.5	/experiments/knapen_AOT/AOT_stimuli/rescaled_final/1651_rv.mp4	0.0	182.09496903419495	
32	164.449383020401	fix_post	2		12	30.0	2.5	/experiments/knapen_AOT/AOT_stimuli/rescaled_final/1651_rv.mp4	0.0	182.2117509841919	0.0998990535736084
33	164.5492820739746	fix_pre	0		119	31.0	2.5	/experiments/knapen_AOT/AOT_stimuli/rescaled_final/1033_rv.mp4	0.0	182.3116500377655	0.9918680191040039
33	165.5411500930786	movie	1		242	31.0	2.5	/experiments/knapen_AOT/AOT_stimuli/rescaled_final/1033_rv.mp4	0.0	183.3035180568695	2.5004589557647705
33	165.93307900428772	pulse	1	t		31.0	2.5	/experiments/knapen_AOT/AOT_stimuli/rescaled_final/1033_rv.mp4	0.0	183.6954469680786	
33	167.53333592414856	pulse	1	t		31.0	2.5	/experiments/knapen_AOT/AOT_stimuli/rescaled_final/1033_rv.mp4	0.0	185.29570388793945	
33	168.04160904884338	fix_post	2		12	31.0	2.5	/experiments/knapen_AOT/AOT_stimuli/rescaled_final/1033_rv.mp4	0.0	185.80397701263428	0.09992384910583496
34	168.14153289794922	fix_pre	0		120	32.0	2.5	/experiments/knapen_AOT/AOT_stimuli/rescaled_final/1850_rv.mp4	0.0	185.9039008617401	1.000136137008667
34	169.13347506523132	pulse	0	t		32.0	2.5	/experiments/knapen_AOT/AOT_stimuli/rescaled_final/1850_rv.mp4	0.0	186.89584302902222	
34	169.14166903495789	movie	1		243	32.0	2.5	/experiments/knapen_AOT/AOT_stimuli/rescaled_final/1850_rv.mp4	0.0	186.90403699874878	2.5087339878082275
34	170.7350869178772	pulse	1	t		32.0	2.5	/experiments/knapen_AOT/AOT_stimuli/rescaled_final/1850_rv.mp4	0.0	188.4974548816681	
34	171.6504030227661	fix_post	2		12	32.0	2.5	/experiments/knapen_AOT/AOT_stimuli/rescaled_final/1850_rv.mp4	0.0	189.412770986557	0.09996509552001953
35	171.75036811828613	fix_pre	0		120	33.0	2.5	blank	1.0	189.51273608207703	1.0001509189605713
35	172.32645201683044	pulse	0	t		33.0	2.5	blank	1.0	190.08881998062134	
35	172.7505190372467	movie	1		300	33.0	2.5	blank	1.0	190.5128870010376	2.5004169940948486
35	173.9259490966797	pulse	1	t		33.0	2.5	blank	1.0	191.68831706047058	
35	175.25093603134155	fix_post	2		12	33.0	2.5	blank	1.0	193.01330399513245	0.10001087188720703
36	175.35094690322876	fix_pre	0		120	34.0	2.5	/experiments/knapen_AOT/AOT_stimuli/rescaled_final/0937_rv.mp4	0.0	193.11331486701965	1.000115156173706
36	175.52609205245972	pulse	0	t		34.0	2.5	/experiments/knapen_AOT/AOT_stimuli/rescaled_final/0937_rv.mp4	0.0	193.2884600162506	
36	176.35106205940247	movie	1		242	34.0	2.5	/experiments/knapen_AOT/AOT_stimuli/rescaled_final/0937_rv.mp4	0.0	194.11343002319336	2.5004520416259766
36	177.12639498710632	pulse	1	t		34.0	2.5	/experiments/knapen_AOT/AOT_stimuli/rescaled_final/0937_rv.mp4	0.0	194.88876295089722	
36	178.72655296325684	pulse	1	t		34.0	2.5	/experiments/knapen_AOT/AOT_stimuli/rescaled_final/0937_rv.mp4	0.0	196.48892092704773	
36	178.85151410102844	fix_post	2		12	34.0	2.5	/experiments/knapen_AOT/AOT_stimuli/rescaled_final/0937_rv.mp4	0.0	196.61388206481934	0.09993195533752441
37	178.95144605636597	fix_pre	0		119	35.0	2.5	/experiments/knapen_AOT/AOT_stimuli/rescaled_final/1935_rv.mp4	0.0	196.71381402015686	0.9918129444122314
37	179.9432590007782	movie	1		243	35.0	2.5	/experiments/knapen_AOT/AOT_stimuli/rescaled_final/1935_rv.mp4	0.0	197.7056269645691	2.500540018081665
37	180.32718205451965	pulse	1	t		35.0	2.5	/experiments/knapen_AOT/AOT_stimuli/rescaled_final/1935_rv.mp4	0.0	198.08955001831055	
37	181.92717909812927	pulse	1	t		35.0	2.5	/experiments/knapen_AOT/AOT_stimuli/rescaled_final/1935_rv.mp4	0.0	199.68954706192017	
37	182.44379901885986	fix_post	2		12	35.0	2.5	/experiments/knapen_AOT/AOT_stimuli/rescaled_final/1935_rv.mp4	0.0	200.20616698265076	0.09989404678344727
38	182.5436930656433	fix_pre	0		119	36.0	2.5	/experiments/knapen_AOT/AOT_stimuli/rescaled_final/0786_fw.mp4	0.0	200.3060610294342	0.9917809963226318
38	183.52733492851257	pulse	0	t		36.0	2.5	/experiments/knapen_AOT/AOT_stimuli/rescaled_final/0786_fw.mp4	0.0	201.28970289230347	
38	183.53547406196594	movie	1		244	36.0	2.5	/experiments/knapen_AOT/AOT_stimuli/rescaled_final/0786_fw.mp4	0.0	201.29784202575684	2.5088119506835938
38	185.1289451122284	pulse	1	t		36.0	2.5	/experiments/knapen_AOT/AOT_stimuli/rescaled_final/0786_fw.mp4	0.0	202.8913130760193	
38	186.04428601264954	fix_post	2		12	36.0	2.5	/experiments/knapen_AOT/AOT_stimuli/rescaled_final/0786_fw.mp4	0.0	203.80665397644043	0.09990501403808594
39	186.14419102668762	fix_pre	0		120	37.0	2.5	/experiments/knapen_AOT/AOT_stimuli/rescaled_final/1219_rv.mp4	0.0	203.90655899047852	1.000143051147461
39	186.72789001464844	pulse	0	t		37.0	2.5	/experiments/knapen_AOT/AOT_stimuli/rescaled_final/1219_rv.mp4	0.0	204.49025797843933	
39	187.14433407783508	movie	1		243	37.0	2.5	/experiments/knapen_AOT/AOT_stimuli/rescaled_final/1219_rv.mp4	0.0	204.90670204162598	2.5003769397735596
39	188.32809591293335	pulse	1	t		37.0	2.5	/experiments/knapen_AOT/AOT_stimuli/rescaled_final/1219_rv.mp4	0.0	206.09046387672424	
39	189.64471101760864	fix_post	2		12	37.0	2.5	/experiments/knapen_AOT/AOT_stimuli/rescaled_final/1219_rv.mp4	0.0	207.40707898139954	0.1000680923461914
40	189.74477910995483	fix_pre	0		120	38.0	2.5	/experiments/knapen_AOT/AOT_stimuli/rescaled_final/2159_fw.mp4	0.0	207.50714707374573	1.0001299381256104
40	189.92843198776245	pulse	0	t		38.0	2.5	/experiments/knapen_AOT/AOT_stimuli/rescaled_final/2159_fw.mp4	0.0	207.69079995155334	
40	190.74490904808044	movie	1		242	38.0	2.5	/experiments/knapen_AOT/AOT_stimuli/rescaled_final/2159_fw.mp4	0.0	208.50727701187134	2.500422954559326
40	191.5285050868988	pulse	1	t		38.0	2.5	/experiments/knapen_AOT/AOT_stimuli/rescaled_final/2159_fw.mp4	0.0	209.2908730506897	
40	193.12864089012146	pulse	1	t		38.0	2.5	/experiments/knapen_AOT/AOT_stimuli/rescaled_final/2159_fw.mp4	0.0	210.89100885391235	
40	193.24533200263977	fix_post	2		12	38.0	2.5	/experiments/knapen_AOT/AOT_stimuli/rescaled_final/2159_fw.mp4	0.0	211.00769996643066	0.1000070571899414
41	193.3453390598297	fix_pre	0		119	39.0	2.5	/experiments/knapen_AOT/AOT_stimuli/rescaled_final/0287_fw.mp4	0.0	211.1077070236206	0.9918069839477539
41	194.33714604377747	movie	1		242	39.0	2.5	/experiments/knapen_AOT/AOT_stimuli/rescaled_final/0287_fw.mp4	0.0	212.09951400756836	2.5004169940948486
41	194.7291738986969	pulse	1	t		39.0	2.5	/experiments/knapen_AOT/AOT_stimuli/rescaled_final/0287_fw.mp4	0.0	212.4915418624878	
41	196.3292989730835	pulse	1	t		39.0	2.5	/experiments/knapen_AOT/AOT_stimuli/rescaled_final/0287_fw.mp4	0.0	214.0916669368744	
41	196.83756303787231	fix_post	2		12	39.0	2.5	/experiments/knapen_AOT/AOT_stimuli/rescaled_final/0287_fw.mp4	0.0	214.5999310016632	0.0998990535736084
42	196.93746209144592	fix_pre	0		120	40.0	2.5	/experiments/knapen_AOT/AOT_stimuli/rescaled_final/1170_rv.mp4	0.0	214.69983005523682	1.000168800354004
42	197.92948198318481	pulse	0	t		40.0	2.5	/experiments/knapen_AOT/AOT_stimuli/rescaled_final/1170_rv.mp4	0.0	215.6918499469757	
42	197.93763089179993	movie	1		243	40.0	2.5	/experiments/knapen_AOT/AOT_stimuli/rescaled_final/1170_rv.mp4	0.0	215.69999885559082	2.508700132369995
42	199.5301480293274	pulse	1	t		40.0	2.5	/experiments/knapen_AOT/AOT_stimuli/rescaled_final/1170_rv.mp4	0.0	217.2925159931183	
42	200.44633102416992	fix_post	2		12	40.0	2.5	/experiments/knapen_AOT/AOT_stimuli/rescaled_final/1170_rv.mp4	0.0	218.20869898796082	0.1000220775604248
43	200.54635310173035	fix_pre	0		120	41.0	2.5	blank	1.0	218.30872106552124	1.000121831893921
43	201.13001608848572	pulse	0	t		41.0	2.5	blank	1.0	218.8923840522766	
43	201.54647493362427	movie	1		300	41.0	2.5	blank	1.0	219.30884289741516	2.50040602684021
43	202.7303009033203	pulse	1	t		41.0	2.5	blank	1.0	220.4926688671112	
43	204.04688096046448	fix_post	2		12	41.0	2.5	blank	1.0	221.80924892425537	0.10001015663146973
44	204.14689111709595	fix_pre	0		120	42.0	2.5	/experiments/knapen_AOT/AOT_stimuli/rescaled_final/1593_rv.mp4	0.0	221.90925908088684	1.000166893005371
44	204.33044409751892	pulse	0	t		42.0	2.5	/experiments/knapen_AOT/AOT_stimuli/rescaled_final/1593_rv.mp4	0.0	222.09281206130981	
44	205.14705801010132	movie	1		242	42.0	2.5	/experiments/knapen_AOT/AOT_stimuli/rescaled_final/1593_rv.mp4	0.0	222.9094259738922	2.5004329681396484
44	205.93066310882568	pulse	1	t		42.0	2.5	/experiments/knapen_AOT/AOT_stimuli/rescaled_final/1593_rv.mp4	0.0	223.69303107261658	
44	207.53077697753906	pulse	1	t		42.0	2.5	/experiments/knapen_AOT/AOT_stimuli/rescaled_final/1593_rv.mp4	0.0	225.29314494132996	
44	207.64749097824097	fix_post	2		12	42.0	2.5	/experiments/knapen_AOT/AOT_stimuli/rescaled_final/1593_rv.mp4	0.0	225.40985894203186	0.09992814064025879
45	207.74741911888123	fix_pre	0		119	43.0	2.5	/experiments/knapen_AOT/AOT_stimuli/rescaled_final/1523_fw.mp4	0.0	225.50978708267212	0.9918079376220703
45	208.7392270565033	movie	1		243	43.0	2.5	/experiments/knapen_AOT/AOT_stimuli/rescaled_final/1523_fw.mp4	0.0	226.5015950202942	2.5004289150238037
45	209.13123297691345	pulse	1	t		43.0	2.5	/experiments/knapen_AOT/AOT_stimuli/rescaled_final/1523_fw.mp4	0.0	226.89360094070435	
45	210.7314600944519	pulse	1	t		43.0	2.5	/experiments/knapen_AOT/AOT_stimuli/rescaled_final/1523_fw.mp4	0.0	228.4938280582428	
45	211.2396559715271	fix_post	2		12	43.0	2.5	/experiments/knapen_AOT/AOT_stimuli/rescaled_final/1523_fw.mp4	0.0	229.002023935318	0.09999394416809082
46	211.3396499156952	fix_pre	0		120	44.0	2.5	/experiments/knapen_AOT/AOT_stimuli/rescaled_final/0332_rv.mp4	0.0	229.10201787948608	1.0001749992370605
46	212.33156609535217	pulse	0	t		44.0	2.5	/experiments/knapen_AOT/AOT_stimuli/rescaled_final/0332_rv.mp4	0.0	230.09393405914307	
46	212.33982491493225	movie	1		248	44.0	2.5	/experiments/knapen_AOT/AOT_stimuli/rescaled_final/0332_rv.mp4	0.0	230.10219287872314	2.508692979812622
46	213.9323079586029	pulse	1	t		44.0	2.5	/experiments/knapen_AOT/AOT_stimuli/rescaled_final/0332_rv.mp4	0.0	231.6946759223938	
46	214.84851789474487	fix_post	2		9	44.0	2.5	/experiments/knapen_AOT/AOT_stimuli/rescaled_final/0332_rv.mp4	0.0	232.61088585853577	0.09994721412658691
47	214.94846510887146	fix_pre	0		120	45.0	2.5	/experiments/knapen_AOT/AOT_stimuli/rescaled_final/1423_fw.mp4	0.0	232.71083307266235	1.0001587867736816
47	215.53219389915466	pulse	0	t		45.0	2.5	/experiments/knapen_AOT/AOT_stimuli/rescaled_final/1423_fw.mp4	0.0	233.29456186294556	
47	215.94862389564514	movie	1		242	45.0	2.5	/experiments/knapen_AOT/AOT_stimuli/rescaled_final/1423_fw.mp4	0.0	233.71099185943604	2.500596046447754
47	217.13246893882751	pulse	1	t		45.0	2.5	/experiments/knapen_AOT/AOT_stimuli/rescaled_final/1423_fw.mp4	0.0	234.8948369026184	
47	218.4492199420929	fix_post	2		12	45.0	2.5	/experiments/knapen_AOT/AOT_stimuli/rescaled_final/1423_fw.mp4	0.0	236.2115879058838	0.099822998046875
48	218.54904294013977	fix_pre	0		120	46.0	2.5	/experiments/knapen_AOT/AOT_stimuli/rescaled_final/1451_fw.mp4	0.0	236.31141090393066	1.0001301765441895
48	218.7325119972229	pulse	0	t		46.0	2.5	/experiments/knapen_AOT/AOT_stimuli/rescaled_final/1451_fw.mp4	0.0	236.4948799610138	
48	219.54917311668396	movie	1		242	46.0	2.5	/experiments/knapen_AOT/AOT_stimuli/rescaled_final/1451_fw.mp4	0.0	237.31154108047485	2.5004818439483643
48	220.3328959941864	pulse	1	t		46.0	2.5	/experiments/knapen_AOT/AOT_stimuli/rescaled_final/1451_fw.mp4	0.0	238.0952639579773	
48	221.93297696113586	pulse	1	t		46.0	2.5	/experiments/knapen_AOT/AOT_stimuli/rescaled_final/1451_fw.mp4	0.0	239.69534492492676	
48	222.04965496063232	fix_post	2		12	46.0	2.5	/experiments/knapen_AOT/AOT_stimuli/rescaled_final/1451_fw.mp4	0.0	239.81202292442322	0.09994292259216309
49	222.1495978832245	fix_pre	0		119	47.0	2.5	/experiments/knapen_AOT/AOT_stimuli/rescaled_final/1523_rv.mp4	0.0	239.91196584701538	0.991767168045044
49	223.14136505126953	movie	1		242	47.0	2.5	/experiments/knapen_AOT/AOT_stimuli/rescaled_final/1523_rv.mp4	0.0	240.90373301506042	2.500514030456543
49	223.5333869457245	pulse	1	t		47.0	2.5	/experiments/knapen_AOT/AOT_stimuli/rescaled_final/1523_rv.mp4	0.0	241.29575490951538	
49	225.1335470676422	pulse	1	t		47.0	2.5	/experiments/knapen_AOT/AOT_stimuli/rescaled_final/1523_rv.mp4	0.0	242.8959150314331	
49	225.64187908172607	fix_post	2		12	47.0	2.5	/experiments/knapen_AOT/AOT_stimuli/rescaled_final/1523_rv.mp4	0.0	243.40424704551697	0.09990096092224121
50	225.74178004264832	fix_pre	0		120	48.0	2.5	blank	1.0	243.5041480064392	1.000182867050171
50	226.73381209373474	pulse	0	t		48.0	2.5	blank	1.0	244.49618005752563	
50	226.7419629096985	movie	1		301	48.0	2.5	blank	1.0	244.50433087348938	2.508679151535034
50	228.3265459537506	pulse	1	t		48.0	2.5	blank	1.0	246.0889139175415	
50	229.25064206123352	fix_post	2		12	48.0	2.5	blank	1.0	247.0130100250244	0.10001492500305176
51	229.35065698623657	fix_pre	0		120	49.0	2.5	/experiments/knapen_AOT/AOT_stimuli/rescaled_final/2157_fw.mp4	0.0	247.11302495002747	1.000135898590088
51	229.92670702934265	pulse	0	t		49.0	2.5	/experiments/knapen_AOT/AOT_stimuli/rescaled_final/2157_fw.mp4	0.0	247.68907499313354	
51	230.35079288482666	movie	1		242	49.0	2.5	/experiments/knapen_AOT/AOT_stimuli/rescaled_final/2157_fw.mp4	0.0	248.11316084861755	2.5005881786346436
51	231.53049302101135	pulse	1	t		49.0	2.5	/experiments/knapen_AOT/AOT_stimuli/rescaled_final/2157_fw.mp4	0.0	249.29286098480225	
51	232.8513810634613	fix_post	2		12	49.0	2.5	/experiments/knapen_AOT/AOT_stimuli/rescaled_final/2157_fw.mp4	0.0	250.6137490272522	0.09984183311462402
52	232.95122289657593	fix_pre	0		120	50.0	2.5	/experiments/knapen_AOT/AOT_stimuli/rescaled_final/0357_fw.mp4	0.0	250.71359086036682	1.0000841617584229
52	233.12731409072876	pulse	0	t		50.0	2.5	/experiments/knapen_AOT/AOT_stimuli/rescaled_final/0357_fw.mp4	0.0	250.88968205451965	
52	233.95130705833435	movie	1		243	50.0	2.5	/experiments/knapen_AOT/AOT_stimuli/rescaled_final/0357_fw.mp4	0.0	251.71367502212524	2.500577926635742
52	234.72670888900757	pulse	1	t		50.0	2.5	/experiments/knapen_AOT/AOT_stimuli/rescaled_final/0357_fw.mp4	0.0	252.48907685279846	
52	236.32687211036682	pulse	1	t		50.0	2.5	/experiments/knapen_AOT/AOT_stimuli/rescaled_final/0357_fw.mp4	0.0	254.08924007415771	
52	236.4518849849701	fix_post	2		12	50.0	2.5	/experiments/knapen_AOT/AOT_stimuli/rescaled_final/0357_fw.mp4	0.0	254.214252948761	0.09984707832336426
53	236.55173206329346	fix_pre	0		120	51.0	2.5	/experiments/knapen_AOT/AOT_stimuli/rescaled_final/1991_rv.mp4	0.0	254.31410002708435	1.0001318454742432
53	237.5518639087677	movie	1		241	51.0	2.5	/experiments/knapen_AOT/AOT_stimuli/rescaled_final/1991_rv.mp4	0.0	255.3142318725586	2.4921181201934814
53	237.92705488204956	pulse	1	t		51.0	2.5	/experiments/knapen_AOT/AOT_stimuli/rescaled_final/1991_rv.mp4	0.0	255.68942284584045	
53	239.52740788459778	pulse	1	t		51.0	2.5	/experiments/knapen_AOT/AOT_stimuli/rescaled_final/1991_rv.mp4	0.0	257.2897758483887	
53	240.04398202896118	fix_post	2		12	51.0	2.5	/experiments/knapen_AOT/AOT_stimuli/rescaled_final/1991_rv.mp4	0.0	257.8063499927521	0.099945068359375
54	240.14392709732056	fix_pre	0		119	52.0	2.5	/experiments/knapen_AOT/AOT_stimuli/rescaled_final/1978_fw.mp4	0.0	257.90629506111145	0.9918599128723145
54	241.12753295898438	pulse	0	t		52.0	2.5	/experiments/knapen_AOT/AOT_stimuli/rescaled_final/1978_fw.mp4	0.0	258.88990092277527	
54	241.13578701019287	movie	1		243	52.0	2.5	/experiments/knapen_AOT/AOT_stimuli/rescaled_final/1978_fw.mp4	0.0	258.89815497398376	2.508760929107666
54	242.72832489013672	pulse	1	t		52.0	2.5	/experiments/knapen_AOT/AOT_stimuli/rescaled_final/1978_fw.mp4	0.0	260.4906928539276	
54	243.64454793930054	fix_post	2		12	52.0	2.5	/experiments/knapen_AOT/AOT_stimuli/rescaled_final/1978_fw.mp4	0.0	261.40691590309143	0.09992003440856934
55	243.7444679737091	fix_pre	0		120	53.0	2.5	/experiments/knapen_AOT/AOT_stimuli/rescaled_final/1951_rv.mp4	0.0	261.5068359375	1.0002031326293945
55	244.32803201675415	pulse	0	t		53.0	2.5	/experiments/knapen_AOT/AOT_stimuli/rescaled_final/1951_rv.mp4	0.0	262.09039998054504	
55	244.7446711063385	movie	1		242	53.0	2.5	/experiments/knapen_AOT/AOT_stimuli/rescaled_final/1951_rv.mp4	0.0	262.5070390701294	2.5004868507385254
55	245.92834401130676	pulse	1	t		53.0	2.5	/experiments/knapen_AOT/AOT_stimuli/rescaled_final/1951_rv.mp4	0.0	263.69071197509766	
55	247.24515795707703	fix_post	2		12	53.0	2.5	/experiments/knapen_AOT/AOT_stimuli/rescaled_final/1951_rv.mp4	0.0	265.0075259208679	0.09984803199768066
56	247.3450059890747	fix_pre	0		120	54.0	2.5	blank	1.0	265.1073739528656	1.0001490116119385
56	247.52853107452393	pulse	0	t		54.0	2.5	blank	1.0	265.2908990383148	
56	248.34515500068665	movie	1		300	54.0	2.5	blank	1.0	266.10752296447754	2.500359058380127
56	249.12877988815308	pulse	1	t		54.0	2.5	blank	1.0	266.89114785194397	
56	250.72894406318665	pulse	1	t		54.0	2.5	blank	1.0	268.49131202697754	
56	250.84551405906677	fix_post	2		12	54.0	2.5	blank	1.0	268.60788202285767	0.1000359058380127
57	250.94554996490479	fix_pre	0		120	55.0	2.5	/experiments/knapen_AOT/AOT_stimuli/rescaled_final/1088_fw.mp4	0.0	268.7079179286957	1.0001609325408936
57	251.94571089744568	movie	1		243	55.0	2.5	/experiments/knapen_AOT/AOT_stimuli/rescaled_final/1088_fw.mp4	0.0	269.7080788612366	2.492033004760742
57	252.33076810836792	pulse	1	t		55.0	2.5	/experiments/knapen_AOT/AOT_stimuli/rescaled_final/1088_fw.mp4	0.0	270.0931360721588	
57	253.929447889328	pulse	1	t		55.0	2.5	/experiments/knapen_AOT/AOT_stimuli/rescaled_final/1088_fw.mp4	0.0	271.6918158531189	
57	254.43774390220642	fix_post	2		12	55.0	2.5	/experiments/knapen_AOT/AOT_stimuli/rescaled_final/1088_fw.mp4	0.0	272.2001118659973	0.10003900527954102
58	254.53778290748596	fix_pre	0		120	56.0	2.5	/experiments/knapen_AOT/AOT_stimuli/rescaled_final/2018_fw.mp4	0.0	272.30015087127686	1.0000669956207275
58	255.52976202964783	pulse	0	t		56.0	2.5	/experiments/knapen_AOT/AOT_stimuli/rescaled_final/2018_fw.mp4	0.0	273.2921299934387	
58	255.5378499031067	movie	1		244	56.0	2.5	/experiments/knapen_AOT/AOT_stimuli/rescaled_final/2018_fw.mp4	0.0	273.3002178668976	2.5087530612945557
58	257.1304409503937	pulse	1	t		56.0	2.5	/experiments/knapen_AOT/AOT_stimuli/rescaled_final/2018_fw.mp4	0.0	274.89280891418457	
58	258.04660296440125	fix_post	2		12	56.0	2.5	/experiments/knapen_AOT/AOT_stimuli/rescaled_final/2018_fw.mp4	0.0	275.80897092819214	0.09999608993530273
59	258.14659905433655	fix_pre	0		120	57.0	2.5	/experiments/knapen_AOT/AOT_stimuli/rescaled_final/1982_fw.mp4	0.0	275.90896701812744	1.0001790523529053
59	258.73022198677063	pulse	0	t		57.0	2.5	/experiments/knapen_AOT/AOT_stimuli/rescaled_final/1982_fw.mp4	0.0	276.4925899505615	
59	259.14677810668945	movie	1		242	57.0	2.5	/experiments/knapen_AOT/AOT_stimuli/rescaled_final/1982_fw.mp4	0.0	276.90914607048035	2.50055193901062
59	260.3304760456085	pulse	1	t		57.0	2.5	/experiments/knapen_AOT/AOT_stimuli/rescaled_final/1982_fw.mp4	0.0	278.0928440093994	
59	261.6473300457001	fix_post	2		12	57.0	2.5	/experiments/knapen_AOT/AOT_stimuli/rescaled_final/1982_fw.mp4	0.0	279.40969800949097	0.09982490539550781
60	261.7471549510956	fix_pre	0		120	58.0	2.5	/experiments/knapen_AOT/AOT_stimuli/rescaled_final/2171_fw.mp4	0.0	279.5095229148865	1.0001161098480225
60	261.9306728839874	pulse	0	t		58.0	2.5	/experiments/knapen_AOT/AOT_stimuli/rescaled_final/2171_fw.mp4	0.0	279.6930408477783	
60	262.7472710609436	movie	1		242	58.0	2.5	/experiments/knapen_AOT/AOT_stimuli/rescaled_final/2171_fw.mp4	0.0	280.5096390247345	2.500566005706787
60	263.5311529636383	pulse	1	t		58.0	2.5	/experiments/knapen_AOT/AOT_stimuli/rescaled_final/2171_fw.mp4	0.0	281.2935209274292	
60	265.1316909790039	pulse	1	t		58.0	2.5	/experiments/knapen_AOT/AOT_stimuli/rescaled_final/2171_fw.mp4	0.0	282.8940589427948	
60	265.2478370666504	fix_post	2		12	58.0	2.5	/experiments/knapen_AOT/AOT_stimuli/rescaled_final/2171_fw.mp4	0.0	283.0102050304413	0.09987783432006836
61	265.34771490097046	fix_pre	0		120	59.0	2.5	/experiments/knapen_AOT/AOT_stimuli/rescaled_final/0025_rv.mp4	0.0	283.11008286476135	1.000169038772583
61	266.34788393974304	movie	1		242	59.0	2.5	/experiments/knapen_AOT/AOT_stimuli/rescaled_final/0025_rv.mp4	0.0	284.11025190353394	2.492172956466675
61	266.7360670566559	pulse	1	t		59.0	2.5	/experiments/knapen_AOT/AOT_stimuli/rescaled_final/0025_rv.mp4	0.0	284.4984350204468	
61	268.33163499832153	pulse	1	t		59.0	2.5	/experiments/knapen_AOT/AOT_stimuli/rescaled_final/0025_rv.mp4	0.0	286.0940029621124	
61	268.8400568962097	fix_post	2		12	59.0	2.5	/experiments/knapen_AOT/AOT_stimuli/rescaled_final/0025_rv.mp4	0.0	286.6024248600006	0.09985804557800293
62	268.9399149417877	fix_pre	0		120	60.0	2.5	/experiments/knapen_AOT/AOT_stimuli/rescaled_final/1688_fw.mp4	0.0	286.7022829055786	1.0000941753387451
62	269.9319920539856	pulse	0	t		60.0	2.5	/experiments/knapen_AOT/AOT_stimuli/rescaled_final/1688_fw.mp4	0.0	287.6943600177765	
62	269.94000911712646	movie	1		243	60.0	2.5	/experiments/knapen_AOT/AOT_stimuli/rescaled_final/1688_fw.mp4	0.0	287.70237708091736	2.508819818496704
62	271.5329918861389	pulse	1	t		60.0	2.5	/experiments/knapen_AOT/AOT_stimuli/rescaled_final/1688_fw.mp4	0.0	289.2953598499298	
62	272.44882893562317	fix_post	2		12	60.0	2.5	/experiments/knapen_AOT/AOT_stimuli/rescaled_final/1688_fw.mp4	0.0	290.21119689941406	0.10000205039978027
63	272.54883098602295	fix_pre	0		120	61.0	2.5	/experiments/knapen_AOT/AOT_stimuli/rescaled_final/0522_rv.mp4	0.0	290.31119894981384	1.0001180171966553
63	273.132355928421	pulse	0	t		61.0	2.5	/experiments/knapen_AOT/AOT_stimuli/rescaled_final/0522_rv.mp4	0.0	290.8947238922119	
63	273.5489490032196	movie	1		243	61.0	2.5	/experiments/knapen_AOT/AOT_stimuli/rescaled_final/0522_rv.mp4	0.0	291.3113169670105	2.500488042831421
63	274.73262000083923	pulse	1	t		61.0	2.5	/experiments/knapen_AOT/AOT_stimuli/rescaled_final/0522_rv.mp4	0.0	292.4949879646301	
63	276.049437046051	fix_post	2		12	61.0	2.5	/experiments/knapen_AOT/AOT_stimuli/rescaled_final/0522_rv.mp4	0.0	293.8118050098419	0.09983706474304199
64	276.14927411079407	fix_pre	0		120	62.0	2.5	blank	1.0	293.91164207458496	1.0001428127288818
64	276.3329060077667	pulse	0	t		62.0	2.5	blank	1.0	294.0952739715576	
64	277.14941692352295	movie	1		300	62.0	2.5	blank	1.0	294.91178488731384	2.5003960132598877
64	277.93320894241333	pulse	1	t		62.0	2.5	blank	1.0	295.6955769062042	
64	279.5333309173584	pulse	1	t		62.0	2.5	blank	1.0	297.2956988811493	
64	279.64981293678284	fix_post	2		12	62.0	2.5	blank	1.0	297.41218090057373	0.10003495216369629
65	279.74984788894653	fix_pre	0		120	63.0	2.5	/experiments/knapen_AOT/AOT_stimuli/rescaled_final/1576_rv.mp4	0.0	297.5122158527374	1.0001602172851562
65	280.7500081062317	movie	1		242	63.0	2.5	/experiments/knapen_AOT/AOT_stimuli/rescaled_final/1576_rv.mp4	0.0	298.5123760700226	2.492233991622925
65	281.1381630897522	pulse	1	t		63.0	2.5	/experiments/knapen_AOT/AOT_stimuli/rescaled_final/1576_rv.mp4	0.0	298.9005310535431	
65	282.72656989097595	pulse	1	t		63.0	2.5	/experiments/knapen_AOT/AOT_stimuli/rescaled_final/1576_rv.mp4	0.0	300.48893785476685	
65	283.2422420978546	fix_post	2		12	63.0	2.5	/experiments/knapen_AOT/AOT_stimuli/rescaled_final/1576_rv.mp4	0.0	301.0046100616455	0.09981894493103027
66	283.34206104278564	fix_pre	0		117	64.0	2.5	/experiments/knapen_AOT/AOT_stimuli/rescaled_final/0420_rv.mp4	0.0	301.10442900657654	1.0000979900360107
66	284.3264710903168	pulse	0	t		64.0	2.5	/experiments/knapen_AOT/AOT_stimuli/rescaled_final/0420_rv.mp4	0.0	302.08883905410767	
66	284.34215903282166	movie	1		244	64.0	2.5	/experiments/knapen_AOT/AOT_stimuli/rescaled_final/0420_rv.mp4	0.0	302.10452699661255	2.5087978839874268
66	285.93566489219666	pulse	1	t		64.0	2.5	/experiments/knapen_AOT/AOT_stimuli/rescaled_final/0420_rv.mp4	0.0	303.69803285598755	
66	286.8509569168091	fix_post	2		12	64.0	2.5	/experiments/knapen_AOT/AOT_stimuli/rescaled_final/0420_rv.mp4	0.0	304.6133248806	0.09995698928833008
67	286.9509139060974	fix_pre	0		120	65.0	2.5	/experiments/knapen_AOT/AOT_stimuli/rescaled_final/0059_fw.mp4	0.0	304.7132818698883	1.0001261234283447
67	287.52693009376526	pulse	0	t		65.0	2.5	/experiments/knapen_AOT/AOT_stimuli/rescaled_final/0059_fw.mp4	0.0	305.28929805755615	
67	287.95104002952576	movie	1		242	65.0	2.5	/experiments/knapen_AOT/AOT_stimuli/rescaled_final/0059_fw.mp4	0.0	305.71340799331665	2.500527858734131
67	289.12695598602295	pulse	1	t		65.0	2.5	/experiments/knapen_AOT/AOT_stimuli/rescaled_final/0059_fw.mp4	0.0	306.88932394981384	
67	290.4515678882599	fix_post	2		12	65.0	2.5	/experiments/knapen_AOT/AOT_stimuli/rescaled_final/0059_fw.mp4	0.0	308.2139358520508	0.09985899925231934
68	290.5514268875122	fix_pre	0		120	66.0	2.5	/experiments/knapen_AOT/AOT_stimuli/rescaled_final/1576_rv.mp4	0.0	308.3137948513031	1.0003361701965332
68	290.7266209125519	pulse	0	t		66.0	2.5	/experiments/knapen_AOT/AOT_stimuli/rescaled_final/1576_rv.mp4	0.0	308.4889888763428	
68	291.55176305770874	movie	1		244	66.0	2.5	/experiments/knapen_AOT/AOT_stimuli/rescaled_final/1576_rv.mp4	0.0	309.31413102149963	2.500216007232666
68	292.32685589790344	pulse	1	t		66.0	2.5	/experiments/knapen_AOT/AOT_stimuli/rescaled_final/1576_rv.mp4	0.0	310.08922386169434	
68	293.92722511291504	pulse	1	t		66.0	2.5	/experiments/knapen_AOT/AOT_stimuli/rescaled_final/1576_rv.mp4	0.0	311.68959307670593	
68	294.0519790649414	fix_post	2		12	66.0	2.5	/experiments/knapen_AOT/AOT_stimuli/rescaled_final/1576_rv.mp4	0.0	311.8143470287323	0.10004901885986328
69	294.15202808380127	fix_pre	0		120	67.0	2.5	/experiments/knapen_AOT/AOT_stimuli/rescaled_final/2125_rv.mp4	0.0	311.91439604759216	1.0001239776611328
69	295.1521520614624	movie	1		243	67.0	2.5	/experiments/knapen_AOT/AOT_stimuli/rescaled_final/2125_rv.mp4	0.0	312.9145200252533	2.4920549392700195
69	295.5274178981781	pulse	1	t		67.0	2.5	/experiments/knapen_AOT/AOT_stimuli/rescaled_final/2125_rv.mp4	0.0	313.289785861969	
69	297.127592086792	pulse	1	t		67.0	2.5	/experiments/knapen_AOT/AOT_stimuli/rescaled_final/2125_rv.mp4	0.0	314.8899600505829	
69	297.6442070007324	fix_post	2		12	67.0	2.5	/experiments/knapen_AOT/AOT_stimuli/rescaled_final/2125_rv.mp4	0.0	315.4065749645233	0.100006103515625
70	297.74421310424805	fix_pre	0		119	68.0	2.5	blank	1.0	315.50658106803894	0.9918229579925537
70	298.7278289794922	pulse	0	t		68.0	2.5	blank	1.0	316.4901969432831	
70	298.7360360622406	movie	1		301	68.0	2.5	blank	1.0	316.4984040260315	2.508671998977661
70	300.3280439376831	pulse	1	t		68.0	2.5	blank	1.0	318.090411901474	
70	301.24470806121826	fix_post	2		12	68.0	2.5	blank	1.0	319.00707602500916	0.10002899169921875
71	301.3447370529175	fix_pre	0		120	69.0	2.5	/experiments/knapen_AOT/AOT_stimuli/rescaled_final/1444_fw.mp4	0.0	319.1071050167084	1.0001859664916992
71	301.9284300804138	pulse	0	t		69.0	2.5	/experiments/knapen_AOT/AOT_stimuli/rescaled_final/1444_fw.mp4	0.0	319.6907980442047	
71	302.3449230194092	movie	1		242	69.0	2.5	/experiments/knapen_AOT/AOT_stimuli/rescaled_final/1444_fw.mp4	0.0	320.1072909832001	2.500516891479492
71	303.5286569595337	pulse	1	t		69.0	2.5	/experiments/knapen_AOT/AOT_stimuli/rescaled_final/1444_fw.mp4	0.0	321.2910249233246	
71	304.8454399108887	fix_post	2		12	69.0	2.5	/experiments/knapen_AOT/AOT_stimuli/rescaled_final/1444_fw.mp4	0.0	322.60780787467957	0.09978103637695312
72	304.9452209472656	fix_pre	0		120	70.0	2.5	/experiments/knapen_AOT/AOT_stimuli/rescaled_final/0664_fw.mp4	0.0	322.7075889110565	1.000154972076416
72	305.12881803512573	pulse	0	t		70.0	2.5	/experiments/knapen_AOT/AOT_stimuli/rescaled_final/0664_fw.mp4	0.0	322.8911859989166	
72	305.94537591934204	movie	1		243	70.0	2.5	/experiments/knapen_AOT/AOT_stimuli/rescaled_final/0664_fw.mp4	0.0	323.70774388313293	2.500432014465332
72	306.729129076004	pulse	1	t		70.0	2.5	/experiments/knapen_AOT/AOT_stimuli/rescaled_final/0664_fw.mp4	0.0	324.4914970397949	
72	308.32982206344604	pulse	1	t		70.0	2.5	/experiments/knapen_AOT/AOT_stimuli/rescaled_final/0664_fw.mp4	0.0	326.09219002723694	
72	308.4458079338074	fix_post	2		12	70.0	2.5	/experiments/knapen_AOT/AOT_stimuli/rescaled_final/0664_fw.mp4	0.0	326.20817589759827	0.10002303123474121
73	308.5458309650421	fix_pre	0		120	71.0	2.5	/experiments/knapen_AOT/AOT_stimuli/rescaled_final/0357_fw.mp4	0.0	326.308198928833	1.0001330375671387
73	309.54596400260925	movie	1		242	71.0	2.5	/experiments/knapen_AOT/AOT_stimuli/rescaled_final/0357_fw.mp4	0.0	327.30833196640015	2.4920120239257812
73	309.93013310432434	pulse	1	t		71.0	2.5	/experiments/knapen_AOT/AOT_stimuli/rescaled_final/0357_fw.mp4	0.0	327.69250106811523	
73	311.5297260284424	pulse	1	t		71.0	2.5	/experiments/knapen_AOT/AOT_stimuli/rescaled_final/0357_fw.mp4	0.0	329.2920939922333	
73	312.03797602653503	fix_post	2		12	71.0	2.5	/experiments/knapen_AOT/AOT_stimuli/rescaled_final/0357_fw.mp4	0.0	329.8003439903259	0.1000359058380127
74	312.13801193237305	fix_pre	0		120	72.0	2.5	/experiments/knapen_AOT/AOT_stimuli/rescaled_final/1033_rv.mp4	0.0	329.90037989616394	1.000162124633789
74	313.13003611564636	pulse	0	t		72.0	2.5	/experiments/knapen_AOT/AOT_stimuli/rescaled_final/1033_rv.mp4	0.0	330.89240407943726	
74	313.13817405700684	movie	1		243	72.0	2.5	/experiments/knapen_AOT/AOT_stimuli/rescaled_final/1033_rv.mp4	0.0	330.90054202079773	2.5086538791656494
74	314.7307848930359	pulse	1	t		72.0	2.5	/experiments/knapen_AOT/AOT_stimuli/rescaled_final/1033_rv.mp4	0.0	332.4931528568268	
74	315.6468279361725	fix_post	2		12	72.0	2.5	/experiments/knapen_AOT/AOT_stimuli/rescaled_final/1033_rv.mp4	0.0	333.4091958999634	0.10004806518554688
75	315.74687600135803	fix_pre	0		120	73.0	2.5	/experiments/knapen_AOT/AOT_stimuli/rescaled_final/0837_rv.mp4	0.0	333.5092439651489	1.000154972076416
75	316.33052492141724	pulse	0	t		73.0	2.5	/experiments/knapen_AOT/AOT_stimuli/rescaled_final/0837_rv.mp4	0.0	334.09289288520813	
75	316.74703097343445	movie	1		242	73.0	2.5	/experiments/knapen_AOT/AOT_stimuli/rescaled_final/0837_rv.mp4	0.0	334.50939893722534	2.500437021255493
75	317.93085289001465	pulse	1	t		73.0	2.5	/experiments/knapen_AOT/AOT_stimuli/rescaled_final/0837_rv.mp4	0.0	335.69322085380554	
75	319.24746799468994	fix_post	2		12	73.0	2.5	/experiments/knapen_AOT/AOT_stimuli/rescaled_final/0837_rv.mp4	0.0	337.00983595848083	0.09993100166320801
76	319.34739899635315	fix_pre	0		120	74.0	2.5	/experiments/knapen_AOT/AOT_stimuli/rescaled_final/1237_fw.mp4	0.0	337.10976696014404	1.0001730918884277
76	319.53095602989197	pulse	0	t		74.0	2.5	/experiments/knapen_AOT/AOT_stimuli/rescaled_final/1237_fw.mp4	0.0	337.29332399368286	
76	320.3475720882416	movie	1		242	74.0	2.5	/experiments/knapen_AOT/AOT_stimuli/rescaled_final/1237_fw.mp4	0.0	338.10994005203247	2.5004730224609375
76	321.13121604919434	pulse	1	t		74.0	2.5	/experiments/knapen_AOT/AOT_stimuli/rescaled_final/1237_fw.mp4	0.0	338.89358401298523	
76	322.73208498954773	pulse	1	t		74.0	2.5	/experiments/knapen_AOT/AOT_stimuli/rescaled_final/1237_fw.mp4	0.0	340.4944529533386	
76	322.8480451107025	fix_post	2		12	74.0	2.5	/experiments/knapen_AOT/AOT_stimuli/rescaled_final/1237_fw.mp4	0.0	340.6104130744934	0.09990096092224121
77	322.94794607162476	fix_pre	0		120	75.0	2.5	/experiments/knapen_AOT/AOT_stimuli/rescaled_final/2146_fw.mp4	0.0	340.71031403541565	1.000121831893921
77	323.9480679035187	movie	1		242	75.0	2.5	/experiments/knapen_AOT/AOT_stimuli/rescaled_final/2146_fw.mp4	0.0	341.71043586730957	2.49220609664917
77	324.3324270248413	pulse	1	t		75.0	2.5	/experiments/knapen_AOT/AOT_stimuli/rescaled_final/2146_fw.mp4	0.0	342.0947949886322	
77	325.93189811706543	pulse	1	t		75.0	2.5	/experiments/knapen_AOT/AOT_stimuli/rescaled_final/2146_fw.mp4	0.0	343.6942660808563	
77	326.44027400016785	fix_post	2		12	75.0	2.5	/experiments/knapen_AOT/AOT_stimuli/rescaled_final/2146_fw.mp4	0.0	344.20264196395874	0.09990191459655762
78	326.5401759147644	fix_pre	0		120	76.0	2.5	blank	1.0	344.3025438785553	1.0000760555267334
78	327.5320770740509	pulse	0	t		76.0	2.5	blank	1.0	345.2944450378418	
78	327.54025197029114	movie	1		301	76.0	2.5	blank	1.0	345.30261993408203	2.508742094039917
78	329.1324439048767	pulse	1	t		76.0	2.5	blank	1.0	346.8948118686676	
78	330.04899406433105	fix_post	2		12	76.0	2.5	blank	1.0	347.81136202812195	0.10004091262817383
79	330.14903497695923	fix_pre	0		120	77.0	2.5	/experiments/knapen_AOT/AOT_stimuli/rescaled_final/1319_rv.mp4	0.0	347.9114029407501	1.0001130104064941
79	330.7325870990753	pulse	0	t		77.0	2.5	/experiments/knapen_AOT/AOT_stimuli/rescaled_final/1319_rv.mp4	0.0	348.4949550628662	
79	331.1491479873657	movie	1		244	77.0	2.5	/experiments/knapen_AOT/AOT_stimuli/rescaled_final/1319_rv.mp4	0.0	348.9115159511566	2.5004539489746094
79	332.328978061676	pulse	1	t		77.0	2.5	/experiments/knapen_AOT/AOT_stimuli/rescaled_final/1319_rv.mp4	0.0	350.0913460254669	
79	333.64960193634033	fix_post	2		12	77.0	2.5	/experiments/knapen_AOT/AOT_stimuli/rescaled_final/1319_rv.mp4	0.0	351.4119699001312	0.10001206398010254
80	333.74961400032043	fix_pre	0		120	78.0	2.5	/experiments/knapen_AOT/AOT_stimuli/rescaled_final/1115_fw.mp4	0.0	351.5119819641113	1.0000739097595215
80	333.9331569671631	pulse	0	t		78.0	2.5	/experiments/knapen_AOT/AOT_stimuli/rescaled_final/1115_fw.mp4	0.0	351.695524930954	
80	334.74968791007996	movie	1		242	78.0	2.5	/experiments/knapen_AOT/AOT_stimuli/rescaled_final/1115_fw.mp4	0.0	352.51205587387085	2.5004780292510986
80	335.5333080291748	pulse	1	t		78.0	2.5	/experiments/knapen_AOT/AOT_stimuli/rescaled_final/1115_fw.mp4	0.0	353.2956759929657	
80	337.1335780620575	pulse	1	t		78.0	2.5	/experiments/knapen_AOT/AOT_stimuli/rescaled_final/1115_fw.mp4	0.0	354.8959460258484	
80	337.25016593933105	fix_post	2		12	78.0	2.5	/experiments/knapen_AOT/AOT_stimuli/rescaled_final/1115_fw.mp4	0.0	355.01253390312195	0.09989809989929199
81	337.35006403923035	fix_pre	0		120	79.0	2.5	/experiments/knapen_AOT/AOT_stimuli/rescaled_final/1574_rv.mp4	0.0	355.11243200302124	1.0001590251922607
81	338.3502230644226	movie	1		242	79.0	2.5	/experiments/knapen_AOT/AOT_stimuli/rescaled_final/1574_rv.mp4	0.0	356.1125910282135	2.4921538829803467
81	338.7345530986786	pulse	1	t		79.0	2.5	/experiments/knapen_AOT/AOT_stimuli/rescaled_final/1574_rv.mp4	0.0	356.4969210624695	
81	340.3341600894928	pulse	1	t		79.0	2.5	/experiments/knapen_AOT/AOT_stimuli/rescaled_final/1574_rv.mp4	0.0	358.0965280532837	
81	340.84237694740295	fix_post	2		12	79.0	2.5	/experiments/knapen_AOT/AOT_stimuli/rescaled_final/1574_rv.mp4	0.0	358.60474491119385	0.099884033203125
82	340.9422609806061	fix_pre	0		120	80.0	2.5	/experiments/knapen_AOT/AOT_stimuli/rescaled_final/0701_rv.mp4	0.0	358.704628944397	1.0001740455627441
82	341.92687797546387	pulse	0	t		80.0	2.5	/experiments/knapen_AOT/AOT_stimuli/rescaled_final/0701_rv.mp4	0.0	359.68924593925476	
82	341.9424350261688	movie	1		243	80.0	2.5	/experiments/knapen_AOT/AOT_stimuli/rescaled_final/0701_rv.mp4	0.0	359.7048029899597	2.5087809562683105
82	343.5352261066437	pulse	1	t		80.0	2.5	/experiments/knapen_AOT/AOT_stimuli/rescaled_final/0701_rv.mp4	0.0	361.29759407043457	
82	344.45121598243713	fix_post	2		12	80.0	2.5	/experiments/knapen_AOT/AOT_stimuli/rescaled_final/0701_rv.mp4	0.0	362.213583946228	0.09993100166320801
83	344.55114698410034	fix_pre	0		120	81.0	2.5	/experiments/knapen_AOT/AOT_stimuli/rescaled_final/0459_rv.mp4	0.0	362.31351494789124	1.0001509189605713
83	345.1271901130676	pulse	0	t		81.0	2.5	/experiments/knapen_AOT/AOT_stimuli/rescaled_final/0459_rv.mp4	0.0	362.8895580768585	
83	345.5512979030609	movie	1		243	81.0	2.5	/experiments/knapen_AOT/AOT_stimuli/rescaled_final/0459_rv.mp4	0.0	363.3136658668518	2.5005722045898438
83	346.7276430130005	pulse	1	t		81.0	2.5	/experiments/knapen_AOT/AOT_stimuli/rescaled_final/0459_rv.mp4	0.0	364.4900109767914	
83	348.05187010765076	fix_post	2		12	81.0	2.5	/experiments/knapen_AOT/AOT_stimuli/rescaled_final/0459_rv.mp4	0.0	365.81423807144165	0.09986996650695801
84	348.1517400741577	fix_pre	0		120	82.0	2.5	blank	1.0	365.9141080379486	1.0000779628753662
84	348.3276491165161	pulse	0	t		82.0	2.5	blank	1.0	366.090017080307	
84	349.1518180370331	movie	1		300	82.0	2.5	blank	1.0	366.914186000824	2.500396966934204
84	349.9271779060364	pulse	1	t		82.0	2.5	blank	1.0	367.68954586982727	
84	351.5273039340973	pulse	1	t		82.0	2.5	blank	1.0	369.2896718978882	
84	351.6522150039673	fix_post	2		12	82.0	2.5	blank	1.0	369.4145829677582	0.10002303123474121
85	351.752238035202	fix_pre	0		116	83.0	2.5	/experiments/knapen_AOT/AOT_stimuli/rescaled_final/1818_fw.mp4	0.0	369.5146059989929	0.9918050765991211
85	352.74404311180115	movie	1		242	83.0	2.5	/experiments/knapen_AOT/AOT_stimuli/rescaled_final/1818_fw.mp4	0.0	370.50641107559204	2.5004308223724365
85	353.1282229423523	pulse	1	t		83.0	2.5	/experiments/knapen_AOT/AOT_stimuli/rescaled_final/1818_fw.mp4	0.0	370.8905909061432	
85	354.7279579639435	pulse	1	t		83.0	2.5	/experiments/knapen_AOT/AOT_stimuli/rescaled_final/1818_fw.mp4	0.0	372.4903259277344	
85	355.2444739341736	fix_post	2		12	83.0	2.5	/experiments/knapen_AOT/AOT_stimuli/rescaled_final/1818_fw.mp4	0.0	373.0068418979645	0.10002017021179199
87	355.3444941043854	stim	0		1716					373.10686206817627	14.302081823348999
87	356.32820200920105	pulse	0	t						374.09056997299194	
87	357.9283170700073	pulse	0	t						375.6906850337982	
87	359.5284860134125	pulse	0	t						377.29085397720337	
87	361.12882804870605	pulse	0	t						378.89119601249695	
87	362.7290699481964	pulse	0	t						380.4914379119873	
87	364.32930397987366	pulse	0	t						382.09167194366455	
87	365.92943596839905	pulse	0	t						383.69180393218994	
87	367.5296630859375	pulse	0	t						385.2920310497284	
87	369.1300039291382	pulse	0	t						386.8923718929291	
