trial_nr	onset	event_type	phase	response	nr_frames	movie_index	movie_duration	movie_file	blank	onset_abs	duration
0	0.14940285682678223	stim	0		18					19.659276962280273	0.15040802955627441
0	0.29190993309020996	response	0	space						19.8017840385437	
1	0.29981088638305664	stim	0		4793					19.809684991836548	39.941076040267944
1	40.238044023513794	pulse	0	t						59.747918128967285	
1	40.240886926651	stim	1		1717					59.75076103210449	14.308806896209717
1	41.83333992958069	pulse	1	t						61.34321403503418	
1	43.43319082260132	pulse	1	t						62.94306492805481	
1	45.0331609249115	pulse	1	t						64.54303503036499	
1	46.63315391540527	pulse	1	t						66.14302802085876	
1	48.23319697380066	pulse	1	t						67.74307107925415	
1	49.83308982849121	pulse	1	t						69.3429639339447	
1	51.433125019073486	pulse	1	t						70.94299912452698	
1	53.03319501876831	pulse	1	t						72.5430691242218	
2	54.54969382286072	fix_pre	0		11	0.0	2.5	/experiments/AOT/AOT_stimuli/rescaled_final/1687_fw.mp4	0.0	74.05956792831421	0.09167098999023438
2	54.63315987586975	pulse	0	t		0.0	2.5	/experiments/AOT/AOT_stimuli/rescaled_final/1687_fw.mp4	0.0	74.14303398132324	
2	54.64136481285095	movie	1		244	0.0	2.5	/experiments/AOT/AOT_stimuli/rescaled_final/1687_fw.mp4	0.0	74.15123891830444	2.5083141326904297
2	56.23279881477356	pulse	1	t		0.0	2.5	/experiments/AOT/AOT_stimuli/rescaled_final/1687_fw.mp4	0.0	75.74267292022705	
2	57.14967894554138	fix_post	2		12	0.0	2.5	/experiments/AOT/AOT_stimuli/rescaled_final/1687_fw.mp4	0.0	76.65955305099487	0.09996199607849121
3	57.24964094161987	fix_pre	0		120	1.0	2.5	/experiments/AOT/AOT_stimuli/rescaled_final/0942_fw.mp4	0.0	76.75951504707336	1.0000190734863281
3	57.83314299583435	pulse	0	t		1.0	2.5	/experiments/AOT/AOT_stimuli/rescaled_final/0942_fw.mp4	0.0	77.34301710128784	
3	58.2496600151062	movie	1		244	1.0	2.5	/experiments/AOT/AOT_stimuli/rescaled_final/0942_fw.mp4	0.0	77.75953412055969	2.4995129108428955
3	59.43311786651611	pulse	1	t		1.0	2.5	/experiments/AOT/AOT_stimuli/rescaled_final/0942_fw.mp4	0.0	78.9429919719696	
3	60.7491729259491	fix_post	2		12	1.0	2.5	/experiments/AOT/AOT_stimuli/rescaled_final/0942_fw.mp4	0.0	80.25904703140259	0.10048103332519531
4	60.84965395927429	fix_pre	0		120	2.0	2.5	/experiments/AOT/AOT_stimuli/rescaled_final/0451_rv.mp4	0.0	80.35952806472778	0.9996368885040283
4	61.03309202194214	pulse	0	t		2.0	2.5	/experiments/AOT/AOT_stimuli/rescaled_final/0451_rv.mp4	0.0	80.54296612739563	
4	61.84929084777832	movie	1		244	2.0	2.5	/experiments/AOT/AOT_stimuli/rescaled_final/0451_rv.mp4	0.0	81.35916495323181	2.4998819828033447
4	62.633419036865234	pulse	1	t		2.0	2.5	/experiments/AOT/AOT_stimuli/rescaled_final/0451_rv.mp4	0.0	82.14329314231873	
4	64.23259401321411	pulse	1	t		2.0	2.5	/experiments/AOT/AOT_stimuli/rescaled_final/0451_rv.mp4	0.0	83.7424681186676	
4	64.34917283058167	fix_post	2		12	2.0	2.5	/experiments/AOT/AOT_stimuli/rescaled_final/0451_rv.mp4	0.0	83.85904693603516	0.10044002532958984
5	64.44961285591125	fix_pre	0		120	3.0	2.5	/experiments/AOT/AOT_stimuli/rescaled_final/1767_rv.mp4	0.0	83.95948696136475	0.9999921321868896
5	65.44960498809814	movie	1		245	3.0	2.5	/experiments/AOT/AOT_stimuli/rescaled_final/1767_rv.mp4	0.0	84.95947909355164	2.499990940093994
5	65.83259892463684	pulse	1	t		3.0	2.5	/experiments/AOT/AOT_stimuli/rescaled_final/1767_rv.mp4	0.0	85.34247303009033	
5	67.4329628944397	pulse	1	t		3.0	2.5	/experiments/AOT/AOT_stimuli/rescaled_final/1767_rv.mp4	0.0	86.94283699989319	
5	67.94959592819214	fix_post	2		12	3.0	2.5	/experiments/AOT/AOT_stimuli/rescaled_final/1767_rv.mp4	0.0	87.45947003364563	0.09955191612243652
6	68.04914784431458	fix_pre	0		119	4.0	2.5	/experiments/AOT/AOT_stimuli/rescaled_final/1188_fw.mp4	0.0	87.55902194976807	0.9922540187835693
6	69.0329999923706	pulse	0	t		4.0	2.5	/experiments/AOT/AOT_stimuli/rescaled_final/1188_fw.mp4	0.0	88.5428740978241	
6	69.04140186309814	movie	1		245	4.0	2.5	/experiments/AOT/AOT_stimuli/rescaled_final/1188_fw.mp4	0.0	88.55127596855164	2.5081350803375244
6	70.63327383995056	pulse	1	t		4.0	2.5	/experiments/AOT/AOT_stimuli/rescaled_final/1188_fw.mp4	0.0	90.14314794540405	
6	71.54953694343567	fix_post	2		12	4.0	2.5	/experiments/AOT/AOT_stimuli/rescaled_final/1188_fw.mp4	0.0	91.05941104888916	0.10003995895385742
7	71.64957690238953	fix_pre	0		120	5.0	2.5	blank	1.0	91.15945100784302	0.9999790191650391
7	72.23299598693848	pulse	0	t		5.0	2.5	blank	1.0	91.74287009239197	
7	72.64955592155457	movie	1		300	5.0	2.5	blank	1.0	92.15943002700806	2.4999759197235107
7	73.83310985565186	pulse	1	t		5.0	2.5	blank	1.0	93.34298396110535	
7	75.14953184127808	fix_post	2		12	5.0	2.5	blank	1.0	94.65940594673157	0.09993219375610352
8	75.24946403503418	fix_pre	0		120	6.0	2.5	/experiments/AOT/AOT_stimuli/rescaled_final/1961_fw.mp4	0.0	94.75933814048767	1.0001249313354492
8	75.43304896354675	pulse	0	t		6.0	2.5	/experiments/AOT/AOT_stimuli/rescaled_final/1961_fw.mp4	0.0	94.94292306900024	
8	76.24958896636963	movie	1		243	6.0	2.5	/experiments/AOT/AOT_stimuli/rescaled_final/1961_fw.mp4	0.0	95.75946307182312	2.4998779296875
8	77.03293180465698	pulse	1	t		6.0	2.5	/experiments/AOT/AOT_stimuli/rescaled_final/1961_fw.mp4	0.0	96.54280591011047	
8	78.64136791229248	pulse	1	t		6.0	2.5	/experiments/AOT/AOT_stimuli/rescaled_final/1961_fw.mp4	0.0	98.15124201774597	
8	78.74946689605713	fix_post	2		12	6.0	2.5	/experiments/AOT/AOT_stimuli/rescaled_final/1961_fw.mp4	0.0	98.25934100151062	0.10003209114074707
9	78.84949898719788	fix_pre	0		120	7.0	2.5	/experiments/AOT/AOT_stimuli/rescaled_final/1902_rv.mp4	0.0	98.35937309265137	1.0000519752502441
9	79.84955096244812	movie	1		246	7.0	2.5	/experiments/AOT/AOT_stimuli/rescaled_final/1902_rv.mp4	0.0	99.35942506790161	2.5004239082336426
9	80.23238801956177	pulse	1	t		7.0	2.5	/experiments/AOT/AOT_stimuli/rescaled_final/1902_rv.mp4	0.0	99.74226212501526	
9	81.83286881446838	pulse	1	t		7.0	2.5	/experiments/AOT/AOT_stimuli/rescaled_final/1902_rv.mp4	0.0	101.34274291992188	
9	82.34997487068176	fix_post	2		12	7.0	2.5	/experiments/AOT/AOT_stimuli/rescaled_final/1902_rv.mp4	0.0	101.85984897613525	0.09912705421447754
10	82.44910192489624	fix_pre	0		119	8.0	2.5	/experiments/AOT/AOT_stimuli/rescaled_final/1592_fw.mp4	0.0	101.95897603034973	0.9920139312744141
10	83.43289685249329	pulse	0	t		8.0	2.5	/experiments/AOT/AOT_stimuli/rescaled_final/1592_fw.mp4	0.0	102.94277095794678	
10	83.44111585617065	movie	1		247	8.0	2.5	/experiments/AOT/AOT_stimuli/rescaled_final/1592_fw.mp4	0.0	102.95098996162415	2.5084011554718018
10	85.03274703025818	pulse	1	t		8.0	2.5	/experiments/AOT/AOT_stimuli/rescaled_final/1592_fw.mp4	0.0	104.54262113571167	
10	85.94951701164246	fix_post	2		12	8.0	2.5	/experiments/AOT/AOT_stimuli/rescaled_final/1592_fw.mp4	0.0	105.45939111709595	0.09995198249816895
11	86.04946899414062	fix_pre	0		120	9.0	2.5	/experiments/AOT/AOT_stimuli/rescaled_final/1676_rv.mp4	0.0	105.55934309959412	1.0000548362731934
11	86.63290691375732	pulse	0	t		9.0	2.5	/experiments/AOT/AOT_stimuli/rescaled_final/1676_rv.mp4	0.0	106.14278101921082	
11	87.04952383041382	movie	1		243	9.0	2.5	/experiments/AOT/AOT_stimuli/rescaled_final/1676_rv.mp4	0.0	106.55939793586731	2.499988079071045
11	88.23303985595703	pulse	1	t		9.0	2.5	/experiments/AOT/AOT_stimuli/rescaled_final/1676_rv.mp4	0.0	107.74291396141052	
11	89.54951190948486	fix_post	2		12	9.0	2.5	/experiments/AOT/AOT_stimuli/rescaled_final/1676_rv.mp4	0.0	109.05938601493835	0.09999299049377441
12	89.64950489997864	fix_pre	0		120	10.0	2.5	/experiments/AOT/AOT_stimuli/rescaled_final/1169_fw.mp4	0.0	109.15937900543213	1.0000030994415283
12	89.83297491073608	pulse	0	t		10.0	2.5	/experiments/AOT/AOT_stimuli/rescaled_final/1169_fw.mp4	0.0	109.34284901618958	
12	90.64950799942017	movie	1		244	10.0	2.5	/experiments/AOT/AOT_stimuli/rescaled_final/1169_fw.mp4	0.0	110.15938210487366	2.4998719692230225
12	91.4329400062561	pulse	1	t		10.0	2.5	/experiments/AOT/AOT_stimuli/rescaled_final/1169_fw.mp4	0.0	110.9428141117096	
12	93.0413908958435	pulse	1	t		10.0	2.5	/experiments/AOT/AOT_stimuli/rescaled_final/1169_fw.mp4	0.0	112.551265001297	
12	93.14937996864319	fix_post	2		12	10.0	2.5	/experiments/AOT/AOT_stimuli/rescaled_final/1169_fw.mp4	0.0	112.65925407409668	0.10004997253417969
13	93.24942994117737	fix_pre	0		120	11.0	2.5	/experiments/AOT/AOT_stimuli/rescaled_final/0839_rv.mp4	0.0	112.75930404663086	0.9996049404144287
13	94.2490348815918	movie	1		244	11.0	2.5	/experiments/AOT/AOT_stimuli/rescaled_final/0839_rv.mp4	0.0	113.75890898704529	2.500025987625122
13	94.63327598571777	pulse	1	t		11.0	2.5	/experiments/AOT/AOT_stimuli/rescaled_final/0839_rv.mp4	0.0	114.14315009117126	
13	96.23292303085327	pulse	1	t		11.0	2.5	/experiments/AOT/AOT_stimuli/rescaled_final/0839_rv.mp4	0.0	115.74279713630676	
13	96.74906086921692	fix_post	2		12	11.0	2.5	/experiments/AOT/AOT_stimuli/rescaled_final/0839_rv.mp4	0.0	116.25893497467041	0.10037112236022949
14	96.84943199157715	fix_pre	0		119	12.0	2.5	blank	1.0	116.35930609703064	0.991649866104126
14	97.83286881446838	pulse	0	t		12.0	2.5	blank	1.0	117.34274291992188	
14	97.84108185768127	movie	1		301	12.0	2.5	blank	1.0	117.35095596313477	2.5083391666412354
14	99.43292999267578	pulse	1	t		12.0	2.5	blank	1.0	118.94280409812927	
14	100.34942102432251	fix_post	2		12	12.0	2.5	blank	1.0	119.859295129776	0.10006093978881836
15	100.44948196411133	fix_pre	0		120	13.0	2.5	/experiments/AOT/AOT_stimuli/rescaled_final/0720_fw.mp4	0.0	119.95935606956482	0.9999110698699951
15	101.03290700912476	pulse	0	t		13.0	2.5	/experiments/AOT/AOT_stimuli/rescaled_final/0720_fw.mp4	0.0	120.54278111457825	
15	101.44939303398132	movie	1		247	13.0	2.5	/experiments/AOT/AOT_stimuli/rescaled_final/0720_fw.mp4	0.0	120.95926713943481	2.4998698234558105
15	102.63302302360535	pulse	1	t		13.0	2.5	/experiments/AOT/AOT_stimuli/rescaled_final/0720_fw.mp4	0.0	122.14289712905884	
15	103.94926285743713	fix_post	2		12	13.0	2.5	/experiments/AOT/AOT_stimuli/rescaled_final/0720_fw.mp4	0.0	123.45913696289062	0.10012102127075195
16	104.04938387870789	fix_pre	0		120	14.0	2.5	/experiments/AOT/AOT_stimuli/rescaled_final/0412_rv.mp4	0.0	123.55925798416138	1.0000290870666504
16	104.23287296295166	pulse	0	t		14.0	2.5	/experiments/AOT/AOT_stimuli/rescaled_final/0412_rv.mp4	0.0	123.74274706840515	
16	105.04941296577454	movie	1		244	14.0	2.5	/experiments/AOT/AOT_stimuli/rescaled_final/0412_rv.mp4	0.0	124.55928707122803	2.5000178813934326
16	105.83286786079407	pulse	1	t		14.0	2.5	/experiments/AOT/AOT_stimuli/rescaled_final/0412_rv.mp4	0.0	125.34274196624756	
16	107.4330518245697	pulse	1	t		14.0	2.5	/experiments/AOT/AOT_stimuli/rescaled_final/0412_rv.mp4	0.0	126.9429259300232	
16	107.54943084716797	fix_post	2		12	14.0	2.5	/experiments/AOT/AOT_stimuli/rescaled_final/0412_rv.mp4	0.0	127.05930495262146	0.10001015663146973
17	107.64944100379944	fix_pre	0		120	15.0	2.5	/experiments/AOT/AOT_stimuli/rescaled_final/0664_fw.mp4	0.0	127.15931510925293	0.9995179176330566
17	108.6489589214325	movie	1		243	15.0	2.5	/experiments/AOT/AOT_stimuli/rescaled_final/0664_fw.mp4	0.0	128.158833026886	2.5005249977111816
17	109.0326759815216	pulse	1	t		15.0	2.5	/experiments/AOT/AOT_stimuli/rescaled_final/0664_fw.mp4	0.0	128.5425500869751	
17	110.63281893730164	pulse	1	t		15.0	2.5	/experiments/AOT/AOT_stimuli/rescaled_final/0664_fw.mp4	0.0	130.14269304275513	
17	111.14948391914368	fix_post	2		12	15.0	2.5	/experiments/AOT/AOT_stimuli/rescaled_final/0664_fw.mp4	0.0	130.65935802459717	0.09987902641296387
18	111.24936294555664	fix_pre	0		119	16.0	2.5	/experiments/AOT/AOT_stimuli/rescaled_final/0862_rv.mp4	0.0	130.75923705101013	0.9916958808898926
18	112.23294687271118	pulse	0	t		16.0	2.5	/experiments/AOT/AOT_stimuli/rescaled_final/0862_rv.mp4	0.0	131.74282097816467	
18	112.24105882644653	movie	1		244	16.0	2.5	/experiments/AOT/AOT_stimuli/rescaled_final/0862_rv.mp4	0.0	131.75093293190002	2.5079171657562256
18	113.83303689956665	pulse	1	t		16.0	2.5	/experiments/AOT/AOT_stimuli/rescaled_final/0862_rv.mp4	0.0	133.34291100502014	
18	114.74897599220276	fix_post	2		12	16.0	2.5	/experiments/AOT/AOT_stimuli/rescaled_final/0862_rv.mp4	0.0	134.25885009765625	0.1004629135131836
19	114.84943890571594	fix_pre	0		120	17.0	2.5	/experiments/AOT/AOT_stimuli/rescaled_final/2102_rv.mp4	0.0	134.35931301116943	0.9999721050262451
19	115.43288493156433	pulse	0	t		17.0	2.5	/experiments/AOT/AOT_stimuli/rescaled_final/2102_rv.mp4	0.0	134.94275903701782	
19	115.84941101074219	movie	1		244	17.0	2.5	/experiments/AOT/AOT_stimuli/rescaled_final/2102_rv.mp4	0.0	135.35928511619568	2.499804973602295
19	117.03240990638733	pulse	1	t		17.0	2.5	/experiments/AOT/AOT_stimuli/rescaled_final/2102_rv.mp4	0.0	136.54228401184082	
19	118.34921598434448	fix_post	2		12	17.0	2.5	/experiments/AOT/AOT_stimuli/rescaled_final/2102_rv.mp4	0.0	137.85909008979797	0.10034584999084473
20	118.44956183433533	fix_pre	0		120	18.0	2.5	/experiments/AOT/AOT_stimuli/rescaled_final/1676_rv.mp4	0.0	137.95943593978882	0.9997861385345459
20	118.63265085220337	pulse	0	t		18.0	2.5	/experiments/AOT/AOT_stimuli/rescaled_final/1676_rv.mp4	0.0	138.14252495765686	
20	119.44934797286987	movie	1		243	18.0	2.5	/experiments/AOT/AOT_stimuli/rescaled_final/1676_rv.mp4	0.0	138.95922207832336	2.4999589920043945
20	120.23283791542053	pulse	1	t		18.0	2.5	/experiments/AOT/AOT_stimuli/rescaled_final/1676_rv.mp4	0.0	139.74271202087402	
20	121.84117293357849	pulse	1	t		18.0	2.5	/experiments/AOT/AOT_stimuli/rescaled_final/1676_rv.mp4	0.0	141.35104703903198	
20	121.94930696487427	fix_post	2		12	18.0	2.5	/experiments/AOT/AOT_stimuli/rescaled_final/1676_rv.mp4	0.0	141.45918107032776	0.0999908447265625
21	122.04929780960083	fix_pre	0		120	19.0	2.5	/experiments/AOT/AOT_stimuli/rescaled_final/1973_rv.mp4	0.0	141.55917191505432	0.9996411800384521
21	123.04893898963928	movie	1		244	19.0	2.5	/experiments/AOT/AOT_stimuli/rescaled_final/1973_rv.mp4	0.0	142.55881309509277	2.499932050704956
21	123.43277382850647	pulse	1	t		19.0	2.5	/experiments/AOT/AOT_stimuli/rescaled_final/1973_rv.mp4	0.0	142.94264793395996	
21	125.0327320098877	pulse	1	t		19.0	2.5	/experiments/AOT/AOT_stimuli/rescaled_final/1973_rv.mp4	0.0	144.5426061153412	
21	125.54887104034424	fix_post	2		12	19.0	2.5	/experiments/AOT/AOT_stimuli/rescaled_final/1973_rv.mp4	0.0	145.05874514579773	0.1004178524017334
22	125.64928889274597	fix_pre	0		119	20.0	2.5	blank	1.0	145.15916299819946	0.991689920425415
22	126.63274693489075	pulse	0	t		20.0	2.5	blank	1.0	146.14262104034424	
22	126.64097881317139	movie	1		301	20.0	2.5	blank	1.0	146.15085291862488	2.508280038833618
22	128.2327790260315	pulse	1	t		20.0	2.5	blank	1.0	147.74265313148499	
22	129.149258852005	fix_post	2		12	20.0	2.5	blank	1.0	148.6591329574585	0.10001611709594727
23	129.24927496910095	fix_pre	0		120	21.0	2.5	/experiments/AOT/AOT_stimuli/rescaled_final/0542_fw.mp4	0.0	148.75914907455444	1.000040054321289
23	129.83264303207397	pulse	0	t		21.0	2.5	/experiments/AOT/AOT_stimuli/rescaled_final/0542_fw.mp4	0.0	149.34251713752747	
23	130.24931502342224	movie	1		247	21.0	2.5	/experiments/AOT/AOT_stimuli/rescaled_final/0542_fw.mp4	0.0	149.75918912887573	2.499959945678711
23	131.43278694152832	pulse	1	t		21.0	2.5	/experiments/AOT/AOT_stimuli/rescaled_final/0542_fw.mp4	0.0	150.9426610469818	
23	132.74927496910095	fix_post	2		12	21.0	2.5	/experiments/AOT/AOT_stimuli/rescaled_final/0542_fw.mp4	0.0	152.25914907455444	0.09993886947631836
24	132.84921383857727	fix_pre	0		120	22.0	2.5	/experiments/AOT/AOT_stimuli/rescaled_final/1184_fw.mp4	0.0	152.35908794403076	1.0000481605529785
24	133.03268098831177	pulse	0	t		22.0	2.5	/experiments/AOT/AOT_stimuli/rescaled_final/1184_fw.mp4	0.0	152.54255509376526	
24	133.84926199913025	movie	1		245	22.0	2.5	/experiments/AOT/AOT_stimuli/rescaled_final/1184_fw.mp4	0.0	153.35913610458374	2.499652862548828
24	134.63271188735962	pulse	1	t		22.0	2.5	/experiments/AOT/AOT_stimuli/rescaled_final/1184_fw.mp4	0.0	154.1425859928131	
24	136.24107384681702	pulse	1	t		22.0	2.5	/experiments/AOT/AOT_stimuli/rescaled_final/1184_fw.mp4	0.0	155.7509479522705	
24	136.34891486167908	fix_post	2		12	22.0	2.5	/experiments/AOT/AOT_stimuli/rescaled_final/1184_fw.mp4	0.0	155.85878896713257	0.10033512115478516
25	136.44924998283386	fix_pre	0		120	23.0	2.5	/experiments/AOT/AOT_stimuli/rescaled_final/1699_rv.mp4	0.0	155.95912408828735	0.999582052230835
25	137.4488320350647	movie	1		244	23.0	2.5	/experiments/AOT/AOT_stimuli/rescaled_final/1699_rv.mp4	0.0	156.9587061405182	2.500358819961548
25	137.83255290985107	pulse	1	t		23.0	2.5	/experiments/AOT/AOT_stimuli/rescaled_final/1699_rv.mp4	0.0	157.34242701530457	
25	139.4326410293579	pulse	1	t		23.0	2.5	/experiments/AOT/AOT_stimuli/rescaled_final/1699_rv.mp4	0.0	158.9425151348114	
25	139.94919085502625	fix_post	2		12	23.0	2.5	/experiments/AOT/AOT_stimuli/rescaled_final/1699_rv.mp4	0.0	159.45906496047974	0.10019898414611816
26	140.04938983917236	fix_pre	0		119	24.0	2.5	/experiments/AOT/AOT_stimuli/rescaled_final/2098_fw.mp4	0.0	159.55926394462585	0.9915180206298828
26	141.03279185295105	pulse	0	t		24.0	2.5	/experiments/AOT/AOT_stimuli/rescaled_final/2098_fw.mp4	0.0	160.54266595840454	
26	141.04090785980225	movie	1		245	24.0	2.5	/experiments/AOT/AOT_stimuli/rescaled_final/2098_fw.mp4	0.0	160.55078196525574	2.5079081058502197
26	142.6411108970642	pulse	1	t		24.0	2.5	/experiments/AOT/AOT_stimuli/rescaled_final/2098_fw.mp4	0.0	162.1509850025177	
26	143.54881596565247	fix_post	2		12	24.0	2.5	/experiments/AOT/AOT_stimuli/rescaled_final/2098_fw.mp4	0.0	163.05869007110596	0.10035991668701172
27	143.64917588233948	fix_pre	0		120	25.0	2.5	/experiments/AOT/AOT_stimuli/rescaled_final/1256_rv.mp4	0.0	163.15904998779297	1.0000989437103271
27	144.23275089263916	pulse	0	t		25.0	2.5	/experiments/AOT/AOT_stimuli/rescaled_final/1256_rv.mp4	0.0	163.74262499809265	
27	144.6492748260498	movie	1		245	25.0	2.5	/experiments/AOT/AOT_stimuli/rescaled_final/1256_rv.mp4	0.0	164.1591489315033	2.4995410442352295
27	145.83267998695374	pulse	1	t		25.0	2.5	/experiments/AOT/AOT_stimuli/rescaled_final/1256_rv.mp4	0.0	165.34255409240723	
27	147.14881587028503	fix_post	2		12	25.0	2.5	/experiments/AOT/AOT_stimuli/rescaled_final/1256_rv.mp4	0.0	166.65868997573853	0.10039806365966797
28	147.2492139339447	fix_pre	0		120	26.0	2.5	blank	1.0	166.7590880393982	1.000040054321289
28	147.43264985084534	pulse	0	t		26.0	2.5	blank	1.0	166.94252395629883	
28	148.249253988266	movie	1		300	26.0	2.5	blank	1.0	167.75912809371948	2.4999618530273438
28	149.03272700309753	pulse	1	t		26.0	2.5	blank	1.0	168.54260110855103	
28	150.63265895843506	pulse	1	t		26.0	2.5	blank	1.0	170.14253306388855	
28	150.74921584129333	fix_post	2		12	26.0	2.5	blank	1.0	170.25908994674683	0.09997296333312988
29	150.84918880462646	fix_pre	0		120	27.0	2.5	/experiments/AOT/AOT_stimuli/rescaled_final/0834_rv.mp4	0.0	170.35906291007996	1.0000851154327393
29	151.8492739200592	movie	1		243	27.0	2.5	/experiments/AOT/AOT_stimuli/rescaled_final/0834_rv.mp4	0.0	171.3591480255127	2.4999020099639893
29	152.2411048412323	pulse	1	t		27.0	2.5	/experiments/AOT/AOT_stimuli/rescaled_final/0834_rv.mp4	0.0	171.7509789466858	
29	153.83265280723572	pulse	1	t		27.0	2.5	/experiments/AOT/AOT_stimuli/rescaled_final/0834_rv.mp4	0.0	173.3425269126892	
29	154.3491759300232	fix_post	2		12	27.0	2.5	/experiments/AOT/AOT_stimuli/rescaled_final/0834_rv.mp4	0.0	173.85905003547668	0.09995889663696289
30	154.44913482666016	fix_pre	0		119	28.0	2.5	/experiments/AOT/AOT_stimuli/rescaled_final/0298_fw.mp4	0.0	173.95900893211365	0.9917101860046387
30	155.43260502815247	pulse	0	t		28.0	2.5	/experiments/AOT/AOT_stimuli/rescaled_final/0298_fw.mp4	0.0	174.94247913360596	
30	155.4408450126648	movie	1		246	28.0	2.5	/experiments/AOT/AOT_stimuli/rescaled_final/0298_fw.mp4	0.0	174.9507191181183	2.508347988128662
30	157.03358101844788	pulse	1	t		28.0	2.5	/experiments/AOT/AOT_stimuli/rescaled_final/0298_fw.mp4	0.0	176.54345512390137	
30	157.94919300079346	fix_post	2		12	28.0	2.5	/experiments/AOT/AOT_stimuli/rescaled_final/0298_fw.mp4	0.0	177.45906710624695	0.10002684593200684
31	158.04921984672546	fix_pre	0		120	29.0	2.5	/experiments/AOT/AOT_stimuli/rescaled_final/1287_fw.mp4	0.0	177.55909395217896	0.9999041557312012
31	158.63265085220337	pulse	0	t		29.0	2.5	/experiments/AOT/AOT_stimuli/rescaled_final/1287_fw.mp4	0.0	178.14252495765686	
31	159.04912400245667	movie	1		245	29.0	2.5	/experiments/AOT/AOT_stimuli/rescaled_final/1287_fw.mp4	0.0	178.55899810791016	2.499663829803467
31	160.232666015625	pulse	1	t		29.0	2.5	/experiments/AOT/AOT_stimuli/rescaled_final/1287_fw.mp4	0.0	179.7425401210785	
31	161.54878783226013	fix_post	2		12	29.0	2.5	/experiments/AOT/AOT_stimuli/rescaled_final/1287_fw.mp4	0.0	181.05866193771362	0.1004021167755127
32	161.64918994903564	fix_pre	0		120	30.0	2.5	/experiments/AOT/AOT_stimuli/rescaled_final/1584_fw.mp4	0.0	181.15906405448914	0.999985933303833
32	161.83259987831116	pulse	0	t		30.0	2.5	/experiments/AOT/AOT_stimuli/rescaled_final/1584_fw.mp4	0.0	181.34247398376465	
32	162.64917588233948	movie	1		245	30.0	2.5	/experiments/AOT/AOT_stimuli/rescaled_final/1584_fw.mp4	0.0	182.15904998779297	2.499964952468872
32	163.43256783485413	pulse	1	t		30.0	2.5	/experiments/AOT/AOT_stimuli/rescaled_final/1584_fw.mp4	0.0	182.94244194030762	
32	165.04092288017273	pulse	1	t		30.0	2.5	/experiments/AOT/AOT_stimuli/rescaled_final/1584_fw.mp4	0.0	184.55079698562622	
32	165.14914083480835	fix_post	2		12	30.0	2.5	/experiments/AOT/AOT_stimuli/rescaled_final/1584_fw.mp4	0.0	184.65901494026184	0.100067138671875
33	165.24920797348022	fix_pre	0		120	31.0	2.5	/experiments/AOT/AOT_stimuli/rescaled_final/0981_rv.mp4	0.0	184.75908207893372	0.999945878982544
33	166.24915385246277	movie	1		244	31.0	2.5	/experiments/AOT/AOT_stimuli/rescaled_final/0981_rv.mp4	0.0	185.75902795791626	2.4995970726013184
33	166.63206386566162	pulse	1	t		31.0	2.5	/experiments/AOT/AOT_stimuli/rescaled_final/0981_rv.mp4	0.0	186.1419379711151	
33	168.23350381851196	pulse	1	t		31.0	2.5	/experiments/AOT/AOT_stimuli/rescaled_final/0981_rv.mp4	0.0	187.74337792396545	
33	168.7487509250641	fix_post	2		12	31.0	2.5	/experiments/AOT/AOT_stimuli/rescaled_final/0981_rv.mp4	0.0	188.25862503051758	0.10034298896789551
34	168.84909391403198	fix_pre	0		120	32.0	2.5	/experiments/AOT/AOT_stimuli/rescaled_final/0250_rv.mp4	0.0	188.35896801948547	0.999953031539917
34	169.833429813385	pulse	0	t		32.0	2.5	/experiments/AOT/AOT_stimuli/rescaled_final/0250_rv.mp4	0.0	189.3433039188385	
34	169.8490469455719	movie	1		244	32.0	2.5	/experiments/AOT/AOT_stimuli/rescaled_final/0250_rv.mp4	0.0	189.3589210510254	2.507991075515747
34	171.44171285629272	pulse	1	t		32.0	2.5	/experiments/AOT/AOT_stimuli/rescaled_final/0250_rv.mp4	0.0	190.95158696174622	
34	172.35703802108765	fix_post	2		12	32.0	2.5	/experiments/AOT/AOT_stimuli/rescaled_final/0250_rv.mp4	0.0	191.86691212654114	0.10043501853942871
35	172.45747303962708	fix_pre	0		120	33.0	2.5	/experiments/AOT/AOT_stimuli/rescaled_final/0034_fw.mp4	0.0	191.96734714508057	0.9996218681335449
35	173.03309392929077	pulse	0	t		33.0	2.5	/experiments/AOT/AOT_stimuli/rescaled_final/0034_fw.mp4	0.0	192.54296803474426	
35	173.45709490776062	movie	1		245	33.0	2.5	/experiments/AOT/AOT_stimuli/rescaled_final/0034_fw.mp4	0.0	192.9669690132141	2.50039005279541
35	174.63345003128052	pulse	1	t		33.0	2.5	/experiments/AOT/AOT_stimuli/rescaled_final/0034_fw.mp4	0.0	194.143324136734	
35	175.95748496055603	fix_post	2		12	33.0	2.5	/experiments/AOT/AOT_stimuli/rescaled_final/0034_fw.mp4	0.0	195.46735906600952	0.09993505477905273
36	176.05742001533508	fix_pre	0		120	34.0	2.5	blank	1.0	195.56729412078857	0.9995498657226562
36	176.23257994651794	pulse	0	t		34.0	2.5	blank	1.0	195.74245405197144	
36	177.05696988105774	movie	1		300	34.0	2.5	blank	1.0	196.56684398651123	2.500483989715576
36	177.83255696296692	pulse	1	t		34.0	2.5	blank	1.0	197.3424310684204	
36	179.4326069355011	pulse	1	t		34.0	2.5	blank	1.0	198.9424810409546	
36	179.55745387077332	fix_post	2		12	34.0	2.5	blank	1.0	199.0673279762268	0.0999610424041748
37	179.6574149131775	fix_pre	0		120	35.0	2.5	/experiments/AOT/AOT_stimuli/rescaled_final/1592_rv.mp4	0.0	199.16728901863098	0.9999539852142334
37	180.65736889839172	movie	1		243	35.0	2.5	/experiments/AOT/AOT_stimuli/rescaled_final/1592_rv.mp4	0.0	200.16724300384521	2.4999630451202393
37	181.03242802619934	pulse	1	t		35.0	2.5	/experiments/AOT/AOT_stimuli/rescaled_final/1592_rv.mp4	0.0	200.54230213165283	
37	182.63251399993896	pulse	1	t		35.0	2.5	/experiments/AOT/AOT_stimuli/rescaled_final/1592_rv.mp4	0.0	202.14238810539246	
37	183.15733194351196	fix_post	2		12	35.0	2.5	/experiments/AOT/AOT_stimuli/rescaled_final/1592_rv.mp4	0.0	202.66720604896545	0.10001397132873535
38	183.2573459148407	fix_pre	0		119	36.0	2.5	/experiments/AOT/AOT_stimuli/rescaled_final/1533_fw.mp4	0.0	202.7672200202942	0.9915890693664551
38	184.23326182365417	pulse	0	t		36.0	2.5	/experiments/AOT/AOT_stimuli/rescaled_final/1533_fw.mp4	0.0	203.74313592910767	
38	184.24893498420715	movie	1		245	36.0	2.5	/experiments/AOT/AOT_stimuli/rescaled_final/1533_fw.mp4	0.0	203.75880908966064	2.508340835571289
38	185.8404779434204	pulse	1	t		36.0	2.5	/experiments/AOT/AOT_stimuli/rescaled_final/1533_fw.mp4	0.0	205.3503520488739	
38	186.75727581977844	fix_post	2		12	36.0	2.5	/experiments/AOT/AOT_stimuli/rescaled_final/1533_fw.mp4	0.0	206.26714992523193	0.10001611709594727
39	186.8572919368744	fix_pre	0		120	37.0	2.5	/experiments/AOT/AOT_stimuli/rescaled_final/0742_fw.mp4	0.0	206.36716604232788	0.9995789527893066
39	187.43248081207275	pulse	0	t		37.0	2.5	/experiments/AOT/AOT_stimuli/rescaled_final/0742_fw.mp4	0.0	206.94235491752625	
39	187.8568708896637	movie	1		243	37.0	2.5	/experiments/AOT/AOT_stimuli/rescaled_final/0742_fw.mp4	0.0	207.3667449951172	2.5004160404205322
39	189.0408480167389	pulse	1	t		37.0	2.5	/experiments/AOT/AOT_stimuli/rescaled_final/0742_fw.mp4	0.0	208.55072212219238	
39	190.35728693008423	fix_post	2		12	37.0	2.5	/experiments/AOT/AOT_stimuli/rescaled_final/0742_fw.mp4	0.0	209.86716103553772	0.09994006156921387
40	190.45722699165344	fix_pre	0		120	38.0	2.5	/experiments/AOT/AOT_stimuli/rescaled_final/1676_fw.mp4	0.0	209.96710109710693	1.000074863433838
40	190.6324348449707	pulse	0	t		38.0	2.5	/experiments/AOT/AOT_stimuli/rescaled_final/1676_fw.mp4	0.0	210.1423089504242	
40	191.45730185508728	movie	1		242	38.0	2.5	/experiments/AOT/AOT_stimuli/rescaled_final/1676_fw.mp4	0.0	210.96717596054077	2.499927043914795
40	192.23238801956177	pulse	1	t		38.0	2.5	/experiments/AOT/AOT_stimuli/rescaled_final/1676_fw.mp4	0.0	211.74226212501526	
40	193.83238887786865	pulse	1	t		38.0	2.5	/experiments/AOT/AOT_stimuli/rescaled_final/1676_fw.mp4	0.0	213.34226298332214	
40	193.95722889900208	fix_post	2		12	38.0	2.5	/experiments/AOT/AOT_stimuli/rescaled_final/1676_fw.mp4	0.0	213.46710300445557	0.09978008270263672
41	194.0570089817047	fix_pre	0		120	39.0	2.5	/experiments/AOT/AOT_stimuli/rescaled_final/0813_fw.mp4	0.0	213.5668830871582	1.0002589225769043
41	195.05726790428162	movie	1		245	39.0	2.5	/experiments/AOT/AOT_stimuli/rescaled_final/0813_fw.mp4	0.0	214.5671420097351	2.4996979236602783
41	195.43241596221924	pulse	1	t		39.0	2.5	/experiments/AOT/AOT_stimuli/rescaled_final/0813_fw.mp4	0.0	214.94229006767273	
41	197.03251791000366	pulse	1	t		39.0	2.5	/experiments/AOT/AOT_stimuli/rescaled_final/0813_fw.mp4	0.0	216.54239201545715	
41	197.5569658279419	fix_post	2		12	39.0	2.5	/experiments/AOT/AOT_stimuli/rescaled_final/0813_fw.mp4	0.0	217.06683993339539	0.10033917427062988
42	197.65730500221252	fix_pre	0		118	40.0	2.5	/experiments/AOT/AOT_stimuli/rescaled_final/1038_rv.mp4	0.0	217.16717910766602	0.9833238124847412
42	198.63241291046143	pulse	0	t		40.0	2.5	/experiments/AOT/AOT_stimuli/rescaled_final/1038_rv.mp4	0.0	218.14228701591492	
42	198.64062881469727	movie	1		246	40.0	2.5	/experiments/AOT/AOT_stimuli/rescaled_final/1038_rv.mp4	0.0	218.15050292015076	2.5082809925079346
42	200.24072289466858	pulse	1	t		40.0	2.5	/experiments/AOT/AOT_stimuli/rescaled_final/1038_rv.mp4	0.0	219.75059700012207	
42	201.1489098072052	fix_post	2		12	40.0	2.5	/experiments/AOT/AOT_stimuli/rescaled_final/1038_rv.mp4	0.0	220.6587839126587	0.0999600887298584
43	201.24886989593506	fix_pre	0		120	41.0	2.5	/experiments/AOT/AOT_stimuli/rescaled_final/0613_rv.mp4	0.0	220.75874400138855	1.0001099109649658
43	201.8331320285797	pulse	0	t		41.0	2.5	/experiments/AOT/AOT_stimuli/rescaled_final/0613_rv.mp4	0.0	221.3430061340332	
43	202.24897980690002	movie	1		243	41.0	2.5	/experiments/AOT/AOT_stimuli/rescaled_final/0613_rv.mp4	0.0	221.75885391235352	2.4994630813598633
43	203.43337893486023	pulse	1	t		41.0	2.5	/experiments/AOT/AOT_stimuli/rescaled_final/0613_rv.mp4	0.0	222.94325304031372	
43	204.7484428882599	fix_post	2		12	41.0	2.5	/experiments/AOT/AOT_stimuli/rescaled_final/0613_rv.mp4	0.0	224.25831699371338	0.10049295425415039
44	204.84893584251404	fix_pre	0		120	42.0	2.5	blank	1.0	224.35880994796753	1.0000171661376953
44	205.03236389160156	pulse	0	t		42.0	2.5	blank	1.0	224.54223799705505	
44	205.84895300865173	movie	1		300	42.0	2.5	blank	1.0	225.35882711410522	2.5000460147857666
44	206.63253593444824	pulse	1	t		42.0	2.5	blank	1.0	226.14241003990173	
44	208.23231101036072	pulse	1	t		42.0	2.5	blank	1.0	227.7421851158142	
44	208.3489990234375	fix_post	2		12	42.0	2.5	blank	1.0	227.858873128891	0.09992599487304688
45	208.44892501831055	fix_pre	0		120	43.0	2.5	/experiments/AOT/AOT_stimuli/rescaled_final/0812_rv.mp4	0.0	227.95879912376404	0.9999728202819824
45	209.44889783859253	movie	1		243	43.0	2.5	/experiments/AOT/AOT_stimuli/rescaled_final/0812_rv.mp4	0.0	228.95877194404602	2.5000929832458496
45	209.8407859802246	pulse	1	t		43.0	2.5	/experiments/AOT/AOT_stimuli/rescaled_final/0812_rv.mp4	0.0	229.3506600856781	
45	211.4322988986969	pulse	1	t		43.0	2.5	/experiments/AOT/AOT_stimuli/rescaled_final/0812_rv.mp4	0.0	230.9421730041504	
45	211.94899082183838	fix_post	2		12	43.0	2.5	/experiments/AOT/AOT_stimuli/rescaled_final/0812_rv.mp4	0.0	231.45886492729187	0.09992599487304688
46	212.04891681671143	fix_pre	0		119	44.0	2.5	/experiments/AOT/AOT_stimuli/rescaled_final/1430_fw.mp4	0.0	231.55879092216492	0.9916341304779053
46	213.03233289718628	pulse	0	t		44.0	2.5	/experiments/AOT/AOT_stimuli/rescaled_final/1430_fw.mp4	0.0	232.54220700263977	
46	213.04055094718933	movie	1		245	44.0	2.5	/experiments/AOT/AOT_stimuli/rescaled_final/1430_fw.mp4	0.0	232.55042505264282	2.508344888687134
46	214.6406819820404	pulse	1	t		44.0	2.5	/experiments/AOT/AOT_stimuli/rescaled_final/1430_fw.mp4	0.0	234.1505560874939	
46	215.54889583587646	fix_post	2		12	44.0	2.5	/experiments/AOT/AOT_stimuli/rescaled_final/1430_fw.mp4	0.0	235.05876994132996	0.09995603561401367
47	215.64885187149048	fix_pre	0		120	45.0	2.5	/experiments/AOT/AOT_stimuli/rescaled_final/2056_fw.mp4	0.0	235.15872597694397	0.9999959468841553
47	216.23315286636353	pulse	0	t		45.0	2.5	/experiments/AOT/AOT_stimuli/rescaled_final/2056_fw.mp4	0.0	235.74302697181702	
47	216.64884781837463	movie	1		243	45.0	2.5	/experiments/AOT/AOT_stimuli/rescaled_final/2056_fw.mp4	0.0	236.15872192382812	2.4995880126953125
47	217.83393597602844	pulse	1	t		45.0	2.5	/experiments/AOT/AOT_stimuli/rescaled_final/2056_fw.mp4	0.0	237.34381008148193	
47	219.14843583106995	fix_post	2		12	45.0	2.5	/experiments/AOT/AOT_stimuli/rescaled_final/2056_fw.mp4	0.0	238.65830993652344	0.0999751091003418
48	219.2484109401703	fix_pre	0		120	46.0	2.5	/experiments/AOT/AOT_stimuli/rescaled_final/1185_rv.mp4	0.0	238.75828504562378	1.0006239414215088
48	219.43305492401123	pulse	0	t		46.0	2.5	/experiments/AOT/AOT_stimuli/rescaled_final/1185_rv.mp4	0.0	238.94292902946472	
48	220.2490348815918	movie	1		244	46.0	2.5	/experiments/AOT/AOT_stimuli/rescaled_final/1185_rv.mp4	0.0	239.7589089870453	2.4997780323028564
48	221.03319191932678	pulse	1	t		46.0	2.5	/experiments/AOT/AOT_stimuli/rescaled_final/1185_rv.mp4	0.0	240.54306602478027	
48	222.6406638622284	pulse	1	t		46.0	2.5	/experiments/AOT/AOT_stimuli/rescaled_final/1185_rv.mp4	0.0	242.15053796768188	
48	222.74881291389465	fix_post	2		12	46.0	2.5	/experiments/AOT/AOT_stimuli/rescaled_final/1185_rv.mp4	0.0	242.25868701934814	0.10009193420410156
49	222.84890484809875	fix_pre	0		120	47.0	2.5	/experiments/AOT/AOT_stimuli/rescaled_final/1824_fw.mp4	0.0	242.35877895355225	0.9995460510253906
49	223.84845089912415	movie	1		245	47.0	2.5	/experiments/AOT/AOT_stimuli/rescaled_final/1824_fw.mp4	0.0	243.35832500457764	2.500530958175659
49	224.2406690120697	pulse	1	t		47.0	2.5	/experiments/AOT/AOT_stimuli/rescaled_final/1824_fw.mp4	0.0	243.7505431175232	
49	225.8322958946228	pulse	1	t		47.0	2.5	/experiments/AOT/AOT_stimuli/rescaled_final/1824_fw.mp4	0.0	245.3421700000763	
49	226.3489818572998	fix_post	2		12	47.0	2.5	/experiments/AOT/AOT_stimuli/rescaled_final/1824_fw.mp4	0.0	245.8588559627533	0.09981799125671387
50	226.44879984855652	fix_pre	0		119	48.0	2.5	/experiments/AOT/AOT_stimuli/rescaled_final/2130_rv.mp4	0.0	245.95867395401	0.9912381172180176
50	227.4323389530182	pulse	0	t		48.0	2.5	/experiments/AOT/AOT_stimuli/rescaled_final/2130_rv.mp4	0.0	246.94221305847168	
50	227.44003796577454	movie	1		246	48.0	2.5	/experiments/AOT/AOT_stimuli/rescaled_final/2130_rv.mp4	0.0	246.94991207122803	2.508910894393921
50	229.03207182884216	pulse	1	t		48.0	2.5	/experiments/AOT/AOT_stimuli/rescaled_final/2130_rv.mp4	0.0	248.54194593429565	
50	229.94894886016846	fix_post	2		12	48.0	2.5	/experiments/AOT/AOT_stimuli/rescaled_final/2130_rv.mp4	0.0	249.45882296562195	0.0997321605682373
51	230.0486810207367	fix_pre	0		120	49.0	2.5	blank	1.0	249.55855512619019	1.0000150203704834
51	230.63209199905396	pulse	0	t		49.0	2.5	blank	1.0	250.14196610450745	
51	231.04869604110718	movie	1		300	49.0	2.5	blank	1.0	250.55857014656067	2.4996838569641113
51	232.2331039905548	pulse	1	t		49.0	2.5	blank	1.0	251.7429780960083	
51	233.5483798980713	fix_post	2		12	49.0	2.5	blank	1.0	253.05825400352478	0.10040712356567383
52	233.64878702163696	fix_pre	0		120	50.0	2.5	/experiments/AOT/AOT_stimuli/rescaled_final/0451_fw.mp4	0.0	253.15866112709045	0.999985933303833
52	233.83303093910217	pulse	0	t		50.0	2.5	/experiments/AOT/AOT_stimuli/rescaled_final/0451_fw.mp4	0.0	253.34290504455566	
52	234.6487729549408	movie	1		243	50.0	2.5	/experiments/AOT/AOT_stimuli/rescaled_final/0451_fw.mp4	0.0	254.1586470603943	2.4999618530273438
52	235.43321990966797	pulse	1	t		50.0	2.5	/experiments/AOT/AOT_stimuli/rescaled_final/0451_fw.mp4	0.0	254.94309401512146	
52	237.04065799713135	pulse	1	t		50.0	2.5	/experiments/AOT/AOT_stimuli/rescaled_final/0451_fw.mp4	0.0	256.55053210258484	
52	237.14873480796814	fix_post	2		12	50.0	2.5	/experiments/AOT/AOT_stimuli/rescaled_final/0451_fw.mp4	0.0	256.65860891342163	0.0999901294708252
53	237.24872493743896	fix_pre	0		120	51.0	2.5	/experiments/AOT/AOT_stimuli/rescaled_final/0812_fw.mp4	0.0	256.75859904289246	0.9996020793914795
53	238.24832701683044	movie	1		245	51.0	2.5	/experiments/AOT/AOT_stimuli/rescaled_final/0812_fw.mp4	0.0	257.75820112228394	2.500361919403076
53	238.64061403274536	pulse	1	t		51.0	2.5	/experiments/AOT/AOT_stimuli/rescaled_final/0812_fw.mp4	0.0	258.15048813819885	
53	240.23222994804382	pulse	1	t		51.0	2.5	/experiments/AOT/AOT_stimuli/rescaled_final/0812_fw.mp4	0.0	259.7421040534973	
53	240.74868893623352	fix_post	2		12	51.0	2.5	/experiments/AOT/AOT_stimuli/rescaled_final/0812_fw.mp4	0.0	260.258563041687	0.10004591941833496
54	240.84873485565186	fix_pre	0		119	52.0	2.5	/experiments/AOT/AOT_stimuli/rescaled_final/0297_fw.mp4	0.0	260.35860896110535	0.9917211532592773
54	241.8321418762207	pulse	0	t		52.0	2.5	/experiments/AOT/AOT_stimuli/rescaled_final/0297_fw.mp4	0.0	261.3420159816742	
54	241.84045600891113	movie	1		247	52.0	2.5	/experiments/AOT/AOT_stimuli/rescaled_final/0297_fw.mp4	0.0	261.3503301143646	2.508234977722168
54	243.44058895111084	pulse	1	t		52.0	2.5	/experiments/AOT/AOT_stimuli/rescaled_final/0297_fw.mp4	0.0	262.95046305656433	
54	244.3486909866333	fix_post	2		12	52.0	2.5	/experiments/AOT/AOT_stimuli/rescaled_final/0297_fw.mp4	0.0	263.8585650920868	0.09997987747192383
55	244.44867086410522	fix_pre	0		120	53.0	2.5	/experiments/AOT/AOT_stimuli/rescaled_final/0311_rv.mp4	0.0	263.9585449695587	1.0000441074371338
55	245.03216099739075	pulse	0	t		53.0	2.5	/experiments/AOT/AOT_stimuli/rescaled_final/0311_rv.mp4	0.0	264.54203510284424	
55	245.44871497154236	movie	1		243	53.0	2.5	/experiments/AOT/AOT_stimuli/rescaled_final/0311_rv.mp4	0.0	264.95858907699585	2.499541997909546
55	246.63226199150085	pulse	1	t		53.0	2.5	/experiments/AOT/AOT_stimuli/rescaled_final/0311_rv.mp4	0.0	266.14213609695435	
55	247.9482569694519	fix_post	2		12	53.0	2.5	/experiments/AOT/AOT_stimuli/rescaled_final/0311_rv.mp4	0.0	267.4581310749054	0.10041689872741699
56	248.04867386817932	fix_pre	0		120	54.0	2.5	blank	1.0	267.5585479736328	0.9999980926513672
56	248.23298692703247	pulse	0	t		54.0	2.5	blank	1.0	267.74286103248596	
56	249.0486719608307	movie	1		300	54.0	2.5	blank	1.0	268.5585460662842	2.499600887298584
56	249.83290600776672	pulse	1	t		54.0	2.5	blank	1.0	269.3427801132202	
56	251.43290781974792	pulse	1	t		54.0	2.5	blank	1.0	270.9427819252014	
56	251.54827284812927	fix_post	2		12	54.0	2.5	blank	1.0	271.05814695358276	0.10035395622253418
57	251.6486268043518	fix_pre	0		120	55.0	2.5	/experiments/AOT/AOT_stimuli/rescaled_final/1994_rv.mp4	0.0	271.1585009098053	0.9997022151947021
57	252.6483290195465	movie	1		244	55.0	2.5	/experiments/AOT/AOT_stimuli/rescaled_final/1994_rv.mp4	0.0	272.158203125	2.499856948852539
57	253.0405309200287	pulse	1	t		55.0	2.5	/experiments/AOT/AOT_stimuli/rescaled_final/1994_rv.mp4	0.0	272.5504050254822	
57	254.63297700881958	pulse	1	t		55.0	2.5	/experiments/AOT/AOT_stimuli/rescaled_final/1994_rv.mp4	0.0	274.14285111427307	
57	255.14818596839905	fix_post	2		12	55.0	2.5	/experiments/AOT/AOT_stimuli/rescaled_final/1994_rv.mp4	0.0	274.65806007385254	0.10051202774047852
58	255.24869799613953	fix_pre	0		120	56.0	2.5	/experiments/AOT/AOT_stimuli/rescaled_final/1585_rv.mp4	0.0	274.758572101593	0.9999508857727051
58	256.2328929901123	pulse	0	t		56.0	2.5	/experiments/AOT/AOT_stimuli/rescaled_final/1585_rv.mp4	0.0	275.7427670955658	
58	256.24864888191223	movie	1		245	56.0	2.5	/experiments/AOT/AOT_stimuli/rescaled_final/1585_rv.mp4	0.0	275.7585229873657	2.507909059524536
58	257.83213901519775	pulse	1	t		56.0	2.5	/experiments/AOT/AOT_stimuli/rescaled_final/1585_rv.mp4	0.0	277.34201312065125	
58	258.75655794143677	fix_post	2		12	56.0	2.5	/experiments/AOT/AOT_stimuli/rescaled_final/1585_rv.mp4	0.0	278.26643204689026	0.10045289993286133
59	258.85701084136963	fix_pre	0		120	57.0	2.5	/experiments/AOT/AOT_stimuli/rescaled_final/0301_fw.mp4	0.0	278.3668849468231	0.999981164932251
59	259.43219685554504	pulse	0	t		57.0	2.5	/experiments/AOT/AOT_stimuli/rescaled_final/0301_fw.mp4	0.0	278.94207096099854	
59	259.8569920063019	movie	1		245	57.0	2.5	/experiments/AOT/AOT_stimuli/rescaled_final/0301_fw.mp4	0.0	279.36686611175537	2.5000808238983154
59	261.0404808521271	pulse	1	t		57.0	2.5	/experiments/AOT/AOT_stimuli/rescaled_final/0301_fw.mp4	0.0	280.55035495758057	
59	262.3570728302002	fix_post	2		12	57.0	2.5	/experiments/AOT/AOT_stimuli/rescaled_final/0301_fw.mp4	0.0	281.8669469356537	0.09949803352355957
60	262.45657086372375	fix_pre	0		120	58.0	2.5	/experiments/AOT/AOT_stimuli/rescaled_final/1302_fw.mp4	0.0	281.96644496917725	1.000439167022705
60	262.63206601142883	pulse	0	t		58.0	2.5	/experiments/AOT/AOT_stimuli/rescaled_final/1302_fw.mp4	0.0	282.1419401168823	
60	263.45701003074646	movie	1		244	58.0	2.5	/experiments/AOT/AOT_stimuli/rescaled_final/1302_fw.mp4	0.0	282.96688413619995	2.499884843826294
60	264.2329750061035	pulse	1	t		58.0	2.5	/experiments/AOT/AOT_stimuli/rescaled_final/1302_fw.mp4	0.0	283.742849111557	
60	265.83877086639404	pulse	1	t		58.0	2.5	/experiments/AOT/AOT_stimuli/rescaled_final/1302_fw.mp4	0.0	285.34864497184753	
60	265.95689487457275	fix_post	2		12	58.0	2.5	/experiments/AOT/AOT_stimuli/rescaled_final/1302_fw.mp4	0.0	285.46676898002625	0.09996604919433594
61	266.0568609237671	fix_pre	0		120	59.0	2.5	/experiments/AOT/AOT_stimuli/rescaled_final/0782_fw.mp4	0.0	285.5667350292206	1.000101089477539
61	267.05696201324463	movie	1		244	59.0	2.5	/experiments/AOT/AOT_stimuli/rescaled_final/0782_fw.mp4	0.0	286.5668361186981	2.4998929500579834
61	267.4401249885559	pulse	1	t		59.0	2.5	/experiments/AOT/AOT_stimuli/rescaled_final/0782_fw.mp4	0.0	286.9499990940094	
61	269.03315782546997	pulse	1	t		59.0	2.5	/experiments/AOT/AOT_stimuli/rescaled_final/0782_fw.mp4	0.0	288.54303193092346	
61	269.5568549633026	fix_post	2		12	59.0	2.5	/experiments/AOT/AOT_stimuli/rescaled_final/0782_fw.mp4	0.0	289.0667290687561	0.10013484954833984
62	269.65698981285095	fix_pre	0		119	60.0	2.5	/experiments/AOT/AOT_stimuli/rescaled_final/2012_rv.mp4	0.0	289.16686391830444	0.9915940761566162
62	270.63301491737366	pulse	0	t		60.0	2.5	/experiments/AOT/AOT_stimuli/rescaled_final/2012_rv.mp4	0.0	290.14288902282715	
62	270.64858388900757	movie	1		245	60.0	2.5	/experiments/AOT/AOT_stimuli/rescaled_final/2012_rv.mp4	0.0	290.15845799446106	2.508307933807373
62	272.2398920059204	pulse	1	t		60.0	2.5	/experiments/AOT/AOT_stimuli/rescaled_final/2012_rv.mp4	0.0	291.7497661113739	
62	273.15689182281494	fix_post	2		12	60.0	2.5	/experiments/AOT/AOT_stimuli/rescaled_final/2012_rv.mp4	0.0	292.66676592826843	0.09999418258666992
63	273.2568860054016	fix_pre	0		120	61.0	2.5	/experiments/AOT/AOT_stimuli/rescaled_final/1619_rv.mp4	0.0	292.7667601108551	0.9999938011169434
63	273.83295798301697	pulse	0	t		61.0	2.5	/experiments/AOT/AOT_stimuli/rescaled_final/1619_rv.mp4	0.0	293.34283208847046	
63	274.25687980651855	movie	1		245	61.0	2.5	/experiments/AOT/AOT_stimuli/rescaled_final/1619_rv.mp4	0.0	293.76675391197205	2.499629020690918
63	275.4404549598694	pulse	1	t		61.0	2.5	/experiments/AOT/AOT_stimuli/rescaled_final/1619_rv.mp4	0.0	294.9503290653229	
63	276.7565088272095	fix_post	2		12	61.0	2.5	/experiments/AOT/AOT_stimuli/rescaled_final/1619_rv.mp4	0.0	296.26638293266296	0.09998011589050293
64	276.8564889431	fix_pre	0		120	62.0	2.5	blank	1.0	296.36636304855347	0.9999439716339111
64	277.0327739715576	pulse	0	t		62.0	2.5	blank	1.0	296.5426480770111	
64	277.8564329147339	movie	1		300	62.0	2.5	blank	1.0	297.3663070201874	2.5004770755767822
64	278.632040977478	pulse	1	t		62.0	2.5	blank	1.0	298.1419150829315	
64	280.2328748703003	pulse	1	t		62.0	2.5	blank	1.0	299.7427489757538	
64	280.35690999031067	fix_post	2		12	62.0	2.5	blank	1.0	299.86678409576416	0.09997892379760742
65	280.4568889141083	fix_pre	0		120	63.0	2.5	/experiments/AOT/AOT_stimuli/rescaled_final/1793_fw.mp4	0.0	299.96676301956177	0.9999830722808838
65	281.45687198638916	movie	1		246	63.0	2.5	/experiments/AOT/AOT_stimuli/rescaled_final/1793_fw.mp4	0.0	300.96674609184265	2.499595880508423
65	281.84003591537476	pulse	1	t		63.0	2.5	/experiments/AOT/AOT_stimuli/rescaled_final/1793_fw.mp4	0.0	301.34991002082825	
65	283.4329628944397	pulse	1	t		63.0	2.5	/experiments/AOT/AOT_stimuli/rescaled_final/1793_fw.mp4	0.0	302.9428369998932	
65	283.9564678668976	fix_post	2		12	63.0	2.5	/experiments/AOT/AOT_stimuli/rescaled_final/1793_fw.mp4	0.0	303.4663419723511	0.09998202323913574
66	284.0564498901367	fix_pre	0		119	64.0	2.5	/experiments/AOT/AOT_stimuli/rescaled_final/1159_fw.mp4	0.0	303.5663239955902	0.9921979904174805
66	285.03288102149963	pulse	0	t		64.0	2.5	/experiments/AOT/AOT_stimuli/rescaled_final/1159_fw.mp4	0.0	304.5427551269531	
66	285.0486478805542	movie	1		247	64.0	2.5	/experiments/AOT/AOT_stimuli/rescaled_final/1159_fw.mp4	0.0	304.5585219860077	2.5082640647888184
66	286.6394929885864	pulse	1	t		64.0	2.5	/experiments/AOT/AOT_stimuli/rescaled_final/1159_fw.mp4	0.0	306.1493670940399	
66	287.556911945343	fix_post	2		12	64.0	2.5	/experiments/AOT/AOT_stimuli/rescaled_final/1159_fw.mp4	0.0	307.0667860507965	0.09991002082824707
67	287.65682196617126	fix_pre	0		120	65.0	2.5	/experiments/AOT/AOT_stimuli/rescaled_final/0780_rv.mp4	0.0	307.16669607162476	1.000035047531128
67	288.23299193382263	pulse	0	t		65.0	2.5	/experiments/AOT/AOT_stimuli/rescaled_final/0780_rv.mp4	0.0	307.7428660392761	
67	288.6568570137024	movie	1		245	65.0	2.5	/experiments/AOT/AOT_stimuli/rescaled_final/0780_rv.mp4	0.0	308.1667311191559	2.4998958110809326
67	289.84035992622375	pulse	1	t		65.0	2.5	/experiments/AOT/AOT_stimuli/rescaled_final/0780_rv.mp4	0.0	309.35023403167725	
67	291.1567528247833	fix_post	2		12	65.0	2.5	/experiments/AOT/AOT_stimuli/rescaled_final/0780_rv.mp4	0.0	310.6666269302368	0.100067138671875
68	291.2568199634552	fix_pre	0		120	66.0	2.5	/experiments/AOT/AOT_stimuli/rescaled_final/0091_rv.mp4	0.0	310.7666940689087	0.9999830722808838
68	291.43285298347473	pulse	0	t		66.0	2.5	/experiments/AOT/AOT_stimuli/rescaled_final/0091_rv.mp4	0.0	310.9427270889282	
68	292.2568030357361	movie	1		247	66.0	2.5	/experiments/AOT/AOT_stimuli/rescaled_final/0091_rv.mp4	0.0	311.7666771411896	2.499675989151001
68	293.03277683258057	pulse	1	t		66.0	2.5	/experiments/AOT/AOT_stimuli/rescaled_final/0091_rv.mp4	0.0	312.54265093803406	
68	294.6319668292999	pulse	1	t		66.0	2.5	/experiments/AOT/AOT_stimuli/rescaled_final/0091_rv.mp4	0.0	314.1418409347534	
68	294.7564790248871	fix_post	2		12	66.0	2.5	/experiments/AOT/AOT_stimuli/rescaled_final/0091_rv.mp4	0.0	314.2663531303406	0.10028481483459473
69	294.8567638397217	fix_pre	0		120	67.0	2.5	/experiments/AOT/AOT_stimuli/rescaled_final/2102_fw.mp4	0.0	314.36663794517517	1.0000271797180176
69	295.8567910194397	movie	1		243	67.0	2.5	/experiments/AOT/AOT_stimuli/rescaled_final/2102_fw.mp4	0.0	315.3666651248932	2.499979019165039
69	296.23983693122864	pulse	1	t		67.0	2.5	/experiments/AOT/AOT_stimuli/rescaled_final/2102_fw.mp4	0.0	315.74971103668213	
69	297.8330428600311	pulse	1	t		67.0	2.5	/experiments/AOT/AOT_stimuli/rescaled_final/2102_fw.mp4	0.0	317.3429169654846	
69	298.35677003860474	fix_post	2		12	67.0	2.5	/experiments/AOT/AOT_stimuli/rescaled_final/2102_fw.mp4	0.0	317.8666441440582	0.10003495216369629
70	298.45680499076843	fix_pre	0		119	68.0	2.5	/experiments/AOT/AOT_stimuli/rescaled_final/1742_fw.mp4	0.0	317.9666790962219	0.9915969371795654
70	299.4327509403229	pulse	0	t		68.0	2.5	/experiments/AOT/AOT_stimuli/rescaled_final/1742_fw.mp4	0.0	318.94262504577637	
70	299.448401927948	movie	1		244	68.0	2.5	/experiments/AOT/AOT_stimuli/rescaled_final/1742_fw.mp4	0.0	318.9582760334015	2.508370876312256
70	301.0402648448944	pulse	1	t		68.0	2.5	/experiments/AOT/AOT_stimuli/rescaled_final/1742_fw.mp4	0.0	320.5501389503479	
70	301.95677280426025	fix_post	2		12	68.0	2.5	/experiments/AOT/AOT_stimuli/rescaled_final/1742_fw.mp4	0.0	321.46664690971375	0.09999203681945801
71	302.0567648410797	fix_pre	0		120	69.0	2.5	/experiments/AOT/AOT_stimuli/rescaled_final/1104_fw.mp4	0.0	321.5666389465332	1.0000240802764893
71	302.63283586502075	pulse	0	t		69.0	2.5	/experiments/AOT/AOT_stimuli/rescaled_final/1104_fw.mp4	0.0	322.14270997047424	
71	303.0567889213562	movie	1		244	69.0	2.5	/experiments/AOT/AOT_stimuli/rescaled_final/1104_fw.mp4	0.0	322.5666630268097	2.499953031539917
71	304.2331669330597	pulse	1	t		69.0	2.5	/experiments/AOT/AOT_stimuli/rescaled_final/1104_fw.mp4	0.0	323.7430410385132	
71	305.5567419528961	fix_post	2		12	69.0	2.5	/experiments/AOT/AOT_stimuli/rescaled_final/1104_fw.mp4	0.0	325.0666160583496	0.10004591941833496
72	305.65678787231445	fix_pre	0		120	70.0	2.5	blank	1.0	325.16666197776794	1.0000131130218506
72	305.8327069282532	pulse	0	t		70.0	2.5	blank	1.0	325.34258103370667	
72	306.6568009853363	movie	1		300	70.0	2.5	blank	1.0	326.1666750907898	2.5000288486480713
72	307.4326608181	pulse	1	t		70.0	2.5	blank	1.0	326.94253492355347	
72	309.03256487846375	pulse	1	t		70.0	2.5	blank	1.0	328.54243898391724	
72	309.1568298339844	fix_post	2		12	70.0	2.5	blank	1.0	328.66670393943787	0.1000070571899414
73	309.2568368911743	fix_pre	0		120	71.0	2.5	/experiments/AOT/AOT_stimuli/rescaled_final/0327_fw.mp4	0.0	328.7667109966278	0.99989914894104
73	310.25673604011536	movie	1		247	71.0	2.5	/experiments/AOT/AOT_stimuli/rescaled_final/0327_fw.mp4	0.0	329.76661014556885	2.499555826187134
73	310.63959884643555	pulse	1	t		71.0	2.5	/experiments/AOT/AOT_stimuli/rescaled_final/0327_fw.mp4	0.0	330.14947295188904	
73	312.23274993896484	pulse	1	t		71.0	2.5	/experiments/AOT/AOT_stimuli/rescaled_final/0327_fw.mp4	0.0	331.74262404441833	
73	312.7562918663025	fix_post	2		12	71.0	2.5	/experiments/AOT/AOT_stimuli/rescaled_final/0327_fw.mp4	0.0	332.266165971756	0.10046601295471191
74	312.8567578792572	fix_pre	0		119	72.0	2.5	/experiments/AOT/AOT_stimuli/rescaled_final/1342_fw.mp4	0.0	332.3666319847107	0.9915950298309326
74	313.83289790153503	pulse	0	t		72.0	2.5	/experiments/AOT/AOT_stimuli/rescaled_final/1342_fw.mp4	0.0	333.3427720069885	
74	313.84835290908813	movie	1		245	72.0	2.5	/experiments/AOT/AOT_stimuli/rescaled_final/1342_fw.mp4	0.0	333.3582270145416	2.508294105529785
74	315.43986797332764	pulse	1	t		72.0	2.5	/experiments/AOT/AOT_stimuli/rescaled_final/1342_fw.mp4	0.0	334.9497420787811	
74	316.3566470146179	fix_post	2		12	72.0	2.5	/experiments/AOT/AOT_stimuli/rescaled_final/1342_fw.mp4	0.0	335.8665211200714	0.10005879402160645
75	316.4567058086395	fix_pre	0		120	73.0	2.5	/experiments/AOT/AOT_stimuli/rescaled_final/1369_fw.mp4	0.0	335.966579914093	0.999953031539917
75	317.03262281417847	pulse	0	t		73.0	2.5	/experiments/AOT/AOT_stimuli/rescaled_final/1369_fw.mp4	0.0	336.54249691963196	
75	317.45665884017944	movie	1		243	73.0	2.5	/experiments/AOT/AOT_stimuli/rescaled_final/1369_fw.mp4	0.0	336.96653294563293	2.500019073486328
75	318.6402428150177	pulse	1	t		73.0	2.5	/experiments/AOT/AOT_stimuli/rescaled_final/1369_fw.mp4	0.0	338.1501169204712	
75	319.95667791366577	fix_post	2		12	73.0	2.5	/experiments/AOT/AOT_stimuli/rescaled_final/1369_fw.mp4	0.0	339.46655201911926	0.09995794296264648
76	320.0566358566284	fix_pre	0		120	74.0	2.5	/experiments/AOT/AOT_stimuli/rescaled_final/1454_fw.mp4	0.0	339.5665099620819	1.0000641345977783
76	320.2325689792633	pulse	0	t		74.0	2.5	/experiments/AOT/AOT_stimuli/rescaled_final/1454_fw.mp4	0.0	339.7424430847168	
76	321.0566999912262	movie	1		244	74.0	2.5	/experiments/AOT/AOT_stimuli/rescaled_final/1454_fw.mp4	0.0	340.5665740966797	2.4999778270721436
76	321.83268690109253	pulse	1	t		74.0	2.5	/experiments/AOT/AOT_stimuli/rescaled_final/1454_fw.mp4	0.0	341.342561006546	
76	323.4388418197632	pulse	1	t		74.0	2.5	/experiments/AOT/AOT_stimuli/rescaled_final/1454_fw.mp4	0.0	342.9487159252167	
76	323.55667781829834	fix_post	2		12	74.0	2.5	/experiments/AOT/AOT_stimuli/rescaled_final/1454_fw.mp4	0.0	343.06655192375183	0.10001206398010254
77	323.65668988227844	fix_pre	0		120	75.0	2.5	blank	1.0	343.16656398773193	0.9995629787445068
77	324.65625286102295	movie	1		300	75.0	2.5	blank	1.0	344.16612696647644	2.5000810623168945
77	325.03256702423096	pulse	1	t		75.0	2.5	blank	1.0	344.54244112968445	
77	326.6324529647827	pulse	1	t		75.0	2.5	blank	1.0	346.1423270702362	
77	327.15633392333984	fix_post	2		12	75.0	2.5	blank	1.0	346.66620802879333	0.10030794143676758
78	327.2566418647766	fix_pre	0		119	76.0	2.5	/experiments/AOT/AOT_stimuli/rescaled_final/1200_rv.mp4	0.0	346.7665159702301	0.9917230606079102
78	328.23262882232666	pulse	0	t		76.0	2.5	/experiments/AOT/AOT_stimuli/rescaled_final/1200_rv.mp4	0.0	347.74250292778015	
78	328.2483649253845	movie	1		244	76.0	2.5	/experiments/AOT/AOT_stimuli/rescaled_final/1200_rv.mp4	0.0	347.758239030838	2.507819890975952
78	329.8397979736328	pulse	1	t		76.0	2.5	/experiments/AOT/AOT_stimuli/rescaled_final/1200_rv.mp4	0.0	349.3496720790863	
78	330.7561848163605	fix_post	2		12	76.0	2.5	/experiments/AOT/AOT_stimuli/rescaled_final/1200_rv.mp4	0.0	350.26605892181396	0.10049915313720703
79	330.8566839694977	fix_pre	0		120	77.0	2.5	/experiments/AOT/AOT_stimuli/rescaled_final/1038_fw.mp4	0.0	350.3665580749512	0.9999828338623047
79	331.44020199775696	pulse	0	t		77.0	2.5	/experiments/AOT/AOT_stimuli/rescaled_final/1038_fw.mp4	0.0	350.95007610321045	
79	331.85666680336	movie	1		243	77.0	2.5	/experiments/AOT/AOT_stimuli/rescaled_final/1038_fw.mp4	0.0	351.3665409088135	2.499965190887451
79	333.0401358604431	pulse	1	t		77.0	2.5	/experiments/AOT/AOT_stimuli/rescaled_final/1038_fw.mp4	0.0	352.5500099658966	
79	334.35663199424744	fix_post	2		12	77.0	2.5	/experiments/AOT/AOT_stimuli/rescaled_final/1038_fw.mp4	0.0	353.8665060997009	0.09961295127868652
80	334.4562449455261	fix_pre	0		120	78.0	2.5	/experiments/AOT/AOT_stimuli/rescaled_final/1936_rv.mp4	0.0	353.9661190509796	1.0000560283660889
80	334.6325538158417	pulse	0	t		78.0	2.5	/experiments/AOT/AOT_stimuli/rescaled_final/1936_rv.mp4	0.0	354.14242792129517	
80	335.4563009738922	movie	1		244	78.0	2.5	/experiments/AOT/AOT_stimuli/rescaled_final/1936_rv.mp4	0.0	354.9661750793457	2.5003130435943604
80	336.23263788223267	pulse	1	t		78.0	2.5	/experiments/AOT/AOT_stimuli/rescaled_final/1936_rv.mp4	0.0	355.74251198768616	
80	337.8360559940338	pulse	1	t		78.0	2.5	/experiments/AOT/AOT_stimuli/rescaled_final/1936_rv.mp4	0.0	357.3459300994873	
80	337.9566140174866	fix_post	2		12	78.0	2.5	/experiments/AOT/AOT_stimuli/rescaled_final/1936_rv.mp4	0.0	357.46648812294006	0.10006189346313477
81	338.0566759109497	fix_pre	0		120	79.0	2.5	/experiments/AOT/AOT_stimuli/rescaled_final/0664_rv.mp4	0.0	357.5665500164032	1.0000100135803223
81	339.05668592453003	movie	1		243	79.0	2.5	/experiments/AOT/AOT_stimuli/rescaled_final/0664_rv.mp4	0.0	358.5665600299835	2.4997079372406006
81	339.4392578601837	pulse	1	t		79.0	2.5	/experiments/AOT/AOT_stimuli/rescaled_final/0664_rv.mp4	0.0	358.9491319656372	
81	341.032509803772	pulse	1	t		79.0	2.5	/experiments/AOT/AOT_stimuli/rescaled_final/0664_rv.mp4	0.0	360.54238390922546	
81	341.55639386177063	fix_post	2		12	79.0	2.5	/experiments/AOT/AOT_stimuli/rescaled_final/0664_rv.mp4	0.0	361.0662679672241	0.09997010231018066
82	341.6563639640808	fix_pre	0		119	80.0	2.5	/experiments/AOT/AOT_stimuli/rescaled_final/0297_rv.mp4	0.0	361.1662380695343	0.9921948909759521
82	342.632563829422	pulse	0	t		80.0	2.5	/experiments/AOT/AOT_stimuli/rescaled_final/0297_rv.mp4	0.0	362.1424379348755	
82	342.64855885505676	movie	1		246	80.0	2.5	/experiments/AOT/AOT_stimuli/rescaled_final/0297_rv.mp4	0.0	362.15843296051025	2.5075931549072266
82	344.23963689804077	pulse	1	t		80.0	2.5	/experiments/AOT/AOT_stimuli/rescaled_final/0297_rv.mp4	0.0	363.74951100349426	
82	345.156152009964	fix_post	2		12	80.0	2.5	/experiments/AOT/AOT_stimuli/rescaled_final/0297_rv.mp4	0.0	364.6660261154175	0.1004178524017334
83	345.2565698623657	fix_pre	0		120	81.0	2.5	/experiments/AOT/AOT_stimuli/rescaled_final/0679_fw.mp4	0.0	364.7664439678192	0.9999940395355225
83	345.8399968147278	pulse	0	t		81.0	2.5	/experiments/AOT/AOT_stimuli/rescaled_final/0679_fw.mp4	0.0	365.3498709201813	
83	346.25656390190125	movie	1		244	81.0	2.5	/experiments/AOT/AOT_stimuli/rescaled_final/0679_fw.mp4	0.0	365.76643800735474	2.500098943710327
83	347.4400680065155	pulse	1	t		81.0	2.5	/experiments/AOT/AOT_stimuli/rescaled_final/0679_fw.mp4	0.0	366.949942111969	
83	348.7566628456116	fix_post	2		12	81.0	2.5	/experiments/AOT/AOT_stimuli/rescaled_final/0679_fw.mp4	0.0	368.26653695106506	0.0998380184173584
84	348.85650086402893	fix_pre	0		120	82.0	2.5	/experiments/AOT/AOT_stimuli/rescaled_final/1998_rv.mp4	0.0	368.3663749694824	1.0001370906829834
84	349.0399339199066	pulse	0	t		82.0	2.5	/experiments/AOT/AOT_stimuli/rescaled_final/1998_rv.mp4	0.0	368.5498080253601	
84	349.8566379547119	movie	1		243	82.0	2.5	/experiments/AOT/AOT_stimuli/rescaled_final/1998_rv.mp4	0.0	369.3665120601654	2.499506950378418
84	350.6399598121643	pulse	1	t		82.0	2.5	/experiments/AOT/AOT_stimuli/rescaled_final/1998_rv.mp4	0.0	370.1498339176178	
84	352.23832297325134	pulse	1	t		82.0	2.5	/experiments/AOT/AOT_stimuli/rescaled_final/1998_rv.mp4	0.0	371.74819707870483	
84	352.35614490509033	fix_post	2		12	82.0	2.5	/experiments/AOT/AOT_stimuli/rescaled_final/1998_rv.mp4	0.0	371.8660190105438	0.09995794296264648
85	352.456102848053	fix_pre	0		120	83.0	2.5	blank	1.0	371.96597695350647	1.0004510879516602
85	353.45655393600464	movie	1		300	83.0	2.5	blank	1.0	372.96642804145813	2.4999420642852783
85	353.83246183395386	pulse	1	t		83.0	2.5	blank	1.0	373.34233593940735	
85	355.4324688911438	pulse	1	t		83.0	2.5	blank	1.0	374.9423429965973	
85	355.9564960002899	fix_post	2		12	83.0	2.5	blank	1.0	375.4663701057434	0.09999489784240723
87	356.0564908981323	stim	0		1716					375.5663650035858	14.299929141998291
87	357.03260493278503	pulse	0	t						376.5424790382385	
87	358.63254404067993	pulse	0	t						378.1424181461334	
87	360.2398920059204	pulse	0	t						379.7497661113739	
87	361.83993196487427	pulse	0	t						381.34980607032776	
87	363.43987703323364	pulse	0	t						382.94975113868713	
87	365.03989696502686	pulse	0	t						384.54977107048035	
87	366.63257694244385	pulse	0	t						386.14245104789734	
87	368.2325348854065	pulse	0	t						387.74240899086	
87	369.83246183395386	pulse	0	t						389.34233593940735	
