trial_nr	onset	event_type	phase	response	nr_frames	movie_index	movie_duration	movie_file	blank	onset_abs	duration
0	0.17501139640808105	stim	0		56					21.51701831817627	0.46657848358154297
0	0.6336944103240967	response	0	space						21.975701332092285	
1	0.641589879989624	stim	0		4620					21.983596801757812	38.515464544296265
1	39.14744806289673	pulse	0	t						60.48945498466492	
1	39.15705442428589	stim	1		1715					60.49906134605408	14.300823211669922
1	40.73948335647583	pulse	1	t						62.08149027824402	
1	42.33971381187439	pulse	1	t						63.68172073364258	
1	43.93996524810791	pulse	1	t						65.2819721698761	
1	45.540350675582886	pulse	1	t						66.88235759735107	
1	47.14069581031799	pulse	1	t						68.48270273208618	
1	48.74062180519104	pulse	1	t						70.08262872695923	
1	50.340978384017944	pulse	1	t						71.68298530578613	
1	51.94113254547119	pulse	1	t						73.28313946723938	
2	53.45787763595581	fix_pre	0		11	0.0	2.5	/experiments/Knapen_AOT/AOT_stimuli/rescaled_final/0721_fw.mp4	0.0	74.799884557724	0.10858607292175293
2	53.541428327560425	pulse	0	t		0.0	2.5	/experiments/Knapen_AOT/AOT_stimuli/rescaled_final/0721_fw.mp4	0.0	74.88343524932861	
2	53.56646370887756	movie	1		285	0.0	2.5	/experiments/Knapen_AOT/AOT_stimuli/rescaled_final/0721_fw.mp4	0.0	74.90847063064575	2.4918153285980225
2	55.139848947525024	pulse	1	t		0.0	2.5	/experiments/Knapen_AOT/AOT_stimuli/rescaled_final/0721_fw.mp4	0.0	76.48185586929321	
2	56.058279037475586	fix_post	2		12	0.0	2.5	/experiments/Knapen_AOT/AOT_stimuli/rescaled_final/0721_fw.mp4	0.0	77.40028595924377	0.10002994537353516
3	56.15830898284912	fix_pre	0		120	1.0	2.5	/experiments/Knapen_AOT/AOT_stimuli/rescaled_final/1351_fw.mp4	0.0	77.50031590461731	1.0084919929504395
3	56.74198603630066	pulse	0	t		1.0	2.5	/experiments/Knapen_AOT/AOT_stimuli/rescaled_final/1351_fw.mp4	0.0	78.08399295806885	
3	57.16680097579956	movie	1		277	1.0	2.5	/experiments/Knapen_AOT/AOT_stimuli/rescaled_final/1351_fw.mp4	0.0	78.50880789756775	2.4920167922973633
3	58.340266942977905	pulse	1	t		1.0	2.5	/experiments/Knapen_AOT/AOT_stimuli/rescaled_final/1351_fw.mp4	0.0	79.6822738647461	
3	59.658817768096924	fix_post	2		12	1.0	2.5	/experiments/Knapen_AOT/AOT_stimuli/rescaled_final/1351_fw.mp4	0.0	81.00082468986511	0.10001182556152344
4	59.75882959365845	fix_pre	0		120	2.0	2.5	/experiments/Knapen_AOT/AOT_stimuli/rescaled_final/0418_rv.mp4	0.0	81.10083651542664	1.0085315704345703
4	59.94238781929016	pulse	0	t		2.0	2.5	/experiments/Knapen_AOT/AOT_stimuli/rescaled_final/0418_rv.mp4	0.0	81.28439474105835	
4	60.76736116409302	movie	1		285	2.0	2.5	/experiments/Knapen_AOT/AOT_stimuli/rescaled_final/0418_rv.mp4	0.0	82.1093680858612	2.492002248764038
4	61.54037308692932	pulse	1	t		2.0	2.5	/experiments/Knapen_AOT/AOT_stimuli/rescaled_final/0418_rv.mp4	0.0	82.88238000869751	
4	63.141191244125366	pulse	1	t		2.0	2.5	/experiments/Knapen_AOT/AOT_stimuli/rescaled_final/0418_rv.mp4	0.0	84.48319816589355	
4	63.259363412857056	fix_post	2		12	2.0	2.5	/experiments/Knapen_AOT/AOT_stimuli/rescaled_final/0418_rv.mp4	0.0	84.60137033462524	0.10001134872436523
5	63.35937476158142	fix_pre	0		120	3.0	2.5	/experiments/Knapen_AOT/AOT_stimuli/rescaled_final/1530_rv.mp4	0.0	84.70138168334961	1.008509874343872
5	64.3678846359253	movie	1		257	3.0	2.5	/experiments/Knapen_AOT/AOT_stimuli/rescaled_final/1530_rv.mp4	0.0	85.70989155769348	2.492011070251465
5	64.74185490608215	pulse	1	t		3.0	2.5	/experiments/Knapen_AOT/AOT_stimuli/rescaled_final/1530_rv.mp4	0.0	86.08386182785034	
5	66.34133696556091	pulse	1	t		3.0	2.5	/experiments/Knapen_AOT/AOT_stimuli/rescaled_final/1530_rv.mp4	0.0	87.6833438873291	
5	66.85989570617676	fix_post	2		12	3.0	2.5	/experiments/Knapen_AOT/AOT_stimuli/rescaled_final/1530_rv.mp4	0.0	88.20190262794495	0.10006260871887207
6	66.95995831489563	fix_pre	0		119	4.0	2.5	/experiments/Knapen_AOT/AOT_stimuli/rescaled_final/1846_fw.mp4	0.0	88.30196523666382	1.0000905990600586
6	67.9436845779419	pulse	0	t		4.0	2.5	/experiments/Knapen_AOT/AOT_stimuli/rescaled_final/1846_fw.mp4	0.0	89.28569149971008	
6	67.96004891395569	movie	1		285	4.0	2.5	/experiments/Knapen_AOT/AOT_stimuli/rescaled_final/1846_fw.mp4	0.0	89.30205583572388	2.5003883838653564
6	69.54264378547668	pulse	1	t		4.0	2.5	/experiments/Knapen_AOT/AOT_stimuli/rescaled_final/1846_fw.mp4	0.0	90.88465070724487	
6	70.46043729782104	fix_post	2		12	4.0	2.5	/experiments/Knapen_AOT/AOT_stimuli/rescaled_final/1846_fw.mp4	0.0	91.80244421958923	0.10002017021179199
7	70.56045746803284	fix_pre	0		120	5.0	2.5	/experiments/Knapen_AOT/AOT_stimuli/rescaled_final/0528_rv.mp4	0.0	91.90246438980103	1.0085577964782715
7	71.1370198726654	pulse	0	t		5.0	2.5	/experiments/Knapen_AOT/AOT_stimuli/rescaled_final/0528_rv.mp4	0.0	92.4790267944336	
7	71.56901526451111	movie	1		283	5.0	2.5	/experiments/Knapen_AOT/AOT_stimuli/rescaled_final/0528_rv.mp4	0.0	92.9110221862793	2.4919629096984863
7	72.7425320148468	pulse	1	t		5.0	2.5	/experiments/Knapen_AOT/AOT_stimuli/rescaled_final/0528_rv.mp4	0.0	94.08453893661499	
7	74.0609781742096	fix_post	2		12	5.0	2.5	/experiments/Knapen_AOT/AOT_stimuli/rescaled_final/0528_rv.mp4	0.0	95.40298509597778	0.1000213623046875
8	74.16099953651428	fix_pre	0		120	6.0	2.5	blank	1.0	95.50300645828247	1.0001602172851562
8	74.33650946617126	pulse	0	t		6.0	2.5	blank	1.0	95.67851638793945	
8	75.16115975379944	movie	1		300	6.0	2.5	blank	1.0	96.50316667556763	2.5003466606140137
8	75.93656182289124	pulse	1	t		6.0	2.5	blank	1.0	97.27856874465942	
8	77.53683161735535	pulse	1	t		6.0	2.5	blank	1.0	98.87883853912354	
8	77.66150641441345	fix_post	2		12	6.0	2.5	blank	1.0	99.00351333618164	0.1000680923461914
9	77.76157450675964	fix_pre	0		120	7.0	2.5	/experiments/Knapen_AOT/AOT_stimuli/rescaled_final/0497_rv.mp4	0.0	99.10358142852783	1.0084774494171143
9	78.77005195617676	movie	1		283	7.0	2.5	/experiments/Knapen_AOT/AOT_stimuli/rescaled_final/0497_rv.mp4	0.0	100.11205887794495	2.4920034408569336
9	79.13655805587769	pulse	1	t		7.0	2.5	/experiments/Knapen_AOT/AOT_stimuli/rescaled_final/0497_rv.mp4	0.0	100.47856497764587	
9	80.73720812797546	pulse	1	t		7.0	2.5	/experiments/Knapen_AOT/AOT_stimuli/rescaled_final/0497_rv.mp4	0.0	102.07921504974365	
9	81.26205539703369	fix_post	2		12	7.0	2.5	/experiments/Knapen_AOT/AOT_stimuli/rescaled_final/0497_rv.mp4	0.0	102.60406231880188	0.10001945495605469
10	81.36207485198975	fix_pre	0		118	8.0	2.5	/experiments/Knapen_AOT/AOT_stimuli/rescaled_final/1419_rv.mp4	0.0	102.70408177375793	0.9918434619903564
10	82.33755278587341	pulse	0	t		8.0	2.5	/experiments/Knapen_AOT/AOT_stimuli/rescaled_final/1419_rv.mp4	0.0	103.6795597076416	
10	82.3539183139801	movie	1		277	8.0	2.5	/experiments/Knapen_AOT/AOT_stimuli/rescaled_final/1419_rv.mp4	0.0	103.69592523574829	2.500415563583374
10	83.93781280517578	pulse	1	t		8.0	2.5	/experiments/Knapen_AOT/AOT_stimuli/rescaled_final/1419_rv.mp4	0.0	105.27981972694397	
10	84.85433387756348	fix_post	2		12	8.0	2.5	/experiments/Knapen_AOT/AOT_stimuli/rescaled_final/1419_rv.mp4	0.0	106.19634079933167	0.09996318817138672
11	84.95429706573486	fix_pre	0		120	9.0	2.5	/experiments/Knapen_AOT/AOT_stimuli/rescaled_final/0506_fw.mp4	0.0	106.29630398750305	1.0084776878356934
11	85.5378954410553	pulse	0	t		9.0	2.5	/experiments/Knapen_AOT/AOT_stimuli/rescaled_final/0506_fw.mp4	0.0	106.87990236282349	
11	85.96277475357056	movie	1		278	9.0	2.5	/experiments/Knapen_AOT/AOT_stimuli/rescaled_final/0506_fw.mp4	0.0	107.30478167533875	2.4920647144317627
11	87.13799738883972	pulse	1	t		9.0	2.5	/experiments/Knapen_AOT/AOT_stimuli/rescaled_final/0506_fw.mp4	0.0	108.48000431060791	
11	88.45483946800232	fix_post	2		12	9.0	2.5	/experiments/Knapen_AOT/AOT_stimuli/rescaled_final/0506_fw.mp4	0.0	109.79684638977051	0.1000053882598877
12	88.5548448562622	fix_pre	0		120	10.0	2.5	/experiments/Knapen_AOT/AOT_stimuli/rescaled_final/1634_rv.mp4	0.0	109.8968517780304	1.0085461139678955
12	88.73860812187195	pulse	0	t		10.0	2.5	/experiments/Knapen_AOT/AOT_stimuli/rescaled_final/1634_rv.mp4	0.0	110.08061504364014	
12	89.5633909702301	movie	1		282	10.0	2.5	/experiments/Knapen_AOT/AOT_stimuli/rescaled_final/1634_rv.mp4	0.0	110.90539789199829	2.4919626712799072
12	90.33864498138428	pulse	1	t		10.0	2.5	/experiments/Knapen_AOT/AOT_stimuli/rescaled_final/1634_rv.mp4	0.0	111.68065190315247	
12	91.93704986572266	pulse	1	t		10.0	2.5	/experiments/Knapen_AOT/AOT_stimuli/rescaled_final/1634_rv.mp4	0.0	113.27905678749084	
12	92.05535364151001	fix_post	2		12	10.0	2.5	/experiments/Knapen_AOT/AOT_stimuli/rescaled_final/1634_rv.mp4	0.0	113.3973605632782	0.10005044937133789
13	92.15540409088135	fix_pre	0		120	11.0	2.5	/experiments/Knapen_AOT/AOT_stimuli/rescaled_final/0055_rv.mp4	0.0	113.49741101264954	1.008533000946045
13	93.16393709182739	movie	1		282	11.0	2.5	/experiments/Knapen_AOT/AOT_stimuli/rescaled_final/0055_rv.mp4	0.0	114.50594401359558	2.4919559955596924
13	93.53784322738647	pulse	1	t		11.0	2.5	/experiments/Knapen_AOT/AOT_stimuli/rescaled_final/0055_rv.mp4	0.0	114.87985014915466	
13	95.13751864433289	pulse	1	t		11.0	2.5	/experiments/Knapen_AOT/AOT_stimuli/rescaled_final/0055_rv.mp4	0.0	116.47952556610107	
13	95.65589308738708	fix_post	2		12	11.0	2.5	/experiments/Knapen_AOT/AOT_stimuli/rescaled_final/0055_rv.mp4	0.0	116.99790000915527	0.10004663467407227
14	95.75593972206116	fix_pre	0		119	12.0	2.5	blank	1.0	117.09794664382935	0.9917774200439453
14	96.73964524269104	pulse	0	t		12.0	2.5	blank	1.0	118.08165216445923	
14	96.7477171421051	movie	1		301	12.0	2.5	blank	1.0	118.08972406387329	2.5087077617645264
14	98.33983206748962	pulse	1	t		12.0	2.5	blank	1.0	119.68183898925781	
14	99.25642490386963	fix_post	2		12	12.0	2.5	blank	1.0	120.59843182563782	0.10002589225769043
15	99.35645079612732	fix_pre	0		120	13.0	2.5	/experiments/Knapen_AOT/AOT_stimuli/rescaled_final/0926_fw.mp4	0.0	120.69845771789551	1.0084905624389648
15	99.94012260437012	pulse	0	t		13.0	2.5	/experiments/Knapen_AOT/AOT_stimuli/rescaled_final/0926_fw.mp4	0.0	121.2821295261383	
15	100.36494135856628	movie	1		274	13.0	2.5	/experiments/Knapen_AOT/AOT_stimuli/rescaled_final/0926_fw.mp4	0.0	121.70694828033447	2.4920880794525146
15	101.5387909412384	pulse	1	t		13.0	2.5	/experiments/Knapen_AOT/AOT_stimuli/rescaled_final/0926_fw.mp4	0.0	122.88079786300659	
15	102.8570294380188	fix_post	2		12	13.0	2.5	/experiments/Knapen_AOT/AOT_stimuli/rescaled_final/0926_fw.mp4	0.0	124.19903635978699	0.09996771812438965
16	102.95699715614319	fix_pre	0		120	14.0	2.5	/experiments/Knapen_AOT/AOT_stimuli/rescaled_final/1409_rv.mp4	0.0	124.29900407791138	1.0084872245788574
16	103.14063215255737	pulse	0	t		14.0	2.5	/experiments/Knapen_AOT/AOT_stimuli/rescaled_final/1409_rv.mp4	0.0	124.48263907432556	
16	103.96548438072205	movie	1		286	14.0	2.5	/experiments/Knapen_AOT/AOT_stimuli/rescaled_final/1409_rv.mp4	0.0	125.30749130249023	2.4920291900634766
16	104.7389657497406	pulse	1	t		14.0	2.5	/experiments/Knapen_AOT/AOT_stimuli/rescaled_final/1409_rv.mp4	0.0	126.08097267150879	
16	106.339284658432	pulse	1	t		14.0	2.5	/experiments/Knapen_AOT/AOT_stimuli/rescaled_final/1409_rv.mp4	0.0	127.6812915802002	
16	106.45751357078552	fix_post	2		12	14.0	2.5	/experiments/Knapen_AOT/AOT_stimuli/rescaled_final/1409_rv.mp4	0.0	127.79952049255371	0.10004281997680664
17	106.55755639076233	fix_pre	0		120	15.0	2.5	/experiments/Knapen_AOT/AOT_stimuli/rescaled_final/1682_fw.mp4	0.0	127.89956331253052	1.008479356765747
17	107.56603574752808	movie	1		279	15.0	2.5	/experiments/Knapen_AOT/AOT_stimuli/rescaled_final/1682_fw.mp4	0.0	128.90804266929626	2.4920969009399414
17	107.93971371650696	pulse	1	t		15.0	2.5	/experiments/Knapen_AOT/AOT_stimuli/rescaled_final/1682_fw.mp4	0.0	129.28172063827515	
17	109.53992652893066	pulse	1	t		15.0	2.5	/experiments/Knapen_AOT/AOT_stimuli/rescaled_final/1682_fw.mp4	0.0	130.88193345069885	
17	110.05813264846802	fix_post	2		12	15.0	2.5	/experiments/Knapen_AOT/AOT_stimuli/rescaled_final/1682_fw.mp4	0.0	131.4001395702362	0.09994721412658691
18	110.1580798625946	fix_pre	0		119	16.0	2.5	/experiments/Knapen_AOT/AOT_stimuli/rescaled_final/0942_rv.mp4	0.0	131.5000867843628	1.000232458114624
18	111.14174842834473	pulse	0	t		16.0	2.5	/experiments/Knapen_AOT/AOT_stimuli/rescaled_final/0942_rv.mp4	0.0	132.48375535011292	
18	111.15831232070923	movie	1		289	16.0	2.5	/experiments/Knapen_AOT/AOT_stimuli/rescaled_final/0942_rv.mp4	0.0	132.50031924247742	2.500269889831543
18	112.74024629592896	pulse	1	t		16.0	2.5	/experiments/Knapen_AOT/AOT_stimuli/rescaled_final/0942_rv.mp4	0.0	134.08225321769714	
18	113.65858221054077	fix_post	2		12	16.0	2.5	/experiments/Knapen_AOT/AOT_stimuli/rescaled_final/0942_rv.mp4	0.0	135.00058913230896	0.10006880760192871
19	113.7586510181427	fix_pre	0		120	17.0	2.5	/experiments/Knapen_AOT/AOT_stimuli/rescaled_final/0289_fw.mp4	0.0	135.1006579399109	1.0084946155548096
19	114.34226560592651	pulse	0	t		17.0	2.5	/experiments/Knapen_AOT/AOT_stimuli/rescaled_final/0289_fw.mp4	0.0	135.6842725276947	
19	114.76714563369751	movie	1		291	17.0	2.5	/experiments/Knapen_AOT/AOT_stimuli/rescaled_final/0289_fw.mp4	0.0	136.1091525554657	2.492009162902832
19	115.94071388244629	pulse	1	t		17.0	2.5	/experiments/Knapen_AOT/AOT_stimuli/rescaled_final/0289_fw.mp4	0.0	137.28272080421448	
19	117.25915479660034	fix_post	2		12	17.0	2.5	/experiments/Knapen_AOT/AOT_stimuli/rescaled_final/0289_fw.mp4	0.0	138.60116171836853	0.10005903244018555
20	117.35921382904053	fix_pre	0		120	18.0	2.5	/experiments/Knapen_AOT/AOT_stimuli/rescaled_final/0776_rv.mp4	0.0	138.70122075080872	1.0084848403930664
20	117.54272079467773	pulse	0	t		18.0	2.5	/experiments/Knapen_AOT/AOT_stimuli/rescaled_final/0776_rv.mp4	0.0	138.88472771644592	
20	118.3676986694336	movie	1		287	18.0	2.5	/experiments/Knapen_AOT/AOT_stimuli/rescaled_final/0776_rv.mp4	0.0	139.70970559120178	2.491973876953125
20	119.14066171646118	pulse	1	t		18.0	2.5	/experiments/Knapen_AOT/AOT_stimuli/rescaled_final/0776_rv.mp4	0.0	140.48266863822937	
20	120.74100351333618	pulse	1	t		18.0	2.5	/experiments/Knapen_AOT/AOT_stimuli/rescaled_final/0776_rv.mp4	0.0	142.08301043510437	
20	120.85967254638672	fix_post	2		12	18.0	2.5	/experiments/Knapen_AOT/AOT_stimuli/rescaled_final/0776_rv.mp4	0.0	142.2016794681549	0.10003328323364258
21	120.95970582962036	fix_pre	0		120	19.0	2.5	blank	1.0	142.30171275138855	1.0001487731933594
21	121.95985460281372	movie	1		300	19.0	2.5	blank	1.0	143.3018615245819	2.500469923019409
21	122.34354424476624	pulse	1	t		19.0	2.5	blank	1.0	143.68555116653442	
21	123.9437415599823	pulse	1	t		19.0	2.5	blank	1.0	145.2857484817505	
21	124.46032452583313	fix_post	2		12	19.0	2.5	blank	1.0	145.80233144760132	0.09992814064025879
22	124.56025266647339	fix_pre	0		119	20.0	2.5	/experiments/Knapen_AOT/AOT_stimuli/rescaled_final/0477_rv.mp4	0.0	145.90225958824158	1.0002856254577637
22	125.5439760684967	pulse	0	t		20.0	2.5	/experiments/Knapen_AOT/AOT_stimuli/rescaled_final/0477_rv.mp4	0.0	146.8859829902649	
22	125.56053829193115	movie	1		281	20.0	2.5	/experiments/Knapen_AOT/AOT_stimuli/rescaled_final/0477_rv.mp4	0.0	146.90254521369934	2.500234603881836
22	127.1429705619812	pulse	1	t		20.0	2.5	/experiments/Knapen_AOT/AOT_stimuli/rescaled_final/0477_rv.mp4	0.0	148.4849774837494	
22	128.060772895813	fix_post	2		12	20.0	2.5	/experiments/Knapen_AOT/AOT_stimuli/rescaled_final/0477_rv.mp4	0.0	149.40277981758118	0.10001134872436523
23	128.16078424453735	fix_pre	0		120	21.0	2.5	/experiments/Knapen_AOT/AOT_stimuli/rescaled_final/1284_rv.mp4	0.0	149.50279116630554	1.0085101127624512
23	128.7444019317627	pulse	0	t		21.0	2.5	/experiments/Knapen_AOT/AOT_stimuli/rescaled_final/1284_rv.mp4	0.0	150.08640885353088	
23	129.1692943572998	movie	1		265	21.0	2.5	/experiments/Knapen_AOT/AOT_stimuli/rescaled_final/1284_rv.mp4	0.0	150.511301279068	2.492020606994629
23	130.3448359966278	pulse	1	t		21.0	2.5	/experiments/Knapen_AOT/AOT_stimuli/rescaled_final/1284_rv.mp4	0.0	151.686842918396	
23	131.66131496429443	fix_post	2		12	21.0	2.5	/experiments/Knapen_AOT/AOT_stimuli/rescaled_final/1284_rv.mp4	0.0	153.00332188606262	0.10013723373413086
24	131.76145219802856	fix_pre	0		120	22.0	2.5	/experiments/Knapen_AOT/AOT_stimuli/rescaled_final/1126_fw.mp4	0.0	153.10345911979675	1.0083904266357422
24	131.9369547367096	pulse	0	t		22.0	2.5	/experiments/Knapen_AOT/AOT_stimuli/rescaled_final/1126_fw.mp4	0.0	153.27896165847778	
24	132.7698426246643	movie	1		276	22.0	2.5	/experiments/Knapen_AOT/AOT_stimuli/rescaled_final/1126_fw.mp4	0.0	154.1118495464325	2.4920172691345215
24	133.53699493408203	pulse	1	t		22.0	2.5	/experiments/Knapen_AOT/AOT_stimuli/rescaled_final/1126_fw.mp4	0.0	154.87900185585022	
24	135.13777661323547	pulse	1	t		22.0	2.5	/experiments/Knapen_AOT/AOT_stimuli/rescaled_final/1126_fw.mp4	0.0	156.47978353500366	
24	135.26185989379883	fix_post	2		12	22.0	2.5	/experiments/Knapen_AOT/AOT_stimuli/rescaled_final/1126_fw.mp4	0.0	156.60386681556702	0.10001254081726074
25	135.3618724346161	fix_pre	0		120	23.0	2.5	/experiments/Knapen_AOT/AOT_stimuli/rescaled_final/0124_rv.mp4	0.0	156.70387935638428	1.0085303783416748
25	136.37040281295776	movie	1		280	23.0	2.5	/experiments/Knapen_AOT/AOT_stimuli/rescaled_final/0124_rv.mp4	0.0	157.71240973472595	2.4920594692230225
25	136.73740911483765	pulse	1	t		23.0	2.5	/experiments/Knapen_AOT/AOT_stimuli/rescaled_final/0124_rv.mp4	0.0	158.07941603660583	
25	138.33758330345154	pulse	1	t		23.0	2.5	/experiments/Knapen_AOT/AOT_stimuli/rescaled_final/0124_rv.mp4	0.0	159.67959022521973	
25	138.8624622821808	fix_post	2		12	23.0	2.5	/experiments/Knapen_AOT/AOT_stimuli/rescaled_final/0124_rv.mp4	0.0	160.20446920394897	0.09995508193969727
26	138.96241736412048	fix_pre	0		118	24.0	2.5	/experiments/Knapen_AOT/AOT_stimuli/rescaled_final/1546_rv.mp4	0.0	160.30442428588867	0.9918112754821777
26	139.93790316581726	pulse	0	t		24.0	2.5	/experiments/Knapen_AOT/AOT_stimuli/rescaled_final/1546_rv.mp4	0.0	161.27991008758545	
26	139.95422863960266	movie	1		284	24.0	2.5	/experiments/Knapen_AOT/AOT_stimuli/rescaled_final/1546_rv.mp4	0.0	161.29623556137085	2.5004138946533203
26	141.53682398796082	pulse	1	t		24.0	2.5	/experiments/Knapen_AOT/AOT_stimuli/rescaled_final/1546_rv.mp4	0.0	162.878830909729	
26	142.45464253425598	fix_post	2		12	24.0	2.5	/experiments/Knapen_AOT/AOT_stimuli/rescaled_final/1546_rv.mp4	0.0	163.79664945602417	0.10003662109375
27	142.55467915534973	fix_pre	0		120	25.0	2.5	/experiments/Knapen_AOT/AOT_stimuli/rescaled_final/0427_rv.mp4	0.0	163.89668607711792	1.008455753326416
27	143.1383147239685	pulse	0	t		25.0	2.5	/experiments/Knapen_AOT/AOT_stimuli/rescaled_final/0427_rv.mp4	0.0	164.4803216457367	
27	143.56313490867615	movie	1		276	25.0	2.5	/experiments/Knapen_AOT/AOT_stimuli/rescaled_final/0427_rv.mp4	0.0	164.90514183044434	2.4920151233673096
27	144.73769855499268	pulse	1	t		25.0	2.5	/experiments/Knapen_AOT/AOT_stimuli/rescaled_final/0427_rv.mp4	0.0	166.07970547676086	
27	146.05515003204346	fix_post	2		12	25.0	2.5	/experiments/Knapen_AOT/AOT_stimuli/rescaled_final/0427_rv.mp4	0.0	167.39715695381165	0.10014104843139648
28	146.15529108047485	fix_pre	0		120	26.0	2.5	blank	1.0	167.49729800224304	1.000117301940918
28	146.3387496471405	pulse	0	t		26.0	2.5	blank	1.0	167.6807565689087	
28	147.15540838241577	movie	1		300	26.0	2.5	blank	1.0	168.49741530418396	2.500275135040283
28	147.93898677825928	pulse	1	t		26.0	2.5	blank	1.0	169.28099370002747	
28	149.53927564620972	pulse	1	t		26.0	2.5	blank	1.0	170.8812825679779	
28	149.65568351745605	fix_post	2		12	26.0	2.5	blank	1.0	170.99769043922424	0.10001754760742188
29	149.75570106506348	fix_pre	0		120	27.0	2.5	/experiments/Knapen_AOT/AOT_stimuli/rescaled_final/0591_fw.mp4	0.0	171.09770798683167	1.0085272789001465
29	150.76422834396362	movie	1		284	27.0	2.5	/experiments/Knapen_AOT/AOT_stimuli/rescaled_final/0591_fw.mp4	0.0	172.1062352657318	2.492034435272217
29	151.13754892349243	pulse	1	t		27.0	2.5	/experiments/Knapen_AOT/AOT_stimuli/rescaled_final/0591_fw.mp4	0.0	172.47955584526062	
29	152.73790884017944	pulse	1	t		27.0	2.5	/experiments/Knapen_AOT/AOT_stimuli/rescaled_final/0591_fw.mp4	0.0	174.07991576194763	
29	153.25626277923584	fix_post	2		12	27.0	2.5	/experiments/Knapen_AOT/AOT_stimuli/rescaled_final/0591_fw.mp4	0.0	174.59826970100403	0.10004734992980957
30	153.35631012916565	fix_pre	0		119	28.0	2.5	/experiments/Knapen_AOT/AOT_stimuli/rescaled_final/0885_rv.mp4	0.0	174.69831705093384	1.0000789165496826
30	154.3401906490326	pulse	0	t		28.0	2.5	/experiments/Knapen_AOT/AOT_stimuli/rescaled_final/0885_rv.mp4	0.0	175.68219757080078	
30	154.35638904571533	movie	1		278	28.0	2.5	/experiments/Knapen_AOT/AOT_stimuli/rescaled_final/0885_rv.mp4	0.0	175.69839596748352	2.500380039215088
30	155.93882417678833	pulse	1	t		28.0	2.5	/experiments/Knapen_AOT/AOT_stimuli/rescaled_final/0885_rv.mp4	0.0	177.28083109855652	
30	156.85676908493042	fix_post	2		12	28.0	2.5	/experiments/Knapen_AOT/AOT_stimuli/rescaled_final/0885_rv.mp4	0.0	178.1987760066986	0.1000211238861084
31	156.95679020881653	fix_pre	0		120	29.0	2.5	/experiments/Knapen_AOT/AOT_stimuli/rescaled_final/0810_rv.mp4	0.0	178.29879713058472	1.0085933208465576
31	157.54041242599487	pulse	0	t		29.0	2.5	/experiments/Knapen_AOT/AOT_stimuli/rescaled_final/0810_rv.mp4	0.0	178.88241934776306	
31	157.9653835296631	movie	1		285	29.0	2.5	/experiments/Knapen_AOT/AOT_stimuli/rescaled_final/0810_rv.mp4	0.0	179.30739045143127	2.4919216632843018
31	159.1393265724182	pulse	1	t		29.0	2.5	/experiments/Knapen_AOT/AOT_stimuli/rescaled_final/0810_rv.mp4	0.0	180.4813334941864	
31	160.4573051929474	fix_post	2		12	29.0	2.5	/experiments/Knapen_AOT/AOT_stimuli/rescaled_final/0810_rv.mp4	0.0	181.79931211471558	0.10007143020629883
32	160.5573766231537	fix_pre	0		120	30.0	2.5	/experiments/Knapen_AOT/AOT_stimuli/rescaled_final/2055_rv.mp4	0.0	181.89938354492188	1.008474588394165
32	160.74105715751648	pulse	0	t		30.0	2.5	/experiments/Knapen_AOT/AOT_stimuli/rescaled_final/2055_rv.mp4	0.0	182.08306407928467	
32	161.56585121154785	movie	1		288	30.0	2.5	/experiments/Knapen_AOT/AOT_stimuli/rescaled_final/2055_rv.mp4	0.0	182.90785813331604	2.4919981956481934
32	162.3389015197754	pulse	1	t		30.0	2.5	/experiments/Knapen_AOT/AOT_stimuli/rescaled_final/2055_rv.mp4	0.0	183.68090844154358	
32	163.93973517417908	pulse	1	t		30.0	2.5	/experiments/Knapen_AOT/AOT_stimuli/rescaled_final/2055_rv.mp4	0.0	185.28174209594727	
32	164.05784940719604	fix_post	2		12	30.0	2.5	/experiments/Knapen_AOT/AOT_stimuli/rescaled_final/2055_rv.mp4	0.0	185.39985632896423	0.1000211238861084
33	164.15787053108215	fix_pre	0		120	31.0	2.5	/experiments/Knapen_AOT/AOT_stimuli/rescaled_final/1048_fw.mp4	0.0	185.49987745285034	1.0085036754608154
33	165.16637420654297	movie	1		285	31.0	2.5	/experiments/Knapen_AOT/AOT_stimuli/rescaled_final/1048_fw.mp4	0.0	186.50838112831116	2.492070436477661
33	165.54022192955017	pulse	1	t		31.0	2.5	/experiments/Knapen_AOT/AOT_stimuli/rescaled_final/1048_fw.mp4	0.0	186.88222885131836	
33	167.14000034332275	pulse	1	t		31.0	2.5	/experiments/Knapen_AOT/AOT_stimuli/rescaled_final/1048_fw.mp4	0.0	188.48200726509094	
33	167.65844464302063	fix_post	2		12	31.0	2.5	/experiments/Knapen_AOT/AOT_stimuli/rescaled_final/1048_fw.mp4	0.0	189.00045156478882	0.09999537467956543
34	167.7584400177002	fix_pre	0		119	32.0	2.5	/experiments/Knapen_AOT/AOT_stimuli/rescaled_final/0126_fw.mp4	0.0	189.10044693946838	1.0001256465911865
34	168.74225568771362	pulse	0	t		32.0	2.5	/experiments/Knapen_AOT/AOT_stimuli/rescaled_final/0126_fw.mp4	0.0	190.0842626094818	
34	168.75856566429138	movie	1		280	32.0	2.5	/experiments/Knapen_AOT/AOT_stimuli/rescaled_final/0126_fw.mp4	0.0	190.10057258605957	2.5004475116729736
34	170.34131503105164	pulse	1	t		32.0	2.5	/experiments/Knapen_AOT/AOT_stimuli/rescaled_final/0126_fw.mp4	0.0	191.68332195281982	
34	171.25901317596436	fix_post	2		12	32.0	2.5	/experiments/Knapen_AOT/AOT_stimuli/rescaled_final/0126_fw.mp4	0.0	192.60102009773254	0.09997797012329102
35	171.35899114608765	fix_pre	0		120	33.0	2.5	/experiments/Knapen_AOT/AOT_stimuli/rescaled_final/0289_rv.mp4	0.0	192.70099806785583	1.0084736347198486
35	171.94271898269653	pulse	0	t		33.0	2.5	/experiments/Knapen_AOT/AOT_stimuli/rescaled_final/0289_rv.mp4	0.0	193.28472590446472	
35	172.3674647808075	movie	1		283	33.0	2.5	/experiments/Knapen_AOT/AOT_stimuli/rescaled_final/0289_rv.mp4	0.0	193.70947170257568	2.4920244216918945
35	173.5431046485901	pulse	1	t		33.0	2.5	/experiments/Knapen_AOT/AOT_stimuli/rescaled_final/0289_rv.mp4	0.0	194.88511157035828	
35	174.8594892024994	fix_post	2		12	33.0	2.5	/experiments/Knapen_AOT/AOT_stimuli/rescaled_final/0289_rv.mp4	0.0	196.20149612426758	0.10003900527954102
36	174.95952820777893	fix_pre	0		120	34.0	2.5	/experiments/Knapen_AOT/AOT_stimuli/rescaled_final/0906_fw.mp4	0.0	196.30153512954712	1.0084435939788818
36	175.14310264587402	pulse	0	t		34.0	2.5	/experiments/Knapen_AOT/AOT_stimuli/rescaled_final/0906_fw.mp4	0.0	196.4851095676422	
36	175.9679718017578	movie	1		276	34.0	2.5	/experiments/Knapen_AOT/AOT_stimuli/rescaled_final/0906_fw.mp4	0.0	197.309978723526	2.492034673690796
36	176.7412691116333	pulse	1	t		34.0	2.5	/experiments/Knapen_AOT/AOT_stimuli/rescaled_final/0906_fw.mp4	0.0	198.0832760334015	
36	178.34303307533264	pulse	1	t		34.0	2.5	/experiments/Knapen_AOT/AOT_stimuli/rescaled_final/0906_fw.mp4	0.0	199.68503999710083	
36	178.4600064754486	fix_post	2		12	34.0	2.5	/experiments/Knapen_AOT/AOT_stimuli/rescaled_final/0906_fw.mp4	0.0	199.8020133972168	0.10002303123474121
37	178.56002950668335	fix_pre	0		120	35.0	2.5	blank	1.0	199.90203642845154	1.000220775604248
37	179.5602502822876	movie	1		300	35.0	2.5	blank	1.0	200.9022572040558	2.5003433227539062
37	179.93615913391113	pulse	1	t		35.0	2.5	blank	1.0	201.27816605567932	
37	181.5365662574768	pulse	1	t		35.0	2.5	blank	1.0	202.878573179245	
37	182.0605936050415	fix_post	2		12	35.0	2.5	blank	1.0	203.4026005268097	0.09998631477355957
38	182.16057991981506	fix_pre	0		118	36.0	2.5	/experiments/Knapen_AOT/AOT_stimuli/rescaled_final/1365_rv.mp4	0.0	203.50258684158325	0.991828203201294
38	183.1363184452057	pulse	0	t		36.0	2.5	/experiments/Knapen_AOT/AOT_stimuli/rescaled_final/1365_rv.mp4	0.0	204.47832536697388	
38	183.15240812301636	movie	1		272	36.0	2.5	/experiments/Knapen_AOT/AOT_stimuli/rescaled_final/1365_rv.mp4	0.0	204.49441504478455	2.500467538833618
38	184.7365186214447	pulse	1	t		36.0	2.5	/experiments/Knapen_AOT/AOT_stimuli/rescaled_final/1365_rv.mp4	0.0	206.0785255432129	
38	185.65287566184998	fix_post	2		12	36.0	2.5	/experiments/Knapen_AOT/AOT_stimuli/rescaled_final/1365_rv.mp4	0.0	206.99488258361816	0.09991788864135742
39	185.75279355049133	fix_pre	0		120	37.0	2.5	/experiments/Knapen_AOT/AOT_stimuli/rescaled_final/0294_rv.mp4	0.0	207.09480047225952	1.0085546970367432
39	186.33648562431335	pulse	0	t		37.0	2.5	/experiments/Knapen_AOT/AOT_stimuli/rescaled_final/0294_rv.mp4	0.0	207.67849254608154	
39	186.76134824752808	movie	1		289	37.0	2.5	/experiments/Knapen_AOT/AOT_stimuli/rescaled_final/0294_rv.mp4	0.0	208.10335516929626	2.4919731616973877
39	187.93660807609558	pulse	1	t		37.0	2.5	/experiments/Knapen_AOT/AOT_stimuli/rescaled_final/0294_rv.mp4	0.0	209.27861499786377	
39	189.25332140922546	fix_post	2		12	37.0	2.5	/experiments/Knapen_AOT/AOT_stimuli/rescaled_final/0294_rv.mp4	0.0	210.59532833099365	0.10010766983032227
40	189.3534290790558	fix_pre	0		120	38.0	2.5	/experiments/Knapen_AOT/AOT_stimuli/rescaled_final/0080_fw.mp4	0.0	210.69543600082397	1.0085034370422363
40	189.53691172599792	pulse	0	t		38.0	2.5	/experiments/Knapen_AOT/AOT_stimuli/rescaled_final/0080_fw.mp4	0.0	210.8789186477661	
40	190.36193251609802	movie	1		291	38.0	2.5	/experiments/Knapen_AOT/AOT_stimuli/rescaled_final/0080_fw.mp4	0.0	211.7039394378662	2.4919321537017822
40	191.13720107078552	pulse	1	t		38.0	2.5	/experiments/Knapen_AOT/AOT_stimuli/rescaled_final/0080_fw.mp4	0.0	212.4792079925537	
40	192.7374460697174	pulse	1	t		38.0	2.5	/experiments/Knapen_AOT/AOT_stimuli/rescaled_final/0080_fw.mp4	0.0	214.0794529914856	
40	192.8538646697998	fix_post	2		12	38.0	2.5	/experiments/Knapen_AOT/AOT_stimuli/rescaled_final/0080_fw.mp4	0.0	214.195871591568	0.10000777244567871
41	192.95387244224548	fix_pre	0		120	39.0	2.5	/experiments/Knapen_AOT/AOT_stimuli/rescaled_final/1041_fw.mp4	0.0	214.29587936401367	1.008512020111084
41	193.96238446235657	movie	1		284	39.0	2.5	/experiments/Knapen_AOT/AOT_stimuli/rescaled_final/1041_fw.mp4	0.0	215.30439138412476	2.492011308670044
41	194.33767533302307	pulse	1	t		39.0	2.5	/experiments/Knapen_AOT/AOT_stimuli/rescaled_final/1041_fw.mp4	0.0	215.67968225479126	
41	195.93807888031006	pulse	1	t		39.0	2.5	/experiments/Knapen_AOT/AOT_stimuli/rescaled_final/1041_fw.mp4	0.0	217.28008580207825	
41	196.4543957710266	fix_post	2		12	39.0	2.5	/experiments/Knapen_AOT/AOT_stimuli/rescaled_final/1041_fw.mp4	0.0	217.7964026927948	0.10002493858337402
42	196.55442070960999	fix_pre	0		119	40.0	2.5	/experiments/Knapen_AOT/AOT_stimuli/rescaled_final/0557_fw.mp4	0.0	217.89642763137817	1.0001556873321533
42	197.53818774223328	pulse	0	t		40.0	2.5	/experiments/Knapen_AOT/AOT_stimuli/rescaled_final/0557_fw.mp4	0.0	218.88019466400146	
42	197.55457639694214	movie	1		284	40.0	2.5	/experiments/Knapen_AOT/AOT_stimuli/rescaled_final/0557_fw.mp4	0.0	218.89658331871033	2.500361919403076
42	199.13705945014954	pulse	1	t		40.0	2.5	/experiments/Knapen_AOT/AOT_stimuli/rescaled_final/0557_fw.mp4	0.0	220.47906637191772	
42	200.05493831634521	fix_post	2		12	40.0	2.5	/experiments/Knapen_AOT/AOT_stimuli/rescaled_final/0557_fw.mp4	0.0	221.3969452381134	0.10008502006530762
43	200.15502333641052	fix_pre	0		120	41.0	2.5	blank	1.0	221.4970302581787	1.0000667572021484
43	200.73865747451782	pulse	0	t		41.0	2.5	blank	1.0	222.080664396286	
43	201.15509009361267	movie	1		300	41.0	2.5	blank	1.0	222.49709701538086	2.5003764629364014
43	202.33892488479614	pulse	1	t		41.0	2.5	blank	1.0	223.68093180656433	
43	203.65546655654907	fix_post	2		12	41.0	2.5	blank	1.0	224.99747347831726	0.10005974769592285
44	203.755526304245	fix_pre	0		120	42.0	2.5	/experiments/Knapen_AOT/AOT_stimuli/rescaled_final/1338_rv.mp4	0.0	225.09753322601318	1.008483648300171
44	203.93915271759033	pulse	0	t		42.0	2.5	/experiments/Knapen_AOT/AOT_stimuli/rescaled_final/1338_rv.mp4	0.0	225.28115963935852	
44	204.76400995254517	movie	1		284	42.0	2.5	/experiments/Knapen_AOT/AOT_stimuli/rescaled_final/1338_rv.mp4	0.0	226.10601687431335	2.492030382156372
44	205.5376238822937	pulse	1	t		42.0	2.5	/experiments/Knapen_AOT/AOT_stimuli/rescaled_final/1338_rv.mp4	0.0	226.8796308040619	
44	207.13747191429138	pulse	1	t		42.0	2.5	/experiments/Knapen_AOT/AOT_stimuli/rescaled_final/1338_rv.mp4	0.0	228.47947883605957	
44	207.25604033470154	fix_post	2		12	42.0	2.5	/experiments/Knapen_AOT/AOT_stimuli/rescaled_final/1338_rv.mp4	0.0	228.59804725646973	0.1000518798828125
45	207.35609221458435	fix_pre	0		120	43.0	2.5	/experiments/Knapen_AOT/AOT_stimuli/rescaled_final/0822_rv.mp4	0.0	228.69809913635254	1.0084469318389893
45	208.36453914642334	movie	1		274	43.0	2.5	/experiments/Knapen_AOT/AOT_stimuli/rescaled_final/0822_rv.mp4	0.0	229.70654606819153	2.49202299118042
45	208.7388846874237	pulse	1	t		43.0	2.5	/experiments/Knapen_AOT/AOT_stimuli/rescaled_final/0822_rv.mp4	0.0	230.0808916091919	
45	210.33984208106995	pulse	1	t		43.0	2.5	/experiments/Knapen_AOT/AOT_stimuli/rescaled_final/0822_rv.mp4	0.0	231.68184900283813	
45	210.85656213760376	fix_post	2		12	43.0	2.5	/experiments/Knapen_AOT/AOT_stimuli/rescaled_final/0822_rv.mp4	0.0	232.19856905937195	0.10000920295715332
46	210.9565713405609	fix_pre	0		119	44.0	2.5	/experiments/Knapen_AOT/AOT_stimuli/rescaled_final/1480_fw.mp4	0.0	232.2985782623291	1.0001978874206543
46	211.9403932094574	pulse	0	t		44.0	2.5	/experiments/Knapen_AOT/AOT_stimuli/rescaled_final/1480_fw.mp4	0.0	233.2824001312256	
46	211.95676922798157	movie	1		281	44.0	2.5	/experiments/Knapen_AOT/AOT_stimuli/rescaled_final/1480_fw.mp4	0.0	233.29877614974976	2.5003981590270996
46	213.53893899917603	pulse	1	t		44.0	2.5	/experiments/Knapen_AOT/AOT_stimuli/rescaled_final/1480_fw.mp4	0.0	234.8809459209442	
46	214.45716738700867	fix_post	2		12	44.0	2.5	/experiments/Knapen_AOT/AOT_stimuli/rescaled_final/1480_fw.mp4	0.0	235.79917430877686	0.09995818138122559
47	214.5571255683899	fix_pre	0		120	45.0	2.5	/experiments/Knapen_AOT/AOT_stimuli/rescaled_final/0732_fw.mp4	0.0	235.89913249015808	1.0085194110870361
47	215.14074730873108	pulse	0	t		45.0	2.5	/experiments/Knapen_AOT/AOT_stimuli/rescaled_final/0732_fw.mp4	0.0	236.48275423049927	
47	215.56564497947693	movie	1		291	45.0	2.5	/experiments/Knapen_AOT/AOT_stimuli/rescaled_final/0732_fw.mp4	0.0	236.90765190124512	2.4920153617858887
47	216.73959589004517	pulse	1	t		45.0	2.5	/experiments/Knapen_AOT/AOT_stimuli/rescaled_final/0732_fw.mp4	0.0	238.08160281181335	
47	218.05766034126282	fix_post	2		12	45.0	2.5	/experiments/Knapen_AOT/AOT_stimuli/rescaled_final/0732_fw.mp4	0.0	239.399667263031	0.09999728202819824
48	218.15765762329102	fix_pre	0		103	46.0	2.5	/experiments/Knapen_AOT/AOT_stimuli/rescaled_final/1922_rv.mp4	0.0	239.4996645450592	1.008483648300171
48	218.3413622379303	pulse	0	t		46.0	2.5	/experiments/Knapen_AOT/AOT_stimuli/rescaled_final/1922_rv.mp4	0.0	239.6833691596985	
48	219.1661412715912	movie	1		282	46.0	2.5	/experiments/Knapen_AOT/AOT_stimuli/rescaled_final/1922_rv.mp4	0.0	240.50814819335938	2.4920947551727295
48	219.93978571891785	pulse	1	t		46.0	2.5	/experiments/Knapen_AOT/AOT_stimuli/rescaled_final/1922_rv.mp4	0.0	241.28179264068604	
48	221.5407955646515	pulse	1	t		46.0	2.5	/experiments/Knapen_AOT/AOT_stimuli/rescaled_final/1922_rv.mp4	0.0	242.88280248641968	
48	221.65823602676392	fix_post	2		12	46.0	2.5	/experiments/Knapen_AOT/AOT_stimuli/rescaled_final/1922_rv.mp4	0.0	243.0002429485321	0.09996271133422852
49	221.75819873809814	fix_pre	0		120	47.0	2.5	/experiments/Knapen_AOT/AOT_stimuli/rescaled_final/0222_fw.mp4	0.0	243.10020565986633	1.0084660053253174
49	222.76666474342346	movie	1		277	47.0	2.5	/experiments/Knapen_AOT/AOT_stimuli/rescaled_final/0222_fw.mp4	0.0	244.10867166519165	2.492079257965088
49	223.14223527908325	pulse	1	t		47.0	2.5	/experiments/Knapen_AOT/AOT_stimuli/rescaled_final/0222_fw.mp4	0.0	244.48424220085144	
49	224.74183416366577	pulse	1	t		47.0	2.5	/experiments/Knapen_AOT/AOT_stimuli/rescaled_final/0222_fw.mp4	0.0	246.08384108543396	
49	225.25874400138855	fix_post	2		12	47.0	2.5	/experiments/Knapen_AOT/AOT_stimuli/rescaled_final/0222_fw.mp4	0.0	246.60075092315674	0.10005664825439453
50	225.35880064964294	fix_pre	0		119	48.0	2.5	/experiments/Knapen_AOT/AOT_stimuli/rescaled_final/1530_rv.mp4	0.0	246.70080757141113	1.0001130104064941
50	226.34250807762146	pulse	0	t		48.0	2.5	/experiments/Knapen_AOT/AOT_stimuli/rescaled_final/1530_rv.mp4	0.0	247.68451499938965	
50	226.35891366004944	movie	1		284	48.0	2.5	/experiments/Knapen_AOT/AOT_stimuli/rescaled_final/1530_rv.mp4	0.0	247.70092058181763	2.5004146099090576
50	227.94276928901672	pulse	1	t		48.0	2.5	/experiments/Knapen_AOT/AOT_stimuli/rescaled_final/1530_rv.mp4	0.0	249.2847762107849	
50	228.8593282699585	fix_post	2		12	48.0	2.5	/experiments/Knapen_AOT/AOT_stimuli/rescaled_final/1530_rv.mp4	0.0	250.20133519172668	0.10004711151123047
51	228.95937538146973	fix_pre	0		120	49.0	2.5	blank	1.0	250.30138230323792	1.000187635421753
51	229.54296278953552	pulse	0	t		49.0	2.5	blank	1.0	250.8849697113037	
51	229.95956301689148	movie	1		300	49.0	2.5	blank	1.0	251.30156993865967	2.5002450942993164
51	231.14315509796143	pulse	1	t		49.0	2.5	blank	1.0	252.48516201972961	
51	232.4598081111908	fix_post	2		12	49.0	2.5	blank	1.0	253.80181503295898	0.10001969337463379
52	232.55982780456543	fix_pre	0		120	50.0	2.5	/experiments/Knapen_AOT/AOT_stimuli/rescaled_final/1432_fw.mp4	0.0	253.90183472633362	1.0084404945373535
52	232.74354243278503	pulse	0	t		50.0	2.5	/experiments/Knapen_AOT/AOT_stimuli/rescaled_final/1432_fw.mp4	0.0	254.08554935455322	
52	233.56826829910278	movie	1		276	50.0	2.5	/experiments/Knapen_AOT/AOT_stimuli/rescaled_final/1432_fw.mp4	0.0	254.91027522087097	2.492095947265625
52	234.34185338020325	pulse	1	t		50.0	2.5	/experiments/Knapen_AOT/AOT_stimuli/rescaled_final/1432_fw.mp4	0.0	255.68386030197144	
52	235.942156791687	pulse	1	t		50.0	2.5	/experiments/Knapen_AOT/AOT_stimuli/rescaled_final/1432_fw.mp4	0.0	257.2841637134552	
52	236.0603642463684	fix_post	2		12	50.0	2.5	/experiments/Knapen_AOT/AOT_stimuli/rescaled_final/1432_fw.mp4	0.0	257.4023711681366	0.10001134872436523
53	236.16037559509277	fix_pre	0		120	51.0	2.5	/experiments/Knapen_AOT/AOT_stimuli/rescaled_final/1708_fw.mp4	0.0	257.50238251686096	1.0085046291351318
53	237.1688802242279	movie	1		275	51.0	2.5	/experiments/Knapen_AOT/AOT_stimuli/rescaled_final/1708_fw.mp4	0.0	258.5108871459961	2.492011308670044
53	237.5426619052887	pulse	1	t		51.0	2.5	/experiments/Knapen_AOT/AOT_stimuli/rescaled_final/1708_fw.mp4	0.0	258.8846688270569	
53	239.14298295974731	pulse	1	t		51.0	2.5	/experiments/Knapen_AOT/AOT_stimuli/rescaled_final/1708_fw.mp4	0.0	260.4849898815155	
53	239.66089153289795	fix_post	2		12	51.0	2.5	/experiments/Knapen_AOT/AOT_stimuli/rescaled_final/1708_fw.mp4	0.0	261.00289845466614	0.10003900527954102
54	239.7609305381775	fix_pre	0		119	52.0	2.5	/experiments/Knapen_AOT/AOT_stimuli/rescaled_final/0810_fw.mp4	0.0	261.1029374599457	1.0001225471496582
54	240.7369363307953	pulse	0	t		52.0	2.5	/experiments/Knapen_AOT/AOT_stimuli/rescaled_final/0810_fw.mp4	0.0	262.0789432525635	
54	240.76105308532715	movie	1		276	52.0	2.5	/experiments/Knapen_AOT/AOT_stimuli/rescaled_final/0810_fw.mp4	0.0	262.10306000709534	2.500457525253296
54	242.3367555141449	pulse	1	t		52.0	2.5	/experiments/Knapen_AOT/AOT_stimuli/rescaled_final/0810_fw.mp4	0.0	263.6787624359131	
54	243.26151061058044	fix_post	2		12	52.0	2.5	/experiments/Knapen_AOT/AOT_stimuli/rescaled_final/0810_fw.mp4	0.0	264.60351753234863	0.09995341300964355
55	243.3614640235901	fix_pre	0		120	53.0	2.5	/experiments/Knapen_AOT/AOT_stimuli/rescaled_final/0055_rv.mp4	0.0	264.7034709453583	1.0085060596466064
55	243.93679451942444	pulse	0	t		53.0	2.5	/experiments/Knapen_AOT/AOT_stimuli/rescaled_final/0055_rv.mp4	0.0	265.2788014411926	
55	244.3699700832367	movie	1		275	53.0	2.5	/experiments/Knapen_AOT/AOT_stimuli/rescaled_final/0055_rv.mp4	0.0	265.7119770050049	2.500417947769165
55	245.53724265098572	pulse	1	t		53.0	2.5	/experiments/Knapen_AOT/AOT_stimuli/rescaled_final/0055_rv.mp4	0.0	266.8792495727539	
55	246.87038803100586	fix_post	2		11	53.0	2.5	/experiments/Knapen_AOT/AOT_stimuli/rescaled_final/0055_rv.mp4	0.0	268.21239495277405	0.09162425994873047
56	246.9620122909546	fix_pre	0		120	54.0	2.5	/experiments/Knapen_AOT/AOT_stimuli/rescaled_final/0906_fw.mp4	0.0	268.3040192127228	1.0085134506225586
56	247.13732719421387	pulse	0	t		54.0	2.5	/experiments/Knapen_AOT/AOT_stimuli/rescaled_final/0906_fw.mp4	0.0	268.47933411598206	
56	247.97052574157715	movie	1		280	54.0	2.5	/experiments/Knapen_AOT/AOT_stimuli/rescaled_final/0906_fw.mp4	0.0	269.31253266334534	2.492048740386963
56	248.7375409603119	pulse	1	t		54.0	2.5	/experiments/Knapen_AOT/AOT_stimuli/rescaled_final/0906_fw.mp4	0.0	270.0795478820801	
56	250.33814811706543	pulse	1	t		54.0	2.5	/experiments/Knapen_AOT/AOT_stimuli/rescaled_final/0906_fw.mp4	0.0	271.6801550388336	
56	250.4625744819641	fix_post	2		12	54.0	2.5	/experiments/Knapen_AOT/AOT_stimuli/rescaled_final/0906_fw.mp4	0.0	271.8045814037323	0.10004043579101562
57	250.56261491775513	fix_pre	0		120	55.0	2.5	/experiments/Knapen_AOT/AOT_stimuli/rescaled_final/2168_rv.mp4	0.0	271.9046218395233	1.0084259510040283
57	251.57104086875916	movie	1		283	55.0	2.5	/experiments/Knapen_AOT/AOT_stimuli/rescaled_final/2168_rv.mp4	0.0	272.91304779052734	2.4920549392700195
57	251.93796467781067	pulse	1	t		55.0	2.5	/experiments/Knapen_AOT/AOT_stimuli/rescaled_final/2168_rv.mp4	0.0	273.27997159957886	
57	253.53825974464417	pulse	1	t		55.0	2.5	/experiments/Knapen_AOT/AOT_stimuli/rescaled_final/2168_rv.mp4	0.0	274.88026666641235	
57	254.06309580802917	fix_post	2		12	55.0	2.5	/experiments/Knapen_AOT/AOT_stimuli/rescaled_final/2168_rv.mp4	0.0	275.40510272979736	0.09997844696044922
58	254.16307425498962	fix_pre	0		118	56.0	2.5	blank	1.0	275.5050811767578	0.9834549427032471
58	255.13855123519897	pulse	0	t		56.0	2.5	blank	1.0	276.48055815696716	
58	255.14652919769287	movie	1		301	56.0	2.5	blank	1.0	276.48853611946106	2.5087616443634033
58	256.73868346214294	pulse	1	t		56.0	2.5	blank	1.0	278.08069038391113	
58	257.6552908420563	fix_post	2		12	56.0	2.5	blank	1.0	278.99729776382446	0.10002398490905762
59	257.75531482696533	fix_pre	0		120	57.0	2.5	/experiments/Knapen_AOT/AOT_stimuli/rescaled_final/0145_rv.mp4	0.0	279.0973217487335	1.0084326267242432
59	258.3389525413513	pulse	0	t		57.0	2.5	/experiments/Knapen_AOT/AOT_stimuli/rescaled_final/0145_rv.mp4	0.0	279.6809594631195	
59	258.7637474536896	movie	1		285	57.0	2.5	/experiments/Knapen_AOT/AOT_stimuli/rescaled_final/0145_rv.mp4	0.0	280.10575437545776	2.492065191268921
59	259.9370975494385	pulse	1	t		57.0	2.5	/experiments/Knapen_AOT/AOT_stimuli/rescaled_final/0145_rv.mp4	0.0	281.27910447120667	
59	261.2558126449585	fix_post	2		12	57.0	2.5	/experiments/Knapen_AOT/AOT_stimuli/rescaled_final/0145_rv.mp4	0.0	282.5978195667267	0.10001182556152344
60	261.35582447052	fix_pre	0		120	58.0	2.5	/experiments/Knapen_AOT/AOT_stimuli/rescaled_final/0885_fw.mp4	0.0	282.6978313922882	1.00852370262146
60	261.5394768714905	pulse	0	t		58.0	2.5	/experiments/Knapen_AOT/AOT_stimuli/rescaled_final/0885_fw.mp4	0.0	282.88148379325867	
60	262.3643481731415	movie	1		279	58.0	2.5	/experiments/Knapen_AOT/AOT_stimuli/rescaled_final/0885_fw.mp4	0.0	283.70635509490967	2.492009162902832
60	263.137412071228	pulse	1	t		58.0	2.5	/experiments/Knapen_AOT/AOT_stimuli/rescaled_final/0885_fw.mp4	0.0	284.4794189929962	
60	264.7381570339203	pulse	1	t		58.0	2.5	/experiments/Knapen_AOT/AOT_stimuli/rescaled_final/0885_fw.mp4	0.0	286.0801639556885	
60	264.8563573360443	fix_post	2		12	58.0	2.5	/experiments/Knapen_AOT/AOT_stimuli/rescaled_final/0885_fw.mp4	0.0	286.1983642578125	0.10002708435058594
61	264.9563844203949	fix_pre	0		120	59.0	2.5	/experiments/Knapen_AOT/AOT_stimuli/rescaled_final/1421_rv.mp4	0.0	286.2983913421631	1.00846529006958
61	265.9648497104645	movie	1		274	59.0	2.5	/experiments/Knapen_AOT/AOT_stimuli/rescaled_final/1421_rv.mp4	0.0	287.30685663223267	2.4920458793640137
61	266.33837127685547	pulse	1	t		59.0	2.5	/experiments/Knapen_AOT/AOT_stimuli/rescaled_final/1421_rv.mp4	0.0	287.68037819862366	
61	267.93879652023315	pulse	1	t		59.0	2.5	/experiments/Knapen_AOT/AOT_stimuli/rescaled_final/1421_rv.mp4	0.0	289.28080344200134	
61	268.4568955898285	fix_post	2		12	59.0	2.5	/experiments/Knapen_AOT/AOT_stimuli/rescaled_final/1421_rv.mp4	0.0	289.7989025115967	0.10004591941833496
62	268.5569415092468	fix_pre	0		119	60.0	2.5	/experiments/Knapen_AOT/AOT_stimuli/rescaled_final/0713_rv.mp4	0.0	289.898948431015	1.000171184539795
62	269.54071259498596	pulse	0	t		60.0	2.5	/experiments/Knapen_AOT/AOT_stimuli/rescaled_final/0713_rv.mp4	0.0	290.88271951675415	
62	269.5571126937866	movie	1		285	60.0	2.5	/experiments/Knapen_AOT/AOT_stimuli/rescaled_final/0713_rv.mp4	0.0	290.8991196155548	2.5003273487091064
62	271.13954162597656	pulse	1	t		60.0	2.5	/experiments/Knapen_AOT/AOT_stimuli/rescaled_final/0713_rv.mp4	0.0	292.48154854774475	
62	272.0574400424957	fix_post	2		12	60.0	2.5	/experiments/Knapen_AOT/AOT_stimuli/rescaled_final/0713_rv.mp4	0.0	293.3994469642639	0.10002779960632324
63	272.15746784210205	fix_pre	0		120	61.0	2.5	/experiments/Knapen_AOT/AOT_stimuli/rescaled_final/1554_rv.mp4	0.0	293.49947476387024	1.008472204208374
63	272.74107336997986	pulse	0	t		61.0	2.5	/experiments/Knapen_AOT/AOT_stimuli/rescaled_final/1554_rv.mp4	0.0	294.08308029174805	
63	273.1659400463104	movie	1		272	61.0	2.5	/experiments/Knapen_AOT/AOT_stimuli/rescaled_final/1554_rv.mp4	0.0	294.5079469680786	2.4920434951782227
63	274.3394525051117	pulse	1	t		61.0	2.5	/experiments/Knapen_AOT/AOT_stimuli/rescaled_final/1554_rv.mp4	0.0	295.6814594268799	
63	275.65798354148865	fix_post	2		12	61.0	2.5	/experiments/Knapen_AOT/AOT_stimuli/rescaled_final/1554_rv.mp4	0.0	296.99999046325684	0.10000824928283691
64	275.7579917907715	fix_pre	0		120	62.0	2.5	blank	1.0	297.0999987125397	1.0001542568206787
64	275.9415740966797	pulse	0	t		62.0	2.5	blank	1.0	297.2835810184479	
64	276.75814604759216	movie	1		300	62.0	2.5	blank	1.0	298.10015296936035	2.5004327297210693
64	277.54192423820496	pulse	1	t		62.0	2.5	blank	1.0	298.88393115997314	
64	279.1421284675598	pulse	1	t		62.0	2.5	blank	1.0	300.484135389328	
64	279.25857877731323	fix_post	2		12	62.0	2.5	blank	1.0	300.6005856990814	0.10002446174621582
65	279.35860323905945	fix_pre	0		120	63.0	2.5	/experiments/Knapen_AOT/AOT_stimuli/rescaled_final/0151_rv.mp4	0.0	300.70061016082764	1.0084292888641357
65	280.3670325279236	movie	1		280	63.0	2.5	/experiments/Knapen_AOT/AOT_stimuli/rescaled_final/0151_rv.mp4	0.0	301.7090394496918	2.4920389652252197
65	280.74113154411316	pulse	1	t		63.0	2.5	/experiments/Knapen_AOT/AOT_stimuli/rescaled_final/0151_rv.mp4	0.0	302.08313846588135	
65	282.3426024913788	pulse	1	t		63.0	2.5	/experiments/Knapen_AOT/AOT_stimuli/rescaled_final/0151_rv.mp4	0.0	303.684609413147	
65	282.8590714931488	fix_post	2		12	63.0	2.5	/experiments/Knapen_AOT/AOT_stimuli/rescaled_final/0151_rv.mp4	0.0	304.201078414917	0.10001492500305176
66	282.95908641815186	fix_pre	0		119	64.0	2.5	/experiments/Knapen_AOT/AOT_stimuli/rescaled_final/2071_fw.mp4	0.0	304.30109333992004	1.0001695156097412
66	283.94282937049866	pulse	0	t		64.0	2.5	/experiments/Knapen_AOT/AOT_stimuli/rescaled_final/2071_fw.mp4	0.0	305.28483629226685	
66	283.9592559337616	movie	1		284	64.0	2.5	/experiments/Knapen_AOT/AOT_stimuli/rescaled_final/2071_fw.mp4	0.0	305.3012628555298	2.50034761428833
66	285.5416247844696	pulse	1	t		64.0	2.5	/experiments/Knapen_AOT/AOT_stimuli/rescaled_final/2071_fw.mp4	0.0	306.8836317062378	
66	286.4596035480499	fix_post	2		12	64.0	2.5	/experiments/Knapen_AOT/AOT_stimuli/rescaled_final/2071_fw.mp4	0.0	307.8016104698181	0.10003662109375
67	286.5596401691437	fix_pre	0		120	65.0	2.5	/experiments/Knapen_AOT/AOT_stimuli/rescaled_final/1346_fw.mp4	0.0	307.90164709091187	1.0084750652313232
67	287.14332485198975	pulse	0	t		65.0	2.5	/experiments/Knapen_AOT/AOT_stimuli/rescaled_final/1346_fw.mp4	0.0	308.48533177375793	
67	287.568115234375	movie	1		278	65.0	2.5	/experiments/Knapen_AOT/AOT_stimuli/rescaled_final/1346_fw.mp4	0.0	308.9101221561432	2.4920942783355713
67	288.7416763305664	pulse	1	t		65.0	2.5	/experiments/Knapen_AOT/AOT_stimuli/rescaled_final/1346_fw.mp4	0.0	310.0836832523346	
67	290.06020951271057	fix_post	2		12	65.0	2.5	/experiments/Knapen_AOT/AOT_stimuli/rescaled_final/1346_fw.mp4	0.0	311.40221643447876	0.09996438026428223
68	290.16017389297485	fix_pre	0		120	66.0	2.5	/experiments/Knapen_AOT/AOT_stimuli/rescaled_final/2093_fw.mp4	0.0	311.50218081474304	1.0085101127624512
68	290.344064950943	pulse	0	t		66.0	2.5	/experiments/Knapen_AOT/AOT_stimuli/rescaled_final/2093_fw.mp4	0.0	311.6860718727112	
68	291.1686840057373	movie	1		282	66.0	2.5	/experiments/Knapen_AOT/AOT_stimuli/rescaled_final/2093_fw.mp4	0.0	312.5106909275055	2.4919896125793457
68	291.9432599544525	pulse	1	t		66.0	2.5	/experiments/Knapen_AOT/AOT_stimuli/rescaled_final/2093_fw.mp4	0.0	313.2852668762207	
68	293.5426695346832	pulse	1	t		66.0	2.5	/experiments/Knapen_AOT/AOT_stimuli/rescaled_final/2093_fw.mp4	0.0	314.8846764564514	
68	293.66067361831665	fix_post	2		12	66.0	2.5	/experiments/Knapen_AOT/AOT_stimuli/rescaled_final/2093_fw.mp4	0.0	315.00268054008484	0.10002422332763672
69	293.7606978416443	fix_pre	0		120	67.0	2.5	/experiments/Knapen_AOT/AOT_stimuli/rescaled_final/2148_rv.mp4	0.0	315.1027047634125	1.008528470993042
69	294.76922631263733	movie	1		275	67.0	2.5	/experiments/Knapen_AOT/AOT_stimuli/rescaled_final/2148_rv.mp4	0.0	316.1112332344055	2.4919979572296143
69	295.14289474487305	pulse	1	t		67.0	2.5	/experiments/Knapen_AOT/AOT_stimuli/rescaled_final/2148_rv.mp4	0.0	316.48490166664124	
69	296.74297976493835	pulse	1	t		67.0	2.5	/experiments/Knapen_AOT/AOT_stimuli/rescaled_final/2148_rv.mp4	0.0	318.08498668670654	
69	297.26122426986694	fix_post	2		12	67.0	2.5	/experiments/Knapen_AOT/AOT_stimuli/rescaled_final/2148_rv.mp4	0.0	318.60323119163513	0.10007619857788086
70	297.3613004684448	fix_pre	0		119	68.0	2.5	blank	1.0	318.703307390213	0.9917364120483398
70	298.3374900817871	pulse	0	t		68.0	2.5	blank	1.0	319.6794970035553	
70	298.35303688049316	movie	1		301	68.0	2.5	blank	1.0	319.69504380226135	2.508723497390747
70	299.93733406066895	pulse	1	t		68.0	2.5	blank	1.0	321.27934098243713	
70	300.8617603778839	fix_post	2		12	68.0	2.5	blank	1.0	322.2037672996521	0.10002422332763672
71	300.96178460121155	fix_pre	0		120	69.0	2.5	/experiments/Knapen_AOT/AOT_stimuli/rescaled_final/0111_fw.mp4	0.0	322.30379152297974	1.0085513591766357
71	301.5371654033661	pulse	0	t		69.0	2.5	/experiments/Knapen_AOT/AOT_stimuli/rescaled_final/0111_fw.mp4	0.0	322.8791723251343	
71	301.9703359603882	movie	1		280	69.0	2.5	/experiments/Knapen_AOT/AOT_stimuli/rescaled_final/0111_fw.mp4	0.0	323.3123428821564	2.492027759552002
71	303.14575004577637	pulse	1	t		69.0	2.5	/experiments/Knapen_AOT/AOT_stimuli/rescaled_final/0111_fw.mp4	0.0	324.48775696754456	
71	304.4623637199402	fix_post	2		12	69.0	2.5	/experiments/Knapen_AOT/AOT_stimuli/rescaled_final/0111_fw.mp4	0.0	325.8043706417084	0.09997844696044922
72	304.56234216690063	fix_pre	0		120	70.0	2.5	/experiments/Knapen_AOT/AOT_stimuli/rescaled_final/1740_fw.mp4	0.0	325.9043490886688	1.0085012912750244
72	304.73758578300476	pulse	0	t		70.0	2.5	/experiments/Knapen_AOT/AOT_stimuli/rescaled_final/1740_fw.mp4	0.0	326.07959270477295	
72	305.57084345817566	movie	1		277	70.0	2.5	/experiments/Knapen_AOT/AOT_stimuli/rescaled_final/1740_fw.mp4	0.0	326.91285037994385	2.4920032024383545
72	306.33780455589294	pulse	1	t		70.0	2.5	/experiments/Knapen_AOT/AOT_stimuli/rescaled_final/1740_fw.mp4	0.0	327.67981147766113	
72	307.938029050827	pulse	1	t		70.0	2.5	/experiments/Knapen_AOT/AOT_stimuli/rescaled_final/1740_fw.mp4	0.0	329.2800359725952	
72	308.062846660614	fix_post	2		12	70.0	2.5	/experiments/Knapen_AOT/AOT_stimuli/rescaled_final/1740_fw.mp4	0.0	329.4048535823822	0.10006070137023926
73	308.16290736198425	fix_pre	0		120	71.0	2.5	/experiments/Knapen_AOT/AOT_stimuli/rescaled_final/1554_fw.mp4	0.0	329.50491428375244	1.0084524154663086
73	309.17135977745056	movie	1		266	71.0	2.5	/experiments/Knapen_AOT/AOT_stimuli/rescaled_final/1554_fw.mp4	0.0	330.51336669921875	2.4920313358306885
73	309.53745198249817	pulse	1	t		71.0	2.5	/experiments/Knapen_AOT/AOT_stimuli/rescaled_final/1554_fw.mp4	0.0	330.87945890426636	
73	311.1381015777588	pulse	1	t		71.0	2.5	/experiments/Knapen_AOT/AOT_stimuli/rescaled_final/1554_fw.mp4	0.0	332.480108499527	
73	311.66339111328125	fix_post	2		12	71.0	2.5	/experiments/Knapen_AOT/AOT_stimuli/rescaled_final/1554_fw.mp4	0.0	333.00539803504944	0.10002660751342773
74	311.7634177207947	fix_pre	0		118	72.0	2.5	/experiments/Knapen_AOT/AOT_stimuli/rescaled_final/0480_fw.mp4	0.0	333.10542464256287	0.9918045997619629
74	312.73909068107605	pulse	0	t		72.0	2.5	/experiments/Knapen_AOT/AOT_stimuli/rescaled_final/0480_fw.mp4	0.0	334.08109760284424	
74	312.75522232055664	movie	1		282	72.0	2.5	/experiments/Knapen_AOT/AOT_stimuli/rescaled_final/0480_fw.mp4	0.0	334.09722924232483	2.5003786087036133
74	314.33746576309204	pulse	1	t		72.0	2.5	/experiments/Knapen_AOT/AOT_stimuli/rescaled_final/0480_fw.mp4	0.0	335.67947268486023	
74	315.25560092926025	fix_post	2		12	72.0	2.5	/experiments/Knapen_AOT/AOT_stimuli/rescaled_final/0480_fw.mp4	0.0	336.59760785102844	0.10005402565002441
75	315.3556549549103	fix_pre	0		120	73.0	2.5	/experiments/Knapen_AOT/AOT_stimuli/rescaled_final/1333_rv.mp4	0.0	336.69766187667847	1.008451223373413
75	315.93930411338806	pulse	0	t		73.0	2.5	/experiments/Knapen_AOT/AOT_stimuli/rescaled_final/1333_rv.mp4	0.0	337.28131103515625	
75	316.3641061782837	movie	1		282	73.0	2.5	/experiments/Knapen_AOT/AOT_stimuli/rescaled_final/1333_rv.mp4	0.0	337.7061131000519	2.4920878410339355
75	317.5383634567261	pulse	1	t		73.0	2.5	/experiments/Knapen_AOT/AOT_stimuli/rescaled_final/1333_rv.mp4	0.0	338.88037037849426	
75	318.8561940193176	fix_post	2		12	73.0	2.5	/experiments/Knapen_AOT/AOT_stimuli/rescaled_final/1333_rv.mp4	0.0	340.1982009410858	0.09997272491455078
76	318.9561667442322	fix_pre	0		120	74.0	2.5	/experiments/Knapen_AOT/AOT_stimuli/rescaled_final/0270_rv.mp4	0.0	340.29817366600037	1.0084967613220215
76	319.13983154296875	pulse	0	t		74.0	2.5	/experiments/Knapen_AOT/AOT_stimuli/rescaled_final/0270_rv.mp4	0.0	340.48183846473694	
76	319.9646635055542	movie	1		280	74.0	2.5	/experiments/Knapen_AOT/AOT_stimuli/rescaled_final/0270_rv.mp4	0.0	341.3066704273224	2.4921462535858154
76	320.7381477355957	pulse	1	t		74.0	2.5	/experiments/Knapen_AOT/AOT_stimuli/rescaled_final/0270_rv.mp4	0.0	342.0801546573639	
76	322.33970856666565	pulse	1	t		74.0	2.5	/experiments/Knapen_AOT/AOT_stimuli/rescaled_final/0270_rv.mp4	0.0	343.68171548843384	
76	322.45680975914	fix_post	2		12	74.0	2.5	/experiments/Knapen_AOT/AOT_stimuli/rescaled_final/0270_rv.mp4	0.0	343.7988166809082	0.0998992919921875
77	322.5567090511322	fix_pre	0		120	75.0	2.5	/experiments/Knapen_AOT/AOT_stimuli/rescaled_final/0010_fw.mp4	0.0	343.8987159729004	1.0084574222564697
77	323.5651664733887	movie	1		272	75.0	2.5	/experiments/Knapen_AOT/AOT_stimuli/rescaled_final/0010_fw.mp4	0.0	344.90717339515686	2.492114305496216
77	323.9390115737915	pulse	1	t		75.0	2.5	/experiments/Knapen_AOT/AOT_stimuli/rescaled_final/0010_fw.mp4	0.0	345.2810184955597	
77	325.53883814811707	pulse	1	t		75.0	2.5	/experiments/Knapen_AOT/AOT_stimuli/rescaled_final/0010_fw.mp4	0.0	346.88084506988525	
77	326.0572807788849	fix_post	2		12	75.0	2.5	/experiments/Knapen_AOT/AOT_stimuli/rescaled_final/0010_fw.mp4	0.0	347.3992877006531	0.09997916221618652
78	326.1572599411011	fix_pre	0		119	76.0	2.5	blank	1.0	347.49926686286926	0.9917552471160889
78	327.14089703559875	pulse	0	t		76.0	2.5	blank	1.0	348.48290395736694	
78	327.14901518821716	movie	1		301	76.0	2.5	blank	1.0	348.49102210998535	2.508763313293457
78	328.74118733406067	pulse	1	t		76.0	2.5	blank	1.0	350.08319425582886	
78	329.6577785015106	fix_post	2		12	76.0	2.5	blank	1.0	350.9997854232788	0.1000065803527832
79	329.7577850818634	fix_pre	0		120	77.0	2.5	/experiments/Knapen_AOT/AOT_stimuli/rescaled_final/0258_rv.mp4	0.0	351.0997920036316	1.0085406303405762
79	330.34145164489746	pulse	0	t		77.0	2.5	/experiments/Knapen_AOT/AOT_stimuli/rescaled_final/0258_rv.mp4	0.0	351.68345856666565	
79	330.766325712204	movie	1		281	77.0	2.5	/experiments/Knapen_AOT/AOT_stimuli/rescaled_final/0258_rv.mp4	0.0	352.10833263397217	2.491995334625244
79	331.94028401374817	pulse	1	t		77.0	2.5	/experiments/Knapen_AOT/AOT_stimuli/rescaled_final/0258_rv.mp4	0.0	353.28229093551636	
79	333.2583210468292	fix_post	2		12	77.0	2.5	/experiments/Knapen_AOT/AOT_stimuli/rescaled_final/0258_rv.mp4	0.0	354.6003279685974	0.10008478164672852
80	333.35840582847595	fix_pre	0		120	78.0	2.5	/experiments/Knapen_AOT/AOT_stimuli/rescaled_final/0942_rv.mp4	0.0	354.70041275024414	1.0084402561187744
80	333.5418450832367	pulse	0	t		78.0	2.5	/experiments/Knapen_AOT/AOT_stimuli/rescaled_final/0942_rv.mp4	0.0	354.8838520050049	
80	334.3668460845947	movie	1		282	78.0	2.5	/experiments/Knapen_AOT/AOT_stimuli/rescaled_final/0942_rv.mp4	0.0	355.7088530063629	2.492011547088623
80	335.1401016712189	pulse	1	t		78.0	2.5	/experiments/Knapen_AOT/AOT_stimuli/rescaled_final/0942_rv.mp4	0.0	356.48210859298706	
80	336.74072766304016	pulse	1	t		78.0	2.5	/experiments/Knapen_AOT/AOT_stimuli/rescaled_final/0942_rv.mp4	0.0	358.08273458480835	
80	336.85885763168335	fix_post	2		12	78.0	2.5	/experiments/Knapen_AOT/AOT_stimuli/rescaled_final/0942_rv.mp4	0.0	358.20086455345154	0.09998369216918945
81	336.95884132385254	fix_pre	0		120	79.0	2.5	/experiments/Knapen_AOT/AOT_stimuli/rescaled_final/2004_fw.mp4	0.0	358.3008482456207	1.0085456371307373
81	337.9673869609833	movie	1		276	79.0	2.5	/experiments/Knapen_AOT/AOT_stimuli/rescaled_final/2004_fw.mp4	0.0	359.30939388275146	2.492027521133423
81	338.342716217041	pulse	1	t		79.0	2.5	/experiments/Knapen_AOT/AOT_stimuli/rescaled_final/2004_fw.mp4	0.0	359.6847231388092	
81	339.94136929512024	pulse	1	t		79.0	2.5	/experiments/Knapen_AOT/AOT_stimuli/rescaled_final/2004_fw.mp4	0.0	361.2833762168884	
81	340.4594144821167	fix_post	2		12	79.0	2.5	/experiments/Knapen_AOT/AOT_stimuli/rescaled_final/2004_fw.mp4	0.0	361.8014214038849	0.10001134872436523
82	340.55942583084106	fix_pre	0		119	80.0	2.5	/experiments/Knapen_AOT/AOT_stimuli/rescaled_final/0020_rv.mp4	0.0	361.90143275260925	1.0086004734039307
82	341.54326939582825	pulse	0	t		80.0	2.5	/experiments/Knapen_AOT/AOT_stimuli/rescaled_final/0020_rv.mp4	0.0	362.88527631759644	
82	341.568026304245	movie	1		269	80.0	2.5	/experiments/Knapen_AOT/AOT_stimuli/rescaled_final/0020_rv.mp4	0.0	362.9100332260132	2.4919509887695312
82	343.1425037384033	pulse	1	t		80.0	2.5	/experiments/Knapen_AOT/AOT_stimuli/rescaled_final/0020_rv.mp4	0.0	364.4845106601715	
82	344.0599772930145	fix_post	2		12	80.0	2.5	/experiments/Knapen_AOT/AOT_stimuli/rescaled_final/0020_rv.mp4	0.0	365.4019842147827	0.09997105598449707
83	344.159948348999	fix_pre	0		120	81.0	2.5	/experiments/Knapen_AOT/AOT_stimuli/rescaled_final/2149_fw.mp4	0.0	365.5019552707672	1.0084950923919678
83	344.74363255500793	pulse	0	t		81.0	2.5	/experiments/Knapen_AOT/AOT_stimuli/rescaled_final/2149_fw.mp4	0.0	366.0856394767761	
83	345.168443441391	movie	1		274	81.0	2.5	/experiments/Knapen_AOT/AOT_stimuli/rescaled_final/2149_fw.mp4	0.0	366.5104503631592	2.492032289505005
83	346.34229016304016	pulse	1	t		81.0	2.5	/experiments/Knapen_AOT/AOT_stimuli/rescaled_final/2149_fw.mp4	0.0	367.68429708480835	
83	347.660475730896	fix_post	2		12	81.0	2.5	/experiments/Knapen_AOT/AOT_stimuli/rescaled_final/2149_fw.mp4	0.0	369.0024826526642	0.10002613067626953
84	347.76050186157227	fix_pre	0		120	82.0	2.5	/experiments/Knapen_AOT/AOT_stimuli/rescaled_final/0243_rv.mp4	0.0	369.10250878334045	1.0085043907165527
84	347.9440429210663	pulse	0	t		82.0	2.5	/experiments/Knapen_AOT/AOT_stimuli/rescaled_final/0243_rv.mp4	0.0	369.2860498428345	
84	348.7690062522888	movie	1		253	82.0	2.5	/experiments/Knapen_AOT/AOT_stimuli/rescaled_final/0243_rv.mp4	0.0	370.111013174057	2.4920127391815186
84	349.5432119369507	pulse	1	t		82.0	2.5	/experiments/Knapen_AOT/AOT_stimuli/rescaled_final/0243_rv.mp4	0.0	370.8852188587189	
84	351.1434004306793	pulse	1	t		82.0	2.5	/experiments/Knapen_AOT/AOT_stimuli/rescaled_final/0243_rv.mp4	0.0	372.4854073524475	
84	351.26101899147034	fix_post	2		12	82.0	2.5	/experiments/Knapen_AOT/AOT_stimuli/rescaled_final/0243_rv.mp4	0.0	372.6030259132385	0.10000896453857422
85	351.3610279560089	fix_pre	0		120	83.0	2.5	blank	1.0	372.7030348777771	1.0001747608184814
85	352.3612027168274	movie	1		300	83.0	2.5	blank	1.0	373.7032096385956	2.5003600120544434
85	352.7368018627167	pulse	1	t		83.0	2.5	blank	1.0	374.07880878448486	
85	354.33691120147705	pulse	1	t		83.0	2.5	blank	1.0	375.67891812324524	
85	354.86156272888184	fix_post	2		12	83.0	2.5	blank	1.0	376.20356965065	0.12506890296936035
87	354.9866316318512	stim	0		1712					376.3286385536194	14.268808603286743
87	355.93753838539124	pulse	0	t						377.2795453071594	
87	357.53750705718994	pulse	0	t						378.87951397895813	
87	359.13781785964966	pulse	0	t						380.47982478141785	
87	360.7381682395935	pulse	0	t						382.0801751613617	
87	362.3383255004883	pulse	0	t						383.68033242225647	
87	363.9384214878082	pulse	0	t						385.2804284095764	
87	365.53886556625366	pulse	0	t						386.88087248802185	
87	367.13895750045776	pulse	0	t						388.48096442222595	
87	368.73917627334595	pulse	0	t						390.08118319511414	
