trial_nr	onset	event_type	phase	response	nr_frames	movie_index	movie_duration	movie_file	blank	onset_abs	duration
0	0.1664578914642334	stim	0		19					32.357203245162964	0.1581275463104248
0	0.316662073135376	response	0	space						32.507407426834106	
1	0.3245854377746582	stim	0		6074					32.51533079147339	50.63624358177185
1	50.94650459289551	pulse	0	t						83.13724994659424	
1	50.96082901954651	stim	1		1714					83.15157437324524	14.298524618148804
1	52.5412118434906	pulse	1	t						84.73195719718933	
1	54.13396072387695	pulse	1	t						86.32470607757568	
1	55.73377442359924	pulse	1	t						87.92451977729797	
1	57.33396315574646	pulse	1	t						89.52470850944519	
1	58.93395709991455	pulse	1	t						91.12470245361328	
1	60.53389644622803	pulse	1	t						92.72464179992676	
1	62.134192943573	pulse	1	t						94.32493829727173	
1	63.734397649765015	pulse	1	t						95.92514300346375	
2	65.25935363769531	fix_pre	0		10	0.0	2.5	/experiments/Knapen_AOT/AOT_stimuli/rescaled_final/1378_rv.mp4	0.0	97.45009899139404	0.10847115516662598
2	65.33465957641602	pulse	0	t		0.0	2.5	/experiments/Knapen_AOT/AOT_stimuli/rescaled_final/1378_rv.mp4	0.0	97.52540493011475	
2	65.36782479286194	movie	1		281	0.0	2.5	/experiments/Knapen_AOT/AOT_stimuli/rescaled_final/1378_rv.mp4	0.0	97.55857014656067	2.4836413860321045
2	66.93492579460144	pulse	1	t		0.0	2.5	/experiments/Knapen_AOT/AOT_stimuli/rescaled_final/1378_rv.mp4	0.0	99.12567114830017	
2	67.85146617889404	fix_post	2		12	0.0	2.5	/experiments/Knapen_AOT/AOT_stimuli/rescaled_final/1378_rv.mp4	0.0	100.04221153259277	0.0999603271484375
3	67.95142650604248	fix_pre	0		120	1.0	2.5	/experiments/Knapen_AOT/AOT_stimuli/rescaled_final/2122_fw.mp4	0.0	100.14217185974121	1.0084826946258545
3	68.53509950637817	pulse	0	t		1.0	2.5	/experiments/Knapen_AOT/AOT_stimuli/rescaled_final/2122_fw.mp4	0.0	100.7258448600769	
3	68.95990920066833	movie	1		289	1.0	2.5	/experiments/Knapen_AOT/AOT_stimuli/rescaled_final/2122_fw.mp4	0.0	101.15065455436707	2.4920547008514404
3	70.13527178764343	pulse	1	t		1.0	2.5	/experiments/Knapen_AOT/AOT_stimuli/rescaled_final/2122_fw.mp4	0.0	102.32601714134216	
3	71.45196390151978	fix_post	2		12	1.0	2.5	/experiments/Knapen_AOT/AOT_stimuli/rescaled_final/2122_fw.mp4	0.0	103.6427092552185	0.10010695457458496
4	71.55207085609436	fix_pre	0		120	2.0	2.5	/experiments/Knapen_AOT/AOT_stimuli/rescaled_final/1120_rv.mp4	0.0	103.74281620979309	1.0083720684051514
4	71.73587226867676	pulse	0	t		2.0	2.5	/experiments/Knapen_AOT/AOT_stimuli/rescaled_final/1120_rv.mp4	0.0	103.92661762237549	
4	72.56044292449951	movie	1		283	2.0	2.5	/experiments/Knapen_AOT/AOT_stimuli/rescaled_final/1120_rv.mp4	0.0	104.75118827819824	2.492103099822998
4	73.33595752716064	pulse	1	t		2.0	2.5	/experiments/Knapen_AOT/AOT_stimuli/rescaled_final/1120_rv.mp4	0.0	105.52670288085938	
4	74.93414807319641	pulse	1	t		2.0	2.5	/experiments/Knapen_AOT/AOT_stimuli/rescaled_final/1120_rv.mp4	0.0	107.12489342689514	
4	75.05254602432251	fix_post	2		12	2.0	2.5	/experiments/Knapen_AOT/AOT_stimuli/rescaled_final/1120_rv.mp4	0.0	107.24329137802124	0.09995913505554199
5	75.15250515937805	fix_pre	0		120	3.0	2.5	/experiments/Knapen_AOT/AOT_stimuli/rescaled_final/1977_rv.mp4	0.0	107.34325051307678	1.0085136890411377
5	76.16101884841919	movie	1		279	3.0	2.5	/experiments/Knapen_AOT/AOT_stimuli/rescaled_final/1977_rv.mp4	0.0	108.35176420211792	2.492004871368408
5	76.53485822677612	pulse	1	t		3.0	2.5	/experiments/Knapen_AOT/AOT_stimuli/rescaled_final/1977_rv.mp4	0.0	108.72560358047485	
5	78.13435101509094	pulse	1	t		3.0	2.5	/experiments/Knapen_AOT/AOT_stimuli/rescaled_final/1977_rv.mp4	0.0	110.32509636878967	
5	78.6530237197876	fix_post	2		12	3.0	2.5	/experiments/Knapen_AOT/AOT_stimuli/rescaled_final/1977_rv.mp4	0.0	110.84376907348633	0.10006403923034668
6	78.75308775901794	fix_pre	0		119	4.0	2.5	/experiments/Knapen_AOT/AOT_stimuli/rescaled_final/1499_fw.mp4	0.0	110.94383311271667	1.000101089477539
6	79.73674821853638	pulse	0	t		4.0	2.5	/experiments/Knapen_AOT/AOT_stimuli/rescaled_final/1499_fw.mp4	0.0	111.92749357223511	
6	79.75318884849548	movie	1		280	4.0	2.5	/experiments/Knapen_AOT/AOT_stimuli/rescaled_final/1499_fw.mp4	0.0	111.94393420219421	2.5003879070281982
6	81.33538818359375	pulse	1	t		4.0	2.5	/experiments/Knapen_AOT/AOT_stimuli/rescaled_final/1499_fw.mp4	0.0	113.52613353729248	
6	82.25357675552368	fix_post	2		12	4.0	2.5	/experiments/Knapen_AOT/AOT_stimuli/rescaled_final/1499_fw.mp4	0.0	114.44432210922241	0.10006856918334961
7	82.35364532470703	fix_pre	0		120	5.0	2.5	/experiments/Knapen_AOT/AOT_stimuli/rescaled_final/0412_rv.mp4	0.0	114.54439067840576	1.0084540843963623
7	82.93726134300232	pulse	0	t		5.0	2.5	/experiments/Knapen_AOT/AOT_stimuli/rescaled_final/0412_rv.mp4	0.0	115.12800669670105	
7	83.3620994091034	movie	1		291	5.0	2.5	/experiments/Knapen_AOT/AOT_stimuli/rescaled_final/0412_rv.mp4	0.0	115.55284476280212	2.4920434951782227
7	84.53553199768066	pulse	1	t		5.0	2.5	/experiments/Knapen_AOT/AOT_stimuli/rescaled_final/0412_rv.mp4	0.0	116.7262773513794	
7	85.85414290428162	fix_post	2		12	5.0	2.5	/experiments/Knapen_AOT/AOT_stimuli/rescaled_final/0412_rv.mp4	0.0	118.04488825798035	0.0999765396118164
8	85.95411944389343	fix_pre	0		120	6.0	2.5	/experiments/Knapen_AOT/AOT_stimuli/rescaled_final/1036_rv.mp4	0.0	118.14486479759216	1.0085177421569824
8	86.13780808448792	pulse	0	t		6.0	2.5	/experiments/Knapen_AOT/AOT_stimuli/rescaled_final/1036_rv.mp4	0.0	118.32855343818665	
8	86.96263718605042	movie	1		277	6.0	2.5	/experiments/Knapen_AOT/AOT_stimuli/rescaled_final/1036_rv.mp4	0.0	119.15338253974915	2.492048740386963
8	87.73579216003418	pulse	1	t		6.0	2.5	/experiments/Knapen_AOT/AOT_stimuli/rescaled_final/1036_rv.mp4	0.0	119.92653751373291	
8	89.33620977401733	pulse	1	t		6.0	2.5	/experiments/Knapen_AOT/AOT_stimuli/rescaled_final/1036_rv.mp4	0.0	121.52695512771606	
8	89.45468592643738	fix_post	2		12	6.0	2.5	/experiments/Knapen_AOT/AOT_stimuli/rescaled_final/1036_rv.mp4	0.0	121.64543128013611	0.09999513626098633
9	89.55468106269836	fix_pre	0		120	7.0	2.5	blank	1.0	121.7454264163971	1.000178575515747
9	90.55485963821411	movie	1		300	7.0	2.5	blank	1.0	122.74560499191284	2.5003280639648438
9	90.93844556808472	pulse	1	t		7.0	2.5	blank	1.0	123.12919092178345	
9	92.53871393203735	pulse	1	t		7.0	2.5	blank	1.0	124.72945928573608	
9	93.05518770217896	fix_post	2		12	7.0	2.5	blank	1.0	125.24593305587769	0.1000211238861084
10	93.15520882606506	fix_pre	0		119	8.0	2.5	/experiments/Knapen_AOT/AOT_stimuli/rescaled_final/0122_rv.mp4	0.0	125.3459541797638	1.0001487731933594
10	94.13889384269714	pulse	0	t		8.0	2.5	/experiments/Knapen_AOT/AOT_stimuli/rescaled_final/0122_rv.mp4	0.0	126.32963919639587	
10	94.15535759925842	movie	1		290	8.0	2.5	/experiments/Knapen_AOT/AOT_stimuli/rescaled_final/0122_rv.mp4	0.0	126.34610295295715	2.5003979206085205
10	95.73766613006592	pulse	1	t		8.0	2.5	/experiments/Knapen_AOT/AOT_stimuli/rescaled_final/0122_rv.mp4	0.0	127.92841148376465	
10	96.65575551986694	fix_post	2		12	8.0	2.5	/experiments/Knapen_AOT/AOT_stimuli/rescaled_final/0122_rv.mp4	0.0	128.84650087356567	0.10000729560852051
11	96.75576281547546	fix_pre	0		120	9.0	2.5	/experiments/Knapen_AOT/AOT_stimuli/rescaled_final/1971_fw.mp4	0.0	128.9465081691742	1.008479118347168
11	97.33938384056091	pulse	0	t		9.0	2.5	/experiments/Knapen_AOT/AOT_stimuli/rescaled_final/1971_fw.mp4	0.0	129.53012919425964	
11	97.76424193382263	movie	1		285	9.0	2.5	/experiments/Knapen_AOT/AOT_stimuli/rescaled_final/1971_fw.mp4	0.0	129.95498728752136	2.4920244216918945
11	98.93804979324341	pulse	1	t		9.0	2.5	/experiments/Knapen_AOT/AOT_stimuli/rescaled_final/1971_fw.mp4	0.0	131.12879514694214	
11	100.25626635551453	fix_post	2		12	9.0	2.5	/experiments/Knapen_AOT/AOT_stimuli/rescaled_final/1971_fw.mp4	0.0	132.44701170921326	0.10004210472106934
12	100.3563084602356	fix_pre	0		120	10.0	2.5	/experiments/Knapen_AOT/AOT_stimuli/rescaled_final/0407_rv.mp4	0.0	132.54705381393433	1.0084917545318604
12	100.54015731811523	pulse	0	t		10.0	2.5	/experiments/Knapen_AOT/AOT_stimuli/rescaled_final/0407_rv.mp4	0.0	132.73090267181396	
12	101.36480021476746	movie	1		280	10.0	2.5	/experiments/Knapen_AOT/AOT_stimuli/rescaled_final/0407_rv.mp4	0.0	133.5555455684662	2.49204683303833
12	102.13857412338257	pulse	1	t		10.0	2.5	/experiments/Knapen_AOT/AOT_stimuli/rescaled_final/0407_rv.mp4	0.0	134.3293194770813	
12	103.73837280273438	pulse	1	t		10.0	2.5	/experiments/Knapen_AOT/AOT_stimuli/rescaled_final/0407_rv.mp4	0.0	135.9291181564331	
12	103.85684704780579	fix_post	2		12	10.0	2.5	/experiments/Knapen_AOT/AOT_stimuli/rescaled_final/0407_rv.mp4	0.0	136.04759240150452	0.10001516342163086
13	103.95686221122742	fix_pre	0		120	11.0	2.5	/experiments/Knapen_AOT/AOT_stimuli/rescaled_final/0639_fw.mp4	0.0	136.14760756492615	1.008467435836792
13	104.96532964706421	movie	1		282	11.0	2.5	/experiments/Knapen_AOT/AOT_stimuli/rescaled_final/0639_fw.mp4	0.0	137.15607500076294	2.4920287132263184
13	105.33969759941101	pulse	1	t		11.0	2.5	/experiments/Knapen_AOT/AOT_stimuli/rescaled_final/0639_fw.mp4	0.0	137.53044295310974	
13	106.93874382972717	pulse	1	t		11.0	2.5	/experiments/Knapen_AOT/AOT_stimuli/rescaled_final/0639_fw.mp4	0.0	139.1294891834259	
13	107.45735836029053	fix_post	2		12	11.0	2.5	/experiments/Knapen_AOT/AOT_stimuli/rescaled_final/0639_fw.mp4	0.0	139.64810371398926	0.10002756118774414
14	107.55738592147827	fix_pre	0		119	12.0	2.5	/experiments/Knapen_AOT/AOT_stimuli/rescaled_final/0721_fw.mp4	0.0	139.748131275177	1.0001192092895508
14	108.53326630592346	pulse	0	t		12.0	2.5	/experiments/Knapen_AOT/AOT_stimuli/rescaled_final/0721_fw.mp4	0.0	140.7240116596222	
14	108.55750513076782	movie	1		284	12.0	2.5	/experiments/Knapen_AOT/AOT_stimuli/rescaled_final/0721_fw.mp4	0.0	140.74825048446655	2.5004093647003174
14	110.13329219818115	pulse	1	t		12.0	2.5	/experiments/Knapen_AOT/AOT_stimuli/rescaled_final/0721_fw.mp4	0.0	142.32403755187988	
14	111.05791449546814	fix_post	2		12	12.0	2.5	/experiments/Knapen_AOT/AOT_stimuli/rescaled_final/0721_fw.mp4	0.0	143.24865984916687	0.10001468658447266
15	111.15792918205261	fix_pre	0		120	13.0	2.5	/experiments/Knapen_AOT/AOT_stimuli/rescaled_final/1445_rv.mp4	0.0	143.34867453575134	1.0085172653198242
15	111.73322820663452	pulse	0	t		13.0	2.5	/experiments/Knapen_AOT/AOT_stimuli/rescaled_final/1445_rv.mp4	0.0	143.92397356033325	
15	112.16644644737244	movie	1		280	13.0	2.5	/experiments/Knapen_AOT/AOT_stimuli/rescaled_final/1445_rv.mp4	0.0	144.35719180107117	2.491989850997925
15	113.33353924751282	pulse	1	t		13.0	2.5	/experiments/Knapen_AOT/AOT_stimuli/rescaled_final/1445_rv.mp4	0.0	145.52428460121155	
15	114.65843629837036	fix_post	2		12	13.0	2.5	/experiments/Knapen_AOT/AOT_stimuli/rescaled_final/1445_rv.mp4	0.0	146.8491816520691	0.10003447532653809
16	114.7584707736969	fix_pre	0		120	14.0	2.5	blank	1.0	146.94921612739563	1.0001256465911865
16	114.93379426002502	pulse	0	t		14.0	2.5	blank	1.0	147.12453961372375	
16	115.75859642028809	movie	1		300	14.0	2.5	blank	1.0	147.94934177398682	2.5004281997680664
16	116.53403449058533	pulse	1	t		14.0	2.5	blank	1.0	148.72477984428406	
16	118.13426923751831	pulse	1	t		14.0	2.5	blank	1.0	150.32501459121704	
16	118.25902462005615	fix_post	2		12	14.0	2.5	blank	1.0	150.44976997375488	0.0999910831451416
17	118.3590157032013	fix_pre	0		120	15.0	2.5	/experiments/Knapen_AOT/AOT_stimuli/rescaled_final/1045_rv.mp4	0.0	150.54976105690002	1.0084538459777832
17	119.36746954917908	movie	1		279	15.0	2.5	/experiments/Knapen_AOT/AOT_stimuli/rescaled_final/1045_rv.mp4	0.0	151.5582149028778	2.492058277130127
17	119.73617911338806	pulse	1	t		15.0	2.5	/experiments/Knapen_AOT/AOT_stimuli/rescaled_final/1045_rv.mp4	0.0	151.9269244670868	
17	121.33458590507507	pulse	1	t		15.0	2.5	/experiments/Knapen_AOT/AOT_stimuli/rescaled_final/1045_rv.mp4	0.0	153.5253312587738	
17	121.8595278263092	fix_post	2		12	15.0	2.5	/experiments/Knapen_AOT/AOT_stimuli/rescaled_final/1045_rv.mp4	0.0	154.05027318000793	0.10004401206970215
18	121.9595718383789	fix_pre	0		118	16.0	2.5	/experiments/Knapen_AOT/AOT_stimuli/rescaled_final/0721_rv.mp4	0.0	154.15031719207764	0.991790771484375
18	122.93494033813477	pulse	0	t		16.0	2.5	/experiments/Knapen_AOT/AOT_stimuli/rescaled_final/0721_rv.mp4	0.0	155.1256856918335	
18	122.95136260986328	movie	1		279	16.0	2.5	/experiments/Knapen_AOT/AOT_stimuli/rescaled_final/0721_rv.mp4	0.0	155.142107963562	2.500385284423828
18	124.53464531898499	pulse	1	t		16.0	2.5	/experiments/Knapen_AOT/AOT_stimuli/rescaled_final/0721_rv.mp4	0.0	156.72539067268372	
18	125.45174789428711	fix_post	2		12	16.0	2.5	/experiments/Knapen_AOT/AOT_stimuli/rescaled_final/0721_rv.mp4	0.0	157.64249324798584	0.10005569458007812
19	125.55180358886719	fix_pre	0		120	17.0	2.5	/experiments/Knapen_AOT/AOT_stimuli/rescaled_final/1645_rv.mp4	0.0	157.74254894256592	1.0084543228149414
19	126.13540077209473	pulse	0	t		17.0	2.5	/experiments/Knapen_AOT/AOT_stimuli/rescaled_final/1645_rv.mp4	0.0	158.32614612579346	
19	126.56025791168213	movie	1		282	17.0	2.5	/experiments/Knapen_AOT/AOT_stimuli/rescaled_final/1645_rv.mp4	0.0	158.75100326538086	2.492025136947632
19	127.73540377616882	pulse	1	t		17.0	2.5	/experiments/Knapen_AOT/AOT_stimuli/rescaled_final/1645_rv.mp4	0.0	159.92614912986755	
19	129.05228304862976	fix_post	2		12	17.0	2.5	/experiments/Knapen_AOT/AOT_stimuli/rescaled_final/1645_rv.mp4	0.0	161.2430284023285	0.09998559951782227
20	129.15226864814758	fix_pre	0		120	18.0	2.5	/experiments/Knapen_AOT/AOT_stimuli/rescaled_final/0657_fw.mp4	0.0	161.3430140018463	1.0085561275482178
20	129.33588242530823	pulse	0	t		18.0	2.5	/experiments/Knapen_AOT/AOT_stimuli/rescaled_final/0657_fw.mp4	0.0	161.52662777900696	
20	130.1608247756958	movie	1		284	18.0	2.5	/experiments/Knapen_AOT/AOT_stimuli/rescaled_final/0657_fw.mp4	0.0	162.35157012939453	2.491990804672241
20	130.93414616584778	pulse	1	t		18.0	2.5	/experiments/Knapen_AOT/AOT_stimuli/rescaled_final/0657_fw.mp4	0.0	163.1248915195465	
20	132.5346715450287	pulse	1	t		18.0	2.5	/experiments/Knapen_AOT/AOT_stimuli/rescaled_final/0657_fw.mp4	0.0	164.72541689872742	
20	132.65281558036804	fix_post	2		12	18.0	2.5	/experiments/Knapen_AOT/AOT_stimuli/rescaled_final/0657_fw.mp4	0.0	164.84356093406677	0.10002350807189941
21	132.75283908843994	fix_pre	0		120	19.0	2.5	blank	1.0	164.94358444213867	1.000171184539795
21	133.75301027297974	movie	1		300	19.0	2.5	blank	1.0	165.94375562667847	2.5003750324249268
21	134.13657927513123	pulse	1	t		19.0	2.5	blank	1.0	166.32732462882996	
21	135.73684644699097	pulse	1	t		19.0	2.5	blank	1.0	167.9275918006897	
21	136.25338530540466	fix_post	2		12	19.0	2.5	blank	1.0	168.4441306591034	0.10006403923034668
22	136.353449344635	fix_pre	0		119	20.0	2.5	/experiments/Knapen_AOT/AOT_stimuli/rescaled_final/1473_fw.mp4	0.0	168.54419469833374	1.0000832080841064
22	137.33723735809326	pulse	0	t		20.0	2.5	/experiments/Knapen_AOT/AOT_stimuli/rescaled_final/1473_fw.mp4	0.0	169.527982711792	
22	137.35353255271912	movie	1		286	20.0	2.5	/experiments/Knapen_AOT/AOT_stimuli/rescaled_final/1473_fw.mp4	0.0	169.54427790641785	2.5004067420959473
22	138.93595147132874	pulse	1	t		20.0	2.5	/experiments/Knapen_AOT/AOT_stimuli/rescaled_final/1473_fw.mp4	0.0	171.12669682502747	
22	139.85393929481506	fix_post	2		12	20.0	2.5	/experiments/Knapen_AOT/AOT_stimuli/rescaled_final/1473_fw.mp4	0.0	172.0446846485138	0.10000085830688477
23	139.95394015312195	fix_pre	0		120	21.0	2.5	/experiments/Knapen_AOT/AOT_stimuli/rescaled_final/2170_fw.mp4	0.0	172.14468550682068	1.008476972579956
23	140.537531375885	pulse	0	t		21.0	2.5	/experiments/Knapen_AOT/AOT_stimuli/rescaled_final/2170_fw.mp4	0.0	172.72827672958374	
23	140.9624171257019	movie	1		271	21.0	2.5	/experiments/Knapen_AOT/AOT_stimuli/rescaled_final/2170_fw.mp4	0.0	173.15316247940063	2.492058038711548
23	142.13768887519836	pulse	1	t		21.0	2.5	/experiments/Knapen_AOT/AOT_stimuli/rescaled_final/2170_fw.mp4	0.0	174.3284342288971	
23	143.45447516441345	fix_post	2		12	21.0	2.5	/experiments/Knapen_AOT/AOT_stimuli/rescaled_final/2170_fw.mp4	0.0	175.64522051811218	0.09999990463256836
24	143.55447506904602	fix_pre	0		120	22.0	2.5	/experiments/Knapen_AOT/AOT_stimuli/rescaled_final/1118_rv.mp4	0.0	175.74522042274475	1.0085196495056152
24	143.73803853988647	pulse	0	t		22.0	2.5	/experiments/Knapen_AOT/AOT_stimuli/rescaled_final/1118_rv.mp4	0.0	175.9287838935852	
24	144.56299471855164	movie	1		267	22.0	2.5	/experiments/Knapen_AOT/AOT_stimuli/rescaled_final/1118_rv.mp4	0.0	176.75374007225037	2.491974353790283
24	145.337219953537	pulse	1	t		22.0	2.5	/experiments/Knapen_AOT/AOT_stimuli/rescaled_final/1118_rv.mp4	0.0	177.52796530723572	
24	146.93661522865295	pulse	1	t		22.0	2.5	/experiments/Knapen_AOT/AOT_stimuli/rescaled_final/1118_rv.mp4	0.0	179.12736058235168	
24	147.05496907234192	fix_post	2		12	22.0	2.5	/experiments/Knapen_AOT/AOT_stimuli/rescaled_final/1118_rv.mp4	0.0	179.24571442604065	0.10004305839538574
25	147.1550121307373	fix_pre	0		120	23.0	2.5	/experiments/Knapen_AOT/AOT_stimuli/rescaled_final/0907_rv.mp4	0.0	179.34575748443604	1.008528709411621
25	148.16354084014893	movie	1		277	23.0	2.5	/experiments/Knapen_AOT/AOT_stimuli/rescaled_final/0907_rv.mp4	0.0	180.35428619384766	2.4920153617858887
25	148.53763246536255	pulse	1	t		23.0	2.5	/experiments/Knapen_AOT/AOT_stimuli/rescaled_final/0907_rv.mp4	0.0	180.72837781906128	
25	150.1368911266327	pulse	1	t		23.0	2.5	/experiments/Knapen_AOT/AOT_stimuli/rescaled_final/0907_rv.mp4	0.0	182.32763648033142	
25	150.65555620193481	fix_post	2		12	23.0	2.5	/experiments/Knapen_AOT/AOT_stimuli/rescaled_final/0907_rv.mp4	0.0	182.84630155563354	0.10001730918884277
26	150.75557351112366	fix_pre	0		119	24.0	2.5	/experiments/Knapen_AOT/AOT_stimuli/rescaled_final/1118_fw.mp4	0.0	182.9463188648224	1.0001037120819092
26	151.7392909526825	pulse	0	t		24.0	2.5	/experiments/Knapen_AOT/AOT_stimuli/rescaled_final/1118_fw.mp4	0.0	183.93003630638123	
26	151.75567722320557	movie	1		281	24.0	2.5	/experiments/Knapen_AOT/AOT_stimuli/rescaled_final/1118_fw.mp4	0.0	183.9464225769043	2.5003817081451416
26	153.34032893180847	pulse	1	t		24.0	2.5	/experiments/Knapen_AOT/AOT_stimuli/rescaled_final/1118_fw.mp4	0.0	185.5310742855072	
26	154.2560589313507	fix_post	2		12	24.0	2.5	/experiments/Knapen_AOT/AOT_stimuli/rescaled_final/1118_fw.mp4	0.0	186.44680428504944	0.10001921653747559
27	154.35607814788818	fix_pre	0		120	25.0	2.5	/experiments/Knapen_AOT/AOT_stimuli/rescaled_final/1819_rv.mp4	0.0	186.5468235015869	1.0086016654968262
27	154.93972539901733	pulse	0	t		25.0	2.5	/experiments/Knapen_AOT/AOT_stimuli/rescaled_final/1819_rv.mp4	0.0	187.13047075271606	
27	155.364679813385	movie	1		282	25.0	2.5	/experiments/Knapen_AOT/AOT_stimuli/rescaled_final/1819_rv.mp4	0.0	187.55542516708374	2.4921064376831055
27	156.53813576698303	pulse	1	t		25.0	2.5	/experiments/Knapen_AOT/AOT_stimuli/rescaled_final/1819_rv.mp4	0.0	188.72888112068176	
27	157.85678625106812	fix_post	2		12	25.0	2.5	/experiments/Knapen_AOT/AOT_stimuli/rescaled_final/1819_rv.mp4	0.0	190.04753160476685	0.09990859031677246
28	157.9566948413849	fix_pre	0		120	26.0	2.5	/experiments/Knapen_AOT/AOT_stimuli/rescaled_final/1645_fw.mp4	0.0	190.14744019508362	1.0084664821624756
28	158.14019966125488	pulse	0	t		26.0	2.5	/experiments/Knapen_AOT/AOT_stimuli/rescaled_final/1645_fw.mp4	0.0	190.3309450149536	
28	158.96516132354736	movie	1		275	26.0	2.5	/experiments/Knapen_AOT/AOT_stimuli/rescaled_final/1645_fw.mp4	0.0	191.1559066772461	2.491994857788086
28	159.73867297172546	pulse	1	t		26.0	2.5	/experiments/Knapen_AOT/AOT_stimuli/rescaled_final/1645_fw.mp4	0.0	191.9294183254242	
28	161.338787317276	pulse	1	t		26.0	2.5	/experiments/Knapen_AOT/AOT_stimuli/rescaled_final/1645_fw.mp4	0.0	193.52953267097473	
28	161.45715618133545	fix_post	2		12	26.0	2.5	/experiments/Knapen_AOT/AOT_stimuli/rescaled_final/1645_fw.mp4	0.0	193.64790153503418	0.10001754760742188
29	161.55717372894287	fix_pre	0		120	27.0	2.5	blank	1.0	193.7479190826416	1.000138521194458
29	162.55731225013733	movie	1		300	27.0	2.5	blank	1.0	194.74805760383606	2.5004489421844482
29	162.9409203529358	pulse	1	t		27.0	2.5	blank	1.0	195.13166570663452	
29	164.53348588943481	pulse	1	t		27.0	2.5	blank	1.0	196.72423124313354	
29	165.05776119232178	fix_post	2		12	27.0	2.5	blank	1.0	197.2485065460205	0.0999910831451416
30	165.15775227546692	fix_pre	0		119	28.0	2.5	/experiments/Knapen_AOT/AOT_stimuli/rescaled_final/1645_rv.mp4	0.0	197.34849762916565	1.0001084804534912
30	166.14137506484985	pulse	0	t		28.0	2.5	/experiments/Knapen_AOT/AOT_stimuli/rescaled_final/1645_rv.mp4	0.0	198.33212041854858	
30	166.1578607559204	movie	1		280	28.0	2.5	/experiments/Knapen_AOT/AOT_stimuli/rescaled_final/1645_rv.mp4	0.0	198.34860610961914	2.500377893447876
30	167.733820438385	pulse	1	t		28.0	2.5	/experiments/Knapen_AOT/AOT_stimuli/rescaled_final/1645_rv.mp4	0.0	199.92456579208374	
30	168.6582386493683	fix_post	2		12	28.0	2.5	/experiments/Knapen_AOT/AOT_stimuli/rescaled_final/1645_rv.mp4	0.0	200.84898400306702	0.09999966621398926
31	168.75823831558228	fix_pre	0		120	29.0	2.5	/experiments/Knapen_AOT/AOT_stimuli/rescaled_final/1717_rv.mp4	0.0	200.948983669281	1.008568286895752
31	169.33361959457397	pulse	0	t		29.0	2.5	/experiments/Knapen_AOT/AOT_stimuli/rescaled_final/1717_rv.mp4	0.0	201.5243649482727	
31	169.76680660247803	movie	1		282	29.0	2.5	/experiments/Knapen_AOT/AOT_stimuli/rescaled_final/1717_rv.mp4	0.0	201.95755195617676	2.4920101165771484
31	170.93391370773315	pulse	1	t		29.0	2.5	/experiments/Knapen_AOT/AOT_stimuli/rescaled_final/1717_rv.mp4	0.0	203.12465906143188	
31	172.25881671905518	fix_post	2		12	29.0	2.5	/experiments/Knapen_AOT/AOT_stimuli/rescaled_final/1717_rv.mp4	0.0	204.4495620727539	0.10000205039978027
32	172.35881876945496	fix_pre	0		120	30.0	2.5	/experiments/Knapen_AOT/AOT_stimuli/rescaled_final/0652_rv.mp4	0.0	204.5495641231537	1.0084755420684814
32	172.53403639793396	pulse	0	t		30.0	2.5	/experiments/Knapen_AOT/AOT_stimuli/rescaled_final/0652_rv.mp4	0.0	204.7247817516327	
32	173.36729431152344	movie	1		286	30.0	2.5	/experiments/Knapen_AOT/AOT_stimuli/rescaled_final/0652_rv.mp4	0.0	205.55803966522217	2.492023229598999
32	174.13431191444397	pulse	1	t		30.0	2.5	/experiments/Knapen_AOT/AOT_stimuli/rescaled_final/0652_rv.mp4	0.0	206.3250572681427	
32	175.73453640937805	pulse	1	t		30.0	2.5	/experiments/Knapen_AOT/AOT_stimuli/rescaled_final/0652_rv.mp4	0.0	207.92528176307678	
32	175.85931754112244	fix_post	2		12	30.0	2.5	/experiments/Knapen_AOT/AOT_stimuli/rescaled_final/0652_rv.mp4	0.0	208.05006289482117	0.10018372535705566
33	175.9595012664795	fix_pre	0		120	31.0	2.5	/experiments/Knapen_AOT/AOT_stimuli/rescaled_final/1276_fw.mp4	0.0	208.15024662017822	1.008314609527588
33	176.96781587600708	movie	1		274	31.0	2.5	/experiments/Knapen_AOT/AOT_stimuli/rescaled_final/1276_fw.mp4	0.0	209.1585612297058	2.4921627044677734
33	177.33396244049072	pulse	1	t		31.0	2.5	/experiments/Knapen_AOT/AOT_stimuli/rescaled_final/1276_fw.mp4	0.0	209.52470779418945	
33	178.93525576591492	pulse	1	t		31.0	2.5	/experiments/Knapen_AOT/AOT_stimuli/rescaled_final/1276_fw.mp4	0.0	211.12600111961365	
33	179.45997858047485	fix_post	2		12	31.0	2.5	/experiments/Knapen_AOT/AOT_stimuli/rescaled_final/1276_fw.mp4	0.0	211.65072393417358	0.10001826286315918
34	179.559996843338	fix_pre	0		118	32.0	2.5	/experiments/Knapen_AOT/AOT_stimuli/rescaled_final/0112_rv.mp4	0.0	211.75074219703674	0.9917125701904297
34	180.53522753715515	pulse	0	t		32.0	2.5	/experiments/Knapen_AOT/AOT_stimuli/rescaled_final/0112_rv.mp4	0.0	212.72597289085388	
34	180.55170941352844	movie	1		286	32.0	2.5	/experiments/Knapen_AOT/AOT_stimuli/rescaled_final/0112_rv.mp4	0.0	212.74245476722717	2.500403642654419
34	182.13395428657532	pulse	1	t		32.0	2.5	/experiments/Knapen_AOT/AOT_stimuli/rescaled_final/0112_rv.mp4	0.0	214.32469964027405	
34	183.05211305618286	fix_post	2		12	32.0	2.5	/experiments/Knapen_AOT/AOT_stimuli/rescaled_final/0112_rv.mp4	0.0	215.2428584098816	0.10001277923583984
35	183.1521258354187	fix_pre	0		120	33.0	2.5	blank	1.0	215.34287118911743	1.00010347366333
35	183.73574113845825	pulse	0	t		33.0	2.5	blank	1.0	215.92648649215698	
35	184.15222930908203	movie	1		300	33.0	2.5	blank	1.0	216.34297466278076	2.5003743171691895
35	185.3359808921814	pulse	1	t		33.0	2.5	blank	1.0	217.52672624588013	
35	186.65260362625122	fix_post	2		12	33.0	2.5	blank	1.0	218.84334897994995	0.10001301765441895
36	186.75261664390564	fix_pre	0		120	34.0	2.5	/experiments/Knapen_AOT/AOT_stimuli/rescaled_final/0343_fw.mp4	0.0	218.94336199760437	1.0084896087646484
36	186.93620014190674	pulse	0	t		34.0	2.5	/experiments/Knapen_AOT/AOT_stimuli/rescaled_final/0343_fw.mp4	0.0	219.12694549560547	
36	187.7611062526703	movie	1		289	34.0	2.5	/experiments/Knapen_AOT/AOT_stimuli/rescaled_final/0343_fw.mp4	0.0	219.95185160636902	2.4920458793640137
36	188.53457760810852	pulse	1	t		34.0	2.5	/experiments/Knapen_AOT/AOT_stimuli/rescaled_final/0343_fw.mp4	0.0	220.72532296180725	
36	190.13467502593994	pulse	1	t		34.0	2.5	/experiments/Knapen_AOT/AOT_stimuli/rescaled_final/0343_fw.mp4	0.0	222.32542037963867	
36	190.2531521320343	fix_post	2		12	34.0	2.5	/experiments/Knapen_AOT/AOT_stimuli/rescaled_final/0343_fw.mp4	0.0	222.44389748573303	0.10000729560852051
37	190.35315942764282	fix_pre	0		120	35.0	2.5	/experiments/Knapen_AOT/AOT_stimuli/rescaled_final/1097_fw.mp4	0.0	222.54390478134155	1.0085110664367676
37	191.3616704940796	movie	1		279	35.0	2.5	/experiments/Knapen_AOT/AOT_stimuli/rescaled_final/1097_fw.mp4	0.0	223.55241584777832	2.49202036857605
37	191.7361180782318	pulse	1	t		35.0	2.5	/experiments/Knapen_AOT/AOT_stimuli/rescaled_final/1097_fw.mp4	0.0	223.92686343193054	
37	193.33541631698608	pulse	1	t		35.0	2.5	/experiments/Knapen_AOT/AOT_stimuli/rescaled_final/1097_fw.mp4	0.0	225.52616167068481	
37	193.85369086265564	fix_post	2		12	35.0	2.5	/experiments/Knapen_AOT/AOT_stimuli/rescaled_final/1097_fw.mp4	0.0	226.04443621635437	0.10008740425109863
38	193.95377826690674	fix_pre	0		119	36.0	2.5	/experiments/Knapen_AOT/AOT_stimuli/rescaled_final/0936_rv.mp4	0.0	226.14452362060547	1.0000667572021484
38	194.93737483024597	pulse	0	t		36.0	2.5	/experiments/Knapen_AOT/AOT_stimuli/rescaled_final/0936_rv.mp4	0.0	227.1281201839447	
38	194.9538450241089	movie	1		280	36.0	2.5	/experiments/Knapen_AOT/AOT_stimuli/rescaled_final/0936_rv.mp4	0.0	227.14459037780762	2.5003998279571533
38	196.53610396385193	pulse	1	t		36.0	2.5	/experiments/Knapen_AOT/AOT_stimuli/rescaled_final/0936_rv.mp4	0.0	228.72684931755066	
38	197.45424485206604	fix_post	2		12	36.0	2.5	/experiments/Knapen_AOT/AOT_stimuli/rescaled_final/0936_rv.mp4	0.0	229.64499020576477	0.10005831718444824
39	197.5543031692505	fix_pre	0		120	37.0	2.5	/experiments/Knapen_AOT/AOT_stimuli/rescaled_final/1502_fw.mp4	0.0	229.74504852294922	1.0084526538848877
39	198.13795447349548	pulse	0	t		37.0	2.5	/experiments/Knapen_AOT/AOT_stimuli/rescaled_final/1502_fw.mp4	0.0	230.3286998271942	
39	198.56275582313538	movie	1		283	37.0	2.5	/experiments/Knapen_AOT/AOT_stimuli/rescaled_final/1502_fw.mp4	0.0	230.7535011768341	2.4920566082000732
39	199.73642563819885	pulse	1	t		37.0	2.5	/experiments/Knapen_AOT/AOT_stimuli/rescaled_final/1502_fw.mp4	0.0	231.92717099189758	
39	201.05481243133545	fix_post	2		12	37.0	2.5	/experiments/Knapen_AOT/AOT_stimuli/rescaled_final/1502_fw.mp4	0.0	233.24555778503418	0.09998011589050293
40	201.15479254722595	fix_pre	0		120	38.0	2.5	/experiments/Knapen_AOT/AOT_stimuli/rescaled_final/0634_rv.mp4	0.0	233.34553790092468	1.0085053443908691
40	201.33837151527405	pulse	0	t		38.0	2.5	/experiments/Knapen_AOT/AOT_stimuli/rescaled_final/0634_rv.mp4	0.0	233.52911686897278	
40	202.16329789161682	movie	1		286	38.0	2.5	/experiments/Knapen_AOT/AOT_stimuli/rescaled_final/0634_rv.mp4	0.0	234.35404324531555	2.4920156002044678
40	202.9366536140442	pulse	1	t		38.0	2.5	/experiments/Knapen_AOT/AOT_stimuli/rescaled_final/0634_rv.mp4	0.0	235.12739896774292	
40	204.5370695590973	pulse	1	t		38.0	2.5	/experiments/Knapen_AOT/AOT_stimuli/rescaled_final/0634_rv.mp4	0.0	236.72781491279602	
40	204.6553134918213	fix_post	2		12	38.0	2.5	/experiments/Knapen_AOT/AOT_stimuli/rescaled_final/0634_rv.mp4	0.0	236.84605884552002	0.10001325607299805
41	204.7553267478943	fix_pre	0		120	39.0	2.5	/experiments/Knapen_AOT/AOT_stimuli/rescaled_final/1023_fw.mp4	0.0	236.94607210159302	1.0084893703460693
41	205.76381611824036	movie	1		285	39.0	2.5	/experiments/Knapen_AOT/AOT_stimuli/rescaled_final/1023_fw.mp4	0.0	237.9545614719391	2.4920740127563477
41	206.1375913619995	pulse	1	t		39.0	2.5	/experiments/Knapen_AOT/AOT_stimuli/rescaled_final/1023_fw.mp4	0.0	238.32833671569824	
41	207.73762488365173	pulse	1	t		39.0	2.5	/experiments/Knapen_AOT/AOT_stimuli/rescaled_final/1023_fw.mp4	0.0	239.92837023735046	
41	208.2558901309967	fix_post	2		12	39.0	2.5	/experiments/Knapen_AOT/AOT_stimuli/rescaled_final/1023_fw.mp4	0.0	240.44663548469543	0.09996986389160156
42	208.3558599948883	fix_pre	0		119	40.0	2.5	/experiments/Knapen_AOT/AOT_stimuli/rescaled_final/2007_fw.mp4	0.0	240.54660534858704	1.0002095699310303
42	209.33966255187988	pulse	0	t		40.0	2.5	/experiments/Knapen_AOT/AOT_stimuli/rescaled_final/2007_fw.mp4	0.0	241.5304079055786	
42	209.35606956481934	movie	1		288	40.0	2.5	/experiments/Knapen_AOT/AOT_stimuli/rescaled_final/2007_fw.mp4	0.0	241.54681491851807	2.5003163814544678
42	210.9382688999176	pulse	1	t		40.0	2.5	/experiments/Knapen_AOT/AOT_stimuli/rescaled_final/2007_fw.mp4	0.0	243.12901425361633	
42	211.8563859462738	fix_post	2		12	40.0	2.5	/experiments/Knapen_AOT/AOT_stimuli/rescaled_final/2007_fw.mp4	0.0	244.04713129997253	0.10002017021179199
43	211.9564061164856	fix_pre	0		120	41.0	2.5	/experiments/Knapen_AOT/AOT_stimuli/rescaled_final/1062_rv.mp4	0.0	244.14715147018433	1.0085103511810303
43	212.54008293151855	pulse	0	t		41.0	2.5	/experiments/Knapen_AOT/AOT_stimuli/rescaled_final/1062_rv.mp4	0.0	244.73082828521729	
43	212.96491646766663	movie	1		266	41.0	2.5	/experiments/Knapen_AOT/AOT_stimuli/rescaled_final/1062_rv.mp4	0.0	245.15566182136536	2.492047071456909
43	214.1406214237213	pulse	1	t		41.0	2.5	/experiments/Knapen_AOT/AOT_stimuli/rescaled_final/1062_rv.mp4	0.0	246.33136677742004	
43	215.45696353912354	fix_post	2		12	41.0	2.5	/experiments/Knapen_AOT/AOT_stimuli/rescaled_final/1062_rv.mp4	0.0	247.64770889282227	0.09998965263366699
44	215.5569531917572	fix_pre	0		120	42.0	2.5	blank	1.0	247.74769854545593	1.0001778602600098
44	215.7408549785614	pulse	0	t		42.0	2.5	blank	1.0	247.93160033226013	
44	216.5571310520172	movie	1		285	42.0	2.5	blank	1.0	248.74787640571594	2.5003409385681152
44	217.34177422523499	pulse	1	t		42.0	2.5	blank	1.0	249.53251957893372	
44	218.94132924079895	pulse	1	t		42.0	2.5	blank	1.0	251.13207459449768	
44	219.05747199058533	fix_post	2		12	42.0	2.5	blank	1.0	251.24821734428406	0.10001969337463379
45	219.15749168395996	fix_pre	0		120	43.0	2.5	/experiments/Knapen_AOT/AOT_stimuli/rescaled_final/1736_rv.mp4	0.0	251.3482370376587	1.0085256099700928
45	220.16601729393005	movie	1		285	43.0	2.5	/experiments/Knapen_AOT/AOT_stimuli/rescaled_final/1736_rv.mp4	0.0	252.35676264762878	2.492006301879883
45	220.54076981544495	pulse	1	t		43.0	2.5	/experiments/Knapen_AOT/AOT_stimuli/rescaled_final/1736_rv.mp4	0.0	252.73151516914368	
45	222.1395971775055	pulse	1	t		43.0	2.5	/experiments/Knapen_AOT/AOT_stimuli/rescaled_final/1736_rv.mp4	0.0	254.33034253120422	
45	222.65802359580994	fix_post	2		12	43.0	2.5	/experiments/Knapen_AOT/AOT_stimuli/rescaled_final/1736_rv.mp4	0.0	254.84876894950867	0.10000777244567871
46	222.75803136825562	fix_pre	0		119	44.0	2.5	/experiments/Knapen_AOT/AOT_stimuli/rescaled_final/1127_rv.mp4	0.0	254.94877672195435	1.000197172164917
46	223.74198460578918	pulse	0	t		44.0	2.5	/experiments/Knapen_AOT/AOT_stimuli/rescaled_final/1127_rv.mp4	0.0	255.93272995948792	
46	223.75822854042053	movie	1		281	44.0	2.5	/experiments/Knapen_AOT/AOT_stimuli/rescaled_final/1127_rv.mp4	0.0	255.94897389411926	2.500373601913452
46	225.34149551391602	pulse	1	t		44.0	2.5	/experiments/Knapen_AOT/AOT_stimuli/rescaled_final/1127_rv.mp4	0.0	257.53224086761475	
46	226.25860214233398	fix_post	2		12	44.0	2.5	/experiments/Knapen_AOT/AOT_stimuli/rescaled_final/1127_rv.mp4	0.0	258.4493474960327	0.10002756118774414
47	226.35862970352173	fix_pre	0		120	45.0	2.5	/experiments/Knapen_AOT/AOT_stimuli/rescaled_final/0153_rv.mp4	0.0	258.54937505722046	1.0086126327514648
47	226.9340693950653	pulse	0	t		45.0	2.5	/experiments/Knapen_AOT/AOT_stimuli/rescaled_final/0153_rv.mp4	0.0	259.12481474876404	
47	227.3672423362732	movie	1		283	45.0	2.5	/experiments/Knapen_AOT/AOT_stimuli/rescaled_final/0153_rv.mp4	0.0	259.5579876899719	2.4918527603149414
47	228.5341739654541	pulse	1	t		45.0	2.5	/experiments/Knapen_AOT/AOT_stimuli/rescaled_final/0153_rv.mp4	0.0	260.72491931915283	
47	229.85909509658813	fix_post	2		12	45.0	2.5	/experiments/Knapen_AOT/AOT_stimuli/rescaled_final/0153_rv.mp4	0.0	262.04984045028687	0.1000514030456543
48	229.9591464996338	fix_pre	0		120	46.0	2.5	/experiments/Knapen_AOT/AOT_stimuli/rescaled_final/0586_fw.mp4	0.0	262.1498918533325	1.0084877014160156
48	230.13438892364502	pulse	0	t		46.0	2.5	/experiments/Knapen_AOT/AOT_stimuli/rescaled_final/0586_fw.mp4	0.0	262.32513427734375	
48	230.9676342010498	movie	1		271	46.0	2.5	/experiments/Knapen_AOT/AOT_stimuli/rescaled_final/0586_fw.mp4	0.0	263.15837955474854	2.4920191764831543
48	231.73467135429382	pulse	1	t		46.0	2.5	/experiments/Knapen_AOT/AOT_stimuli/rescaled_final/0586_fw.mp4	0.0	263.92541670799255	
48	233.33490896224976	pulse	1	t		46.0	2.5	/experiments/Knapen_AOT/AOT_stimuli/rescaled_final/0586_fw.mp4	0.0	265.5256543159485	
48	233.45965337753296	fix_post	2		12	46.0	2.5	/experiments/Knapen_AOT/AOT_stimuli/rescaled_final/0586_fw.mp4	0.0	265.6503987312317	0.10002422332763672
49	233.5596776008606	fix_pre	0		120	47.0	2.5	/experiments/Knapen_AOT/AOT_stimuli/rescaled_final/0252_rv.mp4	0.0	265.7504229545593	1.008498191833496
49	234.5681757926941	movie	1		264	47.0	2.5	/experiments/Knapen_AOT/AOT_stimuli/rescaled_final/0252_rv.mp4	0.0	266.7589211463928	2.492170810699463
49	234.93416810035706	pulse	1	t		47.0	2.5	/experiments/Knapen_AOT/AOT_stimuli/rescaled_final/0252_rv.mp4	0.0	267.1249134540558	
49	236.53542232513428	pulse	1	t		47.0	2.5	/experiments/Knapen_AOT/AOT_stimuli/rescaled_final/0252_rv.mp4	0.0	268.726167678833	
49	237.06034660339355	fix_post	2		12	47.0	2.5	/experiments/Knapen_AOT/AOT_stimuli/rescaled_final/0252_rv.mp4	0.0	269.2510919570923	0.09988903999328613
50	237.16023564338684	fix_pre	0		118	48.0	2.5	/experiments/Knapen_AOT/AOT_stimuli/rescaled_final/2134_rv.mp4	0.0	269.35098099708557	0.9917850494384766
50	238.13556385040283	pulse	0	t		48.0	2.5	/experiments/Knapen_AOT/AOT_stimuli/rescaled_final/2134_rv.mp4	0.0	270.32630920410156	
50	238.15202069282532	movie	1		289	48.0	2.5	/experiments/Knapen_AOT/AOT_stimuli/rescaled_final/2134_rv.mp4	0.0	270.34276604652405	2.500398874282837
50	239.7343533039093	pulse	1	t		48.0	2.5	/experiments/Knapen_AOT/AOT_stimuli/rescaled_final/2134_rv.mp4	0.0	271.92509865760803	
50	240.65241956710815	fix_post	2		12	48.0	2.5	/experiments/Knapen_AOT/AOT_stimuli/rescaled_final/2134_rv.mp4	0.0	272.8431649208069	0.10004043579101562
51	240.75246000289917	fix_pre	0		120	49.0	2.5	blank	1.0	272.9432053565979	1.0001060962677002
51	241.33606243133545	pulse	0	t		49.0	2.5	blank	1.0	273.5268077850342	
51	241.75256609916687	movie	1		300	49.0	2.5	blank	1.0	273.9433114528656	2.500363826751709
51	242.93629789352417	pulse	1	t		49.0	2.5	blank	1.0	275.1270432472229	
51	244.25292992591858	fix_post	2		12	49.0	2.5	blank	1.0	276.4436752796173	0.10005354881286621
52	244.35298347473145	fix_pre	0		120	50.0	2.5	/experiments/Knapen_AOT/AOT_stimuli/rescaled_final/1088_fw.mp4	0.0	276.5437288284302	1.0084939002990723
52	244.53668308258057	pulse	0	t		50.0	2.5	/experiments/Knapen_AOT/AOT_stimuli/rescaled_final/1088_fw.mp4	0.0	276.7274284362793	
52	245.36147737503052	movie	1		271	50.0	2.5	/experiments/Knapen_AOT/AOT_stimuli/rescaled_final/1088_fw.mp4	0.0	277.55222272872925	2.491997480392456
52	246.13487195968628	pulse	1	t		50.0	2.5	/experiments/Knapen_AOT/AOT_stimuli/rescaled_final/1088_fw.mp4	0.0	278.325617313385	
52	247.73553204536438	pulse	1	t		50.0	2.5	/experiments/Knapen_AOT/AOT_stimuli/rescaled_final/1088_fw.mp4	0.0	279.9262773990631	
52	247.85347485542297	fix_post	2		12	50.0	2.5	/experiments/Knapen_AOT/AOT_stimuli/rescaled_final/1088_fw.mp4	0.0	280.0442202091217	0.10002779960632324
53	247.9535026550293	fix_pre	0		120	51.0	2.5	/experiments/Knapen_AOT/AOT_stimuli/rescaled_final/1977_fw.mp4	0.0	280.144248008728	1.0084843635559082
53	248.9619870185852	movie	1		268	51.0	2.5	/experiments/Knapen_AOT/AOT_stimuli/rescaled_final/1977_fw.mp4	0.0	281.15273237228394	2.4920387268066406
53	249.33686518669128	pulse	1	t		51.0	2.5	/experiments/Knapen_AOT/AOT_stimuli/rescaled_final/1977_fw.mp4	0.0	281.52761054039	
53	250.93593311309814	pulse	1	t		51.0	2.5	/experiments/Knapen_AOT/AOT_stimuli/rescaled_final/1977_fw.mp4	0.0	283.1266784667969	
53	251.45402574539185	fix_post	2		12	51.0	2.5	/experiments/Knapen_AOT/AOT_stimuli/rescaled_final/1977_fw.mp4	0.0	283.6447710990906	0.10001134872436523
54	251.5540370941162	fix_pre	0		119	52.0	2.5	/experiments/Knapen_AOT/AOT_stimuli/rescaled_final/1628_fw.mp4	0.0	283.74478244781494	1.000133991241455
54	252.53776741027832	pulse	0	t		52.0	2.5	/experiments/Knapen_AOT/AOT_stimuli/rescaled_final/1628_fw.mp4	0.0	284.72851276397705	
54	252.55417108535767	movie	1		277	52.0	2.5	/experiments/Knapen_AOT/AOT_stimuli/rescaled_final/1628_fw.mp4	0.0	284.7449164390564	2.5004024505615234
54	254.13733506202698	pulse	1	t		52.0	2.5	/experiments/Knapen_AOT/AOT_stimuli/rescaled_final/1628_fw.mp4	0.0	286.3280804157257	
54	255.0545735359192	fix_post	2		12	52.0	2.5	/experiments/Knapen_AOT/AOT_stimuli/rescaled_final/1628_fw.mp4	0.0	287.2453188896179	0.10008573532104492
55	255.15465927124023	fix_pre	0		120	53.0	2.5	/experiments/Knapen_AOT/AOT_stimuli/rescaled_final/0522_fw.mp4	0.0	287.34540462493896	1.0084314346313477
55	255.73816061019897	pulse	0	t		53.0	2.5	/experiments/Knapen_AOT/AOT_stimuli/rescaled_final/0522_fw.mp4	0.0	287.9289059638977	
55	256.1630907058716	movie	1		270	53.0	2.5	/experiments/Knapen_AOT/AOT_stimuli/rescaled_final/0522_fw.mp4	0.0	288.3538360595703	2.492039442062378
55	257.3366320133209	pulse	1	t		53.0	2.5	/experiments/Knapen_AOT/AOT_stimuli/rescaled_final/0522_fw.mp4	0.0	289.52737736701965	
55	258.65513014793396	fix_post	2		12	53.0	2.5	/experiments/Knapen_AOT/AOT_stimuli/rescaled_final/0522_fw.mp4	0.0	290.8458755016327	0.10011076927185059
56	258.7552409172058	fix_pre	0		120	54.0	2.5	blank	1.0	290.94598627090454	1.0000064373016357
56	258.9386558532715	pulse	0	t		54.0	2.5	blank	1.0	291.1294012069702	
56	259.75524735450745	movie	1		300	54.0	2.5	blank	1.0	291.9459927082062	2.5004091262817383
56	260.53918957710266	pulse	1	t		54.0	2.5	blank	1.0	292.7299349308014	
56	262.1392414569855	pulse	1	t		54.0	2.5	blank	1.0	294.3299868106842	
56	262.2556564807892	fix_post	2		12	54.0	2.5	blank	1.0	294.4464018344879	0.10014176368713379
57	262.3557982444763	fix_pre	0		120	55.0	2.5	/experiments/Knapen_AOT/AOT_stimuli/rescaled_final/0849_fw.mp4	0.0	294.54654359817505	1.008373737335205
57	263.3641719818115	movie	1		269	55.0	2.5	/experiments/Knapen_AOT/AOT_stimuli/rescaled_final/0849_fw.mp4	0.0	295.55491733551025	2.492065906524658
57	263.7396819591522	pulse	1	t		55.0	2.5	/experiments/Knapen_AOT/AOT_stimuli/rescaled_final/0849_fw.mp4	0.0	295.93042731285095	
57	265.3385739326477	pulse	1	t		55.0	2.5	/experiments/Knapen_AOT/AOT_stimuli/rescaled_final/0849_fw.mp4	0.0	297.52931928634644	
57	265.8562378883362	fix_post	2		12	55.0	2.5	/experiments/Knapen_AOT/AOT_stimuli/rescaled_final/0849_fw.mp4	0.0	298.0469832420349	0.09994792938232422
58	265.9561858177185	fix_pre	0		119	56.0	2.5	/experiments/Knapen_AOT/AOT_stimuli/rescaled_final/0059_fw.mp4	0.0	298.14693117141724	1.0002505779266357
58	266.93998074531555	pulse	0	t		56.0	2.5	/experiments/Knapen_AOT/AOT_stimuli/rescaled_final/0059_fw.mp4	0.0	299.1307260990143	
58	266.95643639564514	movie	1		277	56.0	2.5	/experiments/Knapen_AOT/AOT_stimuli/rescaled_final/0059_fw.mp4	0.0	299.1471817493439	2.5003433227539062
58	268.5387556552887	pulse	1	t		56.0	2.5	/experiments/Knapen_AOT/AOT_stimuli/rescaled_final/0059_fw.mp4	0.0	300.7295010089874	
58	269.45677971839905	fix_post	2		12	56.0	2.5	/experiments/Knapen_AOT/AOT_stimuli/rescaled_final/0059_fw.mp4	0.0	301.6475250720978	0.10003256797790527
59	269.55681228637695	fix_pre	0		120	57.0	2.5	/experiments/Knapen_AOT/AOT_stimuli/rescaled_final/0143_fw.mp4	0.0	301.7475576400757	1.008441686630249
59	270.1403760910034	pulse	0	t		57.0	2.5	/experiments/Knapen_AOT/AOT_stimuli/rescaled_final/0143_fw.mp4	0.0	302.33112144470215	
59	270.5652539730072	movie	1		263	57.0	2.5	/experiments/Knapen_AOT/AOT_stimuli/rescaled_final/0143_fw.mp4	0.0	302.75599932670593	2.492016553878784
59	271.73900055885315	pulse	1	t		57.0	2.5	/experiments/Knapen_AOT/AOT_stimuli/rescaled_final/0143_fw.mp4	0.0	303.9297459125519	
59	273.057270526886	fix_post	2		12	57.0	2.5	/experiments/Knapen_AOT/AOT_stimuli/rescaled_final/0143_fw.mp4	0.0	305.2480158805847	0.10012578964233398
60	273.1573963165283	fix_pre	0		120	58.0	2.5	/experiments/Knapen_AOT/AOT_stimuli/rescaled_final/0911_rv.mp4	0.0	305.34814167022705	1.0083725452423096
60	273.34087467193604	pulse	0	t		58.0	2.5	/experiments/Knapen_AOT/AOT_stimuli/rescaled_final/0911_rv.mp4	0.0	305.53162002563477	
60	274.16576886177063	movie	1		292	58.0	2.5	/experiments/Knapen_AOT/AOT_stimuli/rescaled_final/0911_rv.mp4	0.0	306.35651421546936	2.4920637607574463
60	274.93938636779785	pulse	1	t		58.0	2.5	/experiments/Knapen_AOT/AOT_stimuli/rescaled_final/0911_rv.mp4	0.0	307.1301317214966	
60	276.539573431015	pulse	1	t		58.0	2.5	/experiments/Knapen_AOT/AOT_stimuli/rescaled_final/0911_rv.mp4	0.0	308.73031878471375	
60	276.6578326225281	fix_post	2		12	58.0	2.5	/experiments/Knapen_AOT/AOT_stimuli/rescaled_final/0911_rv.mp4	0.0	308.8485779762268	0.10000777244567871
61	276.75784039497375	fix_pre	0		120	59.0	2.5	/experiments/Knapen_AOT/AOT_stimuli/rescaled_final/0933_fw.mp4	0.0	308.9485857486725	1.0085477828979492
61	277.7663881778717	movie	1		282	59.0	2.5	/experiments/Knapen_AOT/AOT_stimuli/rescaled_final/0933_fw.mp4	0.0	309.95713353157043	2.4919538497924805
61	278.1334869861603	pulse	1	t		59.0	2.5	/experiments/Knapen_AOT/AOT_stimuli/rescaled_final/0933_fw.mp4	0.0	310.324232339859	
61	279.7335350513458	pulse	1	t		59.0	2.5	/experiments/Knapen_AOT/AOT_stimuli/rescaled_final/0933_fw.mp4	0.0	311.92428040504456	
61	280.2583420276642	fix_post	2		12	59.0	2.5	/experiments/Knapen_AOT/AOT_stimuli/rescaled_final/0933_fw.mp4	0.0	312.4490873813629	0.10005545616149902
62	280.3583974838257	fix_pre	0		118	60.0	2.5	/experiments/Knapen_AOT/AOT_stimuli/rescaled_final/1332_fw.mp4	0.0	312.5491428375244	0.9919290542602539
62	281.33407068252563	pulse	0	t		60.0	2.5	/experiments/Knapen_AOT/AOT_stimuli/rescaled_final/1332_fw.mp4	0.0	313.52481603622437	
62	281.35032653808594	movie	1		268	60.0	2.5	/experiments/Knapen_AOT/AOT_stimuli/rescaled_final/1332_fw.mp4	0.0	313.54107189178467	2.50022554397583
62	282.9342212677002	pulse	1	t		60.0	2.5	/experiments/Knapen_AOT/AOT_stimuli/rescaled_final/1332_fw.mp4	0.0	315.1249666213989	
62	283.85055208206177	fix_post	2		12	60.0	2.5	/experiments/Knapen_AOT/AOT_stimuli/rescaled_final/1332_fw.mp4	0.0	316.0412974357605	0.10001802444458008
63	283.95057010650635	fix_pre	0		120	61.0	2.5	/experiments/Knapen_AOT/AOT_stimuli/rescaled_final/1393_fw.mp4	0.0	316.1413154602051	1.0086228847503662
63	284.5342290401459	pulse	0	t		61.0	2.5	/experiments/Knapen_AOT/AOT_stimuli/rescaled_final/1393_fw.mp4	0.0	316.7249743938446	
63	284.9591929912567	movie	1		274	61.0	2.5	/experiments/Knapen_AOT/AOT_stimuli/rescaled_final/1393_fw.mp4	0.0	317.14993834495544	2.49192214012146
63	286.1345157623291	pulse	1	t		61.0	2.5	/experiments/Knapen_AOT/AOT_stimuli/rescaled_final/1393_fw.mp4	0.0	318.32526111602783	
63	287.4511151313782	fix_post	2		12	61.0	2.5	/experiments/Knapen_AOT/AOT_stimuli/rescaled_final/1393_fw.mp4	0.0	319.6418604850769	0.10001587867736816
64	287.55113101005554	fix_pre	0		120	62.0	2.5	/experiments/Knapen_AOT/AOT_stimuli/rescaled_final/0521_fw.mp4	0.0	319.7418763637543	1.0085136890411377
64	287.73473739624023	pulse	0	t		62.0	2.5	/experiments/Knapen_AOT/AOT_stimuli/rescaled_final/0521_fw.mp4	0.0	319.92548274993896	
64	288.5596446990967	movie	1		280	62.0	2.5	/experiments/Knapen_AOT/AOT_stimuli/rescaled_final/0521_fw.mp4	0.0	320.7503900527954	2.4920129776000977
64	289.33494091033936	pulse	1	t		62.0	2.5	/experiments/Knapen_AOT/AOT_stimuli/rescaled_final/0521_fw.mp4	0.0	321.5256862640381	
64	290.9335227012634	pulse	1	t		62.0	2.5	/experiments/Knapen_AOT/AOT_stimuli/rescaled_final/0521_fw.mp4	0.0	323.12426805496216	
64	291.0516576766968	fix_post	2		12	62.0	2.5	/experiments/Knapen_AOT/AOT_stimuli/rescaled_final/0521_fw.mp4	0.0	323.2424030303955	0.10005378723144531
65	291.1517114639282	fix_pre	0		120	63.0	2.5	blank	1.0	323.34245681762695	1.000126838684082
65	292.1518383026123	movie	1		300	63.0	2.5	blank	1.0	324.34258365631104	2.5003387928009033
65	292.53555846214294	pulse	1	t		63.0	2.5	blank	1.0	324.7263038158417	
65	294.1356360912323	pulse	1	t		63.0	2.5	blank	1.0	326.32638144493103	
65	294.6521770954132	fix_post	2		12	63.0	2.5	blank	1.0	326.84292244911194	0.10002756118774414
66	294.75220465660095	fix_pre	0		119	64.0	2.5	/experiments/Knapen_AOT/AOT_stimuli/rescaled_final/0267_rv.mp4	0.0	326.9429500102997	1.0085301399230957
66	295.73590898513794	pulse	0	t		64.0	2.5	/experiments/Knapen_AOT/AOT_stimuli/rescaled_final/0267_rv.mp4	0.0	327.92665433883667	
66	295.76073479652405	movie	1		291	64.0	2.5	/experiments/Knapen_AOT/AOT_stimuli/rescaled_final/0267_rv.mp4	0.0	327.9514801502228	2.4920058250427246
66	297.33480882644653	pulse	1	t		64.0	2.5	/experiments/Knapen_AOT/AOT_stimuli/rescaled_final/0267_rv.mp4	0.0	329.52555418014526	
66	298.2527406215668	fix_post	2		12	64.0	2.5	/experiments/Knapen_AOT/AOT_stimuli/rescaled_final/0267_rv.mp4	0.0	330.4434859752655	0.10001730918884277
67	298.3527579307556	fix_pre	0		120	65.0	2.5	/experiments/Knapen_AOT/AOT_stimuli/rescaled_final/1250_fw.mp4	0.0	330.54350328445435	1.0084855556488037
67	298.936368227005	pulse	0	t		65.0	2.5	/experiments/Knapen_AOT/AOT_stimuli/rescaled_final/1250_fw.mp4	0.0	331.12711358070374	
67	299.3612434864044	movie	1		275	65.0	2.5	/experiments/Knapen_AOT/AOT_stimuli/rescaled_final/1250_fw.mp4	0.0	331.55198884010315	2.4920291900634766
67	300.53463530540466	pulse	1	t		65.0	2.5	/experiments/Knapen_AOT/AOT_stimuli/rescaled_final/1250_fw.mp4	0.0	332.7253806591034	
67	301.8532726764679	fix_post	2		12	65.0	2.5	/experiments/Knapen_AOT/AOT_stimuli/rescaled_final/1250_fw.mp4	0.0	334.0440180301666	0.10001778602600098
68	301.9532904624939	fix_pre	0		120	66.0	2.5	/experiments/Knapen_AOT/AOT_stimuli/rescaled_final/0607_rv.mp4	0.0	334.1440358161926	1.0085856914520264
68	302.13685488700867	pulse	0	t		66.0	2.5	/experiments/Knapen_AOT/AOT_stimuli/rescaled_final/0607_rv.mp4	0.0	334.3276002407074	
68	302.9618761539459	movie	1		282	66.0	2.5	/experiments/Knapen_AOT/AOT_stimuli/rescaled_final/0607_rv.mp4	0.0	335.15262150764465	2.491946220397949
68	303.73556566238403	pulse	1	t		66.0	2.5	/experiments/Knapen_AOT/AOT_stimuli/rescaled_final/0607_rv.mp4	0.0	335.92631101608276	
68	305.3353490829468	pulse	1	t		66.0	2.5	/experiments/Knapen_AOT/AOT_stimuli/rescaled_final/0607_rv.mp4	0.0	337.5260944366455	
68	305.4538223743439	fix_post	2		12	66.0	2.5	/experiments/Knapen_AOT/AOT_stimuli/rescaled_final/0607_rv.mp4	0.0	337.6445677280426	0.09999942779541016
69	305.5538218021393	fix_pre	0		120	67.0	2.5	/experiments/Knapen_AOT/AOT_stimuli/rescaled_final/0272_rv.mp4	0.0	337.744567155838	1.008490800857544
69	306.5623126029968	movie	1		282	67.0	2.5	/experiments/Knapen_AOT/AOT_stimuli/rescaled_final/0272_rv.mp4	0.0	338.75305795669556	2.4920363426208496
69	306.9367833137512	pulse	1	t		67.0	2.5	/experiments/Knapen_AOT/AOT_stimuli/rescaled_final/0272_rv.mp4	0.0	339.12752866744995	
69	308.53632140159607	pulse	1	t		67.0	2.5	/experiments/Knapen_AOT/AOT_stimuli/rescaled_final/0272_rv.mp4	0.0	340.7270667552948	
69	309.0543489456177	fix_post	2		12	67.0	2.5	/experiments/Knapen_AOT/AOT_stimuli/rescaled_final/0272_rv.mp4	0.0	341.2450942993164	0.10003495216369629
70	309.1543838977814	fix_pre	0		119	68.0	2.5	/experiments/Knapen_AOT/AOT_stimuli/rescaled_final/0522_rv.mp4	0.0	341.3451292514801	1.0085458755493164
70	310.1380488872528	pulse	0	t		68.0	2.5	/experiments/Knapen_AOT/AOT_stimuli/rescaled_final/0522_rv.mp4	0.0	342.32879424095154	
70	310.1629297733307	movie	1		269	68.0	2.5	/experiments/Knapen_AOT/AOT_stimuli/rescaled_final/0522_rv.mp4	0.0	342.3536751270294	2.4919605255126953
70	311.73665714263916	pulse	1	t		68.0	2.5	/experiments/Knapen_AOT/AOT_stimuli/rescaled_final/0522_rv.mp4	0.0	343.9274024963379	
70	312.6548902988434	fix_post	2		12	68.0	2.5	/experiments/Knapen_AOT/AOT_stimuli/rescaled_final/0522_rv.mp4	0.0	344.8456356525421	0.10004281997680664
71	312.7549331188202	fix_pre	0		120	69.0	2.5	blank	1.0	344.9456784725189	1.000124454498291
71	313.338743686676	pulse	0	t		69.0	2.5	blank	1.0	345.52948904037476	
71	313.7550575733185	movie	1		300	69.0	2.5	blank	1.0	345.9458029270172	2.5003726482391357
71	314.93880319595337	pulse	1	t		69.0	2.5	blank	1.0	347.1295485496521	
71	316.2554302215576	fix_post	2		12	69.0	2.5	blank	1.0	348.44617557525635	0.10006117820739746
72	316.355491399765	fix_pre	0		120	70.0	2.5	/experiments/Knapen_AOT/AOT_stimuli/rescaled_final/0107_fw.mp4	0.0	348.54623675346375	1.0083935260772705
72	316.53900957107544	pulse	0	t		70.0	2.5	/experiments/Knapen_AOT/AOT_stimuli/rescaled_final/0107_fw.mp4	0.0	348.72975492477417	
72	317.3638849258423	movie	1		272	70.0	2.5	/experiments/Knapen_AOT/AOT_stimuli/rescaled_final/0107_fw.mp4	0.0	349.554630279541	2.4920971393585205
72	318.13728952407837	pulse	1	t		70.0	2.5	/experiments/Knapen_AOT/AOT_stimuli/rescaled_final/0107_fw.mp4	0.0	350.3280348777771	
72	319.73785758018494	pulse	1	t		70.0	2.5	/experiments/Knapen_AOT/AOT_stimuli/rescaled_final/0107_fw.mp4	0.0	351.92860293388367	
72	319.8559820652008	fix_post	2		12	70.0	2.5	/experiments/Knapen_AOT/AOT_stimuli/rescaled_final/0107_fw.mp4	0.0	352.04672741889954	0.10001468658447266
73	319.9559967517853	fix_pre	0		120	71.0	2.5	/experiments/Knapen_AOT/AOT_stimuli/rescaled_final/1216_fw.mp4	0.0	352.146742105484	1.0085139274597168
73	320.964510679245	movie	1		271	71.0	2.5	/experiments/Knapen_AOT/AOT_stimuli/rescaled_final/1216_fw.mp4	0.0	353.1552560329437	2.4920191764831543
73	321.33853483200073	pulse	1	t		71.0	2.5	/experiments/Knapen_AOT/AOT_stimuli/rescaled_final/1216_fw.mp4	0.0	353.52928018569946	
73	322.9382417201996	pulse	1	t		71.0	2.5	/experiments/Knapen_AOT/AOT_stimuli/rescaled_final/1216_fw.mp4	0.0	355.1289870738983	
73	323.45652985572815	fix_post	2		12	71.0	2.5	/experiments/Knapen_AOT/AOT_stimuli/rescaled_final/1216_fw.mp4	0.0	355.6472752094269	0.10001349449157715
74	323.5565433502197	fix_pre	0		119	72.0	2.5	/experiments/Knapen_AOT/AOT_stimuli/rescaled_final/1736_fw.mp4	0.0	355.74728870391846	1.0086140632629395
74	324.54023265838623	pulse	0	t		72.0	2.5	/experiments/Knapen_AOT/AOT_stimuli/rescaled_final/1736_fw.mp4	0.0	356.73097801208496	
74	324.56515741348267	movie	1		280	72.0	2.5	/experiments/Knapen_AOT/AOT_stimuli/rescaled_final/1736_fw.mp4	0.0	356.7559027671814	2.491901397705078
74	326.1390190124512	pulse	1	t		72.0	2.5	/experiments/Knapen_AOT/AOT_stimuli/rescaled_final/1736_fw.mp4	0.0	358.3297643661499	
74	327.05705881118774	fix_post	2		12	72.0	2.5	/experiments/Knapen_AOT/AOT_stimuli/rescaled_final/1736_fw.mp4	0.0	359.2478041648865	0.10001087188720703
75	327.15706968307495	fix_pre	0		119	73.0	2.5	/experiments/Knapen_AOT/AOT_stimuli/rescaled_final/1036_rv.mp4	0.0	359.3478150367737	1.0085678100585938
75	327.7411699295044	pulse	0	t		73.0	2.5	/experiments/Knapen_AOT/AOT_stimuli/rescaled_final/1036_rv.mp4	0.0	359.9319152832031	
75	328.16563749313354	movie	1		260	73.0	2.5	/experiments/Knapen_AOT/AOT_stimuli/rescaled_final/1036_rv.mp4	0.0	360.3563828468323	2.49196195602417
75	329.34030413627625	pulse	1	t		73.0	2.5	/experiments/Knapen_AOT/AOT_stimuli/rescaled_final/1036_rv.mp4	0.0	361.531049489975	
75	330.6575994491577	fix_post	2		12	73.0	2.5	/experiments/Knapen_AOT/AOT_stimuli/rescaled_final/1036_rv.mp4	0.0	362.84834480285645	0.10004639625549316
76	330.7576458454132	fix_pre	0		120	74.0	2.5	/experiments/Knapen_AOT/AOT_stimuli/rescaled_final/0634_fw.mp4	0.0	362.94839119911194	1.0084514617919922
76	330.93428802490234	pulse	0	t		74.0	2.5	/experiments/Knapen_AOT/AOT_stimuli/rescaled_final/0634_fw.mp4	0.0	363.1250333786011	
76	331.7660973072052	movie	1		268	74.0	2.5	/experiments/Knapen_AOT/AOT_stimuli/rescaled_final/0634_fw.mp4	0.0	363.95684266090393	2.4920787811279297
76	332.53946137428284	pulse	1	t		74.0	2.5	/experiments/Knapen_AOT/AOT_stimuli/rescaled_final/0634_fw.mp4	0.0	364.73020672798157	
76	334.14418745040894	pulse	1	t		74.0	2.5	/experiments/Knapen_AOT/AOT_stimuli/rescaled_final/0634_fw.mp4	0.0	366.33493280410767	
76	334.25817608833313	fix_post	2		12	74.0	2.5	/experiments/Knapen_AOT/AOT_stimuli/rescaled_final/0634_fw.mp4	0.0	366.44892144203186	0.10004711151123047
77	334.35822319984436	fix_pre	0		120	75.0	2.5	blank	1.0	366.5489685535431	1.000091314315796
77	335.35831451416016	movie	1		300	75.0	2.5	blank	1.0	367.5490598678589	2.500385284423828
77	335.7338054180145	pulse	1	t		75.0	2.5	blank	1.0	367.92455077171326	
77	337.33396768569946	pulse	1	t		75.0	2.5	blank	1.0	369.5247130393982	
77	337.858699798584	fix_post	2		12	75.0	2.5	blank	1.0	370.0494451522827	0.10001516342163086
78	337.9587149620056	fix_pre	0		118	76.0	2.5	/experiments/Knapen_AOT/AOT_stimuli/rescaled_final/1473_fw.mp4	0.0	370.14946031570435	1.000164270401001
78	338.9341151714325	pulse	0	t		76.0	2.5	/experiments/Knapen_AOT/AOT_stimuli/rescaled_final/1473_fw.mp4	0.0	371.1248605251312	
78	338.9588792324066	movie	1		276	76.0	2.5	/experiments/Knapen_AOT/AOT_stimuli/rescaled_final/1473_fw.mp4	0.0	371.14962458610535	2.491988182067871
78	340.53387808799744	pulse	1	t		76.0	2.5	/experiments/Knapen_AOT/AOT_stimuli/rescaled_final/1473_fw.mp4	0.0	372.72462344169617	
78	341.4508674144745	fix_post	2		12	76.0	2.5	/experiments/Knapen_AOT/AOT_stimuli/rescaled_final/1473_fw.mp4	0.0	373.6416127681732	0.10009908676147461
79	341.55096650123596	fix_pre	0		120	77.0	2.5	/experiments/Knapen_AOT/AOT_stimuli/rescaled_final/1932_rv.mp4	0.0	373.7417118549347	1.0084810256958008
79	342.13462471961975	pulse	0	t		77.0	2.5	/experiments/Knapen_AOT/AOT_stimuli/rescaled_final/1932_rv.mp4	0.0	374.3253700733185	
79	342.55944752693176	movie	1		282	77.0	2.5	/experiments/Knapen_AOT/AOT_stimuli/rescaled_final/1932_rv.mp4	0.0	374.7501928806305	2.491983652114868
79	343.734810590744	pulse	1	t		77.0	2.5	/experiments/Knapen_AOT/AOT_stimuli/rescaled_final/1932_rv.mp4	0.0	375.92555594444275	
79	345.05143117904663	fix_post	2		12	77.0	2.5	/experiments/Knapen_AOT/AOT_stimuli/rescaled_final/1932_rv.mp4	0.0	377.24217653274536	0.10001492500305176
80	345.1514461040497	fix_pre	0		120	78.0	2.5	/experiments/Knapen_AOT/AOT_stimuli/rescaled_final/1492_rv.mp4	0.0	377.3421914577484	1.0084798336029053
80	345.3350307941437	pulse	0	t		78.0	2.5	/experiments/Knapen_AOT/AOT_stimuli/rescaled_final/1492_rv.mp4	0.0	377.5257761478424	
80	346.1599259376526	movie	1		269	78.0	2.5	/experiments/Knapen_AOT/AOT_stimuli/rescaled_final/1492_rv.mp4	0.0	378.3506712913513	2.492048501968384
80	346.9352660179138	pulse	1	t		78.0	2.5	/experiments/Knapen_AOT/AOT_stimuli/rescaled_final/1492_rv.mp4	0.0	379.12601137161255	
80	348.5350604057312	pulse	1	t		78.0	2.5	/experiments/Knapen_AOT/AOT_stimuli/rescaled_final/1492_rv.mp4	0.0	380.72580575942993	
80	348.651974439621	fix_post	2		12	78.0	2.5	/experiments/Knapen_AOT/AOT_stimuli/rescaled_final/1492_rv.mp4	0.0	380.8427197933197	0.10002493858337402
81	348.75199937820435	fix_pre	0		120	79.0	2.5	/experiments/Knapen_AOT/AOT_stimuli/rescaled_final/0225_fw.mp4	0.0	380.9427447319031	1.008568525314331
81	349.7605679035187	movie	1		271	79.0	2.5	/experiments/Knapen_AOT/AOT_stimuli/rescaled_final/0225_fw.mp4	0.0	381.9513132572174	2.491973400115967
81	350.13448786735535	pulse	1	t		79.0	2.5	/experiments/Knapen_AOT/AOT_stimuli/rescaled_final/0225_fw.mp4	0.0	382.3252332210541	
81	351.73488116264343	pulse	1	t		79.0	2.5	/experiments/Knapen_AOT/AOT_stimuli/rescaled_final/0225_fw.mp4	0.0	383.92562651634216	
81	352.25254130363464	fix_post	2		12	79.0	2.5	/experiments/Knapen_AOT/AOT_stimuli/rescaled_final/0225_fw.mp4	0.0	384.4432866573334	0.10000181198120117
82	352.35254311561584	fix_pre	0		119	80.0	2.5	/experiments/Knapen_AOT/AOT_stimuli/rescaled_final/1365_rv.mp4	0.0	384.5432884693146	1.000150442123413
82	353.3362145423889	pulse	0	t		80.0	2.5	/experiments/Knapen_AOT/AOT_stimuli/rescaled_final/1365_rv.mp4	0.0	385.52695989608765	
82	353.35269355773926	movie	1		275	80.0	2.5	/experiments/Knapen_AOT/AOT_stimuli/rescaled_final/1365_rv.mp4	0.0	385.543438911438	2.5003905296325684
82	354.93516778945923	pulse	1	t		80.0	2.5	/experiments/Knapen_AOT/AOT_stimuli/rescaled_final/1365_rv.mp4	0.0	387.12591314315796	
82	355.8530840873718	fix_post	2		12	80.0	2.5	/experiments/Knapen_AOT/AOT_stimuli/rescaled_final/1365_rv.mp4	0.0	388.04382944107056	0.09999394416809082
83	355.9530780315399	fix_pre	0		119	81.0	2.5	/experiments/Knapen_AOT/AOT_stimuli/rescaled_final/1596_fw.mp4	0.0	388.14382338523865	1.0085093975067139
83	356.5372622013092	pulse	0	t		81.0	2.5	/experiments/Knapen_AOT/AOT_stimuli/rescaled_final/1596_fw.mp4	0.0	388.72800755500793	
83	356.96158742904663	movie	1		271	81.0	2.5	/experiments/Knapen_AOT/AOT_stimuli/rescaled_final/1596_fw.mp4	0.0	389.15233278274536	2.492201089859009
83	358.1355936527252	pulse	1	t		81.0	2.5	/experiments/Knapen_AOT/AOT_stimuli/rescaled_final/1596_fw.mp4	0.0	390.32633900642395	
83	359.45378851890564	fix_post	2		12	81.0	2.5	/experiments/Knapen_AOT/AOT_stimuli/rescaled_final/1596_fw.mp4	0.0	391.64453387260437	0.09987163543701172
84	359.55366015434265	fix_pre	0		120	82.0	2.5	/experiments/Knapen_AOT/AOT_stimuli/rescaled_final/1312_rv.mp4	0.0	391.7444055080414	1.0084660053253174
84	359.73727536201477	pulse	0	t		82.0	2.5	/experiments/Knapen_AOT/AOT_stimuli/rescaled_final/1312_rv.mp4	0.0	391.9280207157135	
84	360.56212615966797	movie	1		278	82.0	2.5	/experiments/Knapen_AOT/AOT_stimuli/rescaled_final/1312_rv.mp4	0.0	392.7528715133667	2.4919943809509277
84	361.335755109787	pulse	1	t		82.0	2.5	/experiments/Knapen_AOT/AOT_stimuli/rescaled_final/1312_rv.mp4	0.0	393.5265004634857	
84	362.9359152317047	pulse	1	t		82.0	2.5	/experiments/Knapen_AOT/AOT_stimuli/rescaled_final/1312_rv.mp4	0.0	395.12666058540344	
84	363.0541205406189	fix_post	2		12	82.0	2.5	/experiments/Knapen_AOT/AOT_stimuli/rescaled_final/1312_rv.mp4	0.0	395.2448658943176	0.10009765625
85	363.1542181968689	fix_pre	0		120	83.0	2.5	blank	1.0	395.3449635505676	1.0000789165496826
85	364.1542971134186	movie	1		300	83.0	2.5	blank	1.0	396.3450424671173	2.5003979206085205
85	364.53798627853394	pulse	1	t		83.0	2.5	blank	1.0	396.72873163223267	
85	366.1382694244385	pulse	1	t		83.0	2.5	blank	1.0	398.3290147781372	
85	366.6546950340271	fix_post	2		12	83.0	2.5	blank	1.0	398.84544038772583	0.1250598430633545
87	366.77975487709045	stim	0		1712					398.9705002307892	14.268747091293335
87	367.73841404914856	pulse	0	t						399.9291594028473	
87	369.33870339393616	pulse	0	t						401.5294487476349	
87	370.93888759613037	pulse	0	t						403.1296329498291	
87	372.53913283348083	pulse	0	t						404.72987818717957	
87	374.13939452171326	pulse	0	t						406.330139875412	
87	375.73963594436646	pulse	0	t						407.9303812980652	
87	377.34013271331787	pulse	0	t						409.5308780670166	
87	378.9401547908783	pulse	0	t						411.130900144577	
87	380.54039216041565	pulse	0	t						412.7311375141144	
