trial_nr	onset	event_type	phase	response	nr_frames	movie_index	movie_duration	movie_file	blank	onset_abs	duration
0	0.19997215270996094	stim	0		68					100.53973722457886	0.5666828155517578
0	0.7585880756378174	response	0	space						101.09835314750671	
1	0.7666549682617188	stim	0		5135					101.10642004013062	42.809653997421265
1	43.566368103027344	pulse	0	t						143.90613317489624	
1	43.57630896568298	stim	1		1716					143.91607403755188	14.307219982147217
1	45.15680003166199	pulse	1	t						145.49656510353088	
1	46.75706100463867	pulse	1	t						147.09682607650757	
1	48.35721516609192	pulse	1	t						148.69698023796082	
1	49.957550048828125	pulse	1	t						150.29731512069702	
1	51.5577609539032	pulse	1	t						151.8975260257721	
1	53.158036947250366	pulse	1	t						153.49780201911926	
1	54.75811409950256	pulse	1	t						155.09787917137146	
1	56.35842299461365	pulse	1	t						156.69818806648254	
2	57.8835289478302	fix_pre	0		10	0.0	2.5	/experiments/knapen_AOT/AOT_stimuli/rescaled_final/0476_rv.mp4	0.0	158.2232940196991	0.09174203872680664
2	57.95875906944275	pulse	0	t		0.0	2.5	/experiments/knapen_AOT/AOT_stimuli/rescaled_final/0476_rv.mp4	0.0	158.29852414131165	
2	57.97527098655701	movie	1		244	0.0	2.5	/experiments/knapen_AOT/AOT_stimuli/rescaled_final/0476_rv.mp4	0.0	158.3150360584259	2.5002880096435547
2	59.5600790977478	pulse	1	t		0.0	2.5	/experiments/knapen_AOT/AOT_stimuli/rescaled_final/0476_rv.mp4	0.0	159.8998441696167	
2	60.47555899620056	fix_post	2		12	0.0	2.5	/experiments/knapen_AOT/AOT_stimuli/rescaled_final/0476_rv.mp4	0.0	160.81532406806946	0.09999513626098633
3	60.57555413246155	fix_pre	0		120	1.0	2.5	/experiments/knapen_AOT/AOT_stimuli/rescaled_final/1368_rv.mp4	0.0	160.91531920433044	1.0001778602600098
3	61.15927195549011	pulse	0	t		1.0	2.5	/experiments/knapen_AOT/AOT_stimuli/rescaled_final/1368_rv.mp4	0.0	161.499037027359	
3	61.57573199272156	movie	1		243	1.0	2.5	/experiments/knapen_AOT/AOT_stimuli/rescaled_final/1368_rv.mp4	0.0	161.91549706459045	2.5003931522369385
3	62.75953698158264	pulse	1	t		1.0	2.5	/experiments/knapen_AOT/AOT_stimuli/rescaled_final/1368_rv.mp4	0.0	163.09930205345154	
3	64.0761251449585	fix_post	2		12	1.0	2.5	/experiments/knapen_AOT/AOT_stimuli/rescaled_final/1368_rv.mp4	0.0	164.4158902168274	0.1000208854675293
4	64.17614603042603	fix_pre	0		120	2.0	2.5	/experiments/knapen_AOT/AOT_stimuli/rescaled_final/1268_rv.mp4	0.0	164.51591110229492	1.0001649856567383
4	64.35981607437134	pulse	0	t		2.0	2.5	/experiments/knapen_AOT/AOT_stimuli/rescaled_final/1268_rv.mp4	0.0	164.69958114624023	
4	65.17631101608276	movie	1		246	2.0	2.5	/experiments/knapen_AOT/AOT_stimuli/rescaled_final/1268_rv.mp4	0.0	165.51607608795166	2.500309944152832
4	65.9599540233612	pulse	1	t		2.0	2.5	/experiments/knapen_AOT/AOT_stimuli/rescaled_final/1268_rv.mp4	0.0	166.2997190952301	
4	67.56024503707886	pulse	1	t		2.0	2.5	/experiments/knapen_AOT/AOT_stimuli/rescaled_final/1268_rv.mp4	0.0	167.90001010894775	
4	67.6766209602356	fix_post	2		12	2.0	2.5	/experiments/knapen_AOT/AOT_stimuli/rescaled_final/1268_rv.mp4	0.0	168.0163860321045	0.09999608993530273
5	67.7766170501709	fix_pre	0		120	3.0	2.5	/experiments/knapen_AOT/AOT_stimuli/rescaled_final/1460_fw.mp4	0.0	168.1163821220398	1.000154972076416
5	68.77677202224731	movie	1		244	3.0	2.5	/experiments/knapen_AOT/AOT_stimuli/rescaled_final/1460_fw.mp4	0.0	169.1165370941162	2.492100954055786
5	69.16097497940063	pulse	1	t		3.0	2.5	/experiments/knapen_AOT/AOT_stimuli/rescaled_final/1460_fw.mp4	0.0	169.50074005126953	
5	70.7607409954071	pulse	1	t		3.0	2.5	/experiments/knapen_AOT/AOT_stimuli/rescaled_final/1460_fw.mp4	0.0	171.100506067276	
5	71.2688729763031	fix_post	2		12	3.0	2.5	/experiments/knapen_AOT/AOT_stimuli/rescaled_final/1460_fw.mp4	0.0	171.608638048172	0.09997200965881348
6	71.36884498596191	fix_pre	0		120	4.0	2.5	/experiments/knapen_AOT/AOT_stimuli/rescaled_final/1330_rv.mp4	0.0	171.7086100578308	1.0001630783081055
6	72.36093711853027	pulse	0	t		4.0	2.5	/experiments/knapen_AOT/AOT_stimuli/rescaled_final/1330_rv.mp4	0.0	172.70070219039917	
6	72.36900806427002	movie	1		245	4.0	2.5	/experiments/knapen_AOT/AOT_stimuli/rescaled_final/1330_rv.mp4	0.0	172.70877313613892	2.508723020553589
6	73.96245002746582	pulse	1	t		4.0	2.5	/experiments/knapen_AOT/AOT_stimuli/rescaled_final/1330_rv.mp4	0.0	174.30221509933472	
6	74.87773108482361	fix_post	2		12	4.0	2.5	/experiments/knapen_AOT/AOT_stimuli/rescaled_final/1330_rv.mp4	0.0	175.2174961566925	0.10003304481506348
7	74.97776412963867	fix_pre	0		120	5.0	2.5	blank	1.0	175.31752920150757	1.0001180171966553
7	75.56131100654602	pulse	0	t		5.0	2.5	blank	1.0	175.90107607841492	
7	75.97788214683533	movie	1		300	5.0	2.5	blank	1.0	176.31764721870422	2.5003459453582764
7	77.16170907020569	pulse	1	t		5.0	2.5	blank	1.0	177.50147414207458	
7	78.4782280921936	fix_post	2		12	5.0	2.5	blank	1.0	178.8179931640625	0.10001206398010254
8	78.5782401561737	fix_pre	0		120	6.0	2.5	/experiments/knapen_AOT/AOT_stimuli/rescaled_final/1607_rv.mp4	0.0	178.9180052280426	1.0002048015594482
8	78.76191210746765	pulse	0	t		6.0	2.5	/experiments/knapen_AOT/AOT_stimuli/rescaled_final/1607_rv.mp4	0.0	179.10167717933655	
8	79.57844495773315	movie	1		245	6.0	2.5	/experiments/knapen_AOT/AOT_stimuli/rescaled_final/1607_rv.mp4	0.0	179.91821002960205	2.5003089904785156
8	80.36207103729248	pulse	1	t		6.0	2.5	/experiments/knapen_AOT/AOT_stimuli/rescaled_final/1607_rv.mp4	0.0	180.70183610916138	
8	81.96229910850525	pulse	1	t		6.0	2.5	/experiments/knapen_AOT/AOT_stimuli/rescaled_final/1607_rv.mp4	0.0	182.30206418037415	
8	82.07875394821167	fix_post	2		12	6.0	2.5	/experiments/knapen_AOT/AOT_stimuli/rescaled_final/1607_rv.mp4	0.0	182.41851902008057	0.1000370979309082
9	82.17879104614258	fix_pre	0		120	7.0	2.5	/experiments/knapen_AOT/AOT_stimuli/rescaled_final/1503_rv.mp4	0.0	182.51855611801147	1.0001530647277832
9	83.17894411087036	movie	1		244	7.0	2.5	/experiments/knapen_AOT/AOT_stimuli/rescaled_final/1503_rv.mp4	0.0	183.51870918273926	2.492020845413208
9	83.56373500823975	pulse	1	t		7.0	2.5	/experiments/knapen_AOT/AOT_stimuli/rescaled_final/1503_rv.mp4	0.0	183.90350008010864	
9	85.16298294067383	pulse	1	t		7.0	2.5	/experiments/knapen_AOT/AOT_stimuli/rescaled_final/1503_rv.mp4	0.0	185.50274801254272	
9	85.67096495628357	fix_post	2		12	7.0	2.5	/experiments/knapen_AOT/AOT_stimuli/rescaled_final/1503_rv.mp4	0.0	186.01073002815247	0.10005617141723633
10	85.7710211277008	fix_pre	0		120	8.0	2.5	/experiments/knapen_AOT/AOT_stimuli/rescaled_final/0316_rv.mp4	0.0	186.1107861995697	1.000140905380249
10	86.76306509971619	pulse	0	t		8.0	2.5	/experiments/knapen_AOT/AOT_stimuli/rescaled_final/0316_rv.mp4	0.0	187.10283017158508	
10	86.77116203308105	movie	1		247	8.0	2.5	/experiments/knapen_AOT/AOT_stimuli/rescaled_final/0316_rv.mp4	0.0	187.11092710494995	2.5086829662323
10	88.3639600276947	pulse	1	t		8.0	2.5	/experiments/knapen_AOT/AOT_stimuli/rescaled_final/0316_rv.mp4	0.0	188.7037250995636	
10	89.27984499931335	fix_post	2		12	8.0	2.5	/experiments/knapen_AOT/AOT_stimuli/rescaled_final/0316_rv.mp4	0.0	189.61961007118225	0.10003805160522461
11	89.37988305091858	fix_pre	0		120	9.0	2.5	/experiments/knapen_AOT/AOT_stimuli/rescaled_final/0746_rv.mp4	0.0	189.71964812278748	1.00016188621521
11	89.96357202529907	pulse	0	t		9.0	2.5	/experiments/knapen_AOT/AOT_stimuli/rescaled_final/0746_rv.mp4	0.0	190.30333709716797	
11	90.38004493713379	movie	1		245	9.0	2.5	/experiments/knapen_AOT/AOT_stimuli/rescaled_final/0746_rv.mp4	0.0	190.71981000900269	2.50044322013855
11	91.56389713287354	pulse	1	t		9.0	2.5	/experiments/knapen_AOT/AOT_stimuli/rescaled_final/0746_rv.mp4	0.0	191.90366220474243	
11	92.88048815727234	fix_post	2		12	9.0	2.5	/experiments/knapen_AOT/AOT_stimuli/rescaled_final/0746_rv.mp4	0.0	193.22025322914124	0.09990882873535156
12	92.98039698600769	fix_pre	0		120	10.0	2.5	/experiments/knapen_AOT/AOT_stimuli/rescaled_final/1113_fw.mp4	0.0	193.3201620578766	1.00018310546875
12	93.15657496452332	pulse	0	t		10.0	2.5	/experiments/knapen_AOT/AOT_stimuli/rescaled_final/1113_fw.mp4	0.0	193.4963400363922	
12	93.98058009147644	movie	1		243	10.0	2.5	/experiments/knapen_AOT/AOT_stimuli/rescaled_final/1113_fw.mp4	0.0	194.32034516334534	2.50039005279541
12	94.75717997550964	pulse	1	t		10.0	2.5	/experiments/knapen_AOT/AOT_stimuli/rescaled_final/1113_fw.mp4	0.0	195.09694504737854	
12	96.3641710281372	pulse	1	t		10.0	2.5	/experiments/knapen_AOT/AOT_stimuli/rescaled_final/1113_fw.mp4	0.0	196.7039361000061	
12	96.48097014427185	fix_post	2		12	10.0	2.5	/experiments/knapen_AOT/AOT_stimuli/rescaled_final/1113_fw.mp4	0.0	196.82073521614075	0.09998297691345215
13	96.5809531211853	fix_pre	0		120	11.0	2.5	/experiments/knapen_AOT/AOT_stimuli/rescaled_final/1649_rv.mp4	0.0	196.9207181930542	1.000128984451294
13	97.5810821056366	movie	1		243	11.0	2.5	/experiments/knapen_AOT/AOT_stimuli/rescaled_final/1649_rv.mp4	0.0	197.9208471775055	2.492050886154175
13	97.9565019607544	pulse	1	t		11.0	2.5	/experiments/knapen_AOT/AOT_stimuli/rescaled_final/1649_rv.mp4	0.0	198.2962670326233	
13	99.55662393569946	pulse	1	t		11.0	2.5	/experiments/knapen_AOT/AOT_stimuli/rescaled_final/1649_rv.mp4	0.0	199.89638900756836	
13	100.07313299179077	fix_post	2		12	11.0	2.5	/experiments/knapen_AOT/AOT_stimuli/rescaled_final/1649_rv.mp4	0.0	200.41289806365967	0.10000395774841309
14	100.17313694953918	fix_pre	0		119	12.0	2.5	blank	1.0	200.51290202140808	0.9918351173400879
14	101.15681314468384	pulse	0	t		12.0	2.5	blank	1.0	201.49657821655273	
14	101.16497206687927	movie	1		301	12.0	2.5	blank	1.0	201.50473713874817	2.5087249279022217
14	102.75713801383972	pulse	1	t		12.0	2.5	blank	1.0	203.09690308570862	
14	103.6736969947815	fix_post	2		12	12.0	2.5	blank	1.0	204.0134620666504	0.10000801086425781
15	103.77370500564575	fix_pre	0		118	13.0	2.5	/experiments/knapen_AOT/AOT_stimuli/rescaled_final/0218_rv.mp4	0.0	204.11347007751465	1.0001349449157715
15	104.3572211265564	pulse	0	t		13.0	2.5	/experiments/knapen_AOT/AOT_stimuli/rescaled_final/0218_rv.mp4	0.0	204.6969861984253	
15	104.77383995056152	movie	1		245	13.0	2.5	/experiments/knapen_AOT/AOT_stimuli/rescaled_final/0218_rv.mp4	0.0	205.11360502243042	2.5003750324249268
15	105.9576210975647	pulse	1	t		13.0	2.5	/experiments/knapen_AOT/AOT_stimuli/rescaled_final/0218_rv.mp4	0.0	206.2973861694336	
15	107.27421498298645	fix_post	2		12	13.0	2.5	/experiments/knapen_AOT/AOT_stimuli/rescaled_final/0218_rv.mp4	0.0	207.61398005485535	0.10000205039978027
16	107.37421703338623	fix_pre	0		120	14.0	2.5	/experiments/knapen_AOT/AOT_stimuli/rescaled_final/2138_fw.mp4	0.0	207.71398210525513	1.0001640319824219
16	107.5578260421753	pulse	0	t		14.0	2.5	/experiments/knapen_AOT/AOT_stimuli/rescaled_final/2138_fw.mp4	0.0	207.8975911140442	
16	108.37438106536865	movie	1		244	14.0	2.5	/experiments/knapen_AOT/AOT_stimuli/rescaled_final/2138_fw.mp4	0.0	208.71414613723755	2.5004398822784424
16	109.15801501274109	pulse	1	t		14.0	2.5	/experiments/knapen_AOT/AOT_stimuli/rescaled_final/2138_fw.mp4	0.0	209.49778008460999	
16	110.75833702087402	pulse	1	t		14.0	2.5	/experiments/knapen_AOT/AOT_stimuli/rescaled_final/2138_fw.mp4	0.0	211.09810209274292	
16	110.8748209476471	fix_post	2		12	14.0	2.5	/experiments/knapen_AOT/AOT_stimuli/rescaled_final/2138_fw.mp4	0.0	211.214586019516	0.099945068359375
17	110.97476601600647	fix_pre	0		120	15.0	2.5	/experiments/knapen_AOT/AOT_stimuli/rescaled_final/1435_fw.mp4	0.0	211.31453108787537	1.0001270771026611
17	111.97489309310913	movie	1		242	15.0	2.5	/experiments/knapen_AOT/AOT_stimuli/rescaled_final/1435_fw.mp4	0.0	212.31465816497803	2.4920449256896973
17	112.35910701751709	pulse	1	t		15.0	2.5	/experiments/knapen_AOT/AOT_stimuli/rescaled_final/1435_fw.mp4	0.0	212.698872089386	
17	113.9587230682373	pulse	1	t		15.0	2.5	/experiments/knapen_AOT/AOT_stimuli/rescaled_final/1435_fw.mp4	0.0	214.2984881401062	
17	114.46693801879883	fix_post	2		12	15.0	2.5	/experiments/knapen_AOT/AOT_stimuli/rescaled_final/1435_fw.mp4	0.0	214.80670309066772	0.10004711151123047
18	114.56698513031006	fix_pre	0		120	16.0	2.5	/experiments/knapen_AOT/AOT_stimuli/rescaled_final/1981_rv.mp4	0.0	214.90675020217896	1.000128984451294
18	115.55910515785217	pulse	0	t		16.0	2.5	/experiments/knapen_AOT/AOT_stimuli/rescaled_final/1981_rv.mp4	0.0	215.89887022972107	
18	115.56711411476135	movie	1		245	16.0	2.5	/experiments/knapen_AOT/AOT_stimuli/rescaled_final/1981_rv.mp4	0.0	215.90687918663025	2.5087668895721436
18	117.15982794761658	pulse	1	t		16.0	2.5	/experiments/knapen_AOT/AOT_stimuli/rescaled_final/1981_rv.mp4	0.0	217.49959301948547	
18	118.0758810043335	fix_post	2		12	16.0	2.5	/experiments/knapen_AOT/AOT_stimuli/rescaled_final/1981_rv.mp4	0.0	218.4156460762024	0.09997797012329102
19	118.17585897445679	fix_pre	0		120	17.0	2.5	/experiments/knapen_AOT/AOT_stimuli/rescaled_final/1140_fw.mp4	0.0	218.51562404632568	1.0001330375671387
19	118.75939512252808	pulse	0	t		17.0	2.5	/experiments/knapen_AOT/AOT_stimuli/rescaled_final/1140_fw.mp4	0.0	219.09916019439697	
19	119.17599201202393	movie	1		243	17.0	2.5	/experiments/knapen_AOT/AOT_stimuli/rescaled_final/1140_fw.mp4	0.0	219.51575708389282	2.500373125076294
19	120.35981106758118	pulse	1	t		17.0	2.5	/experiments/knapen_AOT/AOT_stimuli/rescaled_final/1140_fw.mp4	0.0	220.69957613945007	
19	121.67636513710022	fix_post	2		12	17.0	2.5	/experiments/knapen_AOT/AOT_stimuli/rescaled_final/1140_fw.mp4	0.0	222.01613020896912	0.10000395774841309
20	121.77636909484863	fix_pre	0		120	18.0	2.5	/experiments/knapen_AOT/AOT_stimuli/rescaled_final/1461_fw.mp4	0.0	222.11613416671753	1.000148057937622
20	121.96005511283875	pulse	0	t		18.0	2.5	/experiments/knapen_AOT/AOT_stimuli/rescaled_final/1461_fw.mp4	0.0	222.29982018470764	
20	122.77651715278625	movie	1		247	18.0	2.5	/experiments/knapen_AOT/AOT_stimuli/rescaled_final/1461_fw.mp4	0.0	223.11628222465515	2.5003387928009033
20	123.56026411056519	pulse	1	t		18.0	2.5	/experiments/knapen_AOT/AOT_stimuli/rescaled_final/1461_fw.mp4	0.0	223.90002918243408	
20	125.16037797927856	pulse	1	t		18.0	2.5	/experiments/knapen_AOT/AOT_stimuli/rescaled_final/1461_fw.mp4	0.0	225.50014305114746	
20	125.27685594558716	fix_post	2		12	18.0	2.5	/experiments/knapen_AOT/AOT_stimuli/rescaled_final/1461_fw.mp4	0.0	225.61662101745605	0.10004711151123047
21	125.37690305709839	fix_pre	0		120	19.0	2.5	blank	1.0	225.71666812896729	1.0001490116119385
21	126.37705206871033	movie	1		299	19.0	2.5	blank	1.0	226.71681714057922	2.4920520782470703
21	126.7607159614563	pulse	1	t		19.0	2.5	blank	1.0	227.1004810333252	
21	128.3609311580658	pulse	1	t		19.0	2.5	blank	1.0	228.7006962299347	
21	128.8691041469574	fix_post	2		12	19.0	2.5	blank	1.0	229.2088692188263	0.1000359058380127
22	128.9691400527954	fix_pre	0		120	20.0	2.5	/experiments/knapen_AOT/AOT_stimuli/rescaled_final/0144_fw.mp4	0.0	229.3089051246643	1.0001170635223389
22	129.961177110672	pulse	0	t		20.0	2.5	/experiments/knapen_AOT/AOT_stimuli/rescaled_final/0144_fw.mp4	0.0	230.3009421825409	
22	129.96925711631775	movie	1		245	20.0	2.5	/experiments/knapen_AOT/AOT_stimuli/rescaled_final/0144_fw.mp4	0.0	230.30902218818665	2.5087318420410156
22	131.56257700920105	pulse	1	t		20.0	2.5	/experiments/knapen_AOT/AOT_stimuli/rescaled_final/0144_fw.mp4	0.0	231.90234208106995	
22	132.47798895835876	fix_post	2		12	20.0	2.5	/experiments/knapen_AOT/AOT_stimuli/rescaled_final/0144_fw.mp4	0.0	232.81775403022766	0.09996700286865234
23	132.57795596122742	fix_pre	0		120	21.0	2.5	/experiments/knapen_AOT/AOT_stimuli/rescaled_final/0488_fw.mp4	0.0	232.9177210330963	1.0001699924468994
23	133.16159915924072	pulse	0	t		21.0	2.5	/experiments/knapen_AOT/AOT_stimuli/rescaled_final/0488_fw.mp4	0.0	233.50136423110962	
23	133.57812595367432	movie	1		245	21.0	2.5	/experiments/knapen_AOT/AOT_stimuli/rescaled_final/0488_fw.mp4	0.0	233.9178910255432	2.5003771781921387
23	134.7584879398346	pulse	1	t		21.0	2.5	/experiments/knapen_AOT/AOT_stimuli/rescaled_final/0488_fw.mp4	0.0	235.0982530117035	
23	136.07850313186646	fix_post	2		12	21.0	2.5	/experiments/knapen_AOT/AOT_stimuli/rescaled_final/0488_fw.mp4	0.0	236.41826820373535	0.09999489784240723
24	136.17849802970886	fix_pre	0		120	22.0	2.5	/experiments/knapen_AOT/AOT_stimuli/rescaled_final/1429_rv.mp4	0.0	236.51826310157776	1.0001530647277832
24	136.36223006248474	pulse	0	t		22.0	2.5	/experiments/knapen_AOT/AOT_stimuli/rescaled_final/1429_rv.mp4	0.0	236.70199513435364	
24	137.17865109443665	movie	1		244	22.0	2.5	/experiments/knapen_AOT/AOT_stimuli/rescaled_final/1429_rv.mp4	0.0	237.51841616630554	2.500401020050049
24	137.96232199668884	pulse	1	t		22.0	2.5	/experiments/knapen_AOT/AOT_stimuli/rescaled_final/1429_rv.mp4	0.0	238.30208706855774	
24	139.56259298324585	pulse	1	t		22.0	2.5	/experiments/knapen_AOT/AOT_stimuli/rescaled_final/1429_rv.mp4	0.0	239.90235805511475	
24	139.6790521144867	fix_post	2		12	22.0	2.5	/experiments/knapen_AOT/AOT_stimuli/rescaled_final/1429_rv.mp4	0.0	240.0188171863556	0.09999394416809082
25	139.77904605865479	fix_pre	0		120	23.0	2.5	/experiments/knapen_AOT/AOT_stimuli/rescaled_final/0090_rv.mp4	0.0	240.11881113052368	1.0001730918884277
25	140.7792191505432	movie	1		244	23.0	2.5	/experiments/knapen_AOT/AOT_stimuli/rescaled_final/0090_rv.mp4	0.0	241.1189842224121	2.4920108318328857
25	141.16335701942444	pulse	1	t		23.0	2.5	/experiments/knapen_AOT/AOT_stimuli/rescaled_final/0090_rv.mp4	0.0	241.50312209129333	
25	142.76312708854675	pulse	1	t		23.0	2.5	/experiments/knapen_AOT/AOT_stimuli/rescaled_final/0090_rv.mp4	0.0	243.10289216041565	
25	143.2712299823761	fix_post	2		12	23.0	2.5	/experiments/knapen_AOT/AOT_stimuli/rescaled_final/0090_rv.mp4	0.0	243.610995054245	0.10001397132873535
26	143.37124395370483	fix_pre	0		120	24.0	2.5	/experiments/knapen_AOT/AOT_stimuli/rescaled_final/1268_rv.mp4	0.0	243.71100902557373	1.0001661777496338
26	144.35582995414734	pulse	0	t		24.0	2.5	/experiments/knapen_AOT/AOT_stimuli/rescaled_final/1268_rv.mp4	0.0	244.69559502601624	
26	144.37141013145447	movie	1		247	24.0	2.5	/experiments/knapen_AOT/AOT_stimuli/rescaled_final/1268_rv.mp4	0.0	244.71117520332336	2.50870680809021
26	145.9640760421753	pulse	1	t		24.0	2.5	/experiments/knapen_AOT/AOT_stimuli/rescaled_final/1268_rv.mp4	0.0	246.3038411140442	
26	146.88011693954468	fix_post	2		12	24.0	2.5	/experiments/knapen_AOT/AOT_stimuli/rescaled_final/1268_rv.mp4	0.0	247.21988201141357	0.09999203681945801
27	146.98010897636414	fix_pre	0		120	25.0	2.5	/experiments/knapen_AOT/AOT_stimuli/rescaled_final/1384_rv.mp4	0.0	247.31987404823303	1.0001420974731445
27	147.55632209777832	pulse	0	t		25.0	2.5	/experiments/knapen_AOT/AOT_stimuli/rescaled_final/1384_rv.mp4	0.0	247.89608716964722	
27	147.98025107383728	movie	1		244	25.0	2.5	/experiments/knapen_AOT/AOT_stimuli/rescaled_final/1384_rv.mp4	0.0	248.32001614570618	2.5003740787506104
27	149.16026306152344	pulse	1	t		25.0	2.5	/experiments/knapen_AOT/AOT_stimuli/rescaled_final/1384_rv.mp4	0.0	249.50002813339233	
27	150.4806251525879	fix_post	2		12	25.0	2.5	/experiments/knapen_AOT/AOT_stimuli/rescaled_final/1384_rv.mp4	0.0	250.8203902244568	0.10002589225769043
28	150.58065104484558	fix_pre	0		120	26.0	2.5	/experiments/knapen_AOT/AOT_stimuli/rescaled_final/1358_fw.mp4	0.0	250.92041611671448	1.0003130435943604
28	150.75597310066223	pulse	0	t		26.0	2.5	/experiments/knapen_AOT/AOT_stimuli/rescaled_final/1358_fw.mp4	0.0	251.09573817253113	
28	151.58096408843994	movie	1		243	26.0	2.5	/experiments/knapen_AOT/AOT_stimuli/rescaled_final/1358_fw.mp4	0.0	251.92072916030884	2.500248908996582
28	152.35612511634827	pulse	1	t		26.0	2.5	/experiments/knapen_AOT/AOT_stimuli/rescaled_final/1358_fw.mp4	0.0	252.69589018821716	
28	153.9563331604004	pulse	1	t		26.0	2.5	/experiments/knapen_AOT/AOT_stimuli/rescaled_final/1358_fw.mp4	0.0	254.2960982322693	
28	154.08121299743652	fix_post	2		12	26.0	2.5	/experiments/knapen_AOT/AOT_stimuli/rescaled_final/1358_fw.mp4	0.0	254.42097806930542	0.10003209114074707
29	154.18124508857727	fix_pre	0		119	27.0	2.5	/experiments/knapen_AOT/AOT_stimuli/rescaled_final/0361_rv.mp4	0.0	254.52101016044617	0.9917728900909424
29	155.1730179786682	movie	1		245	27.0	2.5	/experiments/knapen_AOT/AOT_stimuli/rescaled_final/0361_rv.mp4	0.0	255.5127830505371	2.50039005279541
29	155.55715203285217	pulse	1	t		27.0	2.5	/experiments/knapen_AOT/AOT_stimuli/rescaled_final/0361_rv.mp4	0.0	255.89691710472107	
29	157.15685415267944	pulse	1	t		27.0	2.5	/experiments/knapen_AOT/AOT_stimuli/rescaled_final/0361_rv.mp4	0.0	257.49661922454834	
29	157.67340803146362	fix_post	2		12	27.0	2.5	/experiments/knapen_AOT/AOT_stimuli/rescaled_final/0361_rv.mp4	0.0	258.0131731033325	0.10004496574401855
30	157.77345299720764	fix_pre	0		119	28.0	2.5	blank	1.0	258.11321806907654	0.9917659759521484
30	158.75708103179932	pulse	0	t		28.0	2.5	blank	1.0	259.0968461036682	
30	158.7652189731598	movie	1		301	28.0	2.5	blank	1.0	259.1049840450287	2.5087130069732666
30	160.35727500915527	pulse	1	t		28.0	2.5	blank	1.0	260.69704008102417	
30	161.27393198013306	fix_post	2		12	28.0	2.5	blank	1.0	261.61369705200195	0.10000896453857422
31	161.37394094467163	fix_pre	0		120	29.0	2.5	/experiments/knapen_AOT/AOT_stimuli/rescaled_final/0641_rv.mp4	0.0	261.7137060165405	1.0001420974731445
31	161.95755410194397	pulse	0	t		29.0	2.5	/experiments/knapen_AOT/AOT_stimuli/rescaled_final/0641_rv.mp4	0.0	262.29731917381287	
31	162.37408304214478	movie	1		244	29.0	2.5	/experiments/knapen_AOT/AOT_stimuli/rescaled_final/0641_rv.mp4	0.0	262.7138481140137	2.501132011413574
31	163.5579559803009	pulse	1	t		29.0	2.5	/experiments/knapen_AOT/AOT_stimuli/rescaled_final/0641_rv.mp4	0.0	263.8977210521698	
31	164.87521505355835	fix_post	2		10	29.0	2.5	/experiments/knapen_AOT/AOT_stimuli/rescaled_final/0641_rv.mp4	0.0	265.21498012542725	0.09927988052368164
32	164.97449493408203	fix_pre	0		120	30.0	2.5	/experiments/knapen_AOT/AOT_stimuli/rescaled_final/0305_fw.mp4	0.0	265.3142600059509	1.000143051147461
32	165.15801310539246	pulse	0	t		30.0	2.5	/experiments/knapen_AOT/AOT_stimuli/rescaled_final/0305_fw.mp4	0.0	265.49777817726135	
32	165.9746379852295	movie	1		244	30.0	2.5	/experiments/knapen_AOT/AOT_stimuli/rescaled_final/0305_fw.mp4	0.0	266.3144030570984	2.5003960132598877
32	166.7582049369812	pulse	1	t		30.0	2.5	/experiments/knapen_AOT/AOT_stimuli/rescaled_final/0305_fw.mp4	0.0	267.0979700088501	
32	168.35843515396118	pulse	1	t		30.0	2.5	/experiments/knapen_AOT/AOT_stimuli/rescaled_final/0305_fw.mp4	0.0	268.6982002258301	
32	168.47503399848938	fix_post	2		12	30.0	2.5	/experiments/knapen_AOT/AOT_stimuli/rescaled_final/0305_fw.mp4	0.0	268.8147990703583	0.09997105598449707
33	168.57500505447388	fix_pre	0		119	31.0	2.5	/experiments/knapen_AOT/AOT_stimuli/rescaled_final/1932_fw.mp4	0.0	268.9147701263428	0.9918339252471924
33	169.56683897972107	movie	1		246	31.0	2.5	/experiments/knapen_AOT/AOT_stimuli/rescaled_final/1932_fw.mp4	0.0	269.90660405158997	2.500347137451172
33	169.9589569568634	pulse	1	t		31.0	2.5	/experiments/knapen_AOT/AOT_stimuli/rescaled_final/1932_fw.mp4	0.0	270.2987220287323	
33	171.55902004241943	pulse	1	t		31.0	2.5	/experiments/knapen_AOT/AOT_stimuli/rescaled_final/1932_fw.mp4	0.0	271.89878511428833	
33	172.06718611717224	fix_post	2		12	31.0	2.5	/experiments/knapen_AOT/AOT_stimuli/rescaled_final/1932_fw.mp4	0.0	272.40695118904114	0.1000518798828125
34	172.16723799705505	fix_pre	0		120	32.0	2.5	/experiments/knapen_AOT/AOT_stimuli/rescaled_final/1226_fw.mp4	0.0	272.50700306892395	1.000143051147461
34	173.15916299819946	pulse	0	t		32.0	2.5	/experiments/knapen_AOT/AOT_stimuli/rescaled_final/1226_fw.mp4	0.0	273.49892807006836	
34	173.16738104820251	movie	1		245	32.0	2.5	/experiments/knapen_AOT/AOT_stimuli/rescaled_final/1226_fw.mp4	0.0	273.5071461200714	2.5086510181427
34	174.75977206230164	pulse	1	t		32.0	2.5	/experiments/knapen_AOT/AOT_stimuli/rescaled_final/1226_fw.mp4	0.0	275.09953713417053	
34	175.67603206634521	fix_post	2		12	32.0	2.5	/experiments/knapen_AOT/AOT_stimuli/rescaled_final/1226_fw.mp4	0.0	276.0157971382141	0.10004687309265137
35	175.77607893943787	fix_pre	0		120	33.0	2.5	blank	1.0	276.11584401130676	1.0001471042633057
35	176.3597719669342	pulse	0	t		33.0	2.5	blank	1.0	276.6995370388031	
35	176.77622604370117	movie	1		300	33.0	2.5	blank	1.0	277.11599111557007	2.5003950595855713
35	177.96002411842346	pulse	1	t		33.0	2.5	blank	1.0	278.29978919029236	
35	179.27662110328674	fix_post	2		12	33.0	2.5	blank	1.0	279.61638617515564	0.09996199607849121
36	179.37658309936523	fix_pre	0		120	34.0	2.5	/experiments/knapen_AOT/AOT_stimuli/rescaled_final/2129_fw.mp4	0.0	279.71634817123413	1.0001628398895264
36	179.56023001670837	pulse	0	t		34.0	2.5	/experiments/knapen_AOT/AOT_stimuli/rescaled_final/2129_fw.mp4	0.0	279.89999508857727	
36	180.37674593925476	movie	1		244	34.0	2.5	/experiments/knapen_AOT/AOT_stimuli/rescaled_final/2129_fw.mp4	0.0	280.71651101112366	2.5003809928894043
36	181.16037607192993	pulse	1	t		34.0	2.5	/experiments/knapen_AOT/AOT_stimuli/rescaled_final/2129_fw.mp4	0.0	281.5001411437988	
36	182.76074814796448	pulse	1	t		34.0	2.5	/experiments/knapen_AOT/AOT_stimuli/rescaled_final/2129_fw.mp4	0.0	283.1005132198334	
36	182.87712693214417	fix_post	2		12	34.0	2.5	/experiments/knapen_AOT/AOT_stimuli/rescaled_final/2129_fw.mp4	0.0	283.21689200401306	0.10004019737243652
37	182.9771671295166	fix_pre	0		120	35.0	2.5	/experiments/knapen_AOT/AOT_stimuli/rescaled_final/0989_fw.mp4	0.0	283.3169322013855	1.0001568794250488
37	183.97732400894165	movie	1		244	35.0	2.5	/experiments/knapen_AOT/AOT_stimuli/rescaled_final/0989_fw.mp4	0.0	284.31708908081055	2.4920449256896973
37	184.36149716377258	pulse	1	t		35.0	2.5	/experiments/knapen_AOT/AOT_stimuli/rescaled_final/0989_fw.mp4	0.0	284.7012622356415	
37	185.96117496490479	pulse	1	t		35.0	2.5	/experiments/knapen_AOT/AOT_stimuli/rescaled_final/0989_fw.mp4	0.0	286.3009400367737	
37	186.46936893463135	fix_post	2		12	35.0	2.5	/experiments/knapen_AOT/AOT_stimuli/rescaled_final/0989_fw.mp4	0.0	286.80913400650024	0.09998703002929688
38	186.56935596466064	fix_pre	0		120	36.0	2.5	/experiments/knapen_AOT/AOT_stimuli/rescaled_final/0629_fw.mp4	0.0	286.90912103652954	1.0001530647277832
38	187.56131505966187	pulse	0	t		36.0	2.5	/experiments/knapen_AOT/AOT_stimuli/rescaled_final/0629_fw.mp4	0.0	287.90108013153076	
38	187.56950902938843	movie	1		246	36.0	2.5	/experiments/knapen_AOT/AOT_stimuli/rescaled_final/0629_fw.mp4	0.0	287.9092741012573	2.508690118789673
38	189.1623179912567	pulse	1	t		36.0	2.5	/experiments/knapen_AOT/AOT_stimuli/rescaled_final/0629_fw.mp4	0.0	289.5020830631256	
38	190.0781991481781	fix_post	2		12	36.0	2.5	/experiments/knapen_AOT/AOT_stimuli/rescaled_final/0629_fw.mp4	0.0	290.417964220047	0.10002493858337402
39	190.17822408676147	fix_pre	0		120	37.0	2.5	/experiments/knapen_AOT/AOT_stimuli/rescaled_final/0218_rv.mp4	0.0	290.51798915863037	1.0001330375671387
39	190.76191401481628	pulse	0	t		37.0	2.5	/experiments/knapen_AOT/AOT_stimuli/rescaled_final/0218_rv.mp4	0.0	291.1016790866852	
39	191.1783571243286	movie	1		245	37.0	2.5	/experiments/knapen_AOT/AOT_stimuli/rescaled_final/0218_rv.mp4	0.0	291.5181221961975	2.500408887863159
39	192.3622350692749	pulse	1	t		37.0	2.5	/experiments/knapen_AOT/AOT_stimuli/rescaled_final/0218_rv.mp4	0.0	292.7020001411438	
39	193.67876601219177	fix_post	2		12	37.0	2.5	/experiments/knapen_AOT/AOT_stimuli/rescaled_final/0218_rv.mp4	0.0	294.01853108406067	0.0999901294708252
40	193.7787561416626	fix_pre	0		120	38.0	2.5	/experiments/knapen_AOT/AOT_stimuli/rescaled_final/0878_rv.mp4	0.0	294.1185212135315	1.0001938343048096
40	193.9622859954834	pulse	0	t		38.0	2.5	/experiments/knapen_AOT/AOT_stimuli/rescaled_final/0878_rv.mp4	0.0	294.3020510673523	
40	194.7789499759674	movie	1		245	38.0	2.5	/experiments/knapen_AOT/AOT_stimuli/rescaled_final/0878_rv.mp4	0.0	295.1187150478363	2.5003671646118164
40	195.56262612342834	pulse	1	t		38.0	2.5	/experiments/knapen_AOT/AOT_stimuli/rescaled_final/0878_rv.mp4	0.0	295.90239119529724	
40	197.16088604927063	pulse	1	t		38.0	2.5	/experiments/knapen_AOT/AOT_stimuli/rescaled_final/0878_rv.mp4	0.0	297.5006511211395	
40	197.27931714057922	fix_post	2		12	38.0	2.5	/experiments/knapen_AOT/AOT_stimuli/rescaled_final/0878_rv.mp4	0.0	297.6190822124481	0.09998798370361328
41	197.37930512428284	fix_pre	0		119	39.0	2.5	/experiments/knapen_AOT/AOT_stimuli/rescaled_final/0892_rv.mp4	0.0	297.71907019615173	0.9918320178985596
41	198.3711371421814	movie	1		243	39.0	2.5	/experiments/knapen_AOT/AOT_stimuli/rescaled_final/0892_rv.mp4	0.0	298.7109022140503	2.50034499168396
41	198.7632191181183	pulse	1	t		39.0	2.5	/experiments/knapen_AOT/AOT_stimuli/rescaled_final/0892_rv.mp4	0.0	299.1029841899872	
41	200.35604310035706	pulse	1	t		39.0	2.5	/experiments/knapen_AOT/AOT_stimuli/rescaled_final/0892_rv.mp4	0.0	300.69580817222595	
41	200.87148213386536	fix_post	2		12	39.0	2.5	/experiments/knapen_AOT/AOT_stimuli/rescaled_final/0892_rv.mp4	0.0	301.21124720573425	0.1000058650970459
42	200.9714879989624	fix_pre	0		120	40.0	2.5	/experiments/knapen_AOT/AOT_stimuli/rescaled_final/0746_rv.mp4	0.0	301.3112530708313	1.0001959800720215
42	201.95603108406067	pulse	0	t		40.0	2.5	/experiments/knapen_AOT/AOT_stimuli/rescaled_final/0746_rv.mp4	0.0	302.29579615592957	
42	201.97168397903442	movie	1		246	40.0	2.5	/experiments/knapen_AOT/AOT_stimuli/rescaled_final/0746_rv.mp4	0.0	302.3114490509033	2.5086770057678223
42	203.5555739402771	pulse	1	t		40.0	2.5	/experiments/knapen_AOT/AOT_stimuli/rescaled_final/0746_rv.mp4	0.0	303.895339012146	
42	204.48036098480225	fix_post	2		12	40.0	2.5	/experiments/knapen_AOT/AOT_stimuli/rescaled_final/0746_rv.mp4	0.0	304.82012605667114	0.09998297691345215
43	204.5803439617157	fix_pre	0		120	41.0	2.5	blank	1.0	304.9201090335846	1.0001730918884277
43	205.15559315681458	pulse	0	t		41.0	2.5	blank	1.0	305.4953582286835	
43	205.58051705360413	movie	1		300	41.0	2.5	blank	1.0	305.920282125473	2.500372886657715
43	206.75587105751038	pulse	1	t		41.0	2.5	blank	1.0	307.0956361293793	
43	208.08088994026184	fix_post	2		12	41.0	2.5	blank	1.0	308.42065501213074	0.10001802444458008
44	208.18090796470642	fix_pre	0		120	42.0	2.5	/experiments/knapen_AOT/AOT_stimuli/rescaled_final/0878_rv.mp4	0.0	308.5206730365753	1.0001699924468994
44	208.3561761379242	pulse	0	t		42.0	2.5	/experiments/knapen_AOT/AOT_stimuli/rescaled_final/0878_rv.mp4	0.0	308.6959412097931	
44	209.18107795715332	movie	1		244	42.0	2.5	/experiments/knapen_AOT/AOT_stimuli/rescaled_final/0878_rv.mp4	0.0	309.5208430290222	2.5003511905670166
44	209.9563090801239	pulse	1	t		42.0	2.5	/experiments/knapen_AOT/AOT_stimuli/rescaled_final/0878_rv.mp4	0.0	310.2960741519928	
44	211.55661511421204	pulse	1	t		42.0	2.5	/experiments/knapen_AOT/AOT_stimuli/rescaled_final/0878_rv.mp4	0.0	311.89638018608093	
44	211.68142914772034	fix_post	2		11	42.0	2.5	/experiments/knapen_AOT/AOT_stimuli/rescaled_final/0878_rv.mp4	0.0	312.02119421958923	0.09170889854431152
45	211.77313804626465	fix_pre	0		120	43.0	2.5	/experiments/knapen_AOT/AOT_stimuli/rescaled_final/0293_fw.mp4	0.0	312.11290311813354	1.0001258850097656
45	212.7732639312744	movie	1		244	43.0	2.5	/experiments/knapen_AOT/AOT_stimuli/rescaled_final/0293_fw.mp4	0.0	313.1130290031433	2.500404119491577
45	213.1573131084442	pulse	1	t		43.0	2.5	/experiments/knapen_AOT/AOT_stimuli/rescaled_final/0293_fw.mp4	0.0	313.4970781803131	
45	214.75713515281677	pulse	1	t		43.0	2.5	/experiments/knapen_AOT/AOT_stimuli/rescaled_final/0293_fw.mp4	0.0	315.09690022468567	
45	215.273668050766	fix_post	2		12	43.0	2.5	/experiments/knapen_AOT/AOT_stimuli/rescaled_final/0293_fw.mp4	0.0	315.6134331226349	0.10000491142272949
46	215.37367296218872	fix_pre	0		119	44.0	2.5	/experiments/knapen_AOT/AOT_stimuli/rescaled_final/1830_fw.mp4	0.0	315.7134380340576	0.9918091297149658
46	216.35730910301208	pulse	0	t		44.0	2.5	/experiments/knapen_AOT/AOT_stimuli/rescaled_final/1830_fw.mp4	0.0	316.697074174881	
46	216.3654820919037	movie	1		245	44.0	2.5	/experiments/knapen_AOT/AOT_stimuli/rescaled_final/1830_fw.mp4	0.0	316.7052471637726	2.5086829662323
46	217.95849800109863	pulse	1	t		44.0	2.5	/experiments/knapen_AOT/AOT_stimuli/rescaled_final/1830_fw.mp4	0.0	318.29826307296753	
46	218.874165058136	fix_post	2		12	44.0	2.5	/experiments/knapen_AOT/AOT_stimuli/rescaled_final/1830_fw.mp4	0.0	319.2139301300049	0.10001492500305176
47	218.97417998313904	fix_pre	0		120	45.0	2.5	/experiments/knapen_AOT/AOT_stimuli/rescaled_final/0529_rv.mp4	0.0	319.31394505500793	1.000197172164917
47	219.55794405937195	pulse	0	t		45.0	2.5	/experiments/knapen_AOT/AOT_stimuli/rescaled_final/0529_rv.mp4	0.0	319.89770913124084	
47	219.97437715530396	movie	1		244	45.0	2.5	/experiments/knapen_AOT/AOT_stimuli/rescaled_final/0529_rv.mp4	0.0	320.31414222717285	2.5003559589385986
47	221.15815114974976	pulse	1	t		45.0	2.5	/experiments/knapen_AOT/AOT_stimuli/rescaled_final/0529_rv.mp4	0.0	321.49791622161865	
47	222.47473311424255	fix_post	2		12	45.0	2.5	/experiments/knapen_AOT/AOT_stimuli/rescaled_final/0529_rv.mp4	0.0	322.81449818611145	0.09997200965881348
48	222.57470512390137	fix_pre	0		120	46.0	2.5	/experiments/knapen_AOT/AOT_stimuli/rescaled_final/1607_fw.mp4	0.0	322.91447019577026	1.0001649856567383
48	222.75821709632874	pulse	0	t		46.0	2.5	/experiments/knapen_AOT/AOT_stimuli/rescaled_final/1607_fw.mp4	0.0	323.09798216819763	
48	223.5748701095581	movie	1		243	46.0	2.5	/experiments/knapen_AOT/AOT_stimuli/rescaled_final/1607_fw.mp4	0.0	323.914635181427	2.5003669261932373
48	224.3585240840912	pulse	1	t		46.0	2.5	/experiments/knapen_AOT/AOT_stimuli/rescaled_final/1607_fw.mp4	0.0	324.6982891559601	
48	225.9658830165863	pulse	1	t		46.0	2.5	/experiments/knapen_AOT/AOT_stimuli/rescaled_final/1607_fw.mp4	0.0	326.3056480884552	
48	226.07523703575134	fix_post	2		12	46.0	2.5	/experiments/knapen_AOT/AOT_stimuli/rescaled_final/1607_fw.mp4	0.0	326.41500210762024	0.10000896453857422
49	226.17524600028992	fix_pre	0		119	47.0	2.5	/experiments/knapen_AOT/AOT_stimuli/rescaled_final/1606_fw.mp4	0.0	326.5150110721588	0.9917891025543213
49	227.16703510284424	movie	1		244	47.0	2.5	/experiments/knapen_AOT/AOT_stimuli/rescaled_final/1606_fw.mp4	0.0	327.50680017471313	2.5004160404205322
49	227.5590660572052	pulse	1	t		47.0	2.5	/experiments/knapen_AOT/AOT_stimuli/rescaled_final/1606_fw.mp4	0.0	327.8988311290741	
49	229.1592149734497	pulse	1	t		47.0	2.5	/experiments/knapen_AOT/AOT_stimuli/rescaled_final/1606_fw.mp4	0.0	329.4989800453186	
49	229.66745114326477	fix_post	2		12	47.0	2.5	/experiments/knapen_AOT/AOT_stimuli/rescaled_final/1606_fw.mp4	0.0	330.00721621513367	0.10000491142272949
50	229.7674560546875	fix_pre	0		120	48.0	2.5	blank	1.0	330.1072211265564	1.0001320838928223
50	230.7595031261444	pulse	0	t		48.0	2.5	blank	1.0	331.0992681980133	
50	230.76758813858032	movie	1		301	48.0	2.5	blank	1.0	331.1073532104492	2.508754014968872
50	232.35967016220093	pulse	1	t		48.0	2.5	blank	1.0	332.6994352340698	
50	233.2763421535492	fix_post	2		12	48.0	2.5	blank	1.0	333.6161072254181	0.1000208854675293
51	233.37636303901672	fix_pre	0		120	49.0	2.5	/experiments/knapen_AOT/AOT_stimuli/rescaled_final/0079_fw.mp4	0.0	333.7161281108856	1.0001389980316162
51	233.96000909805298	pulse	0	t		49.0	2.5	/experiments/knapen_AOT/AOT_stimuli/rescaled_final/0079_fw.mp4	0.0	334.2997741699219	
51	234.37650203704834	movie	1		244	49.0	2.5	/experiments/knapen_AOT/AOT_stimuli/rescaled_final/0079_fw.mp4	0.0	334.71626710891724	2.5004990100860596
51	235.56031799316406	pulse	1	t		49.0	2.5	/experiments/knapen_AOT/AOT_stimuli/rescaled_final/0079_fw.mp4	0.0	335.90008306503296	
51	236.8770010471344	fix_post	2		12	49.0	2.5	/experiments/knapen_AOT/AOT_stimuli/rescaled_final/0079_fw.mp4	0.0	337.2167661190033	0.099884033203125
52	236.97688508033752	fix_pre	0		120	50.0	2.5	/experiments/knapen_AOT/AOT_stimuli/rescaled_final/0883_rv.mp4	0.0	337.3166501522064	1.0001220703125
52	237.16039204597473	pulse	0	t		50.0	2.5	/experiments/knapen_AOT/AOT_stimuli/rescaled_final/0883_rv.mp4	0.0	337.5001571178436	
52	237.97700715065002	movie	1		245	50.0	2.5	/experiments/knapen_AOT/AOT_stimuli/rescaled_final/0883_rv.mp4	0.0	338.3167722225189	2.5003647804260254
52	238.760733127594	pulse	1	t		50.0	2.5	/experiments/knapen_AOT/AOT_stimuli/rescaled_final/0883_rv.mp4	0.0	339.1004981994629	
52	240.35847210884094	pulse	1	t		50.0	2.5	/experiments/knapen_AOT/AOT_stimuli/rescaled_final/0883_rv.mp4	0.0	340.69823718070984	
52	240.47737193107605	fix_post	2		12	50.0	2.5	/experiments/knapen_AOT/AOT_stimuli/rescaled_final/0883_rv.mp4	0.0	340.81713700294495	0.10004115104675293
53	240.5774130821228	fix_pre	0		120	51.0	2.5	/experiments/knapen_AOT/AOT_stimuli/rescaled_final/1844_fw.mp4	0.0	340.9171781539917	1.0001130104064941
53	241.5775260925293	movie	1		245	51.0	2.5	/experiments/knapen_AOT/AOT_stimuli/rescaled_final/1844_fw.mp4	0.0	341.9172911643982	2.4920358657836914
53	241.9623670578003	pulse	1	t		51.0	2.5	/experiments/knapen_AOT/AOT_stimuli/rescaled_final/1844_fw.mp4	0.0	342.3021321296692	
53	243.5613751411438	pulse	1	t		51.0	2.5	/experiments/knapen_AOT/AOT_stimuli/rescaled_final/1844_fw.mp4	0.0	343.9011402130127	
53	244.069561958313	fix_post	2		12	51.0	2.5	/experiments/knapen_AOT/AOT_stimuli/rescaled_final/1844_fw.mp4	0.0	344.4093270301819	0.10003018379211426
54	244.1695921421051	fix_pre	0		120	52.0	2.5	/experiments/knapen_AOT/AOT_stimuli/rescaled_final/0079_fw.mp4	0.0	344.509357213974	1.000140905380249
54	245.16169214248657	pulse	0	t		52.0	2.5	/experiments/knapen_AOT/AOT_stimuli/rescaled_final/0079_fw.mp4	0.0	345.50145721435547	
54	245.16973304748535	movie	1		245	52.0	2.5	/experiments/knapen_AOT/AOT_stimuli/rescaled_final/0079_fw.mp4	0.0	345.50949811935425	2.508734941482544
54	246.76353216171265	pulse	1	t		52.0	2.5	/experiments/knapen_AOT/AOT_stimuli/rescaled_final/0079_fw.mp4	0.0	347.10329723358154	
54	247.6784679889679	fix_post	2		12	52.0	2.5	/experiments/knapen_AOT/AOT_stimuli/rescaled_final/0079_fw.mp4	0.0	348.0182330608368	0.10000300407409668
55	247.778470993042	fix_pre	0		120	53.0	2.5	/experiments/knapen_AOT/AOT_stimuli/rescaled_final/2071_rv.mp4	0.0	348.1182360649109	1.000143051147461
55	248.36207795143127	pulse	0	t		53.0	2.5	/experiments/knapen_AOT/AOT_stimuli/rescaled_final/2071_rv.mp4	0.0	348.70184302330017	
55	248.77861404418945	movie	1		244	53.0	2.5	/experiments/knapen_AOT/AOT_stimuli/rescaled_final/2071_rv.mp4	0.0	349.11837911605835	2.5003960132598877
55	249.96254014968872	pulse	1	t		53.0	2.5	/experiments/knapen_AOT/AOT_stimuli/rescaled_final/2071_rv.mp4	0.0	350.3023052215576	
55	251.27901005744934	fix_post	2		12	53.0	2.5	/experiments/knapen_AOT/AOT_stimuli/rescaled_final/2071_rv.mp4	0.0	351.61877512931824	0.09999990463256836
56	251.3790099620819	fix_pre	0		120	54.0	2.5	blank	1.0	351.7187750339508	1.0001471042633057
56	251.56263995170593	pulse	0	t		54.0	2.5	blank	1.0	351.90240502357483	
56	252.37915706634521	movie	1		300	54.0	2.5	blank	1.0	352.7189221382141	2.5003719329833984
56	253.16289114952087	pulse	1	t		54.0	2.5	blank	1.0	353.50265622138977	
56	254.76302909851074	pulse	1	t		54.0	2.5	blank	1.0	355.10279417037964	
56	254.8795289993286	fix_post	2		12	54.0	2.5	blank	1.0	355.2192940711975	0.100067138671875
57	254.9795961380005	fix_pre	0		120	55.0	2.5	/experiments/knapen_AOT/AOT_stimuli/rescaled_final/0529_rv.mp4	0.0	355.3193612098694	1.0000989437103271
57	255.97969508171082	movie	1		242	55.0	2.5	/experiments/knapen_AOT/AOT_stimuli/rescaled_final/0529_rv.mp4	0.0	356.3194601535797	2.4920520782470703
57	256.3642740249634	pulse	1	t		55.0	2.5	/experiments/knapen_AOT/AOT_stimuli/rescaled_final/0529_rv.mp4	0.0	356.7040390968323	
57	257.956148147583	pulse	1	t		55.0	2.5	/experiments/knapen_AOT/AOT_stimuli/rescaled_final/0529_rv.mp4	0.0	358.2959132194519	
57	258.4717471599579	fix_post	2		12	55.0	2.5	/experiments/knapen_AOT/AOT_stimuli/rescaled_final/0529_rv.mp4	0.0	358.8115122318268	0.09998178482055664
58	258.57172894477844	fix_pre	0		120	56.0	2.5	/experiments/knapen_AOT/AOT_stimuli/rescaled_final/1825_fw.mp4	0.0	358.91149401664734	1.0001699924468994
58	259.5562570095062	pulse	0	t		56.0	2.5	/experiments/knapen_AOT/AOT_stimuli/rescaled_final/1825_fw.mp4	0.0	359.8960220813751	
58	259.57189893722534	movie	1		245	56.0	2.5	/experiments/knapen_AOT/AOT_stimuli/rescaled_final/1825_fw.mp4	0.0	359.91166400909424	2.508690118789673
58	261.16543912887573	pulse	1	t		56.0	2.5	/experiments/knapen_AOT/AOT_stimuli/rescaled_final/1825_fw.mp4	0.0	361.50520420074463	
58	262.080589056015	fix_post	2		12	56.0	2.5	/experiments/knapen_AOT/AOT_stimuli/rescaled_final/1825_fw.mp4	0.0	362.4203541278839	0.10003209114074707
59	262.18062114715576	fix_pre	0		120	57.0	2.5	/experiments/knapen_AOT/AOT_stimuli/rescaled_final/0144_fw.mp4	0.0	362.52038621902466	1.0001850128173828
59	262.7567250728607	pulse	0	t		57.0	2.5	/experiments/knapen_AOT/AOT_stimuli/rescaled_final/0144_fw.mp4	0.0	363.0964901447296	
59	263.18080615997314	movie	1		244	57.0	2.5	/experiments/knapen_AOT/AOT_stimuli/rescaled_final/0144_fw.mp4	0.0	363.52057123184204	2.5003459453582764
59	264.3565740585327	pulse	1	t		57.0	2.5	/experiments/knapen_AOT/AOT_stimuli/rescaled_final/0144_fw.mp4	0.0	364.6963391304016	
59	265.6811521053314	fix_post	2		12	57.0	2.5	/experiments/knapen_AOT/AOT_stimuli/rescaled_final/0144_fw.mp4	0.0	366.0209171772003	0.09999895095825195
60	265.7811510562897	fix_pre	0		120	58.0	2.5	/experiments/knapen_AOT/AOT_stimuli/rescaled_final/1892_fw.mp4	0.0	366.12091612815857	1.0001440048217773
60	265.9563479423523	pulse	0	t		58.0	2.5	/experiments/knapen_AOT/AOT_stimuli/rescaled_final/1892_fw.mp4	0.0	366.2961130142212	
60	266.78129506111145	movie	1		245	58.0	2.5	/experiments/knapen_AOT/AOT_stimuli/rescaled_final/1892_fw.mp4	0.0	367.12106013298035	2.5004160404205322
60	267.5565860271454	pulse	1	t		58.0	2.5	/experiments/knapen_AOT/AOT_stimuli/rescaled_final/1892_fw.mp4	0.0	367.8963510990143	
60	269.1569890975952	pulse	1	t		58.0	2.5	/experiments/knapen_AOT/AOT_stimuli/rescaled_final/1892_fw.mp4	0.0	369.4967541694641	
60	269.281711101532	fix_post	2		12	58.0	2.5	/experiments/knapen_AOT/AOT_stimuli/rescaled_final/1892_fw.mp4	0.0	369.6214761734009	0.09998297691345215
61	269.38169407844543	fix_pre	0		120	59.0	2.5	/experiments/knapen_AOT/AOT_stimuli/rescaled_final/1572_fw.mp4	0.0	369.72145915031433	1.0001709461212158
61	270.38186502456665	movie	1		244	59.0	2.5	/experiments/knapen_AOT/AOT_stimuli/rescaled_final/1572_fw.mp4	0.0	370.72163009643555	2.4919869899749756
61	270.75711607933044	pulse	1	t		59.0	2.5	/experiments/knapen_AOT/AOT_stimuli/rescaled_final/1572_fw.mp4	0.0	371.09688115119934	
61	272.357351064682	pulse	1	t		59.0	2.5	/experiments/knapen_AOT/AOT_stimuli/rescaled_final/1572_fw.mp4	0.0	372.6971161365509	
61	272.8738520145416	fix_post	2		12	59.0	2.5	/experiments/knapen_AOT/AOT_stimuli/rescaled_final/1572_fw.mp4	0.0	373.2136170864105	0.10004496574401855
62	272.97389698028564	fix_pre	0		119	60.0	2.5	/experiments/knapen_AOT/AOT_stimuli/rescaled_final/0254_fw.mp4	0.0	373.31366205215454	0.9918651580810547
62	273.9575369358063	pulse	0	t		60.0	2.5	/experiments/knapen_AOT/AOT_stimuli/rescaled_final/0254_fw.mp4	0.0	374.29730200767517	
62	273.9657621383667	movie	1		246	60.0	2.5	/experiments/knapen_AOT/AOT_stimuli/rescaled_final/0254_fw.mp4	0.0	374.3055272102356	2.5086169242858887
62	275.55838894844055	pulse	1	t		60.0	2.5	/experiments/knapen_AOT/AOT_stimuli/rescaled_final/0254_fw.mp4	0.0	375.89815402030945	
62	276.4743790626526	fix_post	2		12	60.0	2.5	/experiments/knapen_AOT/AOT_stimuli/rescaled_final/0254_fw.mp4	0.0	376.8141441345215	0.1000370979309082
63	276.5744161605835	fix_pre	0		120	61.0	2.5	/experiments/knapen_AOT/AOT_stimuli/rescaled_final/1996_rv.mp4	0.0	376.9141812324524	1.0001678466796875
63	277.15806102752686	pulse	0	t		61.0	2.5	/experiments/knapen_AOT/AOT_stimuli/rescaled_final/1996_rv.mp4	0.0	377.49782609939575	
63	277.5745840072632	movie	1		244	61.0	2.5	/experiments/knapen_AOT/AOT_stimuli/rescaled_final/1996_rv.mp4	0.0	377.9143490791321	2.5003719329833984
63	278.75831294059753	pulse	1	t		61.0	2.5	/experiments/knapen_AOT/AOT_stimuli/rescaled_final/1996_rv.mp4	0.0	379.09807801246643	
63	280.0749559402466	fix_post	2		12	61.0	2.5	/experiments/knapen_AOT/AOT_stimuli/rescaled_final/1996_rv.mp4	0.0	380.4147210121155	0.10002708435058594
64	280.17498302459717	fix_pre	0		120	62.0	2.5	blank	1.0	380.51474809646606	1.000128984451294
64	280.35863995552063	pulse	0	t		62.0	2.5	blank	1.0	380.6984050273895	
64	281.17511200904846	movie	1		300	62.0	2.5	blank	1.0	381.51487708091736	2.5003950595855713
64	281.9588041305542	pulse	1	t		62.0	2.5	blank	1.0	382.2985692024231	
64	283.55903005599976	pulse	1	t		62.0	2.5	blank	1.0	383.89879512786865	
64	283.67550706863403	fix_post	2		12	62.0	2.5	blank	1.0	384.01527214050293	0.09998297691345215
65	283.7754900455475	fix_pre	0		120	63.0	2.5	/experiments/knapen_AOT/AOT_stimuli/rescaled_final/2071_rv.mp4	0.0	384.1152551174164	1.0001909732818604
65	284.77568101882935	movie	1		243	63.0	2.5	/experiments/knapen_AOT/AOT_stimuli/rescaled_final/2071_rv.mp4	0.0	385.11544609069824	2.4920639991760254
65	285.1633789539337	pulse	1	t		63.0	2.5	/experiments/knapen_AOT/AOT_stimuli/rescaled_final/2071_rv.mp4	0.0	385.5031440258026	
65	286.759446144104	pulse	1	t		63.0	2.5	/experiments/knapen_AOT/AOT_stimuli/rescaled_final/2071_rv.mp4	0.0	387.0992112159729	
65	287.26774501800537	fix_post	2		12	63.0	2.5	/experiments/knapen_AOT/AOT_stimuli/rescaled_final/2071_rv.mp4	0.0	387.60751008987427	0.09993195533752441
66	287.3676769733429	fix_pre	0		118	64.0	2.5	/experiments/knapen_AOT/AOT_stimuli/rescaled_final/1332_rv.mp4	0.0	387.7074420452118	1.0001909732818604
66	288.3598380088806	pulse	0	t		64.0	2.5	/experiments/knapen_AOT/AOT_stimuli/rescaled_final/1332_rv.mp4	0.0	388.6996030807495	
66	288.36786794662476	movie	1		245	64.0	2.5	/experiments/knapen_AOT/AOT_stimuli/rescaled_final/1332_rv.mp4	0.0	388.70763301849365	2.508674144744873
66	289.9603819847107	pulse	1	t		64.0	2.5	/experiments/knapen_AOT/AOT_stimuli/rescaled_final/1332_rv.mp4	0.0	390.3001470565796	
66	290.87654209136963	fix_post	2		12	64.0	2.5	/experiments/knapen_AOT/AOT_stimuli/rescaled_final/1332_rv.mp4	0.0	391.2163071632385	0.10000491142272949
67	290.97654700279236	fix_pre	0		120	65.0	2.5	/experiments/knapen_AOT/AOT_stimuli/rescaled_final/1327_fw.mp4	0.0	391.31631207466125	1.0001800060272217
67	291.5602009296417	pulse	0	t		65.0	2.5	/experiments/knapen_AOT/AOT_stimuli/rescaled_final/1327_fw.mp4	0.0	391.8999660015106	
67	291.9767270088196	movie	1		244	65.0	2.5	/experiments/knapen_AOT/AOT_stimuli/rescaled_final/1327_fw.mp4	0.0	392.3164920806885	2.5003530979156494
67	293.1604609489441	pulse	1	t		65.0	2.5	/experiments/knapen_AOT/AOT_stimuli/rescaled_final/1327_fw.mp4	0.0	393.500226020813	
67	294.47708010673523	fix_post	2		12	65.0	2.5	/experiments/knapen_AOT/AOT_stimuli/rescaled_final/1327_fw.mp4	0.0	394.8168451786041	0.10001587867736816
68	294.5770959854126	fix_pre	0		120	66.0	2.5	/experiments/knapen_AOT/AOT_stimuli/rescaled_final/2114_rv.mp4	0.0	394.9168610572815	1.000162124633789
68	294.76069593429565	pulse	0	t		66.0	2.5	/experiments/knapen_AOT/AOT_stimuli/rescaled_final/2114_rv.mp4	0.0	395.10046100616455	
68	295.5772581100464	movie	1		246	66.0	2.5	/experiments/knapen_AOT/AOT_stimuli/rescaled_final/2114_rv.mp4	0.0	395.9170231819153	2.5003468990325928
68	296.36102509498596	pulse	1	t		66.0	2.5	/experiments/knapen_AOT/AOT_stimuli/rescaled_final/2114_rv.mp4	0.0	396.70079016685486	
68	297.96125507354736	pulse	1	t		66.0	2.5	/experiments/knapen_AOT/AOT_stimuli/rescaled_final/2114_rv.mp4	0.0	398.30102014541626	
68	298.077605009079	fix_post	2		12	66.0	2.5	/experiments/knapen_AOT/AOT_stimuli/rescaled_final/2114_rv.mp4	0.0	398.4173700809479	0.10004997253417969
69	298.17765498161316	fix_pre	0		120	67.0	2.5	/experiments/knapen_AOT/AOT_stimuli/rescaled_final/0876_rv.mp4	0.0	398.51742005348206	1.0001521110534668
69	299.1778070926666	movie	1		243	67.0	2.5	/experiments/knapen_AOT/AOT_stimuli/rescaled_final/0876_rv.mp4	0.0	399.5175721645355	2.4920029640197754
69	299.56195402145386	pulse	1	t		67.0	2.5	/experiments/knapen_AOT/AOT_stimuli/rescaled_final/0876_rv.mp4	0.0	399.90171909332275	
69	301.1616220474243	pulse	1	t		67.0	2.5	/experiments/knapen_AOT/AOT_stimuli/rescaled_final/0876_rv.mp4	0.0	401.5013871192932	
69	301.6698100566864	fix_post	2		12	67.0	2.5	/experiments/knapen_AOT/AOT_stimuli/rescaled_final/0876_rv.mp4	0.0	402.0095751285553	0.10001397132873535
70	301.76982402801514	fix_pre	0		120	68.0	2.5	blank	1.0	402.10958909988403	1.0002400875091553
70	302.76196098327637	pulse	0	t		68.0	2.5	blank	1.0	403.10172605514526	
70	302.7700641155243	movie	1		301	68.0	2.5	blank	1.0	403.1098291873932	2.508699893951416
70	304.36214995384216	pulse	1	t		68.0	2.5	blank	1.0	404.70191502571106	
70	305.2787640094757	fix_post	2		12	68.0	2.5	blank	1.0	405.6185290813446	0.0999610424041748
71	305.3787250518799	fix_pre	0		120	69.0	2.5	/experiments/knapen_AOT/AOT_stimuli/rescaled_final/0413_fw.mp4	0.0	405.7184901237488	1.0001840591430664
71	305.96230006217957	pulse	0	t		69.0	2.5	/experiments/knapen_AOT/AOT_stimuli/rescaled_final/0413_fw.mp4	0.0	406.30206513404846	
71	306.37890911102295	movie	1		245	69.0	2.5	/experiments/knapen_AOT/AOT_stimuli/rescaled_final/0413_fw.mp4	0.0	406.71867418289185	2.5003068447113037
71	307.56272196769714	pulse	1	t		69.0	2.5	/experiments/knapen_AOT/AOT_stimuli/rescaled_final/0413_fw.mp4	0.0	407.90248703956604	
71	308.87921595573425	fix_post	2		12	69.0	2.5	/experiments/knapen_AOT/AOT_stimuli/rescaled_final/0413_fw.mp4	0.0	409.21898102760315	0.10005617141723633
72	308.9792721271515	fix_pre	0		120	70.0	2.5	/experiments/knapen_AOT/AOT_stimuli/rescaled_final/0026_fw.mp4	0.0	409.3190371990204	1.0001568794250488
72	309.16285514831543	pulse	0	t		70.0	2.5	/experiments/knapen_AOT/AOT_stimuli/rescaled_final/0026_fw.mp4	0.0	409.5026202201843	
72	309.97942900657654	movie	1		245	70.0	2.5	/experiments/knapen_AOT/AOT_stimuli/rescaled_final/0026_fw.mp4	0.0	410.31919407844543	2.5003581047058105
72	310.7557260990143	pulse	1	t		70.0	2.5	/experiments/knapen_AOT/AOT_stimuli/rescaled_final/0026_fw.mp4	0.0	411.0954911708832	
72	312.36089515686035	pulse	1	t		70.0	2.5	/experiments/knapen_AOT/AOT_stimuli/rescaled_final/0026_fw.mp4	0.0	412.70066022872925	
72	312.47978711128235	fix_post	2		12	70.0	2.5	/experiments/knapen_AOT/AOT_stimuli/rescaled_final/0026_fw.mp4	0.0	412.81955218315125	0.09998798370361328
73	312.57977509498596	fix_pre	0		120	71.0	2.5	/experiments/knapen_AOT/AOT_stimuli/rescaled_final/0755_rv.mp4	0.0	412.91954016685486	1.0001468658447266
73	313.5799219608307	movie	1		244	71.0	2.5	/experiments/knapen_AOT/AOT_stimuli/rescaled_final/0755_rv.mp4	0.0	413.9196870326996	2.4920711517333984
73	313.9639539718628	pulse	1	t		71.0	2.5	/experiments/knapen_AOT/AOT_stimuli/rescaled_final/0755_rv.mp4	0.0	414.3037190437317	
73	315.55645513534546	pulse	1	t		71.0	2.5	/experiments/knapen_AOT/AOT_stimuli/rescaled_final/0755_rv.mp4	0.0	415.89622020721436	
73	316.0719931125641	fix_post	2		12	71.0	2.5	/experiments/knapen_AOT/AOT_stimuli/rescaled_final/0755_rv.mp4	0.0	416.411758184433	0.10000085830688477
74	316.171993970871	fix_pre	0		120	72.0	2.5	/experiments/knapen_AOT/AOT_stimuli/rescaled_final/1688_fw.mp4	0.0	416.51175904273987	1.0001521110534668
74	317.1564390659332	pulse	0	t		72.0	2.5	/experiments/knapen_AOT/AOT_stimuli/rescaled_final/1688_fw.mp4	0.0	417.4962041378021	
74	317.17214608192444	movie	1		245	72.0	2.5	/experiments/knapen_AOT/AOT_stimuli/rescaled_final/1688_fw.mp4	0.0	417.51191115379333	2.508758068084717
74	318.75607895851135	pulse	1	t		72.0	2.5	/experiments/knapen_AOT/AOT_stimuli/rescaled_final/1688_fw.mp4	0.0	419.09584403038025	
74	319.68090415000916	fix_post	2		12	72.0	2.5	/experiments/knapen_AOT/AOT_stimuli/rescaled_final/1688_fw.mp4	0.0	420.02066922187805	0.09993290901184082
75	319.780837059021	fix_pre	0		120	73.0	2.5	/experiments/knapen_AOT/AOT_stimuli/rescaled_final/1860_rv.mp4	0.0	420.1206021308899	1.00018310546875
75	320.35612201690674	pulse	0	t		73.0	2.5	/experiments/knapen_AOT/AOT_stimuli/rescaled_final/1860_rv.mp4	0.0	420.69588708877563	
75	320.78102016448975	movie	1		245	73.0	2.5	/experiments/knapen_AOT/AOT_stimuli/rescaled_final/1860_rv.mp4	0.0	421.12078523635864	2.500375986099243
75	321.9578559398651	pulse	1	t		73.0	2.5	/experiments/knapen_AOT/AOT_stimuli/rescaled_final/1860_rv.mp4	0.0	422.297621011734	
75	323.281396150589	fix_post	2		12	73.0	2.5	/experiments/knapen_AOT/AOT_stimuli/rescaled_final/1860_rv.mp4	0.0	423.6211612224579	0.09996700286865234
76	323.38136315345764	fix_pre	0		120	74.0	2.5	/experiments/knapen_AOT/AOT_stimuli/rescaled_final/0989_fw.mp4	0.0	423.72112822532654	1.0001959800720215
76	323.55667304992676	pulse	0	t		74.0	2.5	/experiments/knapen_AOT/AOT_stimuli/rescaled_final/0989_fw.mp4	0.0	423.89643812179565	
76	324.38155913352966	movie	1		245	74.0	2.5	/experiments/knapen_AOT/AOT_stimuli/rescaled_final/0989_fw.mp4	0.0	424.72132420539856	2.5003838539123535
76	325.15684700012207	pulse	1	t		74.0	2.5	/experiments/knapen_AOT/AOT_stimuli/rescaled_final/0989_fw.mp4	0.0	425.49661207199097	
76	326.7571451663971	pulse	1	t		74.0	2.5	/experiments/knapen_AOT/AOT_stimuli/rescaled_final/0989_fw.mp4	0.0	427.096910238266	
76	326.881942987442	fix_post	2		12	74.0	2.5	/experiments/knapen_AOT/AOT_stimuli/rescaled_final/0989_fw.mp4	0.0	427.2217080593109	0.09997701644897461
77	326.981920003891	fix_pre	0		120	75.0	2.5	/experiments/knapen_AOT/AOT_stimuli/rescaled_final/1460_rv.mp4	0.0	427.3216850757599	1.0001349449157715
77	327.98205494880676	movie	1		245	75.0	2.5	/experiments/knapen_AOT/AOT_stimuli/rescaled_final/1460_rv.mp4	0.0	428.32182002067566	2.4920811653137207
77	328.3572781085968	pulse	1	t		75.0	2.5	/experiments/knapen_AOT/AOT_stimuli/rescaled_final/1460_rv.mp4	0.0	428.6970431804657	
77	329.95763206481934	pulse	1	t		75.0	2.5	/experiments/knapen_AOT/AOT_stimuli/rescaled_final/1460_rv.mp4	0.0	430.29739713668823	
77	330.4741361141205	fix_post	2		12	75.0	2.5	/experiments/knapen_AOT/AOT_stimuli/rescaled_final/1460_rv.mp4	0.0	430.8139011859894	0.09999895095825195
78	330.57413506507874	fix_pre	0		119	76.0	2.5	blank	1.0	430.91390013694763	0.9918348789215088
78	331.55782294273376	pulse	0	t		76.0	2.5	blank	1.0	431.89758801460266	
78	331.56596994400024	movie	1		301	76.0	2.5	blank	1.0	431.90573501586914	2.5086941719055176
78	333.15811014175415	pulse	1	t		76.0	2.5	blank	1.0	433.49787521362305	
78	334.07466411590576	fix_post	2		12	76.0	2.5	blank	1.0	434.41442918777466	0.10001993179321289
79	334.174684047699	fix_pre	0		120	77.0	2.5	/experiments/knapen_AOT/AOT_stimuli/rescaled_final/0981_fw.mp4	0.0	434.51444911956787	1.0001370906829834
79	334.75822615623474	pulse	0	t		77.0	2.5	/experiments/knapen_AOT/AOT_stimuli/rescaled_final/0981_fw.mp4	0.0	435.09799122810364	
79	335.17482113838196	movie	1		245	77.0	2.5	/experiments/knapen_AOT/AOT_stimuli/rescaled_final/0981_fw.mp4	0.0	435.51458621025085	2.5003468990325928
79	336.35876512527466	pulse	1	t		77.0	2.5	/experiments/knapen_AOT/AOT_stimuli/rescaled_final/0981_fw.mp4	0.0	436.69853019714355	
79	337.67516803741455	fix_post	2		12	77.0	2.5	/experiments/knapen_AOT/AOT_stimuli/rescaled_final/0981_fw.mp4	0.0	438.01493310928345	0.10000896453857422
80	337.7751770019531	fix_pre	0		120	78.0	2.5	/experiments/knapen_AOT/AOT_stimuli/rescaled_final/1994_rv.mp4	0.0	438.114942073822	1.0001881122589111
80	337.95879197120667	pulse	0	t		78.0	2.5	/experiments/knapen_AOT/AOT_stimuli/rescaled_final/1994_rv.mp4	0.0	438.29855704307556	
80	338.77536511421204	movie	1		246	78.0	2.5	/experiments/knapen_AOT/AOT_stimuli/rescaled_final/1994_rv.mp4	0.0	439.11513018608093	2.500361919403076
80	339.5589699745178	pulse	1	t		78.0	2.5	/experiments/knapen_AOT/AOT_stimuli/rescaled_final/1994_rv.mp4	0.0	439.8987350463867	
80	341.1592490673065	pulse	1	t		78.0	2.5	/experiments/knapen_AOT/AOT_stimuli/rescaled_final/1994_rv.mp4	0.0	441.4990141391754	
80	341.2757270336151	fix_post	2		12	78.0	2.5	/experiments/knapen_AOT/AOT_stimuli/rescaled_final/1994_rv.mp4	0.0	441.615492105484	0.10001993179321289
81	341.3757469654083	fix_pre	0		120	79.0	2.5	/experiments/knapen_AOT/AOT_stimuli/rescaled_final/1322_rv.mp4	0.0	441.7155120372772	1.0001351833343506
81	342.3758821487427	movie	1		244	79.0	2.5	/experiments/knapen_AOT/AOT_stimuli/rescaled_final/1322_rv.mp4	0.0	442.7156472206116	2.492076873779297
81	342.76047706604004	pulse	1	t		79.0	2.5	/experiments/knapen_AOT/AOT_stimuli/rescaled_final/1322_rv.mp4	0.0	443.10024213790894	
81	344.3597900867462	pulse	1	t		79.0	2.5	/experiments/knapen_AOT/AOT_stimuli/rescaled_final/1322_rv.mp4	0.0	444.6995551586151	
81	344.867959022522	fix_post	2		12	79.0	2.5	/experiments/knapen_AOT/AOT_stimuli/rescaled_final/1322_rv.mp4	0.0	445.20772409439087	0.0999910831451416
82	344.9679501056671	fix_pre	0		120	80.0	2.5	/experiments/knapen_AOT/AOT_stimuli/rescaled_final/1454_fw.mp4	0.0	445.307715177536	1.000175952911377
82	345.9600119590759	pulse	0	t		80.0	2.5	/experiments/knapen_AOT/AOT_stimuli/rescaled_final/1454_fw.mp4	0.0	446.2997770309448	
82	345.9681260585785	movie	1		246	80.0	2.5	/experiments/knapen_AOT/AOT_stimuli/rescaled_final/1454_fw.mp4	0.0	446.3078911304474	2.5086920261383057
82	347.5608010292053	pulse	1	t		80.0	2.5	/experiments/knapen_AOT/AOT_stimuli/rescaled_final/1454_fw.mp4	0.0	447.9005661010742	
82	348.4768180847168	fix_post	2		9	80.0	2.5	/experiments/knapen_AOT/AOT_stimuli/rescaled_final/1454_fw.mp4	0.0	448.8165831565857	0.10000896453857422
83	348.57682704925537	fix_pre	0		120	81.0	2.5	/experiments/knapen_AOT/AOT_stimuli/rescaled_final/0892_fw.mp4	0.0	448.91659212112427	1.0001559257507324
83	349.16048192977905	pulse	0	t		81.0	2.5	/experiments/knapen_AOT/AOT_stimuli/rescaled_final/0892_fw.mp4	0.0	449.50024700164795	
83	349.5769829750061	movie	1		244	81.0	2.5	/experiments/knapen_AOT/AOT_stimuli/rescaled_final/0892_fw.mp4	0.0	449.916748046875	2.500349998474121
83	350.76087713241577	pulse	1	t		81.0	2.5	/experiments/knapen_AOT/AOT_stimuli/rescaled_final/0892_fw.mp4	0.0	451.10064220428467	
83	352.0773329734802	fix_post	2		12	81.0	2.5	/experiments/knapen_AOT/AOT_stimuli/rescaled_final/0892_fw.mp4	0.0	452.4170980453491	0.09999513626098633
84	352.1773281097412	fix_pre	0		120	82.0	2.5	/experiments/knapen_AOT/AOT_stimuli/rescaled_final/1860_fw.mp4	0.0	452.5170931816101	1.0001740455627441
84	352.3609371185303	pulse	0	t		82.0	2.5	/experiments/knapen_AOT/AOT_stimuli/rescaled_final/1860_fw.mp4	0.0	452.70070219039917	
84	353.17750215530396	movie	1		245	82.0	2.5	/experiments/knapen_AOT/AOT_stimuli/rescaled_final/1860_fw.mp4	0.0	453.51726722717285	2.5003409385681152
84	353.9611060619354	pulse	1	t		82.0	2.5	/experiments/knapen_AOT/AOT_stimuli/rescaled_final/1860_fw.mp4	0.0	454.3008711338043	
84	355.561439037323	pulse	1	t		82.0	2.5	/experiments/knapen_AOT/AOT_stimuli/rescaled_final/1860_fw.mp4	0.0	455.9012041091919	
84	355.67784309387207	fix_post	2		12	82.0	2.5	/experiments/knapen_AOT/AOT_stimuli/rescaled_final/1860_fw.mp4	0.0	456.01760816574097	0.1000518798828125
85	355.7778949737549	fix_pre	0		120	83.0	2.5	blank	1.0	456.1176600456238	1.0001530647277832
85	356.77804803848267	movie	1		299	83.0	2.5	blank	1.0	457.11781311035156	2.4920380115509033
85	357.1617441177368	pulse	1	t		83.0	2.5	blank	1.0	457.5015091896057	
85	358.76195216178894	pulse	1	t		83.0	2.5	blank	1.0	459.10171723365784	
85	359.27008605003357	fix_post	2		12	83.0	2.5	blank	1.0	459.60985112190247	0.1000208854675293
87	359.3701069355011	stim	0		1716					459.70987200737	14.302170038223267
87	360.3620970249176	pulse	0	t						460.7018620967865	
87	361.9622609615326	pulse	0	t						462.3020260334015	
87	363.56259202957153	pulse	0	t						463.90235710144043	
87	365.16288709640503	pulse	0	t						465.5026521682739	
87	366.7631139755249	pulse	0	t						467.1028790473938	
87	368.36325311660767	pulse	0	t						468.70301818847656	
87	369.96352910995483	pulse	0	t						470.30329418182373	
87	371.5563941001892	pulse	0	t						471.8961591720581	
87	373.15662813186646	pulse	0	t						473.49639320373535	
