trial_nr	onset	event_type	phase	response	nr_frames	movie_index	movie_duration	movie_file	blank	onset_abs	duration
0	0.1495361328125	stim	0		33					19.879961252212524	0.2753419876098633
0	0.4096109867095947	response	0	space						20.14003610610962	
1	0.4248781204223633	stim	0		6105					20.155303239822388	50.874703884124756
1	51.29297208786011	pulse	0	t						71.02339720726013	
1	51.29958200454712	stim	1		1717					71.03000712394714	14.307846069335938
1	52.89156913757324	pulse	1	t						72.62199425697327	
1	54.49151110649109	pulse	1	t						74.22193622589111	
1	56.09136199951172	pulse	1	t						75.82178711891174	
1	57.691397190093994	pulse	1	t						77.42182230949402	
1	59.29145097732544	pulse	1	t						79.02187609672546	
1	60.891414165496826	pulse	1	t						80.62183928489685	
1	62.49136018753052	pulse	1	t						82.22178530693054	
1	64.09137797355652	pulse	1	t						83.82180309295654	
2	65.60742807388306	fix_pre	0		11	0.0	2.5	/experiments/AOT/AOT_stimuli/rescaled_final/0150_fw.mp4	0.0	85.33785319328308	0.0917210578918457
2	65.69144105911255	pulse	0	t		0.0	2.5	/experiments/AOT/AOT_stimuli/rescaled_final/0150_fw.mp4	0.0	85.42186617851257	
2	65.6991491317749	movie	1		242	0.0	2.5	/experiments/AOT/AOT_stimuli/rescaled_final/0150_fw.mp4	0.0	85.42957425117493	2.5083658695220947
2	67.2910270690918	pulse	1	t		0.0	2.5	/experiments/AOT/AOT_stimuli/rescaled_final/0150_fw.mp4	0.0	87.02145218849182	
2	68.207515001297	fix_post	2		12	0.0	2.5	/experiments/AOT/AOT_stimuli/rescaled_final/0150_fw.mp4	0.0	87.93794012069702	0.10038614273071289
3	68.30790114402771	fix_pre	0		120	1.0	2.5	/experiments/AOT/AOT_stimuli/rescaled_final/2175_rv.mp4	0.0	88.03832626342773	0.9999499320983887
3	68.89135098457336	pulse	0	t		1.0	2.5	/experiments/AOT/AOT_stimuli/rescaled_final/2175_rv.mp4	0.0	88.62177610397339	
3	69.3078510761261	movie	1		244	1.0	2.5	/experiments/AOT/AOT_stimuli/rescaled_final/2175_rv.mp4	0.0	89.03827619552612	2.5000131130218506
3	70.49144005775452	pulse	1	t		1.0	2.5	/experiments/AOT/AOT_stimuli/rescaled_final/2175_rv.mp4	0.0	90.22186517715454	
3	71.80786418914795	fix_post	2		12	1.0	2.5	/experiments/AOT/AOT_stimuli/rescaled_final/2175_rv.mp4	0.0	91.53828930854797	0.09998178482055664
4	71.9078459739685	fix_pre	0		120	2.0	2.5	/experiments/AOT/AOT_stimuli/rescaled_final/0933_fw.mp4	0.0	91.63827109336853	1.0000550746917725
4	72.09137916564941	pulse	0	t		2.0	2.5	/experiments/AOT/AOT_stimuli/rescaled_final/0933_fw.mp4	0.0	91.82180428504944	
4	72.90790104866028	movie	1		245	2.0	2.5	/experiments/AOT/AOT_stimuli/rescaled_final/0933_fw.mp4	0.0	92.6383261680603	2.499535083770752
4	73.69137001037598	pulse	1	t		2.0	2.5	/experiments/AOT/AOT_stimuli/rescaled_final/0933_fw.mp4	0.0	93.421795129776	
4	75.29000401496887	pulse	1	t		2.0	2.5	/experiments/AOT/AOT_stimuli/rescaled_final/0933_fw.mp4	0.0	95.0204291343689	
4	75.40743613243103	fix_post	2		12	2.0	2.5	/experiments/AOT/AOT_stimuli/rescaled_final/0933_fw.mp4	0.0	95.13786125183105	0.10033488273620605
5	75.50777101516724	fix_pre	0		120	3.0	2.5	/experiments/AOT/AOT_stimuli/rescaled_final/2146_fw.mp4	0.0	95.23819613456726	1.000082015991211
5	76.50785303115845	movie	1		245	3.0	2.5	/experiments/AOT/AOT_stimuli/rescaled_final/2146_fw.mp4	0.0	96.23827815055847	2.4999639987945557
5	76.89096403121948	pulse	1	t		3.0	2.5	/experiments/AOT/AOT_stimuli/rescaled_final/2146_fw.mp4	0.0	96.6213891506195	
5	78.49141597747803	pulse	1	t		3.0	2.5	/experiments/AOT/AOT_stimuli/rescaled_final/2146_fw.mp4	0.0	98.22184109687805	
5	79.007817029953	fix_post	2		12	3.0	2.5	/experiments/AOT/AOT_stimuli/rescaled_final/2146_fw.mp4	0.0	98.73824214935303	0.10002613067626953
6	79.10784316062927	fix_pre	0		119	4.0	2.5	/experiments/AOT/AOT_stimuli/rescaled_final/1207_fw.mp4	0.0	98.8382682800293	0.9916720390319824
6	80.09137916564941	pulse	0	t		4.0	2.5	/experiments/AOT/AOT_stimuli/rescaled_final/1207_fw.mp4	0.0	99.82180428504944	
6	80.09951519966125	movie	1		244	4.0	2.5	/experiments/AOT/AOT_stimuli/rescaled_final/1207_fw.mp4	0.0	99.82994031906128	2.5083248615264893
6	81.69243907928467	pulse	1	t		4.0	2.5	/experiments/AOT/AOT_stimuli/rescaled_final/1207_fw.mp4	0.0	101.42286419868469	
6	82.60784006118774	fix_post	2		12	4.0	2.5	/experiments/AOT/AOT_stimuli/rescaled_final/1207_fw.mp4	0.0	102.33826518058777	0.10007691383361816
7	82.70791697502136	fix_pre	0		120	5.0	2.5	/experiments/AOT/AOT_stimuli/rescaled_final/0807_fw.mp4	0.0	102.43834209442139	0.9999380111694336
7	83.2913830280304	pulse	0	t		5.0	2.5	/experiments/AOT/AOT_stimuli/rescaled_final/0807_fw.mp4	0.0	103.02180814743042	
7	83.7078549861908	movie	1		243	5.0	2.5	/experiments/AOT/AOT_stimuli/rescaled_final/0807_fw.mp4	0.0	103.43828010559082	2.5000030994415283
7	84.89139819145203	pulse	1	t		5.0	2.5	/experiments/AOT/AOT_stimuli/rescaled_final/0807_fw.mp4	0.0	104.62182331085205	
7	86.20785808563232	fix_post	2		12	5.0	2.5	/experiments/AOT/AOT_stimuli/rescaled_final/0807_fw.mp4	0.0	105.93828320503235	0.10000395774841309
8	86.30786204338074	fix_pre	0		120	6.0	2.5	/experiments/AOT/AOT_stimuli/rescaled_final/0810_rv.mp4	0.0	106.03828716278076	0.9999151229858398
8	86.49134802818298	pulse	0	t		6.0	2.5	/experiments/AOT/AOT_stimuli/rescaled_final/0810_rv.mp4	0.0	106.22177314758301	
8	87.30777716636658	movie	1		243	6.0	2.5	/experiments/AOT/AOT_stimuli/rescaled_final/0810_rv.mp4	0.0	107.0382022857666	2.499569892883301
8	88.09140801429749	pulse	1	t		6.0	2.5	/experiments/AOT/AOT_stimuli/rescaled_final/0810_rv.mp4	0.0	107.82183313369751	
8	89.68981719017029	pulse	1	t		6.0	2.5	/experiments/AOT/AOT_stimuli/rescaled_final/0810_rv.mp4	0.0	109.42024230957031	
8	89.80734705924988	fix_post	2		12	6.0	2.5	/experiments/AOT/AOT_stimuli/rescaled_final/0810_rv.mp4	0.0	109.5377721786499	0.1004951000213623
9	89.90784215927124	fix_pre	0		120	7.0	2.5	blank	1.0	109.63826727867126	1.0
9	90.90784215927124	movie	1		300	7.0	2.5	blank	1.0	110.63826727867126	2.499516010284424
9	91.29127907752991	pulse	1	t		7.0	2.5	blank	1.0	111.02170419692993	
9	92.89136099815369	pulse	1	t		7.0	2.5	blank	1.0	112.62178611755371	
9	93.40735816955566	fix_post	2		12	7.0	2.5	blank	1.0	113.13778328895569	0.10045289993286133
10	93.50781106948853	fix_pre	0		119	8.0	2.5	/experiments/AOT/AOT_stimuli/rescaled_final/1032_fw.mp4	0.0	113.23823618888855	0.9918599128723145
10	94.49145317077637	pulse	0	t		8.0	2.5	/experiments/AOT/AOT_stimuli/rescaled_final/1032_fw.mp4	0.0	114.22187829017639	
10	94.49967098236084	movie	1		244	8.0	2.5	/experiments/AOT/AOT_stimuli/rescaled_final/1032_fw.mp4	0.0	114.23009610176086	2.508190155029297
10	96.09092211723328	pulse	1	t		8.0	2.5	/experiments/AOT/AOT_stimuli/rescaled_final/1032_fw.mp4	0.0	115.8213472366333	
10	97.00786113739014	fix_post	2		12	8.0	2.5	/experiments/AOT/AOT_stimuli/rescaled_final/1032_fw.mp4	0.0	116.73828625679016	0.09994101524353027
11	97.10780215263367	fix_pre	0		120	9.0	2.5	/experiments/AOT/AOT_stimuli/rescaled_final/1647_rv.mp4	0.0	116.83822727203369	1.0000238418579102
11	97.69129514694214	pulse	0	t		9.0	2.5	/experiments/AOT/AOT_stimuli/rescaled_final/1647_rv.mp4	0.0	117.42172026634216	
11	98.10782599449158	movie	1		244	9.0	2.5	/experiments/AOT/AOT_stimuli/rescaled_final/1647_rv.mp4	0.0	117.8382511138916	2.5000340938568115
11	99.29135417938232	pulse	1	t		9.0	2.5	/experiments/AOT/AOT_stimuli/rescaled_final/1647_rv.mp4	0.0	119.02177929878235	
11	100.60786008834839	fix_post	2		12	9.0	2.5	/experiments/AOT/AOT_stimuli/rescaled_final/1647_rv.mp4	0.0	120.33828520774841	0.0998389720916748
12	100.70769906044006	fix_pre	0		120	10.0	2.5	/experiments/AOT/AOT_stimuli/rescaled_final/1079_rv.mp4	0.0	120.43812417984009	0.9999639987945557
12	100.8911771774292	pulse	0	t		10.0	2.5	/experiments/AOT/AOT_stimuli/rescaled_final/1079_rv.mp4	0.0	120.62160229682922	
12	101.70766305923462	movie	1		244	10.0	2.5	/experiments/AOT/AOT_stimuli/rescaled_final/1079_rv.mp4	0.0	121.43808817863464	2.4996020793914795
12	102.4911561012268	pulse	1	t		10.0	2.5	/experiments/AOT/AOT_stimuli/rescaled_final/1079_rv.mp4	0.0	122.22158122062683	
12	104.08954119682312	pulse	1	t		10.0	2.5	/experiments/AOT/AOT_stimuli/rescaled_final/1079_rv.mp4	0.0	123.81996631622314	
12	104.2072651386261	fix_post	2		12	10.0	2.5	/experiments/AOT/AOT_stimuli/rescaled_final/1079_rv.mp4	0.0	123.93769025802612	0.1000828742980957
13	104.3073480129242	fix_pre	0		120	11.0	2.5	/experiments/AOT/AOT_stimuli/rescaled_final/0023_rv.mp4	0.0	124.03777313232422	1.0003161430358887
13	105.30766415596008	movie	1		245	11.0	2.5	/experiments/AOT/AOT_stimuli/rescaled_final/0023_rv.mp4	0.0	125.03808927536011	2.499990940093994
13	105.69053411483765	pulse	1	t		11.0	2.5	/experiments/AOT/AOT_stimuli/rescaled_final/0023_rv.mp4	0.0	125.42095923423767	
13	107.29119515419006	pulse	1	t		11.0	2.5	/experiments/AOT/AOT_stimuli/rescaled_final/0023_rv.mp4	0.0	127.02162027359009	
13	107.80765509605408	fix_post	2		12	11.0	2.5	/experiments/AOT/AOT_stimuli/rescaled_final/0023_rv.mp4	0.0	127.5380802154541	0.10001993179321289
14	107.90767502784729	fix_pre	0		119	12.0	2.5	/experiments/AOT/AOT_stimuli/rescaled_final/0945_rv.mp4	0.0	127.63810014724731	0.9916291236877441
14	108.89115309715271	pulse	0	t		12.0	2.5	/experiments/AOT/AOT_stimuli/rescaled_final/0945_rv.mp4	0.0	128.62157821655273	
14	108.89930415153503	movie	1		244	12.0	2.5	/experiments/AOT/AOT_stimuli/rescaled_final/0945_rv.mp4	0.0	128.62972927093506	2.5079548358917236
14	110.49061417579651	pulse	1	t		12.0	2.5	/experiments/AOT/AOT_stimuli/rescaled_final/0945_rv.mp4	0.0	130.22103929519653	
14	111.40725898742676	fix_post	2		12	12.0	2.5	/experiments/AOT/AOT_stimuli/rescaled_final/0945_rv.mp4	0.0	131.13768410682678	0.10039806365966797
15	111.50765705108643	fix_pre	0		120	13.0	2.5	/experiments/AOT/AOT_stimuli/rescaled_final/0540_rv.mp4	0.0	131.23808217048645	0.9999880790710449
15	112.0912230014801	pulse	0	t		13.0	2.5	/experiments/AOT/AOT_stimuli/rescaled_final/0540_rv.mp4	0.0	131.82164812088013	
15	112.50764513015747	movie	1		245	13.0	2.5	/experiments/AOT/AOT_stimuli/rescaled_final/0540_rv.mp4	0.0	132.2380702495575	2.4995779991149902
15	113.69129514694214	pulse	1	t		13.0	2.5	/experiments/AOT/AOT_stimuli/rescaled_final/0540_rv.mp4	0.0	133.42172026634216	
15	115.00722312927246	fix_post	2		12	13.0	2.5	/experiments/AOT/AOT_stimuli/rescaled_final/0540_rv.mp4	0.0	134.73764824867249	0.10002589225769043
16	115.10724902153015	fix_pre	0		120	14.0	2.5	blank	1.0	134.83767414093018	1.0001161098480225
16	115.29118704795837	pulse	0	t		14.0	2.5	blank	1.0	135.0216121673584	
16	116.10736513137817	movie	1		300	14.0	2.5	blank	1.0	135.8377902507782	2.500277042388916
16	116.89118599891663	pulse	1	t		14.0	2.5	blank	1.0	136.62161111831665	
16	118.4911789894104	pulse	1	t		14.0	2.5	blank	1.0	138.22160410881042	
16	118.60764217376709	fix_post	2		12	14.0	2.5	blank	1.0	138.33806729316711	0.09998893737792969
17	118.70763111114502	fix_pre	0		120	15.0	2.5	/experiments/AOT/AOT_stimuli/rescaled_final/0663_fw.mp4	0.0	138.43805623054504	0.9995598793029785
17	119.707190990448	movie	1		245	15.0	2.5	/experiments/AOT/AOT_stimuli/rescaled_final/0663_fw.mp4	0.0	139.43761610984802	2.500444173812866
17	120.09203910827637	pulse	1	t		15.0	2.5	/experiments/AOT/AOT_stimuli/rescaled_final/0663_fw.mp4	0.0	139.8224642276764	
17	121.69103717803955	pulse	1	t		15.0	2.5	/experiments/AOT/AOT_stimuli/rescaled_final/0663_fw.mp4	0.0	141.42146229743958	
17	122.20763516426086	fix_post	2		12	15.0	2.5	/experiments/AOT/AOT_stimuli/rescaled_final/0663_fw.mp4	0.0	141.9380602836609	0.0999598503112793
18	122.30759501457214	fix_pre	0		119	16.0	2.5	/experiments/AOT/AOT_stimuli/rescaled_final/0254_rv.mp4	0.0	142.03802013397217	0.9917299747467041
18	123.29114007949829	pulse	0	t		16.0	2.5	/experiments/AOT/AOT_stimuli/rescaled_final/0254_rv.mp4	0.0	143.02156519889832	
18	123.29932498931885	movie	1		246	16.0	2.5	/experiments/AOT/AOT_stimuli/rescaled_final/0254_rv.mp4	0.0	143.02975010871887	2.5082650184631348
18	124.89088702201843	pulse	1	t		16.0	2.5	/experiments/AOT/AOT_stimuli/rescaled_final/0254_rv.mp4	0.0	144.62131214141846	
18	125.80759000778198	fix_post	2		12	16.0	2.5	/experiments/AOT/AOT_stimuli/rescaled_final/0254_rv.mp4	0.0	145.538015127182	0.09997415542602539
19	125.90756416320801	fix_pre	0		120	17.0	2.5	/experiments/AOT/AOT_stimuli/rescaled_final/1038_rv.mp4	0.0	145.63798928260803	1.00006103515625
19	126.49116516113281	pulse	0	t		17.0	2.5	/experiments/AOT/AOT_stimuli/rescaled_final/1038_rv.mp4	0.0	146.22159028053284	
19	126.90762519836426	movie	1		243	17.0	2.5	/experiments/AOT/AOT_stimuli/rescaled_final/1038_rv.mp4	0.0	146.63805031776428	2.4999239444732666
19	128.0911910533905	pulse	1	t		17.0	2.5	/experiments/AOT/AOT_stimuli/rescaled_final/1038_rv.mp4	0.0	147.82161617279053	
19	129.40754914283752	fix_post	2		12	17.0	2.5	/experiments/AOT/AOT_stimuli/rescaled_final/1038_rv.mp4	0.0	149.13797426223755	0.10009598731994629
20	129.50764513015747	fix_pre	0		120	18.0	2.5	/experiments/AOT/AOT_stimuli/rescaled_final/0793_rv.mp4	0.0	149.2380702495575	0.9999239444732666
20	129.69109201431274	pulse	0	t		18.0	2.5	/experiments/AOT/AOT_stimuli/rescaled_final/0793_rv.mp4	0.0	149.42151713371277	
20	130.50756907463074	movie	1		243	18.0	2.5	/experiments/AOT/AOT_stimuli/rescaled_final/0793_rv.mp4	0.0	150.23799419403076	2.5000131130218506
20	131.29108309745789	pulse	1	t		18.0	2.5	/experiments/AOT/AOT_stimuli/rescaled_final/0793_rv.mp4	0.0	151.0215082168579	
20	132.88949704170227	pulse	1	t		18.0	2.5	/experiments/AOT/AOT_stimuli/rescaled_final/0793_rv.mp4	0.0	152.6199221611023	
20	133.0075821876526	fix_post	2		12	18.0	2.5	/experiments/AOT/AOT_stimuli/rescaled_final/0793_rv.mp4	0.0	152.7380073070526	0.09962701797485352
21	133.10720920562744	fix_pre	0		120	19.0	2.5	blank	1.0	152.83763432502747	1.0000708103179932
21	134.10728001594543	movie	1		300	19.0	2.5	blank	1.0	153.83770513534546	2.500336170196533
21	134.49119305610657	pulse	1	t		19.0	2.5	blank	1.0	154.2216181755066	
21	136.09097719192505	pulse	1	t		19.0	2.5	blank	1.0	155.82140231132507	
21	136.60761618614197	fix_post	2		12	19.0	2.5	blank	1.0	156.338041305542	0.0999448299407959
22	136.70756101608276	fix_pre	0		119	20.0	2.5	/experiments/AOT/AOT_stimuli/rescaled_final/0494_fw.mp4	0.0	156.4379861354828	0.991746187210083
22	137.691064119339	pulse	0	t		20.0	2.5	/experiments/AOT/AOT_stimuli/rescaled_final/0494_fw.mp4	0.0	157.421489238739	
22	137.69930720329285	movie	1		244	20.0	2.5	/experiments/AOT/AOT_stimuli/rescaled_final/0494_fw.mp4	0.0	157.42973232269287	2.5078439712524414
22	139.29114198684692	pulse	1	t		20.0	2.5	/experiments/AOT/AOT_stimuli/rescaled_final/0494_fw.mp4	0.0	159.02156710624695	
22	140.2071511745453	fix_post	2		12	20.0	2.5	/experiments/AOT/AOT_stimuli/rescaled_final/0494_fw.mp4	0.0	159.9375762939453	0.10042595863342285
23	140.3075771331787	fix_pre	0		120	21.0	2.5	/experiments/AOT/AOT_stimuli/rescaled_final/1589_rv.mp4	0.0	160.03800225257874	0.9996838569641113
23	140.89108419418335	pulse	0	t		21.0	2.5	/experiments/AOT/AOT_stimuli/rescaled_final/1589_rv.mp4	0.0	160.62150931358337	
23	141.30726099014282	movie	1		244	21.0	2.5	/experiments/AOT/AOT_stimuli/rescaled_final/1589_rv.mp4	0.0	161.03768610954285	2.500230073928833
23	142.4910910129547	pulse	1	t		21.0	2.5	/experiments/AOT/AOT_stimuli/rescaled_final/1589_rv.mp4	0.0	162.22151613235474	
23	143.80749106407166	fix_post	2		12	21.0	2.5	/experiments/AOT/AOT_stimuli/rescaled_final/1589_rv.mp4	0.0	163.53791618347168	0.09961414337158203
24	143.90710520744324	fix_pre	0		120	22.0	2.5	/experiments/AOT/AOT_stimuli/rescaled_final/1651_fw.mp4	0.0	163.63753032684326	1.000391960144043
24	144.0910999774933	pulse	0	t		22.0	2.5	/experiments/AOT/AOT_stimuli/rescaled_final/1651_fw.mp4	0.0	163.8215250968933	
24	144.90749716758728	movie	1		243	22.0	2.5	/experiments/AOT/AOT_stimuli/rescaled_final/1651_fw.mp4	0.0	164.6379222869873	2.499591827392578
24	145.69109201431274	pulse	1	t		22.0	2.5	/experiments/AOT/AOT_stimuli/rescaled_final/1651_fw.mp4	0.0	165.42151713371277	
24	147.28932905197144	pulse	1	t		22.0	2.5	/experiments/AOT/AOT_stimuli/rescaled_final/1651_fw.mp4	0.0	167.01975417137146	
24	147.40708899497986	fix_post	2		12	22.0	2.5	/experiments/AOT/AOT_stimuli/rescaled_final/1651_fw.mp4	0.0	167.13751411437988	0.10040020942687988
25	147.50748920440674	fix_pre	0		120	23.0	2.5	/experiments/AOT/AOT_stimuli/rescaled_final/0192_fw.mp4	0.0	167.23791432380676	1.0000619888305664
25	148.5075511932373	movie	1		246	23.0	2.5	/experiments/AOT/AOT_stimuli/rescaled_final/0192_fw.mp4	0.0	168.23797631263733	2.500166893005371
25	148.8906490802765	pulse	1	t		23.0	2.5	/experiments/AOT/AOT_stimuli/rescaled_final/0192_fw.mp4	0.0	168.6210741996765	
25	150.4907681941986	pulse	1	t		23.0	2.5	/experiments/AOT/AOT_stimuli/rescaled_final/0192_fw.mp4	0.0	170.22119331359863	
25	151.00771808624268	fix_post	2		12	23.0	2.5	/experiments/AOT/AOT_stimuli/rescaled_final/0192_fw.mp4	0.0	170.7381432056427	0.09966707229614258
26	151.10738515853882	fix_pre	0		119	24.0	2.5	/experiments/AOT/AOT_stimuli/rescaled_final/0476_rv.mp4	0.0	170.83781027793884	0.9919168949127197
26	152.09107398986816	pulse	0	t		24.0	2.5	/experiments/AOT/AOT_stimuli/rescaled_final/0476_rv.mp4	0.0	171.8214991092682	
26	152.09930205345154	movie	1		246	24.0	2.5	/experiments/AOT/AOT_stimuli/rescaled_final/0476_rv.mp4	0.0	171.82972717285156	2.5081839561462402
26	153.6920211315155	pulse	1	t		24.0	2.5	/experiments/AOT/AOT_stimuli/rescaled_final/0476_rv.mp4	0.0	173.42244625091553	
26	154.60748600959778	fix_post	2		12	24.0	2.5	/experiments/AOT/AOT_stimuli/rescaled_final/0476_rv.mp4	0.0	174.3379111289978	0.09995317459106445
27	154.70743918418884	fix_pre	0		120	25.0	2.5	/experiments/AOT/AOT_stimuli/rescaled_final/0469_fw.mp4	0.0	174.43786430358887	1.0000219345092773
27	155.29097509384155	pulse	0	t		25.0	2.5	/experiments/AOT/AOT_stimuli/rescaled_final/0469_fw.mp4	0.0	175.02140021324158	
27	155.70746111869812	movie	1		244	25.0	2.5	/experiments/AOT/AOT_stimuli/rescaled_final/0469_fw.mp4	0.0	175.43788623809814	2.4995429515838623
27	156.89102005958557	pulse	1	t		25.0	2.5	/experiments/AOT/AOT_stimuli/rescaled_final/0469_fw.mp4	0.0	176.6214451789856	
27	158.20700407028198	fix_post	2		12	25.0	2.5	/experiments/AOT/AOT_stimuli/rescaled_final/0469_fw.mp4	0.0	177.937429189682	0.10040497779846191
28	158.30740904808044	fix_pre	0		120	26.0	2.5	/experiments/AOT/AOT_stimuli/rescaled_final/0327_fw.mp4	0.0	178.03783416748047	0.99959397315979
28	158.49102210998535	pulse	0	t		26.0	2.5	/experiments/AOT/AOT_stimuli/rescaled_final/0327_fw.mp4	0.0	178.22144722938538	
28	159.30700302124023	movie	1		244	26.0	2.5	/experiments/AOT/AOT_stimuli/rescaled_final/0327_fw.mp4	0.0	179.03742814064026	2.5000500679016113
28	160.09085702896118	pulse	1	t		26.0	2.5	/experiments/AOT/AOT_stimuli/rescaled_final/0327_fw.mp4	0.0	179.8212821483612	
28	161.691153049469	pulse	1	t		26.0	2.5	/experiments/AOT/AOT_stimuli/rescaled_final/0327_fw.mp4	0.0	181.42157816886902	
28	161.80705308914185	fix_post	2		12	26.0	2.5	/experiments/AOT/AOT_stimuli/rescaled_final/0327_fw.mp4	0.0	181.53747820854187	0.1003410816192627
29	161.9073941707611	fix_pre	0		120	27.0	2.5	/experiments/AOT/AOT_stimuli/rescaled_final/0872_fw.mp4	0.0	181.63781929016113	0.9999568462371826
29	162.9073510169983	movie	1		244	27.0	2.5	/experiments/AOT/AOT_stimuli/rescaled_final/0872_fw.mp4	0.0	182.63777613639832	2.5000340938568115
29	163.29034900665283	pulse	1	t		27.0	2.5	/experiments/AOT/AOT_stimuli/rescaled_final/0872_fw.mp4	0.0	183.02077412605286	
29	164.89088797569275	pulse	1	t		27.0	2.5	/experiments/AOT/AOT_stimuli/rescaled_final/0872_fw.mp4	0.0	184.62131309509277	
29	165.4073851108551	fix_post	2		12	27.0	2.5	/experiments/AOT/AOT_stimuli/rescaled_final/0872_fw.mp4	0.0	185.13781023025513	0.10003995895385742
30	165.50742506980896	fix_pre	0		119	28.0	2.5	blank	1.0	185.23785018920898	0.9916391372680664
30	166.49086809158325	pulse	0	t		28.0	2.5	blank	1.0	186.22129321098328	
30	166.49906420707703	movie	1		301	28.0	2.5	blank	1.0	186.22948932647705	2.5085058212280273
30	168.09095001220703	pulse	1	t		28.0	2.5	blank	1.0	187.82137513160706	
30	169.00757002830505	fix_post	2		12	28.0	2.5	blank	1.0	188.73799514770508	0.09982013702392578
31	169.10739016532898	fix_pre	0		120	29.0	2.5	/experiments/AOT/AOT_stimuli/rescaled_final/0470_rv.mp4	0.0	188.837815284729	1.0000178813934326
31	169.69083213806152	pulse	0	t		29.0	2.5	/experiments/AOT/AOT_stimuli/rescaled_final/0470_rv.mp4	0.0	189.42125725746155	
31	170.1074080467224	movie	1		246	29.0	2.5	/experiments/AOT/AOT_stimuli/rescaled_final/0470_rv.mp4	0.0	189.83783316612244	2.4995579719543457
31	171.29091215133667	pulse	1	t		29.0	2.5	/experiments/AOT/AOT_stimuli/rescaled_final/0470_rv.mp4	0.0	191.0213372707367	
31	172.60696601867676	fix_post	2		12	29.0	2.5	/experiments/AOT/AOT_stimuli/rescaled_final/0470_rv.mp4	0.0	192.33739113807678	0.10044407844543457
32	172.7074100971222	fix_pre	0		120	30.0	2.5	/experiments/AOT/AOT_stimuli/rescaled_final/1945_rv.mp4	0.0	192.43783521652222	1.0000510215759277
32	172.89086318016052	pulse	0	t		30.0	2.5	/experiments/AOT/AOT_stimuli/rescaled_final/1945_rv.mp4	0.0	192.62128829956055	
32	173.70746111869812	movie	1		245	30.0	2.5	/experiments/AOT/AOT_stimuli/rescaled_final/1945_rv.mp4	0.0	193.43788623809814	2.499971866607666
32	174.49086904525757	pulse	1	t		30.0	2.5	/experiments/AOT/AOT_stimuli/rescaled_final/1945_rv.mp4	0.0	194.2212941646576	
32	176.08956813812256	pulse	1	t		30.0	2.5	/experiments/AOT/AOT_stimuli/rescaled_final/1945_rv.mp4	0.0	195.81999325752258	
32	176.2074329853058	fix_post	2		12	30.0	2.5	/experiments/AOT/AOT_stimuli/rescaled_final/1945_rv.mp4	0.0	195.9378581047058	0.09984517097473145
33	176.30727815628052	fix_pre	0		120	31.0	2.5	/experiments/AOT/AOT_stimuli/rescaled_final/0476_fw.mp4	0.0	196.03770327568054	1.0001628398895264
33	177.30744099617004	movie	1		244	31.0	2.5	/experiments/AOT/AOT_stimuli/rescaled_final/0476_fw.mp4	0.0	197.03786611557007	2.4999899864196777
33	177.69040417671204	pulse	1	t		31.0	2.5	/experiments/AOT/AOT_stimuli/rescaled_final/0476_fw.mp4	0.0	197.42082929611206	
33	179.29098510742188	pulse	1	t		31.0	2.5	/experiments/AOT/AOT_stimuli/rescaled_final/0476_fw.mp4	0.0	199.0214102268219	
33	179.80743098258972	fix_post	2		12	31.0	2.5	/experiments/AOT/AOT_stimuli/rescaled_final/0476_fw.mp4	0.0	199.53785610198975	0.100006103515625
34	179.90743708610535	fix_pre	0		119	32.0	2.5	/experiments/AOT/AOT_stimuli/rescaled_final/1915_rv.mp4	0.0	199.63786220550537	0.9915199279785156
34	180.89083814620972	pulse	0	t		32.0	2.5	/experiments/AOT/AOT_stimuli/rescaled_final/1915_rv.mp4	0.0	200.62126326560974	
34	180.89895701408386	movie	1		244	32.0	2.5	/experiments/AOT/AOT_stimuli/rescaled_final/1915_rv.mp4	0.0	200.6293821334839	2.508419990539551
34	182.4911720752716	pulse	1	t		32.0	2.5	/experiments/AOT/AOT_stimuli/rescaled_final/1915_rv.mp4	0.0	202.22159719467163	
34	183.4073770046234	fix_post	2		12	32.0	2.5	/experiments/AOT/AOT_stimuli/rescaled_final/1915_rv.mp4	0.0	203.13780212402344	0.10005712509155273
35	183.50743412971497	fix_pre	0		120	33.0	2.5	/experiments/AOT/AOT_stimuli/rescaled_final/0624_fw.mp4	0.0	203.237859249115	0.999884843826294
35	184.09084916114807	pulse	0	t		33.0	2.5	/experiments/AOT/AOT_stimuli/rescaled_final/0624_fw.mp4	0.0	203.8212742805481	
35	184.50731897354126	movie	1		243	33.0	2.5	/experiments/AOT/AOT_stimuli/rescaled_final/0624_fw.mp4	0.0	204.23774409294128	2.500026226043701
35	185.6909351348877	pulse	1	t		33.0	2.5	/experiments/AOT/AOT_stimuli/rescaled_final/0624_fw.mp4	0.0	205.42136025428772	
35	187.00734519958496	fix_post	2		12	33.0	2.5	/experiments/AOT/AOT_stimuli/rescaled_final/0624_fw.mp4	0.0	206.73777031898499	0.0998837947845459
36	187.1072289943695	fix_pre	0		120	34.0	2.5	blank	1.0	206.83765411376953	1.0002350807189941
36	187.29085302352905	pulse	0	t		34.0	2.5	blank	1.0	207.02127814292908	
36	188.1074640750885	movie	1		300	34.0	2.5	blank	1.0	207.83788919448853	2.499758005142212
36	188.89089608192444	pulse	1	t		34.0	2.5	blank	1.0	208.62132120132446	
36	190.49083709716797	pulse	1	t		34.0	2.5	blank	1.0	210.221262216568	
36	190.6072220802307	fix_post	2		12	34.0	2.5	blank	1.0	210.33764719963074	0.1001429557800293
37	190.70736503601074	fix_pre	0		120	35.0	2.5	/experiments/AOT/AOT_stimuli/rescaled_final/0810_rv.mp4	0.0	210.43779015541077	0.999859094619751
37	191.7072241306305	movie	1		244	35.0	2.5	/experiments/AOT/AOT_stimuli/rescaled_final/0810_rv.mp4	0.0	211.43764925003052	2.5000979900360107
37	192.09060502052307	pulse	1	t		35.0	2.5	/experiments/AOT/AOT_stimuli/rescaled_final/0810_rv.mp4	0.0	211.8210301399231	
37	193.69083404541016	pulse	1	t		35.0	2.5	/experiments/AOT/AOT_stimuli/rescaled_final/0810_rv.mp4	0.0	213.42125916481018	
37	194.2073221206665	fix_post	2		12	35.0	2.5	/experiments/AOT/AOT_stimuli/rescaled_final/0810_rv.mp4	0.0	213.93774724006653	0.09989190101623535
38	194.30721402168274	fix_pre	0		119	36.0	2.5	/experiments/AOT/AOT_stimuli/rescaled_final/1355_rv.mp4	0.0	214.03763914108276	0.9918341636657715
38	195.2908251285553	pulse	0	t		36.0	2.5	/experiments/AOT/AOT_stimuli/rescaled_final/1355_rv.mp4	0.0	215.02125024795532	
38	195.2990481853485	movie	1		244	36.0	2.5	/experiments/AOT/AOT_stimuli/rescaled_final/1355_rv.mp4	0.0	215.02947330474854	2.508171796798706
38	196.8904151916504	pulse	1	t		36.0	2.5	/experiments/AOT/AOT_stimuli/rescaled_final/1355_rv.mp4	0.0	216.62084031105042	
38	197.80721998214722	fix_post	2		12	36.0	2.5	/experiments/AOT/AOT_stimuli/rescaled_final/1355_rv.mp4	0.0	217.53764510154724	0.10003399848937988
39	197.9072539806366	fix_pre	0		120	37.0	2.5	/experiments/AOT/AOT_stimuli/rescaled_final/0080_rv.mp4	0.0	217.63767910003662	0.9999589920043945
39	198.49080419540405	pulse	0	t		37.0	2.5	/experiments/AOT/AOT_stimuli/rescaled_final/0080_rv.mp4	0.0	218.22122931480408	
39	198.907212972641	movie	1		244	37.0	2.5	/experiments/AOT/AOT_stimuli/rescaled_final/0080_rv.mp4	0.0	218.63763809204102	2.500042200088501
39	200.0908281803131	pulse	1	t		37.0	2.5	/experiments/AOT/AOT_stimuli/rescaled_final/0080_rv.mp4	0.0	219.82125329971313	
39	201.4072551727295	fix_post	2		12	37.0	2.5	/experiments/AOT/AOT_stimuli/rescaled_final/0080_rv.mp4	0.0	221.13768029212952	0.10004091262817383
40	201.50729608535767	fix_pre	0		120	38.0	2.5	/experiments/AOT/AOT_stimuli/rescaled_final/1869_rv.mp4	0.0	221.2377212047577	1.0000081062316895
40	201.69071316719055	pulse	0	t		38.0	2.5	/experiments/AOT/AOT_stimuli/rescaled_final/1869_rv.mp4	0.0	221.42113828659058	
40	202.50730419158936	movie	1		244	38.0	2.5	/experiments/AOT/AOT_stimuli/rescaled_final/1869_rv.mp4	0.0	222.23772931098938	2.499499797821045
40	203.29073810577393	pulse	1	t		38.0	2.5	/experiments/AOT/AOT_stimuli/rescaled_final/1869_rv.mp4	0.0	223.02116322517395	
40	204.88827800750732	pulse	1	t		38.0	2.5	/experiments/AOT/AOT_stimuli/rescaled_final/1869_rv.mp4	0.0	224.61870312690735	
40	205.0068039894104	fix_post	2		12	38.0	2.5	/experiments/AOT/AOT_stimuli/rescaled_final/1869_rv.mp4	0.0	224.73722910881042	0.10010004043579102
41	205.1069040298462	fix_pre	0		120	39.0	2.5	/experiments/AOT/AOT_stimuli/rescaled_final/1295_rv.mp4	0.0	224.83732914924622	1.0004761219024658
41	206.10738015174866	movie	1		244	39.0	2.5	/experiments/AOT/AOT_stimuli/rescaled_final/1295_rv.mp4	0.0	225.83780527114868	2.4994778633117676
41	206.49197506904602	pulse	1	t		39.0	2.5	/experiments/AOT/AOT_stimuli/rescaled_final/1295_rv.mp4	0.0	226.22240018844604	
41	208.0906801223755	pulse	1	t		39.0	2.5	/experiments/AOT/AOT_stimuli/rescaled_final/1295_rv.mp4	0.0	227.8211052417755	
41	208.60685801506042	fix_post	2		12	39.0	2.5	/experiments/AOT/AOT_stimuli/rescaled_final/1295_rv.mp4	0.0	228.33728313446045	0.10038900375366211
42	208.7072470188141	fix_pre	0		119	40.0	2.5	/experiments/AOT/AOT_stimuli/rescaled_final/2041_fw.mp4	0.0	228.4376721382141	0.99167799949646
42	209.69075107574463	pulse	0	t		40.0	2.5	/experiments/AOT/AOT_stimuli/rescaled_final/2041_fw.mp4	0.0	229.42117619514465	
42	209.69892501831055	movie	1		244	40.0	2.5	/experiments/AOT/AOT_stimuli/rescaled_final/2041_fw.mp4	0.0	229.42935013771057	2.507951021194458
42	211.29007506370544	pulse	1	t		40.0	2.5	/experiments/AOT/AOT_stimuli/rescaled_final/2041_fw.mp4	0.0	231.02050018310547	
42	212.206876039505	fix_post	2		12	40.0	2.5	/experiments/AOT/AOT_stimuli/rescaled_final/2041_fw.mp4	0.0	231.93730115890503	0.1002969741821289
43	212.30717301368713	fix_pre	0		120	41.0	2.5	blank	1.0	232.03759813308716	0.9999661445617676
43	212.89063501358032	pulse	0	t		41.0	2.5	blank	1.0	232.62106013298035	
43	213.3071391582489	movie	1		300	41.0	2.5	blank	1.0	233.03756427764893	2.49959397315979
43	214.4907100200653	pulse	1	t		41.0	2.5	blank	1.0	234.22113513946533	
43	215.8067331314087	fix_post	2		12	41.0	2.5	blank	1.0	235.53715825080872	0.10043692588806152
44	215.90717005729675	fix_pre	0		120	42.0	2.5	/experiments/AOT/AOT_stimuli/rescaled_final/1202_fw.mp4	0.0	235.63759517669678	0.9999971389770508
44	216.09058117866516	pulse	0	t		42.0	2.5	/experiments/AOT/AOT_stimuli/rescaled_final/1202_fw.mp4	0.0	235.82100629806519	
44	216.9071671962738	movie	1		244	42.0	2.5	/experiments/AOT/AOT_stimuli/rescaled_final/1202_fw.mp4	0.0	236.63759231567383	2.499926805496216
44	217.69064211845398	pulse	1	t		42.0	2.5	/experiments/AOT/AOT_stimuli/rescaled_final/1202_fw.mp4	0.0	237.421067237854	
44	219.2893261909485	pulse	1	t		42.0	2.5	/experiments/AOT/AOT_stimuli/rescaled_final/1202_fw.mp4	0.0	239.0197513103485	
44	219.40709400177002	fix_post	2		12	42.0	2.5	/experiments/AOT/AOT_stimuli/rescaled_final/1202_fw.mp4	0.0	239.13751912117004	0.09962606430053711
45	219.50672006607056	fix_pre	0		120	43.0	2.5	/experiments/AOT/AOT_stimuli/rescaled_final/1869_rv.mp4	0.0	239.23714518547058	0.9999520778656006
45	220.50667214393616	movie	1		243	43.0	2.5	/experiments/AOT/AOT_stimuli/rescaled_final/1869_rv.mp4	0.0	240.23709726333618	2.50006103515625
45	220.89008116722107	pulse	1	t		43.0	2.5	/experiments/AOT/AOT_stimuli/rescaled_final/1869_rv.mp4	0.0	240.6205062866211	
45	222.4906520843506	pulse	1	t		43.0	2.5	/experiments/AOT/AOT_stimuli/rescaled_final/1869_rv.mp4	0.0	242.2210772037506	
45	223.0067331790924	fix_post	2		12	43.0	2.5	/experiments/AOT/AOT_stimuli/rescaled_final/1869_rv.mp4	0.0	242.73715829849243	0.0999758243560791
46	223.1067090034485	fix_pre	0		119	44.0	2.5	/experiments/AOT/AOT_stimuli/rescaled_final/0872_rv.mp4	0.0	242.8371341228485	0.992156982421875
46	224.09073901176453	pulse	0	t		44.0	2.5	/experiments/AOT/AOT_stimuli/rescaled_final/0872_rv.mp4	0.0	243.82116413116455	
46	224.09886598587036	movie	1		245	44.0	2.5	/experiments/AOT/AOT_stimuli/rescaled_final/0872_rv.mp4	0.0	243.82929110527039	2.5078580379486084
46	225.69062304496765	pulse	1	t		44.0	2.5	/experiments/AOT/AOT_stimuli/rescaled_final/0872_rv.mp4	0.0	245.42104816436768	
46	226.60672402381897	fix_post	2		12	44.0	2.5	/experiments/AOT/AOT_stimuli/rescaled_final/0872_rv.mp4	0.0	246.337149143219	0.10044717788696289
47	226.70717120170593	fix_pre	0		120	45.0	2.5	/experiments/AOT/AOT_stimuli/rescaled_final/0254_fw.mp4	0.0	246.43759632110596	0.9999089241027832
47	227.29068899154663	pulse	0	t		45.0	2.5	/experiments/AOT/AOT_stimuli/rescaled_final/0254_fw.mp4	0.0	247.02111411094666	
47	227.70708012580872	movie	1		244	45.0	2.5	/experiments/AOT/AOT_stimuli/rescaled_final/0254_fw.mp4	0.0	247.43750524520874	2.499614953994751
47	228.8906970024109	pulse	1	t		45.0	2.5	/experiments/AOT/AOT_stimuli/rescaled_final/0254_fw.mp4	0.0	248.6211221218109	
47	230.20669507980347	fix_post	2		12	45.0	2.5	/experiments/AOT/AOT_stimuli/rescaled_final/0254_fw.mp4	0.0	249.9371201992035	0.10033893585205078
48	230.30703401565552	fix_pre	0		120	46.0	2.5	/experiments/AOT/AOT_stimuli/rescaled_final/2006_fw.mp4	0.0	250.03745913505554	1.0000250339508057
48	230.4905390739441	pulse	0	t		46.0	2.5	/experiments/AOT/AOT_stimuli/rescaled_final/2006_fw.mp4	0.0	250.22096419334412	
48	231.30705904960632	movie	1		243	46.0	2.5	/experiments/AOT/AOT_stimuli/rescaled_final/2006_fw.mp4	0.0	251.03748416900635	2.5000431537628174
48	232.0905361175537	pulse	1	t		46.0	2.5	/experiments/AOT/AOT_stimuli/rescaled_final/2006_fw.mp4	0.0	251.82096123695374	
48	233.6889660358429	pulse	1	t		46.0	2.5	/experiments/AOT/AOT_stimuli/rescaled_final/2006_fw.mp4	0.0	253.41939115524292	
48	233.80710220336914	fix_post	2		12	46.0	2.5	/experiments/AOT/AOT_stimuli/rescaled_final/2006_fw.mp4	0.0	253.53752732276917	0.10008096694946289
49	233.9071831703186	fix_pre	0		120	47.0	2.5	/experiments/AOT/AOT_stimuli/rescaled_final/0397_fw.mp4	0.0	253.63760828971863	0.999845027923584
49	234.9070281982422	movie	1		245	47.0	2.5	/experiments/AOT/AOT_stimuli/rescaled_final/0397_fw.mp4	0.0	254.6374533176422	2.500067949295044
49	235.2902410030365	pulse	1	t		47.0	2.5	/experiments/AOT/AOT_stimuli/rescaled_final/0397_fw.mp4	0.0	255.02066612243652	
49	236.8905110359192	pulse	1	t		47.0	2.5	/experiments/AOT/AOT_stimuli/rescaled_final/0397_fw.mp4	0.0	256.6209361553192	
49	237.40709614753723	fix_post	2		12	47.0	2.5	/experiments/AOT/AOT_stimuli/rescaled_final/0397_fw.mp4	0.0	257.13752126693726	0.09993600845336914
50	237.5070321559906	fix_pre	0		119	48.0	2.5	blank	1.0	257.2374572753906	0.9917049407958984
50	238.4905970096588	pulse	0	t		48.0	2.5	blank	1.0	258.22102212905884	
50	238.4987370967865	movie	1		301	48.0	2.5	blank	1.0	258.2291622161865	2.5083420276641846
50	240.09054517745972	pulse	1	t		48.0	2.5	blank	1.0	259.82097029685974	
50	241.00707912445068	fix_post	2		12	48.0	2.5	blank	1.0	260.7375042438507	0.09994697570800781
51	241.1070261001587	fix_pre	0		120	49.0	2.5	/experiments/AOT/AOT_stimuli/rescaled_final/0516_rv.mp4	0.0	260.8374512195587	1.0000278949737549
51	241.69049406051636	pulse	0	t		49.0	2.5	/experiments/AOT/AOT_stimuli/rescaled_final/0516_rv.mp4	0.0	261.4209191799164	
51	242.10705399513245	movie	1		243	49.0	2.5	/experiments/AOT/AOT_stimuli/rescaled_final/0516_rv.mp4	0.0	261.83747911453247	2.4995431900024414
51	243.29064297676086	pulse	1	t		49.0	2.5	/experiments/AOT/AOT_stimuli/rescaled_final/0516_rv.mp4	0.0	263.0210680961609	
51	244.6065971851349	fix_post	2		12	49.0	2.5	/experiments/AOT/AOT_stimuli/rescaled_final/0516_rv.mp4	0.0	264.3370223045349	0.10049796104431152
52	244.7070951461792	fix_pre	0		120	50.0	2.5	/experiments/AOT/AOT_stimuli/rescaled_final/0996_rv.mp4	0.0	264.4375202655792	0.9999499320983887
52	244.89053916931152	pulse	0	t		50.0	2.5	/experiments/AOT/AOT_stimuli/rescaled_final/0996_rv.mp4	0.0	264.62096428871155	
52	245.7070450782776	movie	1		243	50.0	2.5	/experiments/AOT/AOT_stimuli/rescaled_final/0996_rv.mp4	0.0	265.4374701976776	2.4999918937683105
52	246.49049615859985	pulse	1	t		50.0	2.5	/experiments/AOT/AOT_stimuli/rescaled_final/0996_rv.mp4	0.0	266.2209212779999	
52	248.08938717842102	pulse	1	t		50.0	2.5	/experiments/AOT/AOT_stimuli/rescaled_final/0996_rv.mp4	0.0	267.81981229782104	
52	248.2070369720459	fix_post	2		12	50.0	2.5	/experiments/AOT/AOT_stimuli/rescaled_final/0996_rv.mp4	0.0	267.9374620914459	0.09949111938476562
53	248.30652809143066	fix_pre	0		120	51.0	2.5	/experiments/AOT/AOT_stimuli/rescaled_final/0043_rv.mp4	0.0	268.0369532108307	1.0004971027374268
53	249.3070251941681	movie	1		243	51.0	2.5	/experiments/AOT/AOT_stimuli/rescaled_final/0043_rv.mp4	0.0	269.0374503135681	2.4999539852142334
53	249.69017601013184	pulse	1	t		51.0	2.5	/experiments/AOT/AOT_stimuli/rescaled_final/0043_rv.mp4	0.0	269.42060112953186	
53	251.29065608978271	pulse	1	t		51.0	2.5	/experiments/AOT/AOT_stimuli/rescaled_final/0043_rv.mp4	0.0	271.02108120918274	
53	251.80697917938232	fix_post	2		12	51.0	2.5	/experiments/AOT/AOT_stimuli/rescaled_final/0043_rv.mp4	0.0	271.53740429878235	0.10008692741394043
54	251.90706610679626	fix_pre	0		119	52.0	2.5	/experiments/AOT/AOT_stimuli/rescaled_final/1445_rv.mp4	0.0	271.6374912261963	0.9916150569915771
54	252.8905119895935	pulse	0	t		52.0	2.5	/experiments/AOT/AOT_stimuli/rescaled_final/1445_rv.mp4	0.0	272.62093710899353	
54	252.89868116378784	movie	1		244	52.0	2.5	/experiments/AOT/AOT_stimuli/rescaled_final/1445_rv.mp4	0.0	272.62910628318787	2.5082528591156006
54	254.49012398719788	pulse	1	t		52.0	2.5	/experiments/AOT/AOT_stimuli/rescaled_final/1445_rv.mp4	0.0	274.2205491065979	
54	255.40693402290344	fix_post	2		12	52.0	2.5	/experiments/AOT/AOT_stimuli/rescaled_final/1445_rv.mp4	0.0	275.13735914230347	0.10007596015930176
55	255.50700998306274	fix_pre	0		120	53.0	2.5	/experiments/AOT/AOT_stimuli/rescaled_final/1410_fw.mp4	0.0	275.23743510246277	0.9995770454406738
55	256.0905251502991	pulse	0	t		53.0	2.5	/experiments/AOT/AOT_stimuli/rescaled_final/1410_fw.mp4	0.0	275.8209502696991	
55	256.5065870285034	movie	1		244	53.0	2.5	/experiments/AOT/AOT_stimuli/rescaled_final/1410_fw.mp4	0.0	276.23701214790344	2.499943971633911
55	257.6905369758606	pulse	1	t		53.0	2.5	/experiments/AOT/AOT_stimuli/rescaled_final/1410_fw.mp4	0.0	277.4209620952606	
55	259.00653100013733	fix_post	2		12	53.0	2.5	/experiments/AOT/AOT_stimuli/rescaled_final/1410_fw.mp4	0.0	278.73695611953735	0.10044217109680176
56	259.10697317123413	fix_pre	0		120	54.0	2.5	blank	1.0	278.83739829063416	1.0000178813934326
56	259.29006910324097	pulse	0	t		54.0	2.5	blank	1.0	279.020494222641	
56	260.10699105262756	movie	1		300	54.0	2.5	blank	1.0	279.8374161720276	2.499885082244873
56	260.89059114456177	pulse	1	t		54.0	2.5	blank	1.0	280.6210162639618	
56	262.49072098731995	pulse	1	t		54.0	2.5	blank	1.0	282.22114610671997	
56	262.60687613487244	fix_post	2		12	54.0	2.5	blank	1.0	282.33730125427246	0.09997797012329102
57	262.7068541049957	fix_pre	0		120	55.0	2.5	/experiments/AOT/AOT_stimuli/rescaled_final/1991_rv.mp4	0.0	282.43727922439575	1.0001459121704102
57	263.70700001716614	movie	1		244	55.0	2.5	/experiments/AOT/AOT_stimuli/rescaled_final/1991_rv.mp4	0.0	283.43742513656616	2.4998691082000732
57	264.0914890766144	pulse	1	t		55.0	2.5	/experiments/AOT/AOT_stimuli/rescaled_final/1991_rv.mp4	0.0	283.8219141960144	
57	265.69050097465515	pulse	1	t		55.0	2.5	/experiments/AOT/AOT_stimuli/rescaled_final/1991_rv.mp4	0.0	285.4209260940552	
57	266.2068691253662	fix_post	2		12	55.0	2.5	/experiments/AOT/AOT_stimuli/rescaled_final/1991_rv.mp4	0.0	285.93729424476624	0.10003805160522461
58	266.30690717697144	fix_pre	0		119	56.0	2.5	/experiments/AOT/AOT_stimuli/rescaled_final/1028_rv.mp4	0.0	286.03733229637146	0.9917178153991699
58	267.2904951572418	pulse	0	t		56.0	2.5	/experiments/AOT/AOT_stimuli/rescaled_final/1028_rv.mp4	0.0	287.02092027664185	
58	267.2986249923706	movie	1		248	56.0	2.5	/experiments/AOT/AOT_stimuli/rescaled_final/1028_rv.mp4	0.0	287.02905011177063	2.508272171020508
58	268.89025712013245	pulse	1	t		56.0	2.5	/experiments/AOT/AOT_stimuli/rescaled_final/1028_rv.mp4	0.0	288.62068223953247	
58	269.8068971633911	fix_post	2		12	56.0	2.5	/experiments/AOT/AOT_stimuli/rescaled_final/1028_rv.mp4	0.0	289.53732228279114	0.10009098052978516
59	269.9069881439209	fix_pre	0		120	57.0	2.5	/experiments/AOT/AOT_stimuli/rescaled_final/0667_fw.mp4	0.0	289.6374132633209	0.999871015548706
59	270.49038004875183	pulse	0	t		57.0	2.5	/experiments/AOT/AOT_stimuli/rescaled_final/0667_fw.mp4	0.0	290.22080516815186	
59	270.9068591594696	movie	1		243	57.0	2.5	/experiments/AOT/AOT_stimuli/rescaled_final/0667_fw.mp4	0.0	290.63728427886963	2.5000100135803223
59	272.0904130935669	pulse	1	t		57.0	2.5	/experiments/AOT/AOT_stimuli/rescaled_final/0667_fw.mp4	0.0	291.8208382129669	
59	273.4068691730499	fix_post	2		12	57.0	2.5	/experiments/AOT/AOT_stimuli/rescaled_final/0667_fw.mp4	0.0	293.13729429244995	0.10005998611450195
60	273.50692915916443	fix_pre	0		120	58.0	2.5	/experiments/AOT/AOT_stimuli/rescaled_final/0133_rv.mp4	0.0	293.23735427856445	0.9999468326568604
60	273.6904671192169	pulse	0	t		58.0	2.5	/experiments/AOT/AOT_stimuli/rescaled_final/0133_rv.mp4	0.0	293.42089223861694	
60	274.5068759918213	movie	1		243	58.0	2.5	/experiments/AOT/AOT_stimuli/rescaled_final/0133_rv.mp4	0.0	294.2373011112213	2.499591112136841
60	275.29033613204956	pulse	1	t		58.0	2.5	/experiments/AOT/AOT_stimuli/rescaled_final/0133_rv.mp4	0.0	295.0207612514496	
60	276.8888201713562	pulse	1	t		58.0	2.5	/experiments/AOT/AOT_stimuli/rescaled_final/0133_rv.mp4	0.0	296.6192452907562	
60	277.00646710395813	fix_post	2		12	58.0	2.5	/experiments/AOT/AOT_stimuli/rescaled_final/0133_rv.mp4	0.0	296.73689222335815	0.10040903091430664
61	277.10687613487244	fix_pre	0		120	59.0	2.5	/experiments/AOT/AOT_stimuli/rescaled_final/0175_rv.mp4	0.0	296.83730125427246	0.9999680519104004
61	278.10684418678284	movie	1		245	59.0	2.5	/experiments/AOT/AOT_stimuli/rescaled_final/0175_rv.mp4	0.0	297.83726930618286	2.500048875808716
61	278.4902231693268	pulse	1	t		59.0	2.5	/experiments/AOT/AOT_stimuli/rescaled_final/0175_rv.mp4	0.0	298.2206482887268	
61	280.09036016464233	pulse	1	t		59.0	2.5	/experiments/AOT/AOT_stimuli/rescaled_final/0175_rv.mp4	0.0	299.82078528404236	
61	280.60689306259155	fix_post	2		12	59.0	2.5	/experiments/AOT/AOT_stimuli/rescaled_final/0175_rv.mp4	0.0	300.3373181819916	0.10002303123474121
62	280.7069160938263	fix_pre	0		119	60.0	2.5	/experiments/AOT/AOT_stimuli/rescaled_final/1501_rv.mp4	0.0	300.4373412132263	0.9916260242462158
62	281.6903669834137	pulse	0	t		60.0	2.5	/experiments/AOT/AOT_stimuli/rescaled_final/1501_rv.mp4	0.0	301.4207921028137	
62	281.6985421180725	movie	1		247	60.0	2.5	/experiments/AOT/AOT_stimuli/rescaled_final/1501_rv.mp4	0.0	301.42896723747253	2.507957935333252
62	283.2899241447449	pulse	1	t		60.0	2.5	/experiments/AOT/AOT_stimuli/rescaled_final/1501_rv.mp4	0.0	303.0203492641449	
62	284.20650005340576	fix_post	2		12	60.0	2.5	/experiments/AOT/AOT_stimuli/rescaled_final/1501_rv.mp4	0.0	303.9369251728058	0.0999441146850586
63	284.3064441680908	fix_pre	0		120	61.0	2.5	blank	1.0	304.03686928749084	1.000382900238037
63	284.89037919044495	pulse	0	t		61.0	2.5	blank	1.0	304.62080430984497	
63	285.30682706832886	movie	1		300	61.0	2.5	blank	1.0	305.0372521877289	2.5000569820404053
63	286.4904181957245	pulse	1	t		61.0	2.5	blank	1.0	306.2208433151245	
63	287.80688405036926	fix_post	2		12	61.0	2.5	blank	1.0	307.5373091697693	0.10002899169921875
64	287.9069130420685	fix_pre	0		120	62.0	2.5	/experiments/AOT/AOT_stimuli/rescaled_final/0793_rv.mp4	0.0	307.6373381614685	0.9998779296875
64	288.090350151062	pulse	0	t		62.0	2.5	/experiments/AOT/AOT_stimuli/rescaled_final/0793_rv.mp4	0.0	307.82077527046204	
64	288.906790971756	movie	1		243	62.0	2.5	/experiments/AOT/AOT_stimuli/rescaled_final/0793_rv.mp4	0.0	308.637216091156	2.500115156173706
64	289.69029998779297	pulse	1	t		62.0	2.5	/experiments/AOT/AOT_stimuli/rescaled_final/0793_rv.mp4	0.0	309.420725107193	
64	291.28865909576416	pulse	1	t		62.0	2.5	/experiments/AOT/AOT_stimuli/rescaled_final/0793_rv.mp4	0.0	311.0190842151642	
64	291.4069061279297	fix_post	2		12	62.0	2.5	/experiments/AOT/AOT_stimuli/rescaled_final/0793_rv.mp4	0.0	311.1373312473297	0.09992790222167969
65	291.50683403015137	fix_pre	0		120	63.0	2.5	/experiments/AOT/AOT_stimuli/rescaled_final/2047_fw.mp4	0.0	311.2372591495514	0.9999361038208008
65	292.50677013397217	movie	1		244	63.0	2.5	/experiments/AOT/AOT_stimuli/rescaled_final/2047_fw.mp4	0.0	312.2371952533722	2.5000059604644775
65	292.8915481567383	pulse	1	t		63.0	2.5	/experiments/AOT/AOT_stimuli/rescaled_final/2047_fw.mp4	0.0	312.6219732761383	
65	294.49030113220215	pulse	1	t		63.0	2.5	/experiments/AOT/AOT_stimuli/rescaled_final/2047_fw.mp4	0.0	314.2207262516022	
65	295.00677609443665	fix_post	2		12	63.0	2.5	/experiments/AOT/AOT_stimuli/rescaled_final/2047_fw.mp4	0.0	314.73720121383667	0.10016989707946777
66	295.1069459915161	fix_pre	0		119	64.0	2.5	/experiments/AOT/AOT_stimuli/rescaled_final/0397_rv.mp4	0.0	314.83737111091614	0.9915671348571777
66	296.09031915664673	pulse	0	t		64.0	2.5	/experiments/AOT/AOT_stimuli/rescaled_final/0397_rv.mp4	0.0	315.82074427604675	
66	296.0985131263733	movie	1		245	64.0	2.5	/experiments/AOT/AOT_stimuli/rescaled_final/0397_rv.mp4	0.0	315.8289382457733	2.5082459449768066
66	297.68996119499207	pulse	1	t		64.0	2.5	/experiments/AOT/AOT_stimuli/rescaled_final/0397_rv.mp4	0.0	317.4203863143921	
66	298.6067590713501	fix_post	2		12	64.0	2.5	/experiments/AOT/AOT_stimuli/rescaled_final/0397_rv.mp4	0.0	318.3371841907501	0.09998011589050293
67	298.7067391872406	fix_pre	0		120	65.0	2.5	/experiments/AOT/AOT_stimuli/rescaled_final/0107_fw.mp4	0.0	318.4371643066406	1.0000219345092773
67	299.2903220653534	pulse	0	t		65.0	2.5	/experiments/AOT/AOT_stimuli/rescaled_final/0107_fw.mp4	0.0	319.0207471847534	
67	299.7067611217499	movie	1		246	65.0	2.5	/experiments/AOT/AOT_stimuli/rescaled_final/0107_fw.mp4	0.0	319.4371862411499	2.4999709129333496
67	300.89033007621765	pulse	1	t		65.0	2.5	/experiments/AOT/AOT_stimuli/rescaled_final/0107_fw.mp4	0.0	320.6207551956177	
67	302.2067320346832	fix_post	2		12	65.0	2.5	/experiments/AOT/AOT_stimuli/rescaled_final/0107_fw.mp4	0.0	321.93715715408325	0.10000205039978027
68	302.306734085083	fix_pre	0		120	66.0	2.5	/experiments/AOT/AOT_stimuli/rescaled_final/0308_rv.mp4	0.0	322.03715920448303	0.9999840259552002
68	302.490266084671	pulse	0	t		66.0	2.5	/experiments/AOT/AOT_stimuli/rescaled_final/0308_rv.mp4	0.0	322.22069120407104	
68	303.3067181110382	movie	1		244	66.0	2.5	/experiments/AOT/AOT_stimuli/rescaled_final/0308_rv.mp4	0.0	323.03714323043823	2.499558925628662
68	304.0902690887451	pulse	1	t		66.0	2.5	/experiments/AOT/AOT_stimuli/rescaled_final/0308_rv.mp4	0.0	323.82069420814514	
68	305.68871307373047	pulse	1	t		66.0	2.5	/experiments/AOT/AOT_stimuli/rescaled_final/0308_rv.mp4	0.0	325.4191381931305	
68	305.80627703666687	fix_post	2		12	66.0	2.5	/experiments/AOT/AOT_stimuli/rescaled_final/0308_rv.mp4	0.0	325.5367021560669	0.10053706169128418
69	305.90681409835815	fix_pre	0		120	67.0	2.5	/experiments/AOT/AOT_stimuli/rescaled_final/1452_rv.mp4	0.0	325.6372392177582	0.9994618892669678
69	306.9062759876251	movie	1		244	67.0	2.5	/experiments/AOT/AOT_stimuli/rescaled_final/1452_rv.mp4	0.0	326.63670110702515	2.500425100326538
69	307.2897870540619	pulse	1	t		67.0	2.5	/experiments/AOT/AOT_stimuli/rescaled_final/1452_rv.mp4	0.0	327.0202121734619	
69	308.89025616645813	pulse	1	t		67.0	2.5	/experiments/AOT/AOT_stimuli/rescaled_final/1452_rv.mp4	0.0	328.62068128585815	
69	309.40670108795166	fix_post	2		12	67.0	2.5	/experiments/AOT/AOT_stimuli/rescaled_final/1452_rv.mp4	0.0	329.1371262073517	0.10010910034179688
70	309.50681018829346	fix_pre	0		119	68.0	2.5	/experiments/AOT/AOT_stimuli/rescaled_final/1153_fw.mp4	0.0	329.2372353076935	0.9915719032287598
70	310.4902720451355	pulse	0	t		68.0	2.5	/experiments/AOT/AOT_stimuli/rescaled_final/1153_fw.mp4	0.0	330.2206971645355	
70	310.4983820915222	movie	1		246	68.0	2.5	/experiments/AOT/AOT_stimuli/rescaled_final/1153_fw.mp4	0.0	330.22880721092224	2.507952928543091
70	312.09155797958374	pulse	1	t		68.0	2.5	/experiments/AOT/AOT_stimuli/rescaled_final/1153_fw.mp4	0.0	331.82198309898376	
70	313.0063350200653	fix_post	2		12	68.0	2.5	/experiments/AOT/AOT_stimuli/rescaled_final/1153_fw.mp4	0.0	332.73676013946533	0.1004781723022461
71	313.10681319236755	fix_pre	0		120	69.0	2.5	blank	1.0	332.8372383117676	0.9998528957366943
71	313.6902701854706	pulse	0	t		69.0	2.5	blank	1.0	333.4206953048706	
71	314.10666608810425	movie	1		300	69.0	2.5	blank	1.0	333.8370912075043	2.49967098236084
71	315.29022908210754	pulse	1	t		69.0	2.5	blank	1.0	335.02065420150757	
71	316.6063370704651	fix_post	2		12	69.0	2.5	blank	1.0	336.3367621898651	0.09998512268066406
72	316.70632219314575	fix_pre	0		120	70.0	2.5	/experiments/AOT/AOT_stimuli/rescaled_final/0949_fw.mp4	0.0	336.4367473125458	1.0005278587341309
72	316.8902750015259	pulse	0	t		70.0	2.5	/experiments/AOT/AOT_stimuli/rescaled_final/0949_fw.mp4	0.0	336.6207001209259	
72	317.7068500518799	movie	1		244	70.0	2.5	/experiments/AOT/AOT_stimuli/rescaled_final/0949_fw.mp4	0.0	337.4372751712799	2.499829053878784
72	318.4899899959564	pulse	1	t		70.0	2.5	/experiments/AOT/AOT_stimuli/rescaled_final/0949_fw.mp4	0.0	338.22041511535645	
72	320.0887851715088	pulse	1	t		70.0	2.5	/experiments/AOT/AOT_stimuli/rescaled_final/0949_fw.mp4	0.0	339.8192102909088	
72	320.20667910575867	fix_post	2		12	70.0	2.5	/experiments/AOT/AOT_stimuli/rescaled_final/0949_fw.mp4	0.0	339.9371042251587	0.10007905960083008
73	320.3067581653595	fix_pre	0		120	71.0	2.5	/experiments/AOT/AOT_stimuli/rescaled_final/0739_fw.mp4	0.0	340.0371832847595	0.9999279975891113
73	321.3066861629486	movie	1		246	71.0	2.5	/experiments/AOT/AOT_stimuli/rescaled_final/0739_fw.mp4	0.0	341.03711128234863	2.4996209144592285
73	321.68975019454956	pulse	1	t		71.0	2.5	/experiments/AOT/AOT_stimuli/rescaled_final/0739_fw.mp4	0.0	341.4201753139496	
73	323.2902150154114	pulse	1	t		71.0	2.5	/experiments/AOT/AOT_stimuli/rescaled_final/0739_fw.mp4	0.0	343.0206401348114	
73	323.80630707740784	fix_post	2		12	71.0	2.5	/experiments/AOT/AOT_stimuli/rescaled_final/0739_fw.mp4	0.0	343.53673219680786	0.1003119945526123
74	323.90661907196045	fix_pre	0		119	72.0	2.5	/experiments/AOT/AOT_stimuli/rescaled_final/1503_fw.mp4	0.0	343.6370441913605	0.991657018661499
74	324.8901300430298	pulse	0	t		72.0	2.5	/experiments/AOT/AOT_stimuli/rescaled_final/1503_fw.mp4	0.0	344.6205551624298	
74	324.89827609062195	movie	1		248	72.0	2.5	/experiments/AOT/AOT_stimuli/rescaled_final/1503_fw.mp4	0.0	344.628701210022	2.5083060264587402
74	326.49042320251465	pulse	1	t		72.0	2.5	/experiments/AOT/AOT_stimuli/rescaled_final/1503_fw.mp4	0.0	346.2208483219147	
74	327.4065821170807	fix_post	2		12	72.0	2.5	/experiments/AOT/AOT_stimuli/rescaled_final/1503_fw.mp4	0.0	347.1370072364807	0.10005593299865723
75	327.50663805007935	fix_pre	0		120	73.0	2.5	/experiments/AOT/AOT_stimuli/rescaled_final/1807_fw.mp4	0.0	347.23706316947937	1.0000169277191162
75	328.09005999565125	pulse	0	t		73.0	2.5	/experiments/AOT/AOT_stimuli/rescaled_final/1807_fw.mp4	0.0	347.82048511505127	
75	328.50665497779846	movie	1		245	73.0	2.5	/experiments/AOT/AOT_stimuli/rescaled_final/1807_fw.mp4	0.0	348.2370800971985	2.500030994415283
75	329.69022703170776	pulse	1	t		73.0	2.5	/experiments/AOT/AOT_stimuli/rescaled_final/1807_fw.mp4	0.0	349.4206521511078	
75	331.00668597221375	fix_post	2		12	73.0	2.5	/experiments/AOT/AOT_stimuli/rescaled_final/1807_fw.mp4	0.0	350.73711109161377	0.09989118576049805
76	331.10657715797424	fix_pre	0		120	74.0	2.5	/experiments/AOT/AOT_stimuli/rescaled_final/0503_rv.mp4	0.0	350.83700227737427	1.000044822692871
76	331.2901380062103	pulse	0	t		74.0	2.5	/experiments/AOT/AOT_stimuli/rescaled_final/0503_rv.mp4	0.0	351.02056312561035	
76	332.1066219806671	movie	1		245	74.0	2.5	/experiments/AOT/AOT_stimuli/rescaled_final/0503_rv.mp4	0.0	351.83704710006714	2.499951124191284
76	332.89014410972595	pulse	1	t		74.0	2.5	/experiments/AOT/AOT_stimuli/rescaled_final/0503_rv.mp4	0.0	352.620569229126	
76	334.4885971546173	pulse	1	t		74.0	2.5	/experiments/AOT/AOT_stimuli/rescaled_final/0503_rv.mp4	0.0	354.21902227401733	
76	334.6065731048584	fix_post	2		12	74.0	2.5	/experiments/AOT/AOT_stimuli/rescaled_final/0503_rv.mp4	0.0	354.3369982242584	0.10002589225769043
77	334.7065989971161	fix_pre	0		120	75.0	2.5	/experiments/AOT/AOT_stimuli/rescaled_final/0469_fw.mp4	0.0	354.4370241165161	0.9999780654907227
77	335.7065770626068	movie	1		244	75.0	2.5	/experiments/AOT/AOT_stimuli/rescaled_final/0469_fw.mp4	0.0	355.43700218200684	2.499953031539917
77	336.0911350250244	pulse	1	t		75.0	2.5	/experiments/AOT/AOT_stimuli/rescaled_final/0469_fw.mp4	0.0	355.82156014442444	
77	337.69009804725647	pulse	1	t		75.0	2.5	/experiments/AOT/AOT_stimuli/rescaled_final/0469_fw.mp4	0.0	357.4205231666565	
77	338.20653009414673	fix_post	2		12	75.0	2.5	/experiments/AOT/AOT_stimuli/rescaled_final/0469_fw.mp4	0.0	357.93695521354675	0.10002303123474121
78	338.30655312538147	fix_pre	0		119	76.0	2.5	blank	1.0	358.0369782447815	0.9916698932647705
78	339.2900490760803	pulse	0	t		76.0	2.5	blank	1.0	359.02047419548035	
78	339.29822301864624	movie	1		301	76.0	2.5	blank	1.0	359.02864813804626	2.508357048034668
78	340.89004611968994	pulse	1	t		76.0	2.5	blank	1.0	360.62047123908997	
78	341.8065800666809	fix_post	2		12	76.0	2.5	blank	1.0	361.53700518608093	0.10007500648498535
79	341.9066550731659	fix_pre	0		120	77.0	2.5	/experiments/AOT/AOT_stimuli/rescaled_final/0023_rv.mp4	0.0	361.6370801925659	0.9999160766601562
79	342.4901280403137	pulse	0	t		77.0	2.5	/experiments/AOT/AOT_stimuli/rescaled_final/0023_rv.mp4	0.0	362.22055315971375	
79	342.90657114982605	movie	1		245	77.0	2.5	/experiments/AOT/AOT_stimuli/rescaled_final/0023_rv.mp4	0.0	362.6369962692261	2.5002028942108154
79	344.09020709991455	pulse	1	t		77.0	2.5	/experiments/AOT/AOT_stimuli/rescaled_final/0023_rv.mp4	0.0	363.8206322193146	
79	345.40677404403687	fix_post	2		12	77.0	2.5	/experiments/AOT/AOT_stimuli/rescaled_final/0023_rv.mp4	0.0	365.1371991634369	0.0997769832611084
80	345.506551027298	fix_pre	0		120	78.0	2.5	/experiments/AOT/AOT_stimuli/rescaled_final/1612_rv.mp4	0.0	365.236976146698	0.9996170997619629
80	345.6901171207428	pulse	0	t		78.0	2.5	/experiments/AOT/AOT_stimuli/rescaled_final/1612_rv.mp4	0.0	365.4205422401428	
80	346.50616812705994	movie	1		246	78.0	2.5	/experiments/AOT/AOT_stimuli/rescaled_final/1612_rv.mp4	0.0	366.23659324645996	2.5003879070281982
80	347.29001116752625	pulse	1	t		78.0	2.5	/experiments/AOT/AOT_stimuli/rescaled_final/1612_rv.mp4	0.0	367.02043628692627	
80	348.88868498802185	pulse	1	t		78.0	2.5	/experiments/AOT/AOT_stimuli/rescaled_final/1612_rv.mp4	0.0	368.6191101074219	
80	349.00655603408813	fix_post	2		12	78.0	2.5	/experiments/AOT/AOT_stimuli/rescaled_final/1612_rv.mp4	0.0	368.73698115348816	0.09952902793884277
81	349.106085062027	fix_pre	0		120	79.0	2.5	/experiments/AOT/AOT_stimuli/rescaled_final/2150_rv.mp4	0.0	368.836510181427	1.0004141330718994
81	350.1064991950989	movie	1		245	79.0	2.5	/experiments/AOT/AOT_stimuli/rescaled_final/2150_rv.mp4	0.0	369.8369243144989	2.4999589920043945
81	350.4898099899292	pulse	1	t		79.0	2.5	/experiments/AOT/AOT_stimuli/rescaled_final/2150_rv.mp4	0.0	370.2202351093292	
81	352.0900499820709	pulse	1	t		79.0	2.5	/experiments/AOT/AOT_stimuli/rescaled_final/2150_rv.mp4	0.0	371.82047510147095	
81	352.60645818710327	fix_post	2		12	79.0	2.5	/experiments/AOT/AOT_stimuli/rescaled_final/2150_rv.mp4	0.0	372.3368833065033	0.09996891021728516
82	352.70642709732056	fix_pre	0		119	80.0	2.5	/experiments/AOT/AOT_stimuli/rescaled_final/0269_rv.mp4	0.0	372.4368522167206	0.9917941093444824
82	353.6899561882019	pulse	0	t		80.0	2.5	/experiments/AOT/AOT_stimuli/rescaled_final/0269_rv.mp4	0.0	373.42038130760193	
82	353.69822120666504	movie	1		247	80.0	2.5	/experiments/AOT/AOT_stimuli/rescaled_final/0269_rv.mp4	0.0	373.42864632606506	2.5082738399505615
82	355.2898859977722	pulse	1	t		80.0	2.5	/experiments/AOT/AOT_stimuli/rescaled_final/0269_rv.mp4	0.0	375.02031111717224	
82	356.2064950466156	fix_post	2		12	80.0	2.5	/experiments/AOT/AOT_stimuli/rescaled_final/0269_rv.mp4	0.0	375.9369201660156	0.10003995895385742
83	356.30653500556946	fix_pre	0		120	81.0	2.5	/experiments/AOT/AOT_stimuli/rescaled_final/0902_rv.mp4	0.0	376.0369601249695	0.9999749660491943
83	356.8900270462036	pulse	0	t		81.0	2.5	/experiments/AOT/AOT_stimuli/rescaled_final/0902_rv.mp4	0.0	376.62045216560364	
83	357.30650997161865	movie	1		246	81.0	2.5	/experiments/AOT/AOT_stimuli/rescaled_final/0902_rv.mp4	0.0	377.0369350910187	2.499523162841797
83	358.49005603790283	pulse	1	t		81.0	2.5	/experiments/AOT/AOT_stimuli/rescaled_final/0902_rv.mp4	0.0	378.22048115730286	
83	359.80603313446045	fix_post	2		12	81.0	2.5	/experiments/AOT/AOT_stimuli/rescaled_final/0902_rv.mp4	0.0	379.5364582538605	0.10045599937438965
84	359.90648913383484	fix_pre	0		120	82.0	2.5	/experiments/AOT/AOT_stimuli/rescaled_final/1237_rv.mp4	0.0	379.63691425323486	0.9995338916778564
84	360.089919090271	pulse	0	t		82.0	2.5	/experiments/AOT/AOT_stimuli/rescaled_final/1237_rv.mp4	0.0	379.820344209671	
84	360.9060230255127	movie	1		244	82.0	2.5	/experiments/AOT/AOT_stimuli/rescaled_final/1237_rv.mp4	0.0	380.6364481449127	2.500460147857666
84	361.69000005722046	pulse	1	t		82.0	2.5	/experiments/AOT/AOT_stimuli/rescaled_final/1237_rv.mp4	0.0	381.4204251766205	
84	363.2885181903839	pulse	1	t		82.0	2.5	/experiments/AOT/AOT_stimuli/rescaled_final/1237_rv.mp4	0.0	383.01894330978394	
84	363.40648317337036	fix_post	2		12	82.0	2.5	/experiments/AOT/AOT_stimuli/rescaled_final/1237_rv.mp4	0.0	383.1369082927704	0.09957599639892578
85	363.5060591697693	fix_pre	0		120	83.0	2.5	blank	1.0	383.2364842891693	1.0003769397735596
85	364.50643610954285	movie	1		300	83.0	2.5	blank	1.0	384.23686122894287	2.4997150897979736
85	364.8901150226593	pulse	1	t		83.0	2.5	blank	1.0	384.6205401420593	
85	366.4899401664734	pulse	1	t		83.0	2.5	blank	1.0	386.2203652858734	
85	367.0061511993408	fix_post	2		12	83.0	2.5	blank	1.0	386.73657631874084	0.10029077529907227
87	367.1064419746399	stim	0		1716					386.8368670940399	14.299996137619019
87	368.09002208709717	pulse	0	t						387.8204472064972	
87	369.6898829936981	pulse	0	t						389.42030811309814	
87	371.2899332046509	pulse	0	t						391.0203583240509	
87	372.8900640010834	pulse	0	t						392.6204891204834	
87	374.48975801467896	pulse	0	t						394.220183134079	
87	376.08990597724915	pulse	0	t						395.82033109664917	
87	377.68994903564453	pulse	0	t						397.42037415504456	
87	379.2898280620575	pulse	0	t						399.0202531814575	
87	380.88978719711304	pulse	0	t						400.62021231651306	
