trial_nr	onset	event_type	phase	response	nr_frames	movie_index	movie_duration	movie_file	blank	onset_abs	duration
0	0.14987421035766602	stim	0		6					16.873058795928955	0.04996156692504883
0	0.1917743682861328	response	0	space						16.914958953857422	
1	0.19983577728271484	stim	0		4687					16.923020362854004	39.067044734954834
1	39.25623321533203	pulse	0	t						55.97941780090332	
1	39.26688051223755	stim	1		1714					55.99006509780884	14.299413204193115
1	40.856359243392944	pulse	1	t						57.57954382896423	
1	42.45645213127136	pulse	1	t						59.17963671684265	
1	44.056679487228394	pulse	1	t						60.77986407279968	
1	45.656877279281616	pulse	1	t						62.380061864852905	
1	47.25716280937195	pulse	1	t						63.98034739494324	
1	48.850202560424805	pulse	1	t						65.5733871459961	
1	50.44967484474182	pulse	1	t						67.17285943031311	
1	52.04965114593506	pulse	1	t						68.77283573150635	
2	53.566293716430664	fix_pre	0		11	0.0	2.5	/experiments/Knapen_AOT/AOT_stimuli/rescaled_final/1292_rv.mp4	0.0	70.28947830200195	0.10833311080932617
2	53.649821043014526	pulse	0	t		0.0	2.5	/experiments/Knapen_AOT/AOT_stimuli/rescaled_final/1292_rv.mp4	0.0	70.37300562858582	
2	53.67462682723999	movie	1		282	0.0	2.5	/experiments/Knapen_AOT/AOT_stimuli/rescaled_final/1292_rv.mp4	0.0	70.39781141281128	2.4919888973236084
2	55.25010681152344	pulse	1	t		0.0	2.5	/experiments/Knapen_AOT/AOT_stimuli/rescaled_final/1292_rv.mp4	0.0	71.97329139709473	
2	56.1666157245636	fix_post	2		12	0.0	2.5	/experiments/Knapen_AOT/AOT_stimuli/rescaled_final/1292_rv.mp4	0.0	72.88980031013489	0.10006976127624512
3	56.266685485839844	fix_pre	0		120	1.0	2.5	/experiments/Knapen_AOT/AOT_stimuli/rescaled_final/2134_fw.mp4	0.0	72.98987007141113	1.0084755420684814
3	56.85041642189026	pulse	0	t		1.0	2.5	/experiments/Knapen_AOT/AOT_stimuli/rescaled_final/2134_fw.mp4	0.0	73.57360100746155	
3	57.275161027908325	movie	1		291	1.0	2.5	/experiments/Knapen_AOT/AOT_stimuli/rescaled_final/2134_fw.mp4	0.0	73.99834561347961	2.492002010345459
3	58.450525999069214	pulse	1	t		1.0	2.5	/experiments/Knapen_AOT/AOT_stimuli/rescaled_final/2134_fw.mp4	0.0	75.1737105846405	
3	59.767163038253784	fix_post	2		12	1.0	2.5	/experiments/Knapen_AOT/AOT_stimuli/rescaled_final/2134_fw.mp4	0.0	76.49034762382507	0.10003018379211426
4	59.8671932220459	fix_pre	0		120	2.0	2.5	/experiments/Knapen_AOT/AOT_stimuli/rescaled_final/0949_rv.mp4	0.0	76.59037780761719	1.0085344314575195
4	60.05077862739563	pulse	0	t		2.0	2.5	/experiments/Knapen_AOT/AOT_stimuli/rescaled_final/0949_rv.mp4	0.0	76.77396321296692	
4	60.87572765350342	movie	1		288	2.0	2.5	/experiments/Knapen_AOT/AOT_stimuli/rescaled_final/0949_rv.mp4	0.0	77.5989122390747	2.492124080657959
4	61.6511070728302	pulse	1	t		2.0	2.5	/experiments/Knapen_AOT/AOT_stimuli/rescaled_final/0949_rv.mp4	0.0	78.37429165840149	
4	63.251277685165405	pulse	1	t		2.0	2.5	/experiments/Knapen_AOT/AOT_stimuli/rescaled_final/0949_rv.mp4	0.0	79.9744622707367	
4	63.36785173416138	fix_post	2		12	2.0	2.5	/experiments/Knapen_AOT/AOT_stimuli/rescaled_final/0949_rv.mp4	0.0	80.09103631973267	0.09993696212768555
5	63.46778869628906	fix_pre	0		120	3.0	2.5	/experiments/Knapen_AOT/AOT_stimuli/rescaled_final/1220_rv.mp4	0.0	80.19097328186035	1.008408784866333
5	64.4761974811554	movie	1		289	3.0	2.5	/experiments/Knapen_AOT/AOT_stimuli/rescaled_final/1220_rv.mp4	0.0	81.19938206672668	2.4922285079956055
5	64.8499526977539	pulse	1	t		3.0	2.5	/experiments/Knapen_AOT/AOT_stimuli/rescaled_final/1220_rv.mp4	0.0	81.5731372833252	
5	66.44987511634827	pulse	1	t		3.0	2.5	/experiments/Knapen_AOT/AOT_stimuli/rescaled_final/1220_rv.mp4	0.0	83.17305970191956	
5	66.968425989151	fix_post	2		12	3.0	2.5	/experiments/Knapen_AOT/AOT_stimuli/rescaled_final/1220_rv.mp4	0.0	83.69161057472229	0.09991049766540527
6	67.0683364868164	fix_pre	0		119	4.0	2.5	/experiments/Knapen_AOT/AOT_stimuli/rescaled_final/1874_rv.mp4	0.0	83.7915210723877	1.0001559257507324
6	68.05195498466492	pulse	0	t		4.0	2.5	/experiments/Knapen_AOT/AOT_stimuli/rescaled_final/1874_rv.mp4	0.0	84.7751395702362	
6	68.06849241256714	movie	1		282	4.0	2.5	/experiments/Knapen_AOT/AOT_stimuli/rescaled_final/1874_rv.mp4	0.0	84.79167699813843	2.5003480911254883
6	69.65085864067078	pulse	1	t		4.0	2.5	/experiments/Knapen_AOT/AOT_stimuli/rescaled_final/1874_rv.mp4	0.0	86.37404322624207	
6	70.56884050369263	fix_post	2		12	4.0	2.5	/experiments/Knapen_AOT/AOT_stimuli/rescaled_final/1874_rv.mp4	0.0	87.29202508926392	0.10000324249267578
7	70.6688437461853	fix_pre	0		120	5.0	2.5	/experiments/Knapen_AOT/AOT_stimuli/rescaled_final/1411_rv.mp4	0.0	87.39202833175659	1.008458137512207
7	71.25245022773743	pulse	0	t		5.0	2.5	/experiments/Knapen_AOT/AOT_stimuli/rescaled_final/1411_rv.mp4	0.0	87.97563481330872	
7	71.67730188369751	movie	1		289	5.0	2.5	/experiments/Knapen_AOT/AOT_stimuli/rescaled_final/1411_rv.mp4	0.0	88.4004864692688	2.4920153617858887
7	72.8510046005249	pulse	1	t		5.0	2.5	/experiments/Knapen_AOT/AOT_stimuli/rescaled_final/1411_rv.mp4	0.0	89.57418918609619	
7	74.1693172454834	fix_post	2		12	5.0	2.5	/experiments/Knapen_AOT/AOT_stimuli/rescaled_final/1411_rv.mp4	0.0	90.89250183105469	0.10002589225769043
8	74.26934313774109	fix_pre	0		120	6.0	2.5	/experiments/Knapen_AOT/AOT_stimuli/rescaled_final/0931_fw.mp4	0.0	90.99252772331238	1.0085227489471436
8	74.45296740531921	pulse	0	t		6.0	2.5	/experiments/Knapen_AOT/AOT_stimuli/rescaled_final/0931_fw.mp4	0.0	91.1761519908905	
8	75.27786588668823	movie	1		293	6.0	2.5	/experiments/Knapen_AOT/AOT_stimuli/rescaled_final/0931_fw.mp4	0.0	92.00105047225952	2.4919941425323486
8	76.05154156684875	pulse	1	t		6.0	2.5	/experiments/Knapen_AOT/AOT_stimuli/rescaled_final/0931_fw.mp4	0.0	92.77472615242004	
8	77.65176033973694	pulse	1	t		6.0	2.5	/experiments/Knapen_AOT/AOT_stimuli/rescaled_final/0931_fw.mp4	0.0	94.37494492530823	
8	77.76986002922058	fix_post	2		12	6.0	2.5	/experiments/Knapen_AOT/AOT_stimuli/rescaled_final/0931_fw.mp4	0.0	94.49304461479187	0.1000821590423584
9	77.86994218826294	fix_pre	0		120	7.0	2.5	blank	1.0	94.59312677383423	1.0001583099365234
9	78.87010049819946	movie	1		300	7.0	2.5	blank	1.0	95.59328508377075	2.500413179397583
9	79.25429105758667	pulse	1	t		7.0	2.5	blank	1.0	95.97747564315796	
9	80.8541419506073	pulse	1	t		7.0	2.5	blank	1.0	97.57732653617859	
9	81.37051367759705	fix_post	2		12	7.0	2.5	blank	1.0	98.09369826316833	0.0999898910522461
10	81.47050356864929	fix_pre	0		119	8.0	2.5	/experiments/Knapen_AOT/AOT_stimuli/rescaled_final/1959_rv.mp4	0.0	98.19368815422058	1.0001916885375977
10	82.45421600341797	pulse	0	t		8.0	2.5	/experiments/Knapen_AOT/AOT_stimuli/rescaled_final/1959_rv.mp4	0.0	99.17740058898926	
10	82.47069525718689	movie	1		287	8.0	2.5	/experiments/Knapen_AOT/AOT_stimuli/rescaled_final/1959_rv.mp4	0.0	99.19387984275818	2.5002615451812744
10	84.05285024642944	pulse	1	t		8.0	2.5	/experiments/Knapen_AOT/AOT_stimuli/rescaled_final/1959_rv.mp4	0.0	100.77603483200073	
10	84.97095680236816	fix_post	2		12	8.0	2.5	/experiments/Knapen_AOT/AOT_stimuli/rescaled_final/1959_rv.mp4	0.0	101.69414138793945	0.10002875328063965
11	85.0709855556488	fix_pre	0		120	9.0	2.5	/experiments/Knapen_AOT/AOT_stimuli/rescaled_final/2035_rv.mp4	0.0	101.79417014122009	1.008486270904541
11	85.65473580360413	pulse	0	t		9.0	2.5	/experiments/Knapen_AOT/AOT_stimuli/rescaled_final/2035_rv.mp4	0.0	102.37792038917542	
11	86.07947182655334	movie	1		285	9.0	2.5	/experiments/Knapen_AOT/AOT_stimuli/rescaled_final/2035_rv.mp4	0.0	102.80265641212463	2.492039442062378
11	87.25320506095886	pulse	1	t		9.0	2.5	/experiments/Knapen_AOT/AOT_stimuli/rescaled_final/2035_rv.mp4	0.0	103.97638964653015	
11	88.57151126861572	fix_post	2		12	9.0	2.5	/experiments/Knapen_AOT/AOT_stimuli/rescaled_final/2035_rv.mp4	0.0	105.29469585418701	0.10015320777893066
12	88.67166447639465	fix_pre	0		120	10.0	2.5	/experiments/Knapen_AOT/AOT_stimuli/rescaled_final/1132_rv.mp4	0.0	105.39484906196594	1.008347749710083
12	88.8550763130188	pulse	0	t		10.0	2.5	/experiments/Knapen_AOT/AOT_stimuli/rescaled_final/1132_rv.mp4	0.0	105.57826089859009	
12	89.68001222610474	movie	1		286	10.0	2.5	/experiments/Knapen_AOT/AOT_stimuli/rescaled_final/1132_rv.mp4	0.0	106.40319681167603	2.4920496940612793
12	90.45352959632874	pulse	1	t		10.0	2.5	/experiments/Knapen_AOT/AOT_stimuli/rescaled_final/1132_rv.mp4	0.0	107.17671418190002	
12	92.05360221862793	pulse	1	t		10.0	2.5	/experiments/Knapen_AOT/AOT_stimuli/rescaled_final/1132_rv.mp4	0.0	108.77678680419922	
12	92.17206192016602	fix_post	2		12	10.0	2.5	/experiments/Knapen_AOT/AOT_stimuli/rescaled_final/1132_rv.mp4	0.0	108.8952465057373	0.10001254081726074
13	92.27207446098328	fix_pre	0		120	11.0	2.5	/experiments/Knapen_AOT/AOT_stimuli/rescaled_final/0311_rv.mp4	0.0	108.99525904655457	1.0085811614990234
13	93.2806556224823	movie	1		288	11.0	2.5	/experiments/Knapen_AOT/AOT_stimuli/rescaled_final/0311_rv.mp4	0.0	110.00384020805359	2.492198944091797
13	93.65412020683289	pulse	1	t		11.0	2.5	/experiments/Knapen_AOT/AOT_stimuli/rescaled_final/0311_rv.mp4	0.0	110.37730479240417	
13	95.25385856628418	pulse	1	t		11.0	2.5	/experiments/Knapen_AOT/AOT_stimuli/rescaled_final/0311_rv.mp4	0.0	111.97704315185547	
13	95.7728545665741	fix_post	2		12	11.0	2.5	/experiments/Knapen_AOT/AOT_stimuli/rescaled_final/0311_rv.mp4	0.0	112.49603915214539	0.09973478317260742
14	95.8725893497467	fix_pre	0		119	12.0	2.5	blank	1.0	112.595773935318	0.991797685623169
14	96.85629868507385	pulse	0	t		12.0	2.5	blank	1.0	113.57948327064514	
14	96.86438703536987	movie	1		301	12.0	2.5	blank	1.0	113.58757162094116	2.5088658332824707
14	98.45661067962646	pulse	1	t		12.0	2.5	blank	1.0	115.17979526519775	
14	99.37325286865234	fix_post	2		12	12.0	2.5	blank	1.0	116.09643745422363	0.09997987747192383
15	99.47323274612427	fix_pre	0		120	13.0	2.5	/experiments/Knapen_AOT/AOT_stimuli/rescaled_final/0034_rv.mp4	0.0	116.19641733169556	1.0084216594696045
15	100.05687475204468	pulse	0	t		13.0	2.5	/experiments/Knapen_AOT/AOT_stimuli/rescaled_final/0034_rv.mp4	0.0	116.78005933761597	
15	100.48165440559387	movie	1		290	13.0	2.5	/experiments/Knapen_AOT/AOT_stimuli/rescaled_final/0034_rv.mp4	0.0	117.20483899116516	2.4919962882995605
15	101.65603280067444	pulse	1	t		13.0	2.5	/experiments/Knapen_AOT/AOT_stimuli/rescaled_final/0034_rv.mp4	0.0	118.37921738624573	
15	102.97365069389343	fix_post	2		12	13.0	2.5	/experiments/Knapen_AOT/AOT_stimuli/rescaled_final/0034_rv.mp4	0.0	119.69683527946472	0.10004568099975586
16	103.07369637489319	fix_pre	0		120	14.0	2.5	/experiments/Knapen_AOT/AOT_stimuli/rescaled_final/0171_fw.mp4	0.0	119.79688096046448	1.008488655090332
16	103.25723814964294	pulse	0	t		14.0	2.5	/experiments/Knapen_AOT/AOT_stimuli/rescaled_final/0171_fw.mp4	0.0	119.98042273521423	
16	104.08218502998352	movie	1		283	14.0	2.5	/experiments/Knapen_AOT/AOT_stimuli/rescaled_final/0171_fw.mp4	0.0	120.80536961555481	2.492008686065674
16	104.85567092895508	pulse	1	t		14.0	2.5	/experiments/Knapen_AOT/AOT_stimuli/rescaled_final/0171_fw.mp4	0.0	121.57885551452637	
16	106.45557188987732	pulse	1	t		14.0	2.5	/experiments/Knapen_AOT/AOT_stimuli/rescaled_final/0171_fw.mp4	0.0	123.17875647544861	
16	106.5741937160492	fix_post	2		12	14.0	2.5	/experiments/Knapen_AOT/AOT_stimuli/rescaled_final/0171_fw.mp4	0.0	123.29737830162048	0.10008645057678223
17	106.67428016662598	fix_pre	0		120	15.0	2.5	/experiments/Knapen_AOT/AOT_stimuli/rescaled_final/2127_fw.mp4	0.0	123.39746475219727	1.008439064025879
17	107.68271923065186	movie	1		289	15.0	2.5	/experiments/Knapen_AOT/AOT_stimuli/rescaled_final/2127_fw.mp4	0.0	124.40590381622314	2.4920122623443604
17	108.05621576309204	pulse	1	t		15.0	2.5	/experiments/Knapen_AOT/AOT_stimuli/rescaled_final/2127_fw.mp4	0.0	124.77940034866333	
17	109.6505024433136	pulse	1	t		15.0	2.5	/experiments/Knapen_AOT/AOT_stimuli/rescaled_final/2127_fw.mp4	0.0	126.37368702888489	
17	110.17473149299622	fix_post	2		12	15.0	2.5	/experiments/Knapen_AOT/AOT_stimuli/rescaled_final/2127_fw.mp4	0.0	126.8979160785675	0.10005736351013184
18	110.27478885650635	fix_pre	0		118	16.0	2.5	/experiments/Knapen_AOT/AOT_stimuli/rescaled_final/0274_rv.mp4	0.0	126.99797344207764	0.9918017387390137
18	111.2501573562622	pulse	0	t		16.0	2.5	/experiments/Knapen_AOT/AOT_stimuli/rescaled_final/0274_rv.mp4	0.0	127.9733419418335	
18	111.26659059524536	movie	1		288	16.0	2.5	/experiments/Knapen_AOT/AOT_stimuli/rescaled_final/0274_rv.mp4	0.0	127.98977518081665	2.5003461837768555
18	112.85045409202576	pulse	1	t		16.0	2.5	/experiments/Knapen_AOT/AOT_stimuli/rescaled_final/0274_rv.mp4	0.0	129.57363867759705	
18	113.76693677902222	fix_post	2		12	16.0	2.5	/experiments/Knapen_AOT/AOT_stimuli/rescaled_final/0274_rv.mp4	0.0	130.4901213645935	0.10021138191223145
19	113.86714816093445	fix_pre	0		120	17.0	2.5	/experiments/Knapen_AOT/AOT_stimuli/rescaled_final/0239_fw.mp4	0.0	130.59033274650574	1.008328914642334
19	114.45074987411499	pulse	0	t		17.0	2.5	/experiments/Knapen_AOT/AOT_stimuli/rescaled_final/0239_fw.mp4	0.0	131.17393445968628	
19	114.87547707557678	movie	1		285	17.0	2.5	/experiments/Knapen_AOT/AOT_stimuli/rescaled_final/0239_fw.mp4	0.0	131.59866166114807	2.4920809268951416
19	116.05097913742065	pulse	1	t		17.0	2.5	/experiments/Knapen_AOT/AOT_stimuli/rescaled_final/0239_fw.mp4	0.0	132.77416372299194	
19	117.36755800247192	fix_post	2		12	17.0	2.5	/experiments/Knapen_AOT/AOT_stimuli/rescaled_final/0239_fw.mp4	0.0	134.0907425880432	0.09999442100524902
20	117.46755242347717	fix_pre	0		120	18.0	2.5	/experiments/Knapen_AOT/AOT_stimuli/rescaled_final/2126_fw.mp4	0.0	134.19073700904846	1.0084738731384277
20	117.65113162994385	pulse	0	t		18.0	2.5	/experiments/Knapen_AOT/AOT_stimuli/rescaled_final/2126_fw.mp4	0.0	134.37431621551514	
20	118.4760262966156	movie	1		279	18.0	2.5	/experiments/Knapen_AOT/AOT_stimuli/rescaled_final/2126_fw.mp4	0.0	135.1992108821869	2.4919934272766113
20	119.25137186050415	pulse	1	t		18.0	2.5	/experiments/Knapen_AOT/AOT_stimuli/rescaled_final/2126_fw.mp4	0.0	135.97455644607544	
20	120.85160160064697	pulse	1	t		18.0	2.5	/experiments/Knapen_AOT/AOT_stimuli/rescaled_final/2126_fw.mp4	0.0	137.57478618621826	
20	120.96801972389221	fix_post	2		12	18.0	2.5	/experiments/Knapen_AOT/AOT_stimuli/rescaled_final/2126_fw.mp4	0.0	137.6912043094635	0.10008668899536133
21	121.06810641288757	fix_pre	0		120	19.0	2.5	/experiments/Knapen_AOT/AOT_stimuli/rescaled_final/0977_fw.mp4	0.0	137.79129099845886	1.0084254741668701
21	122.07653188705444	movie	1		278	19.0	2.5	/experiments/Knapen_AOT/AOT_stimuli/rescaled_final/0977_fw.mp4	0.0	138.79971647262573	2.4920995235443115
21	122.45031118392944	pulse	1	t		19.0	2.5	/experiments/Knapen_AOT/AOT_stimuli/rescaled_final/0977_fw.mp4	0.0	139.17349576950073	
21	124.05212378501892	pulse	1	t		19.0	2.5	/experiments/Knapen_AOT/AOT_stimuli/rescaled_final/0977_fw.mp4	0.0	140.7753083705902	
21	124.56863141059875	fix_post	2		12	19.0	2.5	/experiments/Knapen_AOT/AOT_stimuli/rescaled_final/0977_fw.mp4	0.0	141.29181599617004	0.09998822212219238
22	124.66861963272095	fix_pre	0		119	20.0	2.5	/experiments/Knapen_AOT/AOT_stimuli/rescaled_final/1453_fw.mp4	0.0	141.39180421829224	1.0005791187286377
22	125.65262842178345	pulse	0	t		20.0	2.5	/experiments/Knapen_AOT/AOT_stimuli/rescaled_final/1453_fw.mp4	0.0	142.37581300735474	
22	125.66919875144958	movie	1		293	20.0	2.5	/experiments/Knapen_AOT/AOT_stimuli/rescaled_final/1453_fw.mp4	0.0	142.39238333702087	2.499904155731201
22	127.2514750957489	pulse	1	t		20.0	2.5	/experiments/Knapen_AOT/AOT_stimuli/rescaled_final/1453_fw.mp4	0.0	143.9746596813202	
22	128.1691029071808	fix_post	2		12	20.0	2.5	/experiments/Knapen_AOT/AOT_stimuli/rescaled_final/1453_fw.mp4	0.0	144.89228749275208	0.10011124610900879
23	128.2692141532898	fix_pre	0		120	21.0	2.5	blank	1.0	144.99239873886108	1.0001158714294434
23	128.85281658172607	pulse	0	t		21.0	2.5	blank	1.0	145.57600116729736	
23	129.26933002471924	movie	1		300	21.0	2.5	blank	1.0	145.99251461029053	2.500333070755005
23	130.4531626701355	pulse	1	t		21.0	2.5	blank	1.0	147.1763472557068	
23	131.76966309547424	fix_post	2		12	21.0	2.5	blank	1.0	148.49284768104553	0.10004019737243652
24	131.86970329284668	fix_pre	0		120	22.0	2.5	/experiments/Knapen_AOT/AOT_stimuli/rescaled_final/0532_rv.mp4	0.0	148.59288787841797	1.0084912776947021
24	132.0533537864685	pulse	0	t		22.0	2.5	/experiments/Knapen_AOT/AOT_stimuli/rescaled_final/0532_rv.mp4	0.0	148.7765383720398	
24	132.87819457054138	movie	1		284	22.0	2.5	/experiments/Knapen_AOT/AOT_stimuli/rescaled_final/0532_rv.mp4	0.0	149.60137915611267	2.491995334625244
24	133.65186262130737	pulse	1	t		22.0	2.5	/experiments/Knapen_AOT/AOT_stimuli/rescaled_final/0532_rv.mp4	0.0	150.37504720687866	
24	135.2518105506897	pulse	1	t		22.0	2.5	/experiments/Knapen_AOT/AOT_stimuli/rescaled_final/0532_rv.mp4	0.0	151.974995136261	
24	135.37018990516663	fix_post	2		12	22.0	2.5	/experiments/Knapen_AOT/AOT_stimuli/rescaled_final/0532_rv.mp4	0.0	152.09337449073792	0.10000729560852051
25	135.47019720077515	fix_pre	0		120	23.0	2.5	/experiments/Knapen_AOT/AOT_stimuli/rescaled_final/1743_fw.mp4	0.0	152.19338178634644	1.0085437297821045
25	136.47874093055725	movie	1		285	23.0	2.5	/experiments/Knapen_AOT/AOT_stimuli/rescaled_final/1743_fw.mp4	0.0	153.20192551612854	2.4920361042022705
25	136.8527421951294	pulse	1	t		23.0	2.5	/experiments/Knapen_AOT/AOT_stimuli/rescaled_final/1743_fw.mp4	0.0	153.57592678070068	
25	138.45230174064636	pulse	1	t		23.0	2.5	/experiments/Knapen_AOT/AOT_stimuli/rescaled_final/1743_fw.mp4	0.0	155.17548632621765	
25	138.97077703475952	fix_post	2		12	23.0	2.5	/experiments/Knapen_AOT/AOT_stimuli/rescaled_final/1743_fw.mp4	0.0	155.6939616203308	0.1000676155090332
26	139.07084465026855	fix_pre	0		119	24.0	2.5	/experiments/Knapen_AOT/AOT_stimuli/rescaled_final/0751_rv.mp4	0.0	155.79402923583984	1.0000865459442139
26	140.05444884300232	pulse	0	t		24.0	2.5	/experiments/Knapen_AOT/AOT_stimuli/rescaled_final/0751_rv.mp4	0.0	156.7776334285736	
26	140.07093119621277	movie	1		295	24.0	2.5	/experiments/Knapen_AOT/AOT_stimuli/rescaled_final/0751_rv.mp4	0.0	156.79411578178406	2.5003232955932617
26	141.65293979644775	pulse	1	t		24.0	2.5	/experiments/Knapen_AOT/AOT_stimuli/rescaled_final/0751_rv.mp4	0.0	158.37612438201904	
26	142.57125449180603	fix_post	2		12	24.0	2.5	/experiments/Knapen_AOT/AOT_stimuli/rescaled_final/0751_rv.mp4	0.0	159.29443907737732	0.10008382797241211
27	142.67133831977844	fix_pre	0		120	25.0	2.5	/experiments/Knapen_AOT/AOT_stimuli/rescaled_final/1354_fw.mp4	0.0	159.39452290534973	1.0085065364837646
27	143.25494050979614	pulse	0	t		25.0	2.5	/experiments/Knapen_AOT/AOT_stimuli/rescaled_final/1354_fw.mp4	0.0	159.97812509536743	
27	143.6798448562622	movie	1		286	25.0	2.5	/experiments/Knapen_AOT/AOT_stimuli/rescaled_final/1354_fw.mp4	0.0	160.4030294418335	2.491971731185913
27	144.8544569015503	pulse	1	t		25.0	2.5	/experiments/Knapen_AOT/AOT_stimuli/rescaled_final/1354_fw.mp4	0.0	161.57764148712158	
27	146.17181658744812	fix_post	2		12	25.0	2.5	/experiments/Knapen_AOT/AOT_stimuli/rescaled_final/1354_fw.mp4	0.0	162.8950011730194	0.10004615783691406
28	146.27186274528503	fix_pre	0		120	26.0	2.5	/experiments/Knapen_AOT/AOT_stimuli/rescaled_final/2127_fw.mp4	0.0	162.99504733085632	1.0084526538848877
28	146.45547699928284	pulse	0	t		26.0	2.5	/experiments/Knapen_AOT/AOT_stimuli/rescaled_final/2127_fw.mp4	0.0	163.17866158485413	
28	147.28031539916992	movie	1		289	26.0	2.5	/experiments/Knapen_AOT/AOT_stimuli/rescaled_final/2127_fw.mp4	0.0	164.0034999847412	2.49204421043396
28	148.05397987365723	pulse	1	t		26.0	2.5	/experiments/Knapen_AOT/AOT_stimuli/rescaled_final/2127_fw.mp4	0.0	164.77716445922852	
28	149.65392971038818	pulse	1	t		26.0	2.5	/experiments/Knapen_AOT/AOT_stimuli/rescaled_final/2127_fw.mp4	0.0	166.37711429595947	
28	149.77235960960388	fix_post	2		12	26.0	2.5	/experiments/Knapen_AOT/AOT_stimuli/rescaled_final/2127_fw.mp4	0.0	166.49554419517517	0.10006833076477051
29	149.87242794036865	fix_pre	0		120	27.0	2.5	blank	1.0	166.59561252593994	1.0001657009124756
29	150.87259364128113	movie	1		300	27.0	2.5	blank	1.0	167.59577822685242	2.500326156616211
29	151.2561116218567	pulse	1	t		27.0	2.5	blank	1.0	167.97929620742798	
29	152.8564534187317	pulse	1	t		27.0	2.5	blank	1.0	169.57963800430298	
29	153.37291979789734	fix_post	2		12	27.0	2.5	blank	1.0	170.09610438346863	0.09999227523803711
30	153.47291207313538	fix_pre	0		119	28.0	2.5	/experiments/Knapen_AOT/AOT_stimuli/rescaled_final/0703_fw.mp4	0.0	170.19609665870667	1.0001881122589111
30	154.45673942565918	pulse	0	t		28.0	2.5	/experiments/Knapen_AOT/AOT_stimuli/rescaled_final/0703_fw.mp4	0.0	171.17992401123047	
30	154.4731001853943	movie	1		286	28.0	2.5	/experiments/Knapen_AOT/AOT_stimuli/rescaled_final/0703_fw.mp4	0.0	171.19628477096558	2.5003480911254883
30	156.05626249313354	pulse	1	t		28.0	2.5	/experiments/Knapen_AOT/AOT_stimuli/rescaled_final/0703_fw.mp4	0.0	172.77944707870483	
30	156.97344827651978	fix_post	2		12	28.0	2.5	/experiments/Knapen_AOT/AOT_stimuli/rescaled_final/0703_fw.mp4	0.0	173.69663286209106	0.10005569458007812
31	157.07350397109985	fix_pre	0		120	29.0	2.5	/experiments/Knapen_AOT/AOT_stimuli/rescaled_final/2062_fw.mp4	0.0	173.79668855667114	1.008467435836792
31	157.65726518630981	pulse	0	t		29.0	2.5	/experiments/Knapen_AOT/AOT_stimuli/rescaled_final/2062_fw.mp4	0.0	174.3804497718811	
31	158.08197140693665	movie	1		287	29.0	2.5	/experiments/Knapen_AOT/AOT_stimuli/rescaled_final/2062_fw.mp4	0.0	174.80515599250793	2.492006540298462
31	159.25595831871033	pulse	1	t		29.0	2.5	/experiments/Knapen_AOT/AOT_stimuli/rescaled_final/2062_fw.mp4	0.0	175.97914290428162	
31	160.5739779472351	fix_post	2		12	29.0	2.5	/experiments/Knapen_AOT/AOT_stimuli/rescaled_final/2062_fw.mp4	0.0	177.2971625328064	0.10004353523254395
32	160.67402148246765	fix_pre	0		120	30.0	2.5	/experiments/Knapen_AOT/AOT_stimuli/rescaled_final/0415_fw.mp4	0.0	177.39720606803894	1.0085415840148926
32	160.85111546516418	pulse	0	t		30.0	2.5	/experiments/Knapen_AOT/AOT_stimuli/rescaled_final/0415_fw.mp4	0.0	177.57430005073547	
32	161.68256306648254	movie	1		287	30.0	2.5	/experiments/Knapen_AOT/AOT_stimuli/rescaled_final/0415_fw.mp4	0.0	178.40574765205383	2.491971492767334
32	162.45651698112488	pulse	1	t		30.0	2.5	/experiments/Knapen_AOT/AOT_stimuli/rescaled_final/0415_fw.mp4	0.0	179.17970156669617	
32	164.05586791038513	pulse	1	t		30.0	2.5	/experiments/Knapen_AOT/AOT_stimuli/rescaled_final/0415_fw.mp4	0.0	180.77905249595642	
32	164.17453455924988	fix_post	2		12	30.0	2.5	/experiments/Knapen_AOT/AOT_stimuli/rescaled_final/0415_fw.mp4	0.0	180.89771914482117	0.10007047653198242
33	164.27460503578186	fix_pre	0		120	31.0	2.5	/experiments/Knapen_AOT/AOT_stimuli/rescaled_final/2131_fw.mp4	0.0	180.99778962135315	1.008453130722046
33	165.2830581665039	movie	1		279	31.0	2.5	/experiments/Knapen_AOT/AOT_stimuli/rescaled_final/2131_fw.mp4	0.0	182.0062427520752	2.4920010566711426
33	165.65673327445984	pulse	1	t		31.0	2.5	/experiments/Knapen_AOT/AOT_stimuli/rescaled_final/2131_fw.mp4	0.0	182.37991786003113	
33	167.25058960914612	pulse	1	t		31.0	2.5	/experiments/Knapen_AOT/AOT_stimuli/rescaled_final/2131_fw.mp4	0.0	183.9737741947174	
33	167.77505922317505	fix_post	2		12	31.0	2.5	/experiments/Knapen_AOT/AOT_stimuli/rescaled_final/2131_fw.mp4	0.0	184.49824380874634	0.1000356674194336
34	167.87509489059448	fix_pre	0		118	32.0	2.5	/experiments/Knapen_AOT/AOT_stimuli/rescaled_final/0795_rv.mp4	0.0	184.59827947616577	1.000199317932129
34	168.85058522224426	pulse	0	t		32.0	2.5	/experiments/Knapen_AOT/AOT_stimuli/rescaled_final/0795_rv.mp4	0.0	185.57376980781555	
34	168.8752942085266	movie	1		279	32.0	2.5	/experiments/Knapen_AOT/AOT_stimuli/rescaled_final/0795_rv.mp4	0.0	185.5984787940979	2.49200701713562
34	170.45082879066467	pulse	1	t		32.0	2.5	/experiments/Knapen_AOT/AOT_stimuli/rescaled_final/0795_rv.mp4	0.0	187.17401337623596	
34	171.36730122566223	fix_post	2		12	32.0	2.5	/experiments/Knapen_AOT/AOT_stimuli/rescaled_final/0795_rv.mp4	0.0	188.09048581123352	0.10001921653747559
35	171.4673204421997	fix_pre	0		120	33.0	2.5	/experiments/Knapen_AOT/AOT_stimuli/rescaled_final/1646_fw.mp4	0.0	188.190505027771	1.008516550064087
35	172.05095505714417	pulse	0	t		33.0	2.5	/experiments/Knapen_AOT/AOT_stimuli/rescaled_final/1646_fw.mp4	0.0	188.77413964271545	
35	172.4758369922638	movie	1		284	33.0	2.5	/experiments/Knapen_AOT/AOT_stimuli/rescaled_final/1646_fw.mp4	0.0	189.19902157783508	2.492075204849243
35	173.6512861251831	pulse	1	t		33.0	2.5	/experiments/Knapen_AOT/AOT_stimuli/rescaled_final/1646_fw.mp4	0.0	190.3744707107544	
35	174.96791219711304	fix_post	2		12	33.0	2.5	/experiments/Knapen_AOT/AOT_stimuli/rescaled_final/1646_fw.mp4	0.0	191.69109678268433	0.09996652603149414
36	175.06787872314453	fix_pre	0		120	34.0	2.5	blank	1.0	191.79106330871582	1.0001943111419678
36	175.25140166282654	pulse	0	t		34.0	2.5	blank	1.0	191.97458624839783	
36	176.0680730342865	movie	1		300	34.0	2.5	blank	1.0	192.7912576198578	2.500269651412964
36	176.85180950164795	pulse	1	t		34.0	2.5	blank	1.0	193.57499408721924	
36	178.45188331604004	pulse	1	t		34.0	2.5	blank	1.0	195.17506790161133	
36	178.56834268569946	fix_post	2		12	34.0	2.5	blank	1.0	195.29152727127075	0.10010266304016113
37	178.66844534873962	fix_pre	0		120	35.0	2.5	/experiments/Knapen_AOT/AOT_stimuli/rescaled_final/0719_fw.mp4	0.0	195.3916299343109	1.0083999633789062
37	179.67684531211853	movie	1		281	35.0	2.5	/experiments/Knapen_AOT/AOT_stimuli/rescaled_final/0719_fw.mp4	0.0	196.40002989768982	2.4920430183410645
37	180.05062460899353	pulse	1	t		35.0	2.5	/experiments/Knapen_AOT/AOT_stimuli/rescaled_final/0719_fw.mp4	0.0	196.77380919456482	
37	181.65031218528748	pulse	1	t		35.0	2.5	/experiments/Knapen_AOT/AOT_stimuli/rescaled_final/0719_fw.mp4	0.0	198.37349677085876	
37	182.1688883304596	fix_post	2		12	35.0	2.5	/experiments/Knapen_AOT/AOT_stimuli/rescaled_final/0719_fw.mp4	0.0	198.89207291603088	0.10009407997131348
38	182.2689824104309	fix_pre	0		119	36.0	2.5	/experiments/Knapen_AOT/AOT_stimuli/rescaled_final/0977_rv.mp4	0.0	198.9921669960022	1.0000629425048828
38	183.2527632713318	pulse	0	t		36.0	2.5	/experiments/Knapen_AOT/AOT_stimuli/rescaled_final/0977_rv.mp4	0.0	199.97594785690308	
38	183.2690453529358	movie	1		286	36.0	2.5	/experiments/Knapen_AOT/AOT_stimuli/rescaled_final/0977_rv.mp4	0.0	199.99222993850708	2.5004336833953857
38	184.85119342803955	pulse	1	t		36.0	2.5	/experiments/Knapen_AOT/AOT_stimuli/rescaled_final/0977_rv.mp4	0.0	201.57437801361084	
38	185.76947903633118	fix_post	2		12	36.0	2.5	/experiments/Knapen_AOT/AOT_stimuli/rescaled_final/0977_rv.mp4	0.0	202.49266362190247	0.10003781318664551
39	185.86951684951782	fix_pre	0		120	37.0	2.5	/experiments/Knapen_AOT/AOT_stimuli/rescaled_final/0070_rv.mp4	0.0	202.5927014350891	1.0084905624389648
39	186.45308327674866	pulse	0	t		37.0	2.5	/experiments/Knapen_AOT/AOT_stimuli/rescaled_final/0070_rv.mp4	0.0	203.17626786231995	
39	186.8780074119568	movie	1		287	37.0	2.5	/experiments/Knapen_AOT/AOT_stimuli/rescaled_final/0070_rv.mp4	0.0	203.60119199752808	2.491953134536743
39	188.05199265480042	pulse	1	t		37.0	2.5	/experiments/Knapen_AOT/AOT_stimuli/rescaled_final/0070_rv.mp4	0.0	204.7751772403717	
39	189.36996054649353	fix_post	2		12	37.0	2.5	/experiments/Knapen_AOT/AOT_stimuli/rescaled_final/0070_rv.mp4	0.0	206.09314513206482	0.1001739501953125
40	189.47013449668884	fix_pre	0		120	38.0	2.5	/experiments/Knapen_AOT/AOT_stimuli/rescaled_final/1401_fw.mp4	0.0	206.19331908226013	1.008375883102417
40	189.65360164642334	pulse	0	t		38.0	2.5	/experiments/Knapen_AOT/AOT_stimuli/rescaled_final/1401_fw.mp4	0.0	206.37678623199463	
40	190.47851037979126	movie	1		271	38.0	2.5	/experiments/Knapen_AOT/AOT_stimuli/rescaled_final/1401_fw.mp4	0.0	207.20169496536255	2.4920356273651123
40	191.25225448608398	pulse	1	t		38.0	2.5	/experiments/Knapen_AOT/AOT_stimuli/rescaled_final/1401_fw.mp4	0.0	207.97543907165527	
40	192.85235786437988	pulse	1	t		38.0	2.5	/experiments/Knapen_AOT/AOT_stimuli/rescaled_final/1401_fw.mp4	0.0	209.57554244995117	
40	192.97054600715637	fix_post	2		12	38.0	2.5	/experiments/Knapen_AOT/AOT_stimuli/rescaled_final/1401_fw.mp4	0.0	209.69373059272766	0.10010385513305664
41	193.07064986228943	fix_pre	0		120	39.0	2.5	/experiments/Knapen_AOT/AOT_stimuli/rescaled_final/2000_fw.mp4	0.0	209.79383444786072	1.0083627700805664
41	194.07901263237	movie	1		277	39.0	2.5	/experiments/Knapen_AOT/AOT_stimuli/rescaled_final/2000_fw.mp4	0.0	210.80219721794128	2.492037057876587
41	194.45249938964844	pulse	1	t		39.0	2.5	/experiments/Knapen_AOT/AOT_stimuli/rescaled_final/2000_fw.mp4	0.0	211.17568397521973	
41	196.05269527435303	pulse	1	t		39.0	2.5	/experiments/Knapen_AOT/AOT_stimuli/rescaled_final/2000_fw.mp4	0.0	212.77587985992432	
41	196.57104969024658	fix_post	2		12	39.0	2.5	/experiments/Knapen_AOT/AOT_stimuli/rescaled_final/2000_fw.mp4	0.0	213.29423427581787	0.10009288787841797
42	196.671142578125	fix_pre	0		119	40.0	2.5	/experiments/Knapen_AOT/AOT_stimuli/rescaled_final/0702_fw.mp4	0.0	213.3943271636963	1.0001933574676514
42	197.6549153327942	pulse	0	t		40.0	2.5	/experiments/Knapen_AOT/AOT_stimuli/rescaled_final/0702_fw.mp4	0.0	214.37809991836548	
42	197.67133593559265	movie	1		285	40.0	2.5	/experiments/Knapen_AOT/AOT_stimuli/rescaled_final/0702_fw.mp4	0.0	214.39452052116394	2.5002715587615967
42	199.2560544013977	pulse	1	t		40.0	2.5	/experiments/Knapen_AOT/AOT_stimuli/rescaled_final/0702_fw.mp4	0.0	215.979238986969	
42	200.17160749435425	fix_post	2		12	40.0	2.5	/experiments/Knapen_AOT/AOT_stimuli/rescaled_final/0702_fw.mp4	0.0	216.89479207992554	0.10008835792541504
43	200.27169585227966	fix_pre	0		120	41.0	2.5	blank	1.0	216.99488043785095	1.0001037120819092
43	200.85541772842407	pulse	0	t		41.0	2.5	blank	1.0	217.57860231399536	
43	201.27179956436157	movie	1		300	41.0	2.5	blank	1.0	217.99498414993286	2.5003275871276855
43	202.45558834075928	pulse	1	t		41.0	2.5	blank	1.0	219.17877292633057	
43	203.77212715148926	fix_post	2		12	41.0	2.5	blank	1.0	220.49531173706055	0.10010743141174316
44	203.872234582901	fix_pre	0		120	42.0	2.5	/experiments/Knapen_AOT/AOT_stimuli/rescaled_final/2030_fw.mp4	0.0	220.5954191684723	1.0084717273712158
44	204.0557472705841	pulse	0	t		42.0	2.5	/experiments/Knapen_AOT/AOT_stimuli/rescaled_final/2030_fw.mp4	0.0	220.7789318561554	
44	204.88070631027222	movie	1		280	42.0	2.5	/experiments/Knapen_AOT/AOT_stimuli/rescaled_final/2030_fw.mp4	0.0	221.6038908958435	2.4919674396514893
44	205.65436720848083	pulse	1	t		42.0	2.5	/experiments/Knapen_AOT/AOT_stimuli/rescaled_final/2030_fw.mp4	0.0	222.37755179405212	
44	207.25410175323486	pulse	1	t		42.0	2.5	/experiments/Knapen_AOT/AOT_stimuli/rescaled_final/2030_fw.mp4	0.0	223.97728633880615	
44	207.3726737499237	fix_post	2		12	42.0	2.5	/experiments/Knapen_AOT/AOT_stimuli/rescaled_final/2030_fw.mp4	0.0	224.095858335495	0.1000664234161377
45	207.47274017333984	fix_pre	0		120	43.0	2.5	/experiments/Knapen_AOT/AOT_stimuli/rescaled_final/0993_rv.mp4	0.0	224.19592475891113	1.008497953414917
45	208.48123812675476	movie	1		287	43.0	2.5	/experiments/Knapen_AOT/AOT_stimuli/rescaled_final/0993_rv.mp4	0.0	225.20442271232605	2.4920194149017334
45	208.85624408721924	pulse	1	t		43.0	2.5	/experiments/Knapen_AOT/AOT_stimuli/rescaled_final/0993_rv.mp4	0.0	225.57942867279053	
45	210.4548053741455	pulse	1	t		43.0	2.5	/experiments/Knapen_AOT/AOT_stimuli/rescaled_final/0993_rv.mp4	0.0	227.1779899597168	
45	210.9732575416565	fix_post	2		12	43.0	2.5	/experiments/Knapen_AOT/AOT_stimuli/rescaled_final/0993_rv.mp4	0.0	227.69644212722778	0.1000058650970459
46	211.07326340675354	fix_pre	0		119	44.0	2.5	/experiments/Knapen_AOT/AOT_stimuli/rescaled_final/1395_fw.mp4	0.0	227.79644799232483	1.000096321105957
46	212.0570583343506	pulse	0	t		44.0	2.5	/experiments/Knapen_AOT/AOT_stimuli/rescaled_final/1395_fw.mp4	0.0	228.78024291992188	
46	212.0733597278595	movie	1		277	44.0	2.5	/experiments/Knapen_AOT/AOT_stimuli/rescaled_final/1395_fw.mp4	0.0	228.7965443134308	2.500473976135254
46	213.65708255767822	pulse	1	t		44.0	2.5	/experiments/Knapen_AOT/AOT_stimuli/rescaled_final/1395_fw.mp4	0.0	230.3802671432495	
46	214.57383370399475	fix_post	2		12	44.0	2.5	/experiments/Knapen_AOT/AOT_stimuli/rescaled_final/1395_fw.mp4	0.0	231.29701828956604	0.10001945495605469
47	214.6738531589508	fix_pre	0		120	45.0	2.5	/experiments/Knapen_AOT/AOT_stimuli/rescaled_final/0122_fw.mp4	0.0	231.3970377445221	1.0084409713745117
47	215.25017666816711	pulse	0	t		45.0	2.5	/experiments/Knapen_AOT/AOT_stimuli/rescaled_final/0122_fw.mp4	0.0	231.9733612537384	
47	215.68229413032532	movie	1		255	45.0	2.5	/experiments/Knapen_AOT/AOT_stimuli/rescaled_final/0122_fw.mp4	0.0	232.4054787158966	2.4920284748077393
47	216.8558132648468	pulse	1	t		45.0	2.5	/experiments/Knapen_AOT/AOT_stimuli/rescaled_final/0122_fw.mp4	0.0	233.5789978504181	
47	218.17432260513306	fix_post	2		12	45.0	2.5	/experiments/Knapen_AOT/AOT_stimuli/rescaled_final/0122_fw.mp4	0.0	234.89750719070435	0.10005974769592285
48	218.27438235282898	fix_pre	0		120	46.0	2.5	/experiments/Knapen_AOT/AOT_stimuli/rescaled_final/1656_rv.mp4	0.0	234.99756693840027	1.008528232574463
48	218.4500172138214	pulse	0	t		46.0	2.5	/experiments/Knapen_AOT/AOT_stimuli/rescaled_final/1656_rv.mp4	0.0	235.1732017993927	
48	219.28291058540344	movie	1		273	46.0	2.5	/experiments/Knapen_AOT/AOT_stimuli/rescaled_final/1656_rv.mp4	0.0	236.00609517097473	2.491921901702881
48	220.05021238327026	pulse	1	t		46.0	2.5	/experiments/Knapen_AOT/AOT_stimuli/rescaled_final/1656_rv.mp4	0.0	236.77339696884155	
48	221.65021562576294	pulse	1	t		46.0	2.5	/experiments/Knapen_AOT/AOT_stimuli/rescaled_final/1656_rv.mp4	0.0	238.37340021133423	
48	221.77483248710632	fix_post	2		12	46.0	2.5	/experiments/Knapen_AOT/AOT_stimuli/rescaled_final/1656_rv.mp4	0.0	238.4980170726776	0.10003256797790527
49	221.87486505508423	fix_pre	0		120	47.0	2.5	/experiments/Knapen_AOT/AOT_stimuli/rescaled_final/0730_fw.mp4	0.0	238.59804964065552	1.0085129737854004
49	222.88337802886963	movie	1		288	47.0	2.5	/experiments/Knapen_AOT/AOT_stimuli/rescaled_final/0730_fw.mp4	0.0	239.60656261444092	2.4920144081115723
49	223.25035548210144	pulse	1	t		47.0	2.5	/experiments/Knapen_AOT/AOT_stimuli/rescaled_final/0730_fw.mp4	0.0	239.97354006767273	
49	224.8507215976715	pulse	1	t		47.0	2.5	/experiments/Knapen_AOT/AOT_stimuli/rescaled_final/0730_fw.mp4	0.0	241.5739061832428	
49	225.3753924369812	fix_post	2		12	47.0	2.5	/experiments/Knapen_AOT/AOT_stimuli/rescaled_final/0730_fw.mp4	0.0	242.0985770225525	0.1001272201538086
50	225.475519657135	fix_pre	0		118	48.0	2.5	/experiments/Knapen_AOT/AOT_stimuli/rescaled_final/0860_fw.mp4	0.0	242.1987042427063	1.0000979900360107
50	226.45085668563843	pulse	0	t		48.0	2.5	/experiments/Knapen_AOT/AOT_stimuli/rescaled_final/0860_fw.mp4	0.0	243.17404127120972	
50	226.47561764717102	movie	1		282	48.0	2.5	/experiments/Knapen_AOT/AOT_stimuli/rescaled_final/0860_fw.mp4	0.0	243.1988022327423	2.4920082092285156
50	228.0510334968567	pulse	1	t		48.0	2.5	/experiments/Knapen_AOT/AOT_stimuli/rescaled_final/0860_fw.mp4	0.0	244.77421808242798	
50	228.96762585639954	fix_post	2		12	48.0	2.5	/experiments/Knapen_AOT/AOT_stimuli/rescaled_final/0860_fw.mp4	0.0	245.69081044197083	0.10003089904785156
51	229.0676567554474	fix_pre	0		120	49.0	2.5	blank	1.0	245.79084134101868	1.000173807144165
51	229.65137147903442	pulse	0	t		49.0	2.5	blank	1.0	246.3745560646057	
51	230.06783056259155	movie	1		300	49.0	2.5	blank	1.0	246.79101514816284	2.5003156661987305
51	231.25176525115967	pulse	1	t		49.0	2.5	blank	1.0	247.97494983673096	
51	232.56814622879028	fix_post	2		12	49.0	2.5	blank	1.0	249.29133081436157	0.10009360313415527
52	232.66823983192444	fix_pre	0		120	50.0	2.5	/experiments/Knapen_AOT/AOT_stimuli/rescaled_final/1845_rv.mp4	0.0	249.39142441749573	1.0084519386291504
52	232.85176301002502	pulse	0	t		50.0	2.5	/experiments/Knapen_AOT/AOT_stimuli/rescaled_final/1845_rv.mp4	0.0	249.5749475955963	
52	233.6766917705536	movie	1		283	50.0	2.5	/experiments/Knapen_AOT/AOT_stimuli/rescaled_final/1845_rv.mp4	0.0	250.39987635612488	2.491976499557495
52	234.45156741142273	pulse	1	t		50.0	2.5	/experiments/Knapen_AOT/AOT_stimuli/rescaled_final/1845_rv.mp4	0.0	251.17475199699402	
52	236.0504286289215	pulse	1	t		50.0	2.5	/experiments/Knapen_AOT/AOT_stimuli/rescaled_final/1845_rv.mp4	0.0	252.7736132144928	
52	236.16866827011108	fix_post	2		12	50.0	2.5	/experiments/Knapen_AOT/AOT_stimuli/rescaled_final/1845_rv.mp4	0.0	252.89185285568237	0.10006189346313477
53	236.26873016357422	fix_pre	0		120	51.0	2.5	/experiments/Knapen_AOT/AOT_stimuli/rescaled_final/1749_rv.mp4	0.0	252.9919147491455	1.0084495544433594
53	237.27717971801758	movie	1		284	51.0	2.5	/experiments/Knapen_AOT/AOT_stimuli/rescaled_final/1749_rv.mp4	0.0	254.00036430358887	2.492053508758545
53	237.65080070495605	pulse	1	t		51.0	2.5	/experiments/Knapen_AOT/AOT_stimuli/rescaled_final/1749_rv.mp4	0.0	254.37398529052734	
53	239.2511477470398	pulse	1	t		51.0	2.5	/experiments/Knapen_AOT/AOT_stimuli/rescaled_final/1749_rv.mp4	0.0	255.97433233261108	
53	239.76923322677612	fix_post	2		12	51.0	2.5	/experiments/Knapen_AOT/AOT_stimuli/rescaled_final/1749_rv.mp4	0.0	256.4924178123474	0.10006451606750488
54	239.86929774284363	fix_pre	0		119	52.0	2.5	/experiments/Knapen_AOT/AOT_stimuli/rescaled_final/1566_fw.mp4	0.0	256.5924823284149	1.0000927448272705
54	240.8530707359314	pulse	0	t		52.0	2.5	/experiments/Knapen_AOT/AOT_stimuli/rescaled_final/1566_fw.mp4	0.0	257.5762553215027	
54	240.8693904876709	movie	1		287	52.0	2.5	/experiments/Knapen_AOT/AOT_stimuli/rescaled_final/1566_fw.mp4	0.0	257.5925750732422	2.5003578662872314
54	242.45180583000183	pulse	1	t		52.0	2.5	/experiments/Knapen_AOT/AOT_stimuli/rescaled_final/1566_fw.mp4	0.0	259.1749904155731	
54	243.36974835395813	fix_post	2		12	52.0	2.5	/experiments/Knapen_AOT/AOT_stimuli/rescaled_final/1566_fw.mp4	0.0	260.0929329395294	0.10000944137573242
55	243.46975779533386	fix_pre	0		120	53.0	2.5	/experiments/Knapen_AOT/AOT_stimuli/rescaled_final/2062_rv.mp4	0.0	260.19294238090515	1.0085580348968506
55	244.0534405708313	pulse	0	t		53.0	2.5	/experiments/Knapen_AOT/AOT_stimuli/rescaled_final/2062_rv.mp4	0.0	260.7766251564026	
55	244.4783158302307	movie	1		280	53.0	2.5	/experiments/Knapen_AOT/AOT_stimuli/rescaled_final/2062_rv.mp4	0.0	261.201500415802	2.4919726848602295
55	245.6540129184723	pulse	1	t		53.0	2.5	/experiments/Knapen_AOT/AOT_stimuli/rescaled_final/2062_rv.mp4	0.0	262.3771975040436	
55	246.97028851509094	fix_post	2		12	53.0	2.5	/experiments/Knapen_AOT/AOT_stimuli/rescaled_final/2062_rv.mp4	0.0	263.69347310066223	0.1000216007232666
56	247.0703101158142	fix_pre	0		120	54.0	2.5	/experiments/Knapen_AOT/AOT_stimuli/rescaled_final/1453_rv.mp4	0.0	263.7934947013855	1.0085513591766357
56	247.25388050079346	pulse	0	t		54.0	2.5	/experiments/Knapen_AOT/AOT_stimuli/rescaled_final/1453_rv.mp4	0.0	263.97706508636475	
56	248.07886147499084	movie	1		281	54.0	2.5	/experiments/Knapen_AOT/AOT_stimuli/rescaled_final/1453_rv.mp4	0.0	264.80204606056213	2.491971969604492
56	248.85254287719727	pulse	1	t		54.0	2.5	/experiments/Knapen_AOT/AOT_stimuli/rescaled_final/1453_rv.mp4	0.0	265.57572746276855	
56	250.4527051448822	pulse	1	t		54.0	2.5	/experiments/Knapen_AOT/AOT_stimuli/rescaled_final/1453_rv.mp4	0.0	267.1758897304535	
56	250.57083344459534	fix_post	2		12	54.0	2.5	/experiments/Knapen_AOT/AOT_stimuli/rescaled_final/1453_rv.mp4	0.0	267.2940180301666	0.10022974014282227
57	250.67106318473816	fix_pre	0		120	55.0	2.5	blank	1.0	267.39424777030945	0.9999556541442871
57	251.67101883888245	movie	1		300	55.0	2.5	blank	1.0	268.39420342445374	2.5003628730773926
57	252.05465030670166	pulse	1	t		55.0	2.5	blank	1.0	268.77783489227295	
57	253.65483331680298	pulse	1	t		55.0	2.5	blank	1.0	270.37801790237427	
57	254.17138171195984	fix_post	2		12	55.0	2.5	blank	1.0	270.8945662975311	0.10002398490905762
58	254.2714056968689	fix_pre	0		119	56.0	2.5	/experiments/Knapen_AOT/AOT_stimuli/rescaled_final/0459_rv.mp4	0.0	270.9945902824402	1.0001742839813232
58	255.25524520874023	pulse	0	t		56.0	2.5	/experiments/Knapen_AOT/AOT_stimuli/rescaled_final/0459_rv.mp4	0.0	271.9784297943115	
58	255.27157998085022	movie	1		283	56.0	2.5	/experiments/Knapen_AOT/AOT_stimuli/rescaled_final/0459_rv.mp4	0.0	271.9947645664215	2.500351667404175
58	256.8558871746063	pulse	1	t		56.0	2.5	/experiments/Knapen_AOT/AOT_stimuli/rescaled_final/0459_rv.mp4	0.0	273.5790717601776	
58	257.7719316482544	fix_post	2		12	56.0	2.5	/experiments/Knapen_AOT/AOT_stimuli/rescaled_final/0459_rv.mp4	0.0	274.4951162338257	0.10004448890686035
59	257.87197613716125	fix_pre	0		120	57.0	2.5	/experiments/Knapen_AOT/AOT_stimuli/rescaled_final/0105_rv.mp4	0.0	274.59516072273254	1.0085008144378662
59	258.4556405544281	pulse	0	t		57.0	2.5	/experiments/Knapen_AOT/AOT_stimuli/rescaled_final/0105_rv.mp4	0.0	275.1788251399994	
59	258.8804769515991	movie	1		269	57.0	2.5	/experiments/Knapen_AOT/AOT_stimuli/rescaled_final/0105_rv.mp4	0.0	275.6036615371704	2.4920654296875
59	260.05409693717957	pulse	1	t		57.0	2.5	/experiments/Knapen_AOT/AOT_stimuli/rescaled_final/0105_rv.mp4	0.0	276.77728152275085	
59	261.3725423812866	fix_post	2		12	57.0	2.5	/experiments/Knapen_AOT/AOT_stimuli/rescaled_final/0105_rv.mp4	0.0	278.0957269668579	0.10002851486206055
60	261.4725708961487	fix_pre	0		120	58.0	2.5	/experiments/Knapen_AOT/AOT_stimuli/rescaled_final/1626_fw.mp4	0.0	278.19575548171997	1.0084562301635742
60	261.6560962200165	pulse	0	t		58.0	2.5	/experiments/Knapen_AOT/AOT_stimuli/rescaled_final/1626_fw.mp4	0.0	278.37928080558777	
60	262.48102712631226	movie	1		260	58.0	2.5	/experiments/Knapen_AOT/AOT_stimuli/rescaled_final/1626_fw.mp4	0.0	279.20421171188354	2.49196195602417
60	263.2544250488281	pulse	1	t		58.0	2.5	/experiments/Knapen_AOT/AOT_stimuli/rescaled_final/1626_fw.mp4	0.0	279.9776096343994	
60	264.8545958995819	pulse	1	t		58.0	2.5	/experiments/Knapen_AOT/AOT_stimuli/rescaled_final/1626_fw.mp4	0.0	281.5777804851532	
60	264.9729890823364	fix_post	2		12	58.0	2.5	/experiments/Knapen_AOT/AOT_stimuli/rescaled_final/1626_fw.mp4	0.0	281.6961736679077	0.1000511646270752
61	265.0730402469635	fix_pre	0		120	59.0	2.5	/experiments/Knapen_AOT/AOT_stimuli/rescaled_final/1646_fw.mp4	0.0	281.7962248325348	1.0084922313690186
61	266.0815324783325	movie	1		277	59.0	2.5	/experiments/Knapen_AOT/AOT_stimuli/rescaled_final/1646_fw.mp4	0.0	282.8047170639038	2.4920291900634766
61	266.4555537700653	pulse	1	t		59.0	2.5	/experiments/Knapen_AOT/AOT_stimuli/rescaled_final/1646_fw.mp4	0.0	283.1787383556366	
61	268.05480885505676	pulse	1	t		59.0	2.5	/experiments/Knapen_AOT/AOT_stimuli/rescaled_final/1646_fw.mp4	0.0	284.77799344062805	
61	268.573561668396	fix_post	2		12	59.0	2.5	/experiments/Knapen_AOT/AOT_stimuli/rescaled_final/1646_fw.mp4	0.0	285.2967462539673	0.10002756118774414
62	268.67358922958374	fix_pre	0		119	60.0	2.5	/experiments/Knapen_AOT/AOT_stimuli/rescaled_final/1596_rv.mp4	0.0	285.39677381515503	1.0085391998291016
62	269.6574146747589	pulse	0	t		60.0	2.5	/experiments/Knapen_AOT/AOT_stimuli/rescaled_final/1596_rv.mp4	0.0	286.3805992603302	
62	269.68212842941284	movie	1		270	60.0	2.5	/experiments/Knapen_AOT/AOT_stimuli/rescaled_final/1596_rv.mp4	0.0	286.40531301498413	2.49194598197937
62	271.256076335907	pulse	1	t		60.0	2.5	/experiments/Knapen_AOT/AOT_stimuli/rescaled_final/1596_rv.mp4	0.0	287.97926092147827	
62	272.1740744113922	fix_post	2		12	60.0	2.5	/experiments/Knapen_AOT/AOT_stimuli/rescaled_final/1596_rv.mp4	0.0	288.8972589969635	0.10008573532104492
63	272.27416014671326	fix_pre	0		120	61.0	2.5	blank	1.0	288.99734473228455	1.0001180171966553
63	272.85801553726196	pulse	0	t		61.0	2.5	blank	1.0	289.58120012283325	
63	273.2742781639099	movie	1		300	61.0	2.5	blank	1.0	289.9974627494812	2.5003609657287598
63	274.4506049156189	pulse	1	t		61.0	2.5	blank	1.0	291.1737895011902	
63	275.7746391296387	fix_post	2		12	61.0	2.5	blank	1.0	292.49782371520996	0.10003972053527832
64	275.87467885017395	fix_pre	0		120	62.0	2.5	/experiments/Knapen_AOT/AOT_stimuli/rescaled_final/1949_rv.mp4	0.0	292.59786343574524	1.008544921875
64	276.0505995750427	pulse	0	t		62.0	2.5	/experiments/Knapen_AOT/AOT_stimuli/rescaled_final/1949_rv.mp4	0.0	292.773784160614	
64	276.88322377204895	movie	1		282	62.0	2.5	/experiments/Knapen_AOT/AOT_stimuli/rescaled_final/1949_rv.mp4	0.0	293.60640835762024	2.492048501968384
64	277.65033745765686	pulse	1	t		62.0	2.5	/experiments/Knapen_AOT/AOT_stimuli/rescaled_final/1949_rv.mp4	0.0	294.37352204322815	
64	279.25914430618286	pulse	1	t		62.0	2.5	/experiments/Knapen_AOT/AOT_stimuli/rescaled_final/1949_rv.mp4	0.0	295.98232889175415	
64	279.37527227401733	fix_post	2		12	62.0	2.5	/experiments/Knapen_AOT/AOT_stimuli/rescaled_final/1949_rv.mp4	0.0	296.0984568595886	0.09995174407958984
65	279.4752240180969	fix_pre	0		120	63.0	2.5	/experiments/Knapen_AOT/AOT_stimuli/rescaled_final/0919_rv.mp4	0.0	296.1984086036682	1.0085062980651855
65	280.4837303161621	movie	1		273	63.0	2.5	/experiments/Knapen_AOT/AOT_stimuli/rescaled_final/0919_rv.mp4	0.0	297.2069149017334	2.4919912815093994
65	280.85060715675354	pulse	1	t		63.0	2.5	/experiments/Knapen_AOT/AOT_stimuli/rescaled_final/0919_rv.mp4	0.0	297.57379174232483	
65	282.45094871520996	pulse	1	t		63.0	2.5	/experiments/Knapen_AOT/AOT_stimuli/rescaled_final/0919_rv.mp4	0.0	299.17413330078125	
65	282.9757215976715	fix_post	2		12	63.0	2.5	/experiments/Knapen_AOT/AOT_stimuli/rescaled_final/0919_rv.mp4	0.0	299.6989061832428	0.10009431838989258
66	283.0758159160614	fix_pre	0		118	64.0	2.5	/experiments/Knapen_AOT/AOT_stimuli/rescaled_final/1336_rv.mp4	0.0	299.7990005016327	0.9917738437652588
66	284.05121397972107	pulse	0	t		64.0	2.5	/experiments/Knapen_AOT/AOT_stimuli/rescaled_final/1336_rv.mp4	0.0	300.77439856529236	
66	284.06758975982666	movie	1		265	64.0	2.5	/experiments/Knapen_AOT/AOT_stimuli/rescaled_final/1336_rv.mp4	0.0	300.79077434539795	2.500349283218384
66	285.65144085884094	pulse	1	t		64.0	2.5	/experiments/Knapen_AOT/AOT_stimuli/rescaled_final/1336_rv.mp4	0.0	302.37462544441223	
66	286.56793904304504	fix_post	2		12	64.0	2.5	/experiments/Knapen_AOT/AOT_stimuli/rescaled_final/1336_rv.mp4	0.0	303.29112362861633	0.09999728202819824
67	286.66793632507324	fix_pre	0		120	65.0	2.5	/experiments/Knapen_AOT/AOT_stimuli/rescaled_final/0676_fw.mp4	0.0	303.39112091064453	1.008589267730713
67	287.2516369819641	pulse	0	t		65.0	2.5	/experiments/Knapen_AOT/AOT_stimuli/rescaled_final/0676_fw.mp4	0.0	303.9748215675354	
67	287.67652559280396	movie	1		285	65.0	2.5	/experiments/Knapen_AOT/AOT_stimuli/rescaled_final/0676_fw.mp4	0.0	304.39971017837524	2.4919376373291016
67	288.8508298397064	pulse	1	t		65.0	2.5	/experiments/Knapen_AOT/AOT_stimuli/rescaled_final/0676_fw.mp4	0.0	305.5740144252777	
67	290.16846323013306	fix_post	2		12	65.0	2.5	/experiments/Knapen_AOT/AOT_stimuli/rescaled_final/0676_fw.mp4	0.0	306.89164781570435	0.10020899772644043
68	290.2686722278595	fix_pre	0		120	66.0	2.5	/experiments/Knapen_AOT/AOT_stimuli/rescaled_final/1395_rv.mp4	0.0	306.9918568134308	1.0083544254302979
68	290.4521813392639	pulse	0	t		66.0	2.5	/experiments/Knapen_AOT/AOT_stimuli/rescaled_final/1395_rv.mp4	0.0	307.1753659248352	
68	291.2770266532898	movie	1		282	66.0	2.5	/experiments/Knapen_AOT/AOT_stimuli/rescaled_final/1395_rv.mp4	0.0	308.0002112388611	2.4919652938842773
68	292.0508322715759	pulse	1	t		66.0	2.5	/experiments/Knapen_AOT/AOT_stimuli/rescaled_final/1395_rv.mp4	0.0	308.7740168571472	
68	293.6506071090698	pulse	1	t		66.0	2.5	/experiments/Knapen_AOT/AOT_stimuli/rescaled_final/1395_rv.mp4	0.0	310.3737916946411	
68	293.7689919471741	fix_post	2		12	66.0	2.5	/experiments/Knapen_AOT/AOT_stimuli/rescaled_final/1395_rv.mp4	0.0	310.49217653274536	0.10003376007080078
69	293.8690257072449	fix_pre	0		120	67.0	2.5	/experiments/Knapen_AOT/AOT_stimuli/rescaled_final/0764_rv.mp4	0.0	310.59221029281616	1.0084867477416992
69	294.8775124549866	movie	1		280	67.0	2.5	/experiments/Knapen_AOT/AOT_stimuli/rescaled_final/0764_rv.mp4	0.0	311.60069704055786	2.4920520782470703
69	295.25300574302673	pulse	1	t		67.0	2.5	/experiments/Knapen_AOT/AOT_stimuli/rescaled_final/0764_rv.mp4	0.0	311.976190328598	
69	296.8531987667084	pulse	1	t		67.0	2.5	/experiments/Knapen_AOT/AOT_stimuli/rescaled_final/0764_rv.mp4	0.0	313.57638335227966	
69	297.36956453323364	fix_post	2		12	67.0	2.5	/experiments/Knapen_AOT/AOT_stimuli/rescaled_final/0764_rv.mp4	0.0	314.09274911880493	0.1000831127166748
70	297.4696476459503	fix_pre	0		119	68.0	2.5	blank	1.0	314.1928322315216	0.9918022155761719
70	298.45357275009155	pulse	0	t		68.0	2.5	blank	1.0	315.17675733566284	
70	298.4614498615265	movie	1		301	68.0	2.5	blank	1.0	315.1846344470978	2.508619785308838
70	300.05363845825195	pulse	1	t		68.0	2.5	blank	1.0	316.77682304382324	
70	300.9700696468353	fix_post	2		12	68.0	2.5	blank	1.0	317.6932542324066	0.10005068778991699
71	301.07012033462524	fix_pre	0		120	69.0	2.5	/experiments/Knapen_AOT/AOT_stimuli/rescaled_final/2030_rv.mp4	0.0	317.79330492019653	1.0085232257843018
71	301.6540033817291	pulse	0	t		69.0	2.5	/experiments/Knapen_AOT/AOT_stimuli/rescaled_final/2030_rv.mp4	0.0	318.3771879673004	
71	302.07864356040955	movie	1		277	69.0	2.5	/experiments/Knapen_AOT/AOT_stimuli/rescaled_final/2030_rv.mp4	0.0	318.80182814598083	2.4919817447662354
71	303.25250339508057	pulse	1	t		69.0	2.5	/experiments/Knapen_AOT/AOT_stimuli/rescaled_final/2030_rv.mp4	0.0	319.97568798065186	
71	304.5706253051758	fix_post	2		12	69.0	2.5	/experiments/Knapen_AOT/AOT_stimuli/rescaled_final/2030_rv.mp4	0.0	321.29380989074707	0.10010242462158203
72	304.67072772979736	fix_pre	0		120	70.0	2.5	/experiments/Knapen_AOT/AOT_stimuli/rescaled_final/0569_fw.mp4	0.0	321.39391231536865	1.0084388256072998
72	304.8542432785034	pulse	0	t		70.0	2.5	/experiments/Knapen_AOT/AOT_stimuli/rescaled_final/0569_fw.mp4	0.0	321.5774278640747	
72	305.67916655540466	movie	1		279	70.0	2.5	/experiments/Knapen_AOT/AOT_stimuli/rescaled_final/0569_fw.mp4	0.0	322.40235114097595	2.4920384883880615
72	306.45371675491333	pulse	1	t		70.0	2.5	/experiments/Knapen_AOT/AOT_stimuli/rescaled_final/0569_fw.mp4	0.0	323.1769013404846	
72	308.0526633262634	pulse	1	t		70.0	2.5	/experiments/Knapen_AOT/AOT_stimuli/rescaled_final/0569_fw.mp4	0.0	324.7758479118347	
72	308.1712050437927	fix_post	2		12	70.0	2.5	/experiments/Knapen_AOT/AOT_stimuli/rescaled_final/0569_fw.mp4	0.0	324.894389629364	0.10001230239868164
73	308.2712173461914	fix_pre	0		120	71.0	2.5	/experiments/Knapen_AOT/AOT_stimuli/rescaled_final/1993_fw.mp4	0.0	324.9944019317627	1.0085160732269287
73	309.27973341941833	movie	1		280	71.0	2.5	/experiments/Knapen_AOT/AOT_stimuli/rescaled_final/1993_fw.mp4	0.0	326.0029180049896	2.491974115371704
73	309.65337681770325	pulse	1	t		71.0	2.5	/experiments/Knapen_AOT/AOT_stimuli/rescaled_final/1993_fw.mp4	0.0	326.37656140327454	
73	311.2532551288605	pulse	1	t		71.0	2.5	/experiments/Knapen_AOT/AOT_stimuli/rescaled_final/1993_fw.mp4	0.0	327.97643971443176	
73	311.77170753479004	fix_post	2		12	71.0	2.5	/experiments/Knapen_AOT/AOT_stimuli/rescaled_final/1993_fw.mp4	0.0	328.4948921203613	0.10002493858337402
74	311.8717324733734	fix_pre	0		119	72.0	2.5	/experiments/Knapen_AOT/AOT_stimuli/rescaled_final/0123_rv.mp4	0.0	328.5949170589447	1.0002217292785645
74	312.8557071685791	pulse	0	t		72.0	2.5	/experiments/Knapen_AOT/AOT_stimuli/rescaled_final/0123_rv.mp4	0.0	329.5788917541504	
74	312.871954202652	movie	1		269	72.0	2.5	/experiments/Knapen_AOT/AOT_stimuli/rescaled_final/0123_rv.mp4	0.0	329.59513878822327	2.5003600120544434
74	314.4542498588562	pulse	1	t		72.0	2.5	/experiments/Knapen_AOT/AOT_stimuli/rescaled_final/0123_rv.mp4	0.0	331.1774344444275	
74	315.3723142147064	fix_post	2		12	72.0	2.5	/experiments/Knapen_AOT/AOT_stimuli/rescaled_final/0123_rv.mp4	0.0	332.0954988002777	0.09998583793640137
75	315.4723000526428	fix_pre	0		120	73.0	2.5	/experiments/Knapen_AOT/AOT_stimuli/rescaled_final/1492_rv.mp4	0.0	332.1954846382141	1.0084474086761475
75	316.0560111999512	pulse	0	t		73.0	2.5	/experiments/Knapen_AOT/AOT_stimuli/rescaled_final/1492_rv.mp4	0.0	332.77919578552246	
75	316.48074746131897	movie	1		282	73.0	2.5	/experiments/Knapen_AOT/AOT_stimuli/rescaled_final/1492_rv.mp4	0.0	333.20393204689026	2.4920382499694824
75	317.65659379959106	pulse	1	t		73.0	2.5	/experiments/Knapen_AOT/AOT_stimuli/rescaled_final/1492_rv.mp4	0.0	334.37977838516235	
75	318.97278571128845	fix_post	2		12	73.0	2.5	/experiments/Knapen_AOT/AOT_stimuli/rescaled_final/1492_rv.mp4	0.0	335.69597029685974	0.10002732276916504
76	319.0728130340576	fix_pre	0		120	74.0	2.5	/experiments/Knapen_AOT/AOT_stimuli/rescaled_final/1132_fw.mp4	0.0	335.7959976196289	1.0085358619689941
76	319.25647354125977	pulse	0	t		74.0	2.5	/experiments/Knapen_AOT/AOT_stimuli/rescaled_final/1132_fw.mp4	0.0	335.97965812683105	
76	320.0813488960266	movie	1		274	74.0	2.5	/experiments/Knapen_AOT/AOT_stimuli/rescaled_final/1132_fw.mp4	0.0	336.8045334815979	2.4919915199279785
76	320.855322599411	pulse	1	t		74.0	2.5	/experiments/Knapen_AOT/AOT_stimuli/rescaled_final/1132_fw.mp4	0.0	337.5785071849823	
76	322.45678210258484	pulse	1	t		74.0	2.5	/experiments/Knapen_AOT/AOT_stimuli/rescaled_final/1132_fw.mp4	0.0	339.1799666881561	
76	322.5733404159546	fix_post	2		12	74.0	2.5	/experiments/Knapen_AOT/AOT_stimuli/rescaled_final/1132_fw.mp4	0.0	339.2965250015259	0.10012483596801758
77	322.6734652519226	fix_pre	0		120	75.0	2.5	/experiments/Knapen_AOT/AOT_stimuli/rescaled_final/1431_rv.mp4	0.0	339.3966498374939	1.0084867477416992
77	323.6819519996643	movie	1		277	75.0	2.5	/experiments/Knapen_AOT/AOT_stimuli/rescaled_final/1431_rv.mp4	0.0	340.4051365852356	2.491924524307251
77	324.05559182167053	pulse	1	t		75.0	2.5	/experiments/Knapen_AOT/AOT_stimuli/rescaled_final/1431_rv.mp4	0.0	340.7787764072418	
77	325.65561151504517	pulse	1	t		75.0	2.5	/experiments/Knapen_AOT/AOT_stimuli/rescaled_final/1431_rv.mp4	0.0	342.37879610061646	
77	326.17387652397156	fix_post	2		12	75.0	2.5	/experiments/Knapen_AOT/AOT_stimuli/rescaled_final/1431_rv.mp4	0.0	342.89706110954285	0.1000368595123291
78	326.2739133834839	fix_pre	0		119	76.0	2.5	blank	1.0	342.9970979690552	0.9918122291564941
78	327.2576267719269	pulse	0	t		76.0	2.5	blank	1.0	343.98081135749817	
78	327.2657256126404	movie	1		301	76.0	2.5	blank	1.0	343.98891019821167	2.5087151527404785
78	328.857852935791	pulse	1	t		76.0	2.5	blank	1.0	345.5810375213623	
78	329.77444076538086	fix_post	2		12	76.0	2.5	blank	1.0	346.49762535095215	0.10012412071228027
79	329.87456488609314	fix_pre	0		120	77.0	2.5	/experiments/Knapen_AOT/AOT_stimuli/rescaled_final/1377_fw.mp4	0.0	346.59774947166443	1.0083775520324707
79	330.4506595134735	pulse	0	t		77.0	2.5	/experiments/Knapen_AOT/AOT_stimuli/rescaled_final/1377_fw.mp4	0.0	347.1738440990448	
79	330.8829424381256	movie	1		265	77.0	2.5	/experiments/Knapen_AOT/AOT_stimuli/rescaled_final/1377_fw.mp4	0.0	347.6061270236969	2.49200439453125
79	332.05655336380005	pulse	1	t		77.0	2.5	/experiments/Knapen_AOT/AOT_stimuli/rescaled_final/1377_fw.mp4	0.0	348.77973794937134	
79	333.37494683265686	fix_post	2		12	77.0	2.5	/experiments/Knapen_AOT/AOT_stimuli/rescaled_final/1377_fw.mp4	0.0	350.09813141822815	0.10004329681396484
80	333.4749901294708	fix_pre	0		120	78.0	2.5	/experiments/Knapen_AOT/AOT_stimuli/rescaled_final/0188_rv.mp4	0.0	350.1981747150421	1.0084383487701416
80	333.6586458683014	pulse	0	t		78.0	2.5	/experiments/Knapen_AOT/AOT_stimuli/rescaled_final/0188_rv.mp4	0.0	350.3818304538727	
80	334.48342847824097	movie	1		269	78.0	2.5	/experiments/Knapen_AOT/AOT_stimuli/rescaled_final/0188_rv.mp4	0.0	351.20661306381226	2.4921023845672607
80	335.2510540485382	pulse	1	t		78.0	2.5	/experiments/Knapen_AOT/AOT_stimuli/rescaled_final/0188_rv.mp4	0.0	351.9742386341095	
80	336.8509669303894	pulse	1	t		78.0	2.5	/experiments/Knapen_AOT/AOT_stimuli/rescaled_final/0188_rv.mp4	0.0	353.5741515159607	
80	336.9755308628082	fix_post	2		12	78.0	2.5	/experiments/Knapen_AOT/AOT_stimuli/rescaled_final/0188_rv.mp4	0.0	353.6987154483795	0.10007381439208984
81	337.0756046772003	fix_pre	0		120	79.0	2.5	/experiments/Knapen_AOT/AOT_stimuli/rescaled_final/0415_fw.mp4	0.0	353.7987892627716	1.0084161758422852
81	338.0840208530426	movie	1		274	79.0	2.5	/experiments/Knapen_AOT/AOT_stimuli/rescaled_final/0415_fw.mp4	0.0	354.8072054386139	2.492020606994629
81	338.45093989372253	pulse	1	t		79.0	2.5	/experiments/Knapen_AOT/AOT_stimuli/rescaled_final/0415_fw.mp4	0.0	355.1741244792938	
81	340.05156087875366	pulse	1	t		79.0	2.5	/experiments/Knapen_AOT/AOT_stimuli/rescaled_final/0415_fw.mp4	0.0	356.77474546432495	
81	340.57604146003723	fix_post	2		12	79.0	2.5	/experiments/Knapen_AOT/AOT_stimuli/rescaled_final/0415_fw.mp4	0.0	357.2992260456085	0.10008907318115234
82	340.6761305332184	fix_pre	0		118	80.0	2.5	/experiments/Knapen_AOT/AOT_stimuli/rescaled_final/0706_rv.mp4	0.0	357.3993151187897	0.9918389320373535
82	341.6514959335327	pulse	0	t		80.0	2.5	/experiments/Knapen_AOT/AOT_stimuli/rescaled_final/0706_rv.mp4	0.0	358.374680519104	
82	341.66796946525574	movie	1		273	80.0	2.5	/experiments/Knapen_AOT/AOT_stimuli/rescaled_final/0706_rv.mp4	0.0	358.391154050827	2.5002832412719727
82	343.2527644634247	pulse	1	t		80.0	2.5	/experiments/Knapen_AOT/AOT_stimuli/rescaled_final/0706_rv.mp4	0.0	359.975949048996	
82	344.1682527065277	fix_post	2		12	80.0	2.5	/experiments/Knapen_AOT/AOT_stimuli/rescaled_final/0706_rv.mp4	0.0	360.891437292099	0.10008740425109863
83	344.2683401107788	fix_pre	0		120	81.0	2.5	/experiments/Knapen_AOT/AOT_stimuli/rescaled_final/0723_rv.mp4	0.0	360.9915246963501	1.0084056854248047
83	344.8520510196686	pulse	0	t		81.0	2.5	/experiments/Knapen_AOT/AOT_stimuli/rescaled_final/0723_rv.mp4	0.0	361.57523560523987	
83	345.2767457962036	movie	1		265	81.0	2.5	/experiments/Knapen_AOT/AOT_stimuli/rescaled_final/0723_rv.mp4	0.0	361.9999303817749	2.4920268058776855
83	346.4522340297699	pulse	1	t		81.0	2.5	/experiments/Knapen_AOT/AOT_stimuli/rescaled_final/0723_rv.mp4	0.0	363.1754186153412	
83	347.7687726020813	fix_post	2		12	81.0	2.5	/experiments/Knapen_AOT/AOT_stimuli/rescaled_final/0723_rv.mp4	0.0	364.4919571876526	0.1001136302947998
84	347.8688862323761	fix_pre	0		120	82.0	2.5	blank	1.0	364.5920708179474	1.0000810623168945
84	348.05264496803284	pulse	0	t		82.0	2.5	blank	1.0	364.7758295536041	
84	348.868967294693	movie	1		300	82.0	2.5	blank	1.0	365.5921518802643	2.5003578662872314
84	349.6528356075287	pulse	1	t		82.0	2.5	blank	1.0	366.3760201931	
84	351.2529036998749	pulse	1	t		82.0	2.5	blank	1.0	367.97608828544617	
84	351.3693251609802	fix_post	2		12	82.0	2.5	blank	1.0	368.0925097465515	0.10008120536804199
85	351.46940636634827	fix_pre	0		120	83.0	2.5	/experiments/Knapen_AOT/AOT_stimuli/rescaled_final/1016_fw.mp4	0.0	368.19259095191956	1.0085017681121826
85	352.47790813446045	movie	1		274	83.0	2.5	/experiments/Knapen_AOT/AOT_stimuli/rescaled_final/1016_fw.mp4	0.0	369.20109272003174	2.4920639991760254
85	352.852778673172	pulse	1	t		83.0	2.5	/experiments/Knapen_AOT/AOT_stimuli/rescaled_final/1016_fw.mp4	0.0	369.5759632587433	
85	354.4535253047943	pulse	1	t		83.0	2.5	/experiments/Knapen_AOT/AOT_stimuli/rescaled_final/1016_fw.mp4	0.0	371.1767098903656	
85	354.9699721336365	fix_post	2		12	83.0	2.5	/experiments/Knapen_AOT/AOT_stimuli/rescaled_final/1016_fw.mp4	0.0	371.69315671920776	0.12497258186340332
87	355.0949447154999	stim	0		1713					371.81812930107117	14.2770836353302
87	356.0535809993744	pulse	0	t						372.7767655849457	
87	357.6541028022766	pulse	0	t						374.3772873878479	
87	359.25476837158203	pulse	0	t						375.9779529571533	
87	360.8549335002899	pulse	0	t						377.5781180858612	
87	362.4549069404602	pulse	0	t						379.1780915260315	
87	364.05479621887207	pulse	0	t						380.77798080444336	
87	365.6553633213043	pulse	0	t						382.3785479068756	
87	367.2552411556244	pulse	0	t						383.9784257411957	
87	368.8556640148163	pulse	0	t						385.5788486003876	
