trial_nr	onset	event_type	phase	response	nr_frames	movie_index	movie_duration	movie_file	blank	onset_abs	duration
0	0.2085118293762207	stim	0		19					52.99146270751953	0.15808820724487305
0	0.35878896713256836	response	0	space						53.14173984527588	
1	0.36660003662109375	stim	0		4672					53.149550914764404	38.950687885284424
1	39.30754590034485	pulse	0	t						92.09049677848816	
1	39.31728792190552	stim	1		1717					92.10023880004883	14.307292938232422
1	40.89786100387573	pulse	1	t						93.68081188201904	
1	42.49806785583496	pulse	1	t						95.28101873397827	
1	44.098289012908936	pulse	1	t						96.88123989105225	
1	45.69862103462219	pulse	1	t						98.4815719127655	
1	47.298823833465576	pulse	1	t						100.08177471160889	
1	48.899075984954834	pulse	1	t						101.68202686309814	
1	50.491791009902954	pulse	1	t						103.27474188804626	
1	52.092012882232666	pulse	1	t						104.87496376037598	
2	53.62458086013794	fix_pre	0		10	0.0	2.5	/experiments/knapen_AOT/AOT_stimuli/rescaled_final/0989_rv.mp4	0.0	106.40753173828125	0.08334207534790039
2	53.69213891029358	pulse	0	t		0.0	2.5	/experiments/knapen_AOT/AOT_stimuli/rescaled_final/0989_rv.mp4	0.0	106.47508978843689	
2	53.70792293548584	movie	1		242	0.0	2.5	/experiments/knapen_AOT/AOT_stimuli/rescaled_final/0989_rv.mp4	0.0	106.49087381362915	2.508760929107666
2	55.30434799194336	pulse	1	t		0.0	2.5	/experiments/knapen_AOT/AOT_stimuli/rescaled_final/0989_rv.mp4	0.0	108.08729887008667	
2	56.216683864593506	fix_post	2		12	0.0	2.5	/experiments/knapen_AOT/AOT_stimuli/rescaled_final/0989_rv.mp4	0.0	108.99963474273682	0.0999300479888916
3	56.3166139125824	fix_pre	0		120	1.0	2.5	/experiments/knapen_AOT/AOT_stimuli/rescaled_final/0521_fw.mp4	0.0	109.09956479072571	1.0001649856567383
3	56.89203596115112	pulse	0	t		1.0	2.5	/experiments/knapen_AOT/AOT_stimuli/rescaled_final/0521_fw.mp4	0.0	109.67498683929443	
3	57.316778898239136	movie	1		243	1.0	2.5	/experiments/knapen_AOT/AOT_stimuli/rescaled_final/0521_fw.mp4	0.0	110.09972977638245	2.500472068786621
3	58.49280095100403	pulse	1	t		1.0	2.5	/experiments/knapen_AOT/AOT_stimuli/rescaled_final/0521_fw.mp4	0.0	111.27575182914734	
3	59.81725096702576	fix_post	2		12	1.0	2.5	/experiments/knapen_AOT/AOT_stimuli/rescaled_final/0521_fw.mp4	0.0	112.60020184516907	0.09990501403808594
4	59.91715598106384	fix_pre	0		120	2.0	2.5	/experiments/knapen_AOT/AOT_stimuli/rescaled_final/1717_rv.mp4	0.0	112.70010685920715	1.000148057937622
4	60.092402935028076	pulse	0	t		2.0	2.5	/experiments/knapen_AOT/AOT_stimuli/rescaled_final/1717_rv.mp4	0.0	112.87535381317139	
4	60.917304039001465	movie	1		243	2.0	2.5	/experiments/knapen_AOT/AOT_stimuli/rescaled_final/1717_rv.mp4	0.0	113.70025491714478	2.500403881072998
4	61.69266200065613	pulse	1	t		2.0	2.5	/experiments/knapen_AOT/AOT_stimuli/rescaled_final/1717_rv.mp4	0.0	114.47561287879944	
4	63.29283094406128	pulse	1	t		2.0	2.5	/experiments/knapen_AOT/AOT_stimuli/rescaled_final/1717_rv.mp4	0.0	116.07578182220459	
4	63.41770792007446	fix_post	2		12	2.0	2.5	/experiments/knapen_AOT/AOT_stimuli/rescaled_final/1717_rv.mp4	0.0	116.20065879821777	0.09998202323913574
5	63.5176899433136	fix_pre	0		119	3.0	2.5	/experiments/knapen_AOT/AOT_stimuli/rescaled_final/2126_fw.mp4	0.0	116.30064082145691	0.9918930530548096
5	64.50958299636841	movie	1		242	3.0	2.5	/experiments/knapen_AOT/AOT_stimuli/rescaled_final/2126_fw.mp4	0.0	117.29253387451172	2.500391960144043
5	64.89376497268677	pulse	1	t		3.0	2.5	/experiments/knapen_AOT/AOT_stimuli/rescaled_final/2126_fw.mp4	0.0	117.67671585083008	
5	66.4933660030365	pulse	1	t		3.0	2.5	/experiments/knapen_AOT/AOT_stimuli/rescaled_final/2126_fw.mp4	0.0	119.27631688117981	
5	67.00997495651245	fix_post	2		12	3.0	2.5	/experiments/knapen_AOT/AOT_stimuli/rescaled_final/2126_fw.mp4	0.0	119.79292583465576	0.1000058650970459
6	67.1099808216095	fix_pre	0		119	4.0	2.5	/experiments/knapen_AOT/AOT_stimuli/rescaled_final/0685_rv.mp4	0.0	119.89293169975281	0.9917201995849609
6	68.09355282783508	pulse	0	t		4.0	2.5	/experiments/knapen_AOT/AOT_stimuli/rescaled_final/0685_rv.mp4	0.0	120.8765037059784	
6	68.10170102119446	movie	1		244	4.0	2.5	/experiments/knapen_AOT/AOT_stimuli/rescaled_final/0685_rv.mp4	0.0	120.88465189933777	2.50872802734375
6	69.69806003570557	pulse	1	t		4.0	2.5	/experiments/knapen_AOT/AOT_stimuli/rescaled_final/0685_rv.mp4	0.0	122.48101091384888	
6	70.61042904853821	fix_post	2		12	4.0	2.5	/experiments/knapen_AOT/AOT_stimuli/rescaled_final/0685_rv.mp4	0.0	123.39337992668152	0.10001683235168457
7	70.71044588088989	fix_pre	0		120	5.0	2.5	/experiments/knapen_AOT/AOT_stimuli/rescaled_final/0864_rv.mp4	0.0	123.4933967590332	1.0001640319824219
7	71.29402995109558	pulse	0	t		5.0	2.5	/experiments/knapen_AOT/AOT_stimuli/rescaled_final/0864_rv.mp4	0.0	124.07698082923889	
7	71.71060991287231	movie	1		243	5.0	2.5	/experiments/knapen_AOT/AOT_stimuli/rescaled_final/0864_rv.mp4	0.0	124.49356079101562	2.500472068786621
7	72.89443898200989	pulse	1	t		5.0	2.5	/experiments/knapen_AOT/AOT_stimuli/rescaled_final/0864_rv.mp4	0.0	125.6773898601532	
7	74.21108198165894	fix_post	2		12	5.0	2.5	/experiments/knapen_AOT/AOT_stimuli/rescaled_final/0864_rv.mp4	0.0	126.99403285980225	0.10001707077026367
8	74.3110990524292	fix_pre	0		120	6.0	2.5	blank	1.0	127.09404993057251	1.0000557899475098
8	74.49452590942383	pulse	0	t		6.0	2.5	blank	1.0	127.27747678756714	
8	75.31115484237671	movie	1		300	6.0	2.5	blank	1.0	128.09410572052002	2.500375986099243
8	76.09471702575684	pulse	1	t		6.0	2.5	blank	1.0	128.87766790390015	
8	77.69497394561768	pulse	1	t		6.0	2.5	blank	1.0	130.477924823761	
8	77.81153082847595	fix_post	2		12	6.0	2.5	blank	1.0	130.59448170661926	0.09998703002929688
9	77.91151785850525	fix_pre	0		119	7.0	2.5	/experiments/knapen_AOT/AOT_stimuli/rescaled_final/1862_fw.mp4	0.0	130.69446873664856	0.9918479919433594
9	78.90336585044861	movie	1		242	7.0	2.5	/experiments/knapen_AOT/AOT_stimuli/rescaled_final/1862_fw.mp4	0.0	131.68631672859192	2.500373125076294
9	79.2953429222107	pulse	1	t		7.0	2.5	/experiments/knapen_AOT/AOT_stimuli/rescaled_final/1862_fw.mp4	0.0	132.078293800354	
9	80.89561796188354	pulse	1	t		7.0	2.5	/experiments/knapen_AOT/AOT_stimuli/rescaled_final/1862_fw.mp4	0.0	133.67856884002686	
9	81.4037389755249	fix_post	2		12	7.0	2.5	/experiments/knapen_AOT/AOT_stimuli/rescaled_final/1862_fw.mp4	0.0	134.1866898536682	0.09997797012329102
10	81.5037169456482	fix_pre	0		120	8.0	2.5	/experiments/knapen_AOT/AOT_stimuli/rescaled_final/0471_fw.mp4	0.0	134.2866678237915	1.0001800060272217
10	82.49569082260132	pulse	0	t		8.0	2.5	/experiments/knapen_AOT/AOT_stimuli/rescaled_final/0471_fw.mp4	0.0	135.27864170074463	
10	82.50389695167542	movie	1		244	8.0	2.5	/experiments/knapen_AOT/AOT_stimuli/rescaled_final/0471_fw.mp4	0.0	135.28684782981873	2.508676052093506
10	84.0973219871521	pulse	1	t		8.0	2.5	/experiments/knapen_AOT/AOT_stimuli/rescaled_final/0471_fw.mp4	0.0	136.8802728652954	
10	85.01257300376892	fix_post	2		12	8.0	2.5	/experiments/knapen_AOT/AOT_stimuli/rescaled_final/0471_fw.mp4	0.0	137.79552388191223	0.10001397132873535
11	85.11258697509766	fix_pre	0		120	9.0	2.5	/experiments/knapen_AOT/AOT_stimuli/rescaled_final/1461_rv.mp4	0.0	137.89553785324097	1.0001318454742432
11	85.69626903533936	pulse	0	t		9.0	2.5	/experiments/knapen_AOT/AOT_stimuli/rescaled_final/1461_rv.mp4	0.0	138.47921991348267	
11	86.1127188205719	movie	1		239	9.0	2.5	/experiments/knapen_AOT/AOT_stimuli/rescaled_final/1461_rv.mp4	0.0	138.8956696987152	2.5004491806030273
11	87.29658198356628	pulse	1	t		9.0	2.5	/experiments/knapen_AOT/AOT_stimuli/rescaled_final/1461_rv.mp4	0.0	140.0795328617096	
11	88.61316800117493	fix_post	2		12	9.0	2.5	/experiments/knapen_AOT/AOT_stimuli/rescaled_final/1461_rv.mp4	0.0	141.39611887931824	0.09999585151672363
12	88.71316385269165	fix_pre	0		120	10.0	2.5	/experiments/knapen_AOT/AOT_stimuli/rescaled_final/2149_rv.mp4	0.0	141.49611473083496	1.0001490116119385
12	88.89669704437256	pulse	0	t		10.0	2.5	/experiments/knapen_AOT/AOT_stimuli/rescaled_final/2149_rv.mp4	0.0	141.67964792251587	
12	89.71331286430359	movie	1		243	10.0	2.5	/experiments/knapen_AOT/AOT_stimuli/rescaled_final/2149_rv.mp4	0.0	142.4962637424469	2.500338077545166
12	90.4968409538269	pulse	1	t		10.0	2.5	/experiments/knapen_AOT/AOT_stimuli/rescaled_final/2149_rv.mp4	0.0	143.27979183197021	
12	92.09700298309326	pulse	1	t		10.0	2.5	/experiments/knapen_AOT/AOT_stimuli/rescaled_final/2149_rv.mp4	0.0	144.87995386123657	
12	92.21365094184875	fix_post	2		12	10.0	2.5	/experiments/knapen_AOT/AOT_stimuli/rescaled_final/2149_rv.mp4	0.0	144.99660181999207	0.09999394416809082
13	92.31364488601685	fix_pre	0		119	11.0	2.5	/experiments/knapen_AOT/AOT_stimuli/rescaled_final/1051_rv.mp4	0.0	145.09659576416016	0.9918720722198486
13	93.3055169582367	movie	1		243	11.0	2.5	/experiments/knapen_AOT/AOT_stimuli/rescaled_final/1051_rv.mp4	0.0	146.08846783638	2.5003578662872314
13	93.69760489463806	pulse	1	t		11.0	2.5	/experiments/knapen_AOT/AOT_stimuli/rescaled_final/1051_rv.mp4	0.0	146.48055577278137	
13	95.29770302772522	pulse	1	t		11.0	2.5	/experiments/knapen_AOT/AOT_stimuli/rescaled_final/1051_rv.mp4	0.0	148.08065390586853	
13	95.80587482452393	fix_post	2		12	11.0	2.5	/experiments/knapen_AOT/AOT_stimuli/rescaled_final/1051_rv.mp4	0.0	148.58882570266724	0.10001301765441895
14	95.90588784217834	fix_pre	0		120	12.0	2.5	/experiments/knapen_AOT/AOT_stimuli/rescaled_final/0193_rv.mp4	0.0	148.68883872032166	1.00018310546875
14	96.89783096313477	pulse	0	t		12.0	2.5	/experiments/knapen_AOT/AOT_stimuli/rescaled_final/0193_rv.mp4	0.0	149.68078184127808	
14	96.9060709476471	movie	1		244	12.0	2.5	/experiments/knapen_AOT/AOT_stimuli/rescaled_final/0193_rv.mp4	0.0	149.6890218257904	2.508646011352539
14	98.49873185157776	pulse	1	t		12.0	2.5	/experiments/knapen_AOT/AOT_stimuli/rescaled_final/0193_rv.mp4	0.0	151.28168272972107	
14	99.41471695899963	fix_post	2		12	12.0	2.5	/experiments/knapen_AOT/AOT_stimuli/rescaled_final/0193_rv.mp4	0.0	152.19766783714294	0.1000058650970459
15	99.51472282409668	fix_pre	0		120	13.0	2.5	/experiments/knapen_AOT/AOT_stimuli/rescaled_final/2059_rv.mp4	0.0	152.29767370224	1.0002050399780273
15	100.09844493865967	pulse	0	t		13.0	2.5	/experiments/knapen_AOT/AOT_stimuli/rescaled_final/2059_rv.mp4	0.0	152.88139581680298	
15	100.5149278640747	movie	1		243	13.0	2.5	/experiments/knapen_AOT/AOT_stimuli/rescaled_final/2059_rv.mp4	0.0	153.29787874221802	2.500404119491577
15	101.69869089126587	pulse	1	t		13.0	2.5	/experiments/knapen_AOT/AOT_stimuli/rescaled_final/2059_rv.mp4	0.0	154.48164176940918	
15	103.01533198356628	fix_post	2		12	13.0	2.5	/experiments/knapen_AOT/AOT_stimuli/rescaled_final/2059_rv.mp4	0.0	155.7982828617096	0.09999489784240723
16	103.11532688140869	fix_pre	0		120	14.0	2.5	blank	1.0	155.898277759552	1.0001420974731445
16	103.29156303405762	pulse	0	t		14.0	2.5	blank	1.0	156.07451391220093	
16	104.11546897888184	movie	1		300	14.0	2.5	blank	1.0	156.89841985702515	2.500391960144043
16	104.8916130065918	pulse	1	t		14.0	2.5	blank	1.0	157.6745638847351	
16	106.49173998832703	pulse	1	t		14.0	2.5	blank	1.0	159.27469086647034	
16	106.61586093902588	fix_post	2		12	14.0	2.5	blank	1.0	159.3988118171692	0.09994006156921387
17	106.71580100059509	fix_pre	0		120	15.0	2.5	/experiments/knapen_AOT/AOT_stimuli/rescaled_final/1583_fw.mp4	0.0	159.4987518787384	1.000241994857788
17	107.71604299545288	movie	1		242	15.0	2.5	/experiments/knapen_AOT/AOT_stimuli/rescaled_final/1583_fw.mp4	0.0	160.4989938735962	2.4920220375061035
17	108.10007095336914	pulse	1	t		15.0	2.5	/experiments/knapen_AOT/AOT_stimuli/rescaled_final/1583_fw.mp4	0.0	160.88302183151245	
17	109.69235396385193	pulse	1	t		15.0	2.5	/experiments/knapen_AOT/AOT_stimuli/rescaled_final/1583_fw.mp4	0.0	162.47530484199524	
17	110.20806503295898	fix_post	2		12	15.0	2.5	/experiments/knapen_AOT/AOT_stimuli/rescaled_final/1583_fw.mp4	0.0	162.9910159111023	0.10000181198120117
18	110.30806684494019	fix_pre	0		119	16.0	2.5	/experiments/knapen_AOT/AOT_stimuli/rescaled_final/0077_fw.mp4	0.0	163.0910177230835	0.991753101348877
18	111.29186582565308	pulse	0	t		16.0	2.5	/experiments/knapen_AOT/AOT_stimuli/rescaled_final/0077_fw.mp4	0.0	164.0748167037964	
18	111.29981994628906	movie	1		243	16.0	2.5	/experiments/knapen_AOT/AOT_stimuli/rescaled_final/0077_fw.mp4	0.0	164.08277082443237	2.5087759494781494
18	112.8925609588623	pulse	1	t		16.0	2.5	/experiments/knapen_AOT/AOT_stimuli/rescaled_final/0077_fw.mp4	0.0	165.67551183700562	
18	113.80859589576721	fix_post	2		12	16.0	2.5	/experiments/knapen_AOT/AOT_stimuli/rescaled_final/0077_fw.mp4	0.0	166.59154677391052	0.1000051498413086
19	113.90860104560852	fix_pre	0		120	17.0	2.5	/experiments/knapen_AOT/AOT_stimuli/rescaled_final/0787_fw.mp4	0.0	166.69155192375183	1.0000789165496826
19	114.49212193489075	pulse	0	t		17.0	2.5	/experiments/knapen_AOT/AOT_stimuli/rescaled_final/0787_fw.mp4	0.0	167.27507281303406	
19	114.9086799621582	movie	1		244	17.0	2.5	/experiments/knapen_AOT/AOT_stimuli/rescaled_final/0787_fw.mp4	0.0	167.6916308403015	2.5004119873046875
19	116.09246587753296	pulse	1	t		17.0	2.5	/experiments/knapen_AOT/AOT_stimuli/rescaled_final/0787_fw.mp4	0.0	168.87541675567627	
19	117.40909194946289	fix_post	2		12	17.0	2.5	/experiments/knapen_AOT/AOT_stimuli/rescaled_final/0787_fw.mp4	0.0	170.1920428276062	0.10001397132873535
20	117.50910592079163	fix_pre	0		120	18.0	2.5	/experiments/knapen_AOT/AOT_stimuli/rescaled_final/1280_rv.mp4	0.0	170.29205679893494	1.0002110004425049
20	117.69262599945068	pulse	0	t		18.0	2.5	/experiments/knapen_AOT/AOT_stimuli/rescaled_final/1280_rv.mp4	0.0	170.475576877594	
20	118.50931692123413	movie	1		243	18.0	2.5	/experiments/knapen_AOT/AOT_stimuli/rescaled_final/1280_rv.mp4	0.0	171.29226779937744	2.5004689693450928
20	119.29288482666016	pulse	1	t		18.0	2.5	/experiments/knapen_AOT/AOT_stimuli/rescaled_final/1280_rv.mp4	0.0	172.07583570480347	
20	120.89310383796692	pulse	1	t		18.0	2.5	/experiments/knapen_AOT/AOT_stimuli/rescaled_final/1280_rv.mp4	0.0	173.67605471611023	
20	121.00978589057922	fix_post	2		12	18.0	2.5	/experiments/knapen_AOT/AOT_stimuli/rescaled_final/1280_rv.mp4	0.0	173.79273676872253	0.09983515739440918
21	121.10962104797363	fix_pre	0		120	19.0	2.5	blank	1.0	173.89257192611694	1.0001537799835205
21	122.10977482795715	movie	1		299	19.0	2.5	blank	1.0	174.89272570610046	2.4920520782470703
21	122.49331784248352	pulse	1	t		19.0	2.5	blank	1.0	175.27626872062683	
21	124.09365582466125	pulse	1	t		19.0	2.5	blank	1.0	176.87660670280457	
21	124.60182690620422	fix_post	2		12	19.0	2.5	blank	1.0	177.38477778434753	0.09999513626098633
22	124.70182204246521	fix_pre	0		120	20.0	2.5	/experiments/knapen_AOT/AOT_stimuli/rescaled_final/0155_fw.mp4	0.0	177.48477292060852	1.000128984451294
22	125.69385385513306	pulse	0	t		20.0	2.5	/experiments/knapen_AOT/AOT_stimuli/rescaled_final/0155_fw.mp4	0.0	178.47680473327637	
22	125.7019510269165	movie	1		243	20.0	2.5	/experiments/knapen_AOT/AOT_stimuli/rescaled_final/0155_fw.mp4	0.0	178.48490190505981	2.50874400138855
22	127.29477787017822	pulse	1	t		20.0	2.5	/experiments/knapen_AOT/AOT_stimuli/rescaled_final/0155_fw.mp4	0.0	180.07772874832153	
22	128.21069502830505	fix_post	2		12	20.0	2.5	/experiments/knapen_AOT/AOT_stimuli/rescaled_final/0155_fw.mp4	0.0	180.99364590644836	0.09999585151672363
23	128.31069087982178	fix_pre	0		120	21.0	2.5	/experiments/knapen_AOT/AOT_stimuli/rescaled_final/1234_rv.mp4	0.0	181.0936417579651	1.0001420974731445
23	128.8942470550537	pulse	0	t		21.0	2.5	/experiments/knapen_AOT/AOT_stimuli/rescaled_final/1234_rv.mp4	0.0	181.67719793319702	
23	129.31083297729492	movie	1		243	21.0	2.5	/experiments/knapen_AOT/AOT_stimuli/rescaled_final/1234_rv.mp4	0.0	182.09378385543823	2.5004310607910156
23	130.49466705322266	pulse	1	t		21.0	2.5	/experiments/knapen_AOT/AOT_stimuli/rescaled_final/1234_rv.mp4	0.0	183.27761793136597	
23	131.81126403808594	fix_post	2		12	21.0	2.5	/experiments/knapen_AOT/AOT_stimuli/rescaled_final/1234_rv.mp4	0.0	184.59421491622925	0.1000218391418457
24	131.91128587722778	fix_pre	0		120	22.0	2.5	/experiments/knapen_AOT/AOT_stimuli/rescaled_final/1461_fw.mp4	0.0	184.6942367553711	1.0001201629638672
24	132.09488081932068	pulse	0	t		22.0	2.5	/experiments/knapen_AOT/AOT_stimuli/rescaled_final/1461_fw.mp4	0.0	184.877831697464	
24	132.91140604019165	movie	1		244	22.0	2.5	/experiments/knapen_AOT/AOT_stimuli/rescaled_final/1461_fw.mp4	0.0	185.69435691833496	2.500358819961548
24	133.69497799873352	pulse	1	t		22.0	2.5	/experiments/knapen_AOT/AOT_stimuli/rescaled_final/1461_fw.mp4	0.0	186.47792887687683	
24	135.29523396492004	pulse	1	t		22.0	2.5	/experiments/knapen_AOT/AOT_stimuli/rescaled_final/1461_fw.mp4	0.0	188.07818484306335	
24	135.4117648601532	fix_post	2		12	22.0	2.5	/experiments/knapen_AOT/AOT_stimuli/rescaled_final/1461_fw.mp4	0.0	188.1947157382965	0.09998607635498047
25	135.51175093650818	fix_pre	0		120	23.0	2.5	/experiments/knapen_AOT/AOT_stimuli/rescaled_final/0719_fw.mp4	0.0	188.2947018146515	1.0002059936523438
25	136.51195693016052	movie	1		242	23.0	2.5	/experiments/knapen_AOT/AOT_stimuli/rescaled_final/0719_fw.mp4	0.0	189.29490780830383	2.492172956466675
25	136.89633703231812	pulse	1	t		23.0	2.5	/experiments/knapen_AOT/AOT_stimuli/rescaled_final/0719_fw.mp4	0.0	189.67928791046143	
25	138.4958770275116	pulse	1	t		23.0	2.5	/experiments/knapen_AOT/AOT_stimuli/rescaled_final/0719_fw.mp4	0.0	191.2788279056549	
25	139.0041298866272	fix_post	2		12	23.0	2.5	/experiments/knapen_AOT/AOT_stimuli/rescaled_final/0719_fw.mp4	0.0	191.7870807647705	0.09993505477905273
26	139.10406494140625	fix_pre	0		120	24.0	2.5	/experiments/knapen_AOT/AOT_stimuli/rescaled_final/1338_rv.mp4	0.0	191.88701581954956	1.000040054321289
26	140.09597492218018	pulse	0	t		24.0	2.5	/experiments/knapen_AOT/AOT_stimuli/rescaled_final/1338_rv.mp4	0.0	192.8789258003235	
26	140.10410499572754	movie	1		243	24.0	2.5	/experiments/knapen_AOT/AOT_stimuli/rescaled_final/1338_rv.mp4	0.0	192.88705587387085	2.5088319778442383
26	141.70071601867676	pulse	1	t		24.0	2.5	/experiments/knapen_AOT/AOT_stimuli/rescaled_final/1338_rv.mp4	0.0	194.48366689682007	
26	142.61293697357178	fix_post	2		12	24.0	2.5	/experiments/knapen_AOT/AOT_stimuli/rescaled_final/1338_rv.mp4	0.0	195.3958878517151	0.09997296333312988
27	142.7129099369049	fix_pre	0		120	25.0	2.5	/experiments/knapen_AOT/AOT_stimuli/rescaled_final/0893_rv.mp4	0.0	195.49586081504822	1.000135898590088
27	143.2964198589325	pulse	0	t		25.0	2.5	/experiments/knapen_AOT/AOT_stimuli/rescaled_final/0893_rv.mp4	0.0	196.0793707370758	
27	143.713045835495	movie	1		242	25.0	2.5	/experiments/knapen_AOT/AOT_stimuli/rescaled_final/0893_rv.mp4	0.0	196.4959967136383	2.500415086746216
27	144.89685797691345	pulse	1	t		25.0	2.5	/experiments/knapen_AOT/AOT_stimuli/rescaled_final/0893_rv.mp4	0.0	197.67980885505676	
27	146.2134609222412	fix_post	2		12	25.0	2.5	/experiments/knapen_AOT/AOT_stimuli/rescaled_final/0893_rv.mp4	0.0	198.99641180038452	0.09992003440856934
28	146.31338095664978	fix_pre	0		120	26.0	2.5	blank	1.0	199.0963318347931	1.000143051147461
28	146.49692583084106	pulse	0	t		26.0	2.5	blank	1.0	199.27987670898438	
28	147.31352400779724	movie	1		300	26.0	2.5	blank	1.0	200.09647488594055	2.5005078315734863
28	148.09723281860352	pulse	1	t		26.0	2.5	blank	1.0	200.88018369674683	
28	149.69736695289612	pulse	1	t		26.0	2.5	blank	1.0	202.48031783103943	
28	149.81403183937073	fix_post	2		8	26.0	2.5	blank	1.0	202.59698271751404	0.09994721412658691
29	149.91397905349731	fix_pre	0		120	27.0	2.5	/experiments/knapen_AOT/AOT_stimuli/rescaled_final/0542_fw.mp4	0.0	202.69692993164062	1.0001389980316162
29	150.91411805152893	movie	1		244	27.0	2.5	/experiments/knapen_AOT/AOT_stimuli/rescaled_final/0542_fw.mp4	0.0	203.69706892967224	2.492027997970581
29	151.3023738861084	pulse	1	t		27.0	2.5	/experiments/knapen_AOT/AOT_stimuli/rescaled_final/0542_fw.mp4	0.0	204.0853247642517	
29	152.8978569507599	pulse	1	t		27.0	2.5	/experiments/knapen_AOT/AOT_stimuli/rescaled_final/0542_fw.mp4	0.0	205.6808078289032	
29	153.4061460494995	fix_post	2		12	27.0	2.5	/experiments/knapen_AOT/AOT_stimuli/rescaled_final/0542_fw.mp4	0.0	206.18909692764282	0.10000181198120117
30	153.5061478614807	fix_pre	0		120	28.0	2.5	/experiments/knapen_AOT/AOT_stimuli/rescaled_final/1946_fw.mp4	0.0	206.28909873962402	1.0001330375671387
30	154.4981918334961	pulse	0	t		28.0	2.5	/experiments/knapen_AOT/AOT_stimuli/rescaled_final/1946_fw.mp4	0.0	207.2811427116394	
30	154.50628089904785	movie	1		244	28.0	2.5	/experiments/knapen_AOT/AOT_stimuli/rescaled_final/1946_fw.mp4	0.0	207.28923177719116	2.5087809562683105
30	156.0997450351715	pulse	1	t		28.0	2.5	/experiments/knapen_AOT/AOT_stimuli/rescaled_final/1946_fw.mp4	0.0	208.88269591331482	
30	157.01506185531616	fix_post	2		12	28.0	2.5	/experiments/knapen_AOT/AOT_stimuli/rescaled_final/1946_fw.mp4	0.0	209.79801273345947	0.1000051498413086
31	157.11506700515747	fix_pre	0		120	29.0	2.5	/experiments/knapen_AOT/AOT_stimuli/rescaled_final/0967_fw.mp4	0.0	209.89801788330078	1.0001158714294434
31	157.69855999946594	pulse	0	t		29.0	2.5	/experiments/knapen_AOT/AOT_stimuli/rescaled_final/0967_fw.mp4	0.0	210.48151087760925	
31	158.1151828765869	movie	1		244	29.0	2.5	/experiments/knapen_AOT/AOT_stimuli/rescaled_final/0967_fw.mp4	0.0	210.89813375473022	2.5004091262817383
31	159.29894590377808	pulse	1	t		29.0	2.5	/experiments/knapen_AOT/AOT_stimuli/rescaled_final/0967_fw.mp4	0.0	212.0818967819214	
31	160.61559200286865	fix_post	2		12	29.0	2.5	/experiments/knapen_AOT/AOT_stimuli/rescaled_final/0967_fw.mp4	0.0	213.39854288101196	0.0999748706817627
32	160.71556687355042	fix_pre	0		120	30.0	2.5	/experiments/knapen_AOT/AOT_stimuli/rescaled_final/0588_fw.mp4	0.0	213.49851775169373	1.0001189708709717
32	160.89909195899963	pulse	0	t		30.0	2.5	/experiments/knapen_AOT/AOT_stimuli/rescaled_final/0588_fw.mp4	0.0	213.68204283714294	
32	161.7156858444214	movie	1		242	30.0	2.5	/experiments/knapen_AOT/AOT_stimuli/rescaled_final/0588_fw.mp4	0.0	214.4986367225647	2.500552177429199
32	162.49943685531616	pulse	1	t		30.0	2.5	/experiments/knapen_AOT/AOT_stimuli/rescaled_final/0588_fw.mp4	0.0	215.28238773345947	
32	164.0996379852295	pulse	1	t		30.0	2.5	/experiments/knapen_AOT/AOT_stimuli/rescaled_final/0588_fw.mp4	0.0	216.8825888633728	
32	164.2162380218506	fix_post	2		12	30.0	2.5	/experiments/knapen_AOT/AOT_stimuli/rescaled_final/0588_fw.mp4	0.0	216.9991888999939	0.09990286827087402
33	164.31614089012146	fix_pre	0		120	31.0	2.5	/experiments/knapen_AOT/AOT_stimuli/rescaled_final/0023_fw.mp4	0.0	217.09909176826477	1.000148057937622
33	165.31628894805908	movie	1		242	31.0	2.5	/experiments/knapen_AOT/AOT_stimuli/rescaled_final/0023_fw.mp4	0.0	218.0992398262024	2.4920239448547363
33	165.7005398273468	pulse	1	t		31.0	2.5	/experiments/knapen_AOT/AOT_stimuli/rescaled_final/0023_fw.mp4	0.0	218.4834907054901	
33	167.29264998435974	pulse	1	t		31.0	2.5	/experiments/knapen_AOT/AOT_stimuli/rescaled_final/0023_fw.mp4	0.0	220.07560086250305	
33	167.80831289291382	fix_post	2		12	31.0	2.5	/experiments/knapen_AOT/AOT_stimuli/rescaled_final/0023_fw.mp4	0.0	220.59126377105713	0.10000014305114746
34	167.90831303596497	fix_pre	0		120	32.0	2.5	/experiments/knapen_AOT/AOT_stimuli/rescaled_final/2104_rv.mp4	0.0	220.69126391410828	1.0001180171966553
34	168.8926899433136	pulse	0	t		32.0	2.5	/experiments/knapen_AOT/AOT_stimuli/rescaled_final/2104_rv.mp4	0.0	221.6756408214569	
34	168.90843105316162	movie	1		244	32.0	2.5	/experiments/knapen_AOT/AOT_stimuli/rescaled_final/2104_rv.mp4	0.0	221.69138193130493	2.5088088512420654
34	170.50099396705627	pulse	1	t		32.0	2.5	/experiments/knapen_AOT/AOT_stimuli/rescaled_final/2104_rv.mp4	0.0	223.28394484519958	
34	171.4172399044037	fix_post	2		12	32.0	2.5	/experiments/knapen_AOT/AOT_stimuli/rescaled_final/2104_rv.mp4	0.0	224.200190782547	0.09998393058776855
35	171.51722383499146	fix_pre	0		120	33.0	2.5	/experiments/knapen_AOT/AOT_stimuli/rescaled_final/0841_rv.mp4	0.0	224.30017471313477	1.000089168548584
35	172.09256386756897	pulse	0	t		33.0	2.5	/experiments/knapen_AOT/AOT_stimuli/rescaled_final/0841_rv.mp4	0.0	224.87551474571228	
35	172.51731300354004	movie	1		245	33.0	2.5	/experiments/knapen_AOT/AOT_stimuli/rescaled_final/0841_rv.mp4	0.0	225.30026388168335	2.5003578662872314
35	173.69324803352356	pulse	1	t		33.0	2.5	/experiments/knapen_AOT/AOT_stimuli/rescaled_final/0841_rv.mp4	0.0	226.47619891166687	
35	175.01767086982727	fix_post	2		12	33.0	2.5	/experiments/knapen_AOT/AOT_stimuli/rescaled_final/0841_rv.mp4	0.0	227.80062174797058	0.09998297691345215
36	175.11765384674072	fix_pre	0		120	34.0	2.5	blank	1.0	227.90060472488403	1.000169038772583
36	175.29282402992249	pulse	0	t		34.0	2.5	blank	1.0	228.0757749080658	
36	176.1178228855133	movie	1		300	34.0	2.5	blank	1.0	228.90077376365662	2.500430107116699
36	176.8931849002838	pulse	1	t		34.0	2.5	blank	1.0	229.67613577842712	
36	178.4934639930725	pulse	1	t		34.0	2.5	blank	1.0	231.27641487121582	
36	178.61825299263	fix_post	2		12	34.0	2.5	blank	1.0	231.40120387077332	0.10002994537353516
37	178.71828293800354	fix_pre	0		120	35.0	2.5	/experiments/knapen_AOT/AOT_stimuli/rescaled_final/1570_rv.mp4	0.0	231.50123381614685	1.0001349449157715
37	179.7184178829193	movie	1		243	35.0	2.5	/experiments/knapen_AOT/AOT_stimuli/rescaled_final/1570_rv.mp4	0.0	232.50136876106262	2.491976022720337
37	180.09369587898254	pulse	1	t		35.0	2.5	/experiments/knapen_AOT/AOT_stimuli/rescaled_final/1570_rv.mp4	0.0	232.87664675712585	
37	181.6938738822937	pulse	1	t		35.0	2.5	/experiments/knapen_AOT/AOT_stimuli/rescaled_final/1570_rv.mp4	0.0	234.476824760437	
37	182.21039390563965	fix_post	2		12	35.0	2.5	/experiments/knapen_AOT/AOT_stimuli/rescaled_final/1570_rv.mp4	0.0	234.99334478378296	0.10006594657897949
38	182.31045985221863	fix_pre	0		119	36.0	2.5	/experiments/knapen_AOT/AOT_stimuli/rescaled_final/0841_fw.mp4	0.0	235.09341073036194	0.9917871952056885
38	183.29413199424744	pulse	0	t		36.0	2.5	/experiments/knapen_AOT/AOT_stimuli/rescaled_final/0841_fw.mp4	0.0	236.07708287239075	
38	183.30224704742432	movie	1		247	36.0	2.5	/experiments/knapen_AOT/AOT_stimuli/rescaled_final/0841_fw.mp4	0.0	236.08519792556763	2.508729934692383
38	184.8946568965912	pulse	1	t		36.0	2.5	/experiments/knapen_AOT/AOT_stimuli/rescaled_final/0841_fw.mp4	0.0	237.6776077747345	
38	185.8109769821167	fix_post	2		12	36.0	2.5	/experiments/knapen_AOT/AOT_stimuli/rescaled_final/0841_fw.mp4	0.0	238.59392786026	0.1000208854675293
39	185.91099786758423	fix_pre	0		120	37.0	2.5	/experiments/knapen_AOT/AOT_stimuli/rescaled_final/1163_rv.mp4	0.0	238.69394874572754	1.0001320838928223
39	186.49467587471008	pulse	0	t		37.0	2.5	/experiments/knapen_AOT/AOT_stimuli/rescaled_final/1163_rv.mp4	0.0	239.2776267528534	
39	186.91112995147705	movie	1		243	37.0	2.5	/experiments/knapen_AOT/AOT_stimuli/rescaled_final/1163_rv.mp4	0.0	239.69408082962036	2.5004971027374268
39	188.0948429107666	pulse	1	t		37.0	2.5	/experiments/knapen_AOT/AOT_stimuli/rescaled_final/1163_rv.mp4	0.0	240.8777937889099	
39	189.41162705421448	fix_post	2		12	37.0	2.5	/experiments/knapen_AOT/AOT_stimuli/rescaled_final/1163_rv.mp4	0.0	242.1945779323578	0.09993386268615723
40	189.51156091690063	fix_pre	0		120	38.0	2.5	/experiments/knapen_AOT/AOT_stimuli/rescaled_final/1986_fw.mp4	0.0	242.29451179504395	1.0000801086425781
40	189.6949918270111	pulse	0	t		38.0	2.5	/experiments/knapen_AOT/AOT_stimuli/rescaled_final/1986_fw.mp4	0.0	242.47794270515442	
40	190.5116410255432	movie	1		243	38.0	2.5	/experiments/knapen_AOT/AOT_stimuli/rescaled_final/1986_fw.mp4	0.0	243.29459190368652	2.5005009174346924
40	191.29543495178223	pulse	1	t		38.0	2.5	/experiments/knapen_AOT/AOT_stimuli/rescaled_final/1986_fw.mp4	0.0	244.07838582992554	
40	192.89549589157104	pulse	1	t		38.0	2.5	/experiments/knapen_AOT/AOT_stimuli/rescaled_final/1986_fw.mp4	0.0	245.67844676971436	
40	193.0121419429779	fix_post	2		12	38.0	2.5	/experiments/knapen_AOT/AOT_stimuli/rescaled_final/1986_fw.mp4	0.0	245.79509282112122	0.09995603561401367
41	193.11209797859192	fix_pre	0		120	39.0	2.5	/experiments/knapen_AOT/AOT_stimuli/rescaled_final/0372_rv.mp4	0.0	245.89504885673523	1.000133991241455
41	194.11223196983337	movie	1		242	39.0	2.5	/experiments/knapen_AOT/AOT_stimuli/rescaled_final/0372_rv.mp4	0.0	246.89518284797668	2.492125988006592
41	194.4971158504486	pulse	1	t		39.0	2.5	/experiments/knapen_AOT/AOT_stimuli/rescaled_final/0372_rv.mp4	0.0	247.28006672859192	
41	196.09594583511353	pulse	1	t		39.0	2.5	/experiments/knapen_AOT/AOT_stimuli/rescaled_final/0372_rv.mp4	0.0	248.87889671325684	
41	196.60435795783997	fix_post	2		12	39.0	2.5	/experiments/knapen_AOT/AOT_stimuli/rescaled_final/0372_rv.mp4	0.0	249.38730883598328	0.09993600845336914
42	196.70429396629333	fix_pre	0		120	40.0	2.5	blank	1.0	249.48724484443665	1.0001709461212158
42	197.69621586799622	pulse	0	t		40.0	2.5	blank	1.0	250.47916674613953	
42	197.70446491241455	movie	1		301	40.0	2.5	blank	1.0	250.48741579055786	2.5086889266967773
42	199.29653191566467	pulse	1	t		40.0	2.5	blank	1.0	252.07948279380798	
42	200.21315383911133	fix_post	2		12	40.0	2.5	blank	1.0	252.99610471725464	0.0999910831451416
43	200.31314492225647	fix_pre	0		120	41.0	2.5	/experiments/knapen_AOT/AOT_stimuli/rescaled_final/0329_rv.mp4	0.0	253.09609580039978	1.0001671314239502
43	200.8966839313507	pulse	0	t		41.0	2.5	/experiments/knapen_AOT/AOT_stimuli/rescaled_final/0329_rv.mp4	0.0	253.67963480949402	
43	201.31331205368042	movie	1		242	41.0	2.5	/experiments/knapen_AOT/AOT_stimuli/rescaled_final/0329_rv.mp4	0.0	254.09626293182373	2.5004498958587646
43	202.4969940185547	pulse	1	t		41.0	2.5	/experiments/knapen_AOT/AOT_stimuli/rescaled_final/0329_rv.mp4	0.0	255.279944896698	
43	203.81376194953918	fix_post	2		12	41.0	2.5	/experiments/knapen_AOT/AOT_stimuli/rescaled_final/0329_rv.mp4	0.0	256.5967128276825	0.09986495971679688
44	203.91362690925598	fix_pre	0		120	42.0	2.5	/experiments/knapen_AOT/AOT_stimuli/rescaled_final/1791_rv.mp4	0.0	256.6965777873993	1.0001649856567383
44	204.09715294837952	pulse	0	t		42.0	2.5	/experiments/knapen_AOT/AOT_stimuli/rescaled_final/1791_rv.mp4	0.0	256.8801038265228	
44	204.91379189491272	movie	1		243	42.0	2.5	/experiments/knapen_AOT/AOT_stimuli/rescaled_final/1791_rv.mp4	0.0	257.69674277305603	2.5005180835723877
44	205.69758701324463	pulse	1	t		42.0	2.5	/experiments/knapen_AOT/AOT_stimuli/rescaled_final/1791_rv.mp4	0.0	258.48053789138794	
44	207.29752588272095	pulse	1	t		42.0	2.5	/experiments/knapen_AOT/AOT_stimuli/rescaled_final/1791_rv.mp4	0.0	260.08047676086426	
44	207.4143099784851	fix_post	2		12	42.0	2.5	/experiments/knapen_AOT/AOT_stimuli/rescaled_final/1791_rv.mp4	0.0	260.1972608566284	0.0999140739440918
45	207.5142240524292	fix_pre	0		120	43.0	2.5	/experiments/knapen_AOT/AOT_stimuli/rescaled_final/0023_rv.mp4	0.0	260.2971749305725	1.000114917755127
45	208.51433897018433	movie	1		242	43.0	2.5	/experiments/knapen_AOT/AOT_stimuli/rescaled_final/0023_rv.mp4	0.0	261.29728984832764	2.4920809268951416
45	208.90214705467224	pulse	1	t		43.0	2.5	/experiments/knapen_AOT/AOT_stimuli/rescaled_final/0023_rv.mp4	0.0	261.68509793281555	
45	210.49818587303162	pulse	1	t		43.0	2.5	/experiments/knapen_AOT/AOT_stimuli/rescaled_final/0023_rv.mp4	0.0	263.2811367511749	
45	211.00641989707947	fix_post	2		10	43.0	2.5	/experiments/knapen_AOT/AOT_stimuli/rescaled_final/0023_rv.mp4	0.0	263.7893707752228	0.09997797012329102
46	211.10639786720276	fix_pre	0		120	44.0	2.5	/experiments/knapen_AOT/AOT_stimuli/rescaled_final/0840_rv.mp4	0.0	263.88934874534607	1.0001251697540283
46	212.09845399856567	pulse	0	t		44.0	2.5	/experiments/knapen_AOT/AOT_stimuli/rescaled_final/0840_rv.mp4	0.0	264.881404876709	
46	212.1065230369568	movie	1		244	44.0	2.5	/experiments/knapen_AOT/AOT_stimuli/rescaled_final/0840_rv.mp4	0.0	264.8894739151001	2.50875186920166
46	213.6993329524994	pulse	1	t		44.0	2.5	/experiments/knapen_AOT/AOT_stimuli/rescaled_final/0840_rv.mp4	0.0	266.4822838306427	
46	214.61527490615845	fix_post	2		12	44.0	2.5	/experiments/knapen_AOT/AOT_stimuli/rescaled_final/0840_rv.mp4	0.0	267.39822578430176	0.10001707077026367
47	214.7152919769287	fix_pre	0		120	45.0	2.5	/experiments/knapen_AOT/AOT_stimuli/rescaled_final/1722_rv.mp4	0.0	267.498242855072	1.0001280307769775
47	215.29886293411255	pulse	0	t		45.0	2.5	/experiments/knapen_AOT/AOT_stimuli/rescaled_final/1722_rv.mp4	0.0	268.08181381225586	
47	215.7154200077057	movie	1		242	45.0	2.5	/experiments/knapen_AOT/AOT_stimuli/rescaled_final/1722_rv.mp4	0.0	268.498370885849	2.5003859996795654
47	216.89917993545532	pulse	1	t		45.0	2.5	/experiments/knapen_AOT/AOT_stimuli/rescaled_final/1722_rv.mp4	0.0	269.68213081359863	
47	218.21580600738525	fix_post	2		12	45.0	2.5	/experiments/knapen_AOT/AOT_stimuli/rescaled_final/1722_rv.mp4	0.0	270.99875688552856	0.0999898910522461
48	218.3157958984375	fix_pre	0		120	46.0	2.5	/experiments/knapen_AOT/AOT_stimuli/rescaled_final/1757_fw.mp4	0.0	271.0987467765808	1.0001270771026611
48	218.49183082580566	pulse	0	t		46.0	2.5	/experiments/knapen_AOT/AOT_stimuli/rescaled_final/1757_fw.mp4	0.0	271.274781703949	
48	219.31592297554016	movie	1		242	46.0	2.5	/experiments/knapen_AOT/AOT_stimuli/rescaled_final/1757_fw.mp4	0.0	272.0988738536835	2.500545024871826
48	220.09215784072876	pulse	1	t		46.0	2.5	/experiments/knapen_AOT/AOT_stimuli/rescaled_final/1757_fw.mp4	0.0	272.87510871887207	
48	221.69972205162048	pulse	1	t		46.0	2.5	/experiments/knapen_AOT/AOT_stimuli/rescaled_final/1757_fw.mp4	0.0	274.4826729297638	
48	221.816468000412	fix_post	2		12	46.0	2.5	/experiments/knapen_AOT/AOT_stimuli/rescaled_final/1757_fw.mp4	0.0	274.5994188785553	0.09992599487304688
49	221.91639399528503	fix_pre	0		120	47.0	2.5	/experiments/knapen_AOT/AOT_stimuli/rescaled_final/1659_fw.mp4	0.0	274.69934487342834	1.0000510215759277
49	222.91644501686096	movie	1		243	47.0	2.5	/experiments/knapen_AOT/AOT_stimuli/rescaled_final/1659_fw.mp4	0.0	275.6993958950043	2.4920639991760254
49	223.30144691467285	pulse	1	t		47.0	2.5	/experiments/knapen_AOT/AOT_stimuli/rescaled_final/1659_fw.mp4	0.0	276.08439779281616	
49	224.89288687705994	pulse	1	t		47.0	2.5	/experiments/knapen_AOT/AOT_stimuli/rescaled_final/1659_fw.mp4	0.0	277.67583775520325	
49	225.408509016037	fix_post	2		12	47.0	2.5	/experiments/knapen_AOT/AOT_stimuli/rescaled_final/1659_fw.mp4	0.0	278.1914598941803	0.10006093978881836
50	225.5085699558258	fix_pre	0		119	48.0	2.5	/experiments/knapen_AOT/AOT_stimuli/rescaled_final/1192_fw.mp4	0.0	278.2915208339691	0.9918138980865479
50	226.49216389656067	pulse	0	t		48.0	2.5	/experiments/knapen_AOT/AOT_stimuli/rescaled_final/1192_fw.mp4	0.0	279.275114774704	
50	226.50038385391235	movie	1		243	48.0	2.5	/experiments/knapen_AOT/AOT_stimuli/rescaled_final/1192_fw.mp4	0.0	279.28333473205566	2.508697032928467
50	228.0972809791565	pulse	1	t		48.0	2.5	/experiments/knapen_AOT/AOT_stimuli/rescaled_final/1192_fw.mp4	0.0	280.8802318572998	
50	229.00908088684082	fix_post	2		12	48.0	2.5	/experiments/knapen_AOT/AOT_stimuli/rescaled_final/1192_fw.mp4	0.0	281.79203176498413	0.09998297691345215
51	229.10906386375427	fix_pre	0		120	49.0	2.5	blank	1.0	281.8920147418976	1.000176191329956
51	229.6926348209381	pulse	0	t		49.0	2.5	blank	1.0	282.4755856990814	
51	230.10924005508423	movie	1		300	49.0	2.5	blank	1.0	282.89219093322754	2.500382900238037
51	231.2928729057312	pulse	1	t		49.0	2.5	blank	1.0	284.0758237838745	
51	232.60962295532227	fix_post	2		12	49.0	2.5	blank	1.0	285.3925738334656	0.09999895095825195
52	232.70962190628052	fix_pre	0		120	50.0	2.5	/experiments/knapen_AOT/AOT_stimuli/rescaled_final/0837_rv.mp4	0.0	285.4925727844238	1.0001330375671387
52	232.89327096939087	pulse	0	t		50.0	2.5	/experiments/knapen_AOT/AOT_stimuli/rescaled_final/0837_rv.mp4	0.0	285.6762218475342	
52	233.70975494384766	movie	1		242	50.0	2.5	/experiments/knapen_AOT/AOT_stimuli/rescaled_final/0837_rv.mp4	0.0	286.49270582199097	2.5005741119384766
52	234.4934058189392	pulse	1	t		50.0	2.5	/experiments/knapen_AOT/AOT_stimuli/rescaled_final/0837_rv.mp4	0.0	287.2763566970825	
52	236.09355783462524	pulse	1	t		50.0	2.5	/experiments/knapen_AOT/AOT_stimuli/rescaled_final/0837_rv.mp4	0.0	288.87650871276855	
52	236.21032905578613	fix_post	2		12	50.0	2.5	/experiments/knapen_AOT/AOT_stimuli/rescaled_final/0837_rv.mp4	0.0	288.99327993392944	0.09983682632446289
53	236.3101658821106	fix_pre	0		120	51.0	2.5	/experiments/knapen_AOT/AOT_stimuli/rescaled_final/1123_fw.mp4	0.0	289.0931167602539	1.0001370906829834
53	237.31030297279358	movie	1		242	51.0	2.5	/experiments/knapen_AOT/AOT_stimuli/rescaled_final/1123_fw.mp4	0.0	290.0932538509369	2.492048978805542
53	237.6945300102234	pulse	1	t		51.0	2.5	/experiments/knapen_AOT/AOT_stimuli/rescaled_final/1123_fw.mp4	0.0	290.4774808883667	
53	239.29410600662231	pulse	1	t		51.0	2.5	/experiments/knapen_AOT/AOT_stimuli/rescaled_final/1123_fw.mp4	0.0	292.0770568847656	
53	239.80235195159912	fix_post	2		12	51.0	2.5	/experiments/knapen_AOT/AOT_stimuli/rescaled_final/1123_fw.mp4	0.0	292.58530282974243	0.1000220775604248
54	239.90237402915955	fix_pre	0		120	52.0	2.5	/experiments/knapen_AOT/AOT_stimuli/rescaled_final/0815_rv.mp4	0.0	292.68532490730286	1.0001909732818604
54	240.89441800117493	pulse	0	t		52.0	2.5	/experiments/knapen_AOT/AOT_stimuli/rescaled_final/0815_rv.mp4	0.0	293.67736887931824	
54	240.9025650024414	movie	1		243	52.0	2.5	/experiments/knapen_AOT/AOT_stimuli/rescaled_final/0815_rv.mp4	0.0	293.6855158805847	2.5086498260498047
54	242.4958839416504	pulse	1	t		52.0	2.5	/experiments/knapen_AOT/AOT_stimuli/rescaled_final/0815_rv.mp4	0.0	295.2788348197937	
54	243.4112148284912	fix_post	2		12	52.0	2.5	/experiments/knapen_AOT/AOT_stimuli/rescaled_final/0815_rv.mp4	0.0	296.1941657066345	0.10000801086425781
55	243.51122283935547	fix_pre	0		120	53.0	2.5	/experiments/knapen_AOT/AOT_stimuli/rescaled_final/1934_rv.mp4	0.0	296.2941737174988	1.0002210140228271
55	244.0948839187622	pulse	0	t		53.0	2.5	/experiments/knapen_AOT/AOT_stimuli/rescaled_final/1934_rv.mp4	0.0	296.8778347969055	
55	244.5114438533783	movie	1		242	53.0	2.5	/experiments/knapen_AOT/AOT_stimuli/rescaled_final/1934_rv.mp4	0.0	297.2943947315216	2.500331163406372
55	245.69515991210938	pulse	1	t		53.0	2.5	/experiments/knapen_AOT/AOT_stimuli/rescaled_final/1934_rv.mp4	0.0	298.4781107902527	
55	247.01177501678467	fix_post	2		12	53.0	2.5	/experiments/knapen_AOT/AOT_stimuli/rescaled_final/1934_rv.mp4	0.0	299.794725894928	0.10000085830688477
56	247.11177587509155	fix_pre	0		120	54.0	2.5	/experiments/knapen_AOT/AOT_stimuli/rescaled_final/2013_fw.mp4	0.0	299.89472675323486	1.0001280307769775
56	247.2954080104828	pulse	0	t		54.0	2.5	/experiments/knapen_AOT/AOT_stimuli/rescaled_final/2013_fw.mp4	0.0	300.0783588886261	
56	248.11190390586853	movie	1		243	54.0	2.5	/experiments/knapen_AOT/AOT_stimuli/rescaled_final/2013_fw.mp4	0.0	300.89485478401184	2.5004849433898926
56	248.89552283287048	pulse	1	t		54.0	2.5	/experiments/knapen_AOT/AOT_stimuli/rescaled_final/2013_fw.mp4	0.0	301.6784737110138	
56	250.49565887451172	pulse	1	t		54.0	2.5	/experiments/knapen_AOT/AOT_stimuli/rescaled_final/2013_fw.mp4	0.0	303.27860975265503	
56	250.61238884925842	fix_post	2		12	54.0	2.5	/experiments/knapen_AOT/AOT_stimuli/rescaled_final/2013_fw.mp4	0.0	303.39533972740173	0.0999140739440918
57	250.71230292320251	fix_pre	0		120	55.0	2.5	/experiments/knapen_AOT/AOT_stimuli/rescaled_final/0448_fw.mp4	0.0	303.4952538013458	1.000135898590088
57	251.7124388217926	movie	1		241	55.0	2.5	/experiments/knapen_AOT/AOT_stimuli/rescaled_final/0448_fw.mp4	0.0	304.4953896999359	2.4920880794525146
57	252.09661102294922	pulse	1	t		55.0	2.5	/experiments/knapen_AOT/AOT_stimuli/rescaled_final/0448_fw.mp4	0.0	304.87956190109253	
57	253.69632601737976	pulse	1	t		55.0	2.5	/experiments/knapen_AOT/AOT_stimuli/rescaled_final/0448_fw.mp4	0.0	306.47927689552307	
57	254.20452690124512	fix_post	2		12	55.0	2.5	/experiments/knapen_AOT/AOT_stimuli/rescaled_final/0448_fw.mp4	0.0	306.9874777793884	0.10006213188171387
58	254.30458903312683	fix_pre	0		120	56.0	2.5	blank	1.0	307.08753991127014	1.0000669956207275
58	255.2965579032898	pulse	0	t		56.0	2.5	blank	1.0	308.0795087814331	
58	255.30465602874756	movie	1		301	56.0	2.5	blank	1.0	308.08760690689087	2.5086848735809326
58	256.89670491218567	pulse	1	t		56.0	2.5	blank	1.0	309.679655790329	
58	257.8133409023285	fix_post	2		12	56.0	2.5	blank	1.0	310.5962917804718	0.10003113746643066
59	257.9133720397949	fix_pre	0		120	57.0	2.5	/experiments/knapen_AOT/AOT_stimuli/rescaled_final/2076_rv.mp4	0.0	310.69632291793823	1.000128984451294
59	258.4969689846039	pulse	0	t		57.0	2.5	/experiments/knapen_AOT/AOT_stimuli/rescaled_final/2076_rv.mp4	0.0	311.2799198627472	
59	258.9135010242462	movie	1		244	57.0	2.5	/experiments/knapen_AOT/AOT_stimuli/rescaled_final/2076_rv.mp4	0.0	311.6964519023895	2.500396966934204
59	260.0974018573761	pulse	1	t		57.0	2.5	/experiments/knapen_AOT/AOT_stimuli/rescaled_final/2076_rv.mp4	0.0	312.8803527355194	
59	261.4138979911804	fix_post	2		12	57.0	2.5	/experiments/knapen_AOT/AOT_stimuli/rescaled_final/2076_rv.mp4	0.0	314.19684886932373	0.10007095336914062
60	261.51396894454956	fix_pre	0		120	58.0	2.5	/experiments/knapen_AOT/AOT_stimuli/rescaled_final/0220_fw.mp4	0.0	314.29691982269287	1.0000801086425781
60	261.697566986084	pulse	0	t		58.0	2.5	/experiments/knapen_AOT/AOT_stimuli/rescaled_final/0220_fw.mp4	0.0	314.4805178642273	
60	262.51404905319214	movie	1		243	58.0	2.5	/experiments/knapen_AOT/AOT_stimuli/rescaled_final/0220_fw.mp4	0.0	315.29699993133545	2.5004968643188477
60	263.29765486717224	pulse	1	t		58.0	2.5	/experiments/knapen_AOT/AOT_stimuli/rescaled_final/0220_fw.mp4	0.0	316.08060574531555	
60	264.8977358341217	pulse	1	t		58.0	2.5	/experiments/knapen_AOT/AOT_stimuli/rescaled_final/0220_fw.mp4	0.0	317.680686712265	
60	265.014545917511	fix_post	2		12	58.0	2.5	/experiments/knapen_AOT/AOT_stimuli/rescaled_final/0220_fw.mp4	0.0	317.7974967956543	0.09992504119873047
61	265.1144709587097	fix_pre	0		120	59.0	2.5	/experiments/knapen_AOT/AOT_stimuli/rescaled_final/0714_fw.mp4	0.0	317.897421836853	1.000114917755127
61	266.11458587646484	movie	1		242	59.0	2.5	/experiments/knapen_AOT/AOT_stimuli/rescaled_final/0714_fw.mp4	0.0	318.89753675460815	2.4920260906219482
61	266.4984829425812	pulse	1	t		59.0	2.5	/experiments/knapen_AOT/AOT_stimuli/rescaled_final/0714_fw.mp4	0.0	319.2814338207245	
61	268.0985050201416	pulse	1	t		59.0	2.5	/experiments/knapen_AOT/AOT_stimuli/rescaled_final/0714_fw.mp4	0.0	320.8814558982849	
61	268.6066119670868	fix_post	2		12	59.0	2.5	/experiments/knapen_AOT/AOT_stimuli/rescaled_final/0714_fw.mp4	0.0	321.3895628452301	0.10000991821289062
62	268.7066218852997	fix_pre	0		120	60.0	2.5	/experiments/knapen_AOT/AOT_stimuli/rescaled_final/0329_fw.mp4	0.0	321.489572763443	1.0001490116119385
62	269.69861793518066	pulse	0	t		60.0	2.5	/experiments/knapen_AOT/AOT_stimuli/rescaled_final/0329_fw.mp4	0.0	322.481568813324	
62	269.7067708969116	movie	1		243	60.0	2.5	/experiments/knapen_AOT/AOT_stimuli/rescaled_final/0329_fw.mp4	0.0	322.48972177505493	2.508777141571045
62	271.29950499534607	pulse	1	t		60.0	2.5	/experiments/knapen_AOT/AOT_stimuli/rescaled_final/0329_fw.mp4	0.0	324.0824558734894	
62	272.21554803848267	fix_post	2		12	60.0	2.5	/experiments/knapen_AOT/AOT_stimuli/rescaled_final/0329_fw.mp4	0.0	324.998498916626	0.09999680519104004
63	272.3155448436737	fix_pre	0		116	61.0	2.5	blank	1.0	325.098495721817	1.000096082687378
63	272.89915895462036	pulse	0	t		61.0	2.5	blank	1.0	325.6821098327637	
63	273.3156409263611	movie	1		300	61.0	2.5	blank	1.0	326.0985918045044	2.5004498958587646
63	274.499470949173	pulse	1	t		61.0	2.5	blank	1.0	327.2824218273163	
63	275.81609082221985	fix_post	2		12	61.0	2.5	blank	1.0	328.59904170036316	0.100006103515625
64	275.9160969257355	fix_pre	0		120	62.0	2.5	/experiments/knapen_AOT/AOT_stimuli/rescaled_final/0724_fw.mp4	0.0	328.6990478038788	1.0001471042633057
64	276.09972500801086	pulse	0	t		62.0	2.5	/experiments/knapen_AOT/AOT_stimuli/rescaled_final/0724_fw.mp4	0.0	328.8826758861542	
64	276.9162440299988	movie	1		246	62.0	2.5	/experiments/knapen_AOT/AOT_stimuli/rescaled_final/0724_fw.mp4	0.0	329.6991949081421	2.5003538131713867
64	277.69979596138	pulse	1	t		62.0	2.5	/experiments/knapen_AOT/AOT_stimuli/rescaled_final/0724_fw.mp4	0.0	330.4827468395233	
64	279.29260087013245	pulse	1	t		62.0	2.5	/experiments/knapen_AOT/AOT_stimuli/rescaled_final/0724_fw.mp4	0.0	332.07555174827576	
64	279.41659784317017	fix_post	2		12	62.0	2.5	/experiments/knapen_AOT/AOT_stimuli/rescaled_final/0724_fw.mp4	0.0	332.1995487213135	0.09999918937683105
65	279.516597032547	fix_pre	0		120	63.0	2.5	/experiments/knapen_AOT/AOT_stimuli/rescaled_final/1690_rv.mp4	0.0	332.2995479106903	1.0001378059387207
65	280.5167348384857	movie	1		242	63.0	2.5	/experiments/knapen_AOT/AOT_stimuli/rescaled_final/1690_rv.mp4	0.0	333.299685716629	2.492017984390259
65	280.9008400440216	pulse	1	t		63.0	2.5	/experiments/knapen_AOT/AOT_stimuli/rescaled_final/1690_rv.mp4	0.0	333.6837909221649	
65	282.49324798583984	pulse	1	t		63.0	2.5	/experiments/knapen_AOT/AOT_stimuli/rescaled_final/1690_rv.mp4	0.0	335.27619886398315	
65	283.008752822876	fix_post	2		12	63.0	2.5	/experiments/knapen_AOT/AOT_stimuli/rescaled_final/1690_rv.mp4	0.0	335.7917037010193	0.10001420974731445
66	283.1087670326233	fix_pre	0		120	64.0	2.5	/experiments/knapen_AOT/AOT_stimuli/rescaled_final/0460_fw.mp4	0.0	335.8917179107666	1.000229835510254
66	284.09335684776306	pulse	0	t		64.0	2.5	/experiments/knapen_AOT/AOT_stimuli/rescaled_final/0460_fw.mp4	0.0	336.8763077259064	
66	284.10899686813354	movie	1		243	64.0	2.5	/experiments/knapen_AOT/AOT_stimuli/rescaled_final/0460_fw.mp4	0.0	336.89194774627686	2.508716106414795
66	285.69286489486694	pulse	1	t		64.0	2.5	/experiments/knapen_AOT/AOT_stimuli/rescaled_final/0460_fw.mp4	0.0	338.47581577301025	
66	286.61771297454834	fix_post	2		12	64.0	2.5	/experiments/knapen_AOT/AOT_stimuli/rescaled_final/0460_fw.mp4	0.0	339.40066385269165	0.09993505477905273
67	286.7176480293274	fix_pre	0		120	65.0	2.5	/experiments/knapen_AOT/AOT_stimuli/rescaled_final/2158_rv.mp4	0.0	339.5005989074707	1.000173807144165
67	287.29285502433777	pulse	0	t		65.0	2.5	/experiments/knapen_AOT/AOT_stimuli/rescaled_final/2158_rv.mp4	0.0	340.0758059024811	
67	287.71782183647156	movie	1		242	65.0	2.5	/experiments/knapen_AOT/AOT_stimuli/rescaled_final/2158_rv.mp4	0.0	340.50077271461487	2.500430107116699
67	288.89369082450867	pulse	1	t		65.0	2.5	/experiments/knapen_AOT/AOT_stimuli/rescaled_final/2158_rv.mp4	0.0	341.676641702652	
67	290.21825194358826	fix_post	2		12	65.0	2.5	/experiments/knapen_AOT/AOT_stimuli/rescaled_final/2158_rv.mp4	0.0	343.00120282173157	0.09992194175720215
68	290.31817388534546	fix_pre	0		120	66.0	2.5	/experiments/knapen_AOT/AOT_stimuli/rescaled_final/1628_fw.mp4	0.0	343.10112476348877	1.0002501010894775
68	290.4934480190277	pulse	0	t		66.0	2.5	/experiments/knapen_AOT/AOT_stimuli/rescaled_final/1628_fw.mp4	0.0	343.276398897171	
68	291.31842398643494	movie	1		242	66.0	2.5	/experiments/knapen_AOT/AOT_stimuli/rescaled_final/1628_fw.mp4	0.0	344.10137486457825	2.5003199577331543
68	292.093722820282	pulse	1	t		66.0	2.5	/experiments/knapen_AOT/AOT_stimuli/rescaled_final/1628_fw.mp4	0.0	344.8766736984253	
68	293.69387197494507	pulse	1	t		66.0	2.5	/experiments/knapen_AOT/AOT_stimuli/rescaled_final/1628_fw.mp4	0.0	346.4768228530884	
68	293.8187439441681	fix_post	2		11	66.0	2.5	/experiments/knapen_AOT/AOT_stimuli/rescaled_final/1628_fw.mp4	0.0	346.6016948223114	0.09170198440551758
69	293.9104459285736	fix_pre	0		120	67.0	2.5	/experiments/knapen_AOT/AOT_stimuli/rescaled_final/1582_rv.mp4	0.0	346.6933968067169	1.0001389980316162
69	294.9105849266052	movie	1		242	67.0	2.5	/experiments/knapen_AOT/AOT_stimuli/rescaled_final/1582_rv.mp4	0.0	347.69353580474854	2.5004489421844482
69	295.29529094696045	pulse	1	t		67.0	2.5	/experiments/knapen_AOT/AOT_stimuli/rescaled_final/1582_rv.mp4	0.0	348.07824182510376	
69	296.89449095726013	pulse	1	t		67.0	2.5	/experiments/knapen_AOT/AOT_stimuli/rescaled_final/1582_rv.mp4	0.0	349.67744183540344	
69	297.4110338687897	fix_post	2		12	67.0	2.5	/experiments/knapen_AOT/AOT_stimuli/rescaled_final/1582_rv.mp4	0.0	350.193984746933	0.0999140739440918
70	297.51094794273376	fix_pre	0		119	68.0	2.5	/experiments/knapen_AOT/AOT_stimuli/rescaled_final/0047_fw.mp4	0.0	350.2938988208771	0.9917759895324707
70	298.49466586112976	pulse	0	t		68.0	2.5	/experiments/knapen_AOT/AOT_stimuli/rescaled_final/0047_fw.mp4	0.0	351.27761673927307	
70	298.50272393226624	movie	1		243	68.0	2.5	/experiments/knapen_AOT/AOT_stimuli/rescaled_final/0047_fw.mp4	0.0	351.28567481040955	2.5087199211120605
70	300.09543800354004	pulse	1	t		68.0	2.5	/experiments/knapen_AOT/AOT_stimuli/rescaled_final/0047_fw.mp4	0.0	352.87838888168335	
70	301.0114438533783	fix_post	2		12	68.0	2.5	/experiments/knapen_AOT/AOT_stimuli/rescaled_final/0047_fw.mp4	0.0	353.7943947315216	0.10014510154724121
71	301.11158895492554	fix_pre	0		120	69.0	2.5	blank	1.0	353.89453983306885	1.0000219345092773
71	301.6950719356537	pulse	0	t		69.0	2.5	blank	1.0	354.478022813797	
71	302.1116108894348	movie	1		300	69.0	2.5	blank	1.0	354.8945617675781	2.5003609657287598
71	303.29534792900085	pulse	1	t		69.0	2.5	blank	1.0	356.07829880714417	
71	304.6119718551636	fix_post	2		12	69.0	2.5	blank	1.0	357.3949227333069	0.10007905960083008
72	304.7120509147644	fix_pre	0		120	70.0	2.5	/experiments/knapen_AOT/AOT_stimuli/rescaled_final/0471_fw.mp4	0.0	357.4950017929077	1.0001060962677002
72	304.89569091796875	pulse	0	t		70.0	2.5	/experiments/knapen_AOT/AOT_stimuli/rescaled_final/0471_fw.mp4	0.0	357.67864179611206	
72	305.7121570110321	movie	1		243	70.0	2.5	/experiments/knapen_AOT/AOT_stimuli/rescaled_final/0471_fw.mp4	0.0	358.4951078891754	2.5004239082336426
72	306.4958460330963	pulse	1	t		70.0	2.5	/experiments/knapen_AOT/AOT_stimuli/rescaled_final/0471_fw.mp4	0.0	359.2787969112396	
72	308.09598994255066	pulse	1	t		70.0	2.5	/experiments/knapen_AOT/AOT_stimuli/rescaled_final/0471_fw.mp4	0.0	360.87894082069397	
72	308.21258091926575	fix_post	2		12	70.0	2.5	/experiments/knapen_AOT/AOT_stimuli/rescaled_final/0471_fw.mp4	0.0	360.99553179740906	0.0999901294708252
73	308.3125710487366	fix_pre	0		120	71.0	2.5	/experiments/knapen_AOT/AOT_stimuli/rescaled_final/0760_rv.mp4	0.0	361.0955219268799	1.0001239776611328
73	309.3126950263977	movie	1		242	71.0	2.5	/experiments/knapen_AOT/AOT_stimuli/rescaled_final/0760_rv.mp4	0.0	362.095645904541	2.4920949935913086
73	309.6974129676819	pulse	1	t		71.0	2.5	/experiments/knapen_AOT/AOT_stimuli/rescaled_final/0760_rv.mp4	0.0	362.4803638458252	
73	311.2965660095215	pulse	1	t		71.0	2.5	/experiments/knapen_AOT/AOT_stimuli/rescaled_final/0760_rv.mp4	0.0	364.0795168876648	
73	311.804790019989	fix_post	2		12	71.0	2.5	/experiments/knapen_AOT/AOT_stimuli/rescaled_final/0760_rv.mp4	0.0	364.5877408981323	0.09994888305664062
74	311.90473890304565	fix_pre	0		120	72.0	2.5	/experiments/knapen_AOT/AOT_stimuli/rescaled_final/0064_fw.mp4	0.0	364.68768978118896	1.0002529621124268
74	312.89679288864136	pulse	0	t		72.0	2.5	/experiments/knapen_AOT/AOT_stimuli/rescaled_final/0064_fw.mp4	0.0	365.67974376678467	
74	312.9049918651581	movie	1		247	72.0	2.5	/experiments/knapen_AOT/AOT_stimuli/rescaled_final/0064_fw.mp4	0.0	365.6879427433014	2.5087130069732666
74	314.4984118938446	pulse	1	t		72.0	2.5	/experiments/knapen_AOT/AOT_stimuli/rescaled_final/0064_fw.mp4	0.0	367.2813627719879	
74	315.41370487213135	fix_post	2		12	72.0	2.5	/experiments/knapen_AOT/AOT_stimuli/rescaled_final/0064_fw.mp4	0.0	368.19665575027466	0.09999299049377441
75	315.5136978626251	fix_pre	0		120	73.0	2.5	/experiments/knapen_AOT/AOT_stimuli/rescaled_final/0088_rv.mp4	0.0	368.29664874076843	1.000063180923462
75	316.09726190567017	pulse	0	t		73.0	2.5	/experiments/knapen_AOT/AOT_stimuli/rescaled_final/0088_rv.mp4	0.0	368.8802127838135	
75	316.5137610435486	movie	1		243	73.0	2.5	/experiments/knapen_AOT/AOT_stimuli/rescaled_final/0088_rv.mp4	0.0	369.2967119216919	2.500419855117798
75	317.6975610256195	pulse	1	t		73.0	2.5	/experiments/knapen_AOT/AOT_stimuli/rescaled_final/0088_rv.mp4	0.0	370.4805119037628	
75	319.0141808986664	fix_post	2		12	73.0	2.5	/experiments/knapen_AOT/AOT_stimuli/rescaled_final/0088_rv.mp4	0.0	371.7971317768097	0.09998011589050293
76	319.1141610145569	fix_pre	0		120	74.0	2.5	/experiments/knapen_AOT/AOT_stimuli/rescaled_final/2120_fw.mp4	0.0	371.8971118927002	1.0002319812774658
76	319.2978138923645	pulse	0	t		74.0	2.5	/experiments/knapen_AOT/AOT_stimuli/rescaled_final/2120_fw.mp4	0.0	372.0807647705078	
76	320.11439299583435	movie	1		242	74.0	2.5	/experiments/knapen_AOT/AOT_stimuli/rescaled_final/2120_fw.mp4	0.0	372.89734387397766	2.5003368854522705
76	320.8979299068451	pulse	1	t		74.0	2.5	/experiments/knapen_AOT/AOT_stimuli/rescaled_final/2120_fw.mp4	0.0	373.6808807849884	
76	322.49819684028625	pulse	1	t		74.0	2.5	/experiments/knapen_AOT/AOT_stimuli/rescaled_final/2120_fw.mp4	0.0	375.28114771842957	
76	322.6147298812866	fix_post	2		12	74.0	2.5	/experiments/knapen_AOT/AOT_stimuli/rescaled_final/2120_fw.mp4	0.0	375.39768075942993	0.09995007514953613
77	322.71467995643616	fix_pre	0		120	75.0	2.5	/experiments/knapen_AOT/AOT_stimuli/rescaled_final/2158_rv.mp4	0.0	375.49763083457947	1.0001370906829834
77	323.71481704711914	movie	1		241	75.0	2.5	/experiments/knapen_AOT/AOT_stimuli/rescaled_final/2158_rv.mp4	0.0	376.49776792526245	2.4921669960021973
77	324.09903502464294	pulse	1	t		75.0	2.5	/experiments/knapen_AOT/AOT_stimuli/rescaled_final/2158_rv.mp4	0.0	376.88198590278625	
77	325.6987190246582	pulse	1	t		75.0	2.5	/experiments/knapen_AOT/AOT_stimuli/rescaled_final/2158_rv.mp4	0.0	378.4816699028015	
77	326.20698404312134	fix_post	2		12	75.0	2.5	/experiments/knapen_AOT/AOT_stimuli/rescaled_final/2158_rv.mp4	0.0	378.98993492126465	0.09997987747192383
78	326.30696392059326	fix_pre	0		120	76.0	2.5	blank	1.0	379.0899147987366	1.0001399517059326
78	327.29891300201416	pulse	0	t		76.0	2.5	blank	1.0	380.08186388015747	
78	327.3071038722992	movie	1		301	76.0	2.5	blank	1.0	380.0900547504425	2.5086441040039062
78	328.89919805526733	pulse	1	t		76.0	2.5	blank	1.0	381.68214893341064	
78	329.8157479763031	fix_post	2		12	76.0	2.5	blank	1.0	382.5986988544464	0.10002803802490234
79	329.915776014328	fix_pre	0		120	77.0	2.5	/experiments/knapen_AOT/AOT_stimuli/rescaled_final/1581_rv.mp4	0.0	382.6987268924713	1.000201940536499
79	330.4993758201599	pulse	0	t		77.0	2.5	/experiments/knapen_AOT/AOT_stimuli/rescaled_final/1581_rv.mp4	0.0	383.2823266983032	
79	330.9159779548645	movie	1		239	77.0	2.5	/experiments/knapen_AOT/AOT_stimuli/rescaled_final/1581_rv.mp4	0.0	383.6989288330078	2.500298023223877
79	332.09969997406006	pulse	1	t		77.0	2.5	/experiments/knapen_AOT/AOT_stimuli/rescaled_final/1581_rv.mp4	0.0	384.88265085220337	
79	333.4162759780884	fix_post	2		12	77.0	2.5	/experiments/knapen_AOT/AOT_stimuli/rescaled_final/1581_rv.mp4	0.0	386.1992268562317	0.10004305839538574
80	333.51631903648376	fix_pre	0		120	78.0	2.5	/experiments/knapen_AOT/AOT_stimuli/rescaled_final/2049_fw.mp4	0.0	386.2992699146271	1.000121831893921
80	333.69223403930664	pulse	0	t		78.0	2.5	/experiments/knapen_AOT/AOT_stimuli/rescaled_final/2049_fw.mp4	0.0	386.47518491744995	
80	334.5164408683777	movie	1		242	78.0	2.5	/experiments/knapen_AOT/AOT_stimuli/rescaled_final/2049_fw.mp4	0.0	387.299391746521	2.500462055206299
80	335.29271388053894	pulse	1	t		78.0	2.5	/experiments/knapen_AOT/AOT_stimuli/rescaled_final/2049_fw.mp4	0.0	388.07566475868225	
80	336.90017104148865	pulse	1	t		78.0	2.5	/experiments/knapen_AOT/AOT_stimuli/rescaled_final/2049_fw.mp4	0.0	389.68312191963196	
80	337.016902923584	fix_post	2		12	78.0	2.5	/experiments/knapen_AOT/AOT_stimuli/rescaled_final/2049_fw.mp4	0.0	389.7998538017273	0.10001111030578613
81	337.11691403388977	fix_pre	0		120	79.0	2.5	/experiments/knapen_AOT/AOT_stimuli/rescaled_final/1205_rv.mp4	0.0	389.8998649120331	1.0000839233398438
81	338.1169979572296	movie	1		243	79.0	2.5	/experiments/knapen_AOT/AOT_stimuli/rescaled_final/1205_rv.mp4	0.0	390.8999488353729	2.492058038711548
81	338.5053930282593	pulse	1	t		79.0	2.5	/experiments/knapen_AOT/AOT_stimuli/rescaled_final/1205_rv.mp4	0.0	391.2883439064026	
81	340.09270882606506	pulse	1	t		79.0	2.5	/experiments/knapen_AOT/AOT_stimuli/rescaled_final/1205_rv.mp4	0.0	392.8756597042084	
81	340.60905599594116	fix_post	2		12	79.0	2.5	/experiments/knapen_AOT/AOT_stimuli/rescaled_final/1205_rv.mp4	0.0	393.3920068740845	0.09996891021728516
82	340.70902490615845	fix_pre	0		119	80.0	2.5	/experiments/knapen_AOT/AOT_stimuli/rescaled_final/0098_fw.mp4	0.0	393.49197578430176	0.9919180870056152
82	341.6926598548889	pulse	0	t		80.0	2.5	/experiments/knapen_AOT/AOT_stimuli/rescaled_final/0098_fw.mp4	0.0	394.4756107330322	
82	341.70094299316406	movie	1		245	80.0	2.5	/experiments/knapen_AOT/AOT_stimuli/rescaled_final/0098_fw.mp4	0.0	394.4838938713074	2.508638858795166
82	343.2935860157013	pulse	1	t		80.0	2.5	/experiments/knapen_AOT/AOT_stimuli/rescaled_final/0098_fw.mp4	0.0	396.0765368938446	
82	344.20958185195923	fix_post	2		12	80.0	2.5	/experiments/knapen_AOT/AOT_stimuli/rescaled_final/0098_fw.mp4	0.0	396.99253273010254	0.1000821590423584
83	344.3096640110016	fix_pre	0		120	81.0	2.5	/experiments/knapen_AOT/AOT_stimuli/rescaled_final/0645_fw.mp4	0.0	397.0926148891449	1.0000619888305664
83	344.89326786994934	pulse	0	t		81.0	2.5	/experiments/knapen_AOT/AOT_stimuli/rescaled_final/0645_fw.mp4	0.0	397.67621874809265	
83	345.30972599983215	movie	1		243	81.0	2.5	/experiments/knapen_AOT/AOT_stimuli/rescaled_final/0645_fw.mp4	0.0	398.09267687797546	2.5005650520324707
83	346.49355602264404	pulse	1	t		81.0	2.5	/experiments/knapen_AOT/AOT_stimuli/rescaled_final/0645_fw.mp4	0.0	399.27650690078735	
83	347.8102910518646	fix_post	2		12	81.0	2.5	/experiments/knapen_AOT/AOT_stimuli/rescaled_final/0645_fw.mp4	0.0	400.59324193000793	0.09987592697143555
84	347.91016697883606	fix_pre	0		120	82.0	2.5	/experiments/knapen_AOT/AOT_stimuli/rescaled_final/1332_rv.mp4	0.0	400.69311785697937	1.000148057937622
84	348.0935959815979	pulse	0	t		82.0	2.5	/experiments/knapen_AOT/AOT_stimuli/rescaled_final/1332_rv.mp4	0.0	400.8765468597412	
84	348.9103150367737	movie	1		242	82.0	2.5	/experiments/knapen_AOT/AOT_stimuli/rescaled_final/1332_rv.mp4	0.0	401.693265914917	2.5003979206085205
84	349.693815946579	pulse	1	t		82.0	2.5	/experiments/knapen_AOT/AOT_stimuli/rescaled_final/1332_rv.mp4	0.0	402.4767668247223	
84	351.2938618659973	pulse	1	t		82.0	2.5	/experiments/knapen_AOT/AOT_stimuli/rescaled_final/1332_rv.mp4	0.0	404.0768127441406	
84	351.4107129573822	fix_post	2		12	82.0	2.5	/experiments/knapen_AOT/AOT_stimuli/rescaled_final/1332_rv.mp4	0.0	404.1936638355255	0.09992194175720215
85	351.5106348991394	fix_pre	0		119	83.0	2.5	blank	1.0	404.2935857772827	0.9918451309204102
85	352.5024800300598	movie	1		300	83.0	2.5	blank	1.0	405.2854309082031	2.500408887863159
85	352.8945109844208	pulse	1	t		83.0	2.5	blank	1.0	405.6774618625641	
85	354.49468302726746	pulse	1	t		83.0	2.5	blank	1.0	407.27763390541077	
85	355.002888917923	fix_post	2		12	83.0	2.5	blank	1.0	407.7858397960663	0.10006999969482422
87	355.1029589176178	stim	0		1716					407.8859097957611	14.302119970321655
87	356.09484791755676	pulse	0	t						408.8777987957001	
87	357.695170879364	pulse	0	t						410.4781217575073	
87	359.29543685913086	pulse	0	t						412.07838773727417	
87	360.8956608772278	pulse	0	t						413.6786117553711	
87	362.49574089050293	pulse	0	t						415.27869176864624	
87	364.09602999687195	pulse	0	t						416.87898087501526	
87	365.6963198184967	pulse	0	t						418.47927069664	
87	367.29657793045044	pulse	0	t						420.07952880859375	
87	368.89673590660095	pulse	0	t						421.67968678474426	
