trial_nr	onset	event_type	phase	response	nr_frames	movie_index	movie_duration	movie_file	blank	onset_abs	duration
0	0.13317251205444336	stim	0		7					16.502310514450073	0.058270931243896484
0	0.18361735343933105	response	0	space						16.55275535583496	
1	0.19144344329833984	stim	0		3722					16.56058144569397	31.032854080200195
1	31.20911693572998	pulse	0	t						47.57825493812561	
1	31.224297523498535	stim	1		1715					47.593435525894165	14.299033880233765
1	32.80481004714966	pulse	1	t						49.17394804954529	
1	34.4053635597229	pulse	1	t						50.77450156211853	
1	36.005592584609985	pulse	1	t						52.374730587005615	
1	37.60586619377136	pulse	1	t						53.97500419616699	
1	39.20577573776245	pulse	1	t						55.57491374015808	
1	40.79855537414551	pulse	1	t						57.16769337654114	
1	42.39880299568176	pulse	1	t						58.76794099807739	
1	43.99970030784607	pulse	1	t						60.3688383102417	
2	45.5233314037323	fix_pre	0		10	0.0	2.5	/experiments/Knapen_AOT/AOT_stimuli/rescaled_final/0644_rv.mp4	0.0	61.89246940612793	0.09994149208068848
2	45.598963499069214	pulse	0	t		0.0	2.5	/experiments/Knapen_AOT/AOT_stimuli/rescaled_final/0644_rv.mp4	0.0	61.968101501464844	
2	45.62327289581299	movie	1		293	0.0	2.5	/experiments/Knapen_AOT/AOT_stimuli/rescaled_final/0644_rv.mp4	0.0	61.99241089820862	2.4919822216033936
2	47.19876956939697	pulse	1	t		0.0	2.5	/experiments/Knapen_AOT/AOT_stimuli/rescaled_final/0644_rv.mp4	0.0	63.5679075717926	
2	48.11525511741638	fix_post	2		12	0.0	2.5	/experiments/Knapen_AOT/AOT_stimuli/rescaled_final/0644_rv.mp4	0.0	64.48439311981201	0.1000363826751709
3	48.21529150009155	fix_pre	0		120	1.0	2.5	/experiments/Knapen_AOT/AOT_stimuli/rescaled_final/0776_fw.mp4	0.0	64.58442950248718	1.0085082054138184
3	48.798879861831665	pulse	0	t		1.0	2.5	/experiments/Knapen_AOT/AOT_stimuli/rescaled_final/0776_fw.mp4	0.0	65.1680178642273	
3	49.22379970550537	movie	1		292	1.0	2.5	/experiments/Knapen_AOT/AOT_stimuli/rescaled_final/0776_fw.mp4	0.0	65.592937707901	2.4920527935028076
3	50.39905381202698	pulse	1	t		1.0	2.5	/experiments/Knapen_AOT/AOT_stimuli/rescaled_final/0776_fw.mp4	0.0	66.76819181442261	
3	51.71585249900818	fix_post	2		12	1.0	2.5	/experiments/Knapen_AOT/AOT_stimuli/rescaled_final/0776_fw.mp4	0.0	68.08499050140381	0.09999370574951172
4	51.81584620475769	fix_pre	0		120	2.0	2.5	/experiments/Knapen_AOT/AOT_stimuli/rescaled_final/0766_rv.mp4	0.0	68.18498420715332	1.0085618495941162
4	51.99955177307129	pulse	0	t		2.0	2.5	/experiments/Knapen_AOT/AOT_stimuli/rescaled_final/0766_rv.mp4	0.0	68.36868977546692	
4	52.82440805435181	movie	1		296	2.0	2.5	/experiments/Knapen_AOT/AOT_stimuli/rescaled_final/0766_rv.mp4	0.0	69.19354605674744	2.4919490814208984
4	53.599565505981445	pulse	1	t		2.0	2.5	/experiments/Knapen_AOT/AOT_stimuli/rescaled_final/0766_rv.mp4	0.0	69.96870350837708	
4	55.19976258277893	pulse	1	t		2.0	2.5	/experiments/Knapen_AOT/AOT_stimuli/rescaled_final/0766_rv.mp4	0.0	71.56890058517456	
4	55.316357135772705	fix_post	2		12	2.0	2.5	/experiments/Knapen_AOT/AOT_stimuli/rescaled_final/0766_rv.mp4	0.0	71.68549513816833	0.10001730918884277
5	55.41637444496155	fix_pre	0		120	3.0	2.5	/experiments/Knapen_AOT/AOT_stimuli/rescaled_final/1411_rv.mp4	0.0	71.78551244735718	1.0085663795471191
5	56.42494082450867	movie	1		294	3.0	2.5	/experiments/Knapen_AOT/AOT_stimuli/rescaled_final/1411_rv.mp4	0.0	72.7940788269043	2.4919350147247314
5	56.80004858970642	pulse	1	t		3.0	2.5	/experiments/Knapen_AOT/AOT_stimuli/rescaled_final/1411_rv.mp4	0.0	73.16918659210205	
5	58.400264263153076	pulse	1	t		3.0	2.5	/experiments/Knapen_AOT/AOT_stimuli/rescaled_final/1411_rv.mp4	0.0	74.7694022655487	
5	58.9168758392334	fix_post	2		12	3.0	2.5	/experiments/Knapen_AOT/AOT_stimuli/rescaled_final/1411_rv.mp4	0.0	75.28601384162903	0.10001611709594727
6	59.016891956329346	fix_pre	0		119	4.0	2.5	/experiments/Knapen_AOT/AOT_stimuli/rescaled_final/0285_rv.mp4	0.0	75.38602995872498	1.0001752376556396
6	60.000690937042236	pulse	0	t		4.0	2.5	/experiments/Knapen_AOT/AOT_stimuli/rescaled_final/0285_rv.mp4	0.0	76.36982893943787	
6	60.017067193984985	movie	1		289	4.0	2.5	/experiments/Knapen_AOT/AOT_stimuli/rescaled_final/0285_rv.mp4	0.0	76.38620519638062	2.500417470932007
6	61.599111795425415	pulse	1	t		4.0	2.5	/experiments/Knapen_AOT/AOT_stimuli/rescaled_final/0285_rv.mp4	0.0	77.96824979782104	
6	62.51748466491699	fix_post	2		12	4.0	2.5	/experiments/Knapen_AOT/AOT_stimuli/rescaled_final/0285_rv.mp4	0.0	78.88662266731262	0.10002541542053223
7	62.617510080337524	fix_pre	0		120	5.0	2.5	/experiments/Knapen_AOT/AOT_stimuli/rescaled_final/1975_rv.mp4	0.0	78.98664808273315	1.0084130764007568
7	63.201154947280884	pulse	0	t		5.0	2.5	/experiments/Knapen_AOT/AOT_stimuli/rescaled_final/1975_rv.mp4	0.0	79.57029294967651	
7	63.62592315673828	movie	1		290	5.0	2.5	/experiments/Knapen_AOT/AOT_stimuli/rescaled_final/1975_rv.mp4	0.0	79.99506115913391	2.4920666217803955
7	64.7992172241211	pulse	1	t		5.0	2.5	/experiments/Knapen_AOT/AOT_stimuli/rescaled_final/1975_rv.mp4	0.0	81.16835522651672	
7	66.11798977851868	fix_post	2		12	5.0	2.5	/experiments/Knapen_AOT/AOT_stimuli/rescaled_final/1975_rv.mp4	0.0	82.4871277809143	0.1000363826751709
8	66.21802616119385	fix_pre	0		120	6.0	2.5	blank	1.0	82.58716416358948	1.0001375675201416
8	66.40152335166931	pulse	0	t		6.0	2.5	blank	1.0	82.77066135406494	
8	67.21816372871399	movie	1		300	6.0	2.5	blank	1.0	83.58730173110962	2.5004165172576904
8	68.0018379688263	pulse	1	t		6.0	2.5	blank	1.0	84.37097597122192	
8	69.60223627090454	pulse	1	t		6.0	2.5	blank	1.0	85.97137427330017	
8	69.71858024597168	fix_post	2		12	6.0	2.5	blank	1.0	86.08771824836731	0.10000205039978027
9	69.81858229637146	fix_pre	0		120	7.0	2.5	/experiments/Knapen_AOT/AOT_stimuli/rescaled_final/0252_fw.mp4	0.0	86.18772029876709	1.0084478855133057
9	70.82703018188477	movie	1		278	7.0	2.5	/experiments/Knapen_AOT/AOT_stimuli/rescaled_final/0252_fw.mp4	0.0	87.1961681842804	2.492032766342163
9	71.20200395584106	pulse	1	t		7.0	2.5	/experiments/Knapen_AOT/AOT_stimuli/rescaled_final/0252_fw.mp4	0.0	87.5711419582367	
9	72.8005301952362	pulse	1	t		7.0	2.5	/experiments/Knapen_AOT/AOT_stimuli/rescaled_final/0252_fw.mp4	0.0	89.16966819763184	
9	73.31906294822693	fix_post	2		12	7.0	2.5	/experiments/Knapen_AOT/AOT_stimuli/rescaled_final/0252_fw.mp4	0.0	89.68820095062256	0.10000848770141602
10	73.41907143592834	fix_pre	0		119	8.0	2.5	/experiments/Knapen_AOT/AOT_stimuli/rescaled_final/1480_fw.mp4	0.0	89.78820943832397	1.000147819519043
10	74.40280413627625	pulse	0	t		8.0	2.5	/experiments/Knapen_AOT/AOT_stimuli/rescaled_final/1480_fw.mp4	0.0	90.77194213867188	
10	74.41921925544739	movie	1		285	8.0	2.5	/experiments/Knapen_AOT/AOT_stimuli/rescaled_final/1480_fw.mp4	0.0	90.78835725784302	2.500419855117798
10	76.00147914886475	pulse	1	t		8.0	2.5	/experiments/Knapen_AOT/AOT_stimuli/rescaled_final/1480_fw.mp4	0.0	92.37061715126038	
10	76.91963911056519	fix_post	2		12	8.0	2.5	/experiments/Knapen_AOT/AOT_stimuli/rescaled_final/1480_fw.mp4	0.0	93.28877711296082	0.10001325607299805
11	77.01965236663818	fix_pre	0		120	9.0	2.5	/experiments/Knapen_AOT/AOT_stimuli/rescaled_final/1547_fw.mp4	0.0	93.38879036903381	1.0084912776947021
11	77.60325384140015	pulse	0	t		9.0	2.5	/experiments/Knapen_AOT/AOT_stimuli/rescaled_final/1547_fw.mp4	0.0	93.97239184379578	
11	78.02814364433289	movie	1		279	9.0	2.5	/experiments/Knapen_AOT/AOT_stimuli/rescaled_final/1547_fw.mp4	0.0	94.39728164672852	2.492002487182617
11	79.20361113548279	pulse	1	t		9.0	2.5	/experiments/Knapen_AOT/AOT_stimuli/rescaled_final/1547_fw.mp4	0.0	95.57274913787842	
11	80.5201461315155	fix_post	2		12	9.0	2.5	/experiments/Knapen_AOT/AOT_stimuli/rescaled_final/1547_fw.mp4	0.0	96.88928413391113	0.10002684593200684
12	80.62017297744751	fix_pre	0		120	10.0	2.5	/experiments/Knapen_AOT/AOT_stimuli/rescaled_final/1101_fw.mp4	0.0	96.98931097984314	1.0085477828979492
12	80.80369877815247	pulse	0	t		10.0	2.5	/experiments/Knapen_AOT/AOT_stimuli/rescaled_final/1101_fw.mp4	0.0	97.1728367805481	
12	81.62872076034546	movie	1		283	10.0	2.5	/experiments/Knapen_AOT/AOT_stimuli/rescaled_final/1101_fw.mp4	0.0	97.99785876274109	2.4920363426208496
12	82.40187764167786	pulse	1	t		10.0	2.5	/experiments/Knapen_AOT/AOT_stimuli/rescaled_final/1101_fw.mp4	0.0	98.77101564407349	
12	84.00220489501953	pulse	1	t		10.0	2.5	/experiments/Knapen_AOT/AOT_stimuli/rescaled_final/1101_fw.mp4	0.0	100.37134289741516	
12	84.12075710296631	fix_post	2		12	10.0	2.5	/experiments/Knapen_AOT/AOT_stimuli/rescaled_final/1101_fw.mp4	0.0	100.48989510536194	0.10002803802490234
13	84.22078514099121	fix_pre	0		120	11.0	2.5	/experiments/Knapen_AOT/AOT_stimuli/rescaled_final/2098_fw.mp4	0.0	100.58992314338684	1.0084364414215088
13	85.22922158241272	movie	1		289	11.0	2.5	/experiments/Knapen_AOT/AOT_stimuli/rescaled_final/2098_fw.mp4	0.0	101.59835958480835	2.492018222808838
13	85.60296416282654	pulse	1	t		11.0	2.5	/experiments/Knapen_AOT/AOT_stimuli/rescaled_final/2098_fw.mp4	0.0	101.97210216522217	
13	87.20273089408875	pulse	1	t		11.0	2.5	/experiments/Knapen_AOT/AOT_stimuli/rescaled_final/2098_fw.mp4	0.0	103.57186889648438	
13	87.72123980522156	fix_post	2		12	11.0	2.5	/experiments/Knapen_AOT/AOT_stimuli/rescaled_final/2098_fw.mp4	0.0	104.09037780761719	0.10000252723693848
14	87.8212423324585	fix_pre	0		119	12.0	2.5	/experiments/Knapen_AOT/AOT_stimuli/rescaled_final/1246_fw.mp4	0.0	104.19038033485413	1.0001671314239502
14	88.8049042224884	pulse	0	t		12.0	2.5	/experiments/Knapen_AOT/AOT_stimuli/rescaled_final/1246_fw.mp4	0.0	105.17404222488403	
14	88.82140946388245	movie	1		282	12.0	2.5	/experiments/Knapen_AOT/AOT_stimuli/rescaled_final/1246_fw.mp4	0.0	105.19054746627808	2.500413656234741
14	90.4037537574768	pulse	1	t		12.0	2.5	/experiments/Knapen_AOT/AOT_stimuli/rescaled_final/1246_fw.mp4	0.0	106.77289175987244	
14	91.32182312011719	fix_post	2		12	12.0	2.5	/experiments/Knapen_AOT/AOT_stimuli/rescaled_final/1246_fw.mp4	0.0	107.69096112251282	0.10002732276916504
15	91.42185044288635	fix_pre	0		120	13.0	2.5	blank	1.0	107.79098844528198	1.000110149383545
15	92.00547337532043	pulse	0	t		13.0	2.5	blank	1.0	108.37461137771606	
15	92.4219605922699	movie	1		300	13.0	2.5	blank	1.0	108.79109859466553	2.500332832336426
15	93.60575079917908	pulse	1	t		13.0	2.5	blank	1.0	109.9748888015747	
15	94.92229342460632	fix_post	2		12	13.0	2.5	blank	1.0	111.29143142700195	0.10003328323364258
16	95.02232670783997	fix_pre	0		120	14.0	2.5	/experiments/Knapen_AOT/AOT_stimuli/rescaled_final/1908_fw.mp4	0.0	111.3914647102356	1.008467197418213
16	95.2062840461731	pulse	0	t		14.0	2.5	/experiments/Knapen_AOT/AOT_stimuli/rescaled_final/1908_fw.mp4	0.0	111.57542204856873	
16	96.03079390525818	movie	1		277	14.0	2.5	/experiments/Knapen_AOT/AOT_stimuli/rescaled_final/1908_fw.mp4	0.0	112.39993190765381	2.492069721221924
16	96.80651545524597	pulse	1	t		14.0	2.5	/experiments/Knapen_AOT/AOT_stimuli/rescaled_final/1908_fw.mp4	0.0	113.1756534576416	
16	98.40430331230164	pulse	1	t		14.0	2.5	/experiments/Knapen_AOT/AOT_stimuli/rescaled_final/1908_fw.mp4	0.0	114.77344131469727	
16	98.5228636264801	fix_post	2		12	14.0	2.5	/experiments/Knapen_AOT/AOT_stimuli/rescaled_final/1908_fw.mp4	0.0	114.89200162887573	0.10004687309265137
17	98.62291049957275	fix_pre	0		120	15.0	2.5	/experiments/Knapen_AOT/AOT_stimuli/rescaled_final/0848_rv.mp4	0.0	114.99204850196838	1.008465051651001
17	99.63137555122375	movie	1		272	15.0	2.5	/experiments/Knapen_AOT/AOT_stimuli/rescaled_final/0848_rv.mp4	0.0	116.00051355361938	2.492011308670044
17	100.00457859039307	pulse	1	t		15.0	2.5	/experiments/Knapen_AOT/AOT_stimuli/rescaled_final/0848_rv.mp4	0.0	116.3737165927887	
17	101.60496497154236	pulse	1	t		15.0	2.5	/experiments/Knapen_AOT/AOT_stimuli/rescaled_final/0848_rv.mp4	0.0	117.97410297393799	
17	102.1233868598938	fix_post	2		12	15.0	2.5	/experiments/Knapen_AOT/AOT_stimuli/rescaled_final/0848_rv.mp4	0.0	118.49252486228943	0.10021352767944336
18	102.22360038757324	fix_pre	0		119	16.0	2.5	/experiments/Knapen_AOT/AOT_stimuli/rescaled_final/0343_fw.mp4	0.0	118.59273838996887	0.9999871253967285
18	103.19921135902405	pulse	0	t		16.0	2.5	/experiments/Knapen_AOT/AOT_stimuli/rescaled_final/0343_fw.mp4	0.0	119.56834936141968	
18	103.22358751296997	movie	1		289	16.0	2.5	/experiments/Knapen_AOT/AOT_stimuli/rescaled_final/0343_fw.mp4	0.0	119.5927255153656	2.500422954559326
18	104.79929399490356	pulse	1	t		16.0	2.5	/experiments/Knapen_AOT/AOT_stimuli/rescaled_final/0343_fw.mp4	0.0	121.1684319972992	
18	105.7240104675293	fix_post	2		12	16.0	2.5	/experiments/Knapen_AOT/AOT_stimuli/rescaled_final/0343_fw.mp4	0.0	122.09314846992493	0.10007977485656738
19	105.82409024238586	fix_pre	0		120	17.0	2.5	/experiments/Knapen_AOT/AOT_stimuli/rescaled_final/1430_rv.mp4	0.0	122.1932282447815	1.0084078311920166
19	106.39946103096008	pulse	0	t		17.0	2.5	/experiments/Knapen_AOT/AOT_stimuli/rescaled_final/1430_rv.mp4	0.0	122.76859903335571	
19	106.83249807357788	movie	1		287	17.0	2.5	/experiments/Knapen_AOT/AOT_stimuli/rescaled_final/1430_rv.mp4	0.0	123.20163607597351	2.4919838905334473
19	107.99968099594116	pulse	1	t		17.0	2.5	/experiments/Knapen_AOT/AOT_stimuli/rescaled_final/1430_rv.mp4	0.0	124.36881899833679	
19	109.32448196411133	fix_post	2		12	17.0	2.5	/experiments/Knapen_AOT/AOT_stimuli/rescaled_final/1430_rv.mp4	0.0	125.69361996650696	0.10017752647399902
20	109.42465949058533	fix_pre	0		120	18.0	2.5	/experiments/Knapen_AOT/AOT_stimuli/rescaled_final/0641_fw.mp4	0.0	125.79379749298096	1.0084147453308105
20	109.59982705116272	pulse	0	t		18.0	2.5	/experiments/Knapen_AOT/AOT_stimuli/rescaled_final/0641_fw.mp4	0.0	125.96896505355835	
20	110.43307423591614	movie	1		279	18.0	2.5	/experiments/Knapen_AOT/AOT_stimuli/rescaled_final/0641_fw.mp4	0.0	126.80221223831177	2.491950035095215
20	111.20084571838379	pulse	1	t		18.0	2.5	/experiments/Knapen_AOT/AOT_stimuli/rescaled_final/0641_fw.mp4	0.0	127.56998372077942	
20	112.80027484893799	pulse	1	t		18.0	2.5	/experiments/Knapen_AOT/AOT_stimuli/rescaled_final/0641_fw.mp4	0.0	129.16941285133362	
20	112.92502427101135	fix_post	2		12	18.0	2.5	/experiments/Knapen_AOT/AOT_stimuli/rescaled_final/0641_fw.mp4	0.0	129.29416227340698	0.1000967025756836
21	113.02512097358704	fix_pre	0		120	19.0	2.5	blank	1.0	129.39425897598267	1.000051736831665
21	114.0251727104187	movie	1		300	19.0	2.5	blank	1.0	130.39431071281433	2.5003669261932373
21	114.40046977996826	pulse	1	t		19.0	2.5	blank	1.0	130.7696077823639	
21	116.00078082084656	pulse	1	t		19.0	2.5	blank	1.0	132.3699188232422	
21	116.52553963661194	fix_post	2		12	19.0	2.5	blank	1.0	132.89467763900757	0.10004043579101562
22	116.62558007240295	fix_pre	0		118	20.0	2.5	/experiments/Knapen_AOT/AOT_stimuli/rescaled_final/0473_rv.mp4	0.0	132.99471807479858	0.991870641708374
22	117.60092353820801	pulse	0	t		20.0	2.5	/experiments/Knapen_AOT/AOT_stimuli/rescaled_final/0473_rv.mp4	0.0	133.97006154060364	
22	117.61745071411133	movie	1		285	20.0	2.5	/experiments/Knapen_AOT/AOT_stimuli/rescaled_final/0473_rv.mp4	0.0	133.98658871650696	2.500399589538574
22	119.19996333122253	pulse	1	t		20.0	2.5	/experiments/Knapen_AOT/AOT_stimuli/rescaled_final/0473_rv.mp4	0.0	135.56910133361816	
22	120.1178503036499	fix_post	2		12	20.0	2.5	/experiments/Knapen_AOT/AOT_stimuli/rescaled_final/0473_rv.mp4	0.0	136.48698830604553	0.09992718696594238
23	120.21777749061584	fix_pre	0		120	21.0	2.5	/experiments/Knapen_AOT/AOT_stimuli/rescaled_final/1232_fw.mp4	0.0	136.58691549301147	1.0085008144378662
23	120.80144023895264	pulse	0	t		21.0	2.5	/experiments/Knapen_AOT/AOT_stimuli/rescaled_final/1232_fw.mp4	0.0	137.17057824134827	
23	121.22627830505371	movie	1		287	21.0	2.5	/experiments/Knapen_AOT/AOT_stimuli/rescaled_final/1232_fw.mp4	0.0	137.59541630744934	2.4920151233673096
23	122.39970660209656	pulse	1	t		21.0	2.5	/experiments/Knapen_AOT/AOT_stimuli/rescaled_final/1232_fw.mp4	0.0	138.7688446044922	
23	123.71829342842102	fix_post	2		12	21.0	2.5	/experiments/Knapen_AOT/AOT_stimuli/rescaled_final/1232_fw.mp4	0.0	140.08743143081665	0.10002589225769043
24	123.81831932067871	fix_pre	0		120	22.0	2.5	/experiments/Knapen_AOT/AOT_stimuli/rescaled_final/2169_fw.mp4	0.0	140.18745732307434	1.008526086807251
24	124.00192666053772	pulse	0	t		22.0	2.5	/experiments/Knapen_AOT/AOT_stimuli/rescaled_final/2169_fw.mp4	0.0	140.37106466293335	
24	124.82684540748596	movie	1		281	22.0	2.5	/experiments/Knapen_AOT/AOT_stimuli/rescaled_final/2169_fw.mp4	0.0	141.1959834098816	2.4919943809509277
24	125.6000235080719	pulse	1	t		22.0	2.5	/experiments/Knapen_AOT/AOT_stimuli/rescaled_final/2169_fw.mp4	0.0	141.96916151046753	
24	127.20056772232056	pulse	1	t		22.0	2.5	/experiments/Knapen_AOT/AOT_stimuli/rescaled_final/2169_fw.mp4	0.0	143.5697057247162	
24	127.31883978843689	fix_post	2		12	22.0	2.5	/experiments/Knapen_AOT/AOT_stimuli/rescaled_final/2169_fw.mp4	0.0	143.68797779083252	0.10003042221069336
25	127.41887021064758	fix_pre	0		120	23.0	2.5	/experiments/Knapen_AOT/AOT_stimuli/rescaled_final/1097_rv.mp4	0.0	143.7880082130432	1.0084972381591797
25	128.42736744880676	movie	1		286	23.0	2.5	/experiments/Knapen_AOT/AOT_stimuli/rescaled_final/1097_rv.mp4	0.0	144.7965054512024	2.4920668601989746
25	128.80063581466675	pulse	1	t		23.0	2.5	/experiments/Knapen_AOT/AOT_stimuli/rescaled_final/1097_rv.mp4	0.0	145.16977381706238	
25	130.4031240940094	pulse	1	t		23.0	2.5	/experiments/Knapen_AOT/AOT_stimuli/rescaled_final/1097_rv.mp4	0.0	146.77226209640503	
25	130.91943430900574	fix_post	2		12	23.0	2.5	/experiments/Knapen_AOT/AOT_stimuli/rescaled_final/1097_rv.mp4	0.0	147.28857231140137	0.09996485710144043
26	131.01939916610718	fix_pre	0		119	24.0	2.5	/experiments/Knapen_AOT/AOT_stimuli/rescaled_final/1675_rv.mp4	0.0	147.3885371685028	1.0001368522644043
26	132.00310134887695	pulse	0	t		24.0	2.5	/experiments/Knapen_AOT/AOT_stimuli/rescaled_final/1675_rv.mp4	0.0	148.37223935127258	
26	132.01953601837158	movie	1		292	24.0	2.5	/experiments/Knapen_AOT/AOT_stimuli/rescaled_final/1675_rv.mp4	0.0	148.3886740207672	2.5004005432128906
26	133.6017565727234	pulse	1	t		24.0	2.5	/experiments/Knapen_AOT/AOT_stimuli/rescaled_final/1675_rv.mp4	0.0	149.97089457511902	
26	134.51993656158447	fix_post	2		12	24.0	2.5	/experiments/Knapen_AOT/AOT_stimuli/rescaled_final/1675_rv.mp4	0.0	150.8890745639801	0.09999370574951172
27	134.61993026733398	fix_pre	0		120	25.0	2.5	/experiments/Knapen_AOT/AOT_stimuli/rescaled_final/1810_fw.mp4	0.0	150.98906826972961	1.0085217952728271
27	135.2037479877472	pulse	0	t		25.0	2.5	/experiments/Knapen_AOT/AOT_stimuli/rescaled_final/1810_fw.mp4	0.0	151.57288599014282	
27	135.6284520626068	movie	1		276	25.0	2.5	/experiments/Knapen_AOT/AOT_stimuli/rescaled_final/1810_fw.mp4	0.0	151.99759006500244	2.4920294284820557
27	136.80207014083862	pulse	1	t		25.0	2.5	/experiments/Knapen_AOT/AOT_stimuli/rescaled_final/1810_fw.mp4	0.0	153.17120814323425	
27	138.12048149108887	fix_post	2		12	25.0	2.5	/experiments/Knapen_AOT/AOT_stimuli/rescaled_final/1810_fw.mp4	0.0	154.4896194934845	0.10001277923583984
28	138.2204942703247	fix_pre	0		120	26.0	2.5	/experiments/Knapen_AOT/AOT_stimuli/rescaled_final/0198_rv.mp4	0.0	154.58963227272034	1.0084950923919678
28	138.40419578552246	pulse	0	t		26.0	2.5	/experiments/Knapen_AOT/AOT_stimuli/rescaled_final/0198_rv.mp4	0.0	154.7733337879181	
28	139.22898936271667	movie	1		288	26.0	2.5	/experiments/Knapen_AOT/AOT_stimuli/rescaled_final/0198_rv.mp4	0.0	155.5981273651123	2.4920172691345215
28	140.00237917900085	pulse	1	t		26.0	2.5	/experiments/Knapen_AOT/AOT_stimuli/rescaled_final/0198_rv.mp4	0.0	156.37151718139648	
28	141.60285639762878	pulse	1	t		26.0	2.5	/experiments/Knapen_AOT/AOT_stimuli/rescaled_final/0198_rv.mp4	0.0	157.9719944000244	
28	141.7210066318512	fix_post	2		12	26.0	2.5	/experiments/Knapen_AOT/AOT_stimuli/rescaled_final/0198_rv.mp4	0.0	158.09014463424683	0.10000753402709961
29	141.8210141658783	fix_pre	0		120	27.0	2.5	/experiments/Knapen_AOT/AOT_stimuli/rescaled_final/1173_fw.mp4	0.0	158.19015216827393	1.0085771083831787
29	142.82959127426147	movie	1		282	27.0	2.5	/experiments/Knapen_AOT/AOT_stimuli/rescaled_final/1173_fw.mp4	0.0	159.1987292766571	2.4919629096984863
29	143.20305705070496	pulse	1	t		27.0	2.5	/experiments/Knapen_AOT/AOT_stimuli/rescaled_final/1173_fw.mp4	0.0	159.5721950531006	
29	144.80322694778442	pulse	1	t		27.0	2.5	/experiments/Knapen_AOT/AOT_stimuli/rescaled_final/1173_fw.mp4	0.0	161.17236495018005	
29	145.32155418395996	fix_post	2		12	27.0	2.5	/experiments/Knapen_AOT/AOT_stimuli/rescaled_final/1173_fw.mp4	0.0	161.6906921863556	0.10007786750793457
30	145.4216320514679	fix_pre	0		119	28.0	2.5	blank	1.0	161.79077005386353	0.9917631149291992
30	146.40533590316772	pulse	0	t		28.0	2.5	blank	1.0	162.77447390556335	
30	146.4133951663971	movie	1		301	28.0	2.5	blank	1.0	162.78253316879272	2.5087008476257324
30	148.00553679466248	pulse	1	t		28.0	2.5	blank	1.0	164.3746747970581	
30	148.92209601402283	fix_post	2		12	28.0	2.5	blank	1.0	165.29123401641846	0.10001754760742188
31	149.02211356163025	fix_pre	0		120	29.0	2.5	/experiments/Knapen_AOT/AOT_stimuli/rescaled_final/1530_rv.mp4	0.0	165.39125156402588	1.0086121559143066
31	149.60571122169495	pulse	0	t		29.0	2.5	/experiments/Knapen_AOT/AOT_stimuli/rescaled_final/1530_rv.mp4	0.0	165.97484922409058	
31	150.03072571754456	movie	1		289	29.0	2.5	/experiments/Knapen_AOT/AOT_stimuli/rescaled_final/1530_rv.mp4	0.0	166.39986371994019	2.491905450820923
31	151.2043697834015	pulse	1	t		29.0	2.5	/experiments/Knapen_AOT/AOT_stimuli/rescaled_final/1530_rv.mp4	0.0	167.57350778579712	
31	152.52263116836548	fix_post	2		12	29.0	2.5	/experiments/Knapen_AOT/AOT_stimuli/rescaled_final/1530_rv.mp4	0.0	168.8917691707611	0.10013604164123535
32	152.6227672100067	fix_pre	0		120	30.0	2.5	/experiments/Knapen_AOT/AOT_stimuli/rescaled_final/1246_rv.mp4	0.0	168.99190521240234	1.0084118843078613
32	152.8063187599182	pulse	0	t		30.0	2.5	/experiments/Knapen_AOT/AOT_stimuli/rescaled_final/1246_rv.mp4	0.0	169.17545676231384	
32	153.63117909431458	movie	1		285	30.0	2.5	/experiments/Knapen_AOT/AOT_stimuli/rescaled_final/1246_rv.mp4	0.0	170.0003170967102	2.4920356273651123
32	154.40447854995728	pulse	1	t		30.0	2.5	/experiments/Knapen_AOT/AOT_stimuli/rescaled_final/1246_rv.mp4	0.0	170.7736165523529	
32	155.9986617565155	pulse	1	t		30.0	2.5	/experiments/Knapen_AOT/AOT_stimuli/rescaled_final/1246_rv.mp4	0.0	172.36779975891113	
32	156.1232147216797	fix_post	2		12	30.0	2.5	/experiments/Knapen_AOT/AOT_stimuli/rescaled_final/1246_rv.mp4	0.0	172.49235272407532	0.10001921653747559
33	156.22323393821716	fix_pre	0		120	31.0	2.5	/experiments/Knapen_AOT/AOT_stimuli/rescaled_final/2169_fw.mp4	0.0	172.5923719406128	1.0084710121154785
33	157.23170495033264	movie	1		286	31.0	2.5	/experiments/Knapen_AOT/AOT_stimuli/rescaled_final/2169_fw.mp4	0.0	173.60084295272827	2.4920151233673096
33	157.59881496429443	pulse	1	t		31.0	2.5	/experiments/Knapen_AOT/AOT_stimuli/rescaled_final/2169_fw.mp4	0.0	173.96795296669006	
33	159.19893789291382	pulse	1	t		31.0	2.5	/experiments/Knapen_AOT/AOT_stimuli/rescaled_final/2169_fw.mp4	0.0	175.56807589530945	
33	159.72372007369995	fix_post	2		12	31.0	2.5	/experiments/Knapen_AOT/AOT_stimuli/rescaled_final/2169_fw.mp4	0.0	176.09285807609558	0.10003089904785156
34	159.8237509727478	fix_pre	0		118	32.0	2.5	/experiments/Knapen_AOT/AOT_stimuli/rescaled_final/2174_fw.mp4	0.0	176.19288897514343	0.9918029308319092
34	160.79919576644897	pulse	0	t		32.0	2.5	/experiments/Knapen_AOT/AOT_stimuli/rescaled_final/2174_fw.mp4	0.0	177.1683337688446	
34	160.8155539035797	movie	1		286	32.0	2.5	/experiments/Knapen_AOT/AOT_stimuli/rescaled_final/2174_fw.mp4	0.0	177.18469190597534	2.5003621578216553
34	162.3994619846344	pulse	1	t		32.0	2.5	/experiments/Knapen_AOT/AOT_stimuli/rescaled_final/2174_fw.mp4	0.0	178.76859998703003	
34	163.31591606140137	fix_post	2		12	32.0	2.5	/experiments/Knapen_AOT/AOT_stimuli/rescaled_final/2174_fw.mp4	0.0	179.685054063797	0.10014057159423828
35	163.4160566329956	fix_pre	0		120	33.0	2.5	blank	1.0	179.78519463539124	1.0000414848327637
35	163.9998745918274	pulse	0	t		33.0	2.5	blank	1.0	180.36901259422302	
35	164.41609811782837	movie	1		300	33.0	2.5	blank	1.0	180.785236120224	2.5003626346588135
35	165.5998616218567	pulse	1	t		33.0	2.5	blank	1.0	181.96899962425232	
35	166.91646075248718	fix_post	2		12	33.0	2.5	blank	1.0	183.2855987548828	0.10002660751342773
36	167.0164873600006	fix_pre	0		120	34.0	2.5	/experiments/Knapen_AOT/AOT_stimuli/rescaled_final/1855_rv.mp4	0.0	183.38562536239624	1.008486270904541
36	167.20007610321045	pulse	0	t		34.0	2.5	/experiments/Knapen_AOT/AOT_stimuli/rescaled_final/1855_rv.mp4	0.0	183.56921410560608	
36	168.02497363090515	movie	1		278	34.0	2.5	/experiments/Knapen_AOT/AOT_stimuli/rescaled_final/1855_rv.mp4	0.0	184.39411163330078	2.4920284748077393
36	168.80030179023743	pulse	1	t		34.0	2.5	/experiments/Knapen_AOT/AOT_stimuli/rescaled_final/1855_rv.mp4	0.0	185.16943979263306	
36	170.39864349365234	pulse	1	t		34.0	2.5	/experiments/Knapen_AOT/AOT_stimuli/rescaled_final/1855_rv.mp4	0.0	186.76778149604797	
36	170.5170021057129	fix_post	2		12	34.0	2.5	/experiments/Knapen_AOT/AOT_stimuli/rescaled_final/1855_rv.mp4	0.0	186.88614010810852	0.1000204086303711
37	170.61702251434326	fix_pre	0		120	35.0	2.5	/experiments/Knapen_AOT/AOT_stimuli/rescaled_final/0048_rv.mp4	0.0	186.9861605167389	1.0085206031799316
37	171.6255431175232	movie	1		279	35.0	2.5	/experiments/Knapen_AOT/AOT_stimuli/rescaled_final/0048_rv.mp4	0.0	187.99468111991882	2.492018461227417
37	172.0003821849823	pulse	1	t		35.0	2.5	/experiments/Knapen_AOT/AOT_stimuli/rescaled_final/0048_rv.mp4	0.0	188.36952018737793	
37	173.59920954704285	pulse	1	t		35.0	2.5	/experiments/Knapen_AOT/AOT_stimuli/rescaled_final/0048_rv.mp4	0.0	189.96834754943848	
37	174.1175615787506	fix_post	2		12	35.0	2.5	/experiments/Knapen_AOT/AOT_stimuli/rescaled_final/0048_rv.mp4	0.0	190.48669958114624	0.10000300407409668
38	174.2175645828247	fix_pre	0		119	36.0	2.5	/experiments/Knapen_AOT/AOT_stimuli/rescaled_final/1914_rv.mp4	0.0	190.58670258522034	1.0001499652862549
38	175.20126295089722	pulse	0	t		36.0	2.5	/experiments/Knapen_AOT/AOT_stimuli/rescaled_final/1914_rv.mp4	0.0	191.57040095329285	
38	175.21771454811096	movie	1		283	36.0	2.5	/experiments/Knapen_AOT/AOT_stimuli/rescaled_final/1914_rv.mp4	0.0	191.5868525505066	2.500385046005249
38	176.80075025558472	pulse	1	t		36.0	2.5	/experiments/Knapen_AOT/AOT_stimuli/rescaled_final/1914_rv.mp4	0.0	193.16988825798035	
38	177.7180995941162	fix_post	2		12	36.0	2.5	/experiments/Knapen_AOT/AOT_stimuli/rescaled_final/1914_rv.mp4	0.0	194.08723759651184	0.10003256797790527
39	177.81813216209412	fix_pre	0		120	37.0	2.5	/experiments/Knapen_AOT/AOT_stimuli/rescaled_final/0046_rv.mp4	0.0	194.18727016448975	1.0084562301635742
39	178.40184497833252	pulse	0	t		37.0	2.5	/experiments/Knapen_AOT/AOT_stimuli/rescaled_final/0046_rv.mp4	0.0	194.77098298072815	
39	178.8265883922577	movie	1		274	37.0	2.5	/experiments/Knapen_AOT/AOT_stimuli/rescaled_final/0046_rv.mp4	0.0	195.19572639465332	2.492048501968384
39	179.99995493888855	pulse	1	t		37.0	2.5	/experiments/Knapen_AOT/AOT_stimuli/rescaled_final/0046_rv.mp4	0.0	196.36909294128418	
39	181.31863689422607	fix_post	2		12	37.0	2.5	/experiments/Knapen_AOT/AOT_stimuli/rescaled_final/0046_rv.mp4	0.0	197.6877748966217	0.10016393661499023
40	181.41880083084106	fix_pre	0		120	38.0	2.5	/experiments/Knapen_AOT/AOT_stimuli/rescaled_final/1782_rv.mp4	0.0	197.7879388332367	1.0083415508270264
40	181.60222387313843	pulse	0	t		38.0	2.5	/experiments/Knapen_AOT/AOT_stimuli/rescaled_final/1782_rv.mp4	0.0	197.97136187553406	
40	182.4271423816681	movie	1		284	38.0	2.5	/experiments/Knapen_AOT/AOT_stimuli/rescaled_final/1782_rv.mp4	0.0	198.79628038406372	2.4920270442962646
40	183.20089840888977	pulse	1	t		38.0	2.5	/experiments/Knapen_AOT/AOT_stimuli/rescaled_final/1782_rv.mp4	0.0	199.5700364112854	
40	184.80083012580872	pulse	1	t		38.0	2.5	/experiments/Knapen_AOT/AOT_stimuli/rescaled_final/1782_rv.mp4	0.0	201.16996812820435	
40	184.91916942596436	fix_post	2		12	38.0	2.5	/experiments/Knapen_AOT/AOT_stimuli/rescaled_final/1782_rv.mp4	0.0	201.28830742835999	0.1000521183013916
41	185.01922154426575	fix_pre	0		120	39.0	2.5	/experiments/Knapen_AOT/AOT_stimuli/rescaled_final/1363_rv.mp4	0.0	201.38835954666138	1.0084452629089355
41	186.02766680717468	movie	1		274	39.0	2.5	/experiments/Knapen_AOT/AOT_stimuli/rescaled_final/1363_rv.mp4	0.0	202.3968048095703	2.4920670986175537
41	186.4009189605713	pulse	1	t		39.0	2.5	/experiments/Knapen_AOT/AOT_stimuli/rescaled_final/1363_rv.mp4	0.0	202.77005696296692	
41	188.00157809257507	pulse	1	t		39.0	2.5	/experiments/Knapen_AOT/AOT_stimuli/rescaled_final/1363_rv.mp4	0.0	204.3707160949707	
41	188.51973390579224	fix_post	2		12	39.0	2.5	/experiments/Knapen_AOT/AOT_stimuli/rescaled_final/1363_rv.mp4	0.0	204.88887190818787	0.09999704360961914
42	188.61973094940186	fix_pre	0		119	40.0	2.5	/experiments/Knapen_AOT/AOT_stimuli/rescaled_final/2129_rv.mp4	0.0	204.98886895179749	1.0001583099365234
42	189.60358428955078	pulse	0	t		40.0	2.5	/experiments/Knapen_AOT/AOT_stimuli/rescaled_final/2129_rv.mp4	0.0	205.9727222919464	
42	189.61988925933838	movie	1		278	40.0	2.5	/experiments/Knapen_AOT/AOT_stimuli/rescaled_final/2129_rv.mp4	0.0	205.989027261734	2.5003931522369385
42	191.20229864120483	pulse	1	t		40.0	2.5	/experiments/Knapen_AOT/AOT_stimuli/rescaled_final/2129_rv.mp4	0.0	207.57143664360046	
42	192.12028241157532	fix_post	2		12	40.0	2.5	/experiments/Knapen_AOT/AOT_stimuli/rescaled_final/2129_rv.mp4	0.0	208.48942041397095	0.09998846054077148
43	192.2202708721161	fix_pre	0		120	41.0	2.5	/experiments/Knapen_AOT/AOT_stimuli/rescaled_final/1147_fw.mp4	0.0	208.58940887451172	1.008476972579956
43	192.80401968955994	pulse	0	t		41.0	2.5	/experiments/Knapen_AOT/AOT_stimuli/rescaled_final/1147_fw.mp4	0.0	209.17315769195557	
43	193.22874784469604	movie	1		287	41.0	2.5	/experiments/Knapen_AOT/AOT_stimuli/rescaled_final/1147_fw.mp4	0.0	209.59788584709167	2.492062568664551
43	194.4023735523224	pulse	1	t		41.0	2.5	/experiments/Knapen_AOT/AOT_stimuli/rescaled_final/1147_fw.mp4	0.0	210.77151155471802	
43	195.7208104133606	fix_post	2		12	41.0	2.5	/experiments/Knapen_AOT/AOT_stimuli/rescaled_final/1147_fw.mp4	0.0	212.08994841575623	0.10000872611999512
44	195.8208191394806	fix_pre	0		120	42.0	2.5	blank	1.0	212.18995714187622	1.0001769065856934
44	196.00462102890015	pulse	0	t		42.0	2.5	blank	1.0	212.37375903129578	
44	196.82099604606628	movie	1		300	42.0	2.5	blank	1.0	213.1901340484619	2.5003345012664795
44	197.60490345954895	pulse	1	t		42.0	2.5	blank	1.0	213.97404146194458	
44	199.20520687103271	pulse	1	t		42.0	2.5	blank	1.0	215.57434487342834	
44	199.32133054733276	fix_post	2		12	42.0	2.5	blank	1.0	215.6904685497284	0.10007619857788086
45	199.42140674591064	fix_pre	0		120	43.0	2.5	/experiments/Knapen_AOT/AOT_stimuli/rescaled_final/0146_fw.mp4	0.0	215.79054474830627	1.0084941387176514
45	200.4299008846283	movie	1		273	43.0	2.5	/experiments/Knapen_AOT/AOT_stimuli/rescaled_final/0146_fw.mp4	0.0	216.79903888702393	2.4919798374176025
45	200.80446553230286	pulse	1	t		43.0	2.5	/experiments/Knapen_AOT/AOT_stimuli/rescaled_final/0146_fw.mp4	0.0	217.1736035346985	
45	202.40408968925476	pulse	1	t		43.0	2.5	/experiments/Knapen_AOT/AOT_stimuli/rescaled_final/0146_fw.mp4	0.0	218.7732276916504	
45	202.9218807220459	fix_post	2		12	43.0	2.5	/experiments/Knapen_AOT/AOT_stimuli/rescaled_final/0146_fw.mp4	0.0	219.29101872444153	0.10005068778991699
46	203.02193140983582	fix_pre	0		119	44.0	2.5	/experiments/Knapen_AOT/AOT_stimuli/rescaled_final/1771_fw.mp4	0.0	219.39106941223145	1.0001065731048584
46	204.00570368766785	pulse	0	t		44.0	2.5	/experiments/Knapen_AOT/AOT_stimuli/rescaled_final/1771_fw.mp4	0.0	220.37484169006348	
46	204.02203798294067	movie	1		273	44.0	2.5	/experiments/Knapen_AOT/AOT_stimuli/rescaled_final/1771_fw.mp4	0.0	220.3911759853363	2.5003795623779297
46	205.6048448085785	pulse	1	t		44.0	2.5	/experiments/Knapen_AOT/AOT_stimuli/rescaled_final/1771_fw.mp4	0.0	221.97398281097412	
46	206.5224175453186	fix_post	2		12	44.0	2.5	/experiments/Knapen_AOT/AOT_stimuli/rescaled_final/1771_fw.mp4	0.0	222.89155554771423	0.10002827644348145
47	206.62244582176208	fix_pre	0		120	45.0	2.5	/experiments/Knapen_AOT/AOT_stimuli/rescaled_final/1530_rv.mp4	0.0	222.99158382415771	1.0084962844848633
47	207.20613026618958	pulse	0	t		45.0	2.5	/experiments/Knapen_AOT/AOT_stimuli/rescaled_final/1530_rv.mp4	0.0	223.5752682685852	
47	207.63094210624695	movie	1		284	45.0	2.5	/experiments/Knapen_AOT/AOT_stimuli/rescaled_final/1530_rv.mp4	0.0	224.00008010864258	2.492036819458008
47	208.80495285987854	pulse	1	t		45.0	2.5	/experiments/Knapen_AOT/AOT_stimuli/rescaled_final/1530_rv.mp4	0.0	225.17409086227417	
47	210.12297892570496	fix_post	2		12	45.0	2.5	/experiments/Knapen_AOT/AOT_stimuli/rescaled_final/1530_rv.mp4	0.0	226.4921169281006	0.10006237030029297
48	210.22304129600525	fix_pre	0		120	46.0	2.5	/experiments/Knapen_AOT/AOT_stimuli/rescaled_final/1993_fw.mp4	0.0	226.59217929840088	1.0084550380706787
48	210.39896178245544	pulse	0	t		46.0	2.5	/experiments/Knapen_AOT/AOT_stimuli/rescaled_final/1993_fw.mp4	0.0	226.76809978485107	
48	211.23149633407593	movie	1		276	46.0	2.5	/experiments/Knapen_AOT/AOT_stimuli/rescaled_final/1993_fw.mp4	0.0	227.60063433647156	2.492058277130127
48	212.00522303581238	pulse	1	t		46.0	2.5	/experiments/Knapen_AOT/AOT_stimuli/rescaled_final/1993_fw.mp4	0.0	228.374361038208	
48	213.59903931617737	pulse	1	t		46.0	2.5	/experiments/Knapen_AOT/AOT_stimuli/rescaled_final/1993_fw.mp4	0.0	229.968177318573	
48	213.72355461120605	fix_post	2		12	46.0	2.5	/experiments/Knapen_AOT/AOT_stimuli/rescaled_final/1993_fw.mp4	0.0	230.09269261360168	0.09996294975280762
49	213.82351756095886	fix_pre	0		120	47.0	2.5	/experiments/Knapen_AOT/AOT_stimuli/rescaled_final/1421_fw.mp4	0.0	230.1926555633545	1.0085124969482422
49	214.8320300579071	movie	1		272	47.0	2.5	/experiments/Knapen_AOT/AOT_stimuli/rescaled_final/1421_fw.mp4	0.0	231.20116806030273	2.4920437335968018
49	215.19903993606567	pulse	1	t		47.0	2.5	/experiments/Knapen_AOT/AOT_stimuli/rescaled_final/1421_fw.mp4	0.0	231.5681779384613	
49	216.79920411109924	pulse	1	t		47.0	2.5	/experiments/Knapen_AOT/AOT_stimuli/rescaled_final/1421_fw.mp4	0.0	233.16834211349487	
49	217.3240737915039	fix_post	2		12	47.0	2.5	/experiments/Knapen_AOT/AOT_stimuli/rescaled_final/1421_fw.mp4	0.0	233.69321179389954	0.10002565383911133
50	217.42409944534302	fix_pre	0		103	48.0	2.5	blank	1.0	233.79323744773865	0.9834015369415283
50	218.3994734287262	pulse	0	t		48.0	2.5	blank	1.0	234.76861143112183	
50	218.40750098228455	movie	1		301	48.0	2.5	blank	1.0	234.77663898468018	2.5087485313415527
50	219.99964785575867	pulse	1	t		48.0	2.5	blank	1.0	236.3687858581543	
50	220.9162495136261	fix_post	2		12	48.0	2.5	blank	1.0	237.28538751602173	0.10005521774291992
51	221.01630473136902	fix_pre	0		120	49.0	2.5	/experiments/Knapen_AOT/AOT_stimuli/rescaled_final/0111_fw.mp4	0.0	237.38544273376465	1.0084826946258545
51	221.60010194778442	pulse	0	t		49.0	2.5	/experiments/Knapen_AOT/AOT_stimuli/rescaled_final/0111_fw.mp4	0.0	237.96923995018005	
51	222.02478742599487	movie	1		287	49.0	2.5	/experiments/Knapen_AOT/AOT_stimuli/rescaled_final/0111_fw.mp4	0.0	238.3939254283905	2.4920201301574707
51	223.20016503334045	pulse	1	t		49.0	2.5	/experiments/Knapen_AOT/AOT_stimuli/rescaled_final/0111_fw.mp4	0.0	239.56930303573608	
51	224.51680755615234	fix_post	2		12	49.0	2.5	/experiments/Knapen_AOT/AOT_stimuli/rescaled_final/0111_fw.mp4	0.0	240.88594555854797	0.0999910831451416
52	224.61679863929749	fix_pre	0		120	50.0	2.5	/experiments/Knapen_AOT/AOT_stimuli/rescaled_final/1675_fw.mp4	0.0	240.98593664169312	1.0085279941558838
52	224.80038404464722	pulse	0	t		50.0	2.5	/experiments/Knapen_AOT/AOT_stimuli/rescaled_final/1675_fw.mp4	0.0	241.16952204704285	
52	225.62532663345337	movie	1		285	50.0	2.5	/experiments/Knapen_AOT/AOT_stimuli/rescaled_final/1675_fw.mp4	0.0	241.994464635849	2.4920191764831543
52	226.4006130695343	pulse	1	t		50.0	2.5	/experiments/Knapen_AOT/AOT_stimuli/rescaled_final/1675_fw.mp4	0.0	242.76975107192993	
52	227.99922132492065	pulse	1	t		50.0	2.5	/experiments/Knapen_AOT/AOT_stimuli/rescaled_final/1675_fw.mp4	0.0	244.36835932731628	
52	228.11734580993652	fix_post	2		12	50.0	2.5	/experiments/Knapen_AOT/AOT_stimuli/rescaled_final/1675_fw.mp4	0.0	244.48648381233215	0.10000014305114746
53	228.21734595298767	fix_pre	0		120	51.0	2.5	/experiments/Knapen_AOT/AOT_stimuli/rescaled_final/0729_fw.mp4	0.0	244.5864839553833	1.0084991455078125
53	229.22584509849548	movie	1		284	51.0	2.5	/experiments/Knapen_AOT/AOT_stimuli/rescaled_final/0729_fw.mp4	0.0	245.5949831008911	2.4920578002929688
53	229.5993800163269	pulse	1	t		51.0	2.5	/experiments/Knapen_AOT/AOT_stimuli/rescaled_final/0729_fw.mp4	0.0	245.96851801872253	
53	231.19906377792358	pulse	1	t		51.0	2.5	/experiments/Knapen_AOT/AOT_stimuli/rescaled_final/0729_fw.mp4	0.0	247.5682017803192	
53	231.71790289878845	fix_post	2		12	51.0	2.5	/experiments/Knapen_AOT/AOT_stimuli/rescaled_final/0729_fw.mp4	0.0	248.08704090118408	0.09998631477355957
54	231.817889213562	fix_pre	0		119	52.0	2.5	/experiments/Knapen_AOT/AOT_stimuli/rescaled_final/1830_rv.mp4	0.0	248.18702721595764	1.0001709461212158
54	232.8015820980072	pulse	0	t		52.0	2.5	/experiments/Knapen_AOT/AOT_stimuli/rescaled_final/1830_rv.mp4	0.0	249.17072010040283	
54	232.81806015968323	movie	1		280	52.0	2.5	/experiments/Knapen_AOT/AOT_stimuli/rescaled_final/1830_rv.mp4	0.0	249.18719816207886	2.500366449356079
54	234.40021204948425	pulse	1	t		52.0	2.5	/experiments/Knapen_AOT/AOT_stimuli/rescaled_final/1830_rv.mp4	0.0	250.76935005187988	
54	235.3184266090393	fix_post	2		12	52.0	2.5	/experiments/Knapen_AOT/AOT_stimuli/rescaled_final/1830_rv.mp4	0.0	251.68756461143494	0.10000491142272949
55	235.41843152046204	fix_pre	0		120	53.0	2.5	/experiments/Knapen_AOT/AOT_stimuli/rescaled_final/0647_rv.mp4	0.0	251.78756952285767	1.0084750652313232
55	236.00211238861084	pulse	0	t		53.0	2.5	/experiments/Knapen_AOT/AOT_stimuli/rescaled_final/0647_rv.mp4	0.0	252.37125039100647	
55	236.42690658569336	movie	1		287	53.0	2.5	/experiments/Knapen_AOT/AOT_stimuli/rescaled_final/0647_rv.mp4	0.0	252.796044588089	2.4920754432678223
55	237.60038685798645	pulse	1	t		53.0	2.5	/experiments/Knapen_AOT/AOT_stimuli/rescaled_final/0647_rv.mp4	0.0	253.96952486038208	
55	238.91898202896118	fix_post	2		12	53.0	2.5	/experiments/Knapen_AOT/AOT_stimuli/rescaled_final/0647_rv.mp4	0.0	255.2881200313568	0.09998631477355957
56	239.01896834373474	fix_pre	0		120	54.0	2.5	/experiments/Knapen_AOT/AOT_stimuli/rescaled_final/1771_rv.mp4	0.0	255.38810634613037	1.00846529006958
56	239.2025430202484	pulse	0	t		54.0	2.5	/experiments/Knapen_AOT/AOT_stimuli/rescaled_final/1771_rv.mp4	0.0	255.57168102264404	
56	240.02743363380432	movie	1		281	54.0	2.5	/experiments/Knapen_AOT/AOT_stimuli/rescaled_final/1771_rv.mp4	0.0	256.39657163619995	2.492091178894043
56	240.80092024803162	pulse	1	t		54.0	2.5	/experiments/Knapen_AOT/AOT_stimuli/rescaled_final/1771_rv.mp4	0.0	257.17005825042725	
56	242.40117764472961	pulse	1	t		54.0	2.5	/experiments/Knapen_AOT/AOT_stimuli/rescaled_final/1771_rv.mp4	0.0	258.77031564712524	
56	242.51952481269836	fix_post	2		12	54.0	2.5	/experiments/Knapen_AOT/AOT_stimuli/rescaled_final/1771_rv.mp4	0.0	258.888662815094	0.10009598731994629
57	242.6196208000183	fix_pre	0		120	55.0	2.5	blank	1.0	258.98875880241394	1.000067949295044
57	243.61968874931335	movie	1		300	55.0	2.5	blank	1.0	259.988826751709	2.500450849533081
57	244.00327324867249	pulse	1	t		55.0	2.5	blank	1.0	260.3724112510681	
57	245.60353994369507	pulse	1	t		55.0	2.5	blank	1.0	261.9726779460907	
57	246.12013959884644	fix_post	2		12	55.0	2.5	blank	1.0	262.48927760124207	0.09991216659545898
58	246.2200517654419	fix_pre	0		119	56.0	2.5	/experiments/Knapen_AOT/AOT_stimuli/rescaled_final/0296_rv.mp4	0.0	262.5891897678375	1.0004034042358398
58	247.20376014709473	pulse	0	t		56.0	2.5	/experiments/Knapen_AOT/AOT_stimuli/rescaled_final/0296_rv.mp4	0.0	263.57289814949036	
58	247.22045516967773	movie	1		288	56.0	2.5	/experiments/Knapen_AOT/AOT_stimuli/rescaled_final/0296_rv.mp4	0.0	263.58959317207336	2.5001208782196045
58	248.8026168346405	pulse	1	t		56.0	2.5	/experiments/Knapen_AOT/AOT_stimuli/rescaled_final/0296_rv.mp4	0.0	265.17175483703613	
58	249.72057604789734	fix_post	2		12	56.0	2.5	/experiments/Knapen_AOT/AOT_stimuli/rescaled_final/0296_rv.mp4	0.0	266.08971405029297	0.10003352165222168
59	249.82060956954956	fix_pre	0		120	57.0	2.5	/experiments/Knapen_AOT/AOT_stimuli/rescaled_final/0198_fw.mp4	0.0	266.1897475719452	1.0085320472717285
59	250.40423822402954	pulse	0	t		57.0	2.5	/experiments/Knapen_AOT/AOT_stimuli/rescaled_final/0198_fw.mp4	0.0	266.77337622642517	
59	250.8291416168213	movie	1		276	57.0	2.5	/experiments/Knapen_AOT/AOT_stimuli/rescaled_final/0198_fw.mp4	0.0	267.1982796192169	2.4919936656951904
59	252.00312423706055	pulse	1	t		57.0	2.5	/experiments/Knapen_AOT/AOT_stimuli/rescaled_final/0198_fw.mp4	0.0	268.3722622394562	
59	253.32113528251648	fix_post	2		12	57.0	2.5	/experiments/Knapen_AOT/AOT_stimuli/rescaled_final/0198_fw.mp4	0.0	269.6902732849121	0.10017156600952148
60	253.421306848526	fix_pre	0		120	58.0	2.5	/experiments/Knapen_AOT/AOT_stimuli/rescaled_final/0809_fw.mp4	0.0	269.79044485092163	1.0083212852478027
60	253.6047327518463	pulse	0	t		58.0	2.5	/experiments/Knapen_AOT/AOT_stimuli/rescaled_final/0809_fw.mp4	0.0	269.97387075424194	
60	254.4296281337738	movie	1		273	58.0	2.5	/experiments/Knapen_AOT/AOT_stimuli/rescaled_final/0809_fw.mp4	0.0	270.79876613616943	2.4920566082000732
60	255.20295667648315	pulse	1	t		58.0	2.5	/experiments/Knapen_AOT/AOT_stimuli/rescaled_final/0809_fw.mp4	0.0	271.5720946788788	
60	256.8034107685089	pulse	1	t		58.0	2.5	/experiments/Knapen_AOT/AOT_stimuli/rescaled_final/0809_fw.mp4	0.0	273.17254877090454	
60	256.9216847419739	fix_post	2		12	58.0	2.5	/experiments/Knapen_AOT/AOT_stimuli/rescaled_final/0809_fw.mp4	0.0	273.2908227443695	0.09999966621398926
61	257.02168440818787	fix_pre	0		120	59.0	2.5	/experiments/Knapen_AOT/AOT_stimuli/rescaled_final/0152_fw.mp4	0.0	273.3908224105835	1.008535623550415
61	258.0302200317383	movie	1		260	59.0	2.5	/experiments/Knapen_AOT/AOT_stimuli/rescaled_final/0152_fw.mp4	0.0	274.3993580341339	2.4920194149017334
61	258.404155254364	pulse	1	t		59.0	2.5	/experiments/Knapen_AOT/AOT_stimuli/rescaled_final/0152_fw.mp4	0.0	274.77329325675964	
61	260.00373101234436	pulse	1	t		59.0	2.5	/experiments/Knapen_AOT/AOT_stimuli/rescaled_final/0152_fw.mp4	0.0	276.37286901474	
61	260.52223944664	fix_post	2		12	59.0	2.5	/experiments/Knapen_AOT/AOT_stimuli/rescaled_final/0152_fw.mp4	0.0	276.89137744903564	0.09997224807739258
62	260.6222116947174	fix_pre	0		119	60.0	2.5	/experiments/Knapen_AOT/AOT_stimuli/rescaled_final/1298_rv.mp4	0.0	276.99134969711304	1.0001695156097412
62	261.6060492992401	pulse	0	t		60.0	2.5	/experiments/Knapen_AOT/AOT_stimuli/rescaled_final/1298_rv.mp4	0.0	277.97518730163574	
62	261.62238121032715	movie	1		290	60.0	2.5	/experiments/Knapen_AOT/AOT_stimuli/rescaled_final/1298_rv.mp4	0.0	277.9915192127228	2.5003674030303955
62	263.2046914100647	pulse	1	t		60.0	2.5	/experiments/Knapen_AOT/AOT_stimuli/rescaled_final/1298_rv.mp4	0.0	279.5738294124603	
62	264.12274861335754	fix_post	2		12	60.0	2.5	/experiments/Knapen_AOT/AOT_stimuli/rescaled_final/1298_rv.mp4	0.0	280.4918866157532	0.10008001327514648
63	264.2228286266327	fix_pre	0		120	61.0	2.5	blank	1.0	280.5919666290283	1.0001206398010254
63	264.80651354789734	pulse	0	t		61.0	2.5	blank	1.0	281.17565155029297	
63	265.2229492664337	movie	1		300	61.0	2.5	blank	1.0	281.59208726882935	2.5003583431243896
63	266.4067096710205	pulse	1	t		61.0	2.5	blank	1.0	282.77584767341614	
63	267.7233076095581	fix_post	2		12	61.0	2.5	blank	1.0	284.09244561195374	0.0999760627746582
64	267.82328367233276	fix_pre	0		120	62.0	2.5	/experiments/Knapen_AOT/AOT_stimuli/rescaled_final/1941_fw.mp4	0.0	284.1924216747284	1.008535623550415
64	268.0068693161011	pulse	0	t		62.0	2.5	/experiments/Knapen_AOT/AOT_stimuli/rescaled_final/1941_fw.mp4	0.0	284.3760073184967	
64	268.8318192958832	movie	1		285	62.0	2.5	/experiments/Knapen_AOT/AOT_stimuli/rescaled_final/1941_fw.mp4	0.0	285.2009572982788	2.4920239448547363
64	269.6052746772766	pulse	1	t		62.0	2.5	/experiments/Knapen_AOT/AOT_stimuli/rescaled_final/1941_fw.mp4	0.0	285.97441267967224	
64	271.20538902282715	pulse	1	t		62.0	2.5	/experiments/Knapen_AOT/AOT_stimuli/rescaled_final/1941_fw.mp4	0.0	287.5745270252228	
64	271.3238432407379	fix_post	2		12	62.0	2.5	/experiments/Knapen_AOT/AOT_stimuli/rescaled_final/1941_fw.mp4	0.0	287.69298124313354	0.10002350807189941
65	271.4238667488098	fix_pre	0		120	63.0	2.5	/experiments/Knapen_AOT/AOT_stimuli/rescaled_final/0924_rv.mp4	0.0	287.79300475120544	1.0084624290466309
65	272.43232917785645	movie	1		278	63.0	2.5	/experiments/Knapen_AOT/AOT_stimuli/rescaled_final/0924_rv.mp4	0.0	288.8014671802521	2.4920382499694824
65	272.7995955944061	pulse	1	t		63.0	2.5	/experiments/Knapen_AOT/AOT_stimuli/rescaled_final/0924_rv.mp4	0.0	289.16873359680176	
65	274.39960956573486	pulse	1	t		63.0	2.5	/experiments/Knapen_AOT/AOT_stimuli/rescaled_final/0924_rv.mp4	0.0	290.7687475681305	
65	274.9243674278259	fix_post	2		12	63.0	2.5	/experiments/Knapen_AOT/AOT_stimuli/rescaled_final/0924_rv.mp4	0.0	291.29350543022156	0.10000896453857422
66	275.0243763923645	fix_pre	0		118	64.0	2.5	/experiments/Knapen_AOT/AOT_stimuli/rescaled_final/0473_rv.mp4	0.0	291.39351439476013	0.9918410778045654
66	275.99977231025696	pulse	0	t		64.0	2.5	/experiments/Knapen_AOT/AOT_stimuli/rescaled_final/0473_rv.mp4	0.0	292.3689103126526	
66	276.01621747016907	movie	1		276	64.0	2.5	/experiments/Knapen_AOT/AOT_stimuli/rescaled_final/0473_rv.mp4	0.0	292.3853554725647	2.5003867149353027
66	277.6002926826477	pulse	1	t		64.0	2.5	/experiments/Knapen_AOT/AOT_stimuli/rescaled_final/0473_rv.mp4	0.0	293.96943068504333	
66	278.51660418510437	fix_post	2		12	64.0	2.5	/experiments/Knapen_AOT/AOT_stimuli/rescaled_final/0473_rv.mp4	0.0	294.8857421875	0.10003805160522461
67	278.6166422367096	fix_pre	0		120	65.0	2.5	/experiments/Knapen_AOT/AOT_stimuli/rescaled_final/1587_fw.mp4	0.0	294.9857802391052	1.0084562301635742
67	279.2003638744354	pulse	0	t		65.0	2.5	/experiments/Knapen_AOT/AOT_stimuli/rescaled_final/1587_fw.mp4	0.0	295.56950187683105	
67	279.62509846687317	movie	1		272	65.0	2.5	/experiments/Knapen_AOT/AOT_stimuli/rescaled_final/1587_fw.mp4	0.0	295.9942364692688	2.492039918899536
67	280.8005063533783	pulse	1	t		65.0	2.5	/experiments/Knapen_AOT/AOT_stimuli/rescaled_final/1587_fw.mp4	0.0	297.1696443557739	
67	282.1171383857727	fix_post	2		12	65.0	2.5	/experiments/Knapen_AOT/AOT_stimuli/rescaled_final/1587_fw.mp4	0.0	298.48627638816833	0.10001325607299805
68	282.2171516418457	fix_pre	0		120	66.0	2.5	/experiments/Knapen_AOT/AOT_stimuli/rescaled_final/1298_fw.mp4	0.0	298.58628964424133	1.0084664821624756
68	282.4007058143616	pulse	0	t		66.0	2.5	/experiments/Knapen_AOT/AOT_stimuli/rescaled_final/1298_fw.mp4	0.0	298.7698438167572	
68	283.2256181240082	movie	1		275	66.0	2.5	/experiments/Knapen_AOT/AOT_stimuli/rescaled_final/1298_fw.mp4	0.0	299.5947561264038	2.492046594619751
68	283.99962735176086	pulse	1	t		66.0	2.5	/experiments/Knapen_AOT/AOT_stimuli/rescaled_final/1298_fw.mp4	0.0	300.3687653541565	
68	285.5995156764984	pulse	1	t		66.0	2.5	/experiments/Knapen_AOT/AOT_stimuli/rescaled_final/1298_fw.mp4	0.0	301.96865367889404	
68	285.71766471862793	fix_post	2		12	66.0	2.5	/experiments/Knapen_AOT/AOT_stimuli/rescaled_final/1298_fw.mp4	0.0	302.08680272102356	0.1000208854675293
69	285.81768560409546	fix_pre	0		120	67.0	2.5	/experiments/Knapen_AOT/AOT_stimuli/rescaled_final/1914_fw.mp4	0.0	302.1868236064911	1.008507251739502
69	286.82619285583496	movie	1		274	67.0	2.5	/experiments/Knapen_AOT/AOT_stimuli/rescaled_final/1914_fw.mp4	0.0	303.1953308582306	2.4920148849487305
69	287.1996920108795	pulse	1	t		67.0	2.5	/experiments/Knapen_AOT/AOT_stimuli/rescaled_final/1914_fw.mp4	0.0	303.56883001327515	
69	288.80038022994995	pulse	1	t		67.0	2.5	/experiments/Knapen_AOT/AOT_stimuli/rescaled_final/1914_fw.mp4	0.0	305.1695182323456	
69	289.3182077407837	fix_post	2		12	67.0	2.5	/experiments/Knapen_AOT/AOT_stimuli/rescaled_final/1914_fw.mp4	0.0	305.6873457431793	0.10003113746643066
70	289.4182388782501	fix_pre	0		119	68.0	2.5	/experiments/Knapen_AOT/AOT_stimuli/rescaled_final/1382_rv.mp4	0.0	305.78737688064575	1.0002212524414062
70	290.40216279029846	pulse	0	t		68.0	2.5	/experiments/Knapen_AOT/AOT_stimuli/rescaled_final/1382_rv.mp4	0.0	306.7713007926941	
70	290.4184601306915	movie	1		275	68.0	2.5	/experiments/Knapen_AOT/AOT_stimuli/rescaled_final/1382_rv.mp4	0.0	306.78759813308716	2.500272512435913
70	292.00065517425537	pulse	1	t		68.0	2.5	/experiments/Knapen_AOT/AOT_stimuli/rescaled_final/1382_rv.mp4	0.0	308.369793176651	
70	292.91873264312744	fix_post	2		12	68.0	2.5	/experiments/Knapen_AOT/AOT_stimuli/rescaled_final/1382_rv.mp4	0.0	309.28787064552307	0.10005068778991699
71	293.01878333091736	fix_pre	0		120	69.0	2.5	/experiments/Knapen_AOT/AOT_stimuli/rescaled_final/0099_rv.mp4	0.0	309.387921333313	1.0084731578826904
71	293.6025137901306	pulse	0	t		69.0	2.5	/experiments/Knapen_AOT/AOT_stimuli/rescaled_final/0099_rv.mp4	0.0	309.97165179252625	
71	294.02725648880005	movie	1		268	69.0	2.5	/experiments/Knapen_AOT/AOT_stimuli/rescaled_final/0099_rv.mp4	0.0	310.3963944911957	2.492018938064575
71	295.2016410827637	pulse	1	t		69.0	2.5	/experiments/Knapen_AOT/AOT_stimuli/rescaled_final/0099_rv.mp4	0.0	311.5707790851593	
71	296.5192754268646	fix_post	2		12	69.0	2.5	/experiments/Knapen_AOT/AOT_stimuli/rescaled_final/0099_rv.mp4	0.0	312.88841342926025	0.10004997253417969
72	296.6193253993988	fix_pre	0		120	70.0	2.5	blank	1.0	312.98846340179443	1.0001251697540283
72	296.8028609752655	pulse	0	t		70.0	2.5	blank	1.0	313.17199897766113	
72	297.61945056915283	movie	1		300	70.0	2.5	blank	1.0	313.98858857154846	2.5003912448883057
72	298.40352964401245	pulse	1	t		70.0	2.5	blank	1.0	314.7726676464081	
72	300.00335931777954	pulse	1	t		70.0	2.5	blank	1.0	316.37249732017517	
72	300.11984181404114	fix_post	2		12	70.0	2.5	blank	1.0	316.48897981643677	0.1000370979309082
73	300.21987891197205	fix_pre	0		120	71.0	2.5	/experiments/Knapen_AOT/AOT_stimuli/rescaled_final/0152_rv.mp4	0.0	316.5890169143677	1.0084686279296875
73	301.22834753990173	movie	1		269	71.0	2.5	/experiments/Knapen_AOT/AOT_stimuli/rescaled_final/0152_rv.mp4	0.0	317.59748554229736	2.492042303085327
73	301.60208916664124	pulse	1	t		71.0	2.5	/experiments/Knapen_AOT/AOT_stimuli/rescaled_final/0152_rv.mp4	0.0	317.97122716903687	
73	303.2018618583679	pulse	1	t		71.0	2.5	/experiments/Knapen_AOT/AOT_stimuli/rescaled_final/0152_rv.mp4	0.0	319.57099986076355	
73	303.72038984298706	fix_post	2		12	71.0	2.5	/experiments/Knapen_AOT/AOT_stimuli/rescaled_final/0152_rv.mp4	0.0	320.0895278453827	0.09998488426208496
74	303.82037472724915	fix_pre	0		119	72.0	2.5	/experiments/Knapen_AOT/AOT_stimuli/rescaled_final/2146_fw.mp4	0.0	320.1895127296448	1.0087051391601562
74	304.8040523529053	pulse	0	t		72.0	2.5	/experiments/Knapen_AOT/AOT_stimuli/rescaled_final/2146_fw.mp4	0.0	321.1731903553009	
74	304.8290798664093	movie	1		282	72.0	2.5	/experiments/Knapen_AOT/AOT_stimuli/rescaled_final/2146_fw.mp4	0.0	321.19821786880493	2.491816282272339
74	306.40296173095703	pulse	1	t		72.0	2.5	/experiments/Knapen_AOT/AOT_stimuli/rescaled_final/2146_fw.mp4	0.0	322.77209973335266	
74	307.32089614868164	fix_post	2		12	72.0	2.5	/experiments/Knapen_AOT/AOT_stimuli/rescaled_final/2146_fw.mp4	0.0	323.69003415107727	0.10003542900085449
75	307.4209315776825	fix_pre	0		120	73.0	2.5	/experiments/Knapen_AOT/AOT_stimuli/rescaled_final/1418_fw.mp4	0.0	323.7900695800781	1.008559226989746
75	308.004545211792	pulse	0	t		73.0	2.5	/experiments/Knapen_AOT/AOT_stimuli/rescaled_final/1418_fw.mp4	0.0	324.3736832141876	
75	308.42949080467224	movie	1		264	73.0	2.5	/experiments/Knapen_AOT/AOT_stimuli/rescaled_final/1418_fw.mp4	0.0	324.79862880706787	2.4919495582580566
75	309.6049346923828	pulse	1	t		73.0	2.5	/experiments/Knapen_AOT/AOT_stimuli/rescaled_final/1418_fw.mp4	0.0	325.97407269477844	
75	310.9214403629303	fix_post	2		12	73.0	2.5	/experiments/Knapen_AOT/AOT_stimuli/rescaled_final/1418_fw.mp4	0.0	327.2905783653259	0.10005474090576172
76	311.02149510383606	fix_pre	0		120	74.0	2.5	/experiments/Knapen_AOT/AOT_stimuli/rescaled_final/1212_fw.mp4	0.0	327.3906331062317	1.0084748268127441
76	311.20552802085876	pulse	0	t		74.0	2.5	/experiments/Knapen_AOT/AOT_stimuli/rescaled_final/1212_fw.mp4	0.0	327.5746660232544	
76	312.0299699306488	movie	1		269	74.0	2.5	/experiments/Knapen_AOT/AOT_stimuli/rescaled_final/1212_fw.mp4	0.0	328.39910793304443	2.492015838623047
76	312.80287766456604	pulse	1	t		74.0	2.5	/experiments/Knapen_AOT/AOT_stimuli/rescaled_final/1212_fw.mp4	0.0	329.17201566696167	
76	314.4041917324066	pulse	1	t		74.0	2.5	/experiments/Knapen_AOT/AOT_stimuli/rescaled_final/1212_fw.mp4	0.0	330.77332973480225	
76	314.52198576927185	fix_post	2		12	74.0	2.5	/experiments/Knapen_AOT/AOT_stimuli/rescaled_final/1212_fw.mp4	0.0	330.8911237716675	0.10007333755493164
77	314.6220591068268	fix_pre	0		120	75.0	2.5	blank	1.0	330.9911971092224	1.0001113414764404
77	315.6221704483032	movie	1		300	75.0	2.5	blank	1.0	331.99130845069885	2.500352621078491
77	316.0060181617737	pulse	1	t		75.0	2.5	blank	1.0	332.3751561641693	
77	317.60596203804016	pulse	1	t		75.0	2.5	blank	1.0	333.9751000404358	
77	318.1225230693817	fix_post	2		12	75.0	2.5	blank	1.0	334.49166107177734	0.10015654563903809
78	318.22267961502075	fix_pre	0		119	76.0	2.5	/experiments/Knapen_AOT/AOT_stimuli/rescaled_final/1090_fw.mp4	0.0	334.5918176174164	1.0084571838378906
78	319.20645451545715	pulse	0	t		76.0	2.5	/experiments/Knapen_AOT/AOT_stimuli/rescaled_final/1090_fw.mp4	0.0	335.5755925178528	
78	319.23113679885864	movie	1		269	76.0	2.5	/experiments/Knapen_AOT/AOT_stimuli/rescaled_final/1090_fw.mp4	0.0	335.6002748012543	2.491941452026367
78	320.8056995868683	pulse	1	t		76.0	2.5	/experiments/Knapen_AOT/AOT_stimuli/rescaled_final/1090_fw.mp4	0.0	337.1748375892639	
78	321.723078250885	fix_post	2		12	76.0	2.5	/experiments/Knapen_AOT/AOT_stimuli/rescaled_final/1090_fw.mp4	0.0	338.09221625328064	0.1000068187713623
79	321.8230850696564	fix_pre	0		120	77.0	2.5	/experiments/Knapen_AOT/AOT_stimuli/rescaled_final/1712_fw.mp4	0.0	338.192223072052	1.0085649490356445
79	322.39895009994507	pulse	0	t		77.0	2.5	/experiments/Knapen_AOT/AOT_stimuli/rescaled_final/1712_fw.mp4	0.0	338.7680881023407	
79	322.831650018692	movie	1		268	77.0	2.5	/experiments/Knapen_AOT/AOT_stimuli/rescaled_final/1712_fw.mp4	0.0	339.20078802108765	2.4919533729553223
79	323.99885392189026	pulse	1	t		77.0	2.5	/experiments/Knapen_AOT/AOT_stimuli/rescaled_final/1712_fw.mp4	0.0	340.3679919242859	
79	325.32360339164734	fix_post	2		12	77.0	2.5	/experiments/Knapen_AOT/AOT_stimuli/rescaled_final/1712_fw.mp4	0.0	341.69274139404297	0.10002899169921875
80	325.42363238334656	fix_pre	0		120	78.0	2.5	/experiments/Knapen_AOT/AOT_stimuli/rescaled_final/0638_rv.mp4	0.0	341.7927703857422	1.008516788482666
80	325.59897017478943	pulse	0	t		78.0	2.5	/experiments/Knapen_AOT/AOT_stimuli/rescaled_final/0638_rv.mp4	0.0	341.96810817718506	
80	326.4321491718292	movie	1		273	78.0	2.5	/experiments/Knapen_AOT/AOT_stimuli/rescaled_final/0638_rv.mp4	0.0	342.80128717422485	2.492020606994629
80	327.1993203163147	pulse	1	t		78.0	2.5	/experiments/Knapen_AOT/AOT_stimuli/rescaled_final/0638_rv.mp4	0.0	343.5684583187103	
80	328.79945039749146	pulse	1	t		78.0	2.5	/experiments/Knapen_AOT/AOT_stimuli/rescaled_final/0638_rv.mp4	0.0	345.1685883998871	
80	328.92416977882385	fix_post	2		12	78.0	2.5	/experiments/Knapen_AOT/AOT_stimuli/rescaled_final/0638_rv.mp4	0.0	345.2933077812195	0.10002613067626953
81	329.0241959095001	fix_pre	0		120	79.0	2.5	/experiments/Knapen_AOT/AOT_stimuli/rescaled_final/0924_fw.mp4	0.0	345.39333391189575	1.0084564685821533
81	330.0326523780823	movie	1		249	79.0	2.5	/experiments/Knapen_AOT/AOT_stimuli/rescaled_final/0924_fw.mp4	0.0	346.4017903804779	2.492041826248169
81	330.3998234272003	pulse	1	t		79.0	2.5	/experiments/Knapen_AOT/AOT_stimuli/rescaled_final/0924_fw.mp4	0.0	346.76896142959595	
81	332.000581741333	pulse	1	t		79.0	2.5	/experiments/Knapen_AOT/AOT_stimuli/rescaled_final/0924_fw.mp4	0.0	348.36971974372864	
81	332.52469420433044	fix_post	2		12	79.0	2.5	/experiments/Knapen_AOT/AOT_stimuli/rescaled_final/0924_fw.mp4	0.0	348.8938322067261	0.10002398490905762
82	332.6247181892395	fix_pre	0		118	80.0	2.5	/experiments/Knapen_AOT/AOT_stimuli/rescaled_final/0352_rv.mp4	0.0	348.99385619163513	0.9918913841247559
82	333.60008931159973	pulse	0	t		80.0	2.5	/experiments/Knapen_AOT/AOT_stimuli/rescaled_final/0352_rv.mp4	0.0	349.96922731399536	
82	333.61660957336426	movie	1		282	80.0	2.5	/experiments/Knapen_AOT/AOT_stimuli/rescaled_final/0352_rv.mp4	0.0	349.9857475757599	2.5002923011779785
82	335.1989345550537	pulse	1	t		80.0	2.5	/experiments/Knapen_AOT/AOT_stimuli/rescaled_final/0352_rv.mp4	0.0	351.56807255744934	
82	336.11690187454224	fix_post	2		12	80.0	2.5	/experiments/Knapen_AOT/AOT_stimuli/rescaled_final/0352_rv.mp4	0.0	352.48603987693787	0.10001993179321289
83	336.21692180633545	fix_pre	0		120	81.0	2.5	/experiments/Knapen_AOT/AOT_stimuli/rescaled_final/0216_rv.mp4	0.0	352.5860598087311	1.008521318435669
83	336.8006112575531	pulse	0	t		81.0	2.5	/experiments/Knapen_AOT/AOT_stimuli/rescaled_final/0216_rv.mp4	0.0	353.16974925994873	
83	337.2254431247711	movie	1		276	81.0	2.5	/experiments/Knapen_AOT/AOT_stimuli/rescaled_final/0216_rv.mp4	0.0	353.59458112716675	2.492318868637085
83	338.3989579677582	pulse	1	t		81.0	2.5	/experiments/Knapen_AOT/AOT_stimuli/rescaled_final/0216_rv.mp4	0.0	354.7680959701538	
83	339.7177619934082	fix_post	2		12	81.0	2.5	/experiments/Knapen_AOT/AOT_stimuli/rescaled_final/0216_rv.mp4	0.0	356.08689999580383	0.09965777397155762
84	339.81741976737976	fix_pre	0		120	82.0	2.5	/experiments/Knapen_AOT/AOT_stimuli/rescaled_final/1212_rv.mp4	0.0	356.1865577697754	1.008617877960205
84	340.00114822387695	pulse	0	t		82.0	2.5	/experiments/Knapen_AOT/AOT_stimuli/rescaled_final/1212_rv.mp4	0.0	356.3702862262726	
84	340.82603764533997	movie	1		276	82.0	2.5	/experiments/Knapen_AOT/AOT_stimuli/rescaled_final/1212_rv.mp4	0.0	357.1951756477356	2.4919776916503906
84	341.5993790626526	pulse	1	t		82.0	2.5	/experiments/Knapen_AOT/AOT_stimuli/rescaled_final/1212_rv.mp4	0.0	357.9685170650482	
84	343.1994836330414	pulse	1	t		82.0	2.5	/experiments/Knapen_AOT/AOT_stimuli/rescaled_final/1212_rv.mp4	0.0	359.568621635437	
84	343.31801533699036	fix_post	2		12	82.0	2.5	/experiments/Knapen_AOT/AOT_stimuli/rescaled_final/1212_rv.mp4	0.0	359.687153339386	0.10000348091125488
85	343.4180188179016	fix_pre	0		120	83.0	2.5	blank	1.0	359.78715682029724	1.000145435333252
85	344.41816425323486	movie	1		300	83.0	2.5	blank	1.0	360.7873022556305	2.500359296798706
85	344.8017404079437	pulse	1	t		83.0	2.5	blank	1.0	361.17087841033936	
85	346.40205550193787	pulse	1	t		83.0	2.5	blank	1.0	362.7711935043335	
85	346.91852355003357	fix_post	2		12	83.0	2.5	blank	1.0	363.2876615524292	0.09996843338012695
87	347.0184919834137	stim	0		1715					363.3876299858093	14.293843507766724
87	348.0022382736206	pulse	0	t						364.37137627601624	
87	349.6024959087372	pulse	0	t						365.9716339111328	
87	351.20271611213684	pulse	0	t						367.57185411453247	
87	352.80323123931885	pulse	0	t						369.1723692417145	
87	354.4032483100891	pulse	0	t						370.77238631248474	
87	356.0034291744232	pulse	0	t						372.37256717681885	
87	357.6037631034851	pulse	0	t						373.97290110588074	
87	359.20394468307495	pulse	0	t						375.5730826854706	
87	360.8041362762451	pulse	0	t						377.17327427864075	
