trial_nr	onset	event_type	phase	response	nr_frames	movie_index	movie_duration	movie_file	blank	onset_abs	duration
0	0.13311481475830078	stim	0		577					71.34853482246399	4.807912111282349
0	4.932950973510742	response	0	space						76.14837098121643	
1	4.941026926040649	stim	0		5565					76.15644693374634	46.37524390220642
1	51.310619831085205	pulse	0	t						122.5260398387909	
1	51.31627082824707	stim	1		1717					122.53169083595276	14.30825400352478
1	52.908084869384766	pulse	1	t						124.12350487709045	
1	54.50822591781616	pulse	1	t						125.72364592552185	
1	56.108022928237915	pulse	1	t						127.3234429359436	
1	57.70812678337097	pulse	1	t						128.92354679107666	
1	59.30798292160034	pulse	1	t						130.52340292930603	
1	60.907564878463745	pulse	1	t						132.12298488616943	
1	62.50776982307434	pulse	1	t						133.72318983078003	
1	64.10806679725647	pulse	1	t						135.32348680496216	
2	65.62452483177185	fix_pre	0		11	0.0	2.5	/experiments/AOT/AOT_stimuli/rescaled_final/1286_fw.mp4	0.0	136.83994483947754	0.09174299240112305
2	65.70803880691528	pulse	0	t		0.0	2.5	/experiments/AOT/AOT_stimuli/rescaled_final/1286_fw.mp4	0.0	136.92345881462097	
2	65.71626782417297	movie	1		244	0.0	2.5	/experiments/AOT/AOT_stimuli/rescaled_final/1286_fw.mp4	0.0	136.93168783187866	2.508368968963623
2	67.30761790275574	pulse	1	t		0.0	2.5	/experiments/AOT/AOT_stimuli/rescaled_final/1286_fw.mp4	0.0	138.52303791046143	
2	68.2246367931366	fix_post	2		12	0.0	2.5	/experiments/AOT/AOT_stimuli/rescaled_final/1286_fw.mp4	0.0	139.44005680084229	0.09983420372009277
3	68.32447099685669	fix_pre	0		120	1.0	2.5	/experiments/AOT/AOT_stimuli/rescaled_final/2021_fw.mp4	0.0	139.53989100456238	1.0000038146972656
3	68.90792083740234	pulse	0	t		1.0	2.5	/experiments/AOT/AOT_stimuli/rescaled_final/2021_fw.mp4	0.0	140.12334084510803	
3	69.32447481155396	movie	1		244	1.0	2.5	/experiments/AOT/AOT_stimuli/rescaled_final/2021_fw.mp4	0.0	140.53989481925964	2.4999840259552
3	70.50803184509277	pulse	1	t		1.0	2.5	/experiments/AOT/AOT_stimuli/rescaled_final/2021_fw.mp4	0.0	141.72345185279846	
3	71.82445883750916	fix_post	2		12	1.0	2.5	/experiments/AOT/AOT_stimuli/rescaled_final/2021_fw.mp4	0.0	143.03987884521484	0.0999901294708252
4	71.92444896697998	fix_pre	0		120	2.0	2.5	/experiments/AOT/AOT_stimuli/rescaled_final/2045_rv.mp4	0.0	143.13986897468567	0.999931812286377
4	72.10792279243469	pulse	0	t		2.0	2.5	/experiments/AOT/AOT_stimuli/rescaled_final/2045_rv.mp4	0.0	143.32334280014038	
4	72.92438077926636	movie	1		245	2.0	2.5	/experiments/AOT/AOT_stimuli/rescaled_final/2045_rv.mp4	0.0	144.13980078697205	2.500009059906006
4	73.7078468799591	pulse	1	t		2.0	2.5	/experiments/AOT/AOT_stimuli/rescaled_final/2045_rv.mp4	0.0	144.9232668876648	
4	75.30621099472046	pulse	1	t		2.0	2.5	/experiments/AOT/AOT_stimuli/rescaled_final/2045_rv.mp4	0.0	146.52163100242615	
4	75.42438983917236	fix_post	2		12	2.0	2.5	/experiments/AOT/AOT_stimuli/rescaled_final/2045_rv.mp4	0.0	146.63980984687805	0.10003209114074707
5	75.52442193031311	fix_pre	0		120	3.0	2.5	/experiments/AOT/AOT_stimuli/rescaled_final/0270_rv.mp4	0.0	146.7398419380188	0.9999568462371826
5	76.5243787765503	movie	1		243	3.0	2.5	/experiments/AOT/AOT_stimuli/rescaled_final/0270_rv.mp4	0.0	147.73979878425598	2.5000481605529785
5	76.90752387046814	pulse	1	t		3.0	2.5	/experiments/AOT/AOT_stimuli/rescaled_final/0270_rv.mp4	0.0	148.12294387817383	
5	78.50786185264587	pulse	1	t		3.0	2.5	/experiments/AOT/AOT_stimuli/rescaled_final/0270_rv.mp4	0.0	149.72328186035156	
5	79.02442693710327	fix_post	2		12	3.0	2.5	/experiments/AOT/AOT_stimuli/rescaled_final/0270_rv.mp4	0.0	150.23984694480896	0.09991788864135742
6	79.12434482574463	fix_pre	0		119	4.0	2.5	/experiments/AOT/AOT_stimuli/rescaled_final/0189_rv.mp4	0.0	150.33976483345032	0.991724967956543
6	80.10794281959534	pulse	0	t		4.0	2.5	/experiments/AOT/AOT_stimuli/rescaled_final/0189_rv.mp4	0.0	151.32336282730103	
6	80.11606979370117	movie	1		245	4.0	2.5	/experiments/AOT/AOT_stimuli/rescaled_final/0189_rv.mp4	0.0	151.33148980140686	2.5082690715789795
6	81.70784091949463	pulse	1	t		4.0	2.5	/experiments/AOT/AOT_stimuli/rescaled_final/0189_rv.mp4	0.0	152.92326092720032	
6	82.62433886528015	fix_post	2		12	4.0	2.5	/experiments/AOT/AOT_stimuli/rescaled_final/0189_rv.mp4	0.0	153.83975887298584	0.10001206398010254
7	82.72435092926025	fix_pre	0		120	5.0	2.5	/experiments/AOT/AOT_stimuli/rescaled_final/0406_rv.mp4	0.0	153.93977093696594	1.0000109672546387
7	83.30784392356873	pulse	0	t		5.0	2.5	/experiments/AOT/AOT_stimuli/rescaled_final/0406_rv.mp4	0.0	154.5232639312744	
7	83.72436189651489	movie	1		245	5.0	2.5	/experiments/AOT/AOT_stimuli/rescaled_final/0406_rv.mp4	0.0	154.93978190422058	2.500046968460083
7	84.90791487693787	pulse	1	t		5.0	2.5	/experiments/AOT/AOT_stimuli/rescaled_final/0406_rv.mp4	0.0	156.12333488464355	
7	86.22440886497498	fix_post	2		12	5.0	2.5	/experiments/AOT/AOT_stimuli/rescaled_final/0406_rv.mp4	0.0	157.43982887268066	0.09997105598449707
8	86.32437992095947	fix_pre	0		120	6.0	2.5	blank	1.0	157.53979992866516	1.0000078678131104
8	86.50790882110596	pulse	0	t		6.0	2.5	blank	1.0	157.72332882881165	
8	87.32438778877258	movie	1		300	6.0	2.5	blank	1.0	158.53980779647827	2.5000181198120117
8	88.10788297653198	pulse	1	t		6.0	2.5	blank	1.0	159.32330298423767	
8	89.70786499977112	pulse	1	t		6.0	2.5	blank	1.0	160.9232850074768	
8	89.8244059085846	fix_post	2		12	6.0	2.5	blank	1.0	161.03982591629028	0.09997987747192383
9	89.92438578605652	fix_pre	0		120	7.0	2.5	/experiments/AOT/AOT_stimuli/rescaled_final/1269_rv.mp4	0.0	161.1398057937622	1.0001130104064941
9	90.92449879646301	movie	1		244	7.0	2.5	/experiments/AOT/AOT_stimuli/rescaled_final/1269_rv.mp4	0.0	162.1399188041687	2.4999001026153564
9	91.30770087242126	pulse	1	t		7.0	2.5	/experiments/AOT/AOT_stimuli/rescaled_final/1269_rv.mp4	0.0	162.52312088012695	
9	92.9078278541565	pulse	1	t		7.0	2.5	/experiments/AOT/AOT_stimuli/rescaled_final/1269_rv.mp4	0.0	164.12324786186218	
9	93.42439889907837	fix_post	2		12	7.0	2.5	/experiments/AOT/AOT_stimuli/rescaled_final/1269_rv.mp4	0.0	164.63981890678406	0.0999898910522461
10	93.52438879013062	fix_pre	0		119	8.0	2.5	/experiments/AOT/AOT_stimuli/rescaled_final/0808_rv.mp4	0.0	164.7398087978363	0.991569995880127
10	94.50774693489075	pulse	0	t		8.0	2.5	/experiments/AOT/AOT_stimuli/rescaled_final/0808_rv.mp4	0.0	165.72316694259644	
10	94.51595878601074	movie	1		247	8.0	2.5	/experiments/AOT/AOT_stimuli/rescaled_final/0808_rv.mp4	0.0	165.73137879371643	2.5083889961242676
10	96.10732698440552	pulse	1	t		8.0	2.5	/experiments/AOT/AOT_stimuli/rescaled_final/0808_rv.mp4	0.0	167.3227469921112	
10	97.02434778213501	fix_post	2		12	8.0	2.5	/experiments/AOT/AOT_stimuli/rescaled_final/0808_rv.mp4	0.0	168.2397677898407	0.09997105598449707
11	97.1243188381195	fix_pre	0		120	9.0	2.5	/experiments/AOT/AOT_stimuli/rescaled_final/0239_rv.mp4	0.0	168.3397388458252	0.999993085861206
11	97.70775198936462	pulse	0	t		9.0	2.5	/experiments/AOT/AOT_stimuli/rescaled_final/0239_rv.mp4	0.0	168.9231719970703	
11	98.12431192398071	movie	1		244	9.0	2.5	/experiments/AOT/AOT_stimuli/rescaled_final/0239_rv.mp4	0.0	169.3397319316864	2.499980926513672
11	99.30790996551514	pulse	1	t		9.0	2.5	/experiments/AOT/AOT_stimuli/rescaled_final/0239_rv.mp4	0.0	170.52332997322083	
11	100.62429285049438	fix_post	2		12	9.0	2.5	/experiments/AOT/AOT_stimuli/rescaled_final/0239_rv.mp4	0.0	171.83971285820007	0.09995794296264648
12	100.72425079345703	fix_pre	0		120	10.0	2.5	/experiments/AOT/AOT_stimuli/rescaled_final/1220_fw.mp4	0.0	171.93967080116272	0.9999961853027344
12	100.90792179107666	pulse	0	t		10.0	2.5	/experiments/AOT/AOT_stimuli/rescaled_final/1220_fw.mp4	0.0	172.12334179878235	
12	101.72424697875977	movie	1		244	10.0	2.5	/experiments/AOT/AOT_stimuli/rescaled_final/1220_fw.mp4	0.0	172.93966698646545	2.5001089572906494
12	102.50775790214539	pulse	1	t		10.0	2.5	/experiments/AOT/AOT_stimuli/rescaled_final/1220_fw.mp4	0.0	173.72317790985107	
12	104.10610485076904	pulse	1	t		10.0	2.5	/experiments/AOT/AOT_stimuli/rescaled_final/1220_fw.mp4	0.0	175.32152485847473	
12	104.22435593605042	fix_post	2		12	10.0	2.5	/experiments/AOT/AOT_stimuli/rescaled_final/1220_fw.mp4	0.0	175.4397759437561	0.09988903999328613
13	104.3242449760437	fix_pre	0		120	11.0	2.5	/experiments/AOT/AOT_stimuli/rescaled_final/2035_rv.mp4	0.0	175.5396649837494	1.0001130104064941
13	105.3243579864502	movie	1		244	11.0	2.5	/experiments/AOT/AOT_stimuli/rescaled_final/2035_rv.mp4	0.0	176.53977799415588	2.499868869781494
13	105.7072548866272	pulse	1	t		11.0	2.5	/experiments/AOT/AOT_stimuli/rescaled_final/2035_rv.mp4	0.0	176.92267489433289	
13	107.3077609539032	pulse	1	t		11.0	2.5	/experiments/AOT/AOT_stimuli/rescaled_final/2035_rv.mp4	0.0	178.5231809616089	
13	107.82422685623169	fix_post	2		12	11.0	2.5	/experiments/AOT/AOT_stimuli/rescaled_final/2035_rv.mp4	0.0	179.03964686393738	0.10008907318115234
14	107.92431592941284	fix_pre	0		119	12.0	2.5	/experiments/AOT/AOT_stimuli/rescaled_final/1498_rv.mp4	0.0	179.13973593711853	0.991569995880127
14	108.90772700309753	pulse	0	t		12.0	2.5	/experiments/AOT/AOT_stimuli/rescaled_final/1498_rv.mp4	0.0	180.12314701080322	
14	108.91588592529297	movie	1		244	12.0	2.5	/experiments/AOT/AOT_stimuli/rescaled_final/1498_rv.mp4	0.0	180.13130593299866	2.5084450244903564
14	110.50747394561768	pulse	1	t		12.0	2.5	/experiments/AOT/AOT_stimuli/rescaled_final/1498_rv.mp4	0.0	181.72289395332336	
14	111.42433094978333	fix_post	2		12	12.0	2.5	/experiments/AOT/AOT_stimuli/rescaled_final/1498_rv.mp4	0.0	182.639750957489	0.09989690780639648
15	111.52422785758972	fix_pre	0		120	13.0	2.5	/experiments/AOT/AOT_stimuli/rescaled_final/0024_rv.mp4	0.0	182.7396478652954	1.0000810623168945
15	112.10781192779541	pulse	0	t		13.0	2.5	/experiments/AOT/AOT_stimuli/rescaled_final/0024_rv.mp4	0.0	183.3232319355011	
15	112.52430891990662	movie	1		244	13.0	2.5	/experiments/AOT/AOT_stimuli/rescaled_final/0024_rv.mp4	0.0	183.7397289276123	2.5000510215759277
15	113.70784378051758	pulse	1	t		13.0	2.5	/experiments/AOT/AOT_stimuli/rescaled_final/0024_rv.mp4	0.0	184.92326378822327	
15	115.02435994148254	fix_post	2		12	13.0	2.5	/experiments/AOT/AOT_stimuli/rescaled_final/0024_rv.mp4	0.0	186.23977994918823	0.09989404678344727
16	115.12425398826599	fix_pre	0		120	14.0	2.5	blank	1.0	186.33967399597168	0.9999659061431885
16	115.30773687362671	pulse	0	t		14.0	2.5	blank	1.0	186.5231568813324	
16	116.12421989440918	movie	1		300	14.0	2.5	blank	1.0	187.33963990211487	2.5002100467681885
16	116.90731287002563	pulse	1	t		14.0	2.5	blank	1.0	188.12273287773132	
16	118.50748586654663	pulse	1	t		14.0	2.5	blank	1.0	189.72290587425232	
16	118.62442994117737	fix_post	2		12	14.0	2.5	blank	1.0	189.83984994888306	0.10006594657897949
17	118.72449588775635	fix_pre	0		120	15.0	2.5	/experiments/AOT/AOT_stimuli/rescaled_final/0808_rv.mp4	0.0	189.93991589546204	0.9997589588165283
17	119.72425484657288	movie	1		246	15.0	2.5	/experiments/AOT/AOT_stimuli/rescaled_final/0808_rv.mp4	0.0	190.93967485427856	2.499969959259033
17	120.10888600349426	pulse	1	t		15.0	2.5	/experiments/AOT/AOT_stimuli/rescaled_final/0808_rv.mp4	0.0	191.32430601119995	
17	121.70764493942261	pulse	1	t		15.0	2.5	/experiments/AOT/AOT_stimuli/rescaled_final/0808_rv.mp4	0.0	192.9230649471283	
17	122.22422480583191	fix_post	2		12	15.0	2.5	/experiments/AOT/AOT_stimuli/rescaled_final/0808_rv.mp4	0.0	193.4396448135376	0.10001111030578613
18	122.3242359161377	fix_pre	0		119	16.0	2.5	/experiments/AOT/AOT_stimuli/rescaled_final/1325_rv.mp4	0.0	193.53965592384338	0.9916238784790039
18	123.30767798423767	pulse	0	t		16.0	2.5	/experiments/AOT/AOT_stimuli/rescaled_final/1325_rv.mp4	0.0	194.52309799194336	
18	123.3158597946167	movie	1		245	16.0	2.5	/experiments/AOT/AOT_stimuli/rescaled_final/1325_rv.mp4	0.0	194.5312798023224	2.5083119869232178
18	124.90709781646729	pulse	1	t		16.0	2.5	/experiments/AOT/AOT_stimuli/rescaled_final/1325_rv.mp4	0.0	196.12251782417297	
18	125.82417178153992	fix_post	2		12	16.0	2.5	/experiments/AOT/AOT_stimuli/rescaled_final/1325_rv.mp4	0.0	197.0395917892456	0.09992718696594238
19	125.92409896850586	fix_pre	0		120	17.0	2.5	/experiments/AOT/AOT_stimuli/rescaled_final/1267_fw.mp4	0.0	197.13951897621155	1.0001709461212158
19	126.50767779350281	pulse	0	t		17.0	2.5	/experiments/AOT/AOT_stimuli/rescaled_final/1267_fw.mp4	0.0	197.7230978012085	
19	126.92426991462708	movie	1		244	17.0	2.5	/experiments/AOT/AOT_stimuli/rescaled_final/1267_fw.mp4	0.0	198.13968992233276	2.499890089035034
19	128.10771799087524	pulse	1	t		17.0	2.5	/experiments/AOT/AOT_stimuli/rescaled_final/1267_fw.mp4	0.0	199.32313799858093	
19	129.4241600036621	fix_post	2		12	17.0	2.5	/experiments/AOT/AOT_stimuli/rescaled_final/1267_fw.mp4	0.0	200.6395800113678	0.09999489784240723
20	129.52415490150452	fix_pre	0		120	18.0	2.5	/experiments/AOT/AOT_stimuli/rescaled_final/1578_rv.mp4	0.0	200.7395749092102	1.000040054321289
20	129.70776295661926	pulse	0	t		18.0	2.5	/experiments/AOT/AOT_stimuli/rescaled_final/1578_rv.mp4	0.0	200.92318296432495	
20	130.5241949558258	movie	1		245	18.0	2.5	/experiments/AOT/AOT_stimuli/rescaled_final/1578_rv.mp4	0.0	201.7396149635315	2.4999358654022217
20	131.30760788917542	pulse	1	t		18.0	2.5	/experiments/AOT/AOT_stimuli/rescaled_final/1578_rv.mp4	0.0	202.5230278968811	
20	132.9072208404541	pulse	1	t		18.0	2.5	/experiments/AOT/AOT_stimuli/rescaled_final/1578_rv.mp4	0.0	204.1226408481598	
20	133.02413082122803	fix_post	2		12	18.0	2.5	/experiments/AOT/AOT_stimuli/rescaled_final/1578_rv.mp4	0.0	204.23955082893372	0.10004806518554688
21	133.12417888641357	fix_pre	0		120	19.0	2.5	/experiments/AOT/AOT_stimuli/rescaled_final/0010_fw.mp4	0.0	204.33959889411926	0.9999229907989502
21	134.12410187721252	movie	1		243	19.0	2.5	/experiments/AOT/AOT_stimuli/rescaled_final/0010_fw.mp4	0.0	205.3395218849182	2.5000979900360107
21	134.507150888443	pulse	1	t		19.0	2.5	/experiments/AOT/AOT_stimuli/rescaled_final/0010_fw.mp4	0.0	205.72257089614868	
21	136.1076958179474	pulse	1	t		19.0	2.5	/experiments/AOT/AOT_stimuli/rescaled_final/0010_fw.mp4	0.0	207.32311582565308	
21	136.62419986724854	fix_post	2		12	19.0	2.5	/experiments/AOT/AOT_stimuli/rescaled_final/0010_fw.mp4	0.0	207.83961987495422	0.0999290943145752
22	136.7241289615631	fix_pre	0		119	20.0	2.5	/experiments/AOT/AOT_stimuli/rescaled_final/0179_rv.mp4	0.0	207.9395489692688	0.9916098117828369
22	137.70762395858765	pulse	0	t		20.0	2.5	/experiments/AOT/AOT_stimuli/rescaled_final/0179_rv.mp4	0.0	208.92304396629333	
22	137.71573877334595	movie	1		244	20.0	2.5	/experiments/AOT/AOT_stimuli/rescaled_final/0179_rv.mp4	0.0	208.93115878105164	2.5083441734313965
22	139.30760788917542	pulse	1	t		20.0	2.5	/experiments/AOT/AOT_stimuli/rescaled_final/0179_rv.mp4	0.0	210.5230278968811	
22	140.22408294677734	fix_post	2		12	20.0	2.5	/experiments/AOT/AOT_stimuli/rescaled_final/0179_rv.mp4	0.0	211.43950295448303	0.10004305839538574
23	140.32412600517273	fix_pre	0		120	21.0	2.5	blank	1.0	211.53954601287842	0.9999339580535889
23	140.9076910018921	pulse	0	t		21.0	2.5	blank	1.0	212.12311100959778	
23	141.32405996322632	movie	1		300	21.0	2.5	blank	1.0	212.539479970932	2.5001089572906494
23	142.5077087879181	pulse	1	t		21.0	2.5	blank	1.0	213.72312879562378	
23	143.82416892051697	fix_post	2		12	21.0	2.5	blank	1.0	215.03958892822266	0.09997987747192383
24	143.9241487979889	fix_pre	0		120	22.0	2.5	/experiments/AOT/AOT_stimuli/rescaled_final/0500_fw.mp4	0.0	215.13956880569458	1.0000271797180176
24	144.1076259613037	pulse	0	t		22.0	2.5	/experiments/AOT/AOT_stimuli/rescaled_final/0500_fw.mp4	0.0	215.3230459690094	
24	144.9241759777069	movie	1		244	22.0	2.5	/experiments/AOT/AOT_stimuli/rescaled_final/0500_fw.mp4	0.0	216.1395959854126	2.5000460147857666
24	145.70762300491333	pulse	1	t		22.0	2.5	/experiments/AOT/AOT_stimuli/rescaled_final/0500_fw.mp4	0.0	216.92304301261902	
24	147.30633878707886	pulse	1	t		22.0	2.5	/experiments/AOT/AOT_stimuli/rescaled_final/0500_fw.mp4	0.0	218.52175879478455	
24	147.42422199249268	fix_post	2		12	22.0	2.5	/experiments/AOT/AOT_stimuli/rescaled_final/0500_fw.mp4	0.0	218.63964200019836	0.09979891777038574
25	147.52402091026306	fix_pre	0		120	23.0	2.5	/experiments/AOT/AOT_stimuli/rescaled_final/0723_fw.mp4	0.0	218.73944091796875	1.0000369548797607
25	148.52405786514282	movie	1		245	23.0	2.5	/experiments/AOT/AOT_stimuli/rescaled_final/0723_fw.mp4	0.0	219.7394778728485	2.5000550746917725
25	148.90769696235657	pulse	1	t		23.0	2.5	/experiments/AOT/AOT_stimuli/rescaled_final/0723_fw.mp4	0.0	220.12311697006226	
25	150.50750994682312	pulse	1	t		23.0	2.5	/experiments/AOT/AOT_stimuli/rescaled_final/0723_fw.mp4	0.0	221.7229299545288	
25	151.0241129398346	fix_post	2		12	23.0	2.5	/experiments/AOT/AOT_stimuli/rescaled_final/0723_fw.mp4	0.0	222.23953294754028	0.09999585151672363
26	151.12410879135132	fix_pre	0		119	24.0	2.5	/experiments/AOT/AOT_stimuli/rescaled_final/1651_fw.mp4	0.0	222.339528799057	0.9916541576385498
26	152.1075849533081	pulse	0	t		24.0	2.5	/experiments/AOT/AOT_stimuli/rescaled_final/1651_fw.mp4	0.0	223.3230049610138	
26	152.11576294898987	movie	1		245	24.0	2.5	/experiments/AOT/AOT_stimuli/rescaled_final/1651_fw.mp4	0.0	223.33118295669556	2.5083439350128174
26	153.70746684074402	pulse	1	t		24.0	2.5	/experiments/AOT/AOT_stimuli/rescaled_final/1651_fw.mp4	0.0	224.9228868484497	
26	154.62410688400269	fix_post	2		12	24.0	2.5	/experiments/AOT/AOT_stimuli/rescaled_final/1651_fw.mp4	0.0	225.83952689170837	0.10002899169921875
27	154.7241358757019	fix_pre	0		120	25.0	2.5	/experiments/AOT/AOT_stimuli/rescaled_final/1691_rv.mp4	0.0	225.9395558834076	0.9999921321868896
27	155.307532787323	pulse	0	t		25.0	2.5	/experiments/AOT/AOT_stimuli/rescaled_final/1691_rv.mp4	0.0	226.5229527950287	
27	155.7241280078888	movie	1		242	25.0	2.5	/experiments/AOT/AOT_stimuli/rescaled_final/1691_rv.mp4	0.0	226.93954801559448	2.4995789527893066
27	156.90754580497742	pulse	1	t		25.0	2.5	/experiments/AOT/AOT_stimuli/rescaled_final/1691_rv.mp4	0.0	228.1229658126831	
27	158.2237069606781	fix_post	2		12	25.0	2.5	/experiments/AOT/AOT_stimuli/rescaled_final/1691_rv.mp4	0.0	229.4391269683838	0.10031795501708984
28	158.3240249156952	fix_pre	0		120	26.0	2.5	blank	1.0	229.53944492340088	1.0000300407409668
28	158.50758695602417	pulse	0	t		26.0	2.5	blank	1.0	229.72300696372986	
28	159.32405495643616	movie	1		300	26.0	2.5	blank	1.0	230.53947496414185	2.500044822692871
28	160.10752987861633	pulse	1	t		26.0	2.5	blank	1.0	231.32294988632202	
28	161.70746898651123	pulse	1	t		26.0	2.5	blank	1.0	232.92288899421692	
28	161.82409977912903	fix_post	2		12	26.0	2.5	blank	1.0	233.03951978683472	0.09988617897033691
29	161.92398595809937	fix_pre	0		120	27.0	2.5	/experiments/AOT/AOT_stimuli/rescaled_final/0246_rv.mp4	0.0	233.13940596580505	1.0000829696655273
29	162.9240689277649	movie	1		244	27.0	2.5	/experiments/AOT/AOT_stimuli/rescaled_final/0246_rv.mp4	0.0	234.13948893547058	2.500030040740967
29	163.3074209690094	pulse	1	t		27.0	2.5	/experiments/AOT/AOT_stimuli/rescaled_final/0246_rv.mp4	0.0	234.5228409767151	
29	164.90755581855774	pulse	1	t		27.0	2.5	/experiments/AOT/AOT_stimuli/rescaled_final/0246_rv.mp4	0.0	236.12297582626343	
29	165.42409896850586	fix_post	2		12	27.0	2.5	/experiments/AOT/AOT_stimuli/rescaled_final/0246_rv.mp4	0.0	236.63951897621155	0.09996891021728516
30	165.52406787872314	fix_pre	0		119	28.0	2.5	/experiments/AOT/AOT_stimuli/rescaled_final/1571_fw.mp4	0.0	236.73948788642883	0.9915730953216553
30	166.50754284858704	pulse	0	t		28.0	2.5	/experiments/AOT/AOT_stimuli/rescaled_final/1571_fw.mp4	0.0	237.72296285629272	
30	166.5156409740448	movie	1		243	28.0	2.5	/experiments/AOT/AOT_stimuli/rescaled_final/1571_fw.mp4	0.0	237.7310609817505	2.5083558559417725
30	168.10701179504395	pulse	1	t		28.0	2.5	/experiments/AOT/AOT_stimuli/rescaled_final/1571_fw.mp4	0.0	239.32243180274963	
30	169.02399682998657	fix_post	2		12	28.0	2.5	/experiments/AOT/AOT_stimuli/rescaled_final/1571_fw.mp4	0.0	240.23941683769226	0.10008597373962402
31	169.1240828037262	fix_pre	0		120	29.0	2.5	/experiments/AOT/AOT_stimuli/rescaled_final/1775_fw.mp4	0.0	240.33950281143188	0.9999780654907227
31	169.70755982398987	pulse	0	t		29.0	2.5	/experiments/AOT/AOT_stimuli/rescaled_final/1775_fw.mp4	0.0	240.92297983169556	
31	170.12406086921692	movie	1		244	29.0	2.5	/experiments/AOT/AOT_stimuli/rescaled_final/1775_fw.mp4	0.0	241.3394808769226	2.4995551109313965
31	171.30751585960388	pulse	1	t		29.0	2.5	/experiments/AOT/AOT_stimuli/rescaled_final/1775_fw.mp4	0.0	242.52293586730957	
31	172.62361598014832	fix_post	2		12	29.0	2.5	/experiments/AOT/AOT_stimuli/rescaled_final/1775_fw.mp4	0.0	243.839035987854	0.0999598503112793
32	172.7235758304596	fix_pre	0		120	30.0	2.5	/experiments/AOT/AOT_stimuli/rescaled_final/0678_fw.mp4	0.0	243.93899583816528	1.000133991241455
32	172.907075881958	pulse	0	t		30.0	2.5	/experiments/AOT/AOT_stimuli/rescaled_final/0678_fw.mp4	0.0	244.1224958896637	
32	173.72370982170105	movie	1		244	30.0	2.5	/experiments/AOT/AOT_stimuli/rescaled_final/0678_fw.mp4	0.0	244.93912982940674	2.5003039836883545
32	174.50731682777405	pulse	1	t		30.0	2.5	/experiments/AOT/AOT_stimuli/rescaled_final/0678_fw.mp4	0.0	245.72273683547974	
32	176.1061840057373	pulse	1	t		30.0	2.5	/experiments/AOT/AOT_stimuli/rescaled_final/0678_fw.mp4	0.0	247.321604013443	
32	176.2240138053894	fix_post	2		12	30.0	2.5	/experiments/AOT/AOT_stimuli/rescaled_final/0678_fw.mp4	0.0	247.4394338130951	0.10002803802490234
33	176.3240418434143	fix_pre	0		120	31.0	2.5	/experiments/AOT/AOT_stimuli/rescaled_final/1486_rv.mp4	0.0	247.53946185112	0.9999649524688721
33	177.32400679588318	movie	1		244	31.0	2.5	/experiments/AOT/AOT_stimuli/rescaled_final/1486_rv.mp4	0.0	248.53942680358887	2.500019073486328
33	177.70763897895813	pulse	1	t		31.0	2.5	/experiments/AOT/AOT_stimuli/rescaled_final/1486_rv.mp4	0.0	248.92305898666382	
33	179.3074598312378	pulse	1	t		31.0	2.5	/experiments/AOT/AOT_stimuli/rescaled_final/1486_rv.mp4	0.0	250.52287983894348	
33	179.8240258693695	fix_post	2		12	31.0	2.5	/experiments/AOT/AOT_stimuli/rescaled_final/1486_rv.mp4	0.0	251.0394458770752	0.09989213943481445
34	179.92391800880432	fix_pre	0		119	32.0	2.5	/experiments/AOT/AOT_stimuli/rescaled_final/0970_rv.mp4	0.0	251.13933801651	0.991649866104126
34	180.9073519706726	pulse	0	t		32.0	2.5	/experiments/AOT/AOT_stimuli/rescaled_final/0970_rv.mp4	0.0	252.1227719783783	
34	180.91556787490845	movie	1		244	32.0	2.5	/experiments/AOT/AOT_stimuli/rescaled_final/0970_rv.mp4	0.0	252.13098788261414	2.5083611011505127
34	182.50696396827698	pulse	1	t		32.0	2.5	/experiments/AOT/AOT_stimuli/rescaled_final/0970_rv.mp4	0.0	253.72238397598267	
34	183.42392897605896	fix_post	2		12	32.0	2.5	/experiments/AOT/AOT_stimuli/rescaled_final/0970_rv.mp4	0.0	254.63934898376465	0.09998703002929688
35	183.52391600608826	fix_pre	0		120	33.0	2.5	/experiments/AOT/AOT_stimuli/rescaled_final/0220_rv.mp4	0.0	254.73933601379395	1.000013828277588
35	184.10744881629944	pulse	0	t		33.0	2.5	/experiments/AOT/AOT_stimuli/rescaled_final/0220_rv.mp4	0.0	255.32286882400513	
35	184.52392983436584	movie	1		244	33.0	2.5	/experiments/AOT/AOT_stimuli/rescaled_final/0220_rv.mp4	0.0	255.73934984207153	2.49997615814209
35	185.70743799209595	pulse	1	t		33.0	2.5	/experiments/AOT/AOT_stimuli/rescaled_final/0220_rv.mp4	0.0	256.92285799980164	
35	187.02390599250793	fix_post	2		12	33.0	2.5	/experiments/AOT/AOT_stimuli/rescaled_final/0220_rv.mp4	0.0	258.2393260002136	0.09999895095825195
36	187.1239049434662	fix_pre	0		120	34.0	2.5	blank	1.0	258.3393249511719	0.9999818801879883
36	187.30740785598755	pulse	0	t		34.0	2.5	blank	1.0	258.52282786369324	
36	188.12388682365417	movie	1		300	34.0	2.5	blank	1.0	259.33930683135986	2.50004506111145
36	188.90734887123108	pulse	1	t		34.0	2.5	blank	1.0	260.12276887893677	
36	190.50737595558167	pulse	1	t		34.0	2.5	blank	1.0	261.72279596328735	
36	190.62393188476562	fix_post	2		12	34.0	2.5	blank	1.0	261.8393518924713	0.09995508193969727
37	190.72388696670532	fix_pre	0		120	35.0	2.5	/experiments/AOT/AOT_stimuli/rescaled_final/1626_fw.mp4	0.0	261.939306974411	1.0000038146972656
37	191.7238907814026	movie	1		244	35.0	2.5	/experiments/AOT/AOT_stimuli/rescaled_final/1626_fw.mp4	0.0	262.9393107891083	2.5005340576171875
37	192.10864996910095	pulse	1	t		35.0	2.5	/experiments/AOT/AOT_stimuli/rescaled_final/1626_fw.mp4	0.0	263.32406997680664	
37	193.70738291740417	pulse	1	t		35.0	2.5	/experiments/AOT/AOT_stimuli/rescaled_final/1626_fw.mp4	0.0	264.92280292510986	
37	194.22442483901978	fix_post	2		12	35.0	2.5	/experiments/AOT/AOT_stimuli/rescaled_final/1626_fw.mp4	0.0	265.43984484672546	0.09945917129516602
38	194.32388401031494	fix_pre	0		119	36.0	2.5	/experiments/AOT/AOT_stimuli/rescaled_final/0405_rv.mp4	0.0	265.53930401802063	0.9916248321533203
38	195.30737400054932	pulse	0	t		36.0	2.5	/experiments/AOT/AOT_stimuli/rescaled_final/0405_rv.mp4	0.0	266.522794008255	
38	195.31550884246826	movie	1		244	36.0	2.5	/experiments/AOT/AOT_stimuli/rescaled_final/0405_rv.mp4	0.0	266.53092885017395	2.50832200050354
38	196.9069368839264	pulse	1	t		36.0	2.5	/experiments/AOT/AOT_stimuli/rescaled_final/0405_rv.mp4	0.0	268.1223568916321	
38	197.8238308429718	fix_post	2		12	36.0	2.5	/experiments/AOT/AOT_stimuli/rescaled_final/0405_rv.mp4	0.0	269.0392508506775	0.099945068359375
39	197.92377591133118	fix_pre	0		120	37.0	2.5	/experiments/AOT/AOT_stimuli/rescaled_final/0171_fw.mp4	0.0	269.13919591903687	1.0001139640808105
39	198.50732684135437	pulse	0	t		37.0	2.5	/experiments/AOT/AOT_stimuli/rescaled_final/0171_fw.mp4	0.0	269.72274684906006	
39	198.923889875412	movie	1		242	37.0	2.5	/experiments/AOT/AOT_stimuli/rescaled_final/0171_fw.mp4	0.0	270.1393098831177	2.4999289512634277
39	200.1073718070984	pulse	1	t		37.0	2.5	/experiments/AOT/AOT_stimuli/rescaled_final/0171_fw.mp4	0.0	271.3227918148041	
39	201.42381882667542	fix_post	2		12	37.0	2.5	/experiments/AOT/AOT_stimuli/rescaled_final/0171_fw.mp4	0.0	272.6392388343811	0.10003018379211426
40	201.52384901046753	fix_pre	0		120	38.0	2.5	/experiments/AOT/AOT_stimuli/rescaled_final/1594_rv.mp4	0.0	272.7392690181732	0.9999549388885498
40	201.70733785629272	pulse	0	t		38.0	2.5	/experiments/AOT/AOT_stimuli/rescaled_final/1594_rv.mp4	0.0	272.9227578639984	
40	202.52380394935608	movie	1		245	38.0	2.5	/experiments/AOT/AOT_stimuli/rescaled_final/1594_rv.mp4	0.0	273.73922395706177	2.500067949295044
40	203.3073489665985	pulse	1	t		38.0	2.5	/experiments/AOT/AOT_stimuli/rescaled_final/1594_rv.mp4	0.0	274.5227689743042	
40	204.90727186203003	pulse	1	t		38.0	2.5	/experiments/AOT/AOT_stimuli/rescaled_final/1594_rv.mp4	0.0	276.1226918697357	
40	205.02387189865112	fix_post	2		12	38.0	2.5	/experiments/AOT/AOT_stimuli/rescaled_final/1594_rv.mp4	0.0	276.2392919063568	0.10001301765441895
41	205.12388491630554	fix_pre	0		120	39.0	2.5	/experiments/AOT/AOT_stimuli/rescaled_final/2004_fw.mp4	0.0	276.33930492401123	0.9998888969421387
41	206.12377381324768	movie	1		243	39.0	2.5	/experiments/AOT/AOT_stimuli/rescaled_final/2004_fw.mp4	0.0	277.33919382095337	2.499711036682129
41	206.5072739124298	pulse	1	t		39.0	2.5	/experiments/AOT/AOT_stimuli/rescaled_final/2004_fw.mp4	0.0	277.7226939201355	
41	208.10730385780334	pulse	1	t		39.0	2.5	/experiments/AOT/AOT_stimuli/rescaled_final/2004_fw.mp4	0.0	279.32272386550903	
41	208.6234848499298	fix_post	2		12	39.0	2.5	/experiments/AOT/AOT_stimuli/rescaled_final/2004_fw.mp4	0.0	279.8389048576355	0.10031294822692871
42	208.72379779815674	fix_pre	0		119	40.0	2.5	/experiments/AOT/AOT_stimuli/rescaled_final/0405_fw.mp4	0.0	279.9392178058624	0.991732120513916
42	209.70737099647522	pulse	0	t		40.0	2.5	/experiments/AOT/AOT_stimuli/rescaled_final/0405_fw.mp4	0.0	280.9227910041809	
42	209.71552991867065	movie	1		244	40.0	2.5	/experiments/AOT/AOT_stimuli/rescaled_final/0405_fw.mp4	0.0	280.93094992637634	2.5082859992980957
42	211.3076949119568	pulse	1	t		40.0	2.5	/experiments/AOT/AOT_stimuli/rescaled_final/0405_fw.mp4	0.0	282.5231149196625	
42	212.22381591796875	fix_post	2		12	40.0	2.5	/experiments/AOT/AOT_stimuli/rescaled_final/0405_fw.mp4	0.0	283.43923592567444	0.09999489784240723
43	212.32381081581116	fix_pre	0		120	41.0	2.5	/experiments/AOT/AOT_stimuli/rescaled_final/1332_rv.mp4	0.0	283.53923082351685	0.9999489784240723
43	212.90729689598083	pulse	0	t		41.0	2.5	/experiments/AOT/AOT_stimuli/rescaled_final/1332_rv.mp4	0.0	284.1227169036865	
43	213.32375979423523	movie	1		243	41.0	2.5	/experiments/AOT/AOT_stimuli/rescaled_final/1332_rv.mp4	0.0	284.5391798019409	2.500047206878662
43	214.50732278823853	pulse	1	t		41.0	2.5	/experiments/AOT/AOT_stimuli/rescaled_final/1332_rv.mp4	0.0	285.7227427959442	
43	215.8238070011139	fix_post	2		12	41.0	2.5	/experiments/AOT/AOT_stimuli/rescaled_final/1332_rv.mp4	0.0	287.0392270088196	0.09990787506103516
44	215.92371487617493	fix_pre	0		120	42.0	2.5	blank	1.0	287.1391348838806	1.0001099109649658
44	216.107186794281	pulse	0	t		42.0	2.5	blank	1.0	287.3226068019867	
44	216.9238247871399	movie	1		300	42.0	2.5	blank	1.0	288.1392447948456	2.49991512298584
44	217.70720195770264	pulse	1	t		42.0	2.5	blank	1.0	288.9226219654083	
44	219.30725598335266	pulse	1	t		42.0	2.5	blank	1.0	290.52267599105835	
44	219.42373991012573	fix_post	2		12	42.0	2.5	blank	1.0	290.6391599178314	0.09996294975280762
45	219.52370285987854	fix_pre	0		120	43.0	2.5	/experiments/AOT/AOT_stimuli/rescaled_final/1360_fw.mp4	0.0	290.73912286758423	1.0000250339508057
45	220.52372789382935	movie	1		243	43.0	2.5	/experiments/AOT/AOT_stimuli/rescaled_final/1360_fw.mp4	0.0	291.73914790153503	2.5001189708709717
45	220.9070029258728	pulse	1	t		43.0	2.5	/experiments/AOT/AOT_stimuli/rescaled_final/1360_fw.mp4	0.0	292.1224229335785	
45	222.50723695755005	pulse	1	t		43.0	2.5	/experiments/AOT/AOT_stimuli/rescaled_final/1360_fw.mp4	0.0	293.72265696525574	
45	223.02384686470032	fix_post	2		12	43.0	2.5	/experiments/AOT/AOT_stimuli/rescaled_final/1360_fw.mp4	0.0	294.239266872406	0.09984302520751953
46	223.12368988990784	fix_pre	0		119	44.0	2.5	/experiments/AOT/AOT_stimuli/rescaled_final/0682_fw.mp4	0.0	294.3391098976135	0.9917221069335938
46	224.10724782943726	pulse	0	t		44.0	2.5	/experiments/AOT/AOT_stimuli/rescaled_final/0682_fw.mp4	0.0	295.32266783714294	
46	224.11541199684143	movie	1		244	44.0	2.5	/experiments/AOT/AOT_stimuli/rescaled_final/0682_fw.mp4	0.0	295.3308320045471	2.5083119869232178
46	225.7075297832489	pulse	1	t		44.0	2.5	/experiments/AOT/AOT_stimuli/rescaled_final/0682_fw.mp4	0.0	296.9229497909546	
46	226.62372398376465	fix_post	2		12	44.0	2.5	/experiments/AOT/AOT_stimuli/rescaled_final/0682_fw.mp4	0.0	297.83914399147034	0.09998679161071777
47	226.72371077537537	fix_pre	0		120	45.0	2.5	/experiments/AOT/AOT_stimuli/rescaled_final/1343_rv.mp4	0.0	297.93913078308105	1.0000262260437012
47	227.30727195739746	pulse	0	t		45.0	2.5	/experiments/AOT/AOT_stimuli/rescaled_final/1343_rv.mp4	0.0	298.52269196510315	
47	227.72373700141907	movie	1		242	45.0	2.5	/experiments/AOT/AOT_stimuli/rescaled_final/1343_rv.mp4	0.0	298.93915700912476	2.4997987747192383
47	228.90727591514587	pulse	1	t		45.0	2.5	/experiments/AOT/AOT_stimuli/rescaled_final/1343_rv.mp4	0.0	300.12269592285156	
47	230.2235357761383	fix_post	2		12	45.0	2.5	/experiments/AOT/AOT_stimuli/rescaled_final/1343_rv.mp4	0.0	301.438955783844	0.10044503211975098
48	230.32398080825806	fix_pre	0		120	46.0	2.5	/experiments/AOT/AOT_stimuli/rescaled_final/0986_fw.mp4	0.0	301.53940081596375	0.9997661113739014
48	230.50762796401978	pulse	0	t		46.0	2.5	/experiments/AOT/AOT_stimuli/rescaled_final/0986_fw.mp4	0.0	301.72304797172546	
48	231.32374691963196	movie	1		246	46.0	2.5	/experiments/AOT/AOT_stimuli/rescaled_final/0986_fw.mp4	0.0	302.53916692733765	2.500032901763916
48	232.10716199874878	pulse	1	t		46.0	2.5	/experiments/AOT/AOT_stimuli/rescaled_final/0986_fw.mp4	0.0	303.32258200645447	
48	233.70676279067993	pulse	1	t		46.0	2.5	/experiments/AOT/AOT_stimuli/rescaled_final/0986_fw.mp4	0.0	304.9221827983856	
48	233.82377982139587	fix_post	2		12	46.0	2.5	/experiments/AOT/AOT_stimuli/rescaled_final/0986_fw.mp4	0.0	305.03919982910156	0.09995102882385254
49	233.92373085021973	fix_pre	0		120	47.0	2.5	blank	1.0	305.1391508579254	1.0000839233398438
49	234.92381477355957	movie	1		300	47.0	2.5	blank	1.0	306.13923478126526	2.4998390674591064
49	235.30713486671448	pulse	1	t		47.0	2.5	blank	1.0	306.52255487442017	
49	236.90710496902466	pulse	1	t		47.0	2.5	blank	1.0	308.12252497673035	
49	237.42365384101868	fix_post	2		12	47.0	2.5	blank	1.0	308.63907384872437	0.09995913505554199
50	237.52361297607422	fix_pre	0		119	48.0	2.5	/experiments/AOT/AOT_stimuli/rescaled_final/1141_fw.mp4	0.0	308.7390329837799	0.9916520118713379
50	238.50709891319275	pulse	0	t		48.0	2.5	/experiments/AOT/AOT_stimuli/rescaled_final/1141_fw.mp4	0.0	309.72251892089844	
50	238.51526498794556	movie	1		246	48.0	2.5	/experiments/AOT/AOT_stimuli/rescaled_final/1141_fw.mp4	0.0	309.73068499565125	2.5083229541778564
50	240.10711789131165	pulse	1	t		48.0	2.5	/experiments/AOT/AOT_stimuli/rescaled_final/1141_fw.mp4	0.0	311.32253789901733	
50	241.0235879421234	fix_post	2		12	48.0	2.5	/experiments/AOT/AOT_stimuli/rescaled_final/1141_fw.mp4	0.0	312.2390079498291	0.10006189346313477
51	241.12364983558655	fix_pre	0		120	49.0	2.5	/experiments/AOT/AOT_stimuli/rescaled_final/1348_rv.mp4	0.0	312.33906984329224	0.9999279975891113
51	241.70705199241638	pulse	0	t		49.0	2.5	/experiments/AOT/AOT_stimuli/rescaled_final/1348_rv.mp4	0.0	312.92247200012207	
51	242.12357783317566	movie	1		244	49.0	2.5	/experiments/AOT/AOT_stimuli/rescaled_final/1348_rv.mp4	0.0	313.33899784088135	2.5000360012054443
51	243.30717778205872	pulse	1	t		49.0	2.5	/experiments/AOT/AOT_stimuli/rescaled_final/1348_rv.mp4	0.0	314.5225977897644	
51	244.6236138343811	fix_post	2		12	49.0	2.5	/experiments/AOT/AOT_stimuli/rescaled_final/1348_rv.mp4	0.0	315.8390338420868	0.09996795654296875
52	244.72358179092407	fix_pre	0		120	50.0	2.5	/experiments/AOT/AOT_stimuli/rescaled_final/1522_rv.mp4	0.0	315.93900179862976	0.9999740123748779
52	244.9070508480072	pulse	0	t		50.0	2.5	/experiments/AOT/AOT_stimuli/rescaled_final/1522_rv.mp4	0.0	316.1224708557129	
52	245.72355580329895	movie	1		244	50.0	2.5	/experiments/AOT/AOT_stimuli/rescaled_final/1522_rv.mp4	0.0	316.93897581100464	2.5000760555267334
52	246.50710082054138	pulse	1	t		50.0	2.5	/experiments/AOT/AOT_stimuli/rescaled_final/1522_rv.mp4	0.0	317.72252082824707	
52	248.11546778678894	pulse	1	t		50.0	2.5	/experiments/AOT/AOT_stimuli/rescaled_final/1522_rv.mp4	0.0	319.33088779449463	
52	248.22363185882568	fix_post	2		12	50.0	2.5	/experiments/AOT/AOT_stimuli/rescaled_final/1522_rv.mp4	0.0	319.4390518665314	0.09999704360961914
53	248.3236289024353	fix_pre	0		120	51.0	2.5	/experiments/AOT/AOT_stimuli/rescaled_final/1267_rv.mp4	0.0	319.539048910141	0.9999620914459229
53	249.32359099388123	movie	1		245	51.0	2.5	/experiments/AOT/AOT_stimuli/rescaled_final/1267_rv.mp4	0.0	320.5390110015869	2.5000109672546387
53	249.7066638469696	pulse	1	t		51.0	2.5	/experiments/AOT/AOT_stimuli/rescaled_final/1267_rv.mp4	0.0	320.9220838546753	
53	251.30712580680847	pulse	1	t		51.0	2.5	/experiments/AOT/AOT_stimuli/rescaled_final/1267_rv.mp4	0.0	322.52254581451416	
53	251.82360196113586	fix_post	2		12	51.0	2.5	/experiments/AOT/AOT_stimuli/rescaled_final/1267_rv.mp4	0.0	323.03902196884155	0.0999758243560791
54	251.92357778549194	fix_pre	0		119	52.0	2.5	/experiments/AOT/AOT_stimuli/rescaled_final/2016_fw.mp4	0.0	323.13899779319763	0.9916701316833496
54	252.90709495544434	pulse	0	t		52.0	2.5	/experiments/AOT/AOT_stimuli/rescaled_final/2016_fw.mp4	0.0	324.12251496315	
54	252.9152479171753	movie	1		245	52.0	2.5	/experiments/AOT/AOT_stimuli/rescaled_final/2016_fw.mp4	0.0	324.130667924881	2.5082690715789795
54	254.50676584243774	pulse	1	t		52.0	2.5	/experiments/AOT/AOT_stimuli/rescaled_final/2016_fw.mp4	0.0	325.72218585014343	
54	255.42351698875427	fix_post	2		12	52.0	2.5	/experiments/AOT/AOT_stimuli/rescaled_final/2016_fw.mp4	0.0	326.63893699645996	0.10007500648498535
55	255.52359199523926	fix_pre	0		120	53.0	2.5	/experiments/AOT/AOT_stimuli/rescaled_final/0175_fw.mp4	0.0	326.73901200294495	0.9999918937683105
55	256.10704278945923	pulse	0	t		53.0	2.5	/experiments/AOT/AOT_stimuli/rescaled_final/0175_fw.mp4	0.0	327.3224627971649	
55	256.52358388900757	movie	1		245	53.0	2.5	/experiments/AOT/AOT_stimuli/rescaled_final/0175_fw.mp4	0.0	327.73900389671326	2.5000109672546387
55	257.7070589065552	pulse	1	t		53.0	2.5	/experiments/AOT/AOT_stimuli/rescaled_final/0175_fw.mp4	0.0	328.92247891426086	
55	259.0235948562622	fix_post	2		12	53.0	2.5	/experiments/AOT/AOT_stimuli/rescaled_final/0175_fw.mp4	0.0	330.2390148639679	0.09998202323913574
56	259.12357687950134	fix_pre	0		120	54.0	2.5	/experiments/AOT/AOT_stimuli/rescaled_final/0171_rv.mp4	0.0	330.33899688720703	0.9999899864196777
56	259.3070478439331	pulse	0	t		54.0	2.5	/experiments/AOT/AOT_stimuli/rescaled_final/0171_rv.mp4	0.0	330.5224678516388	
56	260.123566865921	movie	1		243	54.0	2.5	/experiments/AOT/AOT_stimuli/rescaled_final/0171_rv.mp4	0.0	331.3389868736267	2.500011920928955
56	260.90696597099304	pulse	1	t		54.0	2.5	/experiments/AOT/AOT_stimuli/rescaled_final/0171_rv.mp4	0.0	332.12238597869873	
56	262.5055878162384	pulse	1	t		54.0	2.5	/experiments/AOT/AOT_stimuli/rescaled_final/0171_rv.mp4	0.0	333.7210078239441	
56	262.62357878685	fix_post	2		12	54.0	2.5	/experiments/AOT/AOT_stimuli/rescaled_final/0171_rv.mp4	0.0	333.83899879455566	0.09996914863586426
57	262.72354793548584	fix_pre	0		120	55.0	2.5	/experiments/AOT/AOT_stimuli/rescaled_final/1253_fw.mp4	0.0	333.9389679431915	1.0001070499420166
57	263.72365498542786	movie	1		243	55.0	2.5	/experiments/AOT/AOT_stimuli/rescaled_final/1253_fw.mp4	0.0	334.93907499313354	2.4998879432678223
57	264.1067578792572	pulse	1	t		55.0	2.5	/experiments/AOT/AOT_stimuli/rescaled_final/1253_fw.mp4	0.0	335.3221778869629	
57	265.7069799900055	pulse	1	t		55.0	2.5	/experiments/AOT/AOT_stimuli/rescaled_final/1253_fw.mp4	0.0	336.9223999977112	
57	266.2235429286957	fix_post	2		12	55.0	2.5	/experiments/AOT/AOT_stimuli/rescaled_final/1253_fw.mp4	0.0	337.43896293640137	0.09996891021728516
58	266.32351183891296	fix_pre	0		119	56.0	2.5	blank	1.0	337.53893184661865	0.9919290542602539
58	267.30701184272766	pulse	0	t		56.0	2.5	blank	1.0	338.52243185043335	
58	267.3154408931732	movie	1		301	56.0	2.5	blank	1.0	338.5308609008789	2.50809907913208
58	268.9069199562073	pulse	1	t		56.0	2.5	blank	1.0	340.12233996391296	
58	269.8235399723053	fix_post	2		12	56.0	2.5	blank	1.0	341.038959980011	0.09989690780639648
59	269.9234368801117	fix_pre	0		120	57.0	2.5	/experiments/AOT/AOT_stimuli/rescaled_final/1456_rv.mp4	0.0	341.1388568878174	1.0000829696655273
59	270.50696086883545	pulse	0	t		57.0	2.5	/experiments/AOT/AOT_stimuli/rescaled_final/1456_rv.mp4	0.0	341.72238087654114	
59	270.9235198497772	movie	1		243	57.0	2.5	/experiments/AOT/AOT_stimuli/rescaled_final/1456_rv.mp4	0.0	342.1389398574829	2.5000200271606445
59	272.10708689689636	pulse	1	t		57.0	2.5	/experiments/AOT/AOT_stimuli/rescaled_final/1456_rv.mp4	0.0	343.32250690460205	
59	273.42353987693787	fix_post	2		12	57.0	2.5	/experiments/AOT/AOT_stimuli/rescaled_final/1456_rv.mp4	0.0	344.63895988464355	0.09993600845336914
60	273.52347588539124	fix_pre	0		120	58.0	2.5	/experiments/AOT/AOT_stimuli/rescaled_final/2004_fw.mp4	0.0	344.7388958930969	1.0000450611114502
60	273.70694494247437	pulse	0	t		58.0	2.5	/experiments/AOT/AOT_stimuli/rescaled_final/2004_fw.mp4	0.0	344.92236495018005	
60	274.5235209465027	movie	1		243	58.0	2.5	/experiments/AOT/AOT_stimuli/rescaled_final/2004_fw.mp4	0.0	345.7389409542084	2.4999659061431885
60	275.30692982673645	pulse	1	t		58.0	2.5	/experiments/AOT/AOT_stimuli/rescaled_final/2004_fw.mp4	0.0	346.52234983444214	
60	276.9054398536682	pulse	1	t		58.0	2.5	/experiments/AOT/AOT_stimuli/rescaled_final/2004_fw.mp4	0.0	348.1208598613739	
60	277.0234868526459	fix_post	2		12	58.0	2.5	/experiments/AOT/AOT_stimuli/rescaled_final/2004_fw.mp4	0.0	348.23890686035156	0.10006403923034668
61	277.1235508918762	fix_pre	0		120	59.0	2.5	/experiments/AOT/AOT_stimuli/rescaled_final/1526_fw.mp4	0.0	348.3389708995819	0.9999470710754395
61	278.12349796295166	movie	1		245	59.0	2.5	/experiments/AOT/AOT_stimuli/rescaled_final/1526_fw.mp4	0.0	349.33891797065735	2.500128984451294
61	278.5079138278961	pulse	1	t		59.0	2.5	/experiments/AOT/AOT_stimuli/rescaled_final/1526_fw.mp4	0.0	349.7233338356018	
61	280.10702300071716	pulse	1	t		59.0	2.5	/experiments/AOT/AOT_stimuli/rescaled_final/1526_fw.mp4	0.0	351.32244300842285	
61	280.62362694740295	fix_post	2		12	59.0	2.5	/experiments/AOT/AOT_stimuli/rescaled_final/1526_fw.mp4	0.0	351.83904695510864	0.09978294372558594
62	280.72340989112854	fix_pre	0		119	60.0	2.5	/experiments/AOT/AOT_stimuli/rescaled_final/1683_fw.mp4	0.0	351.93882989883423	0.991786003112793
62	281.70687985420227	pulse	0	t		60.0	2.5	/experiments/AOT/AOT_stimuli/rescaled_final/1683_fw.mp4	0.0	352.92229986190796	
62	281.71519589424133	movie	1		245	60.0	2.5	/experiments/AOT/AOT_stimuli/rescaled_final/1683_fw.mp4	0.0	352.930615901947	2.50787091255188
62	283.3066039085388	pulse	1	t		60.0	2.5	/experiments/AOT/AOT_stimuli/rescaled_final/1683_fw.mp4	0.0	354.5220239162445	
62	284.2230668067932	fix_post	2		12	60.0	2.5	/experiments/AOT/AOT_stimuli/rescaled_final/1683_fw.mp4	0.0	355.4384868144989	0.10036206245422363
63	284.32342886924744	fix_pre	0		120	61.0	2.5	/experiments/AOT/AOT_stimuli/rescaled_final/1200_fw.mp4	0.0	355.5388488769531	0.9996960163116455
63	284.9065718650818	pulse	0	t		61.0	2.5	/experiments/AOT/AOT_stimuli/rescaled_final/1200_fw.mp4	0.0	356.1219918727875	
63	285.3231248855591	movie	1		243	61.0	2.5	/experiments/AOT/AOT_stimuli/rescaled_final/1200_fw.mp4	0.0	356.53854489326477	2.500520944595337
63	286.50720596313477	pulse	1	t		61.0	2.5	/experiments/AOT/AOT_stimuli/rescaled_final/1200_fw.mp4	0.0	357.72262597084045	
63	287.8236458301544	fix_post	2		12	61.0	2.5	/experiments/AOT/AOT_stimuli/rescaled_final/1200_fw.mp4	0.0	359.0390658378601	0.09980297088623047
64	287.92344880104065	fix_pre	0		120	62.0	2.5	blank	1.0	359.13886880874634	0.9999310970306396
64	288.1070168018341	pulse	0	t		62.0	2.5	blank	1.0	359.3224368095398	
64	288.9233798980713	movie	1		300	62.0	2.5	blank	1.0	360.138799905777	2.5000650882720947
64	289.7069218158722	pulse	1	t		62.0	2.5	blank	1.0	360.9223418235779	
64	291.3068850040436	pulse	1	t		62.0	2.5	blank	1.0	362.52230501174927	
64	291.4234449863434	fix_post	2		12	62.0	2.5	blank	1.0	362.6388649940491	0.09987998008728027
65	291.52332496643066	fix_pre	0		120	63.0	2.5	/experiments/AOT/AOT_stimuli/rescaled_final/1981_rv.mp4	0.0	362.73874497413635	1.0001749992370605
65	292.5234999656677	movie	1		244	63.0	2.5	/experiments/AOT/AOT_stimuli/rescaled_final/1981_rv.mp4	0.0	363.7389199733734	2.4998838901519775
65	292.90672397613525	pulse	1	t		63.0	2.5	/experiments/AOT/AOT_stimuli/rescaled_final/1981_rv.mp4	0.0	364.12214398384094	
65	294.5067358016968	pulse	1	t		63.0	2.5	/experiments/AOT/AOT_stimuli/rescaled_final/1981_rv.mp4	0.0	365.72215580940247	
65	295.0233838558197	fix_post	2		12	63.0	2.5	/experiments/AOT/AOT_stimuli/rescaled_final/1981_rv.mp4	0.0	366.2388038635254	0.09998393058776855
66	295.12336778640747	fix_pre	0		119	64.0	2.5	/experiments/AOT/AOT_stimuli/rescaled_final/1145_fw.mp4	0.0	366.33878779411316	0.9916682243347168
66	296.1068208217621	pulse	0	t		64.0	2.5	/experiments/AOT/AOT_stimuli/rescaled_final/1145_fw.mp4	0.0	367.3222408294678	
66	296.1150360107422	movie	1		249	64.0	2.5	/experiments/AOT/AOT_stimuli/rescaled_final/1145_fw.mp4	0.0	367.3304560184479	2.508382797241211
66	297.7065968513489	pulse	1	t		64.0	2.5	/experiments/AOT/AOT_stimuli/rescaled_final/1145_fw.mp4	0.0	368.92201685905457	
66	298.6234188079834	fix_post	2		12	64.0	2.5	/experiments/AOT/AOT_stimuli/rescaled_final/1145_fw.mp4	0.0	369.8388388156891	0.09995198249816895
67	298.72337079048157	fix_pre	0		120	65.0	2.5	/experiments/AOT/AOT_stimuli/rescaled_final/2057_rv.mp4	0.0	369.93879079818726	1.0000331401824951
67	299.30680894851685	pulse	0	t		65.0	2.5	/experiments/AOT/AOT_stimuli/rescaled_final/2057_rv.mp4	0.0	370.52222895622253	
67	299.72340393066406	movie	1		245	65.0	2.5	/experiments/AOT/AOT_stimuli/rescaled_final/2057_rv.mp4	0.0	370.93882393836975	2.50004506111145
67	300.90687799453735	pulse	1	t		65.0	2.5	/experiments/AOT/AOT_stimuli/rescaled_final/2057_rv.mp4	0.0	372.12229800224304	
67	302.2234489917755	fix_post	2		12	65.0	2.5	/experiments/AOT/AOT_stimuli/rescaled_final/2057_rv.mp4	0.0	373.4388689994812	0.09990096092224121
68	302.32334995269775	fix_pre	0		120	66.0	2.5	/experiments/AOT/AOT_stimuli/rescaled_final/0753_fw.mp4	0.0	373.53876996040344	1.000025987625122
68	302.50680685043335	pulse	0	t		66.0	2.5	/experiments/AOT/AOT_stimuli/rescaled_final/0753_fw.mp4	0.0	373.72222685813904	
68	303.3233759403229	movie	1		247	66.0	2.5	/experiments/AOT/AOT_stimuli/rescaled_final/0753_fw.mp4	0.0	374.53879594802856	2.5000219345092773
68	304.10668992996216	pulse	1	t		66.0	2.5	/experiments/AOT/AOT_stimuli/rescaled_final/0753_fw.mp4	0.0	375.32210993766785	
68	305.7067840099335	pulse	1	t		66.0	2.5	/experiments/AOT/AOT_stimuli/rescaled_final/0753_fw.mp4	0.0	376.92220401763916	
68	305.82339787483215	fix_post	2		12	66.0	2.5	/experiments/AOT/AOT_stimuli/rescaled_final/0753_fw.mp4	0.0	377.03881788253784	0.09988212585449219
69	305.92328000068665	fix_pre	0		120	67.0	2.5	/experiments/AOT/AOT_stimuli/rescaled_final/1481_fw.mp4	0.0	377.13870000839233	1.000032901763916
69	306.92331290245056	movie	1		243	67.0	2.5	/experiments/AOT/AOT_stimuli/rescaled_final/1481_fw.mp4	0.0	378.13873291015625	2.4999990463256836
69	307.3064868450165	pulse	1	t		67.0	2.5	/experiments/AOT/AOT_stimuli/rescaled_final/1481_fw.mp4	0.0	378.52190685272217	
69	308.90671586990356	pulse	1	t		67.0	2.5	/experiments/AOT/AOT_stimuli/rescaled_final/1481_fw.mp4	0.0	380.12213587760925	
69	309.42331194877625	fix_post	2		12	67.0	2.5	/experiments/AOT/AOT_stimuli/rescaled_final/1481_fw.mp4	0.0	380.63873195648193	0.09995794296264648
70	309.5232698917389	fix_pre	0		119	68.0	2.5	/experiments/AOT/AOT_stimuli/rescaled_final/1510_fw.mp4	0.0	380.7386898994446	0.9916980266571045
70	310.5067129135132	pulse	0	t		68.0	2.5	/experiments/AOT/AOT_stimuli/rescaled_final/1510_fw.mp4	0.0	381.7221329212189	
70	310.514967918396	movie	1		243	68.0	2.5	/experiments/AOT/AOT_stimuli/rescaled_final/1510_fw.mp4	0.0	381.7303879261017	2.5084168910980225
70	312.10834789276123	pulse	1	t		68.0	2.5	/experiments/AOT/AOT_stimuli/rescaled_final/1510_fw.mp4	0.0	383.3237679004669	
70	313.023384809494	fix_post	2		11	68.0	2.5	/experiments/AOT/AOT_stimuli/rescaled_final/1510_fw.mp4	0.0	384.2388048171997	0.10000205039978027
71	313.1233868598938	fix_pre	0		120	69.0	2.5	/experiments/AOT/AOT_stimuli/rescaled_final/1041_rv.mp4	0.0	384.3388068675995	0.9999279975891113
71	313.70682191848755	pulse	0	t		69.0	2.5	/experiments/AOT/AOT_stimuli/rescaled_final/1041_rv.mp4	0.0	384.92224192619324	
71	314.1233148574829	movie	1		244	69.0	2.5	/experiments/AOT/AOT_stimuli/rescaled_final/1041_rv.mp4	0.0	385.3387348651886	2.4999959468841553
71	315.3068528175354	pulse	1	t		69.0	2.5	/experiments/AOT/AOT_stimuli/rescaled_final/1041_rv.mp4	0.0	386.5222728252411	
71	316.62331080436707	fix_post	2		12	69.0	2.5	/experiments/AOT/AOT_stimuli/rescaled_final/1041_rv.mp4	0.0	387.83873081207275	0.0999760627746582
72	316.7232868671417	fix_pre	0		120	70.0	2.5	blank	1.0	387.9387068748474	0.9999210834503174
72	316.90671491622925	pulse	0	t		70.0	2.5	blank	1.0	388.12213492393494	
72	317.72320795059204	movie	1		300	70.0	2.5	blank	1.0	388.93862795829773	2.500009059906006
72	318.5067489147186	pulse	1	t		70.0	2.5	blank	1.0	389.7221689224243	
72	320.1067409515381	pulse	1	t		70.0	2.5	blank	1.0	391.3221609592438	
72	320.22321701049805	fix_post	2		12	70.0	2.5	blank	1.0	391.43863701820374	0.10000276565551758
73	320.32321977615356	fix_pre	0		120	71.0	2.5	/experiments/AOT/AOT_stimuli/rescaled_final/1241_fw.mp4	0.0	391.53863978385925	1.0000011920928955
73	321.32322096824646	movie	1		246	71.0	2.5	/experiments/AOT/AOT_stimuli/rescaled_final/1241_fw.mp4	0.0	392.53864097595215	2.5000808238983154
73	321.7066447734833	pulse	1	t		71.0	2.5	/experiments/AOT/AOT_stimuli/rescaled_final/1241_fw.mp4	0.0	392.92206478118896	
73	323.3067879676819	pulse	1	t		71.0	2.5	/experiments/AOT/AOT_stimuli/rescaled_final/1241_fw.mp4	0.0	394.5222079753876	
73	323.8233017921448	fix_post	2		12	71.0	2.5	/experiments/AOT/AOT_stimuli/rescaled_final/1241_fw.mp4	0.0	395.03872179985046	0.1000361442565918
74	323.92333793640137	fix_pre	0		119	72.0	2.5	/experiments/AOT/AOT_stimuli/rescaled_final/1829_fw.mp4	0.0	395.13875794410706	0.9915928840637207
74	324.90670895576477	pulse	0	t		72.0	2.5	/experiments/AOT/AOT_stimuli/rescaled_final/1829_fw.mp4	0.0	396.12212896347046	
74	324.9149308204651	movie	1		247	72.0	2.5	/experiments/AOT/AOT_stimuli/rescaled_final/1829_fw.mp4	0.0	396.1303508281708	2.508270025253296
74	326.50682377815247	pulse	1	t		72.0	2.5	/experiments/AOT/AOT_stimuli/rescaled_final/1829_fw.mp4	0.0	397.72224378585815	
74	327.4232008457184	fix_post	2		12	72.0	2.5	/experiments/AOT/AOT_stimuli/rescaled_final/1829_fw.mp4	0.0	398.6386208534241	0.0999910831451416
75	327.5231919288635	fix_pre	0		120	73.0	2.5	/experiments/AOT/AOT_stimuli/rescaled_final/2113_fw.mp4	0.0	398.7386119365692	1.0000979900360107
75	328.1066689491272	pulse	0	t		73.0	2.5	/experiments/AOT/AOT_stimuli/rescaled_final/2113_fw.mp4	0.0	399.3220889568329	
75	328.52328991889954	movie	1		245	73.0	2.5	/experiments/AOT/AOT_stimuli/rescaled_final/2113_fw.mp4	0.0	399.7387099266052	2.499891996383667
75	329.70671796798706	pulse	1	t		73.0	2.5	/experiments/AOT/AOT_stimuli/rescaled_final/2113_fw.mp4	0.0	400.92213797569275	
75	331.0231819152832	fix_post	2		12	73.0	2.5	/experiments/AOT/AOT_stimuli/rescaled_final/2113_fw.mp4	0.0	402.2386019229889	0.10001802444458008
76	331.1231999397278	fix_pre	0		120	74.0	2.5	/experiments/AOT/AOT_stimuli/rescaled_final/0389_rv.mp4	0.0	402.3386199474335	1.0000338554382324
76	331.30671286582947	pulse	0	t		74.0	2.5	/experiments/AOT/AOT_stimuli/rescaled_final/0389_rv.mp4	0.0	402.52213287353516	
76	332.123233795166	movie	1		245	74.0	2.5	/experiments/AOT/AOT_stimuli/rescaled_final/0389_rv.mp4	0.0	403.3386538028717	2.4999940395355225
76	332.9065628051758	pulse	1	t		74.0	2.5	/experiments/AOT/AOT_stimuli/rescaled_final/0389_rv.mp4	0.0	404.12198281288147	
76	334.5067059993744	pulse	1	t		74.0	2.5	/experiments/AOT/AOT_stimuli/rescaled_final/0389_rv.mp4	0.0	405.7221260070801	
76	334.62322783470154	fix_post	2		12	74.0	2.5	/experiments/AOT/AOT_stimuli/rescaled_final/0389_rv.mp4	0.0	405.8386478424072	0.09994196891784668
77	334.7231698036194	fix_pre	0		120	75.0	2.5	blank	1.0	405.9385898113251	1.0000250339508057
77	335.7231948375702	movie	1		300	75.0	2.5	blank	1.0	406.9386148452759	2.4999489784240723
77	336.10662293434143	pulse	1	t		75.0	2.5	blank	1.0	407.3220429420471	
77	337.7066299915314	pulse	1	t		75.0	2.5	blank	1.0	408.92204999923706	
77	338.22314381599426	fix_post	2		12	75.0	2.5	blank	1.0	409.43856382369995	0.1001741886138916
78	338.32331800460815	fix_pre	0		119	76.0	2.5	/experiments/AOT/AOT_stimuli/rescaled_final/0046_rv.mp4	0.0	409.53873801231384	0.9911158084869385
78	339.306174993515	pulse	0	t		76.0	2.5	/experiments/AOT/AOT_stimuli/rescaled_final/0046_rv.mp4	0.0	410.5215950012207	
78	339.3144338130951	movie	1		246	76.0	2.5	/experiments/AOT/AOT_stimuli/rescaled_final/0046_rv.mp4	0.0	410.5298538208008	2.5089850425720215
78	340.90554094314575	pulse	1	t		76.0	2.5	/experiments/AOT/AOT_stimuli/rescaled_final/0046_rv.mp4	0.0	412.12096095085144	
78	341.8234188556671	fix_post	2		12	76.0	2.5	/experiments/AOT/AOT_stimuli/rescaled_final/0046_rv.mp4	0.0	413.0388388633728	0.09955096244812012
79	341.92296981811523	fix_pre	0		120	77.0	2.5	/experiments/AOT/AOT_stimuli/rescaled_final/1328_fw.mp4	0.0	413.1383898258209	1.0001881122589111
79	342.506502866745	pulse	0	t		77.0	2.5	/experiments/AOT/AOT_stimuli/rescaled_final/1328_fw.mp4	0.0	413.7219228744507	
79	342.92315793037415	movie	1		245	77.0	2.5	/experiments/AOT/AOT_stimuli/rescaled_final/1328_fw.mp4	0.0	414.13857793807983	2.4999799728393555
79	344.10665488243103	pulse	1	t		77.0	2.5	/experiments/AOT/AOT_stimuli/rescaled_final/1328_fw.mp4	0.0	415.3220748901367	
79	345.4231379032135	fix_post	2		12	77.0	2.5	/experiments/AOT/AOT_stimuli/rescaled_final/1328_fw.mp4	0.0	416.6385579109192	0.09999799728393555
80	345.52313590049744	fix_pre	0		120	78.0	2.5	/experiments/AOT/AOT_stimuli/rescaled_final/1458_fw.mp4	0.0	416.7385559082031	0.9999599456787109
80	345.7065908908844	pulse	0	t		78.0	2.5	/experiments/AOT/AOT_stimuli/rescaled_final/1458_fw.mp4	0.0	416.9220108985901	
80	346.52309584617615	movie	1		246	78.0	2.5	/experiments/AOT/AOT_stimuli/rescaled_final/1458_fw.mp4	0.0	417.73851585388184	2.499994993209839
80	347.30656480789185	pulse	1	t		78.0	2.5	/experiments/AOT/AOT_stimuli/rescaled_final/1458_fw.mp4	0.0	418.52198481559753	
80	348.91506481170654	pulse	1	t		78.0	2.5	/experiments/AOT/AOT_stimuli/rescaled_final/1458_fw.mp4	0.0	420.13048481941223	
80	349.023090839386	fix_post	2		12	78.0	2.5	/experiments/AOT/AOT_stimuli/rescaled_final/1458_fw.mp4	0.0	420.2385108470917	0.09996795654296875
81	349.12305879592896	fix_pre	0		120	79.0	2.5	/experiments/AOT/AOT_stimuli/rescaled_final/1037_fw.mp4	0.0	420.33847880363464	1.0000801086425781
81	350.12313890457153	movie	1		244	79.0	2.5	/experiments/AOT/AOT_stimuli/rescaled_final/1037_fw.mp4	0.0	421.3385589122772	2.4999399185180664
81	350.50743889808655	pulse	1	t		79.0	2.5	/experiments/AOT/AOT_stimuli/rescaled_final/1037_fw.mp4	0.0	421.72285890579224	
81	352.10647797584534	pulse	1	t		79.0	2.5	/experiments/AOT/AOT_stimuli/rescaled_final/1037_fw.mp4	0.0	423.321897983551	
81	352.6230788230896	fix_post	2		12	79.0	2.5	/experiments/AOT/AOT_stimuli/rescaled_final/1037_fw.mp4	0.0	423.8384988307953	0.10000014305114746
82	352.72307896614075	fix_pre	0		119	80.0	2.5	/experiments/AOT/AOT_stimuli/rescaled_final/1185_fw.mp4	0.0	423.93849897384644	0.9917008876800537
82	353.7065489292145	pulse	0	t		80.0	2.5	/experiments/AOT/AOT_stimuli/rescaled_final/1185_fw.mp4	0.0	424.92196893692017	
82	353.7147798538208	movie	1		248	80.0	2.5	/experiments/AOT/AOT_stimuli/rescaled_final/1185_fw.mp4	0.0	424.9301998615265	2.5083250999450684
82	355.3060348033905	pulse	1	t		80.0	2.5	/experiments/AOT/AOT_stimuli/rescaled_final/1185_fw.mp4	0.0	426.5214548110962	
82	356.22310495376587	fix_post	2		12	80.0	2.5	/experiments/AOT/AOT_stimuli/rescaled_final/1185_fw.mp4	0.0	427.43852496147156	0.09997987747192383
83	356.3230848312378	fix_pre	0		120	81.0	2.5	/experiments/AOT/AOT_stimuli/rescaled_final/2035_fw.mp4	0.0	427.5385048389435	0.9999911785125732
83	356.9065330028534	pulse	0	t		81.0	2.5	/experiments/AOT/AOT_stimuli/rescaled_final/2035_fw.mp4	0.0	428.1219530105591	
83	357.32307600975037	movie	1		244	81.0	2.5	/experiments/AOT/AOT_stimuli/rescaled_final/2035_fw.mp4	0.0	428.53849601745605	2.4999938011169434
83	358.5065908432007	pulse	1	t		81.0	2.5	/experiments/AOT/AOT_stimuli/rescaled_final/2035_fw.mp4	0.0	429.7220108509064	
83	359.8230698108673	fix_post	2		12	81.0	2.5	/experiments/AOT/AOT_stimuli/rescaled_final/2035_fw.mp4	0.0	431.038489818573	0.10003900527954102
84	359.92310881614685	fix_pre	0		120	82.0	2.5	/experiments/AOT/AOT_stimuli/rescaled_final/1711_rv.mp4	0.0	431.13852882385254	1.0000290870666504
84	360.10651993751526	pulse	0	t		82.0	2.5	/experiments/AOT/AOT_stimuli/rescaled_final/1711_rv.mp4	0.0	431.32193994522095	
84	360.9231379032135	movie	1		244	82.0	2.5	/experiments/AOT/AOT_stimuli/rescaled_final/1711_rv.mp4	0.0	432.1385579109192	2.499903917312622
84	361.7064549922943	pulse	1	t		82.0	2.5	/experiments/AOT/AOT_stimuli/rescaled_final/1711_rv.mp4	0.0	432.921875	
84	363.3147838115692	pulse	1	t		82.0	2.5	/experiments/AOT/AOT_stimuli/rescaled_final/1711_rv.mp4	0.0	434.5302038192749	
84	363.4230418205261	fix_post	2		12	82.0	2.5	/experiments/AOT/AOT_stimuli/rescaled_final/1711_rv.mp4	0.0	434.6384618282318	0.10006499290466309
85	363.5231068134308	fix_pre	0		120	83.0	2.5	blank	1.0	434.7385268211365	0.999946117401123
85	364.5230529308319	movie	1		300	83.0	2.5	blank	1.0	435.7384729385376	2.5000228881835938
85	364.90646481513977	pulse	1	t		83.0	2.5	blank	1.0	436.12188482284546	
85	366.50647377967834	pulse	1	t		83.0	2.5	blank	1.0	437.72189378738403	
85	367.0230758190155	fix_post	2		12	83.0	2.5	blank	1.0	438.2384958267212	0.09990096092224121
87	367.12297677993774	stim	0		1716					438.33839678764343	14.299979209899902
87	368.10647892951965	pulse	0	t						439.32189893722534	
87	369.70652079582214	pulse	0	t						440.92194080352783	
87	371.30641293525696	pulse	0	t						442.52183294296265	
87	372.9064497947693	pulse	0	t						444.121869802475	
87	374.50635981559753	pulse	0	t						445.7217798233032	
87	376.10638093948364	pulse	0	t						447.32180094718933	
87	377.70640087127686	pulse	0	t						448.92182087898254	
87	379.3064329624176	pulse	0	t						450.5218529701233	
87	380.90644884109497	pulse	0	t						452.12186884880066	
