trial_nr	onset	event_type	phase	response	nr_frames	movie_index	movie_duration	movie_file	blank	onset_abs	duration
0	0.2082369327545166	stim	0		31					21.76493191719055	0.2583451271057129
0	0.4586000442504883	response	0	space						22.015295028686523	
1	0.4665820598602295	stim	0		4785					22.023277044296265	39.900197982788086
1	40.336843967437744	pulse	0	t						61.89353895187378	
1	40.366780042648315	stim	1		1716					61.92347502708435	14.299522876739502
1	41.93216109275818	pulse	1	t						63.488856077194214	
1	43.531495094299316	pulse	1	t						65.08819007873535	
1	45.13159394264221	pulse	1	t						66.68828892707825	
1	46.7319610118866	pulse	1	t						68.28865599632263	
1	48.33215594291687	pulse	1	t						69.8888509273529	
1	49.932337045669556	pulse	1	t						71.48903203010559	
1	51.532553911209106	pulse	1	t						73.08924889564514	
1	53.13288402557373	pulse	1	t						74.68957901000977	
2	54.66630291938782	fix_pre	0		9	0.0	2.5	/experiments/knapen_AOT/AOT_stimuli/rescaled_final/1536_rv.mp4	0.0	76.22299790382385	0.07498598098754883
2	54.73319602012634	pulse	0	t		0.0	2.5	/experiments/knapen_AOT/AOT_stimuli/rescaled_final/1536_rv.mp4	0.0	76.28989100456238	
2	54.741288900375366	movie	1		243	0.0	2.5	/experiments/knapen_AOT/AOT_stimuli/rescaled_final/1536_rv.mp4	0.0	76.2979838848114	2.5087411403656006
2	56.3338189125061	pulse	1	t		0.0	2.5	/experiments/knapen_AOT/AOT_stimuli/rescaled_final/1536_rv.mp4	0.0	77.89051389694214	
2	57.25003004074097	fix_post	2		12	0.0	2.5	/experiments/knapen_AOT/AOT_stimuli/rescaled_final/1536_rv.mp4	0.0	78.806725025177	0.09997701644897461
3	57.35000705718994	fix_pre	0		120	1.0	2.5	/experiments/knapen_AOT/AOT_stimuli/rescaled_final/1931_fw.mp4	0.0	78.90670204162598	1.0001330375671387
3	57.93371295928955	pulse	0	t		1.0	2.5	/experiments/knapen_AOT/AOT_stimuli/rescaled_final/1931_fw.mp4	0.0	79.49040794372559	
3	58.35014009475708	movie	1		243	1.0	2.5	/experiments/knapen_AOT/AOT_stimuli/rescaled_final/1931_fw.mp4	0.0	79.90683507919312	2.50040602684021
3	59.533940076828	pulse	1	t		1.0	2.5	/experiments/knapen_AOT/AOT_stimuli/rescaled_final/1931_fw.mp4	0.0	81.09063506126404	
3	60.85054612159729	fix_post	2		12	1.0	2.5	/experiments/knapen_AOT/AOT_stimuli/rescaled_final/1931_fw.mp4	0.0	82.40724110603333	0.10001182556152344
4	60.95055794715881	fix_pre	0		120	2.0	2.5	/experiments/knapen_AOT/AOT_stimuli/rescaled_final/1322_fw.mp4	0.0	82.50725293159485	1.0001740455627441
4	61.13417100906372	pulse	0	t		2.0	2.5	/experiments/knapen_AOT/AOT_stimuli/rescaled_final/1322_fw.mp4	0.0	82.69086599349976	
4	61.95073199272156	movie	1		246	2.0	2.5	/experiments/knapen_AOT/AOT_stimuli/rescaled_final/1322_fw.mp4	0.0	83.50742697715759	2.5003509521484375
4	62.73438000679016	pulse	1	t		2.0	2.5	/experiments/knapen_AOT/AOT_stimuli/rescaled_final/1322_fw.mp4	0.0	84.2910749912262	
4	64.33467102050781	pulse	1	t		2.0	2.5	/experiments/knapen_AOT/AOT_stimuli/rescaled_final/1322_fw.mp4	0.0	85.89136600494385	
4	64.45108294487	fix_post	2		12	2.0	2.5	/experiments/knapen_AOT/AOT_stimuli/rescaled_final/1322_fw.mp4	0.0	86.00777792930603	0.09999418258666992
5	64.55107712745667	fix_pre	0		120	3.0	2.5	/experiments/knapen_AOT/AOT_stimuli/rescaled_final/1322_rv.mp4	0.0	86.1077721118927	1.000128984451294
5	65.55120611190796	movie	1		243	3.0	2.5	/experiments/knapen_AOT/AOT_stimuli/rescaled_final/1322_rv.mp4	0.0	87.107901096344	2.4920849800109863
5	65.93541812896729	pulse	1	t		3.0	2.5	/experiments/knapen_AOT/AOT_stimuli/rescaled_final/1322_rv.mp4	0.0	87.49211311340332	
5	67.53512191772461	pulse	1	t		3.0	2.5	/experiments/knapen_AOT/AOT_stimuli/rescaled_final/1322_rv.mp4	0.0	89.09181690216064	
5	68.04329109191895	fix_post	2		12	3.0	2.5	/experiments/knapen_AOT/AOT_stimuli/rescaled_final/1322_rv.mp4	0.0	89.59998607635498	0.09997200965881348
6	68.14326310157776	fix_pre	0		120	4.0	2.5	/experiments/knapen_AOT/AOT_stimuli/rescaled_final/0259_rv.mp4	0.0	89.6999580860138	1.000213861465454
6	69.13534712791443	pulse	0	t		4.0	2.5	/experiments/knapen_AOT/AOT_stimuli/rescaled_final/0259_rv.mp4	0.0	90.69204211235046	
6	69.14347696304321	movie	1		245	4.0	2.5	/experiments/knapen_AOT/AOT_stimuli/rescaled_final/0259_rv.mp4	0.0	90.70017194747925	2.508669137954712
6	70.73618412017822	pulse	1	t		4.0	2.5	/experiments/knapen_AOT/AOT_stimuli/rescaled_final/0259_rv.mp4	0.0	92.29287910461426	
6	71.65214610099792	fix_post	2		12	4.0	2.5	/experiments/knapen_AOT/AOT_stimuli/rescaled_final/0259_rv.mp4	0.0	93.20884108543396	0.09998703002929688
7	71.75213313102722	fix_pre	0		120	5.0	2.5	blank	1.0	93.30882811546326	1.0002098083496094
7	72.33581399917603	pulse	0	t		5.0	2.5	blank	1.0	93.89250898361206	
7	72.75234293937683	movie	1		300	5.0	2.5	blank	1.0	94.30903792381287	2.500352144241333
7	73.93605995178223	pulse	1	t		5.0	2.5	blank	1.0	95.49275493621826	
7	75.25269508361816	fix_post	2		12	5.0	2.5	blank	1.0	96.8093900680542	0.0999748706817627
8	75.35266995429993	fix_pre	0		120	6.0	2.5	/experiments/knapen_AOT/AOT_stimuli/rescaled_final/0721_fw.mp4	0.0	96.90936493873596	1.0002601146697998
8	75.53624200820923	pulse	0	t		6.0	2.5	/experiments/knapen_AOT/AOT_stimuli/rescaled_final/0721_fw.mp4	0.0	97.09293699264526	
8	76.35293006896973	movie	1		245	6.0	2.5	/experiments/knapen_AOT/AOT_stimuli/rescaled_final/0721_fw.mp4	0.0	97.90962505340576	2.500359058380127
8	77.13650512695312	pulse	1	t		6.0	2.5	/experiments/knapen_AOT/AOT_stimuli/rescaled_final/0721_fw.mp4	0.0	98.69320011138916	
8	78.7344560623169	pulse	1	t		6.0	2.5	/experiments/knapen_AOT/AOT_stimuli/rescaled_final/0721_fw.mp4	0.0	100.29115104675293	
8	78.85328912734985	fix_post	2		12	6.0	2.5	/experiments/knapen_AOT/AOT_stimuli/rescaled_final/0721_fw.mp4	0.0	100.40998411178589	0.09993577003479004
9	78.95322489738464	fix_pre	0		120	7.0	2.5	/experiments/knapen_AOT/AOT_stimuli/rescaled_final/0514_rv.mp4	0.0	100.50991988182068	1.0001561641693115
9	79.95338106155396	movie	1		243	7.0	2.5	/experiments/knapen_AOT/AOT_stimuli/rescaled_final/0514_rv.mp4	0.0	101.51007604598999	2.49210786819458
9	80.3383378982544	pulse	1	t		7.0	2.5	/experiments/knapen_AOT/AOT_stimuli/rescaled_final/0514_rv.mp4	0.0	101.89503288269043	
9	81.93726992607117	pulse	1	t		7.0	2.5	/experiments/knapen_AOT/AOT_stimuli/rescaled_final/0514_rv.mp4	0.0	103.4939649105072	
9	82.44548892974854	fix_post	2		12	7.0	2.5	/experiments/knapen_AOT/AOT_stimuli/rescaled_final/0514_rv.mp4	0.0	104.00218391418457	0.10000205039978027
10	82.54549098014832	fix_pre	0		120	8.0	2.5	/experiments/knapen_AOT/AOT_stimuli/rescaled_final/1668_fw.mp4	0.0	104.10218596458435	1.0001039505004883
10	83.53744792938232	pulse	0	t		8.0	2.5	/experiments/knapen_AOT/AOT_stimuli/rescaled_final/1668_fw.mp4	0.0	105.09414291381836	
10	83.5455949306488	movie	1		241	8.0	2.5	/experiments/knapen_AOT/AOT_stimuli/rescaled_final/1668_fw.mp4	0.0	105.10228991508484	2.508726119995117
10	85.13882112503052	pulse	1	t		8.0	2.5	/experiments/knapen_AOT/AOT_stimuli/rescaled_final/1668_fw.mp4	0.0	106.69551610946655	
10	86.05432105064392	fix_post	2		12	8.0	2.5	/experiments/knapen_AOT/AOT_stimuli/rescaled_final/1668_fw.mp4	0.0	107.61101603507996	0.09997987747192383
11	86.15430092811584	fix_pre	0		120	9.0	2.5	/experiments/knapen_AOT/AOT_stimuli/rescaled_final/0405_rv.mp4	0.0	107.71099591255188	1.000143051147461
11	86.73798489570618	pulse	0	t		9.0	2.5	/experiments/knapen_AOT/AOT_stimuli/rescaled_final/0405_rv.mp4	0.0	108.29467988014221	
11	87.1544439792633	movie	1		244	9.0	2.5	/experiments/knapen_AOT/AOT_stimuli/rescaled_final/0405_rv.mp4	0.0	108.71113896369934	2.5004310607910156
11	88.33397197723389	pulse	1	t		9.0	2.5	/experiments/knapen_AOT/AOT_stimuli/rescaled_final/0405_rv.mp4	0.0	109.89066696166992	
11	89.65487504005432	fix_post	2		12	9.0	2.5	/experiments/knapen_AOT/AOT_stimuli/rescaled_final/0405_rv.mp4	0.0	111.21157002449036	0.09997892379760742
12	89.75485396385193	fix_pre	0		120	10.0	2.5	/experiments/knapen_AOT/AOT_stimuli/rescaled_final/0994_rv.mp4	0.0	111.31154894828796	1.0001840591430664
12	89.9308660030365	pulse	0	t		10.0	2.5	/experiments/knapen_AOT/AOT_stimuli/rescaled_final/0994_rv.mp4	0.0	111.48756098747253	
12	90.755038022995	movie	1		243	10.0	2.5	/experiments/knapen_AOT/AOT_stimuli/rescaled_final/0994_rv.mp4	0.0	112.31173300743103	2.500322103500366
12	91.5312819480896	pulse	1	t		10.0	2.5	/experiments/knapen_AOT/AOT_stimuli/rescaled_final/0994_rv.mp4	0.0	113.08797693252563	
12	93.13907790184021	pulse	1	t		10.0	2.5	/experiments/knapen_AOT/AOT_stimuli/rescaled_final/0994_rv.mp4	0.0	114.69577288627625	
12	93.25536012649536	fix_post	2		12	10.0	2.5	/experiments/knapen_AOT/AOT_stimuli/rescaled_final/0994_rv.mp4	0.0	114.8120551109314	0.10003900527954102
13	93.3553991317749	fix_pre	0		120	11.0	2.5	/experiments/knapen_AOT/AOT_stimuli/rescaled_final/1353_rv.mp4	0.0	114.91209411621094	1.0001227855682373
13	94.35552191734314	movie	1		243	11.0	2.5	/experiments/knapen_AOT/AOT_stimuli/rescaled_final/1353_rv.mp4	0.0	115.91221690177917	2.492094039916992
13	94.74363803863525	pulse	1	t		11.0	2.5	/experiments/knapen_AOT/AOT_stimuli/rescaled_final/1353_rv.mp4	0.0	116.30033302307129	
13	96.3319981098175	pulse	1	t		11.0	2.5	/experiments/knapen_AOT/AOT_stimuli/rescaled_final/1353_rv.mp4	0.0	117.88869309425354	
13	96.84761595726013	fix_post	2		12	11.0	2.5	/experiments/knapen_AOT/AOT_stimuli/rescaled_final/1353_rv.mp4	0.0	118.40431094169617	0.09997701644897461
14	96.9475929737091	fix_pre	0		119	12.0	2.5	/experiments/knapen_AOT/AOT_stimuli/rescaled_final/1087_rv.mp4	0.0	118.50428795814514	0.991840124130249
14	97.93123292922974	pulse	0	t		12.0	2.5	/experiments/knapen_AOT/AOT_stimuli/rescaled_final/1087_rv.mp4	0.0	119.48792791366577	
14	97.93943309783936	movie	1		246	12.0	2.5	/experiments/knapen_AOT/AOT_stimuli/rescaled_final/1087_rv.mp4	0.0	119.49612808227539	2.5086958408355713
14	99.53606700897217	pulse	1	t		12.0	2.5	/experiments/knapen_AOT/AOT_stimuli/rescaled_final/1087_rv.mp4	0.0	121.0927619934082	
14	100.44812893867493	fix_post	2		12	12.0	2.5	/experiments/knapen_AOT/AOT_stimuli/rescaled_final/1087_rv.mp4	0.0	122.00482392311096	0.09999203681945801
15	100.54812097549438	fix_pre	0		120	13.0	2.5	/experiments/knapen_AOT/AOT_stimuli/rescaled_final/1353_rv.mp4	0.0	122.10481595993042	1.0002131462097168
15	101.13182711601257	pulse	0	t		13.0	2.5	/experiments/knapen_AOT/AOT_stimuli/rescaled_final/1353_rv.mp4	0.0	122.68852210044861	
15	101.5483341217041	movie	1		244	13.0	2.5	/experiments/knapen_AOT/AOT_stimuli/rescaled_final/1353_rv.mp4	0.0	123.10502910614014	2.500337839126587
15	102.73202991485596	pulse	1	t		13.0	2.5	/experiments/knapen_AOT/AOT_stimuli/rescaled_final/1353_rv.mp4	0.0	124.28872489929199	
15	104.04867196083069	fix_post	2		12	13.0	2.5	/experiments/knapen_AOT/AOT_stimuli/rescaled_final/1353_rv.mp4	0.0	125.60536694526672	0.10000014305114746
16	104.14867210388184	fix_pre	0		120	14.0	2.5	blank	1.0	125.70536708831787	1.000187873840332
16	104.33222603797913	pulse	0	t		14.0	2.5	blank	1.0	125.88892102241516	
16	105.14885997772217	movie	1		300	14.0	2.5	blank	1.0	126.7055549621582	2.5003349781036377
16	105.93244791030884	pulse	1	t		14.0	2.5	blank	1.0	127.48914289474487	
16	107.5326600074768	pulse	1	t		14.0	2.5	blank	1.0	129.08935499191284	
16	107.6491949558258	fix_post	2		12	14.0	2.5	blank	1.0	129.20588994026184	0.10000014305114746
17	107.74919509887695	fix_pre	0		119	15.0	2.5	/experiments/knapen_AOT/AOT_stimuli/rescaled_final/1280_rv.mp4	0.0	129.305890083313	0.9917988777160645
17	108.74099397659302	movie	1		245	15.0	2.5	/experiments/knapen_AOT/AOT_stimuli/rescaled_final/1280_rv.mp4	0.0	130.29768896102905	2.5004050731658936
17	109.13302803039551	pulse	1	t		15.0	2.5	/experiments/knapen_AOT/AOT_stimuli/rescaled_final/1280_rv.mp4	0.0	130.68972301483154	
17	110.73315191268921	pulse	1	t		15.0	2.5	/experiments/knapen_AOT/AOT_stimuli/rescaled_final/1280_rv.mp4	0.0	132.28984689712524	
17	111.24139904975891	fix_post	2		12	15.0	2.5	/experiments/knapen_AOT/AOT_stimuli/rescaled_final/1280_rv.mp4	0.0	132.79809403419495	0.1000208854675293
18	111.34141993522644	fix_pre	0		120	16.0	2.5	/experiments/knapen_AOT/AOT_stimuli/rescaled_final/0563_rv.mp4	0.0	132.89811491966248	1.0001420974731445
18	112.3334801197052	pulse	0	t		16.0	2.5	/experiments/knapen_AOT/AOT_stimuli/rescaled_final/0563_rv.mp4	0.0	133.89017510414124	
18	112.34156203269958	movie	1		245	16.0	2.5	/experiments/knapen_AOT/AOT_stimuli/rescaled_final/0563_rv.mp4	0.0	133.89825701713562	2.5086729526519775
18	113.93469190597534	pulse	1	t		16.0	2.5	/experiments/knapen_AOT/AOT_stimuli/rescaled_final/0563_rv.mp4	0.0	135.49138689041138	
18	114.85023498535156	fix_post	2		12	16.0	2.5	/experiments/knapen_AOT/AOT_stimuli/rescaled_final/0563_rv.mp4	0.0	136.4069299697876	0.100006103515625
19	114.95024108886719	fix_pre	0		120	17.0	2.5	/experiments/knapen_AOT/AOT_stimuli/rescaled_final/0700_rv.mp4	0.0	136.50693607330322	1.0001978874206543
19	115.53384804725647	pulse	0	t		17.0	2.5	/experiments/knapen_AOT/AOT_stimuli/rescaled_final/0700_rv.mp4	0.0	137.0905430316925	
19	115.95043897628784	movie	1		245	17.0	2.5	/experiments/knapen_AOT/AOT_stimuli/rescaled_final/0700_rv.mp4	0.0	137.50713396072388	2.5004560947418213
19	117.1342921257019	pulse	1	t		17.0	2.5	/experiments/knapen_AOT/AOT_stimuli/rescaled_final/0700_rv.mp4	0.0	138.69098711013794	
19	118.45089507102966	fix_post	2		12	17.0	2.5	/experiments/knapen_AOT/AOT_stimuli/rescaled_final/0700_rv.mp4	0.0	140.0075900554657	0.09995603561401367
20	118.55085110664368	fix_pre	0		120	18.0	2.5	/experiments/knapen_AOT/AOT_stimuli/rescaled_final/0771_fw.mp4	0.0	140.1075460910797	1.0001239776611328
20	118.73433804512024	pulse	0	t		18.0	2.5	/experiments/knapen_AOT/AOT_stimuli/rescaled_final/0771_fw.mp4	0.0	140.29103302955627	
20	119.55097508430481	movie	1		245	18.0	2.5	/experiments/knapen_AOT/AOT_stimuli/rescaled_final/0771_fw.mp4	0.0	141.10767006874084	2.5003738403320312
20	120.33468794822693	pulse	1	t		18.0	2.5	/experiments/knapen_AOT/AOT_stimuli/rescaled_final/0771_fw.mp4	0.0	141.89138293266296	
20	121.93245196342468	pulse	1	t		18.0	2.5	/experiments/knapen_AOT/AOT_stimuli/rescaled_final/0771_fw.mp4	0.0	143.48914694786072	
20	122.05134892463684	fix_post	2		12	18.0	2.5	/experiments/knapen_AOT/AOT_stimuli/rescaled_final/0771_fw.mp4	0.0	143.60804390907288	0.10001802444458008
21	122.15136694908142	fix_pre	0		120	19.0	2.5	/experiments/knapen_AOT/AOT_stimuli/rescaled_final/0516_fw.mp4	0.0	143.70806193351746	1.0001499652862549
21	123.15151691436768	movie	1		243	19.0	2.5	/experiments/knapen_AOT/AOT_stimuli/rescaled_final/0516_fw.mp4	0.0	144.7082118988037	2.4920780658721924
21	123.53645610809326	pulse	1	t		19.0	2.5	/experiments/knapen_AOT/AOT_stimuli/rescaled_final/0516_fw.mp4	0.0	145.0931510925293	
21	125.13534307479858	pulse	1	t		19.0	2.5	/experiments/knapen_AOT/AOT_stimuli/rescaled_final/0516_fw.mp4	0.0	146.69203805923462	
21	125.64359498023987	fix_post	2		12	19.0	2.5	/experiments/knapen_AOT/AOT_stimuli/rescaled_final/0516_fw.mp4	0.0	147.2002899646759	0.10000991821289062
22	125.74360489845276	fix_pre	0		120	20.0	2.5	/experiments/knapen_AOT/AOT_stimuli/rescaled_final/1070_fw.mp4	0.0	147.3002998828888	1.000143051147461
22	126.73562097549438	pulse	0	t		20.0	2.5	/experiments/knapen_AOT/AOT_stimuli/rescaled_final/1070_fw.mp4	0.0	148.29231595993042	
22	126.74374794960022	movie	1		245	20.0	2.5	/experiments/knapen_AOT/AOT_stimuli/rescaled_final/1070_fw.mp4	0.0	148.30044293403625	2.5086491107940674
22	128.33620500564575	pulse	1	t		20.0	2.5	/experiments/knapen_AOT/AOT_stimuli/rescaled_final/1070_fw.mp4	0.0	149.8928999900818	
22	129.2523970603943	fix_post	2		12	20.0	2.5	/experiments/knapen_AOT/AOT_stimuli/rescaled_final/1070_fw.mp4	0.0	150.80909204483032	0.10000896453857422
23	129.35240602493286	fix_pre	0		120	21.0	2.5	blank	1.0	150.9091010093689	1.0001749992370605
23	129.93611097335815	pulse	0	t		21.0	2.5	blank	1.0	151.4928059577942	
23	130.35258102416992	movie	1		300	21.0	2.5	blank	1.0	151.90927600860596	2.5003809928894043
23	131.53627490997314	pulse	1	t		21.0	2.5	blank	1.0	153.09296989440918	
23	132.85296201705933	fix_post	2		12	21.0	2.5	blank	1.0	154.40965700149536	0.10001802444458008
24	132.9529800415039	fix_pre	0		120	22.0	2.5	/experiments/knapen_AOT/AOT_stimuli/rescaled_final/1847_fw.mp4	0.0	154.50967502593994	1.0001440048217773
24	133.1365180015564	pulse	0	t		22.0	2.5	/experiments/knapen_AOT/AOT_stimuli/rescaled_final/1847_fw.mp4	0.0	154.69321298599243	
24	133.95312404632568	movie	1		244	22.0	2.5	/experiments/knapen_AOT/AOT_stimuli/rescaled_final/1847_fw.mp4	0.0	155.50981903076172	2.500380039215088
24	134.73683309555054	pulse	1	t		22.0	2.5	/experiments/knapen_AOT/AOT_stimuli/rescaled_final/1847_fw.mp4	0.0	156.29352807998657	
24	136.33871507644653	pulse	1	t		22.0	2.5	/experiments/knapen_AOT/AOT_stimuli/rescaled_final/1847_fw.mp4	0.0	157.89541006088257	
24	136.45350408554077	fix_post	2		12	22.0	2.5	/experiments/knapen_AOT/AOT_stimuli/rescaled_final/1847_fw.mp4	0.0	158.0101990699768	0.09999203681945801
25	136.55349612236023	fix_pre	0		120	23.0	2.5	/experiments/knapen_AOT/AOT_stimuli/rescaled_final/0863_fw.mp4	0.0	158.11019110679626	1.0001988410949707
25	137.5536949634552	movie	1		242	23.0	2.5	/experiments/knapen_AOT/AOT_stimuli/rescaled_final/0863_fw.mp4	0.0	159.11038994789124	2.491986036300659
25	137.93835496902466	pulse	1	t		23.0	2.5	/experiments/knapen_AOT/AOT_stimuli/rescaled_final/0863_fw.mp4	0.0	159.4950499534607	
25	139.5374789237976	pulse	1	t		23.0	2.5	/experiments/knapen_AOT/AOT_stimuli/rescaled_final/0863_fw.mp4	0.0	161.09417390823364	
25	140.04568099975586	fix_post	2		12	23.0	2.5	/experiments/knapen_AOT/AOT_stimuli/rescaled_final/0863_fw.mp4	0.0	161.6023759841919	0.10002303123474121
26	140.1457040309906	fix_pre	0		120	24.0	2.5	/experiments/knapen_AOT/AOT_stimuli/rescaled_final/0432_rv.mp4	0.0	161.70239901542664	1.0001380443572998
26	141.13772010803223	pulse	0	t		24.0	2.5	/experiments/knapen_AOT/AOT_stimuli/rescaled_final/0432_rv.mp4	0.0	162.69441509246826	
26	141.1458420753479	movie	1		245	24.0	2.5	/experiments/knapen_AOT/AOT_stimuli/rescaled_final/0432_rv.mp4	0.0	162.70253705978394	2.508733034133911
26	142.73874402046204	pulse	1	t		24.0	2.5	/experiments/knapen_AOT/AOT_stimuli/rescaled_final/0432_rv.mp4	0.0	164.29543900489807	
26	143.6545751094818	fix_post	2		12	24.0	2.5	/experiments/knapen_AOT/AOT_stimuli/rescaled_final/0432_rv.mp4	0.0	165.21127009391785	0.10004901885986328
27	143.75462412834167	fix_pre	0		120	25.0	2.5	/experiments/knapen_AOT/AOT_stimuli/rescaled_final/1733_fw.mp4	0.0	165.3113191127777	1.0001189708709717
27	144.33824801445007	pulse	0	t		25.0	2.5	/experiments/knapen_AOT/AOT_stimuli/rescaled_final/1733_fw.mp4	0.0	165.8949429988861	
27	144.75474309921265	movie	1		240	25.0	2.5	/experiments/knapen_AOT/AOT_stimuli/rescaled_final/1733_fw.mp4	0.0	166.31143808364868	2.500324010848999
27	145.93861889839172	pulse	1	t		25.0	2.5	/experiments/knapen_AOT/AOT_stimuli/rescaled_final/1733_fw.mp4	0.0	167.49531388282776	
27	147.25506711006165	fix_post	2		12	25.0	2.5	/experiments/knapen_AOT/AOT_stimuli/rescaled_final/1733_fw.mp4	0.0	168.81176209449768	0.10005378723144531
28	147.3551208972931	fix_pre	0		120	26.0	2.5	/experiments/knapen_AOT/AOT_stimuli/rescaled_final/0475_rv.mp4	0.0	168.91181588172913	1.000115156173706
28	147.53866410255432	pulse	0	t		26.0	2.5	/experiments/knapen_AOT/AOT_stimuli/rescaled_final/0475_rv.mp4	0.0	169.09535908699036	
28	148.3552360534668	movie	1		244	26.0	2.5	/experiments/knapen_AOT/AOT_stimuli/rescaled_final/0475_rv.mp4	0.0	169.91193103790283	2.500361919403076
28	149.13156390190125	pulse	1	t		26.0	2.5	/experiments/knapen_AOT/AOT_stimuli/rescaled_final/0475_rv.mp4	0.0	170.68825888633728	
28	150.7392020225525	pulse	1	t		26.0	2.5	/experiments/knapen_AOT/AOT_stimuli/rescaled_final/0475_rv.mp4	0.0	172.29589700698853	
28	150.85559797286987	fix_post	2		12	26.0	2.5	/experiments/knapen_AOT/AOT_stimuli/rescaled_final/0475_rv.mp4	0.0	172.4122929573059	0.10008096694946289
29	150.95567893981934	fix_pre	0		120	27.0	2.5	blank	1.0	172.51237392425537	1.0001931190490723
29	151.9558720588684	movie	1		299	27.0	2.5	blank	1.0	173.51256704330444	2.491957902908325
29	152.3320450782776	pulse	1	t		27.0	2.5	blank	1.0	173.88874006271362	
29	153.9320249557495	pulse	1	t		27.0	2.5	blank	1.0	175.48871994018555	
29	154.44782996177673	fix_post	2		12	27.0	2.5	blank	1.0	176.00452494621277	0.1000070571899414
30	154.54783701896667	fix_pre	0		120	28.0	2.5	/experiments/knapen_AOT/AOT_stimuli/rescaled_final/1839_fw.mp4	0.0	176.1045320034027	1.0001869201660156
30	155.53246998786926	pulse	0	t		28.0	2.5	/experiments/knapen_AOT/AOT_stimuli/rescaled_final/1839_fw.mp4	0.0	177.0891649723053	
30	155.5480239391327	movie	1		245	28.0	2.5	/experiments/knapen_AOT/AOT_stimuli/rescaled_final/1839_fw.mp4	0.0	177.10471892356873	2.5086560249328613
30	157.13171792030334	pulse	1	t		28.0	2.5	/experiments/knapen_AOT/AOT_stimuli/rescaled_final/1839_fw.mp4	0.0	178.68841290473938	
30	158.05667996406555	fix_post	2		12	28.0	2.5	/experiments/knapen_AOT/AOT_stimuli/rescaled_final/1839_fw.mp4	0.0	179.6133749485016	0.10001516342163086
31	158.15669512748718	fix_pre	0		120	29.0	2.5	/experiments/knapen_AOT/AOT_stimuli/rescaled_final/0576_rv.mp4	0.0	179.71339011192322	1.0002679824829102
31	158.73203492164612	pulse	0	t		29.0	2.5	/experiments/knapen_AOT/AOT_stimuli/rescaled_final/0576_rv.mp4	0.0	180.28872990608215	
31	159.1569631099701	movie	1		245	29.0	2.5	/experiments/knapen_AOT/AOT_stimuli/rescaled_final/0576_rv.mp4	0.0	180.71365809440613	2.5003268718719482
31	160.33329796791077	pulse	1	t		29.0	2.5	/experiments/knapen_AOT/AOT_stimuli/rescaled_final/0576_rv.mp4	0.0	181.8899929523468	
31	161.65728998184204	fix_post	2		12	29.0	2.5	/experiments/knapen_AOT/AOT_stimuli/rescaled_final/0576_rv.mp4	0.0	183.21398496627808	0.099945068359375
32	161.75723505020142	fix_pre	0		120	30.0	2.5	/experiments/knapen_AOT/AOT_stimuli/rescaled_final/0989_rv.mp4	0.0	183.31393003463745	1.0002169609069824
32	161.93249702453613	pulse	0	t		30.0	2.5	/experiments/knapen_AOT/AOT_stimuli/rescaled_final/0989_rv.mp4	0.0	183.48919200897217	
32	162.7574520111084	movie	1		245	30.0	2.5	/experiments/knapen_AOT/AOT_stimuli/rescaled_final/0989_rv.mp4	0.0	184.31414699554443	2.500349998474121
32	163.53297901153564	pulse	1	t		30.0	2.5	/experiments/knapen_AOT/AOT_stimuli/rescaled_final/0989_rv.mp4	0.0	185.08967399597168	
32	165.13300108909607	pulse	1	t		30.0	2.5	/experiments/knapen_AOT/AOT_stimuli/rescaled_final/0989_rv.mp4	0.0	186.6896960735321	
32	165.25780200958252	fix_post	2		12	30.0	2.5	/experiments/knapen_AOT/AOT_stimuli/rescaled_final/0989_rv.mp4	0.0	186.81449699401855	0.09999895095825195
33	165.35780096054077	fix_pre	0		119	31.0	2.5	/experiments/knapen_AOT/AOT_stimuli/rescaled_final/2095_rv.mp4	0.0	186.9144959449768	0.9918391704559326
33	166.3496401309967	movie	1		246	31.0	2.5	/experiments/knapen_AOT/AOT_stimuli/rescaled_final/2095_rv.mp4	0.0	187.90633511543274	2.500351905822754
33	166.733726978302	pulse	1	t		31.0	2.5	/experiments/knapen_AOT/AOT_stimuli/rescaled_final/2095_rv.mp4	0.0	188.29042196273804	
33	168.3333990573883	pulse	1	t		31.0	2.5	/experiments/knapen_AOT/AOT_stimuli/rescaled_final/2095_rv.mp4	0.0	189.89009404182434	
33	168.84999203681946	fix_post	2		12	31.0	2.5	/experiments/knapen_AOT/AOT_stimuli/rescaled_final/2095_rv.mp4	0.0	190.4066870212555	0.10002303123474121
34	168.9500150680542	fix_pre	0		119	32.0	2.5	/experiments/knapen_AOT/AOT_stimuli/rescaled_final/1322_fw.mp4	0.0	190.50671005249023	0.9918229579925537
34	169.93368291854858	pulse	0	t		32.0	2.5	/experiments/knapen_AOT/AOT_stimuli/rescaled_final/1322_fw.mp4	0.0	191.49037790298462	
34	169.94183802604675	movie	1		246	32.0	2.5	/experiments/knapen_AOT/AOT_stimuli/rescaled_final/1322_fw.mp4	0.0	191.4985330104828	2.508665084838867
34	171.534588098526	pulse	1	t		32.0	2.5	/experiments/knapen_AOT/AOT_stimuli/rescaled_final/1322_fw.mp4	0.0	193.09128308296204	
34	172.45050311088562	fix_post	2		12	32.0	2.5	/experiments/knapen_AOT/AOT_stimuli/rescaled_final/1322_fw.mp4	0.0	194.00719809532166	0.10002899169921875
35	172.55053210258484	fix_pre	0		120	33.0	2.5	/experiments/knapen_AOT/AOT_stimuli/rescaled_final/0432_fw.mp4	0.0	194.10722708702087	1.0001509189605713
35	173.13414192199707	pulse	0	t		33.0	2.5	/experiments/knapen_AOT/AOT_stimuli/rescaled_final/0432_fw.mp4	0.0	194.6908369064331	
35	173.5506830215454	movie	1		245	33.0	2.5	/experiments/knapen_AOT/AOT_stimuli/rescaled_final/0432_fw.mp4	0.0	195.10737800598145	2.500351905822754
35	174.7344319820404	pulse	1	t		33.0	2.5	/experiments/knapen_AOT/AOT_stimuli/rescaled_final/0432_fw.mp4	0.0	196.29112696647644	
35	176.05103492736816	fix_post	2		12	33.0	2.5	/experiments/knapen_AOT/AOT_stimuli/rescaled_final/0432_fw.mp4	0.0	197.6077299118042	0.1000051498413086
36	176.15104007720947	fix_pre	0		120	34.0	2.5	/experiments/knapen_AOT/AOT_stimuli/rescaled_final/0456_rv.mp4	0.0	197.7077350616455	1.0001938343048096
36	176.33472204208374	pulse	0	t		34.0	2.5	/experiments/knapen_AOT/AOT_stimuli/rescaled_final/0456_rv.mp4	0.0	197.89141702651978	
36	177.15123391151428	movie	1		245	34.0	2.5	/experiments/knapen_AOT/AOT_stimuli/rescaled_final/0456_rv.mp4	0.0	198.70792889595032	2.5003700256347656
36	177.9349720478058	pulse	1	t		34.0	2.5	/experiments/knapen_AOT/AOT_stimuli/rescaled_final/0456_rv.mp4	0.0	199.49166703224182	
36	179.5328929424286	pulse	1	t		34.0	2.5	/experiments/knapen_AOT/AOT_stimuli/rescaled_final/0456_rv.mp4	0.0	201.08958792686462	
36	179.65160393714905	fix_post	2		12	34.0	2.5	/experiments/knapen_AOT/AOT_stimuli/rescaled_final/0456_rv.mp4	0.0	201.20829892158508	0.09998512268066406
37	179.7515890598297	fix_pre	0		120	35.0	2.5	blank	1.0	201.30828404426575	1.0002119541168213
37	180.75180101394653	movie	1		299	35.0	2.5	blank	1.0	202.30849599838257	2.4920101165771484
37	181.13533306121826	pulse	1	t		35.0	2.5	blank	1.0	202.6920280456543	
37	182.73569202423096	pulse	1	t		35.0	2.5	blank	1.0	204.292387008667	
37	183.24381113052368	fix_post	2		12	35.0	2.5	blank	1.0	204.80050611495972	0.10001277923583984
38	183.34382390975952	fix_pre	0		120	36.0	2.5	/experiments/knapen_AOT/AOT_stimuli/rescaled_final/0704_fw.mp4	0.0	204.90051889419556	1.0001749992370605
38	184.33593201637268	pulse	0	t		36.0	2.5	/experiments/knapen_AOT/AOT_stimuli/rescaled_final/0704_fw.mp4	0.0	205.89262700080872	
38	184.34399890899658	movie	1		246	36.0	2.5	/experiments/knapen_AOT/AOT_stimuli/rescaled_final/0704_fw.mp4	0.0	205.90069389343262	2.508758068084717
38	185.94097805023193	pulse	1	t		36.0	2.5	/experiments/knapen_AOT/AOT_stimuli/rescaled_final/0704_fw.mp4	0.0	207.49767303466797	
38	186.8527569770813	fix_post	2		12	36.0	2.5	/experiments/knapen_AOT/AOT_stimuli/rescaled_final/0704_fw.mp4	0.0	208.40945196151733	0.09992599487304688
39	186.95268297195435	fix_pre	0		120	37.0	2.5	/experiments/knapen_AOT/AOT_stimuli/rescaled_final/2095_rv.mp4	0.0	208.50937795639038	1.0002119541168213
39	187.5364010334015	pulse	0	t		37.0	2.5	/experiments/knapen_AOT/AOT_stimuli/rescaled_final/2095_rv.mp4	0.0	209.09309601783752	
39	187.95289492607117	movie	1		245	37.0	2.5	/experiments/knapen_AOT/AOT_stimuli/rescaled_final/2095_rv.mp4	0.0	209.5095899105072	2.5003271102905273
39	189.13677310943604	pulse	1	t		37.0	2.5	/experiments/knapen_AOT/AOT_stimuli/rescaled_final/2095_rv.mp4	0.0	210.69346809387207	
39	190.4532220363617	fix_post	2		12	37.0	2.5	/experiments/knapen_AOT/AOT_stimuli/rescaled_final/2095_rv.mp4	0.0	212.00991702079773	0.10001397132873535
40	190.55323600769043	fix_pre	0		120	38.0	2.5	/experiments/knapen_AOT/AOT_stimuli/rescaled_final/0456_fw.mp4	0.0	212.10993099212646	1.000140905380249
40	190.73676300048828	pulse	0	t		38.0	2.5	/experiments/knapen_AOT/AOT_stimuli/rescaled_final/0456_fw.mp4	0.0	212.29345798492432	
40	191.55337691307068	movie	1		244	38.0	2.5	/experiments/knapen_AOT/AOT_stimuli/rescaled_final/0456_fw.mp4	0.0	213.1100718975067	2.5004160404205322
40	192.33703994750977	pulse	1	t		38.0	2.5	/experiments/knapen_AOT/AOT_stimuli/rescaled_final/0456_fw.mp4	0.0	213.8937349319458	
40	193.94085812568665	pulse	1	t		38.0	2.5	/experiments/knapen_AOT/AOT_stimuli/rescaled_final/0456_fw.mp4	0.0	215.49755311012268	
40	194.0537929534912	fix_post	2		12	38.0	2.5	/experiments/knapen_AOT/AOT_stimuli/rescaled_final/0456_fw.mp4	0.0	215.61048793792725	0.1000051498413086
41	194.15379810333252	fix_pre	0		120	39.0	2.5	/experiments/knapen_AOT/AOT_stimuli/rescaled_final/0587_rv.mp4	0.0	215.71049308776855	1.0001189708709717
41	195.1539170742035	movie	1		243	39.0	2.5	/experiments/knapen_AOT/AOT_stimuli/rescaled_final/0587_rv.mp4	0.0	216.71061205863953	2.4920718669891357
41	195.53818202018738	pulse	1	t		39.0	2.5	/experiments/knapen_AOT/AOT_stimuli/rescaled_final/0587_rv.mp4	0.0	217.0948770046234	
41	197.13776206970215	pulse	1	t		39.0	2.5	/experiments/knapen_AOT/AOT_stimuli/rescaled_final/0587_rv.mp4	0.0	218.69445705413818	
41	197.64598894119263	fix_post	2		12	39.0	2.5	/experiments/knapen_AOT/AOT_stimuli/rescaled_final/0587_rv.mp4	0.0	219.20268392562866	0.09994316101074219
42	197.74593210220337	fix_pre	0		120	40.0	2.5	/experiments/knapen_AOT/AOT_stimuli/rescaled_final/1059_rv.mp4	0.0	219.3026270866394	1.0001850128173828
42	198.73805594444275	pulse	0	t		40.0	2.5	/experiments/knapen_AOT/AOT_stimuli/rescaled_final/1059_rv.mp4	0.0	220.29475092887878	
42	198.74611711502075	movie	1		246	40.0	2.5	/experiments/knapen_AOT/AOT_stimuli/rescaled_final/1059_rv.mp4	0.0	220.3028120994568	2.5088138580322266
42	200.3430290222168	pulse	1	t		40.0	2.5	/experiments/knapen_AOT/AOT_stimuli/rescaled_final/1059_rv.mp4	0.0	221.89972400665283	
42	201.25493097305298	fix_post	2		12	40.0	2.5	/experiments/knapen_AOT/AOT_stimuli/rescaled_final/1059_rv.mp4	0.0	222.811625957489	0.09992408752441406
43	201.3548550605774	fix_pre	0		120	41.0	2.5	/experiments/knapen_AOT/AOT_stimuli/rescaled_final/0065_rv.mp4	0.0	222.91155004501343	1.000133991241455
43	201.9384319782257	pulse	0	t		41.0	2.5	/experiments/knapen_AOT/AOT_stimuli/rescaled_final/0065_rv.mp4	0.0	223.49512696266174	
43	202.35498905181885	movie	1		244	41.0	2.5	/experiments/knapen_AOT/AOT_stimuli/rescaled_final/0065_rv.mp4	0.0	223.91168403625488	2.5004100799560547
43	203.5388629436493	pulse	1	t		41.0	2.5	/experiments/knapen_AOT/AOT_stimuli/rescaled_final/0065_rv.mp4	0.0	225.09555792808533	
43	204.8553991317749	fix_post	2		12	41.0	2.5	/experiments/knapen_AOT/AOT_stimuli/rescaled_final/0065_rv.mp4	0.0	226.41209411621094	0.10000395774841309
44	204.95540308952332	fix_pre	0		117	42.0	2.5	blank	1.0	226.51209807395935	1.0001749992370605
44	205.13148999214172	pulse	0	t		42.0	2.5	blank	1.0	226.68818497657776	
44	205.95557808876038	movie	1		300	42.0	2.5	blank	1.0	227.5122730731964	2.500330924987793
44	206.73174500465393	pulse	1	t		42.0	2.5	blank	1.0	228.28843998908997	
44	208.33190393447876	pulse	1	t		42.0	2.5	blank	1.0	229.8885989189148	
44	208.45590901374817	fix_post	2		12	42.0	2.5	blank	1.0	230.0126039981842	0.10004210472106934
45	208.55595111846924	fix_pre	0		120	43.0	2.5	/experiments/knapen_AOT/AOT_stimuli/rescaled_final/1684_rv.mp4	0.0	230.11264610290527	1.00010085105896
45	209.5560519695282	movie	1		244	43.0	2.5	/experiments/knapen_AOT/AOT_stimuli/rescaled_final/1684_rv.mp4	0.0	231.11274695396423	2.492016077041626
45	209.94021701812744	pulse	1	t		43.0	2.5	/experiments/knapen_AOT/AOT_stimuli/rescaled_final/1684_rv.mp4	0.0	231.49691200256348	
45	211.53161907196045	pulse	1	t		43.0	2.5	/experiments/knapen_AOT/AOT_stimuli/rescaled_final/1684_rv.mp4	0.0	233.08831405639648	
45	212.04806804656982	fix_post	2		12	43.0	2.5	/experiments/knapen_AOT/AOT_stimuli/rescaled_final/1684_rv.mp4	0.0	233.60476303100586	0.10002803802490234
46	212.14809608459473	fix_pre	0		119	44.0	2.5	/experiments/knapen_AOT/AOT_stimuli/rescaled_final/0486_fw.mp4	0.0	233.70479106903076	0.9918489456176758
46	213.13183403015137	pulse	0	t		44.0	2.5	/experiments/knapen_AOT/AOT_stimuli/rescaled_final/0486_fw.mp4	0.0	234.6885290145874	
46	213.1399450302124	movie	1		246	44.0	2.5	/experiments/knapen_AOT/AOT_stimuli/rescaled_final/0486_fw.mp4	0.0	234.69664001464844	2.508725881576538
46	214.73275589942932	pulse	1	t		44.0	2.5	/experiments/knapen_AOT/AOT_stimuli/rescaled_final/0486_fw.mp4	0.0	236.28945088386536	
46	215.64867091178894	fix_post	2		12	44.0	2.5	/experiments/knapen_AOT/AOT_stimuli/rescaled_final/0486_fw.mp4	0.0	237.20536589622498	0.0999901294708252
47	215.74866104125977	fix_pre	0		120	45.0	2.5	/experiments/knapen_AOT/AOT_stimuli/rescaled_final/1855_fw.mp4	0.0	237.3053560256958	1.0001330375671387
47	216.33224201202393	pulse	0	t		45.0	2.5	/experiments/knapen_AOT/AOT_stimuli/rescaled_final/1855_fw.mp4	0.0	237.88893699645996	
47	216.7487940788269	movie	1		244	45.0	2.5	/experiments/knapen_AOT/AOT_stimuli/rescaled_final/1855_fw.mp4	0.0	238.30548906326294	2.5003490447998047
47	217.93260097503662	pulse	1	t		45.0	2.5	/experiments/knapen_AOT/AOT_stimuli/rescaled_final/1855_fw.mp4	0.0	239.48929595947266	
47	219.2491431236267	fix_post	2		12	45.0	2.5	/experiments/knapen_AOT/AOT_stimuli/rescaled_final/1855_fw.mp4	0.0	240.80583810806274	0.1000518798828125
48	219.34919500350952	fix_pre	0		120	46.0	2.5	/experiments/knapen_AOT/AOT_stimuli/rescaled_final/0676_rv.mp4	0.0	240.90588998794556	1.0001370906829834
48	219.53277206420898	pulse	0	t		46.0	2.5	/experiments/knapen_AOT/AOT_stimuli/rescaled_final/0676_rv.mp4	0.0	241.08946704864502	
48	220.3493320941925	movie	1		243	46.0	2.5	/experiments/knapen_AOT/AOT_stimuli/rescaled_final/0676_rv.mp4	0.0	241.90602707862854	2.500361919403076
48	221.13302898406982	pulse	1	t		46.0	2.5	/experiments/knapen_AOT/AOT_stimuli/rescaled_final/0676_rv.mp4	0.0	242.68972396850586	
48	222.73325991630554	pulse	1	t		46.0	2.5	/experiments/knapen_AOT/AOT_stimuli/rescaled_final/0676_rv.mp4	0.0	244.28995490074158	
48	222.84969401359558	fix_post	2		12	46.0	2.5	/experiments/knapen_AOT/AOT_stimuli/rescaled_final/0676_rv.mp4	0.0	244.40638899803162	0.10002803802490234
49	222.94972205162048	fix_pre	0		120	47.0	2.5	/experiments/knapen_AOT/AOT_stimuli/rescaled_final/1472_rv.mp4	0.0	244.50641703605652	1.0001778602600098
49	223.9498999118805	movie	1		244	47.0	2.5	/experiments/knapen_AOT/AOT_stimuli/rescaled_final/1472_rv.mp4	0.0	245.50659489631653	2.4920501708984375
49	224.33445000648499	pulse	1	t		47.0	2.5	/experiments/knapen_AOT/AOT_stimuli/rescaled_final/1472_rv.mp4	0.0	245.89114499092102	
49	225.93369913101196	pulse	1	t		47.0	2.5	/experiments/knapen_AOT/AOT_stimuli/rescaled_final/1472_rv.mp4	0.0	247.490394115448	
49	226.44195008277893	fix_post	2		12	47.0	2.5	/experiments/knapen_AOT/AOT_stimuli/rescaled_final/1472_rv.mp4	0.0	247.99864506721497	0.09999394416809082
50	226.54194402694702	fix_pre	0		120	48.0	2.5	blank	1.0	248.09863901138306	1.0001568794250488
50	227.53406190872192	pulse	0	t		48.0	2.5	blank	1.0	249.09075689315796	
50	227.54210090637207	movie	1		301	48.0	2.5	blank	1.0	249.0987958908081	2.5086700916290283
50	229.13414096832275	pulse	1	t		48.0	2.5	blank	1.0	250.6908359527588	
50	230.0507709980011	fix_post	2		12	48.0	2.5	blank	1.0	251.60746598243713	0.10007500648498535
51	230.15084600448608	fix_pre	0		120	49.0	2.5	/experiments/knapen_AOT/AOT_stimuli/rescaled_final/0178_fw.mp4	0.0	251.70754098892212	1.0001320838928223
51	230.73438811302185	pulse	0	t		49.0	2.5	/experiments/knapen_AOT/AOT_stimuli/rescaled_final/0178_fw.mp4	0.0	252.29108309745789	
51	231.1509780883789	movie	1		244	49.0	2.5	/experiments/knapen_AOT/AOT_stimuli/rescaled_final/0178_fw.mp4	0.0	252.70767307281494	2.500389814376831
51	232.33472394943237	pulse	1	t		49.0	2.5	/experiments/knapen_AOT/AOT_stimuli/rescaled_final/0178_fw.mp4	0.0	253.8914189338684	
51	233.65136790275574	fix_post	2		12	49.0	2.5	/experiments/knapen_AOT/AOT_stimuli/rescaled_final/0178_fw.mp4	0.0	255.20806288719177	0.10002708435058594
52	233.75139498710632	fix_pre	0		120	50.0	2.5	/experiments/knapen_AOT/AOT_stimuli/rescaled_final/1800_fw.mp4	0.0	255.30808997154236	1.0000920295715332
52	233.93492197990417	pulse	0	t		50.0	2.5	/experiments/knapen_AOT/AOT_stimuli/rescaled_final/1800_fw.mp4	0.0	255.4916169643402	
52	234.75148701667786	movie	1		244	50.0	2.5	/experiments/knapen_AOT/AOT_stimuli/rescaled_final/1800_fw.mp4	0.0	256.3081820011139	2.500338077545166
52	235.5353410243988	pulse	1	t		50.0	2.5	/experiments/knapen_AOT/AOT_stimuli/rescaled_final/1800_fw.mp4	0.0	257.09203600883484	
52	237.13560605049133	pulse	1	t		50.0	2.5	/experiments/knapen_AOT/AOT_stimuli/rescaled_final/1800_fw.mp4	0.0	258.69230103492737	
52	237.25182509422302	fix_post	2		12	50.0	2.5	/experiments/knapen_AOT/AOT_stimuli/rescaled_final/1800_fw.mp4	0.0	258.80852007865906	0.10001802444458008
53	237.3518431186676	fix_pre	0		120	51.0	2.5	/experiments/knapen_AOT/AOT_stimuli/rescaled_final/1494_fw.mp4	0.0	258.90853810310364	1.0001659393310547
53	238.35200905799866	movie	1		244	51.0	2.5	/experiments/knapen_AOT/AOT_stimuli/rescaled_final/1494_fw.mp4	0.0	259.9087040424347	2.4920239448547363
53	238.73602604866028	pulse	1	t		51.0	2.5	/experiments/knapen_AOT/AOT_stimuli/rescaled_final/1494_fw.mp4	0.0	260.2927210330963	
53	240.3358108997345	pulse	1	t		51.0	2.5	/experiments/knapen_AOT/AOT_stimuli/rescaled_final/1494_fw.mp4	0.0	261.89250588417053	
53	240.8440330028534	fix_post	2		12	51.0	2.5	/experiments/knapen_AOT/AOT_stimuli/rescaled_final/1494_fw.mp4	0.0	262.40072798728943	0.10006999969482422
54	240.94410300254822	fix_pre	0		120	52.0	2.5	/experiments/knapen_AOT/AOT_stimuli/rescaled_final/0851_rv.mp4	0.0	262.50079798698425	1.0001161098480225
54	241.93618512153625	pulse	0	t		52.0	2.5	/experiments/knapen_AOT/AOT_stimuli/rescaled_final/0851_rv.mp4	0.0	263.4928801059723	
54	241.94421911239624	movie	1		245	52.0	2.5	/experiments/knapen_AOT/AOT_stimuli/rescaled_final/0851_rv.mp4	0.0	263.5009140968323	2.5087599754333496
54	243.5377950668335	pulse	1	t		52.0	2.5	/experiments/knapen_AOT/AOT_stimuli/rescaled_final/0851_rv.mp4	0.0	265.09449005126953	
54	244.4529790878296	fix_post	2		12	52.0	2.5	/experiments/knapen_AOT/AOT_stimuli/rescaled_final/0851_rv.mp4	0.0	266.0096740722656	0.09995484352111816
55	244.5529339313507	fix_pre	0		120	53.0	2.5	/experiments/knapen_AOT/AOT_stimuli/rescaled_final/1931_rv.mp4	0.0	266.10962891578674	1.0001580715179443
55	245.1366310119629	pulse	0	t		53.0	2.5	/experiments/knapen_AOT/AOT_stimuli/rescaled_final/1931_rv.mp4	0.0	266.6933259963989	
55	245.55309200286865	movie	1		243	53.0	2.5	/experiments/knapen_AOT/AOT_stimuli/rescaled_final/1931_rv.mp4	0.0	267.1097869873047	2.500420093536377
55	246.73694610595703	pulse	1	t		53.0	2.5	/experiments/knapen_AOT/AOT_stimuli/rescaled_final/1931_rv.mp4	0.0	268.29364109039307	
55	248.05351209640503	fix_post	2		12	53.0	2.5	/experiments/knapen_AOT/AOT_stimuli/rescaled_final/1931_rv.mp4	0.0	269.61020708084106	0.0999898910522461
56	248.15350198745728	fix_pre	0		120	54.0	2.5	/experiments/knapen_AOT/AOT_stimuli/rescaled_final/1279_fw.mp4	0.0	269.7101969718933	1.0001270771026611
56	248.33712005615234	pulse	0	t		54.0	2.5	/experiments/knapen_AOT/AOT_stimuli/rescaled_final/1279_fw.mp4	0.0	269.8938150405884	
56	249.15362906455994	movie	1		244	54.0	2.5	/experiments/knapen_AOT/AOT_stimuli/rescaled_final/1279_fw.mp4	0.0	270.710324048996	2.500443935394287
56	249.93728303909302	pulse	1	t		54.0	2.5	/experiments/knapen_AOT/AOT_stimuli/rescaled_final/1279_fw.mp4	0.0	271.49397802352905	
56	251.53541111946106	pulse	1	t		54.0	2.5	/experiments/knapen_AOT/AOT_stimuli/rescaled_final/1279_fw.mp4	0.0	273.0921061038971	
56	251.65407299995422	fix_post	2		12	54.0	2.5	/experiments/knapen_AOT/AOT_stimuli/rescaled_final/1279_fw.mp4	0.0	273.21076798439026	0.09994006156921387
57	251.75401306152344	fix_pre	0		120	55.0	2.5	blank	1.0	273.3107080459595	1.000175952911377
57	252.75418901443481	movie	1		299	55.0	2.5	blank	1.0	274.31088399887085	2.492011070251465
57	253.13774299621582	pulse	1	t		55.0	2.5	blank	1.0	274.69443798065186	
57	254.73796796798706	pulse	1	t		55.0	2.5	blank	1.0	276.2946629524231	
57	255.24620008468628	fix_post	2		12	55.0	2.5	blank	1.0	276.8028950691223	0.10001683235168457
58	255.34621691703796	fix_pre	0		120	56.0	2.5	/experiments/knapen_AOT/AOT_stimuli/rescaled_final/0403_fw.mp4	0.0	276.902911901474	1.0001561641693115
58	256.33826994895935	pulse	0	t		56.0	2.5	/experiments/knapen_AOT/AOT_stimuli/rescaled_final/0403_fw.mp4	0.0	277.8949649333954	
58	256.3463730812073	movie	1		245	56.0	2.5	/experiments/knapen_AOT/AOT_stimuli/rescaled_final/0403_fw.mp4	0.0	277.9030680656433	2.508697032928467
58	257.9395251274109	pulse	1	t		56.0	2.5	/experiments/knapen_AOT/AOT_stimuli/rescaled_final/0403_fw.mp4	0.0	279.4962201118469	
58	258.85507011413574	fix_post	2		12	56.0	2.5	/experiments/knapen_AOT/AOT_stimuli/rescaled_final/0403_fw.mp4	0.0	280.4117650985718	0.1000359058380127
59	258.95510601997375	fix_pre	0		120	57.0	2.5	/experiments/knapen_AOT/AOT_stimuli/rescaled_final/1214_fw.mp4	0.0	280.5118010044098	1.0001370906829834
59	259.53125190734863	pulse	0	t		57.0	2.5	/experiments/knapen_AOT/AOT_stimuli/rescaled_final/1214_fw.mp4	0.0	281.08794689178467	
59	259.95524311065674	movie	1		244	57.0	2.5	/experiments/knapen_AOT/AOT_stimuli/rescaled_final/1214_fw.mp4	0.0	281.5119380950928	2.500382900238037
59	261.13492703437805	pulse	1	t		57.0	2.5	/experiments/knapen_AOT/AOT_stimuli/rescaled_final/1214_fw.mp4	0.0	282.6916220188141	
59	262.4556260108948	fix_post	2		12	57.0	2.5	/experiments/knapen_AOT/AOT_stimuli/rescaled_final/1214_fw.mp4	0.0	284.0123209953308	0.10001111030578613
60	262.55563712120056	fix_pre	0		120	58.0	2.5	/experiments/knapen_AOT/AOT_stimuli/rescaled_final/1792_fw.mp4	0.0	284.1123321056366	1.000128984451294
60	262.73184394836426	pulse	0	t		58.0	2.5	/experiments/knapen_AOT/AOT_stimuli/rescaled_final/1792_fw.mp4	0.0	284.2885389328003	
60	263.55576610565186	movie	1		244	58.0	2.5	/experiments/knapen_AOT/AOT_stimuli/rescaled_final/1792_fw.mp4	0.0	285.1124610900879	2.500408887863159
60	264.33114790916443	pulse	1	t		58.0	2.5	/experiments/knapen_AOT/AOT_stimuli/rescaled_final/1792_fw.mp4	0.0	285.88784289360046	
60	265.93133997917175	pulse	1	t		58.0	2.5	/experiments/knapen_AOT/AOT_stimuli/rescaled_final/1792_fw.mp4	0.0	287.4880349636078	
60	266.056174993515	fix_post	2		12	58.0	2.5	/experiments/knapen_AOT/AOT_stimuli/rescaled_final/1792_fw.mp4	0.0	287.61286997795105	0.10141491889953613
61	266.15758991241455	fix_pre	0		117	59.0	2.5	/experiments/knapen_AOT/AOT_stimuli/rescaled_final/1323_rv.mp4	0.0	287.7142848968506	0.9987781047821045
61	267.15636801719666	movie	1		244	59.0	2.5	/experiments/knapen_AOT/AOT_stimuli/rescaled_final/1323_rv.mp4	0.0	288.7130630016327	2.491971015930176
61	267.53162598609924	pulse	1	t		59.0	2.5	/experiments/knapen_AOT/AOT_stimuli/rescaled_final/1323_rv.mp4	0.0	289.0883209705353	
61	269.13196301460266	pulse	1	t		59.0	2.5	/experiments/knapen_AOT/AOT_stimuli/rescaled_final/1323_rv.mp4	0.0	290.6886579990387	
61	269.64833903312683	fix_post	2		12	59.0	2.5	/experiments/knapen_AOT/AOT_stimuli/rescaled_final/1323_rv.mp4	0.0	291.20503401756287	0.10002994537353516
62	269.74836897850037	fix_pre	0		119	60.0	2.5	/experiments/knapen_AOT/AOT_stimuli/rescaled_final/0631_rv.mp4	0.0	291.3050639629364	0.9918839931488037
62	270.7320499420166	pulse	0	t		60.0	2.5	/experiments/knapen_AOT/AOT_stimuli/rescaled_final/0631_rv.mp4	0.0	292.28874492645264	
62	270.74025297164917	movie	1		246	60.0	2.5	/experiments/knapen_AOT/AOT_stimuli/rescaled_final/0631_rv.mp4	0.0	292.2969479560852	2.508695125579834
62	272.33287596702576	pulse	1	t		60.0	2.5	/experiments/knapen_AOT/AOT_stimuli/rescaled_final/0631_rv.mp4	0.0	293.8895709514618	
62	273.248948097229	fix_post	2		12	60.0	2.5	/experiments/knapen_AOT/AOT_stimuli/rescaled_final/0631_rv.mp4	0.0	294.80564308166504	0.10001182556152344
63	273.3489599227905	fix_pre	0		120	61.0	2.5	blank	1.0	294.90565490722656	1.0000841617584229
63	273.93252396583557	pulse	0	t		61.0	2.5	blank	1.0	295.4892189502716	
63	274.34904408454895	movie	1		300	61.0	2.5	blank	1.0	295.905739068985	2.5004148483276367
63	275.5328691005707	pulse	1	t		61.0	2.5	blank	1.0	297.0895640850067	
63	276.8494589328766	fix_post	2		12	61.0	2.5	blank	1.0	298.4061539173126	0.0999901294708252
64	276.9494490623474	fix_pre	0		120	62.0	2.5	/experiments/knapen_AOT/AOT_stimuli/rescaled_final/0989_fw.mp4	0.0	298.50614404678345	1.0001540184020996
64	277.1330509185791	pulse	0	t		62.0	2.5	/experiments/knapen_AOT/AOT_stimuli/rescaled_final/0989_fw.mp4	0.0	298.68974590301514	
64	277.9496030807495	movie	1		245	62.0	2.5	/experiments/knapen_AOT/AOT_stimuli/rescaled_final/0989_fw.mp4	0.0	299.50629806518555	2.5004119873046875
64	278.73331212997437	pulse	1	t		62.0	2.5	/experiments/knapen_AOT/AOT_stimuli/rescaled_final/0989_fw.mp4	0.0	300.2900071144104	
64	280.33351397514343	pulse	1	t		62.0	2.5	/experiments/knapen_AOT/AOT_stimuli/rescaled_final/0989_fw.mp4	0.0	301.89020895957947	
64	280.4500150680542	fix_post	2		12	62.0	2.5	/experiments/knapen_AOT/AOT_stimuli/rescaled_final/0989_fw.mp4	0.0	302.00671005249023	0.09995603561401367
65	280.5499711036682	fix_pre	0		120	63.0	2.5	/experiments/knapen_AOT/AOT_stimuli/rescaled_final/0223_fw.mp4	0.0	302.10666608810425	1.000166893005371
65	281.5501379966736	movie	1		242	63.0	2.5	/experiments/knapen_AOT/AOT_stimuli/rescaled_final/0223_fw.mp4	0.0	303.1068329811096	2.492100954055786
65	281.9344279766083	pulse	1	t		63.0	2.5	/experiments/knapen_AOT/AOT_stimuli/rescaled_final/0223_fw.mp4	0.0	303.4911229610443	
65	283.53403306007385	pulse	1	t		63.0	2.5	/experiments/knapen_AOT/AOT_stimuli/rescaled_final/0223_fw.mp4	0.0	305.0907280445099	
65	284.04223895072937	fix_post	2		12	63.0	2.5	/experiments/knapen_AOT/AOT_stimuli/rescaled_final/0223_fw.mp4	0.0	305.5989339351654	0.09996914863586426
66	284.14220809936523	fix_pre	0		120	64.0	2.5	/experiments/knapen_AOT/AOT_stimuli/rescaled_final/1418_fw.mp4	0.0	305.69890308380127	1.0001490116119385
66	285.1341960430145	pulse	0	t		64.0	2.5	/experiments/knapen_AOT/AOT_stimuli/rescaled_final/1418_fw.mp4	0.0	306.69089102745056	
66	285.1423571109772	movie	1		246	64.0	2.5	/experiments/knapen_AOT/AOT_stimuli/rescaled_final/1418_fw.mp4	0.0	306.6990520954132	2.5087180137634277
66	286.735139131546	pulse	1	t		64.0	2.5	/experiments/knapen_AOT/AOT_stimuli/rescaled_final/1418_fw.mp4	0.0	308.29183411598206	
66	287.6510751247406	fix_post	2		12	64.0	2.5	/experiments/knapen_AOT/AOT_stimuli/rescaled_final/1418_fw.mp4	0.0	309.20777010917664	0.09998488426208496
67	287.7510600090027	fix_pre	0		120	65.0	2.5	/experiments/knapen_AOT/AOT_stimuli/rescaled_final/0322_fw.mp4	0.0	309.3077549934387	1.0001239776611328
67	288.3347849845886	pulse	0	t		65.0	2.5	/experiments/knapen_AOT/AOT_stimuli/rescaled_final/0322_fw.mp4	0.0	309.89147996902466	
67	288.7511839866638	movie	1		244	65.0	2.5	/experiments/knapen_AOT/AOT_stimuli/rescaled_final/0322_fw.mp4	0.0	310.30787897109985	2.5004401206970215
67	289.9350531101227	pulse	1	t		65.0	2.5	/experiments/knapen_AOT/AOT_stimuli/rescaled_final/0322_fw.mp4	0.0	311.4917480945587	
67	291.25162410736084	fix_post	2		12	65.0	2.5	/experiments/knapen_AOT/AOT_stimuli/rescaled_final/0322_fw.mp4	0.0	312.8083190917969	0.09995293617248535
68	291.3515770435333	fix_pre	0		120	66.0	2.5	/experiments/knapen_AOT/AOT_stimuli/rescaled_final/1472_rv.mp4	0.0	312.90827202796936	1.0001800060272217
68	291.53522205352783	pulse	0	t		66.0	2.5	/experiments/knapen_AOT/AOT_stimuli/rescaled_final/1472_rv.mp4	0.0	313.09191703796387	
68	292.35175704956055	movie	1		245	66.0	2.5	/experiments/knapen_AOT/AOT_stimuli/rescaled_final/1472_rv.mp4	0.0	313.9084520339966	2.500359058380127
68	293.1356301307678	pulse	1	t		66.0	2.5	/experiments/knapen_AOT/AOT_stimuli/rescaled_final/1472_rv.mp4	0.0	314.69232511520386	
68	294.73297595977783	pulse	1	t		66.0	2.5	/experiments/knapen_AOT/AOT_stimuli/rescaled_final/1472_rv.mp4	0.0	316.28967094421387	
68	294.8521161079407	fix_post	2		12	66.0	2.5	/experiments/knapen_AOT/AOT_stimuli/rescaled_final/1472_rv.mp4	0.0	316.4088110923767	0.0999917984008789
69	294.95210790634155	fix_pre	0		120	67.0	2.5	/experiments/knapen_AOT/AOT_stimuli/rescaled_final/1147_fw.mp4	0.0	316.5088028907776	1.0001811981201172
69	295.95228910446167	movie	1		243	67.0	2.5	/experiments/knapen_AOT/AOT_stimuli/rescaled_final/1147_fw.mp4	0.0	317.5089840888977	2.4920449256896973
69	296.33709502220154	pulse	1	t		67.0	2.5	/experiments/knapen_AOT/AOT_stimuli/rescaled_final/1147_fw.mp4	0.0	317.8937900066376	
69	297.936154127121	pulse	1	t		67.0	2.5	/experiments/knapen_AOT/AOT_stimuli/rescaled_final/1147_fw.mp4	0.0	319.492849111557	
69	298.44433403015137	fix_post	2		12	67.0	2.5	/experiments/knapen_AOT/AOT_stimuli/rescaled_final/1147_fw.mp4	0.0	320.0010290145874	0.10000896453857422
70	298.54434299468994	fix_pre	0		120	68.0	2.5	/experiments/knapen_AOT/AOT_stimuli/rescaled_final/1389_rv.mp4	0.0	320.101037979126	1.0001749992370605
70	299.53637194633484	pulse	0	t		68.0	2.5	/experiments/knapen_AOT/AOT_stimuli/rescaled_final/1389_rv.mp4	0.0	321.0930669307709	
70	299.544517993927	movie	1		244	68.0	2.5	/experiments/knapen_AOT/AOT_stimuli/rescaled_final/1389_rv.mp4	0.0	321.10121297836304	2.5086989402770996
70	301.13771295547485	pulse	1	t		68.0	2.5	/experiments/knapen_AOT/AOT_stimuli/rescaled_final/1389_rv.mp4	0.0	322.6944079399109	
70	302.0532169342041	fix_post	2		12	68.0	2.5	/experiments/knapen_AOT/AOT_stimuli/rescaled_final/1389_rv.mp4	0.0	323.60991191864014	0.09997415542602539
71	302.1531910896301	fix_pre	0		120	69.0	2.5	blank	1.0	323.70988607406616	1.0001628398895264
71	302.736927986145	pulse	0	t		69.0	2.5	blank	1.0	324.29362297058105	
71	303.15335392951965	movie	1		300	69.0	2.5	blank	1.0	324.7100489139557	2.5004560947418213
71	304.33715891838074	pulse	1	t		69.0	2.5	blank	1.0	325.8938539028168	
71	305.6538100242615	fix_post	2		12	69.0	2.5	blank	1.0	327.2105050086975	0.09997296333312988
72	305.7537829875946	fix_pre	0		120	70.0	2.5	/experiments/knapen_AOT/AOT_stimuli/rescaled_final/0859_fw.mp4	0.0	327.31047797203064	1.0000879764556885
72	305.9372510910034	pulse	0	t		70.0	2.5	/experiments/knapen_AOT/AOT_stimuli/rescaled_final/0859_fw.mp4	0.0	327.49394607543945	
72	306.7538709640503	movie	1		244	70.0	2.5	/experiments/knapen_AOT/AOT_stimuli/rescaled_final/0859_fw.mp4	0.0	328.3105659484863	2.500420093536377
72	307.53758001327515	pulse	1	t		70.0	2.5	/experiments/knapen_AOT/AOT_stimuli/rescaled_final/0859_fw.mp4	0.0	329.0942749977112	
72	309.1378231048584	pulse	1	t		70.0	2.5	/experiments/knapen_AOT/AOT_stimuli/rescaled_final/0859_fw.mp4	0.0	330.69451808929443	
72	309.25429105758667	fix_post	2		12	70.0	2.5	/experiments/knapen_AOT/AOT_stimuli/rescaled_final/0859_fw.mp4	0.0	330.8109860420227	0.10001087188720703
73	309.3543019294739	fix_pre	0		120	71.0	2.5	/experiments/knapen_AOT/AOT_stimuli/rescaled_final/1547_rv.mp4	0.0	330.9109969139099	1.0002059936523438
73	310.3545079231262	movie	1		243	71.0	2.5	/experiments/knapen_AOT/AOT_stimuli/rescaled_final/1547_rv.mp4	0.0	331.91120290756226	2.492000102996826
73	310.7394390106201	pulse	1	t		71.0	2.5	/experiments/knapen_AOT/AOT_stimuli/rescaled_final/1547_rv.mp4	0.0	332.29613399505615	
73	312.33828806877136	pulse	1	t		71.0	2.5	/experiments/knapen_AOT/AOT_stimuli/rescaled_final/1547_rv.mp4	0.0	333.8949830532074	
73	312.84650802612305	fix_post	2		12	71.0	2.5	/experiments/knapen_AOT/AOT_stimuli/rescaled_final/1547_rv.mp4	0.0	334.4032030105591	0.09996604919433594
74	312.9464740753174	fix_pre	0		120	72.0	2.5	/experiments/knapen_AOT/AOT_stimuli/rescaled_final/0516_fw.mp4	0.0	334.5031690597534	1.0001888275146484
74	313.9385759830475	pulse	0	t		72.0	2.5	/experiments/knapen_AOT/AOT_stimuli/rescaled_final/0516_fw.mp4	0.0	335.4952709674835	
74	313.94666290283203	movie	1		246	72.0	2.5	/experiments/knapen_AOT/AOT_stimuli/rescaled_final/0516_fw.mp4	0.0	335.50335788726807	2.5087170600891113
74	315.5393249988556	pulse	1	t		72.0	2.5	/experiments/knapen_AOT/AOT_stimuli/rescaled_final/0516_fw.mp4	0.0	337.0960199832916	
74	316.45537996292114	fix_post	2		12	72.0	2.5	/experiments/knapen_AOT/AOT_stimuli/rescaled_final/0516_fw.mp4	0.0	338.0120749473572	0.09997797012329102
75	316.55535793304443	fix_pre	0		120	73.0	2.5	/experiments/knapen_AOT/AOT_stimuli/rescaled_final/1004_fw.mp4	0.0	338.11205291748047	1.000171184539795
75	317.13906693458557	pulse	0	t		73.0	2.5	/experiments/knapen_AOT/AOT_stimuli/rescaled_final/1004_fw.mp4	0.0	338.6957619190216	
75	317.55552911758423	movie	1		245	73.0	2.5	/experiments/knapen_AOT/AOT_stimuli/rescaled_final/1004_fw.mp4	0.0	339.11222410202026	2.5004677772521973
75	318.73941707611084	pulse	1	t		73.0	2.5	/experiments/knapen_AOT/AOT_stimuli/rescaled_final/1004_fw.mp4	0.0	340.2961120605469	
75	320.0559968948364	fix_post	2		9	73.0	2.5	/experiments/knapen_AOT/AOT_stimuli/rescaled_final/1004_fw.mp4	0.0	341.61269187927246	0.10025310516357422
76	320.15625	fix_pre	0		120	74.0	2.5	/experiments/knapen_AOT/AOT_stimuli/rescaled_final/0202_fw.mp4	0.0	341.71294498443604	0.9998180866241455
76	320.33203506469727	pulse	0	t		74.0	2.5	/experiments/knapen_AOT/AOT_stimuli/rescaled_final/0202_fw.mp4	0.0	341.8887300491333	
76	321.15606808662415	movie	1		244	74.0	2.5	/experiments/knapen_AOT/AOT_stimuli/rescaled_final/0202_fw.mp4	0.0	342.7127630710602	2.5003788471221924
76	321.9323699474335	pulse	1	t		74.0	2.5	/experiments/knapen_AOT/AOT_stimuli/rescaled_final/0202_fw.mp4	0.0	343.4890649318695	
76	323.53749108314514	pulse	1	t		74.0	2.5	/experiments/knapen_AOT/AOT_stimuli/rescaled_final/0202_fw.mp4	0.0	345.0941860675812	
76	323.65644693374634	fix_post	2		12	74.0	2.5	/experiments/knapen_AOT/AOT_stimuli/rescaled_final/0202_fw.mp4	0.0	345.2131419181824	0.09996604919433594
77	323.7564129829407	fix_pre	0		120	75.0	2.5	blank	1.0	345.3131079673767	1.0002000331878662
77	324.75661301612854	movie	1		299	75.0	2.5	blank	1.0	346.3133080005646	2.4920449256896973
77	325.13191509246826	pulse	1	t		75.0	2.5	blank	1.0	346.6886100769043	
77	326.732036113739	pulse	1	t		75.0	2.5	blank	1.0	348.28873109817505	
77	327.24865794181824	fix_post	2		12	75.0	2.5	blank	1.0	348.8053529262543	0.10002803802490234
78	327.34868597984314	fix_pre	0		119	76.0	2.5	/experiments/knapen_AOT/AOT_stimuli/rescaled_final/1703_rv.mp4	0.0	348.9053809642792	0.9917881488800049
78	328.3322880268097	pulse	0	t		76.0	2.5	/experiments/knapen_AOT/AOT_stimuli/rescaled_final/1703_rv.mp4	0.0	349.8889830112457	
78	328.34047412872314	movie	1		244	76.0	2.5	/experiments/knapen_AOT/AOT_stimuli/rescaled_final/1703_rv.mp4	0.0	349.8971691131592	2.5087108612060547
78	329.93314599990845	pulse	1	t		76.0	2.5	/experiments/knapen_AOT/AOT_stimuli/rescaled_final/1703_rv.mp4	0.0	351.4898409843445	
78	330.8491849899292	fix_post	2		12	76.0	2.5	/experiments/knapen_AOT/AOT_stimuli/rescaled_final/1703_rv.mp4	0.0	352.40587997436523	0.09998106956481934
79	330.949166059494	fix_pre	0		120	77.0	2.5	/experiments/knapen_AOT/AOT_stimuli/rescaled_final/0010_rv.mp4	0.0	352.50586104393005	1.000166893005371
79	331.5327830314636	pulse	0	t		77.0	2.5	/experiments/knapen_AOT/AOT_stimuli/rescaled_final/0010_rv.mp4	0.0	353.08947801589966	
79	331.9493329524994	movie	1		244	77.0	2.5	/experiments/knapen_AOT/AOT_stimuli/rescaled_final/0010_rv.mp4	0.0	353.5060279369354	2.5004241466522217
79	333.13317489624023	pulse	1	t		77.0	2.5	/experiments/knapen_AOT/AOT_stimuli/rescaled_final/0010_rv.mp4	0.0	354.68986988067627	
79	334.4497570991516	fix_post	2		12	77.0	2.5	/experiments/knapen_AOT/AOT_stimuli/rescaled_final/0010_rv.mp4	0.0	356.00645208358765	0.10000300407409668
80	334.5497601032257	fix_pre	0		120	78.0	2.5	/experiments/knapen_AOT/AOT_stimuli/rescaled_final/0962_fw.mp4	0.0	356.10645508766174	1.0000908374786377
80	334.7332429885864	pulse	0	t		78.0	2.5	/experiments/knapen_AOT/AOT_stimuli/rescaled_final/0962_fw.mp4	0.0	356.28993797302246	
80	335.54985094070435	movie	1		246	78.0	2.5	/experiments/knapen_AOT/AOT_stimuli/rescaled_final/0962_fw.mp4	0.0	357.1065459251404	2.5003631114959717
80	336.33353209495544	pulse	1	t		78.0	2.5	/experiments/knapen_AOT/AOT_stimuli/rescaled_final/0962_fw.mp4	0.0	357.8902270793915	
80	337.93393898010254	pulse	1	t		78.0	2.5	/experiments/knapen_AOT/AOT_stimuli/rescaled_final/0962_fw.mp4	0.0	359.4906339645386	
80	338.0502140522003	fix_post	2		12	78.0	2.5	/experiments/knapen_AOT/AOT_stimuli/rescaled_final/0962_fw.mp4	0.0	359.60690903663635	0.10001301765441895
81	338.15022706985474	fix_pre	0		120	79.0	2.5	/experiments/knapen_AOT/AOT_stimuli/rescaled_final/0885_fw.mp4	0.0	359.70692205429077	1.0002708435058594
81	339.1504979133606	movie	1		243	79.0	2.5	/experiments/knapen_AOT/AOT_stimuli/rescaled_final/0885_fw.mp4	0.0	360.70719289779663	2.491957187652588
81	339.5344409942627	pulse	1	t		79.0	2.5	/experiments/knapen_AOT/AOT_stimuli/rescaled_final/0885_fw.mp4	0.0	361.09113597869873	
81	341.134192943573	pulse	1	t		79.0	2.5	/experiments/knapen_AOT/AOT_stimuli/rescaled_final/0885_fw.mp4	0.0	362.69088792800903	
81	341.6424551010132	fix_post	2		12	79.0	2.5	/experiments/knapen_AOT/AOT_stimuli/rescaled_final/0885_fw.mp4	0.0	363.1991500854492	0.10007286071777344
82	341.74252796173096	fix_pre	0		120	80.0	2.5	/experiments/knapen_AOT/AOT_stimuli/rescaled_final/1075_fw.mp4	0.0	363.299222946167	1.0000979900360107
82	342.7344539165497	pulse	0	t		80.0	2.5	/experiments/knapen_AOT/AOT_stimuli/rescaled_final/1075_fw.mp4	0.0	364.2911489009857	
82	342.74262595176697	movie	1		244	80.0	2.5	/experiments/knapen_AOT/AOT_stimuli/rescaled_final/1075_fw.mp4	0.0	364.299320936203	2.508711099624634
82	344.3353090286255	pulse	1	t		80.0	2.5	/experiments/knapen_AOT/AOT_stimuli/rescaled_final/1075_fw.mp4	0.0	365.8920040130615	
82	345.2513370513916	fix_post	2		12	80.0	2.5	/experiments/knapen_AOT/AOT_stimuli/rescaled_final/1075_fw.mp4	0.0	366.80803203582764	0.09996485710144043
83	345.35130190849304	fix_pre	0		120	81.0	2.5	/experiments/knapen_AOT/AOT_stimuli/rescaled_final/1965_rv.mp4	0.0	366.9079968929291	1.0001962184906006
83	345.9349329471588	pulse	0	t		81.0	2.5	/experiments/knapen_AOT/AOT_stimuli/rescaled_final/1965_rv.mp4	0.0	367.49162793159485	
83	346.35149812698364	movie	1		245	81.0	2.5	/experiments/knapen_AOT/AOT_stimuli/rescaled_final/1965_rv.mp4	0.0	367.9081931114197	2.5004007816314697
83	347.53527998924255	pulse	1	t		81.0	2.5	/experiments/knapen_AOT/AOT_stimuli/rescaled_final/1965_rv.mp4	0.0	369.0919749736786	
83	348.8518989086151	fix_post	2		12	81.0	2.5	/experiments/knapen_AOT/AOT_stimuli/rescaled_final/1965_rv.mp4	0.0	370.40859389305115	0.0999441146850586
84	348.95184302330017	fix_pre	0		120	82.0	2.5	/experiments/knapen_AOT/AOT_stimuli/rescaled_final/1075_rv.mp4	0.0	370.5085380077362	1.0001850128173828
84	349.1353919506073	pulse	0	t		82.0	2.5	/experiments/knapen_AOT/AOT_stimuli/rescaled_final/1075_rv.mp4	0.0	370.69208693504333	
84	349.95202803611755	movie	1		244	82.0	2.5	/experiments/knapen_AOT/AOT_stimuli/rescaled_final/1075_rv.mp4	0.0	371.5087230205536	2.5003960132598877
84	350.73568201065063	pulse	1	t		82.0	2.5	/experiments/knapen_AOT/AOT_stimuli/rescaled_final/1075_rv.mp4	0.0	372.29237699508667	
84	352.33597207069397	pulse	1	t		82.0	2.5	/experiments/knapen_AOT/AOT_stimuli/rescaled_final/1075_rv.mp4	0.0	373.89266705513	
84	352.45242404937744	fix_post	2		12	82.0	2.5	/experiments/knapen_AOT/AOT_stimuli/rescaled_final/1075_rv.mp4	0.0	374.0091190338135	0.09998488426208496
85	352.5524089336395	fix_pre	0		120	83.0	2.5	blank	1.0	374.10910391807556	1.0001351833343506
85	353.5525441169739	movie	1		299	83.0	2.5	blank	1.0	375.1092391014099	2.4920449256896973
85	353.9362199306488	pulse	1	t		83.0	2.5	blank	1.0	375.49291491508484	
85	355.5363130569458	pulse	1	t		83.0	2.5	blank	1.0	377.09300804138184	
85	356.0445890426636	fix_post	2		12	83.0	2.5	blank	1.0	377.6012840270996	0.10004401206970215
87	356.1446330547333	stim	0		1716					377.7013280391693	14.302216053009033
87	357.1367030143738	pulse	0	t						378.6933979988098	
87	358.7368619441986	pulse	0	t						380.29355692863464	
87	360.3370521068573	pulse	0	t						381.89374709129333	
87	361.9373540878296	pulse	0	t						383.4940490722656	
87	363.53761291503906	pulse	0	t						385.0943078994751	
87	365.13782501220703	pulse	0	t						386.69451999664307	
87	366.73803997039795	pulse	0	t						388.294734954834	
87	368.33097100257874	pulse	0	t						389.88766598701477	
87	369.9311680793762	pulse	0	t						391.48786306381226	
