trial_nr	onset	event_type	phase	response	nr_frames	movie_index	movie_duration	movie_file	blank	onset_abs	duration
0	0.21662497520446777	stim	0		1					102.78465390205383	0.008367061614990234
0	0.12184405326843262	response	0	space						102.6898729801178	
1	0.224992036819458	stim	0		4793					102.79302096366882	39.95856785774231
1	40.17365503311157	pulse	0	t						142.74168395996094	
1	40.18355989456177	stim	1		1715					142.75158882141113	14.299509048461914
1	41.764747858047485	pulse	1	t						144.33277678489685	
1	43.364898920059204	pulse	1	t						145.93292784690857	
1	44.965091943740845	pulse	1	t						147.5331208705902	
1	46.56533694267273	pulse	1	t						149.1333658695221	
1	48.16566300392151	pulse	1	t						150.73369193077087	
1	49.76580095291138	pulse	1	t						152.33382987976074	
1	51.36605191230774	pulse	1	t						153.9340808391571	
1	52.96632194519043	pulse	1	t						155.5343508720398	
2	54.48306894302368	fix_pre	0		11	0.0	2.5	/experiments/knapen_AOT/AOT_stimuli/rescaled_final/0967_fw.mp4	0.0	157.05109786987305	0.09159493446350098
2	54.5665168762207	pulse	0	t		0.0	2.5	/experiments/knapen_AOT/AOT_stimuli/rescaled_final/0967_fw.mp4	0.0	157.13454580307007	
2	54.57466387748718	movie	1		244	0.0	2.5	/experiments/knapen_AOT/AOT_stimuli/rescaled_final/0967_fw.mp4	0.0	157.14269280433655	2.5087759494781494
2	56.16748404502869	pulse	1	t		0.0	2.5	/experiments/knapen_AOT/AOT_stimuli/rescaled_final/0967_fw.mp4	0.0	158.73551297187805	
2	57.08343982696533	fix_post	2		12	0.0	2.5	/experiments/knapen_AOT/AOT_stimuli/rescaled_final/0967_fw.mp4	0.0	159.6514687538147	0.10010600090026855
3	57.1835458278656	fix_pre	0		120	1.0	2.5	/experiments/knapen_AOT/AOT_stimuli/rescaled_final/1073_rv.mp4	0.0	159.75157475471497	1.0000710487365723
3	57.76702094078064	pulse	0	t		1.0	2.5	/experiments/knapen_AOT/AOT_stimuli/rescaled_final/1073_rv.mp4	0.0	160.33504986763	
3	58.18361687660217	movie	1		242	1.0	2.5	/experiments/knapen_AOT/AOT_stimuli/rescaled_final/1073_rv.mp4	0.0	160.75164580345154	2.500509023666382
3	59.36737084388733	pulse	1	t		1.0	2.5	/experiments/knapen_AOT/AOT_stimuli/rescaled_final/1073_rv.mp4	0.0	161.9353997707367	
3	60.684125900268555	fix_post	2		12	1.0	2.5	/experiments/knapen_AOT/AOT_stimuli/rescaled_final/1073_rv.mp4	0.0	163.25215482711792	0.09990310668945312
4	60.78402900695801	fix_pre	0		120	2.0	2.5	/experiments/knapen_AOT/AOT_stimuli/rescaled_final/1582_fw.mp4	0.0	163.35205793380737	1.000135898590088
4	60.96750783920288	pulse	0	t		2.0	2.5	/experiments/knapen_AOT/AOT_stimuli/rescaled_final/1582_fw.mp4	0.0	163.53553676605225	
4	61.784164905548096	movie	1		242	2.0	2.5	/experiments/knapen_AOT/AOT_stimuli/rescaled_final/1582_fw.mp4	0.0	164.35219383239746	2.500433921813965
4	62.56782388687134	pulse	1	t		2.0	2.5	/experiments/knapen_AOT/AOT_stimuli/rescaled_final/1582_fw.mp4	0.0	165.1358528137207	
4	64.16791200637817	pulse	1	t		2.0	2.5	/experiments/knapen_AOT/AOT_stimuli/rescaled_final/1582_fw.mp4	0.0	166.73594093322754	
4	64.28459882736206	fix_post	2		12	2.0	2.5	/experiments/knapen_AOT/AOT_stimuli/rescaled_final/1582_fw.mp4	0.0	166.85262775421143	0.09996509552001953
5	64.38456392288208	fix_pre	0		120	3.0	2.5	/experiments/knapen_AOT/AOT_stimuli/rescaled_final/1182_rv.mp4	0.0	166.95259284973145	1.0000770092010498
5	65.38464093208313	movie	1		241	3.0	2.5	/experiments/knapen_AOT/AOT_stimuli/rescaled_final/1182_rv.mp4	0.0	167.9526698589325	2.4920880794525146
5	65.76957893371582	pulse	1	t		3.0	2.5	/experiments/knapen_AOT/AOT_stimuli/rescaled_final/1182_rv.mp4	0.0	168.33760786056519	
5	67.36853003501892	pulse	1	t		3.0	2.5	/experiments/knapen_AOT/AOT_stimuli/rescaled_final/1182_rv.mp4	0.0	169.9365589618683	
5	67.87672901153564	fix_post	2		12	3.0	2.5	/experiments/knapen_AOT/AOT_stimuli/rescaled_final/1182_rv.mp4	0.0	170.444757938385	0.0999898910522461
6	67.97671890258789	fix_pre	0		120	4.0	2.5	/experiments/knapen_AOT/AOT_stimuli/rescaled_final/0222_rv.mp4	0.0	170.54474782943726	1.0001070499420166
6	68.96868085861206	pulse	0	t		4.0	2.5	/experiments/knapen_AOT/AOT_stimuli/rescaled_final/0222_rv.mp4	0.0	171.53670978546143	
6	68.97682595252991	movie	1		244	4.0	2.5	/experiments/knapen_AOT/AOT_stimuli/rescaled_final/0222_rv.mp4	0.0	171.54485487937927	2.5087618827819824
6	70.56975388526917	pulse	1	t		4.0	2.5	/experiments/knapen_AOT/AOT_stimuli/rescaled_final/0222_rv.mp4	0.0	173.13778281211853	
6	71.48558783531189	fix_post	2		12	4.0	2.5	/experiments/knapen_AOT/AOT_stimuli/rescaled_final/0222_rv.mp4	0.0	174.05361676216125	0.10002303123474121
7	71.58561086654663	fix_pre	0		120	5.0	2.5	blank	1.0	174.153639793396	1.0001380443572998
7	72.16919684410095	pulse	0	t		5.0	2.5	blank	1.0	174.73722577095032	
7	72.58574891090393	movie	1		300	5.0	2.5	blank	1.0	175.1537778377533	2.5003390312194824
7	73.76940894126892	pulse	1	t		5.0	2.5	blank	1.0	176.3374378681183	
7	75.08608794212341	fix_post	2		12	5.0	2.5	blank	1.0	177.65411686897278	0.10006999969482422
8	75.18615794181824	fix_pre	0		120	6.0	2.5	/experiments/knapen_AOT/AOT_stimuli/rescaled_final/1482_fw.mp4	0.0	177.7541868686676	1.0001499652862549
8	75.36964988708496	pulse	0	t		6.0	2.5	/experiments/knapen_AOT/AOT_stimuli/rescaled_final/1482_fw.mp4	0.0	177.93767881393433	
8	76.18630790710449	movie	1		242	6.0	2.5	/experiments/knapen_AOT/AOT_stimuli/rescaled_final/1482_fw.mp4	0.0	178.75433683395386	2.5003740787506104
8	76.96991300582886	pulse	1	t		6.0	2.5	/experiments/knapen_AOT/AOT_stimuli/rescaled_final/1482_fw.mp4	0.0	179.53794193267822	
8	78.56993889808655	pulse	1	t		6.0	2.5	/experiments/knapen_AOT/AOT_stimuli/rescaled_final/1482_fw.mp4	0.0	181.1379678249359	
8	78.6866819858551	fix_post	2		12	6.0	2.5	/experiments/knapen_AOT/AOT_stimuli/rescaled_final/1482_fw.mp4	0.0	181.25471091270447	0.09995603561401367
9	78.78663802146912	fix_pre	0		116	7.0	2.5	/experiments/knapen_AOT/AOT_stimuli/rescaled_final/1005_fw.mp4	0.0	181.35466694831848	0.9918708801269531
9	79.77850890159607	movie	1		243	7.0	2.5	/experiments/knapen_AOT/AOT_stimuli/rescaled_final/1005_fw.mp4	0.0	182.34653782844543	2.5004589557647705
9	80.17059803009033	pulse	1	t		7.0	2.5	/experiments/knapen_AOT/AOT_stimuli/rescaled_final/1005_fw.mp4	0.0	182.7386269569397	
9	81.77067995071411	pulse	1	t		7.0	2.5	/experiments/knapen_AOT/AOT_stimuli/rescaled_final/1005_fw.mp4	0.0	184.33870887756348	
9	82.27896785736084	fix_post	2		12	7.0	2.5	/experiments/knapen_AOT/AOT_stimuli/rescaled_final/1005_fw.mp4	0.0	184.8469967842102	0.09990215301513672
10	82.37887001037598	fix_pre	0		120	8.0	2.5	/experiments/knapen_AOT/AOT_stimuli/rescaled_final/0822_fw.mp4	0.0	184.94689893722534	1.0001389980316162
10	83.36346697807312	pulse	0	t		8.0	2.5	/experiments/knapen_AOT/AOT_stimuli/rescaled_final/0822_fw.mp4	0.0	185.93149590492249	
10	83.37900900840759	movie	1		244	8.0	2.5	/experiments/knapen_AOT/AOT_stimuli/rescaled_final/0822_fw.mp4	0.0	185.94703793525696	2.5086798667907715
10	84.97168302536011	pulse	1	t		8.0	2.5	/experiments/knapen_AOT/AOT_stimuli/rescaled_final/0822_fw.mp4	0.0	187.53971195220947	
10	85.88768887519836	fix_post	2		12	8.0	2.5	/experiments/knapen_AOT/AOT_stimuli/rescaled_final/0822_fw.mp4	0.0	188.45571780204773	0.10004806518554688
11	85.98773694038391	fix_pre	0		120	9.0	2.5	/experiments/knapen_AOT/AOT_stimuli/rescaled_final/0724_fw.mp4	0.0	188.55576586723328	1.0001859664916992
11	86.56387090682983	pulse	0	t		9.0	2.5	/experiments/knapen_AOT/AOT_stimuli/rescaled_final/0724_fw.mp4	0.0	189.1318998336792	
11	86.98792290687561	movie	1		246	9.0	2.5	/experiments/knapen_AOT/AOT_stimuli/rescaled_final/0724_fw.mp4	0.0	189.55595183372498	2.500375986099243
11	88.16436004638672	pulse	1	t		9.0	2.5	/experiments/knapen_AOT/AOT_stimuli/rescaled_final/0724_fw.mp4	0.0	190.73238897323608	
11	89.48829889297485	fix_post	2		12	9.0	2.5	/experiments/knapen_AOT/AOT_stimuli/rescaled_final/0724_fw.mp4	0.0	192.05632781982422	0.09998607635498047
12	89.58828496932983	fix_pre	0		120	10.0	2.5	/experiments/knapen_AOT/AOT_stimuli/rescaled_final/0702_fw.mp4	0.0	192.1563138961792	1.0002219676971436
12	89.76423192024231	pulse	0	t		10.0	2.5	/experiments/knapen_AOT/AOT_stimuli/rescaled_final/0702_fw.mp4	0.0	192.33226084709167	
12	90.58850693702698	movie	1		242	10.0	2.5	/experiments/knapen_AOT/AOT_stimuli/rescaled_final/0702_fw.mp4	0.0	193.15653586387634	2.500330924987793
12	91.36375594139099	pulse	1	t		10.0	2.5	/experiments/knapen_AOT/AOT_stimuli/rescaled_final/0702_fw.mp4	0.0	193.93178486824036	
12	92.96390390396118	pulse	1	t		10.0	2.5	/experiments/knapen_AOT/AOT_stimuli/rescaled_final/0702_fw.mp4	0.0	195.53193283081055	
12	93.08883786201477	fix_post	2		11	10.0	2.5	/experiments/knapen_AOT/AOT_stimuli/rescaled_final/0702_fw.mp4	0.0	195.65686678886414	0.09170007705688477
13	93.18053793907166	fix_pre	0		120	11.0	2.5	/experiments/knapen_AOT/AOT_stimuli/rescaled_final/0187_fw.mp4	0.0	195.74856686592102	1.0001089572906494
13	94.1806468963623	movie	1		243	11.0	2.5	/experiments/knapen_AOT/AOT_stimuli/rescaled_final/0187_fw.mp4	0.0	196.74867582321167	2.500460147857666
13	94.568186044693	pulse	1	t		11.0	2.5	/experiments/knapen_AOT/AOT_stimuli/rescaled_final/0187_fw.mp4	0.0	197.13621497154236	
13	96.16453504562378	pulse	1	t		11.0	2.5	/experiments/knapen_AOT/AOT_stimuli/rescaled_final/0187_fw.mp4	0.0	198.73256397247314	
13	96.68110704421997	fix_post	2		12	11.0	2.5	/experiments/knapen_AOT/AOT_stimuli/rescaled_final/0187_fw.mp4	0.0	199.24913597106934	0.09994101524353027
14	96.7810480594635	fix_pre	0		119	12.0	2.5	/experiments/knapen_AOT/AOT_stimuli/rescaled_final/1046_rv.mp4	0.0	199.34907698631287	0.9917738437652588
14	97.76476788520813	pulse	0	t		12.0	2.5	/experiments/knapen_AOT/AOT_stimuli/rescaled_final/1046_rv.mp4	0.0	200.3327968120575	
14	97.77282190322876	movie	1		243	12.0	2.5	/experiments/knapen_AOT/AOT_stimuli/rescaled_final/1046_rv.mp4	0.0	200.34085083007812	2.508751153945923
14	99.36955904960632	pulse	1	t		12.0	2.5	/experiments/knapen_AOT/AOT_stimuli/rescaled_final/1046_rv.mp4	0.0	201.9375879764557	
14	100.28157305717468	fix_post	2		12	12.0	2.5	/experiments/knapen_AOT/AOT_stimuli/rescaled_final/1046_rv.mp4	0.0	202.84960198402405	0.10003399848937988
15	100.38160705566406	fix_pre	0		120	13.0	2.5	/experiments/knapen_AOT/AOT_stimuli/rescaled_final/0840_fw.mp4	0.0	202.94963598251343	1.0000808238983154
15	100.96518301963806	pulse	0	t		13.0	2.5	/experiments/knapen_AOT/AOT_stimuli/rescaled_final/0840_fw.mp4	0.0	203.53321194648743	
15	101.38168787956238	movie	1		243	13.0	2.5	/experiments/knapen_AOT/AOT_stimuli/rescaled_final/0840_fw.mp4	0.0	203.94971680641174	2.500552177429199
15	102.56559491157532	pulse	1	t		13.0	2.5	/experiments/knapen_AOT/AOT_stimuli/rescaled_final/0840_fw.mp4	0.0	205.13362383842468	
15	103.88224005699158	fix_post	2		12	13.0	2.5	/experiments/knapen_AOT/AOT_stimuli/rescaled_final/0840_fw.mp4	0.0	206.45026898384094	0.09988999366760254
16	103.98213005065918	fix_pre	0		120	14.0	2.5	blank	1.0	206.55015897750854	1.000133991241455
16	104.16574096679688	pulse	0	t		14.0	2.5	blank	1.0	206.73376989364624	
16	104.98226404190063	movie	1		300	14.0	2.5	blank	1.0	207.55029296875	2.500382900238037
16	105.76584506034851	pulse	1	t		14.0	2.5	blank	1.0	208.33387398719788	
16	107.36609387397766	pulse	1	t		14.0	2.5	blank	1.0	209.93412280082703	
16	107.48264694213867	fix_post	2		12	14.0	2.5	blank	1.0	210.05067586898804	0.09998202323913574
17	107.58262896537781	fix_pre	0		120	15.0	2.5	/experiments/knapen_AOT/AOT_stimuli/rescaled_final/1742_rv.mp4	0.0	210.15065789222717	1.0001299381256104
17	108.58275890350342	movie	1		241	15.0	2.5	/experiments/knapen_AOT/AOT_stimuli/rescaled_final/1742_rv.mp4	0.0	211.15078783035278	2.4921419620513916
17	108.96677684783936	pulse	1	t		15.0	2.5	/experiments/knapen_AOT/AOT_stimuli/rescaled_final/1742_rv.mp4	0.0	211.53480577468872	
17	110.56656384468079	pulse	1	t		15.0	2.5	/experiments/knapen_AOT/AOT_stimuli/rescaled_final/1742_rv.mp4	0.0	213.13459277153015	
17	111.07490086555481	fix_post	2		12	15.0	2.5	/experiments/knapen_AOT/AOT_stimuli/rescaled_final/1742_rv.mp4	0.0	213.64292979240417	0.09994697570800781
18	111.17484784126282	fix_pre	0		120	16.0	2.5	/experiments/knapen_AOT/AOT_stimuli/rescaled_final/0541_fw.mp4	0.0	213.74287676811218	1.000169038772583
18	112.16694402694702	pulse	0	t		16.0	2.5	/experiments/knapen_AOT/AOT_stimuli/rescaled_final/0541_fw.mp4	0.0	214.7349729537964	
18	112.1750168800354	movie	1		245	16.0	2.5	/experiments/knapen_AOT/AOT_stimuli/rescaled_final/0541_fw.mp4	0.0	214.74304580688477	2.5086801052093506
18	113.77112293243408	pulse	1	t		16.0	2.5	/experiments/knapen_AOT/AOT_stimuli/rescaled_final/0541_fw.mp4	0.0	216.33915185928345	
18	114.68369698524475	fix_post	2		12	16.0	2.5	/experiments/knapen_AOT/AOT_stimuli/rescaled_final/0541_fw.mp4	0.0	217.25172591209412	0.09996795654296875
19	114.78366494178772	fix_pre	0		120	17.0	2.5	/experiments/knapen_AOT/AOT_stimuli/rescaled_final/1677_rv.mp4	0.0	217.35169386863708	1.0001640319824219
19	115.36734199523926	pulse	0	t		17.0	2.5	/experiments/knapen_AOT/AOT_stimuli/rescaled_final/1677_rv.mp4	0.0	217.93537092208862	
19	115.78382897377014	movie	1		243	17.0	2.5	/experiments/knapen_AOT/AOT_stimuli/rescaled_final/1677_rv.mp4	0.0	218.3518579006195	2.500566005706787
19	116.96336698532104	pulse	1	t		17.0	2.5	/experiments/knapen_AOT/AOT_stimuli/rescaled_final/1677_rv.mp4	0.0	219.5313959121704	
19	118.28439497947693	fix_post	2		12	17.0	2.5	/experiments/knapen_AOT/AOT_stimuli/rescaled_final/1677_rv.mp4	0.0	220.8524239063263	0.09987902641296387
20	118.38427400588989	fix_pre	0		120	18.0	2.5	/experiments/knapen_AOT/AOT_stimuli/rescaled_final/1911_rv.mp4	0.0	220.95230293273926	1.0001239776611328
20	118.56784296035767	pulse	0	t		18.0	2.5	/experiments/knapen_AOT/AOT_stimuli/rescaled_final/1911_rv.mp4	0.0	221.13587188720703	
20	119.38439798355103	movie	1		242	18.0	2.5	/experiments/knapen_AOT/AOT_stimuli/rescaled_final/1911_rv.mp4	0.0	221.9524269104004	2.500411033630371
20	120.16795802116394	pulse	1	t		18.0	2.5	/experiments/knapen_AOT/AOT_stimuli/rescaled_final/1911_rv.mp4	0.0	222.7359869480133	
20	121.76803588867188	pulse	1	t		18.0	2.5	/experiments/knapen_AOT/AOT_stimuli/rescaled_final/1911_rv.mp4	0.0	224.33606481552124	
20	121.8848090171814	fix_post	2		12	18.0	2.5	/experiments/knapen_AOT/AOT_stimuli/rescaled_final/1911_rv.mp4	0.0	224.45283794403076	0.0999448299407959
21	121.98475384712219	fix_pre	0		120	19.0	2.5	/experiments/knapen_AOT/AOT_stimuli/rescaled_final/1248_fw.mp4	0.0	224.55278277397156	1.0002059936523438
21	122.98495984077454	movie	1		242	19.0	2.5	/experiments/knapen_AOT/AOT_stimuli/rescaled_final/1248_fw.mp4	0.0	225.5529887676239	2.49208402633667
21	123.36901903152466	pulse	1	t		19.0	2.5	/experiments/knapen_AOT/AOT_stimuli/rescaled_final/1248_fw.mp4	0.0	225.93704795837402	
21	124.96882486343384	pulse	1	t		19.0	2.5	/experiments/knapen_AOT/AOT_stimuli/rescaled_final/1248_fw.mp4	0.0	227.5368537902832	
21	125.4770438671112	fix_post	2		12	19.0	2.5	/experiments/knapen_AOT/AOT_stimuli/rescaled_final/1248_fw.mp4	0.0	228.04507279396057	0.09995913505554199
22	125.57700300216675	fix_pre	0		120	20.0	2.5	/experiments/knapen_AOT/AOT_stimuli/rescaled_final/0220_fw.mp4	0.0	228.1450319290161	1.0001070499420166
22	126.56892204284668	pulse	0	t		20.0	2.5	/experiments/knapen_AOT/AOT_stimuli/rescaled_final/0220_fw.mp4	0.0	229.13695096969604	
22	126.57711005210876	movie	1		243	20.0	2.5	/experiments/knapen_AOT/AOT_stimuli/rescaled_final/0220_fw.mp4	0.0	229.14513897895813	2.5087239742279053
22	128.1739799976349	pulse	1	t		20.0	2.5	/experiments/knapen_AOT/AOT_stimuli/rescaled_final/0220_fw.mp4	0.0	230.74200892448425	
22	129.08583402633667	fix_post	2		12	20.0	2.5	/experiments/knapen_AOT/AOT_stimuli/rescaled_final/0220_fw.mp4	0.0	231.65386295318604	0.10008001327514648
23	129.18591403961182	fix_pre	0		120	21.0	2.5	blank	1.0	231.75394296646118	1.0001049041748047
23	129.76943492889404	pulse	0	t		21.0	2.5	blank	1.0	232.3374638557434	
23	130.18601894378662	movie	1		300	21.0	2.5	blank	1.0	232.754047870636	2.5004100799560547
23	131.36980199813843	pulse	1	t		21.0	2.5	blank	1.0	233.9378309249878	
23	132.68642902374268	fix_post	2		12	21.0	2.5	blank	1.0	235.25445795059204	0.10000300407409668
24	132.78643202781677	fix_pre	0		120	22.0	2.5	/experiments/knapen_AOT/AOT_stimuli/rescaled_final/1635_rv.mp4	0.0	235.35446095466614	1.0001239776611328
24	132.9699330329895	pulse	0	t		22.0	2.5	/experiments/knapen_AOT/AOT_stimuli/rescaled_final/1635_rv.mp4	0.0	235.53796195983887	
24	133.7865560054779	movie	1		243	22.0	2.5	/experiments/knapen_AOT/AOT_stimuli/rescaled_final/1635_rv.mp4	0.0	236.35458493232727	2.5003910064697266
24	134.5702350139618	pulse	1	t		22.0	2.5	/experiments/knapen_AOT/AOT_stimuli/rescaled_final/1635_rv.mp4	0.0	237.13826394081116	
24	136.17025899887085	pulse	1	t		22.0	2.5	/experiments/knapen_AOT/AOT_stimuli/rescaled_final/1635_rv.mp4	0.0	238.73828792572021	
24	136.28694701194763	fix_post	2		12	22.0	2.5	/experiments/knapen_AOT/AOT_stimuli/rescaled_final/1635_rv.mp4	0.0	238.854975938797	0.10008502006530762
25	136.38703203201294	fix_pre	0		120	23.0	2.5	/experiments/knapen_AOT/AOT_stimuli/rescaled_final/0405_fw.mp4	0.0	238.9550609588623	1.000044822692871
25	137.3870768547058	movie	1		241	23.0	2.5	/experiments/knapen_AOT/AOT_stimuli/rescaled_final/0405_fw.mp4	0.0	239.95510578155518	2.4921090602874756
25	137.7720320224762	pulse	1	t		23.0	2.5	/experiments/knapen_AOT/AOT_stimuli/rescaled_final/0405_fw.mp4	0.0	240.34006094932556	
25	139.36352801322937	pulse	1	t		23.0	2.5	/experiments/knapen_AOT/AOT_stimuli/rescaled_final/0405_fw.mp4	0.0	241.93155694007874	
25	139.8791859149933	fix_post	2		12	23.0	2.5	/experiments/knapen_AOT/AOT_stimuli/rescaled_final/0405_fw.mp4	0.0	242.44721484184265	0.09993100166320801
26	139.9791169166565	fix_pre	0		120	24.0	2.5	/experiments/knapen_AOT/AOT_stimuli/rescaled_final/0187_rv.mp4	0.0	242.54714584350586	1.0001230239868164
26	140.96366906166077	pulse	0	t		24.0	2.5	/experiments/knapen_AOT/AOT_stimuli/rescaled_final/0187_rv.mp4	0.0	243.53169798851013	
26	140.9792399406433	movie	1		241	24.0	2.5	/experiments/knapen_AOT/AOT_stimuli/rescaled_final/0187_rv.mp4	0.0	243.54726886749268	2.508784055709839
26	142.57182502746582	pulse	1	t		24.0	2.5	/experiments/knapen_AOT/AOT_stimuli/rescaled_final/0187_rv.mp4	0.0	245.13985395431519	
26	143.48802399635315	fix_post	2		12	24.0	2.5	/experiments/knapen_AOT/AOT_stimuli/rescaled_final/0187_rv.mp4	0.0	246.05605292320251	0.10002899169921875
27	143.58805298805237	fix_pre	0		120	25.0	2.5	/experiments/knapen_AOT/AOT_stimuli/rescaled_final/1892_fw.mp4	0.0	246.15608191490173	1.0000638961791992
27	144.16330695152283	pulse	0	t		25.0	2.5	/experiments/knapen_AOT/AOT_stimuli/rescaled_final/1892_fw.mp4	0.0	246.7313358783722	
27	144.58811688423157	movie	1		243	25.0	2.5	/experiments/knapen_AOT/AOT_stimuli/rescaled_final/1892_fw.mp4	0.0	247.15614581108093	2.5004820823669434
27	145.76416182518005	pulse	1	t		25.0	2.5	/experiments/knapen_AOT/AOT_stimuli/rescaled_final/1892_fw.mp4	0.0	248.33219075202942	
27	147.0885989665985	fix_post	2		12	25.0	2.5	/experiments/knapen_AOT/AOT_stimuli/rescaled_final/1892_fw.mp4	0.0	249.65662789344788	0.09995198249816895
28	147.18855094909668	fix_pre	0		120	26.0	2.5	/experiments/knapen_AOT/AOT_stimuli/rescaled_final/1807_fw.mp4	0.0	249.75657987594604	1.0001220703125
28	147.3636999130249	pulse	0	t		26.0	2.5	/experiments/knapen_AOT/AOT_stimuli/rescaled_final/1807_fw.mp4	0.0	249.93172883987427	
28	148.18867301940918	movie	1		243	26.0	2.5	/experiments/knapen_AOT/AOT_stimuli/rescaled_final/1807_fw.mp4	0.0	250.75670194625854	2.50038480758667
28	148.96393084526062	pulse	1	t		26.0	2.5	/experiments/knapen_AOT/AOT_stimuli/rescaled_final/1807_fw.mp4	0.0	251.53195977210999	
28	150.5642409324646	pulse	1	t		26.0	2.5	/experiments/knapen_AOT/AOT_stimuli/rescaled_final/1807_fw.mp4	0.0	253.13226985931396	
28	150.68905782699585	fix_post	2		12	26.0	2.5	/experiments/knapen_AOT/AOT_stimuli/rescaled_final/1807_fw.mp4	0.0	253.25708675384521	0.1000361442565918
29	150.78909397125244	fix_pre	0		120	27.0	2.5	blank	1.0	253.3571228981018	1.000143051147461
29	151.7892370223999	movie	1		299	27.0	2.5	blank	1.0	254.35726594924927	2.4920289516448975
29	152.16442894935608	pulse	1	t		27.0	2.5	blank	1.0	254.73245787620544	
29	153.76464796066284	pulse	1	t		27.0	2.5	blank	1.0	256.3326768875122	
29	154.2812659740448	fix_post	2		12	27.0	2.5	blank	1.0	256.84929490089417	0.1000208854675293
30	154.38128685951233	fix_pre	0		119	28.0	2.5	/experiments/knapen_AOT/AOT_stimuli/rescaled_final/1539_rv.mp4	0.0	256.9493157863617	0.9918310642242432
30	155.3648660182953	pulse	0	t		28.0	2.5	/experiments/knapen_AOT/AOT_stimuli/rescaled_final/1539_rv.mp4	0.0	257.93289494514465	
30	155.37311792373657	movie	1		243	28.0	2.5	/experiments/knapen_AOT/AOT_stimuli/rescaled_final/1539_rv.mp4	0.0	257.94114685058594	2.5086829662323
30	156.9657700061798	pulse	1	t		28.0	2.5	/experiments/knapen_AOT/AOT_stimuli/rescaled_final/1539_rv.mp4	0.0	259.5337989330292	
30	157.88180088996887	fix_post	2		12	28.0	2.5	/experiments/knapen_AOT/AOT_stimuli/rescaled_final/1539_rv.mp4	0.0	260.44982981681824	0.1000070571899414
31	157.9818079471588	fix_pre	0		120	29.0	2.5	/experiments/knapen_AOT/AOT_stimuli/rescaled_final/0724_rv.mp4	0.0	260.5498368740082	1.0002079010009766
31	158.5654399394989	pulse	0	t		29.0	2.5	/experiments/knapen_AOT/AOT_stimuli/rescaled_final/0724_rv.mp4	0.0	261.13346886634827	
31	158.9820158481598	movie	1		246	29.0	2.5	/experiments/knapen_AOT/AOT_stimuli/rescaled_final/0724_rv.mp4	0.0	261.55004477500916	2.50032901763916
31	160.16573286056519	pulse	1	t		29.0	2.5	/experiments/knapen_AOT/AOT_stimuli/rescaled_final/0724_rv.mp4	0.0	262.73376178741455	
31	161.48234486579895	fix_post	2		12	29.0	2.5	/experiments/knapen_AOT/AOT_stimuli/rescaled_final/0724_rv.mp4	0.0	264.0503737926483	0.10005307197570801
32	161.58239793777466	fix_pre	0		120	30.0	2.5	/experiments/knapen_AOT/AOT_stimuli/rescaled_final/0004_rv.mp4	0.0	264.150426864624	1.0001139640808105
32	161.76591205596924	pulse	0	t		30.0	2.5	/experiments/knapen_AOT/AOT_stimuli/rescaled_final/0004_rv.mp4	0.0	264.3339409828186	
32	162.58251190185547	movie	1		242	30.0	2.5	/experiments/knapen_AOT/AOT_stimuli/rescaled_final/0004_rv.mp4	0.0	265.15054082870483	2.500460147857666
32	163.36619687080383	pulse	1	t		30.0	2.5	/experiments/knapen_AOT/AOT_stimuli/rescaled_final/0004_rv.mp4	0.0	265.9342257976532	
32	164.96632885932922	pulse	1	t		30.0	2.5	/experiments/knapen_AOT/AOT_stimuli/rescaled_final/0004_rv.mp4	0.0	267.5343577861786	
32	165.08297204971313	fix_post	2		12	30.0	2.5	/experiments/knapen_AOT/AOT_stimuli/rescaled_final/0004_rv.mp4	0.0	267.6510009765625	0.09998297691345215
33	165.1829550266266	fix_pre	0		120	31.0	2.5	/experiments/knapen_AOT/AOT_stimuli/rescaled_final/2059_fw.mp4	0.0	267.75098395347595	1.000140905380249
33	166.18309593200684	movie	1		242	31.0	2.5	/experiments/knapen_AOT/AOT_stimuli/rescaled_final/2059_fw.mp4	0.0	268.7511248588562	2.4921391010284424
33	166.5671238899231	pulse	1	t		31.0	2.5	/experiments/knapen_AOT/AOT_stimuli/rescaled_final/2059_fw.mp4	0.0	269.13515281677246	
33	168.1667959690094	pulse	1	t		31.0	2.5	/experiments/knapen_AOT/AOT_stimuli/rescaled_final/2059_fw.mp4	0.0	270.73482489585876	
33	168.67523503303528	fix_post	2		12	31.0	2.5	/experiments/knapen_AOT/AOT_stimuli/rescaled_final/2059_fw.mp4	0.0	271.24326395988464	0.0998678207397461
34	168.77510285377502	fix_pre	0		120	32.0	2.5	/experiments/knapen_AOT/AOT_stimuli/rescaled_final/1934_fw.mp4	0.0	271.3431317806244	1.0001490116119385
34	169.7672040462494	pulse	0	t		32.0	2.5	/experiments/knapen_AOT/AOT_stimuli/rescaled_final/1934_fw.mp4	0.0	272.33523297309875	
34	169.77525186538696	movie	1		243	32.0	2.5	/experiments/knapen_AOT/AOT_stimuli/rescaled_final/1934_fw.mp4	0.0	272.3432807922363	2.5087311267852783
34	171.3696939945221	pulse	1	t		32.0	2.5	/experiments/knapen_AOT/AOT_stimuli/rescaled_final/1934_fw.mp4	0.0	273.93772292137146	
34	172.28398299217224	fix_post	2		12	32.0	2.5	/experiments/knapen_AOT/AOT_stimuli/rescaled_final/1934_fw.mp4	0.0	274.8520119190216	0.1000070571899414
35	172.38399004936218	fix_pre	0		120	33.0	2.5	/experiments/knapen_AOT/AOT_stimuli/rescaled_final/1722_fw.mp4	0.0	274.95201897621155	1.0001978874206543
35	172.96765184402466	pulse	0	t		33.0	2.5	/experiments/knapen_AOT/AOT_stimuli/rescaled_final/1722_fw.mp4	0.0	275.535680770874	
35	173.38418793678284	movie	1		242	33.0	2.5	/experiments/knapen_AOT/AOT_stimuli/rescaled_final/1722_fw.mp4	0.0	275.9522168636322	2.5003230571746826
35	174.56786489486694	pulse	1	t		33.0	2.5	/experiments/knapen_AOT/AOT_stimuli/rescaled_final/1722_fw.mp4	0.0	277.1358938217163	
35	175.88451099395752	fix_post	2		12	33.0	2.5	/experiments/knapen_AOT/AOT_stimuli/rescaled_final/1722_fw.mp4	0.0	278.4525399208069	0.10000085830688477
36	175.9845118522644	fix_pre	0		120	34.0	2.5	blank	1.0	278.55254077911377	1.0001420974731445
36	176.16800999641418	pulse	0	t		34.0	2.5	blank	1.0	278.73603892326355	
36	176.98465394973755	movie	1		300	34.0	2.5	blank	1.0	279.5526828765869	2.5004189014434814
36	177.76839804649353	pulse	1	t		34.0	2.5	blank	1.0	280.3364269733429	
36	179.36855101585388	pulse	1	t		34.0	2.5	blank	1.0	281.93657994270325	
36	179.48507285118103	fix_post	2		12	34.0	2.5	blank	1.0	282.0531017780304	0.10000300407409668
37	179.58507585525513	fix_pre	0		120	35.0	2.5	/experiments/knapen_AOT/AOT_stimuli/rescaled_final/0011_rv.mp4	0.0	282.1531047821045	1.0001521110534668
37	180.5852279663086	movie	1		241	35.0	2.5	/experiments/knapen_AOT/AOT_stimuli/rescaled_final/0011_rv.mp4	0.0	283.15325689315796	2.4920809268951416
37	180.96988487243652	pulse	1	t		35.0	2.5	/experiments/knapen_AOT/AOT_stimuli/rescaled_final/0011_rv.mp4	0.0	283.5379137992859	
37	182.5689878463745	pulse	1	t		35.0	2.5	/experiments/knapen_AOT/AOT_stimuli/rescaled_final/0011_rv.mp4	0.0	285.1370167732239	
37	183.07730889320374	fix_post	2		12	35.0	2.5	/experiments/knapen_AOT/AOT_stimuli/rescaled_final/0011_rv.mp4	0.0	285.6453378200531	0.09998202323913574
38	183.17729091644287	fix_pre	0		120	36.0	2.5	/experiments/knapen_AOT/AOT_stimuli/rescaled_final/0292_fw.mp4	0.0	285.74531984329224	1.0000929832458496
38	184.16931796073914	pulse	0	t		36.0	2.5	/experiments/knapen_AOT/AOT_stimuli/rescaled_final/0292_fw.mp4	0.0	286.7373468875885	
38	184.17738389968872	movie	1		244	36.0	2.5	/experiments/knapen_AOT/AOT_stimuli/rescaled_final/0292_fw.mp4	0.0	286.7454128265381	2.5087249279022217
38	185.7701699733734	pulse	1	t		36.0	2.5	/experiments/knapen_AOT/AOT_stimuli/rescaled_final/0292_fw.mp4	0.0	288.3381989002228	
38	186.68610882759094	fix_post	2		12	36.0	2.5	/experiments/knapen_AOT/AOT_stimuli/rescaled_final/0292_fw.mp4	0.0	289.2541377544403	0.10001611709594727
39	186.7861249446869	fix_pre	0		120	37.0	2.5	/experiments/knapen_AOT/AOT_stimuli/rescaled_final/1419_fw.mp4	0.0	289.35415387153625	1.00018310546875
39	187.36969995498657	pulse	0	t		37.0	2.5	/experiments/knapen_AOT/AOT_stimuli/rescaled_final/1419_fw.mp4	0.0	289.93772888183594	
39	187.78630805015564	movie	1		243	37.0	2.5	/experiments/knapen_AOT/AOT_stimuli/rescaled_final/1419_fw.mp4	0.0	290.354336977005	2.500391960144043
39	188.9700050354004	pulse	1	t		37.0	2.5	/experiments/knapen_AOT/AOT_stimuli/rescaled_final/1419_fw.mp4	0.0	291.53803396224976	
39	190.28670001029968	fix_post	2		12	37.0	2.5	/experiments/knapen_AOT/AOT_stimuli/rescaled_final/1419_fw.mp4	0.0	292.85472893714905	0.09993886947631836
40	190.386638879776	fix_pre	0		120	38.0	2.5	/experiments/knapen_AOT/AOT_stimuli/rescaled_final/0787_rv.mp4	0.0	292.95466780662537	1.0001640319824219
40	190.5701699256897	pulse	0	t		38.0	2.5	/experiments/knapen_AOT/AOT_stimuli/rescaled_final/0787_rv.mp4	0.0	293.13819885253906	
40	191.38680291175842	movie	1		244	38.0	2.5	/experiments/knapen_AOT/AOT_stimuli/rescaled_final/0787_rv.mp4	0.0	293.9548318386078	2.500383138656616
40	192.1704969406128	pulse	1	t		38.0	2.5	/experiments/knapen_AOT/AOT_stimuli/rescaled_final/0787_rv.mp4	0.0	294.73852586746216	
40	193.77069282531738	pulse	1	t		38.0	2.5	/experiments/knapen_AOT/AOT_stimuli/rescaled_final/0787_rv.mp4	0.0	296.33872175216675	
40	193.88718605041504	fix_post	2		12	38.0	2.5	/experiments/knapen_AOT/AOT_stimuli/rescaled_final/0787_rv.mp4	0.0	296.4552149772644	0.10002589225769043
41	193.98721194267273	fix_pre	0		120	39.0	2.5	/experiments/knapen_AOT/AOT_stimuli/rescaled_final/1273_rv.mp4	0.0	296.5552408695221	1.0001239776611328
41	194.98733592033386	movie	1		243	39.0	2.5	/experiments/knapen_AOT/AOT_stimuli/rescaled_final/1273_rv.mp4	0.0	297.5553648471832	2.492047071456909
41	195.37166786193848	pulse	1	t		39.0	2.5	/experiments/knapen_AOT/AOT_stimuli/rescaled_final/1273_rv.mp4	0.0	297.93969678878784	
41	196.96389389038086	pulse	1	t		39.0	2.5	/experiments/knapen_AOT/AOT_stimuli/rescaled_final/1273_rv.mp4	0.0	299.5319228172302	
41	197.47938299179077	fix_post	2		12	39.0	2.5	/experiments/knapen_AOT/AOT_stimuli/rescaled_final/1273_rv.mp4	0.0	300.04741191864014	0.10002589225769043
42	197.57940888404846	fix_pre	0		120	40.0	2.5	/experiments/knapen_AOT/AOT_stimuli/rescaled_final/2045_fw.mp4	0.0	300.1474378108978	1.0001661777496338
42	198.56390190124512	pulse	0	t		40.0	2.5	/experiments/knapen_AOT/AOT_stimuli/rescaled_final/2045_fw.mp4	0.0	301.1319308280945	
42	198.5795750617981	movie	1		243	40.0	2.5	/experiments/knapen_AOT/AOT_stimuli/rescaled_final/2045_fw.mp4	0.0	301.14760398864746	2.5086939334869385
42	200.16323590278625	pulse	1	t		40.0	2.5	/experiments/knapen_AOT/AOT_stimuli/rescaled_final/2045_fw.mp4	0.0	302.7312648296356	
42	201.08826899528503	fix_post	2		12	40.0	2.5	/experiments/knapen_AOT/AOT_stimuli/rescaled_final/2045_fw.mp4	0.0	303.6562979221344	0.09996795654296875
43	201.188236951828	fix_pre	0		117	41.0	2.5	/experiments/knapen_AOT/AOT_stimuli/rescaled_final/0008_rv.mp4	0.0	303.75626587867737	1.0002150535583496
43	201.76360082626343	pulse	0	t		41.0	2.5	/experiments/knapen_AOT/AOT_stimuli/rescaled_final/0008_rv.mp4	0.0	304.3316297531128	
43	202.18845200538635	movie	1		242	41.0	2.5	/experiments/knapen_AOT/AOT_stimuli/rescaled_final/0008_rv.mp4	0.0	304.7564809322357	2.500358819961548
43	203.36501502990723	pulse	1	t		41.0	2.5	/experiments/knapen_AOT/AOT_stimuli/rescaled_final/0008_rv.mp4	0.0	305.9330439567566	
43	204.6888108253479	fix_post	2		12	41.0	2.5	/experiments/knapen_AOT/AOT_stimuli/rescaled_final/0008_rv.mp4	0.0	307.25683975219727	0.09997701644897461
44	204.78878784179688	fix_pre	0		120	42.0	2.5	blank	1.0	307.35681676864624	1.000209093093872
44	204.96397495269775	pulse	0	t		42.0	2.5	blank	1.0	307.5320038795471	
44	205.78899693489075	movie	1		300	42.0	2.5	blank	1.0	308.3570258617401	2.5003480911254883
44	206.56417894363403	pulse	1	t		42.0	2.5	blank	1.0	309.1322078704834	
44	208.16445899009705	pulse	1	t		42.0	2.5	blank	1.0	310.7324879169464	
44	208.28934502601624	fix_post	2		12	42.0	2.5	blank	1.0	310.8573739528656	0.09999799728393555
45	208.38934302330017	fix_pre	0		120	43.0	2.5	/experiments/knapen_AOT/AOT_stimuli/rescaled_final/0367_rv.mp4	0.0	310.95737195014954	1.0001590251922607
45	209.38950204849243	movie	1		242	43.0	2.5	/experiments/knapen_AOT/AOT_stimuli/rescaled_final/0367_rv.mp4	0.0	311.9575309753418	2.492170810699463
45	209.76480388641357	pulse	1	t		43.0	2.5	/experiments/knapen_AOT/AOT_stimuli/rescaled_final/0367_rv.mp4	0.0	312.33283281326294	
45	211.365051984787	pulse	1	t		43.0	2.5	/experiments/knapen_AOT/AOT_stimuli/rescaled_final/0367_rv.mp4	0.0	313.93308091163635	
45	211.8816728591919	fix_post	2		12	43.0	2.5	/experiments/knapen_AOT/AOT_stimuli/rescaled_final/0367_rv.mp4	0.0	314.44970178604126	0.09990406036376953
46	211.98157691955566	fix_pre	0		119	44.0	2.5	/experiments/knapen_AOT/AOT_stimuli/rescaled_final/2120_fw.mp4	0.0	314.54960584640503	0.9918010234832764
46	212.96522498130798	pulse	0	t		44.0	2.5	/experiments/knapen_AOT/AOT_stimuli/rescaled_final/2120_fw.mp4	0.0	315.53325390815735	
46	212.97337794303894	movie	1		243	44.0	2.5	/experiments/knapen_AOT/AOT_stimuli/rescaled_final/2120_fw.mp4	0.0	315.5414068698883	2.5087130069732666
46	214.56630682945251	pulse	1	t		44.0	2.5	/experiments/knapen_AOT/AOT_stimuli/rescaled_final/2120_fw.mp4	0.0	317.1343357563019	
46	215.4820909500122	fix_post	2		12	44.0	2.5	/experiments/knapen_AOT/AOT_stimuli/rescaled_final/2120_fw.mp4	0.0	318.0501198768616	0.09998202323913574
47	215.58207297325134	fix_pre	0		120	45.0	2.5	/experiments/knapen_AOT/AOT_stimuli/rescaled_final/1632_rv.mp4	0.0	318.1501019001007	1.0001540184020996
47	216.16566491127014	pulse	0	t		45.0	2.5	/experiments/knapen_AOT/AOT_stimuli/rescaled_final/1632_rv.mp4	0.0	318.7336938381195	
47	216.58222699165344	movie	1		243	45.0	2.5	/experiments/knapen_AOT/AOT_stimuli/rescaled_final/1632_rv.mp4	0.0	319.1502559185028	2.500454902648926
47	217.76605892181396	pulse	1	t		45.0	2.5	/experiments/knapen_AOT/AOT_stimuli/rescaled_final/1632_rv.mp4	0.0	320.33408784866333	
47	219.08268189430237	fix_post	2		12	45.0	2.5	/experiments/knapen_AOT/AOT_stimuli/rescaled_final/1632_rv.mp4	0.0	321.65071082115173	0.09997200965881348
48	219.18265390396118	fix_pre	0		120	46.0	2.5	/experiments/knapen_AOT/AOT_stimuli/rescaled_final/1082_fw.mp4	0.0	321.75068283081055	1.0000779628753662
48	219.36612486839294	pulse	0	t		46.0	2.5	/experiments/knapen_AOT/AOT_stimuli/rescaled_final/1082_fw.mp4	0.0	321.9341537952423	
48	220.18273186683655	movie	1		243	46.0	2.5	/experiments/knapen_AOT/AOT_stimuli/rescaled_final/1082_fw.mp4	0.0	322.7507607936859	2.500430107116699
48	220.9664888381958	pulse	1	t		46.0	2.5	/experiments/knapen_AOT/AOT_stimuli/rescaled_final/1082_fw.mp4	0.0	323.53451776504517	
48	222.56678104400635	pulse	1	t		46.0	2.5	/experiments/knapen_AOT/AOT_stimuli/rescaled_final/1082_fw.mp4	0.0	325.1348099708557	
48	222.68316197395325	fix_post	2		12	46.0	2.5	/experiments/knapen_AOT/AOT_stimuli/rescaled_final/1082_fw.mp4	0.0	325.2511909008026	0.09999895095825195
49	222.7831609249115	fix_pre	0		120	47.0	2.5	blank	1.0	325.35118985176086	1.0001490116119385
49	223.78330993652344	movie	1		299	47.0	2.5	blank	1.0	326.3513388633728	2.4921319484710693
49	224.1669979095459	pulse	1	t		47.0	2.5	blank	1.0	326.73502683639526	
49	225.76719403266907	pulse	1	t		47.0	2.5	blank	1.0	328.33522295951843	
49	226.2754418849945	fix_post	2		12	47.0	2.5	blank	1.0	328.8434708118439	0.09997797012329102
50	226.3754198551178	fix_pre	0		120	48.0	2.5	/experiments/knapen_AOT/AOT_stimuli/rescaled_final/0970_fw.mp4	0.0	328.94344878196716	1.0000510215759277
50	227.36733984947205	pulse	0	t		48.0	2.5	/experiments/knapen_AOT/AOT_stimuli/rescaled_final/0970_fw.mp4	0.0	329.9353687763214	
50	227.37547087669373	movie	1		243	48.0	2.5	/experiments/knapen_AOT/AOT_stimuli/rescaled_final/0970_fw.mp4	0.0	329.9434998035431	2.5087480545043945
50	228.9686758518219	pulse	1	t		48.0	2.5	/experiments/knapen_AOT/AOT_stimuli/rescaled_final/0970_fw.mp4	0.0	331.53670477867126	
50	229.88421893119812	fix_post	2		12	48.0	2.5	/experiments/knapen_AOT/AOT_stimuli/rescaled_final/0970_fw.mp4	0.0	332.4522478580475	0.10000991821289062
51	229.984228849411	fix_pre	0		120	49.0	2.5	/experiments/knapen_AOT/AOT_stimuli/rescaled_final/0970_rv.mp4	0.0	332.5522577762604	1.000190019607544
51	230.56783390045166	pulse	0	t		49.0	2.5	/experiments/knapen_AOT/AOT_stimuli/rescaled_final/0970_rv.mp4	0.0	333.135862827301	
51	230.98441886901855	movie	1		242	49.0	2.5	/experiments/knapen_AOT/AOT_stimuli/rescaled_final/0970_rv.mp4	0.0	333.5524477958679	2.5003490447998047
51	232.16814398765564	pulse	1	t		49.0	2.5	/experiments/knapen_AOT/AOT_stimuli/rescaled_final/0970_rv.mp4	0.0	334.736172914505	
51	233.48476791381836	fix_post	2		12	49.0	2.5	/experiments/knapen_AOT/AOT_stimuli/rescaled_final/0970_rv.mp4	0.0	336.0527968406677	0.10000109672546387
52	233.58476901054382	fix_pre	0		120	50.0	2.5	/experiments/knapen_AOT/AOT_stimuli/rescaled_final/0864_rv.mp4	0.0	336.1527979373932	1.0002169609069824
52	233.76838493347168	pulse	0	t		50.0	2.5	/experiments/knapen_AOT/AOT_stimuli/rescaled_final/0864_rv.mp4	0.0	336.33641386032104	
52	234.5849859714508	movie	1		243	50.0	2.5	/experiments/knapen_AOT/AOT_stimuli/rescaled_final/0864_rv.mp4	0.0	337.15301489830017	2.5003528594970703
52	235.36853289604187	pulse	1	t		50.0	2.5	/experiments/knapen_AOT/AOT_stimuli/rescaled_final/0864_rv.mp4	0.0	337.93656182289124	
52	236.96875190734863	pulse	1	t		50.0	2.5	/experiments/knapen_AOT/AOT_stimuli/rescaled_final/0864_rv.mp4	0.0	339.536780834198	
52	237.08533883094788	fix_post	2		12	50.0	2.5	/experiments/knapen_AOT/AOT_stimuli/rescaled_final/0864_rv.mp4	0.0	339.65336775779724	0.10001206398010254
53	237.18535089492798	fix_pre	0		120	51.0	2.5	/experiments/knapen_AOT/AOT_stimuli/rescaled_final/1205_fw.mp4	0.0	339.75337982177734	1.0000810623168945
53	238.18543195724487	movie	1		242	51.0	2.5	/experiments/knapen_AOT/AOT_stimuli/rescaled_final/1205_fw.mp4	0.0	340.75346088409424	2.492090940475464
53	238.57034492492676	pulse	1	t		51.0	2.5	/experiments/knapen_AOT/AOT_stimuli/rescaled_final/1205_fw.mp4	0.0	341.1383738517761	
53	240.16938996315002	pulse	1	t		51.0	2.5	/experiments/knapen_AOT/AOT_stimuli/rescaled_final/1205_fw.mp4	0.0	342.7374188899994	
53	240.67752289772034	fix_post	2		12	51.0	2.5	/experiments/knapen_AOT/AOT_stimuli/rescaled_final/1205_fw.mp4	0.0	343.2455518245697	0.1000051498413086
54	240.77752804756165	fix_pre	0		120	52.0	2.5	/experiments/knapen_AOT/AOT_stimuli/rescaled_final/0697_rv.mp4	0.0	343.345556974411	1.0000898838043213
54	241.76951694488525	pulse	0	t		52.0	2.5	/experiments/knapen_AOT/AOT_stimuli/rescaled_final/0697_rv.mp4	0.0	344.3375458717346	
54	241.77761793136597	movie	1		243	52.0	2.5	/experiments/knapen_AOT/AOT_stimuli/rescaled_final/0697_rv.mp4	0.0	344.34564685821533	2.5087718963623047
54	243.37129998207092	pulse	1	t		52.0	2.5	/experiments/knapen_AOT/AOT_stimuli/rescaled_final/0697_rv.mp4	0.0	345.9393289089203	
54	244.28638982772827	fix_post	2		12	52.0	2.5	/experiments/knapen_AOT/AOT_stimuli/rescaled_final/0697_rv.mp4	0.0	346.85441875457764	0.10001420974731445
55	244.3864040374756	fix_pre	0		120	53.0	2.5	/experiments/knapen_AOT/AOT_stimuli/rescaled_final/1863_fw.mp4	0.0	346.95443296432495	1.0001368522644043
55	244.96991991996765	pulse	0	t		53.0	2.5	/experiments/knapen_AOT/AOT_stimuli/rescaled_final/1863_fw.mp4	0.0	347.537948846817	
55	245.38654088974	movie	1		244	53.0	2.5	/experiments/knapen_AOT/AOT_stimuli/rescaled_final/1863_fw.mp4	0.0	347.95456981658936	2.5003280639648438
55	246.57030200958252	pulse	1	t		53.0	2.5	/experiments/knapen_AOT/AOT_stimuli/rescaled_final/1863_fw.mp4	0.0	349.1383309364319	
55	247.88686895370483	fix_post	2		12	53.0	2.5	/experiments/knapen_AOT/AOT_stimuli/rescaled_final/1863_fw.mp4	0.0	350.4548978805542	0.10003399848937988
56	247.9869029521942	fix_pre	0		120	54.0	2.5	blank	1.0	350.5549318790436	1.0001540184020996
56	248.17050004005432	pulse	0	t		54.0	2.5	blank	1.0	350.7385289669037	
56	248.9870569705963	movie	1		300	54.0	2.5	blank	1.0	351.5550858974457	2.50039005279541
56	249.77067184448242	pulse	1	t		54.0	2.5	blank	1.0	352.3387007713318	
56	251.37088084220886	pulse	1	t		54.0	2.5	blank	1.0	353.9389097690582	
56	251.48744702339172	fix_post	2		12	54.0	2.5	blank	1.0	354.0554759502411	0.10004496574401855
57	251.58749198913574	fix_pre	0		120	55.0	2.5	/experiments/knapen_AOT/AOT_stimuli/rescaled_final/2076_fw.mp4	0.0	354.1555209159851	1.000135898590088
57	252.58762788772583	movie	1		243	55.0	2.5	/experiments/knapen_AOT/AOT_stimuli/rescaled_final/2076_fw.mp4	0.0	355.1556568145752	2.492004156112671
57	252.97168493270874	pulse	1	t		55.0	2.5	/experiments/knapen_AOT/AOT_stimuli/rescaled_final/2076_fw.mp4	0.0	355.5397138595581	
57	254.56406497955322	pulse	1	t		55.0	2.5	/experiments/knapen_AOT/AOT_stimuli/rescaled_final/2076_fw.mp4	0.0	357.1320939064026	
57	255.0796320438385	fix_post	2		12	55.0	2.5	/experiments/knapen_AOT/AOT_stimuli/rescaled_final/2076_fw.mp4	0.0	357.64766097068787	0.10000491142272949
58	255.17963695526123	fix_pre	0		120	56.0	2.5	/experiments/knapen_AOT/AOT_stimuli/rescaled_final/0155_fw.mp4	0.0	357.7476658821106	1.000128984451294
58	256.16411995887756	pulse	0	t		56.0	2.5	/experiments/knapen_AOT/AOT_stimuli/rescaled_final/0155_fw.mp4	0.0	358.73214888572693	
58	256.1797659397125	movie	1		243	56.0	2.5	/experiments/knapen_AOT/AOT_stimuli/rescaled_final/0155_fw.mp4	0.0	358.7477948665619	2.5087718963623047
58	257.7762999534607	pulse	1	t		56.0	2.5	/experiments/knapen_AOT/AOT_stimuli/rescaled_final/0155_fw.mp4	0.0	360.34432888031006	
58	258.68853783607483	fix_post	2		12	56.0	2.5	/experiments/knapen_AOT/AOT_stimuli/rescaled_final/0155_fw.mp4	0.0	361.2565667629242	0.10000801086425781
59	258.7885458469391	fix_pre	0		120	57.0	2.5	/experiments/knapen_AOT/AOT_stimuli/rescaled_final/1280_rv.mp4	0.0	361.35657477378845	1.0001201629638672
59	259.36377692222595	pulse	0	t		57.0	2.5	/experiments/knapen_AOT/AOT_stimuli/rescaled_final/1280_rv.mp4	0.0	361.9318058490753	
59	259.78866600990295	movie	1		243	57.0	2.5	/experiments/knapen_AOT/AOT_stimuli/rescaled_final/1280_rv.mp4	0.0	362.3566949367523	2.50049090385437
59	260.9645879268646	pulse	1	t		57.0	2.5	/experiments/knapen_AOT/AOT_stimuli/rescaled_final/1280_rv.mp4	0.0	363.532616853714	
59	262.2891569137573	fix_post	2		12	57.0	2.5	/experiments/knapen_AOT/AOT_stimuli/rescaled_final/1280_rv.mp4	0.0	364.8571858406067	0.09994697570800781
60	262.38910388946533	fix_pre	0		120	58.0	2.5	/experiments/knapen_AOT/AOT_stimuli/rescaled_final/1808_rv.mp4	0.0	364.9571328163147	1.0000910758972168
60	262.5643379688263	pulse	0	t		58.0	2.5	/experiments/knapen_AOT/AOT_stimuli/rescaled_final/1808_rv.mp4	0.0	365.13236689567566	
60	263.38919496536255	movie	1		239	58.0	2.5	/experiments/knapen_AOT/AOT_stimuli/rescaled_final/1808_rv.mp4	0.0	365.9572238922119	2.500454902648926
60	264.16461992263794	pulse	1	t		58.0	2.5	/experiments/knapen_AOT/AOT_stimuli/rescaled_final/1808_rv.mp4	0.0	366.7326488494873	
60	265.76478600502014	pulse	1	t		58.0	2.5	/experiments/knapen_AOT/AOT_stimuli/rescaled_final/1808_rv.mp4	0.0	368.3328149318695	
60	265.8896498680115	fix_post	2		12	58.0	2.5	/experiments/knapen_AOT/AOT_stimuli/rescaled_final/1808_rv.mp4	0.0	368.45767879486084	0.09998106956481934
61	265.9896309375763	fix_pre	0		119	59.0	2.5	/experiments/knapen_AOT/AOT_stimuli/rescaled_final/1082_rv.mp4	0.0	368.55765986442566	0.991797924041748
61	266.98142886161804	movie	1		243	59.0	2.5	/experiments/knapen_AOT/AOT_stimuli/rescaled_final/1082_rv.mp4	0.0	369.5494577884674	2.5003631114959717
61	267.3655250072479	pulse	1	t		59.0	2.5	/experiments/knapen_AOT/AOT_stimuli/rescaled_final/1082_rv.mp4	0.0	369.9335539340973	
61	268.96523094177246	pulse	1	t		59.0	2.5	/experiments/knapen_AOT/AOT_stimuli/rescaled_final/1082_rv.mp4	0.0	371.5332598686218	
61	269.481791973114	fix_post	2		12	59.0	2.5	/experiments/knapen_AOT/AOT_stimuli/rescaled_final/1082_rv.mp4	0.0	372.0498208999634	0.09999895095825195
62	269.58179092407227	fix_pre	0		119	60.0	2.5	/experiments/knapen_AOT/AOT_stimuli/rescaled_final/0026_rv.mp4	0.0	372.14981985092163	0.9918539524078369
62	270.56540393829346	pulse	0	t		60.0	2.5	/experiments/knapen_AOT/AOT_stimuli/rescaled_final/0026_rv.mp4	0.0	373.1334328651428	
62	270.5736448764801	movie	1		244	60.0	2.5	/experiments/knapen_AOT/AOT_stimuli/rescaled_final/0026_rv.mp4	0.0	373.14167380332947	2.50870418548584
62	272.1661238670349	pulse	1	t		60.0	2.5	/experiments/knapen_AOT/AOT_stimuli/rescaled_final/0026_rv.mp4	0.0	374.7341527938843	
62	273.08234906196594	fix_post	2		12	60.0	2.5	/experiments/knapen_AOT/AOT_stimuli/rescaled_final/0026_rv.mp4	0.0	375.6503779888153	0.10000491142272949
63	273.1823539733887	fix_pre	0		120	61.0	2.5	blank	1.0	375.75038290023804	1.000114917755127
63	273.7658770084381	pulse	0	t		61.0	2.5	blank	1.0	376.3339059352875	
63	274.1824688911438	movie	1		300	61.0	2.5	blank	1.0	376.75049781799316	2.500430107116699
63	275.3662009239197	pulse	1	t		61.0	2.5	blank	1.0	377.93422985076904	
63	276.6828989982605	fix_post	2		12	61.0	2.5	blank	1.0	379.25092792510986	0.10004401206970215
64	276.7829430103302	fix_pre	0		120	62.0	2.5	/experiments/knapen_AOT/AOT_stimuli/rescaled_final/1632_fw.mp4	0.0	379.35097193717957	1.0001399517059326
64	276.9663939476013	pulse	0	t		62.0	2.5	/experiments/knapen_AOT/AOT_stimuli/rescaled_final/1632_fw.mp4	0.0	379.5344228744507	
64	277.78308296203613	movie	1		243	62.0	2.5	/experiments/knapen_AOT/AOT_stimuli/rescaled_final/1632_fw.mp4	0.0	380.3511118888855	2.5004749298095703
64	278.5667939186096	pulse	1	t		62.0	2.5	/experiments/knapen_AOT/AOT_stimuli/rescaled_final/1632_fw.mp4	0.0	381.134822845459	
64	280.1667540073395	pulse	1	t		62.0	2.5	/experiments/knapen_AOT/AOT_stimuli/rescaled_final/1632_fw.mp4	0.0	382.73478293418884	
64	280.2835578918457	fix_post	2		12	62.0	2.5	/experiments/knapen_AOT/AOT_stimuli/rescaled_final/1632_fw.mp4	0.0	382.85158681869507	0.09991693496704102
65	280.38347482681274	fix_pre	0		120	63.0	2.5	/experiments/knapen_AOT/AOT_stimuli/rescaled_final/0077_rv.mp4	0.0	382.9515037536621	1.0001161098480225
65	281.38359093666077	movie	1		241	63.0	2.5	/experiments/knapen_AOT/AOT_stimuli/rescaled_final/0077_rv.mp4	0.0	383.95161986351013	2.4921560287475586
65	281.7684988975525	pulse	1	t		63.0	2.5	/experiments/knapen_AOT/AOT_stimuli/rescaled_final/0077_rv.mp4	0.0	384.33652782440186	
65	283.3675169944763	pulse	1	t		63.0	2.5	/experiments/knapen_AOT/AOT_stimuli/rescaled_final/0077_rv.mp4	0.0	385.9355459213257	
65	283.8757469654083	fix_post	2		12	63.0	2.5	/experiments/knapen_AOT/AOT_stimuli/rescaled_final/0077_rv.mp4	0.0	386.4437758922577	0.09988689422607422
66	283.9756338596344	fix_pre	0		120	64.0	2.5	/experiments/knapen_AOT/AOT_stimuli/rescaled_final/2124_rv.mp4	0.0	386.54366278648376	1.0000979900360107
66	284.9677119255066	pulse	0	t		64.0	2.5	/experiments/knapen_AOT/AOT_stimuli/rescaled_final/2124_rv.mp4	0.0	387.53574085235596	
66	284.9757318496704	movie	1		243	64.0	2.5	/experiments/knapen_AOT/AOT_stimuli/rescaled_final/2124_rv.mp4	0.0	387.5437607765198	2.5087690353393555
66	286.5684678554535	pulse	1	t		64.0	2.5	/experiments/knapen_AOT/AOT_stimuli/rescaled_final/2124_rv.mp4	0.0	389.13649678230286	
66	287.48450088500977	fix_post	2		12	64.0	2.5	/experiments/knapen_AOT/AOT_stimuli/rescaled_final/2124_rv.mp4	0.0	390.05252981185913	0.09995794296264648
67	287.5844588279724	fix_pre	0		120	65.0	2.5	/experiments/knapen_AOT/AOT_stimuli/rescaled_final/1182_fw.mp4	0.0	390.1524877548218	1.0002360343933105
67	288.16801500320435	pulse	0	t		65.0	2.5	/experiments/knapen_AOT/AOT_stimuli/rescaled_final/1182_fw.mp4	0.0	390.7360439300537	
67	288.5846948623657	movie	1		242	65.0	2.5	/experiments/knapen_AOT/AOT_stimuli/rescaled_final/1182_fw.mp4	0.0	391.1527237892151	2.5004310607910156
67	289.76851296424866	pulse	1	t		65.0	2.5	/experiments/knapen_AOT/AOT_stimuli/rescaled_final/1182_fw.mp4	0.0	392.336541891098	
67	291.08512592315674	fix_post	2		12	65.0	2.5	/experiments/knapen_AOT/AOT_stimuli/rescaled_final/1182_fw.mp4	0.0	393.6531548500061	0.09992098808288574
68	291.1850469112396	fix_pre	0		120	66.0	2.5	/experiments/knapen_AOT/AOT_stimuli/rescaled_final/0318_rv.mp4	0.0	393.753075838089	1.000136137008667
68	291.36869192123413	pulse	0	t		66.0	2.5	/experiments/knapen_AOT/AOT_stimuli/rescaled_final/0318_rv.mp4	0.0	393.9367208480835	
68	292.1851830482483	movie	1		243	66.0	2.5	/experiments/knapen_AOT/AOT_stimuli/rescaled_final/0318_rv.mp4	0.0	394.75321197509766	2.5004899501800537
68	292.96881198883057	pulse	1	t		66.0	2.5	/experiments/knapen_AOT/AOT_stimuli/rescaled_final/0318_rv.mp4	0.0	395.53684091567993	
68	294.5688588619232	pulse	1	t		66.0	2.5	/experiments/knapen_AOT/AOT_stimuli/rescaled_final/0318_rv.mp4	0.0	397.1368877887726	
68	294.68567299842834	fix_post	2		12	66.0	2.5	/experiments/knapen_AOT/AOT_stimuli/rescaled_final/0318_rv.mp4	0.0	397.2537019252777	0.09990596771240234
69	294.78557896614075	fix_pre	0		120	67.0	2.5	/experiments/knapen_AOT/AOT_stimuli/rescaled_final/2058_fw.mp4	0.0	397.3536078929901	1.0001659393310547
69	295.7857449054718	movie	1		241	67.0	2.5	/experiments/knapen_AOT/AOT_stimuli/rescaled_final/2058_fw.mp4	0.0	398.35377383232117	2.492043972015381
69	296.17383003234863	pulse	1	t		67.0	2.5	/experiments/knapen_AOT/AOT_stimuli/rescaled_final/2058_fw.mp4	0.0	398.741858959198	
69	297.7695949077606	pulse	1	t		67.0	2.5	/experiments/knapen_AOT/AOT_stimuli/rescaled_final/2058_fw.mp4	0.0	400.33762383461	
69	298.2777888774872	fix_post	2		12	67.0	2.5	/experiments/knapen_AOT/AOT_stimuli/rescaled_final/2058_fw.mp4	0.0	400.84581780433655	0.09995818138122559
70	298.3777470588684	fix_pre	0		120	68.0	2.5	/experiments/knapen_AOT/AOT_stimuli/rescaled_final/1082_rv.mp4	0.0	400.9457759857178	1.0002257823944092
70	299.36983585357666	pulse	0	t		68.0	2.5	/experiments/knapen_AOT/AOT_stimuli/rescaled_final/1082_rv.mp4	0.0	401.937864780426	
70	299.3779728412628	movie	1		244	68.0	2.5	/experiments/knapen_AOT/AOT_stimuli/rescaled_final/1082_rv.mp4	0.0	401.9460017681122	2.508646011352539
70	300.9707260131836	pulse	1	t		68.0	2.5	/experiments/knapen_AOT/AOT_stimuli/rescaled_final/1082_rv.mp4	0.0	403.53875494003296	
70	301.88661885261536	fix_post	2		12	68.0	2.5	/experiments/knapen_AOT/AOT_stimuli/rescaled_final/1082_rv.mp4	0.0	404.4546477794647	0.10000419616699219
71	301.98662304878235	fix_pre	0		120	69.0	2.5	blank	1.0	404.5546519756317	1.000140905380249
71	302.57023882865906	pulse	0	t		69.0	2.5	blank	1.0	405.1382677555084	
71	302.9867639541626	movie	1		300	69.0	2.5	blank	1.0	405.55479288101196	2.500412940979004
71	304.1705389022827	pulse	1	t		69.0	2.5	blank	1.0	406.7385678291321	
71	305.4871768951416	fix_post	2		12	69.0	2.5	blank	1.0	408.05520582199097	0.10000896453857422
72	305.5871858596802	fix_pre	0		120	70.0	2.5	/experiments/knapen_AOT/AOT_stimuli/rescaled_final/1397_rv.mp4	0.0	408.15521478652954	1.0001380443572998
72	305.76325488090515	pulse	0	t		70.0	2.5	/experiments/knapen_AOT/AOT_stimuli/rescaled_final/1397_rv.mp4	0.0	408.3312838077545	
72	306.5873239040375	movie	1		243	70.0	2.5	/experiments/knapen_AOT/AOT_stimuli/rescaled_final/1397_rv.mp4	0.0	409.15535283088684	2.500438928604126
72	307.36363196372986	pulse	1	t		70.0	2.5	/experiments/knapen_AOT/AOT_stimuli/rescaled_final/1397_rv.mp4	0.0	409.9316608905792	
72	308.9712519645691	pulse	1	t		70.0	2.5	/experiments/knapen_AOT/AOT_stimuli/rescaled_final/1397_rv.mp4	0.0	411.53928089141846	
72	309.0877628326416	fix_post	2		12	70.0	2.5	/experiments/knapen_AOT/AOT_stimuli/rescaled_final/1397_rv.mp4	0.0	411.65579175949097	0.09992122650146484
73	309.18768405914307	fix_pre	0		120	71.0	2.5	/experiments/knapen_AOT/AOT_stimuli/rescaled_final/1986_fw.mp4	0.0	411.75571298599243	1.00016188621521
73	310.1878459453583	movie	1		242	71.0	2.5	/experiments/knapen_AOT/AOT_stimuli/rescaled_final/1986_fw.mp4	0.0	412.75587487220764	2.492090940475464
73	310.56335401535034	pulse	1	t		71.0	2.5	/experiments/knapen_AOT/AOT_stimuli/rescaled_final/1986_fw.mp4	0.0	413.1313829421997	
73	312.16341185569763	pulse	1	t		71.0	2.5	/experiments/knapen_AOT/AOT_stimuli/rescaled_final/1986_fw.mp4	0.0	414.731440782547	
73	312.67993688583374	fix_post	2		12	71.0	2.5	/experiments/knapen_AOT/AOT_stimuli/rescaled_final/1986_fw.mp4	0.0	415.2479658126831	0.09998607635498047
74	312.7799229621887	fix_pre	0		119	72.0	2.5	/experiments/knapen_AOT/AOT_stimuli/rescaled_final/0882_fw.mp4	0.0	415.3479518890381	0.9918029308319092
74	313.76356291770935	pulse	0	t		72.0	2.5	/experiments/knapen_AOT/AOT_stimuli/rescaled_final/0882_fw.mp4	0.0	416.3315918445587	
74	313.77172589302063	movie	1		244	72.0	2.5	/experiments/knapen_AOT/AOT_stimuli/rescaled_final/0882_fw.mp4	0.0	416.33975481987	2.508681058883667
74	315.3643229007721	pulse	1	t		72.0	2.5	/experiments/knapen_AOT/AOT_stimuli/rescaled_final/0882_fw.mp4	0.0	417.93235182762146	
74	316.2804069519043	fix_post	2		12	72.0	2.5	/experiments/knapen_AOT/AOT_stimuli/rescaled_final/0882_fw.mp4	0.0	418.84843587875366	0.1000509262084961
75	316.3804578781128	fix_pre	0		120	73.0	2.5	/experiments/knapen_AOT/AOT_stimuli/rescaled_final/0116_fw.mp4	0.0	418.94848680496216	1.0001640319824219
75	316.96407103538513	pulse	0	t		73.0	2.5	/experiments/knapen_AOT/AOT_stimuli/rescaled_final/0116_fw.mp4	0.0	419.5320999622345	
75	317.3806219100952	movie	1		245	73.0	2.5	/experiments/knapen_AOT/AOT_stimuli/rescaled_final/0116_fw.mp4	0.0	419.9486508369446	2.5003740787506104
75	318.5643708705902	pulse	1	t		73.0	2.5	/experiments/knapen_AOT/AOT_stimuli/rescaled_final/0116_fw.mp4	0.0	421.1323997974396	
75	319.8809959888458	fix_post	2		12	73.0	2.5	/experiments/knapen_AOT/AOT_stimuli/rescaled_final/0116_fw.mp4	0.0	422.4490249156952	0.09998297691345215
76	319.9809789657593	fix_pre	0		120	74.0	2.5	/experiments/knapen_AOT/AOT_stimuli/rescaled_final/1659_rv.mp4	0.0	422.54900789260864	1.0001978874206543
76	320.16452383995056	pulse	0	t		74.0	2.5	/experiments/knapen_AOT/AOT_stimuli/rescaled_final/1659_rv.mp4	0.0	422.7325527667999	
76	320.98117685317993	movie	1		244	74.0	2.5	/experiments/knapen_AOT/AOT_stimuli/rescaled_final/1659_rv.mp4	0.0	423.5492057800293	2.5011069774627686
76	321.7647559642792	pulse	1	t		74.0	2.5	/experiments/knapen_AOT/AOT_stimuli/rescaled_final/1659_rv.mp4	0.0	424.33278489112854	
76	323.3651819229126	pulse	1	t		74.0	2.5	/experiments/knapen_AOT/AOT_stimuli/rescaled_final/1659_rv.mp4	0.0	425.93321084976196	
76	323.4822838306427	fix_post	2		11	74.0	2.5	/experiments/knapen_AOT/AOT_stimuli/rescaled_final/1659_rv.mp4	0.0	426.05031275749207	0.09926009178161621
77	323.5815439224243	fix_pre	0		120	75.0	2.5	/experiments/knapen_AOT/AOT_stimuli/rescaled_final/0367_fw.mp4	0.0	426.1495728492737	1.0001249313354492
77	324.58166885375977	movie	1		243	75.0	2.5	/experiments/knapen_AOT/AOT_stimuli/rescaled_final/0367_fw.mp4	0.0	427.14969778060913	2.49202299118042
77	324.9665529727936	pulse	1	t		75.0	2.5	/experiments/knapen_AOT/AOT_stimuli/rescaled_final/0367_fw.mp4	0.0	427.53458189964294	
77	326.5654728412628	pulse	1	t		75.0	2.5	/experiments/knapen_AOT/AOT_stimuli/rescaled_final/0367_fw.mp4	0.0	429.1335017681122	
77	327.0736918449402	fix_post	2		12	75.0	2.5	/experiments/knapen_AOT/AOT_stimuli/rescaled_final/0367_fw.mp4	0.0	429.64172077178955	0.10001707077026367
78	327.17370891571045	fix_pre	0		120	76.0	2.5	/experiments/knapen_AOT/AOT_stimuli/rescaled_final/1123_rv.mp4	0.0	429.7417378425598	1.000128984451294
78	328.16581988334656	pulse	0	t		76.0	2.5	/experiments/knapen_AOT/AOT_stimuli/rescaled_final/1123_rv.mp4	0.0	430.7338488101959	
78	328.17383790016174	movie	1		245	76.0	2.5	/experiments/knapen_AOT/AOT_stimuli/rescaled_final/1123_rv.mp4	0.0	430.7418668270111	2.5087921619415283
78	329.76644492149353	pulse	1	t		76.0	2.5	/experiments/knapen_AOT/AOT_stimuli/rescaled_final/1123_rv.mp4	0.0	432.3344738483429	
78	330.68263006210327	fix_post	2		12	76.0	2.5	/experiments/knapen_AOT/AOT_stimuli/rescaled_final/1123_rv.mp4	0.0	433.25065898895264	0.1000058650970459
79	330.7826359272003	fix_pre	0		120	77.0	2.5	blank	1.0	433.3506648540497	1.0001099109649658
79	331.3663139343262	pulse	0	t		77.0	2.5	blank	1.0	433.93434286117554	
79	331.7827458381653	movie	1		300	77.0	2.5	blank	1.0	434.35077476501465	2.5004000663757324
79	332.9664628505707	pulse	1	t		77.0	2.5	blank	1.0	435.53449177742004	
79	334.283145904541	fix_post	2		12	77.0	2.5	blank	1.0	436.8511748313904	0.10003995895385742
80	334.3831858634949	fix_pre	0		120	78.0	2.5	/experiments/knapen_AOT/AOT_stimuli/rescaled_final/0158_rv.mp4	0.0	436.95121479034424	1.000143051147461
80	334.56665086746216	pulse	0	t		78.0	2.5	/experiments/knapen_AOT/AOT_stimuli/rescaled_final/0158_rv.mp4	0.0	437.1346797943115	
80	335.38332891464233	movie	1		242	78.0	2.5	/experiments/knapen_AOT/AOT_stimuli/rescaled_final/0158_rv.mp4	0.0	437.9513578414917	2.5003950595855713
80	336.1668438911438	pulse	1	t		78.0	2.5	/experiments/knapen_AOT/AOT_stimuli/rescaled_final/0158_rv.mp4	0.0	438.73487281799316	
80	337.7684659957886	pulse	1	t		78.0	2.5	/experiments/knapen_AOT/AOT_stimuli/rescaled_final/0158_rv.mp4	0.0	440.33649492263794	
80	337.8837239742279	fix_post	2		12	78.0	2.5	/experiments/knapen_AOT/AOT_stimuli/rescaled_final/0158_rv.mp4	0.0	440.45175290107727	0.09997987747192383
81	337.98370385169983	fix_pre	0		120	79.0	2.5	/experiments/knapen_AOT/AOT_stimuli/rescaled_final/1623_fw.mp4	0.0	440.5517327785492	1.0000910758972168
81	338.98379492759705	movie	1		242	79.0	2.5	/experiments/knapen_AOT/AOT_stimuli/rescaled_final/1623_fw.mp4	0.0	441.5518238544464	2.4921629428863525
81	339.3679909706116	pulse	1	t		79.0	2.5	/experiments/knapen_AOT/AOT_stimuli/rescaled_final/1623_fw.mp4	0.0	441.93601989746094	
81	340.96762895584106	pulse	1	t		79.0	2.5	/experiments/knapen_AOT/AOT_stimuli/rescaled_final/1623_fw.mp4	0.0	443.53565788269043	
81	341.4759578704834	fix_post	2		12	79.0	2.5	/experiments/knapen_AOT/AOT_stimuli/rescaled_final/1623_fw.mp4	0.0	444.04398679733276	0.09990811347961426
82	341.575865983963	fix_pre	0		120	80.0	2.5	/experiments/knapen_AOT/AOT_stimuli/rescaled_final/0934_rv.mp4	0.0	444.1438949108124	1.0001208782196045
82	342.56790804862976	pulse	0	t		80.0	2.5	/experiments/knapen_AOT/AOT_stimuli/rescaled_final/0934_rv.mp4	0.0	445.1359369754791	
82	342.5759868621826	movie	1		243	80.0	2.5	/experiments/knapen_AOT/AOT_stimuli/rescaled_final/0934_rv.mp4	0.0	445.144015789032	2.5087549686431885
82	344.16863489151	pulse	1	t		80.0	2.5	/experiments/knapen_AOT/AOT_stimuli/rescaled_final/0934_rv.mp4	0.0	446.7366638183594	
82	345.0847418308258	fix_post	2		12	80.0	2.5	/experiments/knapen_AOT/AOT_stimuli/rescaled_final/0934_rv.mp4	0.0	447.65277075767517	0.09997701644897461
83	345.1847188472748	fix_pre	0		120	81.0	2.5	/experiments/knapen_AOT/AOT_stimuli/rescaled_final/1377_rv.mp4	0.0	447.75274777412415	1.0002121925354004
83	345.76839900016785	pulse	0	t		81.0	2.5	/experiments/knapen_AOT/AOT_stimuli/rescaled_final/1377_rv.mp4	0.0	448.3364279270172	
83	346.1849310398102	movie	1		242	81.0	2.5	/experiments/knapen_AOT/AOT_stimuli/rescaled_final/1377_rv.mp4	0.0	448.75295996665955	2.500478982925415
83	347.3686988353729	pulse	1	t		81.0	2.5	/experiments/knapen_AOT/AOT_stimuli/rescaled_final/1377_rv.mp4	0.0	449.9367277622223	
83	348.6854100227356	fix_post	2		12	81.0	2.5	/experiments/knapen_AOT/AOT_stimuli/rescaled_final/1377_rv.mp4	0.0	451.25343894958496	0.09990382194519043
84	348.7853138446808	fix_pre	0		120	82.0	2.5	blank	1.0	451.35334277153015	1.0001840591430664
84	348.9687919616699	pulse	0	t		82.0	2.5	blank	1.0	451.5368208885193	
84	349.78549790382385	movie	1		300	82.0	2.5	blank	1.0	452.3535268306732	2.5003390312194824
84	350.56901383399963	pulse	1	t		82.0	2.5	blank	1.0	453.137042760849	
84	352.16936588287354	pulse	1	t		82.0	2.5	blank	1.0	454.7373948097229	
84	352.28583693504333	fix_post	2		12	82.0	2.5	blank	1.0	454.8538658618927	0.09998106956481934
85	352.38581800460815	fix_pre	0		120	83.0	2.5	/experiments/knapen_AOT/AOT_stimuli/rescaled_final/1082_fw.mp4	0.0	454.9538469314575	1.0001909732818604
85	353.38600897789	movie	1		242	83.0	2.5	/experiments/knapen_AOT/AOT_stimuli/rescaled_final/1082_fw.mp4	0.0	455.9540379047394	2.492033004760742
85	353.7701518535614	pulse	1	t		83.0	2.5	/experiments/knapen_AOT/AOT_stimuli/rescaled_final/1082_fw.mp4	0.0	456.33818078041077	
85	355.3697588443756	pulse	1	t		83.0	2.5	/experiments/knapen_AOT/AOT_stimuli/rescaled_final/1082_fw.mp4	0.0	457.937787771225	
85	355.87804198265076	fix_post	2		12	83.0	2.5	/experiments/knapen_AOT/AOT_stimuli/rescaled_final/1082_fw.mp4	0.0	458.4460709095001	0.09997296333312988
87	355.9780149459839	stim	0		1716					458.54604387283325	14.30225396156311
87	356.97004795074463	pulse	0	t						459.538076877594	
87	358.5703158378601	pulse	0	t						461.1383447647095	
87	360.17052698135376	pulse	0	t						462.7385559082031	
87	361.7707300186157	pulse	0	t						464.3387589454651	
87	363.363648891449	pulse	0	t						465.93167781829834	
87	364.96376299858093	pulse	0	t						467.5317919254303	
87	366.5640618801117	pulse	0	t						469.13209080696106	
87	368.1643328666687	pulse	0	t						470.73236179351807	
87	369.76460099220276	pulse	0	t						472.3326299190521	
