trial_nr	onset	event_type	phase	response	nr_frames	movie_index	movie_duration	movie_file	blank	onset_abs	duration
0	0.14984607696533203	stim	0		94					25.489917039871216	0.783350944519043
0	0.9252560138702393	response	0	space						26.265326976776123	
1	0.933197021484375	stim	0		4294					26.27326798439026	35.78312706947327
1	36.70608186721802	pulse	0	t						62.0461528301239	
1	36.71632409095764	stim	1		1717					62.056395053863525	14.308241844177246
1	38.30813407897949	pulse	1	t						63.648205041885376	
1	39.90814709663391	pulse	1	t						65.2482180595398	
1	41.508158922195435	pulse	1	t						66.84822988510132	
1	43.108327865600586	pulse	1	t						68.44839882850647	
1	44.70822286605835	pulse	1	t						70.04829382896423	
1	46.308122873306274	pulse	1	t						71.64819383621216	
1	47.90807890892029	pulse	1	t						73.24814987182617	
1	49.500547885894775	pulse	1	t						74.84061884880066	
2	51.02456593513489	fix_pre	0		11	0.0	2.5	/experiments/AOT/AOT_stimuli/rescaled_final/0228_rv.mp4	0.0	76.36463689804077	0.09174108505249023
2	51.100528955459595	pulse	0	t		0.0	2.5	/experiments/AOT/AOT_stimuli/rescaled_final/0228_rv.mp4	0.0	76.44059991836548	
2	51.11630702018738	movie	1		243	0.0	2.5	/experiments/AOT/AOT_stimuli/rescaled_final/0228_rv.mp4	0.0	76.45637798309326	2.508254051208496
2	52.70772910118103	pulse	1	t		0.0	2.5	/experiments/AOT/AOT_stimuli/rescaled_final/0228_rv.mp4	0.0	78.04780006408691	
2	53.624561071395874	fix_post	2		12	0.0	2.5	/experiments/AOT/AOT_stimuli/rescaled_final/0228_rv.mp4	0.0	78.96463203430176	0.10004782676696777
3	53.72460889816284	fix_pre	0		120	1.0	2.5	/experiments/AOT/AOT_stimuli/rescaled_final/0212_rv.mp4	0.0	79.06467986106873	0.9999771118164062
3	54.300657987594604	pulse	0	t		1.0	2.5	/experiments/AOT/AOT_stimuli/rescaled_final/0212_rv.mp4	0.0	79.64072895050049	
3	54.72458600997925	movie	1		243	1.0	2.5	/experiments/AOT/AOT_stimuli/rescaled_final/0212_rv.mp4	0.0	80.06465697288513	2.5000388622283936
3	55.90809106826782	pulse	1	t		1.0	2.5	/experiments/AOT/AOT_stimuli/rescaled_final/0212_rv.mp4	0.0	81.2481620311737	
3	57.22462487220764	fix_post	2		12	1.0	2.5	/experiments/AOT/AOT_stimuli/rescaled_final/0212_rv.mp4	0.0	82.56469583511353	0.09952807426452637
4	57.32415294647217	fix_pre	0		120	2.0	2.5	/experiments/AOT/AOT_stimuli/rescaled_final/0868_rv.mp4	0.0	82.66422390937805	1.000441074371338
4	57.507622957229614	pulse	0	t		2.0	2.5	/experiments/AOT/AOT_stimuli/rescaled_final/0868_rv.mp4	0.0	82.8476939201355	
4	58.324594020843506	movie	1		243	2.0	2.5	/experiments/AOT/AOT_stimuli/rescaled_final/0868_rv.mp4	0.0	83.66466498374939	2.499943971633911
4	59.10811400413513	pulse	1	t		2.0	2.5	/experiments/AOT/AOT_stimuli/rescaled_final/0868_rv.mp4	0.0	84.44818496704102	
4	60.70615005493164	pulse	1	t		2.0	2.5	/experiments/AOT/AOT_stimuli/rescaled_final/0868_rv.mp4	0.0	86.04622101783752	
4	60.82453799247742	fix_post	2		12	2.0	2.5	/experiments/AOT/AOT_stimuli/rescaled_final/0868_rv.mp4	0.0	86.1646089553833	0.0999898910522461
5	60.92452788352966	fix_pre	0		120	3.0	2.5	/experiments/AOT/AOT_stimuli/rescaled_final/1210_fw.mp4	0.0	86.26459884643555	0.9995620250701904
5	61.92408990859985	movie	1		243	3.0	2.5	/experiments/AOT/AOT_stimuli/rescaled_final/1210_fw.mp4	0.0	87.26416087150574	2.5000431537628174
5	62.30893802642822	pulse	1	t		3.0	2.5	/experiments/AOT/AOT_stimuli/rescaled_final/1210_fw.mp4	0.0	87.6490089893341	
5	63.90071702003479	pulse	1	t		3.0	2.5	/experiments/AOT/AOT_stimuli/rescaled_final/1210_fw.mp4	0.0	89.24078798294067	
5	64.42413306236267	fix_post	2		12	3.0	2.5	/experiments/AOT/AOT_stimuli/rescaled_final/1210_fw.mp4	0.0	89.76420402526855	0.10044598579406738
6	64.52457904815674	fix_pre	0		119	4.0	2.5	/experiments/AOT/AOT_stimuli/rescaled_final/1003_rv.mp4	0.0	89.86465001106262	0.9915080070495605
6	65.50801587104797	pulse	0	t		4.0	2.5	/experiments/AOT/AOT_stimuli/rescaled_final/1003_rv.mp4	0.0	90.84808683395386	
6	65.5160870552063	movie	1		247	4.0	2.5	/experiments/AOT/AOT_stimuli/rescaled_final/1003_rv.mp4	0.0	90.85615801811218	2.508430004119873
6	67.10751104354858	pulse	1	t		4.0	2.5	/experiments/AOT/AOT_stimuli/rescaled_final/1003_rv.mp4	0.0	92.44758200645447	
6	68.02451705932617	fix_post	2		12	4.0	2.5	/experiments/AOT/AOT_stimuli/rescaled_final/1003_rv.mp4	0.0	93.36458802223206	0.10000300407409668
7	68.12452006340027	fix_pre	0		120	5.0	2.5	/experiments/AOT/AOT_stimuli/rescaled_final/0199_fw.mp4	0.0	93.46459102630615	0.9999539852142334
7	68.70078992843628	pulse	0	t		5.0	2.5	/experiments/AOT/AOT_stimuli/rescaled_final/0199_fw.mp4	0.0	94.04086089134216	
7	69.1244740486145	movie	1		246	5.0	2.5	/experiments/AOT/AOT_stimuli/rescaled_final/0199_fw.mp4	0.0	94.46454501152039	2.4999608993530273
7	70.30806398391724	pulse	1	t		5.0	2.5	/experiments/AOT/AOT_stimuli/rescaled_final/0199_fw.mp4	0.0	95.64813494682312	
7	71.62443494796753	fix_post	2		12	5.0	2.5	/experiments/AOT/AOT_stimuli/rescaled_final/0199_fw.mp4	0.0	96.96450591087341	0.10008597373962402
8	71.72452092170715	fix_pre	0		120	6.0	2.5	/experiments/AOT/AOT_stimuli/rescaled_final/1838_rv.mp4	0.0	97.06459188461304	0.9999511241912842
8	71.90803503990173	pulse	0	t		6.0	2.5	/experiments/AOT/AOT_stimuli/rescaled_final/1838_rv.mp4	0.0	97.24810600280762	
8	72.72447204589844	movie	1		243	6.0	2.5	/experiments/AOT/AOT_stimuli/rescaled_final/1838_rv.mp4	0.0	98.06454300880432	2.5000150203704834
8	73.5079550743103	pulse	1	t		6.0	2.5	/experiments/AOT/AOT_stimuli/rescaled_final/1838_rv.mp4	0.0	98.84802603721619	
8	75.10631394386292	pulse	1	t		6.0	2.5	/experiments/AOT/AOT_stimuli/rescaled_final/1838_rv.mp4	0.0	100.4463849067688	
8	75.22448706626892	fix_post	2		12	6.0	2.5	/experiments/AOT/AOT_stimuli/rescaled_final/1838_rv.mp4	0.0	100.5645580291748	0.09993886947631836
9	75.32442593574524	fix_pre	0		120	7.0	2.5	blank	1.0	100.66449689865112	0.9999470710754395
9	76.32437300682068	movie	1		300	7.0	2.5	blank	1.0	101.66444396972656	2.5001089572906494
9	76.70794796943665	pulse	1	t		7.0	2.5	blank	1.0	102.04801893234253	
9	78.30796194076538	pulse	1	t		7.0	2.5	blank	1.0	103.64803290367126	
9	78.82448196411133	fix_post	2		12	7.0	2.5	blank	1.0	104.16455292701721	0.0999290943145752
10	78.9244110584259	fix_pre	0		119	8.0	2.5	/experiments/AOT/AOT_stimuli/rescaled_final/1974_fw.mp4	0.0	104.26448202133179	0.9916059970855713
10	79.90797805786133	pulse	0	t		8.0	2.5	/experiments/AOT/AOT_stimuli/rescaled_final/1974_fw.mp4	0.0	105.24804902076721	
10	79.91601705551147	movie	1		243	8.0	2.5	/experiments/AOT/AOT_stimuli/rescaled_final/1974_fw.mp4	0.0	105.25608801841736	2.508039951324463
10	81.50796604156494	pulse	1	t		8.0	2.5	/experiments/AOT/AOT_stimuli/rescaled_final/1974_fw.mp4	0.0	106.84803700447083	
10	82.42405700683594	fix_post	2		12	8.0	2.5	/experiments/AOT/AOT_stimuli/rescaled_final/1974_fw.mp4	0.0	107.76412796974182	0.10032486915588379
11	82.52438187599182	fix_pre	0		120	9.0	2.5	/experiments/AOT/AOT_stimuli/rescaled_final/0237_rv.mp4	0.0	107.8644528388977	0.9999392032623291
11	83.10796999931335	pulse	0	t		9.0	2.5	/experiments/AOT/AOT_stimuli/rescaled_final/0237_rv.mp4	0.0	108.44804096221924	
11	83.52432107925415	movie	1		245	9.0	2.5	/experiments/AOT/AOT_stimuli/rescaled_final/0237_rv.mp4	0.0	108.86439204216003	2.4996628761291504
11	84.70803999900818	pulse	1	t		9.0	2.5	/experiments/AOT/AOT_stimuli/rescaled_final/0237_rv.mp4	0.0	110.04811096191406	
11	86.0239839553833	fix_post	2		12	9.0	2.5	/experiments/AOT/AOT_stimuli/rescaled_final/0237_rv.mp4	0.0	111.36405491828918	0.10048103332519531
12	86.1244649887085	fix_pre	0		120	10.0	2.5	/experiments/AOT/AOT_stimuli/rescaled_final/1921_rv.mp4	0.0	111.46453595161438	0.9999980926513672
12	86.30044603347778	pulse	0	t		10.0	2.5	/experiments/AOT/AOT_stimuli/rescaled_final/1921_rv.mp4	0.0	111.64051699638367	
12	87.12446308135986	movie	1		244	10.0	2.5	/experiments/AOT/AOT_stimuli/rescaled_final/1921_rv.mp4	0.0	112.46453404426575	2.499931812286377
12	87.90790390968323	pulse	1	t		10.0	2.5	/experiments/AOT/AOT_stimuli/rescaled_final/1921_rv.mp4	0.0	113.24797487258911	
12	89.50638508796692	pulse	1	t		10.0	2.5	/experiments/AOT/AOT_stimuli/rescaled_final/1921_rv.mp4	0.0	114.8464560508728	
12	89.62439489364624	fix_post	2		12	10.0	2.5	/experiments/AOT/AOT_stimuli/rescaled_final/1921_rv.mp4	0.0	114.96446585655212	0.0999901294708252
13	89.72438502311707	fix_pre	0		120	11.0	2.5	/experiments/AOT/AOT_stimuli/rescaled_final/0999_fw.mp4	0.0	115.06445598602295	1.0000050067901611
13	90.72439002990723	movie	1		245	11.0	2.5	/experiments/AOT/AOT_stimuli/rescaled_final/0999_fw.mp4	0.0	116.06446099281311	2.4999899864196777
13	91.10760307312012	pulse	1	t		11.0	2.5	/experiments/AOT/AOT_stimuli/rescaled_final/0999_fw.mp4	0.0	116.447674036026	
13	92.70795607566833	pulse	1	t		11.0	2.5	/experiments/AOT/AOT_stimuli/rescaled_final/0999_fw.mp4	0.0	118.04802703857422	
13	93.2243800163269	fix_post	2		12	11.0	2.5	/experiments/AOT/AOT_stimuli/rescaled_final/0999_fw.mp4	0.0	118.56445097923279	0.10002589225769043
14	93.3244059085846	fix_pre	0		119	12.0	2.5	/experiments/AOT/AOT_stimuli/rescaled_final/0055_fw.mp4	0.0	118.66447687149048	0.9916760921478271
14	94.30786490440369	pulse	0	t		12.0	2.5	/experiments/AOT/AOT_stimuli/rescaled_final/0055_fw.mp4	0.0	119.64793586730957	
14	94.31608200073242	movie	1		245	12.0	2.5	/experiments/AOT/AOT_stimuli/rescaled_final/0055_fw.mp4	0.0	119.6561529636383	2.5078959465026855
14	95.90751004219055	pulse	1	t		12.0	2.5	/experiments/AOT/AOT_stimuli/rescaled_final/0055_fw.mp4	0.0	121.24758100509644	
14	96.82397794723511	fix_post	2		12	12.0	2.5	/experiments/AOT/AOT_stimuli/rescaled_final/0055_fw.mp4	0.0	122.16404891014099	0.10045695304870605
15	96.92443490028381	fix_pre	0		120	13.0	2.5	blank	1.0	122.2645058631897	0.9999480247497559
15	97.50792002677917	pulse	0	t		13.0	2.5	blank	1.0	122.84799098968506	
15	97.92438292503357	movie	1		300	13.0	2.5	blank	1.0	123.26445388793945	2.5000360012054443
15	99.10784697532654	pulse	1	t		13.0	2.5	blank	1.0	124.44791793823242	
15	100.42441892623901	fix_post	2		12	13.0	2.5	blank	1.0	125.7644898891449	0.09998416900634766
16	100.52440309524536	fix_pre	0		120	14.0	2.5	/experiments/AOT/AOT_stimuli/rescaled_final/1839_fw.mp4	0.0	125.86447405815125	0.9999959468841553
16	100.70786905288696	pulse	0	t		14.0	2.5	/experiments/AOT/AOT_stimuli/rescaled_final/1839_fw.mp4	0.0	126.04794001579285	
16	101.52439904212952	movie	1		243	14.0	2.5	/experiments/AOT/AOT_stimuli/rescaled_final/1839_fw.mp4	0.0	126.8644700050354	2.499948024749756
16	102.30039501190186	pulse	1	t		14.0	2.5	/experiments/AOT/AOT_stimuli/rescaled_final/1839_fw.mp4	0.0	127.64046597480774	
16	103.90621304512024	pulse	1	t		14.0	2.5	/experiments/AOT/AOT_stimuli/rescaled_final/1839_fw.mp4	0.0	129.24628400802612	
16	104.02434706687927	fix_post	2		12	14.0	2.5	/experiments/AOT/AOT_stimuli/rescaled_final/1839_fw.mp4	0.0	129.36441802978516	0.10006499290466309
17	104.12441205978394	fix_pre	0		120	15.0	2.5	/experiments/AOT/AOT_stimuli/rescaled_final/1031_fw.mp4	0.0	129.46448302268982	0.9999659061431885
17	105.12437796592712	movie	1		244	15.0	2.5	/experiments/AOT/AOT_stimuli/rescaled_final/1031_fw.mp4	0.0	130.464448928833	2.500077962875366
17	105.50781798362732	pulse	1	t		15.0	2.5	/experiments/AOT/AOT_stimuli/rescaled_final/1031_fw.mp4	0.0	130.8478889465332	
17	107.10781788825989	pulse	1	t		15.0	2.5	/experiments/AOT/AOT_stimuli/rescaled_final/1031_fw.mp4	0.0	132.44788885116577	
17	107.62445592880249	fix_post	2		12	15.0	2.5	/experiments/AOT/AOT_stimuli/rescaled_final/1031_fw.mp4	0.0	132.96452689170837	0.09990215301513672
18	107.72435808181763	fix_pre	0		119	16.0	2.5	/experiments/AOT/AOT_stimuli/rescaled_final/0892_fw.mp4	0.0	133.0644290447235	0.9916858673095703
18	108.70787405967712	pulse	0	t		16.0	2.5	/experiments/AOT/AOT_stimuli/rescaled_final/0892_fw.mp4	0.0	134.047945022583	
18	108.7160439491272	movie	1		244	16.0	2.5	/experiments/AOT/AOT_stimuli/rescaled_final/0892_fw.mp4	0.0	134.05611491203308	2.508273124694824
18	110.30778789520264	pulse	1	t		16.0	2.5	/experiments/AOT/AOT_stimuli/rescaled_final/0892_fw.mp4	0.0	135.64785885810852	
18	111.22431707382202	fix_post	2		12	16.0	2.5	/experiments/AOT/AOT_stimuli/rescaled_final/0892_fw.mp4	0.0	136.5643880367279	0.10003280639648438
19	111.3243498802185	fix_pre	0		120	17.0	2.5	/experiments/AOT/AOT_stimuli/rescaled_final/0858_rv.mp4	0.0	136.6644208431244	1.000028133392334
19	111.90781092643738	pulse	0	t		17.0	2.5	/experiments/AOT/AOT_stimuli/rescaled_final/0858_rv.mp4	0.0	137.24788188934326	
19	112.32437801361084	movie	1		245	17.0	2.5	/experiments/AOT/AOT_stimuli/rescaled_final/0858_rv.mp4	0.0	137.66444897651672	2.4997940063476562
19	113.50744891166687	pulse	1	t		17.0	2.5	/experiments/AOT/AOT_stimuli/rescaled_final/0858_rv.mp4	0.0	138.84751987457275	
19	114.8241720199585	fix_post	2		12	17.0	2.5	/experiments/AOT/AOT_stimuli/rescaled_final/0858_rv.mp4	0.0	140.16424298286438	0.09988689422607422
20	114.92405891418457	fix_pre	0		120	18.0	2.5	/experiments/AOT/AOT_stimuli/rescaled_final/0894_rv.mp4	0.0	140.26412987709045	1.000481128692627
20	115.10790491104126	pulse	0	t		18.0	2.5	/experiments/AOT/AOT_stimuli/rescaled_final/0894_rv.mp4	0.0	140.44797587394714	
20	115.9245400428772	movie	1		243	18.0	2.5	/experiments/AOT/AOT_stimuli/rescaled_final/0894_rv.mp4	0.0	141.26461100578308	2.4997918605804443
20	116.70772910118103	pulse	1	t		18.0	2.5	/experiments/AOT/AOT_stimuli/rescaled_final/0894_rv.mp4	0.0	142.0478000640869	
20	118.3061010837555	pulse	1	t		18.0	2.5	/experiments/AOT/AOT_stimuli/rescaled_final/0894_rv.mp4	0.0	143.64617204666138	
20	118.42433190345764	fix_post	2		12	18.0	2.5	/experiments/AOT/AOT_stimuli/rescaled_final/0894_rv.mp4	0.0	143.76440286636353	0.09993505477905273
21	118.5242669582367	fix_pre	0		120	19.0	2.5	/experiments/AOT/AOT_stimuli/rescaled_final/2018_fw.mp4	0.0	143.86433792114258	0.9999940395355225
21	119.52426099777222	movie	1		244	19.0	2.5	/experiments/AOT/AOT_stimuli/rescaled_final/2018_fw.mp4	0.0	144.8643319606781	2.499967098236084
21	119.90747094154358	pulse	1	t		19.0	2.5	/experiments/AOT/AOT_stimuli/rescaled_final/2018_fw.mp4	0.0	145.24754190444946	
21	121.50765800476074	pulse	1	t		19.0	2.5	/experiments/AOT/AOT_stimuli/rescaled_final/2018_fw.mp4	0.0	146.84772896766663	
21	122.0242280960083	fix_post	2		12	19.0	2.5	/experiments/AOT/AOT_stimuli/rescaled_final/2018_fw.mp4	0.0	147.36429905891418	0.10001277923583984
22	122.12424087524414	fix_pre	0		119	20.0	2.5	/experiments/AOT/AOT_stimuli/rescaled_final/0894_rv.mp4	0.0	147.46431183815002	0.9916620254516602
22	123.10768699645996	pulse	0	t		20.0	2.5	/experiments/AOT/AOT_stimuli/rescaled_final/0894_rv.mp4	0.0	148.44775795936584	
22	123.1159029006958	movie	1		243	20.0	2.5	/experiments/AOT/AOT_stimuli/rescaled_final/0894_rv.mp4	0.0	148.45597386360168	2.5083301067352295
22	124.70785093307495	pulse	1	t		20.0	2.5	/experiments/AOT/AOT_stimuli/rescaled_final/0894_rv.mp4	0.0	150.04792189598083	
22	125.62423300743103	fix_post	2		12	20.0	2.5	/experiments/AOT/AOT_stimuli/rescaled_final/0894_rv.mp4	0.0	150.9643039703369	0.09993100166320801
23	125.72416400909424	fix_pre	0		120	21.0	2.5	blank	1.0	151.06423497200012	0.9999959468841553
23	126.30777597427368	pulse	0	t		21.0	2.5	blank	1.0	151.64784693717957	
23	126.7241599559784	movie	1		300	21.0	2.5	blank	1.0	152.06423091888428	2.500020980834961
23	127.9077570438385	pulse	1	t		21.0	2.5	blank	1.0	153.24782800674438	
23	129.22418093681335	fix_post	2		12	21.0	2.5	blank	1.0	154.56425189971924	0.09997797012329102
24	129.32415890693665	fix_pre	0		120	22.0	2.5	/experiments/AOT/AOT_stimuli/rescaled_final/0067_rv.mp4	0.0	154.66422986984253	1.000007152557373
24	129.50769901275635	pulse	0	t		22.0	2.5	/experiments/AOT/AOT_stimuli/rescaled_final/0067_rv.mp4	0.0	154.84776997566223	
24	130.32416605949402	movie	1		246	22.0	2.5	/experiments/AOT/AOT_stimuli/rescaled_final/0067_rv.mp4	0.0	155.6642370223999	2.500126838684082
24	131.10766887664795	pulse	1	t		22.0	2.5	/experiments/AOT/AOT_stimuli/rescaled_final/0067_rv.mp4	0.0	156.44773983955383	
24	132.70386290550232	pulse	1	t		22.0	2.5	/experiments/AOT/AOT_stimuli/rescaled_final/0067_rv.mp4	0.0	158.0439338684082	
24	132.8242928981781	fix_post	2		12	22.0	2.5	/experiments/AOT/AOT_stimuli/rescaled_final/0067_rv.mp4	0.0	158.16436386108398	0.09984898567199707
25	132.9241418838501	fix_pre	0		120	23.0	2.5	/experiments/AOT/AOT_stimuli/rescaled_final/1419_rv.mp4	0.0	158.26421284675598	1.0000081062316895
25	133.9241499900818	movie	1		245	23.0	2.5	/experiments/AOT/AOT_stimuli/rescaled_final/1419_rv.mp4	0.0	159.26422095298767	2.500170946121216
25	134.30749702453613	pulse	1	t		23.0	2.5	/experiments/AOT/AOT_stimuli/rescaled_final/1419_rv.mp4	0.0	159.64756798744202	
25	135.9078118801117	pulse	1	t		23.0	2.5	/experiments/AOT/AOT_stimuli/rescaled_final/1419_rv.mp4	0.0	161.24788284301758	
25	136.424320936203	fix_post	2		12	23.0	2.5	/experiments/AOT/AOT_stimuli/rescaled_final/1419_rv.mp4	0.0	161.7643918991089	0.09986710548400879
26	136.524188041687	fix_pre	0		119	24.0	2.5	/experiments/AOT/AOT_stimuli/rescaled_final/1627_fw.mp4	0.0	161.8642590045929	0.991631031036377
26	137.50765895843506	pulse	0	t		24.0	2.5	/experiments/AOT/AOT_stimuli/rescaled_final/1627_fw.mp4	0.0	162.84772992134094	
26	137.5158190727234	movie	1		244	24.0	2.5	/experiments/AOT/AOT_stimuli/rescaled_final/1627_fw.mp4	0.0	162.85589003562927	2.5083978176116943
26	139.10712599754333	pulse	1	t		24.0	2.5	/experiments/AOT/AOT_stimuli/rescaled_final/1627_fw.mp4	0.0	164.44719696044922	
26	140.02421689033508	fix_post	2		12	24.0	2.5	/experiments/AOT/AOT_stimuli/rescaled_final/1627_fw.mp4	0.0	165.36428785324097	0.09990620613098145
27	140.12412309646606	fix_pre	0		120	25.0	2.5	/experiments/AOT/AOT_stimuli/rescaled_final/1823_rv.mp4	0.0	165.46419405937195	1.0000720024108887
27	140.70766305923462	pulse	0	t		25.0	2.5	/experiments/AOT/AOT_stimuli/rescaled_final/1823_rv.mp4	0.0	166.0477340221405	
27	141.12419509887695	movie	1		244	25.0	2.5	/experiments/AOT/AOT_stimuli/rescaled_final/1823_rv.mp4	0.0	166.46426606178284	2.499508857727051
27	142.30779910087585	pulse	1	t		25.0	2.5	/experiments/AOT/AOT_stimuli/rescaled_final/1823_rv.mp4	0.0	167.64787006378174	
27	143.623703956604	fix_post	2		12	25.0	2.5	/experiments/AOT/AOT_stimuli/rescaled_final/1823_rv.mp4	0.0	168.9637749195099	0.10000395774841309
28	143.72370791435242	fix_pre	0		120	26.0	2.5	/experiments/AOT/AOT_stimuli/rescaled_final/0517_fw.mp4	0.0	169.0637788772583	1.0005831718444824
28	143.9076430797577	pulse	0	t		26.0	2.5	/experiments/AOT/AOT_stimuli/rescaled_final/0517_fw.mp4	0.0	169.24771404266357	
28	144.7242910861969	movie	1		245	26.0	2.5	/experiments/AOT/AOT_stimuli/rescaled_final/0517_fw.mp4	0.0	170.06436204910278	2.499382972717285
28	145.50764107704163	pulse	1	t		26.0	2.5	/experiments/AOT/AOT_stimuli/rescaled_final/0517_fw.mp4	0.0	170.8477120399475	
28	147.1062569618225	pulse	1	t		26.0	2.5	/experiments/AOT/AOT_stimuli/rescaled_final/0517_fw.mp4	0.0	172.4463279247284	
28	147.22367405891418	fix_post	2		12	26.0	2.5	/experiments/AOT/AOT_stimuli/rescaled_final/0517_fw.mp4	0.0	172.56374502182007	0.10041499137878418
29	147.32408905029297	fix_pre	0		120	27.0	2.5	blank	1.0	172.66416001319885	0.9999580383300781
29	148.32404708862305	movie	1		300	27.0	2.5	blank	1.0	173.66411805152893	2.4996559619903564
29	148.70758295059204	pulse	1	t		27.0	2.5	blank	1.0	174.04765391349792	
29	150.30757904052734	pulse	1	t		27.0	2.5	blank	1.0	175.64765000343323	
29	150.8237030506134	fix_post	2		12	27.0	2.5	blank	1.0	176.1637740135193	0.10040783882141113
30	150.92411088943481	fix_pre	0		119	28.0	2.5	/experiments/AOT/AOT_stimuli/rescaled_final/0878_rv.mp4	0.0	176.2641818523407	0.9916729927062988
30	151.90759897232056	pulse	0	t		28.0	2.5	/experiments/AOT/AOT_stimuli/rescaled_final/0878_rv.mp4	0.0	177.24766993522644	
30	151.9157838821411	movie	1		247	28.0	2.5	/experiments/AOT/AOT_stimuli/rescaled_final/0878_rv.mp4	0.0	177.255854845047	2.5083670616149902
30	153.5072340965271	pulse	1	t		28.0	2.5	/experiments/AOT/AOT_stimuli/rescaled_final/0878_rv.mp4	0.0	178.84730505943298	
30	154.4241509437561	fix_post	2		12	28.0	2.5	/experiments/AOT/AOT_stimuli/rescaled_final/0878_rv.mp4	0.0	179.764221906662	0.09997797012329102
31	154.5241289138794	fix_pre	0		120	29.0	2.5	/experiments/AOT/AOT_stimuli/rescaled_final/1744_rv.mp4	0.0	179.86419987678528	0.9999780654907227
31	155.10759902000427	pulse	0	t		29.0	2.5	/experiments/AOT/AOT_stimuli/rescaled_final/1744_rv.mp4	0.0	180.44766998291016	
31	155.52410697937012	movie	1		246	29.0	2.5	/experiments/AOT/AOT_stimuli/rescaled_final/1744_rv.mp4	0.0	180.864177942276	2.499596118927002
31	156.70770907402039	pulse	1	t		29.0	2.5	/experiments/AOT/AOT_stimuli/rescaled_final/1744_rv.mp4	0.0	182.04778003692627	
31	158.02370309829712	fix_post	2		12	29.0	2.5	/experiments/AOT/AOT_stimuli/rescaled_final/1744_rv.mp4	0.0	183.363774061203	0.1004788875579834
32	158.1241819858551	fix_pre	0		120	30.0	2.5	/experiments/AOT/AOT_stimuli/rescaled_final/1544_fw.mp4	0.0	183.464252948761	0.9999699592590332
32	158.3076798915863	pulse	0	t		30.0	2.5	/experiments/AOT/AOT_stimuli/rescaled_final/1544_fw.mp4	0.0	183.6477508544922	
32	159.12415194511414	movie	1		244	30.0	2.5	/experiments/AOT/AOT_stimuli/rescaled_final/1544_fw.mp4	0.0	184.46422290802002	2.4995739459991455
32	159.90753388404846	pulse	1	t		30.0	2.5	/experiments/AOT/AOT_stimuli/rescaled_final/1544_fw.mp4	0.0	185.24760484695435	
32	161.50599789619446	pulse	1	t		30.0	2.5	/experiments/AOT/AOT_stimuli/rescaled_final/1544_fw.mp4	0.0	186.84606885910034	
32	161.62372589111328	fix_post	2		12	30.0	2.5	/experiments/AOT/AOT_stimuli/rescaled_final/1544_fw.mp4	0.0	186.96379685401917	0.10030698776245117
33	161.72403287887573	fix_pre	0		120	31.0	2.5	/experiments/AOT/AOT_stimuli/rescaled_final/2044_fw.mp4	0.0	187.06410384178162	1.0000309944152832
33	162.72406387329102	movie	1		245	31.0	2.5	/experiments/AOT/AOT_stimuli/rescaled_final/2044_fw.mp4	0.0	188.0641348361969	2.49961519241333
33	163.10714602470398	pulse	1	t		31.0	2.5	/experiments/AOT/AOT_stimuli/rescaled_final/2044_fw.mp4	0.0	188.44721698760986	
33	164.70753002166748	pulse	1	t		31.0	2.5	/experiments/AOT/AOT_stimuli/rescaled_final/2044_fw.mp4	0.0	190.04760098457336	
33	165.22367906570435	fix_post	2		12	31.0	2.5	/experiments/AOT/AOT_stimuli/rescaled_final/2044_fw.mp4	0.0	190.56375002861023	0.10037684440612793
34	165.32405591011047	fix_pre	0		119	32.0	2.5	/experiments/AOT/AOT_stimuli/rescaled_final/2048_fw.mp4	0.0	190.66412687301636	0.9918310642242432
34	166.30766797065735	pulse	0	t		32.0	2.5	/experiments/AOT/AOT_stimuli/rescaled_final/2048_fw.mp4	0.0	191.64773893356323	
34	166.31588697433472	movie	1		245	32.0	2.5	/experiments/AOT/AOT_stimuli/rescaled_final/2048_fw.mp4	0.0	191.6559579372406	2.5081899166107178
34	167.9072458744049	pulse	1	t		32.0	2.5	/experiments/AOT/AOT_stimuli/rescaled_final/2048_fw.mp4	0.0	193.2473168373108	
34	168.82407689094543	fix_post	2		12	32.0	2.5	/experiments/AOT/AOT_stimuli/rescaled_final/2048_fw.mp4	0.0	194.16414785385132	0.09998416900634766
35	168.92406105995178	fix_pre	0		120	33.0	2.5	/experiments/AOT/AOT_stimuli/rescaled_final/1143_rv.mp4	0.0	194.26413202285767	0.9995598793029785
35	169.50711488723755	pulse	0	t		33.0	2.5	/experiments/AOT/AOT_stimuli/rescaled_final/1143_rv.mp4	0.0	194.84718585014343	
35	169.92362093925476	movie	1		246	33.0	2.5	/experiments/AOT/AOT_stimuli/rescaled_final/1143_rv.mp4	0.0	195.26369190216064	2.5006699562072754
35	171.10764694213867	pulse	1	t		33.0	2.5	/experiments/AOT/AOT_stimuli/rescaled_final/1143_rv.mp4	0.0	196.44771790504456	
35	172.42429089546204	fix_post	2		12	33.0	2.5	/experiments/AOT/AOT_stimuli/rescaled_final/1143_rv.mp4	0.0	197.76436185836792	0.09964609146118164
36	172.52393698692322	fix_pre	0		120	34.0	2.5	/experiments/AOT/AOT_stimuli/rescaled_final/0858_fw.mp4	0.0	197.8640079498291	1.0001440048217773
36	172.70749187469482	pulse	0	t		34.0	2.5	/experiments/AOT/AOT_stimuli/rescaled_final/0858_fw.mp4	0.0	198.0475628376007	
36	173.524080991745	movie	1		243	34.0	2.5	/experiments/AOT/AOT_stimuli/rescaled_final/0858_fw.mp4	0.0	198.86415195465088	2.4999539852142334
36	174.30766201019287	pulse	1	t		34.0	2.5	/experiments/AOT/AOT_stimuli/rescaled_final/0858_fw.mp4	0.0	199.64773297309875	
36	175.90600204467773	pulse	1	t		34.0	2.5	/experiments/AOT/AOT_stimuli/rescaled_final/0858_fw.mp4	0.0	201.24607300758362	
36	176.02403497695923	fix_post	2		12	34.0	2.5	/experiments/AOT/AOT_stimuli/rescaled_final/0858_fw.mp4	0.0	201.3641059398651	0.09995007514953613
37	176.12398505210876	fix_pre	0		120	35.0	2.5	blank	1.0	201.46405601501465	1.0000360012054443
37	177.1240210533142	movie	1		300	35.0	2.5	blank	1.0	202.4640920162201	2.4999568462371826
37	177.50739002227783	pulse	1	t		35.0	2.5	blank	1.0	202.84746098518372	
37	179.10746693611145	pulse	1	t		35.0	2.5	blank	1.0	204.44753789901733	
37	179.6239778995514	fix_post	2		12	35.0	2.5	blank	1.0	204.96404886245728	0.0999751091003418
38	179.72395300865173	fix_pre	0		119	36.0	2.5	/experiments/AOT/AOT_stimuli/rescaled_final/0223_fw.mp4	0.0	205.06402397155762	0.991628885269165
38	180.70738887786865	pulse	0	t		36.0	2.5	/experiments/AOT/AOT_stimuli/rescaled_final/0223_fw.mp4	0.0	206.04745984077454	
38	180.7155818939209	movie	1		244	36.0	2.5	/experiments/AOT/AOT_stimuli/rescaled_final/0223_fw.mp4	0.0	206.05565285682678	2.508397102355957
38	182.30717492103577	pulse	1	t		36.0	2.5	/experiments/AOT/AOT_stimuli/rescaled_final/0223_fw.mp4	0.0	207.64724588394165	
38	183.22397899627686	fix_post	2		12	36.0	2.5	/experiments/AOT/AOT_stimuli/rescaled_final/0223_fw.mp4	0.0	208.56404995918274	0.09995007514953613
39	183.3239290714264	fix_pre	0		120	37.0	2.5	/experiments/AOT/AOT_stimuli/rescaled_final/1507_rv.mp4	0.0	208.66400003433228	1.0000269412994385
39	183.9073770046234	pulse	0	t		37.0	2.5	/experiments/AOT/AOT_stimuli/rescaled_final/1507_rv.mp4	0.0	209.2474479675293	
39	184.32395601272583	movie	1		245	37.0	2.5	/experiments/AOT/AOT_stimuli/rescaled_final/1507_rv.mp4	0.0	209.6640269756317	2.4999899864196777
39	185.50748801231384	pulse	1	t		37.0	2.5	/experiments/AOT/AOT_stimuli/rescaled_final/1507_rv.mp4	0.0	210.84755897521973	
39	186.8239459991455	fix_post	2		12	37.0	2.5	/experiments/AOT/AOT_stimuli/rescaled_final/1507_rv.mp4	0.0	212.1640169620514	0.09993505477905273
40	186.92388105392456	fix_pre	0		120	38.0	2.5	/experiments/AOT/AOT_stimuli/rescaled_final/1170_fw.mp4	0.0	212.26395201683044	1.0001180171966553
40	187.10734391212463	pulse	0	t		38.0	2.5	/experiments/AOT/AOT_stimuli/rescaled_final/1170_fw.mp4	0.0	212.44741487503052	
40	187.92399907112122	movie	1		244	38.0	2.5	/experiments/AOT/AOT_stimuli/rescaled_final/1170_fw.mp4	0.0	213.2640700340271	2.499966859817505
40	188.7073459625244	pulse	1	t		38.0	2.5	/experiments/AOT/AOT_stimuli/rescaled_final/1170_fw.mp4	0.0	214.0474169254303	
40	190.30571103096008	pulse	1	t		38.0	2.5	/experiments/AOT/AOT_stimuli/rescaled_final/1170_fw.mp4	0.0	215.64578199386597	
40	190.42396593093872	fix_post	2		12	38.0	2.5	/experiments/AOT/AOT_stimuli/rescaled_final/1170_fw.mp4	0.0	215.7640368938446	0.09988594055175781
41	190.52385187149048	fix_pre	0		120	39.0	2.5	/experiments/AOT/AOT_stimuli/rescaled_final/1875_rv.mp4	0.0	215.86392283439636	0.999629020690918
41	191.5234808921814	movie	1		243	39.0	2.5	/experiments/AOT/AOT_stimuli/rescaled_final/1875_rv.mp4	0.0	216.86355185508728	2.4999701976776123
41	191.9073588848114	pulse	1	t		39.0	2.5	/experiments/AOT/AOT_stimuli/rescaled_final/1875_rv.mp4	0.0	217.24742984771729	
41	193.5074610710144	pulse	1	t		39.0	2.5	/experiments/AOT/AOT_stimuli/rescaled_final/1875_rv.mp4	0.0	218.8475320339203	
41	194.023451089859	fix_post	2		12	39.0	2.5	/experiments/AOT/AOT_stimuli/rescaled_final/1875_rv.mp4	0.0	219.3635220527649	0.10048985481262207
42	194.12394094467163	fix_pre	0		119	40.0	2.5	/experiments/AOT/AOT_stimuli/rescaled_final/1143_fw.mp4	0.0	219.46401190757751	0.991569995880127
42	195.1073169708252	pulse	0	t		40.0	2.5	/experiments/AOT/AOT_stimuli/rescaled_final/1143_fw.mp4	0.0	220.44738793373108	
42	195.11551094055176	movie	1		245	40.0	2.5	/experiments/AOT/AOT_stimuli/rescaled_final/1143_fw.mp4	0.0	220.45558190345764	2.508044958114624
42	196.70836687088013	pulse	1	t		40.0	2.5	/experiments/AOT/AOT_stimuli/rescaled_final/1143_fw.mp4	0.0	222.048437833786	
42	197.62355589866638	fix_post	2		12	40.0	2.5	/experiments/AOT/AOT_stimuli/rescaled_final/1143_fw.mp4	0.0	222.96362686157227	0.10027813911437988
43	197.72383403778076	fix_pre	0		120	41.0	2.5	/experiments/AOT/AOT_stimuli/rescaled_final/2083_rv.mp4	0.0	223.06390500068665	0.999629020690918
43	198.30740189552307	pulse	0	t		41.0	2.5	/experiments/AOT/AOT_stimuli/rescaled_final/2083_rv.mp4	0.0	223.64747285842896	
43	198.72346305847168	movie	1		243	41.0	2.5	/experiments/AOT/AOT_stimuli/rescaled_final/2083_rv.mp4	0.0	224.06353402137756	2.5003459453582764
43	199.9073350429535	pulse	1	t		41.0	2.5	/experiments/AOT/AOT_stimuli/rescaled_final/2083_rv.mp4	0.0	225.24740600585938	
43	201.22380900382996	fix_post	2		12	41.0	2.5	/experiments/AOT/AOT_stimuli/rescaled_final/2083_rv.mp4	0.0	226.56387996673584	0.10003399848937988
44	201.32384300231934	fix_pre	0		120	42.0	2.5	blank	1.0	226.66391396522522	1.000093936920166
44	201.5073540210724	pulse	0	t		42.0	2.5	blank	1.0	226.84742498397827	
44	202.3239369392395	movie	1		300	42.0	2.5	blank	1.0	227.66400790214539	2.499917984008789
44	203.10737299919128	pulse	1	t		42.0	2.5	blank	1.0	228.44744396209717	
44	204.70733904838562	pulse	1	t		42.0	2.5	blank	1.0	230.0474100112915	
44	204.8238549232483	fix_post	2		12	42.0	2.5	blank	1.0	230.16392588615417	0.09996294975280762
45	204.9238178730011	fix_pre	0		120	43.0	2.5	/experiments/AOT/AOT_stimuli/rescaled_final/1430_fw.mp4	0.0	230.26388883590698	0.9999980926513672
45	205.92381596565247	movie	1		247	43.0	2.5	/experiments/AOT/AOT_stimuli/rescaled_final/1430_fw.mp4	0.0	231.26388692855835	2.4997689723968506
45	206.306715965271	pulse	1	t		43.0	2.5	/experiments/AOT/AOT_stimuli/rescaled_final/1430_fw.mp4	0.0	231.64678692817688	
45	207.9073429107666	pulse	1	t		43.0	2.5	/experiments/AOT/AOT_stimuli/rescaled_final/1430_fw.mp4	0.0	233.24741387367249	
45	208.42358493804932	fix_post	2		12	43.0	2.5	/experiments/AOT/AOT_stimuli/rescaled_final/1430_fw.mp4	0.0	233.7636559009552	0.10019397735595703
46	208.52377891540527	fix_pre	0		119	44.0	2.5	/experiments/AOT/AOT_stimuli/rescaled_final/0894_fw.mp4	0.0	233.86384987831116	0.9917600154876709
46	209.50735807418823	pulse	0	t		44.0	2.5	/experiments/AOT/AOT_stimuli/rescaled_final/0894_fw.mp4	0.0	234.84742903709412	
46	209.51553893089294	movie	1		245	44.0	2.5	/experiments/AOT/AOT_stimuli/rescaled_final/0894_fw.mp4	0.0	234.85560989379883	2.5077950954437256
46	211.10694289207458	pulse	1	t		44.0	2.5	/experiments/AOT/AOT_stimuli/rescaled_final/0894_fw.mp4	0.0	236.44701385498047	
46	212.02333402633667	fix_post	2		12	44.0	2.5	/experiments/AOT/AOT_stimuli/rescaled_final/0894_fw.mp4	0.0	237.36340498924255	0.10054707527160645
47	212.12388110160828	fix_pre	0		120	45.0	2.5	/experiments/AOT/AOT_stimuli/rescaled_final/0228_fw.mp4	0.0	237.46395206451416	0.9999308586120605
47	212.7073380947113	pulse	0	t		45.0	2.5	/experiments/AOT/AOT_stimuli/rescaled_final/0228_fw.mp4	0.0	238.0474090576172	
47	213.12381196022034	movie	1		243	45.0	2.5	/experiments/AOT/AOT_stimuli/rescaled_final/0228_fw.mp4	0.0	238.46388292312622	2.499541997909546
47	214.30737209320068	pulse	1	t		45.0	2.5	/experiments/AOT/AOT_stimuli/rescaled_final/0228_fw.mp4	0.0	239.64744305610657	
47	215.62335395812988	fix_post	2		12	45.0	2.5	/experiments/AOT/AOT_stimuli/rescaled_final/0228_fw.mp4	0.0	240.96342492103577	0.10039496421813965
48	215.72374892234802	fix_pre	0		120	46.0	2.5	/experiments/AOT/AOT_stimuli/rescaled_final/1210_rv.mp4	0.0	241.0638198852539	0.9996211528778076
48	215.90735507011414	pulse	0	t		46.0	2.5	/experiments/AOT/AOT_stimuli/rescaled_final/1210_rv.mp4	0.0	241.24742603302002	
48	216.72337007522583	movie	1		243	46.0	2.5	/experiments/AOT/AOT_stimuli/rescaled_final/1210_rv.mp4	0.0	242.0634410381317	2.5000009536743164
48	217.50728607177734	pulse	1	t		46.0	2.5	/experiments/AOT/AOT_stimuli/rescaled_final/1210_rv.mp4	0.0	242.84735703468323	
48	219.1055190563202	pulse	1	t		46.0	2.5	/experiments/AOT/AOT_stimuli/rescaled_final/1210_rv.mp4	0.0	244.44559001922607	
48	219.22337102890015	fix_post	2		12	46.0	2.5	/experiments/AOT/AOT_stimuli/rescaled_final/1210_rv.mp4	0.0	244.56344199180603	0.10046195983886719
49	219.323832988739	fix_pre	0		120	47.0	2.5	/experiments/AOT/AOT_stimuli/rescaled_final/1569_fw.mp4	0.0	244.6639039516449	0.9999229907989502
49	220.32375597953796	movie	1		244	47.0	2.5	/experiments/AOT/AOT_stimuli/rescaled_final/1569_fw.mp4	0.0	245.66382694244385	2.5000429153442383
49	220.70699906349182	pulse	1	t		47.0	2.5	/experiments/AOT/AOT_stimuli/rescaled_final/1569_fw.mp4	0.0	246.0470700263977	
49	222.30721497535706	pulse	1	t		47.0	2.5	/experiments/AOT/AOT_stimuli/rescaled_final/1569_fw.mp4	0.0	247.64728593826294	
49	222.8237988948822	fix_post	2		12	47.0	2.5	/experiments/AOT/AOT_stimuli/rescaled_final/1569_fw.mp4	0.0	248.1638698577881	0.0999910831451416
50	222.92378997802734	fix_pre	0		119	48.0	2.5	blank	1.0	248.26386094093323	0.9916269779205322
50	223.90729999542236	pulse	0	t		48.0	2.5	blank	1.0	249.24737095832825	
50	223.91541695594788	movie	1		301	48.0	2.5	blank	1.0	249.25548791885376	2.508043050765991
50	225.50735998153687	pulse	1	t		48.0	2.5	blank	1.0	250.84743094444275	
50	226.42346000671387	fix_post	2		12	48.0	2.5	blank	1.0	251.76353096961975	0.09996986389160156
51	226.52342987060547	fix_pre	0		120	49.0	2.5	/experiments/AOT/AOT_stimuli/rescaled_final/0835_fw.mp4	0.0	251.86350083351135	1.0001280307769775
51	227.10689091682434	pulse	0	t		49.0	2.5	/experiments/AOT/AOT_stimuli/rescaled_final/0835_fw.mp4	0.0	252.44696187973022	
51	227.52355790138245	movie	1		246	49.0	2.5	/experiments/AOT/AOT_stimuli/rescaled_final/0835_fw.mp4	0.0	252.86362886428833	2.4997379779815674
51	228.70730900764465	pulse	1	t		49.0	2.5	/experiments/AOT/AOT_stimuli/rescaled_final/0835_fw.mp4	0.0	254.04737997055054	
51	230.023295879364	fix_post	2		12	49.0	2.5	/experiments/AOT/AOT_stimuli/rescaled_final/0835_fw.mp4	0.0	255.3633668422699	0.1004481315612793
52	230.1237440109253	fix_pre	0		120	50.0	2.5	/experiments/AOT/AOT_stimuli/rescaled_final/1494_fw.mp4	0.0	255.46381497383118	0.9999759197235107
52	230.30727100372314	pulse	0	t		50.0	2.5	/experiments/AOT/AOT_stimuli/rescaled_final/1494_fw.mp4	0.0	255.64734196662903	
52	231.1237199306488	movie	1		245	50.0	2.5	/experiments/AOT/AOT_stimuli/rescaled_final/1494_fw.mp4	0.0	256.4637908935547	2.4995200634002686
52	231.90720105171204	pulse	1	t		50.0	2.5	/experiments/AOT/AOT_stimuli/rescaled_final/1494_fw.mp4	0.0	257.2472720146179	
52	233.50638794898987	pulse	1	t		50.0	2.5	/experiments/AOT/AOT_stimuli/rescaled_final/1494_fw.mp4	0.0	258.84645891189575	
52	233.62323999404907	fix_post	2		12	50.0	2.5	/experiments/AOT/AOT_stimuli/rescaled_final/1494_fw.mp4	0.0	258.96331095695496	0.10036492347717285
53	233.72360491752625	fix_pre	0		120	51.0	2.5	/experiments/AOT/AOT_stimuli/rescaled_final/1031_rv.mp4	0.0	259.06367588043213	1.0000779628753662
53	234.7236828804016	movie	1		245	51.0	2.5	/experiments/AOT/AOT_stimuli/rescaled_final/1031_rv.mp4	0.0	260.0637538433075	2.499974012374878
53	235.1067190170288	pulse	1	t		51.0	2.5	/experiments/AOT/AOT_stimuli/rescaled_final/1031_rv.mp4	0.0	260.4467899799347	
53	236.70716094970703	pulse	1	t		51.0	2.5	/experiments/AOT/AOT_stimuli/rescaled_final/1031_rv.mp4	0.0	262.0472319126129	
53	237.2236568927765	fix_post	2		12	51.0	2.5	/experiments/AOT/AOT_stimuli/rescaled_final/1031_rv.mp4	0.0	262.5637278556824	0.10000109672546387
54	237.32365798950195	fix_pre	0		119	52.0	2.5	/experiments/AOT/AOT_stimuli/rescaled_final/0456_rv.mp4	0.0	262.66372895240784	0.9916870594024658
54	238.30715203285217	pulse	0	t		52.0	2.5	/experiments/AOT/AOT_stimuli/rescaled_final/0456_rv.mp4	0.0	263.64722299575806	
54	238.31534504890442	movie	1		245	52.0	2.5	/experiments/AOT/AOT_stimuli/rescaled_final/0456_rv.mp4	0.0	263.6554160118103	2.5079829692840576
54	239.9067509174347	pulse	1	t		52.0	2.5	/experiments/AOT/AOT_stimuli/rescaled_final/0456_rv.mp4	0.0	265.2468218803406	
54	240.82332801818848	fix_post	2		12	52.0	2.5	/experiments/AOT/AOT_stimuli/rescaled_final/0456_rv.mp4	0.0	266.16339898109436	0.10038995742797852
55	240.92371797561646	fix_pre	0		120	53.0	2.5	/experiments/AOT/AOT_stimuli/rescaled_final/1649_rv.mp4	0.0	266.26378893852234	0.9999730587005615
55	241.50712394714355	pulse	0	t		53.0	2.5	/experiments/AOT/AOT_stimuli/rescaled_final/1649_rv.mp4	0.0	266.84719491004944	
55	241.92369103431702	movie	1		243	53.0	2.5	/experiments/AOT/AOT_stimuli/rescaled_final/1649_rv.mp4	0.0	267.2637619972229	2.4999918937683105
55	243.10720491409302	pulse	1	t		53.0	2.5	/experiments/AOT/AOT_stimuli/rescaled_final/1649_rv.mp4	0.0	268.4472758769989	
55	244.42368292808533	fix_post	2		12	53.0	2.5	/experiments/AOT/AOT_stimuli/rescaled_final/1649_rv.mp4	0.0	269.7637538909912	0.10007214546203613
56	244.52375507354736	fix_pre	0		120	54.0	2.5	/experiments/AOT/AOT_stimuli/rescaled_final/0822_rv.mp4	0.0	269.86382603645325	0.9999079704284668
56	244.70711994171143	pulse	0	t		54.0	2.5	/experiments/AOT/AOT_stimuli/rescaled_final/0822_rv.mp4	0.0	270.0471909046173	
56	245.52366304397583	movie	1		244	54.0	2.5	/experiments/AOT/AOT_stimuli/rescaled_final/0822_rv.mp4	0.0	270.8637340068817	2.5001659393310547
56	246.30705189704895	pulse	1	t		54.0	2.5	/experiments/AOT/AOT_stimuli/rescaled_final/0822_rv.mp4	0.0	271.64712285995483	
56	247.90324187278748	pulse	1	t		54.0	2.5	/experiments/AOT/AOT_stimuli/rescaled_final/0822_rv.mp4	0.0	273.24331283569336	
56	248.02382898330688	fix_post	2		12	54.0	2.5	/experiments/AOT/AOT_stimuli/rescaled_final/0822_rv.mp4	0.0	273.36389994621277	0.0997920036315918
57	248.12362098693848	fix_pre	0		120	55.0	2.5	blank	1.0	273.46369194984436	1.0000660419464111
57	249.1236870288849	movie	1		300	55.0	2.5	blank	1.0	274.46375799179077	2.4999518394470215
57	249.50713992118835	pulse	1	t		55.0	2.5	blank	1.0	274.84721088409424	
57	251.10714387893677	pulse	1	t		55.0	2.5	blank	1.0	276.44721484184265	
57	251.6236388683319	fix_post	2		12	55.0	2.5	blank	1.0	276.9637098312378	0.0999290943145752
58	251.72356796264648	fix_pre	0		119	56.0	2.5	/experiments/AOT/AOT_stimuli/rescaled_final/2021_fw.mp4	0.0	277.06363892555237	0.991765022277832
58	252.7071681022644	pulse	0	t		56.0	2.5	/experiments/AOT/AOT_stimuli/rescaled_final/2021_fw.mp4	0.0	278.0472390651703	
58	252.71533298492432	movie	1		245	56.0	2.5	/experiments/AOT/AOT_stimuli/rescaled_final/2021_fw.mp4	0.0	278.0554039478302	2.5083839893341064
58	254.30648493766785	pulse	1	t		56.0	2.5	/experiments/AOT/AOT_stimuli/rescaled_final/2021_fw.mp4	0.0	279.64655590057373	
58	255.22371697425842	fix_post	2		12	56.0	2.5	/experiments/AOT/AOT_stimuli/rescaled_final/2021_fw.mp4	0.0	280.5637879371643	0.09985089302062988
59	255.32356786727905	fix_pre	0		120	57.0	2.5	/experiments/AOT/AOT_stimuli/rescaled_final/2037_rv.mp4	0.0	280.66363883018494	1.0000331401824951
59	255.90720009803772	pulse	0	t		57.0	2.5	/experiments/AOT/AOT_stimuli/rescaled_final/2037_rv.mp4	0.0	281.2472710609436	
59	256.32360100746155	movie	1		246	57.0	2.5	/experiments/AOT/AOT_stimuli/rescaled_final/2037_rv.mp4	0.0	281.66367197036743	2.500011920928955
59	257.5071060657501	pulse	1	t		57.0	2.5	/experiments/AOT/AOT_stimuli/rescaled_final/2037_rv.mp4	0.0	282.847177028656	
59	258.8236129283905	fix_post	2		12	57.0	2.5	/experiments/AOT/AOT_stimuli/rescaled_final/2037_rv.mp4	0.0	284.1636838912964	0.10001397132873535
60	258.92362689971924	fix_pre	0		120	58.0	2.5	/experiments/AOT/AOT_stimuli/rescaled_final/0420_rv.mp4	0.0	284.2636978626251	0.9995570182800293
60	259.1071209907532	pulse	0	t		58.0	2.5	/experiments/AOT/AOT_stimuli/rescaled_final/0420_rv.mp4	0.0	284.44719195365906	
60	259.92318391799927	movie	1		244	58.0	2.5	/experiments/AOT/AOT_stimuli/rescaled_final/0420_rv.mp4	0.0	285.26325488090515	2.500452995300293
60	260.70711398124695	pulse	1	t		58.0	2.5	/experiments/AOT/AOT_stimuli/rescaled_final/0420_rv.mp4	0.0	286.04718494415283	
60	262.3056609630585	pulse	1	t		58.0	2.5	/experiments/AOT/AOT_stimuli/rescaled_final/0420_rv.mp4	0.0	287.64573192596436	
60	262.42363691329956	fix_post	2		12	58.0	2.5	/experiments/AOT/AOT_stimuli/rescaled_final/0420_rv.mp4	0.0	287.76370787620544	0.09996795654296875
61	262.52360486984253	fix_pre	0		120	59.0	2.5	/experiments/AOT/AOT_stimuli/rescaled_final/0081_fw.mp4	0.0	287.8636758327484	1.0000550746917725
61	263.5236599445343	movie	1		243	59.0	2.5	/experiments/AOT/AOT_stimuli/rescaled_final/0081_fw.mp4	0.0	288.8637309074402	2.4995579719543457
61	263.9067130088806	pulse	1	t		59.0	2.5	/experiments/AOT/AOT_stimuli/rescaled_final/0081_fw.mp4	0.0	289.2467839717865	
61	265.5070810317993	pulse	1	t		59.0	2.5	/experiments/AOT/AOT_stimuli/rescaled_final/0081_fw.mp4	0.0	290.8471519947052	
61	266.02321791648865	fix_post	2		12	59.0	2.5	/experiments/AOT/AOT_stimuli/rescaled_final/0081_fw.mp4	0.0	291.36328887939453	0.10027599334716797
62	266.1234939098358	fix_pre	0		119	60.0	2.5	/experiments/AOT/AOT_stimuli/rescaled_final/1290_rv.mp4	0.0	291.4635648727417	0.9916889667510986
62	267.1069989204407	pulse	0	t		60.0	2.5	/experiments/AOT/AOT_stimuli/rescaled_final/1290_rv.mp4	0.0	292.44706988334656	
62	267.1151828765869	movie	1		245	60.0	2.5	/experiments/AOT/AOT_stimuli/rescaled_final/1290_rv.mp4	0.0	292.4552538394928	2.5083210468292236
62	268.70671105384827	pulse	1	t		60.0	2.5	/experiments/AOT/AOT_stimuli/rescaled_final/1290_rv.mp4	0.0	294.04678201675415	
62	269.62350392341614	fix_post	2		12	60.0	2.5	/experiments/AOT/AOT_stimuli/rescaled_final/1290_rv.mp4	0.0	294.963574886322	0.10001707077026367
63	269.7235209941864	fix_pre	0		120	61.0	2.5	/experiments/AOT/AOT_stimuli/rescaled_final/0518_fw.mp4	0.0	295.0635919570923	0.9999649524688721
63	270.30703997612	pulse	0	t		61.0	2.5	/experiments/AOT/AOT_stimuli/rescaled_final/0518_fw.mp4	0.0	295.6471109390259	
63	270.7234859466553	movie	1		244	61.0	2.5	/experiments/AOT/AOT_stimuli/rescaled_final/0518_fw.mp4	0.0	296.06355690956116	2.5000550746917725
63	271.90711402893066	pulse	1	t		61.0	2.5	/experiments/AOT/AOT_stimuli/rescaled_final/0518_fw.mp4	0.0	297.24718499183655	
63	273.22354102134705	fix_post	2		12	61.0	2.5	/experiments/AOT/AOT_stimuli/rescaled_final/0518_fw.mp4	0.0	298.56361198425293	0.09995007514953613
64	273.3234910964966	fix_pre	0		120	62.0	2.5	blank	1.0	298.66356205940247	1.0000309944152832
64	273.5070378780365	pulse	0	t		62.0	2.5	blank	1.0	298.8471088409424	
64	274.32352209091187	movie	1		300	62.0	2.5	blank	1.0	299.66359305381775	2.5000388622283936
64	275.1070239543915	pulse	1	t		62.0	2.5	blank	1.0	300.44709491729736	
64	276.7069659233093	pulse	1	t		62.0	2.5	blank	1.0	302.0470368862152	
64	276.82356095314026	fix_post	2		12	62.0	2.5	blank	1.0	302.16363191604614	0.09997391700744629
65	276.9235348701477	fix_pre	0		120	63.0	2.5	/experiments/AOT/AOT_stimuli/rescaled_final/1693_rv.mp4	0.0	302.2636058330536	1.00002121925354
65	277.92355608940125	movie	1		245	63.0	2.5	/experiments/AOT/AOT_stimuli/rescaled_final/1693_rv.mp4	0.0	303.26362705230713	2.4999167919158936
65	278.30667901039124	pulse	1	t		63.0	2.5	/experiments/AOT/AOT_stimuli/rescaled_final/1693_rv.mp4	0.0	303.6467499732971	
65	279.9070439338684	pulse	1	t		63.0	2.5	/experiments/AOT/AOT_stimuli/rescaled_final/1693_rv.mp4	0.0	305.2471148967743	
65	280.42347288131714	fix_post	2		12	63.0	2.5	/experiments/AOT/AOT_stimuli/rescaled_final/1693_rv.mp4	0.0	305.763543844223	0.09966111183166504
66	280.5231339931488	fix_pre	0		119	64.0	2.5	/experiments/AOT/AOT_stimuli/rescaled_final/0533_rv.mp4	0.0	305.8632049560547	0.9920299053192139
66	281.5065999031067	pulse	0	t		64.0	2.5	/experiments/AOT/AOT_stimuli/rescaled_final/0533_rv.mp4	0.0	306.8466708660126	
66	281.515163898468	movie	1		245	64.0	2.5	/experiments/AOT/AOT_stimuli/rescaled_final/0533_rv.mp4	0.0	306.8552348613739	2.5086121559143066
66	283.1062800884247	pulse	1	t		64.0	2.5	/experiments/AOT/AOT_stimuli/rescaled_final/0533_rv.mp4	0.0	308.44635105133057	
66	284.0237760543823	fix_post	2		12	64.0	2.5	/experiments/AOT/AOT_stimuli/rescaled_final/0533_rv.mp4	0.0	309.3638470172882	0.09960103034973145
67	284.12337708473206	fix_pre	0		120	65.0	2.5	/experiments/AOT/AOT_stimuli/rescaled_final/2126_fw.mp4	0.0	309.46344804763794	1.0001139640808105
67	284.7070369720459	pulse	0	t		65.0	2.5	/experiments/AOT/AOT_stimuli/rescaled_final/2126_fw.mp4	0.0	310.0471079349518	
67	285.12349104881287	movie	1		242	65.0	2.5	/experiments/AOT/AOT_stimuli/rescaled_final/2126_fw.mp4	0.0	310.46356201171875	2.499940872192383
67	286.3070271015167	pulse	1	t		65.0	2.5	/experiments/AOT/AOT_stimuli/rescaled_final/2126_fw.mp4	0.0	311.6470980644226	
67	287.62343192100525	fix_post	2		12	65.0	2.5	/experiments/AOT/AOT_stimuli/rescaled_final/2126_fw.mp4	0.0	312.96350288391113	0.10003304481506348
68	287.7234649658203	fix_pre	0		120	66.0	2.5	/experiments/AOT/AOT_stimuli/rescaled_final/1384_rv.mp4	0.0	313.0635359287262	0.9999589920043945
68	287.90702986717224	pulse	0	t		66.0	2.5	/experiments/AOT/AOT_stimuli/rescaled_final/1384_rv.mp4	0.0	313.2471008300781	
68	288.7234239578247	movie	1		242	66.0	2.5	/experiments/AOT/AOT_stimuli/rescaled_final/1384_rv.mp4	0.0	314.0634949207306	2.4999959468841553
68	289.5068199634552	pulse	1	t		66.0	2.5	/experiments/AOT/AOT_stimuli/rescaled_final/1384_rv.mp4	0.0	314.8468909263611	
68	291.10497188568115	pulse	1	t		66.0	2.5	/experiments/AOT/AOT_stimuli/rescaled_final/1384_rv.mp4	0.0	316.44504284858704	
68	291.22341990470886	fix_post	2		12	66.0	2.5	/experiments/AOT/AOT_stimuli/rescaled_final/1384_rv.mp4	0.0	316.56349086761475	0.1000220775604248
69	291.3234419822693	fix_pre	0		120	67.0	2.5	/experiments/AOT/AOT_stimuli/rescaled_final/0950_fw.mp4	0.0	316.66351294517517	0.9999289512634277
69	292.3233709335327	movie	1		244	67.0	2.5	/experiments/AOT/AOT_stimuli/rescaled_final/0950_fw.mp4	0.0	317.6634418964386	2.4996540546417236
69	292.70793104171753	pulse	1	t		67.0	2.5	/experiments/AOT/AOT_stimuli/rescaled_final/0950_fw.mp4	0.0	318.0480020046234	
69	294.3068890571594	pulse	1	t		67.0	2.5	/experiments/AOT/AOT_stimuli/rescaled_final/0950_fw.mp4	0.0	319.6469600200653	
69	294.82302498817444	fix_post	2		12	67.0	2.5	/experiments/AOT/AOT_stimuli/rescaled_final/0950_fw.mp4	0.0	320.1630959510803	0.10035109519958496
70	294.923376083374	fix_pre	0		119	68.0	2.5	/experiments/AOT/AOT_stimuli/rescaled_final/1563_rv.mp4	0.0	320.2634470462799	0.9916999340057373
70	295.90702390670776	pulse	0	t		68.0	2.5	/experiments/AOT/AOT_stimuli/rescaled_final/1563_rv.mp4	0.0	321.24709486961365	
70	295.91507601737976	movie	1		247	68.0	2.5	/experiments/AOT/AOT_stimuli/rescaled_final/1563_rv.mp4	0.0	321.25514698028564	2.5078299045562744
70	297.5065178871155	pulse	1	t		68.0	2.5	/experiments/AOT/AOT_stimuli/rescaled_final/1563_rv.mp4	0.0	322.84658885002136	
70	298.42290592193604	fix_post	2		12	68.0	2.5	/experiments/AOT/AOT_stimuli/rescaled_final/1563_rv.mp4	0.0	323.7629768848419	0.1004631519317627
71	298.5233690738678	fix_pre	0		120	69.0	2.5	/experiments/AOT/AOT_stimuli/rescaled_final/1061_fw.mp4	0.0	323.8634400367737	0.9996309280395508
71	299.10685205459595	pulse	0	t		69.0	2.5	/experiments/AOT/AOT_stimuli/rescaled_final/1061_fw.mp4	0.0	324.44692301750183	
71	299.52300000190735	movie	1		245	69.0	2.5	/experiments/AOT/AOT_stimuli/rescaled_final/1061_fw.mp4	0.0	324.86307096481323	2.5003559589385986
71	300.7069959640503	pulse	1	t		69.0	2.5	/experiments/AOT/AOT_stimuli/rescaled_final/1061_fw.mp4	0.0	326.0470669269562	
71	302.02335596084595	fix_post	2		12	69.0	2.5	/experiments/AOT/AOT_stimuli/rescaled_final/1061_fw.mp4	0.0	327.36342692375183	0.09998297691345215
72	302.1233389377594	fix_pre	0		120	70.0	2.5	blank	1.0	327.4634099006653	1.0000791549682617
72	302.3068220615387	pulse	0	t		70.0	2.5	blank	1.0	327.6468930244446	
72	303.12341809272766	movie	1		300	70.0	2.5	blank	1.0	328.46348905563354	2.499889850616455
72	303.90685391426086	pulse	1	t		70.0	2.5	blank	1.0	329.24692487716675	
72	305.50683999061584	pulse	1	t		70.0	2.5	blank	1.0	330.84691095352173	
72	305.6233079433441	fix_post	2		12	70.0	2.5	blank	1.0	330.96337890625	0.1000831127166748
73	305.7233910560608	fix_pre	0		120	71.0	2.5	/experiments/AOT/AOT_stimuli/rescaled_final/0518_rv.mp4	0.0	331.0634620189667	1.0000238418579102
73	306.7234148979187	movie	1		244	71.0	2.5	/experiments/AOT/AOT_stimuli/rescaled_final/0518_rv.mp4	0.0	332.0634858608246	2.499986171722412
73	307.10640001296997	pulse	1	t		71.0	2.5	/experiments/AOT/AOT_stimuli/rescaled_final/0518_rv.mp4	0.0	332.44647097587585	
73	308.7068510055542	pulse	1	t		71.0	2.5	/experiments/AOT/AOT_stimuli/rescaled_final/0518_rv.mp4	0.0	334.0469219684601	
73	309.2234010696411	fix_post	2		12	71.0	2.5	/experiments/AOT/AOT_stimuli/rescaled_final/0518_rv.mp4	0.0	334.563472032547	0.09988880157470703
74	309.3232898712158	fix_pre	0		119	72.0	2.5	/experiments/AOT/AOT_stimuli/rescaled_final/1284_fw.mp4	0.0	334.6633608341217	0.9916682243347168
74	310.3068380355835	pulse	0	t		72.0	2.5	/experiments/AOT/AOT_stimuli/rescaled_final/1284_fw.mp4	0.0	335.6469089984894	
74	310.31495809555054	movie	1		245	72.0	2.5	/experiments/AOT/AOT_stimuli/rescaled_final/1284_fw.mp4	0.0	335.6550290584564	2.508327007293701
74	311.9065098762512	pulse	1	t		72.0	2.5	/experiments/AOT/AOT_stimuli/rescaled_final/1284_fw.mp4	0.0	337.2465808391571	
74	312.82328510284424	fix_post	2		12	72.0	2.5	/experiments/AOT/AOT_stimuli/rescaled_final/1284_fw.mp4	0.0	338.1633560657501	0.10004687309265137
75	312.9233319759369	fix_pre	0		120	73.0	2.5	/experiments/AOT/AOT_stimuli/rescaled_final/0199_fw.mp4	0.0	338.2634029388428	0.9999599456787109
75	313.50684094429016	pulse	0	t		73.0	2.5	/experiments/AOT/AOT_stimuli/rescaled_final/0199_fw.mp4	0.0	338.84691190719604	
75	313.9232919216156	movie	1		247	73.0	2.5	/experiments/AOT/AOT_stimuli/rescaled_final/0199_fw.mp4	0.0	339.2633628845215	2.5000500679016113
75	315.10689187049866	pulse	1	t		73.0	2.5	/experiments/AOT/AOT_stimuli/rescaled_final/0199_fw.mp4	0.0	340.44696283340454	
75	316.4233419895172	fix_post	2		12	73.0	2.5	/experiments/AOT/AOT_stimuli/rescaled_final/0199_fw.mp4	0.0	341.7634129524231	0.09996294975280762
76	316.52330493927	fix_pre	0		120	74.0	2.5	/experiments/AOT/AOT_stimuli/rescaled_final/1927_rv.mp4	0.0	341.8633759021759	1.0000481605529785
76	316.70687103271484	pulse	0	t		74.0	2.5	/experiments/AOT/AOT_stimuli/rescaled_final/1927_rv.mp4	0.0	342.0469419956207	
76	317.523353099823	movie	1		245	74.0	2.5	/experiments/AOT/AOT_stimuli/rescaled_final/1927_rv.mp4	0.0	342.8634240627289	2.499957799911499
76	318.30672001838684	pulse	1	t		74.0	2.5	/experiments/AOT/AOT_stimuli/rescaled_final/1927_rv.mp4	0.0	343.6467909812927	
76	319.9055120944977	pulse	1	t		74.0	2.5	/experiments/AOT/AOT_stimuli/rescaled_final/1927_rv.mp4	0.0	345.24558305740356	
76	320.0233108997345	fix_post	2		12	74.0	2.5	/experiments/AOT/AOT_stimuli/rescaled_final/1927_rv.mp4	0.0	345.3633818626404	0.09989213943481445
77	320.1232030391693	fix_pre	0		120	75.0	2.5	/experiments/AOT/AOT_stimuli/rescaled_final/0977_rv.mp4	0.0	345.4632740020752	1.0002939701080322
77	321.12349700927734	movie	1		246	75.0	2.5	/experiments/AOT/AOT_stimuli/rescaled_final/0977_rv.mp4	0.0	346.4635679721832	2.4997670650482178
77	321.5059640407562	pulse	1	t		75.0	2.5	/experiments/AOT/AOT_stimuli/rescaled_final/0977_rv.mp4	0.0	346.8460350036621	
77	323.1067500114441	pulse	1	t		75.0	2.5	/experiments/AOT/AOT_stimuli/rescaled_final/0977_rv.mp4	0.0	348.44682097435	
77	323.62326407432556	fix_post	2		12	75.0	2.5	/experiments/AOT/AOT_stimuli/rescaled_final/0977_rv.mp4	0.0	348.96333503723145	0.10007882118225098
78	323.7233428955078	fix_pre	0		119	76.0	2.5	/experiments/AOT/AOT_stimuli/rescaled_final/1367_rv.mp4	0.0	349.0634138584137	0.9915549755096436
78	324.70680809020996	pulse	0	t		76.0	2.5	/experiments/AOT/AOT_stimuli/rescaled_final/1367_rv.mp4	0.0	350.04687905311584	
78	324.71489787101746	movie	1		245	76.0	2.5	/experiments/AOT/AOT_stimuli/rescaled_final/1367_rv.mp4	0.0	350.05496883392334	2.5084362030029297
78	326.3070058822632	pulse	1	t		76.0	2.5	/experiments/AOT/AOT_stimuli/rescaled_final/1367_rv.mp4	0.0	351.64707684516907	
78	327.2233340740204	fix_post	2		12	76.0	2.5	/experiments/AOT/AOT_stimuli/rescaled_final/1367_rv.mp4	0.0	352.56340503692627	0.09991693496704102
79	327.3232510089874	fix_pre	0		120	77.0	2.5	blank	1.0	352.6633219718933	1.0000009536743164
79	327.906769990921	pulse	0	t		77.0	2.5	blank	1.0	353.2468409538269	
79	328.32325196266174	movie	1		300	77.0	2.5	blank	1.0	353.6633229255676	2.4999780654907227
79	329.5067660808563	pulse	1	t		77.0	2.5	blank	1.0	354.8468370437622	
79	330.82323002815247	fix_post	2		12	77.0	2.5	blank	1.0	356.16330099105835	0.0999598503112793
80	330.92318987846375	fix_pre	0		120	78.0	2.5	/experiments/AOT/AOT_stimuli/rescaled_final/0758_fw.mp4	0.0	356.26326084136963	1.0000100135803223
80	331.106782913208	pulse	0	t		78.0	2.5	/experiments/AOT/AOT_stimuli/rescaled_final/0758_fw.mp4	0.0	356.4468538761139	
80	331.92319989204407	movie	1		244	78.0	2.5	/experiments/AOT/AOT_stimuli/rescaled_final/0758_fw.mp4	0.0	357.26327085494995	2.4995501041412354
80	332.7067210674286	pulse	1	t		78.0	2.5	/experiments/AOT/AOT_stimuli/rescaled_final/0758_fw.mp4	0.0	358.0467920303345	
80	334.3029510974884	pulse	1	t		78.0	2.5	/experiments/AOT/AOT_stimuli/rescaled_final/0758_fw.mp4	0.0	359.6430220603943	
80	334.4227499961853	fix_post	2		12	78.0	2.5	/experiments/AOT/AOT_stimuli/rescaled_final/0758_fw.mp4	0.0	359.7628209590912	0.10051798820495605
81	334.52326798439026	fix_pre	0		120	79.0	2.5	/experiments/AOT/AOT_stimuli/rescaled_final/0237_fw.mp4	0.0	359.86333894729614	0.9999120235443115
81	335.52318000793457	movie	1		247	79.0	2.5	/experiments/AOT/AOT_stimuli/rescaled_final/0237_fw.mp4	0.0	360.86325097084045	2.4997739791870117
81	335.90615701675415	pulse	1	t		79.0	2.5	/experiments/AOT/AOT_stimuli/rescaled_final/0237_fw.mp4	0.0	361.24622797966003	
81	337.50638008117676	pulse	1	t		79.0	2.5	/experiments/AOT/AOT_stimuli/rescaled_final/0237_fw.mp4	0.0	362.84645104408264	
81	338.0229539871216	fix_post	2		12	79.0	2.5	/experiments/AOT/AOT_stimuli/rescaled_final/0237_fw.mp4	0.0	363.36302495002747	0.09990406036376953
82	338.12285804748535	fix_pre	0		119	80.0	2.5	/experiments/AOT/AOT_stimuli/rescaled_final/1127_fw.mp4	0.0	363.46292901039124	0.9918458461761475
82	339.10659098625183	pulse	0	t		80.0	2.5	/experiments/AOT/AOT_stimuli/rescaled_final/1127_fw.mp4	0.0	364.4466619491577	
82	339.1147038936615	movie	1		247	80.0	2.5	/experiments/AOT/AOT_stimuli/rescaled_final/1127_fw.mp4	0.0	364.4547748565674	2.5084831714630127
82	340.7068169116974	pulse	1	t		80.0	2.5	/experiments/AOT/AOT_stimuli/rescaled_final/1127_fw.mp4	0.0	366.04688787460327	
82	341.6231870651245	fix_post	2		12	80.0	2.5	/experiments/AOT/AOT_stimuli/rescaled_final/1127_fw.mp4	0.0	366.9632580280304	0.09999990463256836
83	341.7231869697571	fix_pre	0		120	81.0	2.5	/experiments/AOT/AOT_stimuli/rescaled_final/2000_rv.mp4	0.0	367.06325793266296	0.99953293800354
83	342.3067259788513	pulse	0	t		81.0	2.5	/experiments/AOT/AOT_stimuli/rescaled_final/2000_rv.mp4	0.0	367.6467969417572	
83	342.7227199077606	movie	1		245	81.0	2.5	/experiments/AOT/AOT_stimuli/rescaled_final/2000_rv.mp4	0.0	368.0627908706665	2.500455141067505
83	343.90672492980957	pulse	1	t		81.0	2.5	/experiments/AOT/AOT_stimuli/rescaled_final/2000_rv.mp4	0.0	369.24679589271545	
83	345.2231750488281	fix_post	2		12	81.0	2.5	/experiments/AOT/AOT_stimuli/rescaled_final/2000_rv.mp4	0.0	370.563246011734	0.0999138355255127
84	345.32308888435364	fix_pre	0		120	82.0	2.5	/experiments/AOT/AOT_stimuli/rescaled_final/0151_rv.mp4	0.0	370.6631598472595	1.000110149383545
84	345.50658988952637	pulse	0	t		82.0	2.5	/experiments/AOT/AOT_stimuli/rescaled_final/0151_rv.mp4	0.0	370.84666085243225	
84	346.3231990337372	movie	1		244	82.0	2.5	/experiments/AOT/AOT_stimuli/rescaled_final/0151_rv.mp4	0.0	371.66326999664307	2.4998929500579834
84	347.1065299510956	pulse	1	t		82.0	2.5	/experiments/AOT/AOT_stimuli/rescaled_final/0151_rv.mp4	0.0	372.44660091400146	
84	348.70498609542847	pulse	1	t		82.0	2.5	/experiments/AOT/AOT_stimuli/rescaled_final/0151_rv.mp4	0.0	374.04505705833435	
84	348.82309198379517	fix_post	2		12	82.0	2.5	/experiments/AOT/AOT_stimuli/rescaled_final/0151_rv.mp4	0.0	374.16316294670105	0.10000491142272949
85	348.9230968952179	fix_pre	0		120	83.0	2.5	blank	1.0	374.2631678581238	1.000025987625122
85	349.923122882843	movie	1		300	83.0	2.5	blank	1.0	375.2631938457489	2.5000340938568115
85	350.30665493011475	pulse	1	t		83.0	2.5	blank	1.0	375.64672589302063	
85	351.9066460132599	pulse	1	t		83.0	2.5	blank	1.0	377.24671697616577	
85	352.42315697669983	fix_post	2		12	83.0	2.5	blank	1.0	377.7632279396057	0.099945068359375
87	352.5231020450592	stim	0		1716					377.8631730079651	14.300091981887817
87	353.50657987594604	pulse	0	t						378.84665083885193	
87	355.10661697387695	pulse	0	t						380.44668793678284	
87	356.70664405822754	pulse	0	t						382.0467150211334	
87	358.3066520690918	pulse	0	t						383.6467230319977	
87	359.90655303001404	pulse	0	t						385.2466239929199	
87	361.506520986557	pulse	0	t						386.8465919494629	
87	363.1065139770508	pulse	0	t						388.44658493995667	
87	364.70653009414673	pulse	0	t						390.0466010570526	
87	366.30655694007874	pulse	0	t						391.6466279029846	
