trial_nr	onset	event_type	phase	response	nr_frames	movie_index	movie_duration	movie_file	blank	onset_abs	duration
0	0.1582329273223877	stim	0		99					18.054654598236084	0.82499098777771
0	0.9751942157745361	response	0	space						18.871615886688232	
1	0.9832239151000977	stim	0		4666					18.879645586013794	38.897637605667114
1	39.87109351158142	pulse	0	t						57.76751518249512	
1	39.88086152076721	stim	1		1715					57.77728319168091	14.302063703536987
1	41.46465802192688	pulse	1	t						59.361079692840576	
1	43.06488823890686	pulse	1	t						60.96130990982056	
1	44.66504716873169	pulse	1	t						62.561468839645386	
1	46.26528453826904	pulse	1	t						64.16170620918274	
1	47.865819692611694	pulse	1	t						65.76224136352539	
1	49.46574425697327	pulse	1	t						67.36216592788696	
1	51.0660355091095	pulse	1	t						68.9624571800232	
1	52.66640758514404	pulse	1	t						70.56282925605774	
2	54.1829252243042	fix_pre	0		11	0.0	2.5	/experiments/Knapen_AOT/AOT_stimuli/rescaled_final/0391_rv.mp4	0.0	72.0793468952179	0.10842299461364746
2	54.26652383804321	pulse	0	t		0.0	2.5	/experiments/Knapen_AOT/AOT_stimuli/rescaled_final/0391_rv.mp4	0.0	72.16294550895691	
2	54.29134821891785	movie	1		287	0.0	2.5	/experiments/Knapen_AOT/AOT_stimuli/rescaled_final/0391_rv.mp4	0.0	72.18776988983154	2.4919519424438477
2	55.86533260345459	pulse	1	t		0.0	2.5	/experiments/Knapen_AOT/AOT_stimuli/rescaled_final/0391_rv.mp4	0.0	73.76175427436829	
2	56.783300161361694	fix_post	2		12	0.0	2.5	/experiments/Knapen_AOT/AOT_stimuli/rescaled_final/0391_rv.mp4	0.0	74.67972183227539	0.10004830360412598
3	56.88334846496582	fix_pre	0		120	1.0	2.5	/experiments/Knapen_AOT/AOT_stimuli/rescaled_final/1942_rv.mp4	0.0	74.77977013587952	1.0085363388061523
3	57.46703314781189	pulse	0	t		1.0	2.5	/experiments/Knapen_AOT/AOT_stimuli/rescaled_final/1942_rv.mp4	0.0	75.36345481872559	
3	57.89188480377197	movie	1		283	1.0	2.5	/experiments/Knapen_AOT/AOT_stimuli/rescaled_final/1942_rv.mp4	0.0	75.78830647468567	2.4920101165771484
3	59.065112829208374	pulse	1	t		1.0	2.5	/experiments/Knapen_AOT/AOT_stimuli/rescaled_final/1942_rv.mp4	0.0	76.96153450012207	
3	60.38389492034912	fix_post	2		12	1.0	2.5	/experiments/Knapen_AOT/AOT_stimuli/rescaled_final/1942_rv.mp4	0.0	78.28031659126282	0.10011696815490723
4	60.48401188850403	fix_pre	0		120	2.0	2.5	/experiments/Knapen_AOT/AOT_stimuli/rescaled_final/1830_fw.mp4	0.0	78.38043355941772	1.008368730545044
4	60.66757273674011	pulse	0	t		2.0	2.5	/experiments/Knapen_AOT/AOT_stimuli/rescaled_final/1830_fw.mp4	0.0	78.56399440765381	
4	61.49238061904907	movie	1		286	2.0	2.5	/experiments/Knapen_AOT/AOT_stimuli/rescaled_final/1830_fw.mp4	0.0	79.38880228996277	2.500368118286133
4	62.26567721366882	pulse	1	t		2.0	2.5	/experiments/Knapen_AOT/AOT_stimuli/rescaled_final/1830_fw.mp4	0.0	80.16209888458252	
4	63.86590385437012	pulse	1	t		2.0	2.5	/experiments/Knapen_AOT/AOT_stimuli/rescaled_final/1830_fw.mp4	0.0	81.76232552528381	
4	63.992748737335205	fix_post	2		11	2.0	2.5	/experiments/Knapen_AOT/AOT_stimuli/rescaled_final/1830_fw.mp4	0.0	81.8891704082489	0.09165716171264648
5	64.08440589904785	fix_pre	0		120	3.0	2.5	/experiments/Knapen_AOT/AOT_stimuli/rescaled_final/1787_fw.mp4	0.0	81.98082756996155	1.0084922313690186
5	65.09289813041687	movie	1		286	3.0	2.5	/experiments/Knapen_AOT/AOT_stimuli/rescaled_final/1787_fw.mp4	0.0	82.98931980133057	2.4921131134033203
5	65.46667551994324	pulse	1	t		3.0	2.5	/experiments/Knapen_AOT/AOT_stimuli/rescaled_final/1787_fw.mp4	0.0	83.36309719085693	
5	67.06609058380127	pulse	1	t		3.0	2.5	/experiments/Knapen_AOT/AOT_stimuli/rescaled_final/1787_fw.mp4	0.0	84.96251225471497	
5	67.58501124382019	fix_post	2		12	3.0	2.5	/experiments/Knapen_AOT/AOT_stimuli/rescaled_final/1787_fw.mp4	0.0	85.48143291473389	0.10001420974731445
6	67.6850254535675	fix_pre	0		119	4.0	2.5	/experiments/Knapen_AOT/AOT_stimuli/rescaled_final/1096_rv.mp4	0.0	85.5814471244812	1.0000851154327393
6	68.66862559318542	pulse	0	t		4.0	2.5	/experiments/Knapen_AOT/AOT_stimuli/rescaled_final/1096_rv.mp4	0.0	86.56504726409912	
6	68.68511056900024	movie	1		289	4.0	2.5	/experiments/Knapen_AOT/AOT_stimuli/rescaled_final/1096_rv.mp4	0.0	86.58153223991394	2.500368356704712
6	70.26712679862976	pulse	1	t		4.0	2.5	/experiments/Knapen_AOT/AOT_stimuli/rescaled_final/1096_rv.mp4	0.0	88.16354846954346	
6	71.18547892570496	fix_post	2		12	4.0	2.5	/experiments/Knapen_AOT/AOT_stimuli/rescaled_final/1096_rv.mp4	0.0	89.08190059661865	0.10002994537353516
7	71.28550887107849	fix_pre	0		120	5.0	2.5	/experiments/Knapen_AOT/AOT_stimuli/rescaled_final/0966_fw.mp4	0.0	89.18193054199219	1.008486032485962
7	71.8694097995758	pulse	0	t		5.0	2.5	/experiments/Knapen_AOT/AOT_stimuli/rescaled_final/0966_fw.mp4	0.0	89.7658314704895	
7	72.29399490356445	movie	1		289	5.0	2.5	/experiments/Knapen_AOT/AOT_stimuli/rescaled_final/0966_fw.mp4	0.0	90.19041657447815	2.4921109676361084
7	73.46763014793396	pulse	1	t		5.0	2.5	/experiments/Knapen_AOT/AOT_stimuli/rescaled_final/0966_fw.mp4	0.0	91.36405181884766	
7	74.78610587120056	fix_post	2		12	5.0	2.5	/experiments/Knapen_AOT/AOT_stimuli/rescaled_final/0966_fw.mp4	0.0	92.68252754211426	0.09994840621948242
8	74.88605427742004	fix_pre	0		120	6.0	2.5	blank	1.0	92.78247594833374	1.0001552104949951
8	75.0695321559906	pulse	0	t		6.0	2.5	blank	1.0	92.9659538269043	
8	75.88620948791504	movie	1		300	6.0	2.5	blank	1.0	93.78263115882874	2.5003464221954346
8	76.66984462738037	pulse	1	t		6.0	2.5	blank	1.0	94.56626629829407	
8	78.27001309394836	pulse	1	t		6.0	2.5	blank	1.0	96.16643476486206	
8	78.38655591011047	fix_post	2		12	6.0	2.5	blank	1.0	96.28297758102417	0.10001111030578613
9	78.48656702041626	fix_pre	0		120	7.0	2.5	/experiments/Knapen_AOT/AOT_stimuli/rescaled_final/1738_fw.mp4	0.0	96.38298869132996	1.0086157321929932
9	79.49518275260925	movie	1		289	7.0	2.5	/experiments/Knapen_AOT/AOT_stimuli/rescaled_final/1738_fw.mp4	0.0	97.39160442352295	2.491987705230713
9	79.86875915527344	pulse	1	t		7.0	2.5	/experiments/Knapen_AOT/AOT_stimuli/rescaled_final/1738_fw.mp4	0.0	97.76518082618713	
9	81.46871590614319	pulse	1	t		7.0	2.5	/experiments/Knapen_AOT/AOT_stimuli/rescaled_final/1738_fw.mp4	0.0	99.36513757705688	
9	81.98717045783997	fix_post	2		12	7.0	2.5	/experiments/Knapen_AOT/AOT_stimuli/rescaled_final/1738_fw.mp4	0.0	99.88359212875366	0.09999489784240723
10	82.08716535568237	fix_pre	0		119	8.0	2.5	/experiments/Knapen_AOT/AOT_stimuli/rescaled_final/1620_rv.mp4	0.0	99.98358702659607	1.0001177787780762
10	83.07083511352539	pulse	0	t		8.0	2.5	/experiments/Knapen_AOT/AOT_stimuli/rescaled_final/1620_rv.mp4	0.0	100.96725678443909	
10	83.08728313446045	movie	1		283	8.0	2.5	/experiments/Knapen_AOT/AOT_stimuli/rescaled_final/1620_rv.mp4	0.0	100.98370480537415	2.500347375869751
10	84.66936111450195	pulse	1	t		8.0	2.5	/experiments/Knapen_AOT/AOT_stimuli/rescaled_final/1620_rv.mp4	0.0	102.56578278541565	
10	85.5876305103302	fix_post	2		12	8.0	2.5	/experiments/Knapen_AOT/AOT_stimuli/rescaled_final/1620_rv.mp4	0.0	103.4840521812439	0.10004758834838867
11	85.68767809867859	fix_pre	0		120	9.0	2.5	/experiments/Knapen_AOT/AOT_stimuli/rescaled_final/1210_rv.mp4	0.0	103.58409976959229	1.0085840225219727
11	86.27134656906128	pulse	0	t		9.0	2.5	/experiments/Knapen_AOT/AOT_stimuli/rescaled_final/1210_rv.mp4	0.0	104.16776823997498	
11	86.69626212120056	movie	1		281	9.0	2.5	/experiments/Knapen_AOT/AOT_stimuli/rescaled_final/1210_rv.mp4	0.0	104.59268379211426	2.4919934272766113
11	87.8700430393219	pulse	1	t		9.0	2.5	/experiments/Knapen_AOT/AOT_stimuli/rescaled_final/1210_rv.mp4	0.0	105.7664647102356	
11	89.18825554847717	fix_post	2		12	9.0	2.5	/experiments/Knapen_AOT/AOT_stimuli/rescaled_final/1210_rv.mp4	0.0	107.08467721939087	0.09998869895935059
12	89.28824424743652	fix_pre	0		120	10.0	2.5	/experiments/Knapen_AOT/AOT_stimuli/rescaled_final/1370_fw.mp4	0.0	107.18466591835022	1.0084807872772217
12	89.46432614326477	pulse	0	t		10.0	2.5	/experiments/Knapen_AOT/AOT_stimuli/rescaled_final/1370_fw.mp4	0.0	107.36074781417847	
12	90.29672503471375	movie	1		291	10.0	2.5	/experiments/Knapen_AOT/AOT_stimuli/rescaled_final/1370_fw.mp4	0.0	108.19314670562744	2.4920036792755127
12	91.06400990486145	pulse	1	t		10.0	2.5	/experiments/Knapen_AOT/AOT_stimuli/rescaled_final/1370_fw.mp4	0.0	108.96043157577515	
12	92.66397428512573	pulse	1	t		10.0	2.5	/experiments/Knapen_AOT/AOT_stimuli/rescaled_final/1370_fw.mp4	0.0	110.56039595603943	
12	92.78872871398926	fix_post	2		12	10.0	2.5	/experiments/Knapen_AOT/AOT_stimuli/rescaled_final/1370_fw.mp4	0.0	110.68515038490295	0.1000068187713623
13	92.88873553276062	fix_pre	0		120	11.0	2.5	/experiments/Knapen_AOT/AOT_stimuli/rescaled_final/0904_fw.mp4	0.0	110.78515720367432	1.0085582733154297
13	93.89729380607605	movie	1		284	11.0	2.5	/experiments/Knapen_AOT/AOT_stimuli/rescaled_final/0904_fw.mp4	0.0	111.79371547698975	2.492077350616455
13	94.26440834999084	pulse	1	t		11.0	2.5	/experiments/Knapen_AOT/AOT_stimuli/rescaled_final/0904_fw.mp4	0.0	112.16083002090454	
13	95.86437606811523	pulse	1	t		11.0	2.5	/experiments/Knapen_AOT/AOT_stimuli/rescaled_final/0904_fw.mp4	0.0	113.76079773902893	
13	96.3893711566925	fix_post	2		12	11.0	2.5	/experiments/Knapen_AOT/AOT_stimuli/rescaled_final/0904_fw.mp4	0.0	114.2857928276062	0.0999605655670166
14	96.48933172225952	fix_pre	0		118	12.0	2.5	/experiments/Knapen_AOT/AOT_stimuli/rescaled_final/0646_fw.mp4	0.0	114.38575339317322	0.991769552230835
14	97.4646623134613	pulse	0	t		12.0	2.5	/experiments/Knapen_AOT/AOT_stimuli/rescaled_final/0646_fw.mp4	0.0	115.361083984375	
14	97.48110127449036	movie	1		287	12.0	2.5	/experiments/Knapen_AOT/AOT_stimuli/rescaled_final/0646_fw.mp4	0.0	115.37752294540405	2.5003716945648193
14	99.06451153755188	pulse	1	t		12.0	2.5	/experiments/Knapen_AOT/AOT_stimuli/rescaled_final/0646_fw.mp4	0.0	116.96093320846558	
14	99.98147296905518	fix_post	2		12	12.0	2.5	/experiments/Knapen_AOT/AOT_stimuli/rescaled_final/0646_fw.mp4	0.0	117.87789463996887	0.10001635551452637
15	100.0814893245697	fix_pre	0		120	13.0	2.5	/experiments/Knapen_AOT/AOT_stimuli/rescaled_final/0527_rv.mp4	0.0	117.9779109954834	1.008495569229126
15	100.66512036323547	pulse	0	t		13.0	2.5	/experiments/Knapen_AOT/AOT_stimuli/rescaled_final/0527_rv.mp4	0.0	118.56154203414917	
15	101.08998489379883	movie	1		286	13.0	2.5	/experiments/Knapen_AOT/AOT_stimuli/rescaled_final/0527_rv.mp4	0.0	118.98640656471252	2.492018222808838
15	102.26539754867554	pulse	1	t		13.0	2.5	/experiments/Knapen_AOT/AOT_stimuli/rescaled_final/0527_rv.mp4	0.0	120.16181921958923	
15	103.58200311660767	fix_post	2		12	13.0	2.5	/experiments/Knapen_AOT/AOT_stimuli/rescaled_final/0527_rv.mp4	0.0	121.47842478752136	0.1001424789428711
16	103.68214559555054	fix_pre	0		120	14.0	2.5	blank	1.0	121.57856726646423	1.0000419616699219
16	103.86563396453857	pulse	0	t		14.0	2.5	blank	1.0	121.76205563545227	
16	104.68218755722046	movie	1		300	14.0	2.5	blank	1.0	122.57860922813416	2.5003700256347656
16	105.46593165397644	pulse	1	t		14.0	2.5	blank	1.0	123.36235332489014	
16	107.06601977348328	pulse	1	t		14.0	2.5	blank	1.0	124.96244144439697	
16	107.18255758285522	fix_post	2		12	14.0	2.5	blank	1.0	125.07897925376892	0.10003352165222168
17	107.28259110450745	fix_pre	0		120	15.0	2.5	/experiments/Knapen_AOT/AOT_stimuli/rescaled_final/0995_rv.mp4	0.0	125.17901277542114	1.0084705352783203
17	108.29106163978577	movie	1		289	15.0	2.5	/experiments/Knapen_AOT/AOT_stimuli/rescaled_final/0995_rv.mp4	0.0	126.18748331069946	2.4920296669006348
17	108.66440558433533	pulse	1	t		15.0	2.5	/experiments/Knapen_AOT/AOT_stimuli/rescaled_final/0995_rv.mp4	0.0	126.56082725524902	
17	110.26420474052429	pulse	1	t		15.0	2.5	/experiments/Knapen_AOT/AOT_stimuli/rescaled_final/0995_rv.mp4	0.0	128.160626411438	
17	110.7830913066864	fix_post	2		12	15.0	2.5	/experiments/Knapen_AOT/AOT_stimuli/rescaled_final/0995_rv.mp4	0.0	128.6795129776001	0.10002589225769043
18	110.88311719894409	fix_pre	0		119	16.0	2.5	/experiments/Knapen_AOT/AOT_stimuli/rescaled_final/0272_fw.mp4	0.0	128.7795388698578	1.0002110004425049
18	111.86683392524719	pulse	0	t		16.0	2.5	/experiments/Knapen_AOT/AOT_stimuli/rescaled_final/0272_fw.mp4	0.0	129.7632555961609	
18	111.8833281993866	movie	1		286	16.0	2.5	/experiments/Knapen_AOT/AOT_stimuli/rescaled_final/0272_fw.mp4	0.0	129.7797498703003	2.5003578662872314
18	113.46560335159302	pulse	1	t		16.0	2.5	/experiments/Knapen_AOT/AOT_stimuli/rescaled_final/0272_fw.mp4	0.0	131.3620250225067	
18	114.38368606567383	fix_post	2		12	16.0	2.5	/experiments/Knapen_AOT/AOT_stimuli/rescaled_final/0272_fw.mp4	0.0	132.28010773658752	0.1000063419342041
19	114.48369240760803	fix_pre	0		120	17.0	2.5	/experiments/Knapen_AOT/AOT_stimuli/rescaled_final/1410_rv.mp4	0.0	132.38011407852173	1.008521556854248
19	115.0672881603241	pulse	0	t		17.0	2.5	/experiments/Knapen_AOT/AOT_stimuli/rescaled_final/1410_rv.mp4	0.0	132.9637098312378	
19	115.49221396446228	movie	1		291	17.0	2.5	/experiments/Knapen_AOT/AOT_stimuli/rescaled_final/1410_rv.mp4	0.0	133.38863563537598	2.4919686317443848
19	116.66551351547241	pulse	1	t		17.0	2.5	/experiments/Knapen_AOT/AOT_stimuli/rescaled_final/1410_rv.mp4	0.0	134.5619351863861	
19	117.98418259620667	fix_post	2		12	17.0	2.5	/experiments/Knapen_AOT/AOT_stimuli/rescaled_final/1410_rv.mp4	0.0	135.88060426712036	0.10001945495605469
20	118.08420205116272	fix_pre	0		120	18.0	2.5	/experiments/Knapen_AOT/AOT_stimuli/rescaled_final/0167_rv.mp4	0.0	135.98062372207642	1.0084991455078125
20	118.26782131195068	pulse	0	t		18.0	2.5	/experiments/Knapen_AOT/AOT_stimuli/rescaled_final/0167_rv.mp4	0.0	136.16424298286438	
20	119.09270119667053	movie	1		268	18.0	2.5	/experiments/Knapen_AOT/AOT_stimuli/rescaled_final/0167_rv.mp4	0.0	136.98912286758423	2.492013454437256
20	119.86584782600403	pulse	1	t		18.0	2.5	/experiments/Knapen_AOT/AOT_stimuli/rescaled_final/0167_rv.mp4	0.0	137.76226949691772	
20	121.46607875823975	pulse	1	t		18.0	2.5	/experiments/Knapen_AOT/AOT_stimuli/rescaled_final/0167_rv.mp4	0.0	139.36250042915344	
20	121.58471465110779	fix_post	2		12	18.0	2.5	/experiments/Knapen_AOT/AOT_stimuli/rescaled_final/0167_rv.mp4	0.0	139.48113632202148	0.10001850128173828
21	121.68473315238953	fix_pre	0		120	19.0	2.5	/experiments/Knapen_AOT/AOT_stimuli/rescaled_final/1717_fw.mp4	0.0	139.58115482330322	1.0085093975067139
21	122.69324254989624	movie	1		279	19.0	2.5	/experiments/Knapen_AOT/AOT_stimuli/rescaled_final/1717_fw.mp4	0.0	140.58966422080994	2.4920217990875244
21	123.06652641296387	pulse	1	t		19.0	2.5	/experiments/Knapen_AOT/AOT_stimuli/rescaled_final/1717_fw.mp4	0.0	140.96294808387756	
21	124.66932392120361	pulse	1	t		19.0	2.5	/experiments/Knapen_AOT/AOT_stimuli/rescaled_final/1717_fw.mp4	0.0	142.5657455921173	
21	125.18526434898376	fix_post	2		12	19.0	2.5	/experiments/Knapen_AOT/AOT_stimuli/rescaled_final/1717_fw.mp4	0.0	143.08168601989746	0.1000514030456543
22	125.28531575202942	fix_pre	0		119	20.0	2.5	blank	1.0	143.18173742294312	0.9917631149291992
22	126.26896739006042	pulse	0	t		20.0	2.5	blank	1.0	144.16538906097412	
22	126.27707886695862	movie	1		301	20.0	2.5	blank	1.0	144.17350053787231	2.5087194442749023
22	127.8691885471344	pulse	1	t		20.0	2.5	blank	1.0	145.7656102180481	
22	128.78579831123352	fix_post	2		12	20.0	2.5	blank	1.0	146.68221998214722	0.10000252723693848
23	128.88580083847046	fix_pre	0		120	21.0	2.5	/experiments/Knapen_AOT/AOT_stimuli/rescaled_final/1077_rv.mp4	0.0	146.78222250938416	1.0085299015045166
23	129.4694790840149	pulse	0	t		21.0	2.5	/experiments/Knapen_AOT/AOT_stimuli/rescaled_final/1077_rv.mp4	0.0	147.3659007549286	
23	129.89433073997498	movie	1		281	21.0	2.5	/experiments/Knapen_AOT/AOT_stimuli/rescaled_final/1077_rv.mp4	0.0	147.79075241088867	2.492018938064575
23	131.06824469566345	pulse	1	t		21.0	2.5	/experiments/Knapen_AOT/AOT_stimuli/rescaled_final/1077_rv.mp4	0.0	148.96466636657715	
23	132.38634967803955	fix_post	2		12	21.0	2.5	/experiments/Knapen_AOT/AOT_stimuli/rescaled_final/1077_rv.mp4	0.0	150.28277134895325	0.10001587867736816
24	132.48636555671692	fix_pre	0		120	22.0	2.5	/experiments/Knapen_AOT/AOT_stimuli/rescaled_final/0995_fw.mp4	0.0	150.38278722763062	1.0084803104400635
24	132.67000269889832	pulse	0	t		22.0	2.5	/experiments/Knapen_AOT/AOT_stimuli/rescaled_final/0995_fw.mp4	0.0	150.566424369812	
24	133.49484586715698	movie	1		275	22.0	2.5	/experiments/Knapen_AOT/AOT_stimuli/rescaled_final/0995_fw.mp4	0.0	151.39126753807068	2.4920198917388916
24	134.26840686798096	pulse	1	t		22.0	2.5	/experiments/Knapen_AOT/AOT_stimuli/rescaled_final/0995_fw.mp4	0.0	152.16482853889465	
24	135.86843585968018	pulse	1	t		22.0	2.5	/experiments/Knapen_AOT/AOT_stimuli/rescaled_final/0995_fw.mp4	0.0	153.76485753059387	
24	135.98686575889587	fix_post	2		12	22.0	2.5	/experiments/Knapen_AOT/AOT_stimuli/rescaled_final/0995_fw.mp4	0.0	153.88328742980957	0.10012626647949219
25	136.08699202537537	fix_pre	0		120	23.0	2.5	/experiments/Knapen_AOT/AOT_stimuli/rescaled_final/1459_fw.mp4	0.0	153.98341369628906	1.0084455013275146
25	137.09543752670288	movie	1		293	23.0	2.5	/experiments/Knapen_AOT/AOT_stimuli/rescaled_final/1459_fw.mp4	0.0	154.99185919761658	2.492074728012085
25	137.4687864780426	pulse	1	t		23.0	2.5	/experiments/Knapen_AOT/AOT_stimuli/rescaled_final/1459_fw.mp4	0.0	155.3652081489563	
25	139.0690574645996	pulse	1	t		23.0	2.5	/experiments/Knapen_AOT/AOT_stimuli/rescaled_final/1459_fw.mp4	0.0	156.9654791355133	
25	139.58751225471497	fix_post	2		12	23.0	2.5	/experiments/Knapen_AOT/AOT_stimuli/rescaled_final/1459_fw.mp4	0.0	157.48393392562866	0.09994292259216309
26	139.68745517730713	fix_pre	0		119	24.0	2.5	/experiments/Knapen_AOT/AOT_stimuli/rescaled_final/1620_rv.mp4	0.0	157.58387684822083	1.0001270771026611
26	140.67112946510315	pulse	0	t		24.0	2.5	/experiments/Knapen_AOT/AOT_stimuli/rescaled_final/1620_rv.mp4	0.0	158.56755113601685	
26	140.6875822544098	movie	1		279	24.0	2.5	/experiments/Knapen_AOT/AOT_stimuli/rescaled_final/1620_rv.mp4	0.0	158.5840039253235	2.500368595123291
26	142.2696533203125	pulse	1	t		24.0	2.5	/experiments/Knapen_AOT/AOT_stimuli/rescaled_final/1620_rv.mp4	0.0	160.1660749912262	
26	143.18795084953308	fix_post	2		12	24.0	2.5	/experiments/Knapen_AOT/AOT_stimuli/rescaled_final/1620_rv.mp4	0.0	161.08437252044678	0.10003161430358887
27	143.28798246383667	fix_pre	0		120	25.0	2.5	/experiments/Knapen_AOT/AOT_stimuli/rescaled_final/0197_fw.mp4	0.0	161.18440413475037	1.0085008144378662
27	143.87177991867065	pulse	0	t		25.0	2.5	/experiments/Knapen_AOT/AOT_stimuli/rescaled_final/0197_fw.mp4	0.0	161.76820158958435	
27	144.29648327827454	movie	1		276	25.0	2.5	/experiments/Knapen_AOT/AOT_stimuli/rescaled_final/0197_fw.mp4	0.0	162.19290494918823	2.4920058250427246
27	145.470050573349	pulse	1	t		25.0	2.5	/experiments/Knapen_AOT/AOT_stimuli/rescaled_final/0197_fw.mp4	0.0	163.3664722442627	
27	146.78848910331726	fix_post	2		12	25.0	2.5	/experiments/Knapen_AOT/AOT_stimuli/rescaled_final/0197_fw.mp4	0.0	164.68491077423096	0.10000848770141602
28	146.88849759101868	fix_pre	0		120	26.0	2.5	/experiments/Knapen_AOT/AOT_stimuli/rescaled_final/0073_rv.mp4	0.0	164.78491926193237	1.008565902709961
28	147.06493544578552	pulse	0	t		26.0	2.5	/experiments/Knapen_AOT/AOT_stimuli/rescaled_final/0073_rv.mp4	0.0	164.96135711669922	
28	147.89706349372864	movie	1		282	26.0	2.5	/experiments/Knapen_AOT/AOT_stimuli/rescaled_final/0073_rv.mp4	0.0	165.79348516464233	2.4919726848602295
28	148.66445231437683	pulse	1	t		26.0	2.5	/experiments/Knapen_AOT/AOT_stimuli/rescaled_final/0073_rv.mp4	0.0	166.56087398529053	
28	150.26452660560608	pulse	1	t		26.0	2.5	/experiments/Knapen_AOT/AOT_stimuli/rescaled_final/0073_rv.mp4	0.0	168.16094827651978	
28	150.38903617858887	fix_post	2		12	26.0	2.5	/experiments/Knapen_AOT/AOT_stimuli/rescaled_final/0073_rv.mp4	0.0	168.28545784950256	0.1000068187713623
29	150.48904299736023	fix_pre	0		120	27.0	2.5	blank	1.0	168.38546466827393	1.0002341270446777
29	151.4892771244049	movie	1		300	27.0	2.5	blank	1.0	169.3856987953186	2.500293493270874
29	151.86449241638184	pulse	1	t		27.0	2.5	blank	1.0	169.76091408729553	
29	153.46469926834106	pulse	1	t		27.0	2.5	blank	1.0	171.36112093925476	
29	153.98957061767578	fix_post	2		12	27.0	2.5	blank	1.0	171.88599228858948	0.10002517700195312
30	154.08959579467773	fix_pre	0		118	28.0	2.5	/experiments/Knapen_AOT/AOT_stimuli/rescaled_final/1612_fw.mp4	0.0	171.98601746559143	0.9918298721313477
30	155.06496667861938	pulse	0	t		28.0	2.5	/experiments/Knapen_AOT/AOT_stimuli/rescaled_final/1612_fw.mp4	0.0	172.96138834953308	
30	155.08142566680908	movie	1		283	28.0	2.5	/experiments/Knapen_AOT/AOT_stimuli/rescaled_final/1612_fw.mp4	0.0	172.97784733772278	2.5004963874816895
30	156.66526532173157	pulse	1	t		28.0	2.5	/experiments/Knapen_AOT/AOT_stimuli/rescaled_final/1612_fw.mp4	0.0	174.56168699264526	
30	157.58192205429077	fix_post	2		12	28.0	2.5	/experiments/Knapen_AOT/AOT_stimuli/rescaled_final/1612_fw.mp4	0.0	175.47834372520447	0.09988117218017578
31	157.68180322647095	fix_pre	0		120	29.0	2.5	/experiments/Knapen_AOT/AOT_stimuli/rescaled_final/1301_rv.mp4	0.0	175.57822489738464	1.0084946155548096
31	158.26550817489624	pulse	0	t		29.0	2.5	/experiments/Knapen_AOT/AOT_stimuli/rescaled_final/1301_rv.mp4	0.0	176.16192984580994	
31	158.69029784202576	movie	1		285	29.0	2.5	/experiments/Knapen_AOT/AOT_stimuli/rescaled_final/1301_rv.mp4	0.0	176.58671951293945	2.4920692443847656
31	159.86566925048828	pulse	1	t		29.0	2.5	/experiments/Knapen_AOT/AOT_stimuli/rescaled_final/1301_rv.mp4	0.0	177.76209092140198	
31	161.18236708641052	fix_post	2		12	29.0	2.5	/experiments/Knapen_AOT/AOT_stimuli/rescaled_final/1301_rv.mp4	0.0	179.07878875732422	0.09997844696044922
32	161.28234553337097	fix_pre	0		120	30.0	2.5	/experiments/Knapen_AOT/AOT_stimuli/rescaled_final/1525_rv.mp4	0.0	179.17876720428467	1.0085184574127197
32	161.46598529815674	pulse	0	t		30.0	2.5	/experiments/Knapen_AOT/AOT_stimuli/rescaled_final/1525_rv.mp4	0.0	179.36240696907043	
32	162.2908639907837	movie	1		291	30.0	2.5	/experiments/Knapen_AOT/AOT_stimuli/rescaled_final/1525_rv.mp4	0.0	180.1872856616974	2.4920108318328857
32	163.06612849235535	pulse	1	t		30.0	2.5	/experiments/Knapen_AOT/AOT_stimuli/rescaled_final/1525_rv.mp4	0.0	180.96255016326904	
32	164.6645109653473	pulse	1	t		30.0	2.5	/experiments/Knapen_AOT/AOT_stimuli/rescaled_final/1525_rv.mp4	0.0	182.560932636261	
32	164.78287482261658	fix_post	2		12	30.0	2.5	/experiments/Knapen_AOT/AOT_stimuli/rescaled_final/1525_rv.mp4	0.0	182.67929649353027	0.10000371932983398
33	164.8828785419464	fix_pre	0		120	31.0	2.5	/experiments/Knapen_AOT/AOT_stimuli/rescaled_final/1798_fw.mp4	0.0	182.7793002128601	1.008549451828003
33	165.8914279937744	movie	1		269	31.0	2.5	/experiments/Knapen_AOT/AOT_stimuli/rescaled_final/1798_fw.mp4	0.0	183.7878496646881	2.4919638633728027
33	166.26490020751953	pulse	1	t		31.0	2.5	/experiments/Knapen_AOT/AOT_stimuli/rescaled_final/1798_fw.mp4	0.0	184.16132187843323	
33	167.86575365066528	pulse	1	t		31.0	2.5	/experiments/Knapen_AOT/AOT_stimuli/rescaled_final/1798_fw.mp4	0.0	185.76217532157898	
33	168.38339185714722	fix_post	2		12	31.0	2.5	/experiments/Knapen_AOT/AOT_stimuli/rescaled_final/1798_fw.mp4	0.0	186.2798135280609	0.1000361442565918
34	168.4834280014038	fix_pre	0		119	32.0	2.5	/experiments/Knapen_AOT/AOT_stimuli/rescaled_final/1059_fw.mp4	0.0	186.3798496723175	1.0001494884490967
34	169.4672179222107	pulse	0	t		32.0	2.5	/experiments/Knapen_AOT/AOT_stimuli/rescaled_final/1059_fw.mp4	0.0	187.3636395931244	
34	169.4835774898529	movie	1		279	32.0	2.5	/experiments/Knapen_AOT/AOT_stimuli/rescaled_final/1059_fw.mp4	0.0	187.3799991607666	2.500383138656616
34	171.06553673744202	pulse	1	t		32.0	2.5	/experiments/Knapen_AOT/AOT_stimuli/rescaled_final/1059_fw.mp4	0.0	188.9619584083557	
34	171.98396062850952	fix_post	2		12	32.0	2.5	/experiments/Knapen_AOT/AOT_stimuli/rescaled_final/1059_fw.mp4	0.0	189.88038229942322	0.1000056266784668
35	172.083966255188	fix_pre	0		120	33.0	2.5	blank	1.0	189.98038792610168	1.0001301765441895
35	172.66786336898804	pulse	0	t		33.0	2.5	blank	1.0	190.56428503990173	
35	173.08409643173218	movie	1		300	33.0	2.5	blank	1.0	190.98051810264587	2.5004498958587646
35	174.26788973808289	pulse	1	t		33.0	2.5	blank	1.0	192.16431140899658	
35	175.58454632759094	fix_post	2		12	33.0	2.5	blank	1.0	193.48096799850464	0.0999596118927002
36	175.68450593948364	fix_pre	0		120	34.0	2.5	/experiments/Knapen_AOT/AOT_stimuli/rescaled_final/0212_fw.mp4	0.0	193.58092761039734	1.0085279941558838
36	175.86836004257202	pulse	0	t		34.0	2.5	/experiments/Knapen_AOT/AOT_stimuli/rescaled_final/0212_fw.mp4	0.0	193.76478171348572	
36	176.69303393363953	movie	1		284	34.0	2.5	/experiments/Knapen_AOT/AOT_stimuli/rescaled_final/0212_fw.mp4	0.0	194.58945560455322	2.492014169692993
36	177.4665036201477	pulse	1	t		34.0	2.5	/experiments/Knapen_AOT/AOT_stimuli/rescaled_final/0212_fw.mp4	0.0	195.3629252910614	
36	179.06670951843262	pulse	1	t		34.0	2.5	/experiments/Knapen_AOT/AOT_stimuli/rescaled_final/0212_fw.mp4	0.0	196.9631311893463	
36	179.18504810333252	fix_post	2		12	34.0	2.5	/experiments/Knapen_AOT/AOT_stimuli/rescaled_final/0212_fw.mp4	0.0	197.08146977424622	0.10000276565551758
37	179.28505086898804	fix_pre	0		120	35.0	2.5	/experiments/Knapen_AOT/AOT_stimuli/rescaled_final/0325_fw.mp4	0.0	197.18147253990173	1.008502721786499
37	180.29355359077454	movie	1		283	35.0	2.5	/experiments/Knapen_AOT/AOT_stimuli/rescaled_final/0325_fw.mp4	0.0	198.18997526168823	2.4920103549957275
37	180.66710543632507	pulse	1	t		35.0	2.5	/experiments/Knapen_AOT/AOT_stimuli/rescaled_final/0325_fw.mp4	0.0	198.56352710723877	
37	182.26888370513916	pulse	1	t		35.0	2.5	/experiments/Knapen_AOT/AOT_stimuli/rescaled_final/0325_fw.mp4	0.0	200.16530537605286	
37	182.78556394577026	fix_post	2		12	35.0	2.5	/experiments/Knapen_AOT/AOT_stimuli/rescaled_final/0325_fw.mp4	0.0	200.68198561668396	0.10003328323364258
38	182.8855972290039	fix_pre	0		119	36.0	2.5	/experiments/Knapen_AOT/AOT_stimuli/rescaled_final/0218_rv.mp4	0.0	200.7820188999176	1.0001509189605713
38	183.8693540096283	pulse	0	t		36.0	2.5	/experiments/Knapen_AOT/AOT_stimuli/rescaled_final/0218_rv.mp4	0.0	201.765775680542	
38	183.88574814796448	movie	1		272	36.0	2.5	/experiments/Knapen_AOT/AOT_stimuli/rescaled_final/0218_rv.mp4	0.0	201.78216981887817	2.500375509262085
38	185.4692530632019	pulse	1	t		36.0	2.5	/experiments/Knapen_AOT/AOT_stimuli/rescaled_final/0218_rv.mp4	0.0	203.3656747341156	
38	186.38612365722656	fix_post	2		12	36.0	2.5	/experiments/Knapen_AOT/AOT_stimuli/rescaled_final/0218_rv.mp4	0.0	204.28254532814026	0.10005450248718262
39	186.48617815971375	fix_pre	0		120	37.0	2.5	/experiments/Knapen_AOT/AOT_stimuli/rescaled_final/2120_rv.mp4	0.0	204.38259983062744	1.008418083190918
39	187.06979060173035	pulse	0	t		37.0	2.5	/experiments/Knapen_AOT/AOT_stimuli/rescaled_final/2120_rv.mp4	0.0	204.96621227264404	
39	187.49459624290466	movie	1		287	37.0	2.5	/experiments/Knapen_AOT/AOT_stimuli/rescaled_final/2120_rv.mp4	0.0	205.39101791381836	2.492050886154175
39	188.66817545890808	pulse	1	t		37.0	2.5	/experiments/Knapen_AOT/AOT_stimuli/rescaled_final/2120_rv.mp4	0.0	206.56459712982178	
39	189.98664712905884	fix_post	2		12	37.0	2.5	/experiments/Knapen_AOT/AOT_stimuli/rescaled_final/2120_rv.mp4	0.0	207.88306879997253	0.10004639625549316
40	190.08669352531433	fix_pre	0		120	38.0	2.5	/experiments/Knapen_AOT/AOT_stimuli/rescaled_final/0652_rv.mp4	0.0	207.98311519622803	1.0085060596466064
40	190.27034664154053	pulse	0	t		38.0	2.5	/experiments/Knapen_AOT/AOT_stimuli/rescaled_final/0652_rv.mp4	0.0	208.16676831245422	
40	191.09519958496094	movie	1		283	38.0	2.5	/experiments/Knapen_AOT/AOT_stimuli/rescaled_final/0652_rv.mp4	0.0	208.99162125587463	2.492083787918091
40	191.86945152282715	pulse	1	t		38.0	2.5	/experiments/Knapen_AOT/AOT_stimuli/rescaled_final/0652_rv.mp4	0.0	209.76587319374084	
40	193.46860074996948	pulse	1	t		38.0	2.5	/experiments/Knapen_AOT/AOT_stimuli/rescaled_final/0652_rv.mp4	0.0	211.36502242088318	
40	193.58728337287903	fix_post	2		12	38.0	2.5	/experiments/Knapen_AOT/AOT_stimuli/rescaled_final/0652_rv.mp4	0.0	211.48370504379272	0.09993600845336914
41	193.6872193813324	fix_pre	0		120	39.0	2.5	/experiments/Knapen_AOT/AOT_stimuli/rescaled_final/0266_fw.mp4	0.0	211.5836410522461	1.0084943771362305
41	194.69571375846863	movie	1		269	39.0	2.5	/experiments/Knapen_AOT/AOT_stimuli/rescaled_final/0266_fw.mp4	0.0	212.59213542938232	2.492025375366211
41	195.0694580078125	pulse	1	t		39.0	2.5	/experiments/Knapen_AOT/AOT_stimuli/rescaled_final/0266_fw.mp4	0.0	212.9658796787262	
41	196.66943287849426	pulse	1	t		39.0	2.5	/experiments/Knapen_AOT/AOT_stimuli/rescaled_final/0266_fw.mp4	0.0	214.56585454940796	
41	197.18773913383484	fix_post	2		12	39.0	2.5	/experiments/Knapen_AOT/AOT_stimuli/rescaled_final/0266_fw.mp4	0.0	215.08416080474854	0.10001301765441895
42	197.28775215148926	fix_pre	0		119	40.0	2.5	blank	1.0	215.18417382240295	0.9918544292449951
42	198.27163577079773	pulse	0	t		40.0	2.5	blank	1.0	216.16805744171143	
42	198.27960658073425	movie	1		301	40.0	2.5	blank	1.0	216.17602825164795	2.5086920261383057
42	199.8718798160553	pulse	1	t		40.0	2.5	blank	1.0	217.768301486969	
42	200.78829860687256	fix_post	2		12	40.0	2.5	blank	1.0	218.68472027778625	0.10000157356262207
43	200.88830018043518	fix_pre	0		120	41.0	2.5	/experiments/Knapen_AOT/AOT_stimuli/rescaled_final/2028_fw.mp4	0.0	218.78472185134888	1.0085768699645996
43	201.47193813323975	pulse	0	t		41.0	2.5	/experiments/Knapen_AOT/AOT_stimuli/rescaled_final/2028_fw.mp4	0.0	219.36835980415344	
43	201.89687705039978	movie	1		280	41.0	2.5	/experiments/Knapen_AOT/AOT_stimuli/rescaled_final/2028_fw.mp4	0.0	219.79329872131348	2.49194073677063
43	203.07062935829163	pulse	1	t		41.0	2.5	/experiments/Knapen_AOT/AOT_stimuli/rescaled_final/2028_fw.mp4	0.0	220.96705102920532	
43	204.3888177871704	fix_post	2		12	41.0	2.5	/experiments/Knapen_AOT/AOT_stimuli/rescaled_final/2028_fw.mp4	0.0	222.2852394580841	0.10001873970031738
44	204.48883652687073	fix_pre	0		120	42.0	2.5	/experiments/Knapen_AOT/AOT_stimuli/rescaled_final/0218_rv.mp4	0.0	222.38525819778442	1.0084969997406006
44	204.66500639915466	pulse	0	t		42.0	2.5	/experiments/Knapen_AOT/AOT_stimuli/rescaled_final/0218_rv.mp4	0.0	222.56142807006836	
44	205.49733352661133	movie	1		282	42.0	2.5	/experiments/Knapen_AOT/AOT_stimuli/rescaled_final/0218_rv.mp4	0.0	223.39375519752502	2.4920406341552734
44	206.27071809768677	pulse	1	t		42.0	2.5	/experiments/Knapen_AOT/AOT_stimuli/rescaled_final/0218_rv.mp4	0.0	224.16713976860046	
44	207.86511635780334	pulse	1	t		42.0	2.5	/experiments/Knapen_AOT/AOT_stimuli/rescaled_final/0218_rv.mp4	0.0	225.76153802871704	
44	207.9893741607666	fix_post	2		12	42.0	2.5	/experiments/Knapen_AOT/AOT_stimuli/rescaled_final/0218_rv.mp4	0.0	225.8857958316803	0.10003328323364258
45	208.08940744400024	fix_pre	0		120	43.0	2.5	/experiments/Knapen_AOT/AOT_stimuli/rescaled_final/1722_rv.mp4	0.0	225.98582911491394	1.008561611175537
45	209.09796905517578	movie	1		284	43.0	2.5	/experiments/Knapen_AOT/AOT_stimuli/rescaled_final/1722_rv.mp4	0.0	226.99439072608948	2.4919333457946777
45	209.4650022983551	pulse	1	t		43.0	2.5	/experiments/Knapen_AOT/AOT_stimuli/rescaled_final/1722_rv.mp4	0.0	227.3614239692688	
45	211.06503415107727	pulse	1	t		43.0	2.5	/experiments/Knapen_AOT/AOT_stimuli/rescaled_final/1722_rv.mp4	0.0	228.96145582199097	
45	211.58990240097046	fix_post	2		12	43.0	2.5	/experiments/Knapen_AOT/AOT_stimuli/rescaled_final/1722_rv.mp4	0.0	229.48632407188416	0.1000204086303711
46	211.68992280960083	fix_pre	0		118	44.0	2.5	/experiments/Knapen_AOT/AOT_stimuli/rescaled_final/2131_fw.mp4	0.0	229.58634448051453	0.9919536113739014
46	212.66561436653137	pulse	0	t		44.0	2.5	/experiments/Knapen_AOT/AOT_stimuli/rescaled_final/2131_fw.mp4	0.0	230.56203603744507	
46	212.68187642097473	movie	1		278	44.0	2.5	/experiments/Knapen_AOT/AOT_stimuli/rescaled_final/2131_fw.mp4	0.0	230.57829809188843	2.5003561973571777
46	214.26565790176392	pulse	1	t		44.0	2.5	/experiments/Knapen_AOT/AOT_stimuli/rescaled_final/2131_fw.mp4	0.0	232.1620795726776	
46	215.1822326183319	fix_post	2		12	44.0	2.5	/experiments/Knapen_AOT/AOT_stimuli/rescaled_final/2131_fw.mp4	0.0	233.0786542892456	0.10000872611999512
47	215.2822413444519	fix_pre	0		120	45.0	2.5	/experiments/Knapen_AOT/AOT_stimuli/rescaled_final/2003_rv.mp4	0.0	233.1786630153656	1.008409023284912
47	215.865980386734	pulse	0	t		45.0	2.5	/experiments/Knapen_AOT/AOT_stimuli/rescaled_final/2003_rv.mp4	0.0	233.7624020576477	
47	216.29065036773682	movie	1		259	45.0	2.5	/experiments/Knapen_AOT/AOT_stimuli/rescaled_final/2003_rv.mp4	0.0	234.1870720386505	2.492002010345459
47	217.4660143852234	pulse	1	t		45.0	2.5	/experiments/Knapen_AOT/AOT_stimuli/rescaled_final/2003_rv.mp4	0.0	235.36243605613708	
47	218.78265237808228	fix_post	2		12	45.0	2.5	/experiments/Knapen_AOT/AOT_stimuli/rescaled_final/2003_rv.mp4	0.0	236.67907404899597	0.1000204086303711
48	218.88267278671265	fix_pre	0		120	46.0	2.5	/experiments/Knapen_AOT/AOT_stimuli/rescaled_final/0933_fw.mp4	0.0	236.77909445762634	1.008488655090332
48	219.06628847122192	pulse	0	t		46.0	2.5	/experiments/Knapen_AOT/AOT_stimuli/rescaled_final/0933_fw.mp4	0.0	236.96271014213562	
48	219.89116144180298	movie	1		283	46.0	2.5	/experiments/Knapen_AOT/AOT_stimuli/rescaled_final/0933_fw.mp4	0.0	237.78758311271667	2.492051124572754
48	220.66644263267517	pulse	1	t		46.0	2.5	/experiments/Knapen_AOT/AOT_stimuli/rescaled_final/0933_fw.mp4	0.0	238.56286430358887	
48	222.26637411117554	pulse	1	t		46.0	2.5	/experiments/Knapen_AOT/AOT_stimuli/rescaled_final/0933_fw.mp4	0.0	240.16279578208923	
48	222.38321256637573	fix_post	2		12	46.0	2.5	/experiments/Knapen_AOT/AOT_stimuli/rescaled_final/0933_fw.mp4	0.0	240.27963423728943	0.1000509262084961
49	222.48326349258423	fix_pre	0		120	47.0	2.5	blank	1.0	240.37968516349792	1.0000898838043213
49	223.48335337638855	movie	1		300	47.0	2.5	blank	1.0	241.37977504730225	2.500387668609619
49	223.86697626113892	pulse	1	t		47.0	2.5	blank	1.0	241.7633979320526	
49	225.46723008155823	pulse	1	t		47.0	2.5	blank	1.0	243.36365175247192	
49	225.98374104499817	fix_post	2		12	47.0	2.5	blank	1.0	243.88016271591187	0.10007214546203613
50	226.0838131904602	fix_pre	0		119	48.0	2.5	/experiments/Knapen_AOT/AOT_stimuli/rescaled_final/0505_rv.mp4	0.0	243.9802348613739	1.000105619430542
50	227.06804084777832	pulse	0	t		48.0	2.5	/experiments/Knapen_AOT/AOT_stimuli/rescaled_final/0505_rv.mp4	0.0	244.96446251869202	
50	227.08391880989075	movie	1		290	48.0	2.5	/experiments/Knapen_AOT/AOT_stimuli/rescaled_final/0505_rv.mp4	0.0	244.98034048080444	2.500361919403076
50	228.66795992851257	pulse	1	t		48.0	2.5	/experiments/Knapen_AOT/AOT_stimuli/rescaled_final/0505_rv.mp4	0.0	246.56438159942627	
50	229.58428072929382	fix_post	2		12	48.0	2.5	/experiments/Knapen_AOT/AOT_stimuli/rescaled_final/0505_rv.mp4	0.0	247.48070240020752	0.10000729560852051
51	229.68428802490234	fix_pre	0		120	49.0	2.5	/experiments/Knapen_AOT/AOT_stimuli/rescaled_final/0678_rv.mp4	0.0	247.58070969581604	1.0084888935089111
51	230.26793360710144	pulse	0	t		49.0	2.5	/experiments/Knapen_AOT/AOT_stimuli/rescaled_final/0678_rv.mp4	0.0	248.16435527801514	
51	230.69277691841125	movie	1		272	49.0	2.5	/experiments/Knapen_AOT/AOT_stimuli/rescaled_final/0678_rv.mp4	0.0	248.58919858932495	2.4920384883880615
51	231.86773777008057	pulse	1	t		49.0	2.5	/experiments/Knapen_AOT/AOT_stimuli/rescaled_final/0678_rv.mp4	0.0	249.76415944099426	
51	233.18481540679932	fix_post	2		12	49.0	2.5	/experiments/Knapen_AOT/AOT_stimuli/rescaled_final/0678_rv.mp4	0.0	251.081237077713	0.10001373291015625
52	233.28482913970947	fix_pre	0		120	50.0	2.5	/experiments/Knapen_AOT/AOT_stimuli/rescaled_final/2163_fw.mp4	0.0	251.18125081062317	1.0085415840148926
52	233.46836471557617	pulse	0	t		50.0	2.5	/experiments/Knapen_AOT/AOT_stimuli/rescaled_final/2163_fw.mp4	0.0	251.36478638648987	
52	234.29337072372437	movie	1		288	50.0	2.5	/experiments/Knapen_AOT/AOT_stimuli/rescaled_final/2163_fw.mp4	0.0	252.18979239463806	2.4921092987060547
52	235.0678699016571	pulse	1	t		50.0	2.5	/experiments/Knapen_AOT/AOT_stimuli/rescaled_final/2163_fw.mp4	0.0	252.9642915725708	
52	236.66698050498962	pulse	1	t		50.0	2.5	/experiments/Knapen_AOT/AOT_stimuli/rescaled_final/2163_fw.mp4	0.0	254.56340217590332	
52	236.78548002243042	fix_post	2		11	50.0	2.5	/experiments/Knapen_AOT/AOT_stimuli/rescaled_final/2163_fw.mp4	0.0	254.68190169334412	0.09988760948181152
53	236.88536763191223	fix_pre	0		120	51.0	2.5	/experiments/Knapen_AOT/AOT_stimuli/rescaled_final/1904_fw.mp4	0.0	254.78178930282593	1.0085647106170654
53	237.8939323425293	movie	1		292	51.0	2.5	/experiments/Knapen_AOT/AOT_stimuli/rescaled_final/1904_fw.mp4	0.0	255.790354013443	2.4919636249542236
53	238.26765704154968	pulse	1	t		51.0	2.5	/experiments/Knapen_AOT/AOT_stimuli/rescaled_final/1904_fw.mp4	0.0	256.1640787124634	
53	239.86739826202393	pulse	1	t		51.0	2.5	/experiments/Knapen_AOT/AOT_stimuli/rescaled_final/1904_fw.mp4	0.0	257.7638199329376	
53	240.38589596748352	fix_post	2		12	51.0	2.5	/experiments/Knapen_AOT/AOT_stimuli/rescaled_final/1904_fw.mp4	0.0	258.2823176383972	0.10004782676696777
54	240.4859437942505	fix_pre	0		119	52.0	2.5	/experiments/Knapen_AOT/AOT_stimuli/rescaled_final/1161_rv.mp4	0.0	258.3823654651642	1.000293254852295
54	241.4696340560913	pulse	0	t		52.0	2.5	/experiments/Knapen_AOT/AOT_stimuli/rescaled_final/1161_rv.mp4	0.0	259.366055727005	
54	241.48623704910278	movie	1		282	52.0	2.5	/experiments/Knapen_AOT/AOT_stimuli/rescaled_final/1161_rv.mp4	0.0	259.3826587200165	2.5001988410949707
54	243.06846499443054	pulse	1	t		52.0	2.5	/experiments/Knapen_AOT/AOT_stimuli/rescaled_final/1161_rv.mp4	0.0	260.96488666534424	
54	243.98643589019775	fix_post	2		12	52.0	2.5	/experiments/Knapen_AOT/AOT_stimuli/rescaled_final/1161_rv.mp4	0.0	261.88285756111145	0.10001397132873535
55	244.0864498615265	fix_pre	0		120	53.0	2.5	/experiments/Knapen_AOT/AOT_stimuli/rescaled_final/1675_fw.mp4	0.0	261.9828715324402	1.0085079669952393
55	244.6700782775879	pulse	0	t		53.0	2.5	/experiments/Knapen_AOT/AOT_stimuli/rescaled_final/1675_fw.mp4	0.0	262.5664999485016	
55	245.09495782852173	movie	1		289	53.0	2.5	/experiments/Knapen_AOT/AOT_stimuli/rescaled_final/1675_fw.mp4	0.0	262.9913794994354	2.4921305179595947
55	246.2684724330902	pulse	1	t		53.0	2.5	/experiments/Knapen_AOT/AOT_stimuli/rescaled_final/1675_fw.mp4	0.0	264.1648941040039	
55	247.58708834648132	fix_post	2		12	53.0	2.5	/experiments/Knapen_AOT/AOT_stimuli/rescaled_final/1675_fw.mp4	0.0	265.483510017395	0.09990310668945312
56	247.68699145317078	fix_pre	0		120	54.0	2.5	/experiments/Knapen_AOT/AOT_stimuli/rescaled_final/1942_fw.mp4	0.0	265.5834131240845	1.0084726810455322
56	247.87050104141235	pulse	0	t		54.0	2.5	/experiments/Knapen_AOT/AOT_stimuli/rescaled_final/1942_fw.mp4	0.0	265.76692271232605	
56	248.6954641342163	movie	1		281	54.0	2.5	/experiments/Knapen_AOT/AOT_stimuli/rescaled_final/1942_fw.mp4	0.0	266.59188580513	2.492053508758545
56	249.46893668174744	pulse	1	t		54.0	2.5	/experiments/Knapen_AOT/AOT_stimuli/rescaled_final/1942_fw.mp4	0.0	267.36535835266113	
56	251.07027316093445	pulse	1	t		54.0	2.5	/experiments/Knapen_AOT/AOT_stimuli/rescaled_final/1942_fw.mp4	0.0	268.96669483184814	
56	251.18751764297485	fix_post	2		12	54.0	2.5	/experiments/Knapen_AOT/AOT_stimuli/rescaled_final/1942_fw.mp4	0.0	269.08393931388855	0.10001516342163086
57	251.28753280639648	fix_pre	0		120	55.0	2.5	/experiments/Knapen_AOT/AOT_stimuli/rescaled_final/2063_rv.mp4	0.0	269.1839544773102	1.008523941040039
57	252.29605674743652	movie	1		281	55.0	2.5	/experiments/Knapen_AOT/AOT_stimuli/rescaled_final/2063_rv.mp4	0.0	270.1924784183502	2.492023229598999
57	252.67006039619446	pulse	1	t		55.0	2.5	/experiments/Knapen_AOT/AOT_stimuli/rescaled_final/2063_rv.mp4	0.0	270.56648206710815	
57	254.26959943771362	pulse	1	t		55.0	2.5	/experiments/Knapen_AOT/AOT_stimuli/rescaled_final/2063_rv.mp4	0.0	272.1660211086273	
57	254.78807997703552	fix_post	2		12	55.0	2.5	/experiments/Knapen_AOT/AOT_stimuli/rescaled_final/2063_rv.mp4	0.0	272.6845016479492	0.10002636909484863
58	254.88810634613037	fix_pre	0		119	56.0	2.5	blank	1.0	272.78452801704407	0.9917426109313965
58	255.8639988899231	pulse	0	t		56.0	2.5	blank	1.0	273.7604205608368	
58	255.87984895706177	movie	1		301	56.0	2.5	blank	1.0	273.77627062797546	2.5087709426879883
58	257.46409916877747	pulse	1	t		56.0	2.5	blank	1.0	275.36052083969116	
58	258.38861989974976	fix_post	2		12	56.0	2.5	blank	1.0	276.28504157066345	0.09999799728393555
59	258.4886178970337	fix_pre	0		120	57.0	2.5	/experiments/Knapen_AOT/AOT_stimuli/rescaled_final/1513_rv.mp4	0.0	276.3850395679474	1.008481740951538
59	259.0640618801117	pulse	0	t		57.0	2.5	/experiments/Knapen_AOT/AOT_stimuli/rescaled_final/1513_rv.mp4	0.0	276.9604835510254	
59	259.49709963798523	movie	1		281	57.0	2.5	/experiments/Knapen_AOT/AOT_stimuli/rescaled_final/1513_rv.mp4	0.0	277.3935213088989	2.4920530319213867
59	260.6641216278076	pulse	1	t		57.0	2.5	/experiments/Knapen_AOT/AOT_stimuli/rescaled_final/1513_rv.mp4	0.0	278.5605432987213	
59	261.9891526699066	fix_post	2		12	57.0	2.5	/experiments/Knapen_AOT/AOT_stimuli/rescaled_final/1513_rv.mp4	0.0	279.8855743408203	0.10004973411560059
60	262.0892024040222	fix_pre	0		120	58.0	2.5	/experiments/Knapen_AOT/AOT_stimuli/rescaled_final/0674_fw.mp4	0.0	279.9856240749359	1.008518934249878
60	262.26454639434814	pulse	0	t		58.0	2.5	/experiments/Knapen_AOT/AOT_stimuli/rescaled_final/0674_fw.mp4	0.0	280.16096806526184	
60	263.0977213382721	movie	1		288	58.0	2.5	/experiments/Knapen_AOT/AOT_stimuli/rescaled_final/0674_fw.mp4	0.0	280.9941430091858	2.491950511932373
60	263.8646595478058	pulse	1	t		58.0	2.5	/experiments/Knapen_AOT/AOT_stimuli/rescaled_final/0674_fw.mp4	0.0	281.7610812187195	
60	265.46483397483826	pulse	1	t		58.0	2.5	/experiments/Knapen_AOT/AOT_stimuli/rescaled_final/0674_fw.mp4	0.0	283.36125564575195	
60	265.58967185020447	fix_post	2		12	58.0	2.5	/experiments/Knapen_AOT/AOT_stimuli/rescaled_final/0674_fw.mp4	0.0	283.48609352111816	0.10001921653747559
61	265.68969106674194	fix_pre	0		120	59.0	2.5	/experiments/Knapen_AOT/AOT_stimuli/rescaled_final/0958_fw.mp4	0.0	283.58611273765564	1.0085008144378662
61	266.6981918811798	movie	1		263	59.0	2.5	/experiments/Knapen_AOT/AOT_stimuli/rescaled_final/0958_fw.mp4	0.0	284.5946135520935	2.492032766342163
61	267.06708550453186	pulse	1	t		59.0	2.5	/experiments/Knapen_AOT/AOT_stimuli/rescaled_final/0958_fw.mp4	0.0	284.96350717544556	
61	268.66530108451843	pulse	1	t		59.0	2.5	/experiments/Knapen_AOT/AOT_stimuli/rescaled_final/0958_fw.mp4	0.0	286.56172275543213	
61	269.190224647522	fix_post	2		12	59.0	2.5	/experiments/Knapen_AOT/AOT_stimuli/rescaled_final/0958_fw.mp4	0.0	287.08664631843567	0.10003304481506348
62	269.29025769233704	fix_pre	0		118	60.0	2.5	/experiments/Knapen_AOT/AOT_stimuli/rescaled_final/0965_rv.mp4	0.0	287.18667936325073	0.9918274879455566
62	270.2655565738678	pulse	0	t		60.0	2.5	/experiments/Knapen_AOT/AOT_stimuli/rescaled_final/0965_rv.mp4	0.0	288.1619782447815	
62	270.2820851802826	movie	1		287	60.0	2.5	/experiments/Knapen_AOT/AOT_stimuli/rescaled_final/0965_rv.mp4	0.0	288.1785068511963	2.5003323554992676
62	271.8642075061798	pulse	1	t		60.0	2.5	/experiments/Knapen_AOT/AOT_stimuli/rescaled_final/0965_rv.mp4	0.0	289.7606291770935	
62	272.78241753578186	fix_post	2		12	60.0	2.5	/experiments/Knapen_AOT/AOT_stimuli/rescaled_final/0965_rv.mp4	0.0	290.67883920669556	0.10006260871887207
63	272.88248014450073	fix_pre	0		120	61.0	2.5	blank	1.0	290.77890181541443	1.00010347366333
63	273.4659926891327	pulse	0	t		61.0	2.5	blank	1.0	291.3624143600464	
63	273.88258361816406	movie	1		300	61.0	2.5	blank	1.0	291.77900528907776	2.5003786087036133
63	275.0662636756897	pulse	1	t		61.0	2.5	blank	1.0	292.9626853466034	
63	276.3829622268677	fix_post	2		11	61.0	2.5	blank	1.0	294.2793838977814	0.1000208854675293
64	276.4829831123352	fix_pre	0		120	62.0	2.5	/experiments/Knapen_AOT/AOT_stimuli/rescaled_final/2163_rv.mp4	0.0	294.3794047832489	1.008516788482666
64	276.66651797294617	pulse	0	t		62.0	2.5	/experiments/Knapen_AOT/AOT_stimuli/rescaled_final/2163_rv.mp4	0.0	294.56293964385986	
64	277.49149990081787	movie	1		284	62.0	2.5	/experiments/Knapen_AOT/AOT_stimuli/rescaled_final/2163_rv.mp4	0.0	295.38792157173157	2.4920194149017334
64	278.2650074958801	pulse	1	t		62.0	2.5	/experiments/Knapen_AOT/AOT_stimuli/rescaled_final/2163_rv.mp4	0.0	296.1614291667938	
64	279.8670208454132	pulse	1	t		62.0	2.5	/experiments/Knapen_AOT/AOT_stimuli/rescaled_final/2163_rv.mp4	0.0	297.7634425163269	
64	279.9835193157196	fix_post	2		12	62.0	2.5	/experiments/Knapen_AOT/AOT_stimuli/rescaled_final/2163_rv.mp4	0.0	297.8799409866333	0.10001897811889648
65	280.0835382938385	fix_pre	0		120	63.0	2.5	/experiments/Knapen_AOT/AOT_stimuli/rescaled_final/1524_rv.mp4	0.0	297.9799599647522	1.0084822177886963
65	281.0920205116272	movie	1		278	63.0	2.5	/experiments/Knapen_AOT/AOT_stimuli/rescaled_final/1524_rv.mp4	0.0	298.9884421825409	2.4920315742492676
65	281.4666163921356	pulse	1	t		63.0	2.5	/experiments/Knapen_AOT/AOT_stimuli/rescaled_final/1524_rv.mp4	0.0	299.3630380630493	
65	283.0675537586212	pulse	1	t		63.0	2.5	/experiments/Knapen_AOT/AOT_stimuli/rescaled_final/1524_rv.mp4	0.0	300.9639754295349	
65	283.58405208587646	fix_post	2		12	63.0	2.5	/experiments/Knapen_AOT/AOT_stimuli/rescaled_final/1524_rv.mp4	0.0	301.48047375679016	0.10003161430358887
66	283.68408370018005	fix_pre	0		119	64.0	2.5	/experiments/Knapen_AOT/AOT_stimuli/rescaled_final/0965_fw.mp4	0.0	301.58050537109375	1.0002074241638184
66	284.6677827835083	pulse	0	t		64.0	2.5	/experiments/Knapen_AOT/AOT_stimuli/rescaled_final/0965_fw.mp4	0.0	302.564204454422	
66	284.6842911243439	movie	1		277	64.0	2.5	/experiments/Knapen_AOT/AOT_stimuli/rescaled_final/0965_fw.mp4	0.0	302.58071279525757	2.5002975463867188
66	286.2664086818695	pulse	1	t		64.0	2.5	/experiments/Knapen_AOT/AOT_stimuli/rescaled_final/0965_fw.mp4	0.0	304.1628303527832	
66	287.1845886707306	fix_post	2		12	64.0	2.5	/experiments/Knapen_AOT/AOT_stimuli/rescaled_final/0965_fw.mp4	0.0	305.0810103416443	0.10002708435058594
67	287.2846157550812	fix_pre	0		120	65.0	2.5	/experiments/Knapen_AOT/AOT_stimuli/rescaled_final/1494_fw.mp4	0.0	305.1810374259949	1.008495569229126
67	287.8682541847229	pulse	0	t		65.0	2.5	/experiments/Knapen_AOT/AOT_stimuli/rescaled_final/1494_fw.mp4	0.0	305.7646758556366	
67	288.2931113243103	movie	1		283	65.0	2.5	/experiments/Knapen_AOT/AOT_stimuli/rescaled_final/1494_fw.mp4	0.0	306.189532995224	2.492027997970581
67	289.46636414527893	pulse	1	t		65.0	2.5	/experiments/Knapen_AOT/AOT_stimuli/rescaled_final/1494_fw.mp4	0.0	307.3627858161926	
67	290.7851393222809	fix_post	2		12	65.0	2.5	/experiments/Knapen_AOT/AOT_stimuli/rescaled_final/1494_fw.mp4	0.0	308.6815609931946	0.1000516414642334
68	290.8851909637451	fix_pre	0		120	66.0	2.5	/experiments/Knapen_AOT/AOT_stimuli/rescaled_final/0102_fw.mp4	0.0	308.7816126346588	1.0084388256072998
68	291.0686388015747	pulse	0	t		66.0	2.5	/experiments/Knapen_AOT/AOT_stimuli/rescaled_final/0102_fw.mp4	0.0	308.9650604724884	
68	291.8936297893524	movie	1		281	66.0	2.5	/experiments/Knapen_AOT/AOT_stimuli/rescaled_final/0102_fw.mp4	0.0	309.7900514602661	2.492036819458008
68	292.6669192314148	pulse	1	t		66.0	2.5	/experiments/Knapen_AOT/AOT_stimuli/rescaled_final/0102_fw.mp4	0.0	310.5633409023285	
68	294.2671630382538	pulse	1	t		66.0	2.5	/experiments/Knapen_AOT/AOT_stimuli/rescaled_final/0102_fw.mp4	0.0	312.1635847091675	
68	294.3856666088104	fix_post	2		12	66.0	2.5	/experiments/Knapen_AOT/AOT_stimuli/rescaled_final/0102_fw.mp4	0.0	312.2820882797241	0.10004425048828125
69	294.4857108592987	fix_pre	0		120	67.0	2.5	/experiments/Knapen_AOT/AOT_stimuli/rescaled_final/0313_fw.mp4	0.0	312.3821325302124	1.0084819793701172
69	295.4941928386688	movie	1		259	67.0	2.5	/experiments/Knapen_AOT/AOT_stimuli/rescaled_final/0313_fw.mp4	0.0	313.3906145095825	2.4920291900634766
69	295.8679404258728	pulse	1	t		67.0	2.5	/experiments/Knapen_AOT/AOT_stimuli/rescaled_final/0313_fw.mp4	0.0	313.7643620967865	
69	297.4679687023163	pulse	1	t		67.0	2.5	/experiments/Knapen_AOT/AOT_stimuli/rescaled_final/0313_fw.mp4	0.0	315.36439037323	
69	297.9862220287323	fix_post	2		11	67.0	2.5	/experiments/Knapen_AOT/AOT_stimuli/rescaled_final/0313_fw.mp4	0.0	315.882643699646	0.10002446174621582
70	298.0862464904785	fix_pre	0		119	68.0	2.5	/experiments/Knapen_AOT/AOT_stimuli/rescaled_final/0553_rv.mp4	0.0	315.9826681613922	1.000133991241455
70	299.06991958618164	pulse	0	t		68.0	2.5	/experiments/Knapen_AOT/AOT_stimuli/rescaled_final/0553_rv.mp4	0.0	316.96634125709534	
70	299.08638048171997	movie	1		287	68.0	2.5	/experiments/Knapen_AOT/AOT_stimuli/rescaled_final/0553_rv.mp4	0.0	316.98280215263367	2.5003740787506104
70	300.66882705688477	pulse	1	t		68.0	2.5	/experiments/Knapen_AOT/AOT_stimuli/rescaled_final/0553_rv.mp4	0.0	318.56524872779846	
70	301.5867545604706	fix_post	2		12	68.0	2.5	/experiments/Knapen_AOT/AOT_stimuli/rescaled_final/0553_rv.mp4	0.0	319.4831762313843	0.10008072853088379
71	301.68683528900146	fix_pre	0		120	69.0	2.5	/experiments/Knapen_AOT/AOT_stimuli/rescaled_final/1931_rv.mp4	0.0	319.58325695991516	1.0084474086761475
71	302.27040004730225	pulse	0	t		69.0	2.5	/experiments/Knapen_AOT/AOT_stimuli/rescaled_final/1931_rv.mp4	0.0	320.16682171821594	
71	302.6952826976776	movie	1		272	69.0	2.5	/experiments/Knapen_AOT/AOT_stimuli/rescaled_final/1931_rv.mp4	0.0	320.5917043685913	2.4920098781585693
71	303.8699173927307	pulse	1	t		69.0	2.5	/experiments/Knapen_AOT/AOT_stimuli/rescaled_final/1931_rv.mp4	0.0	321.7663390636444	
71	305.1872925758362	fix_post	2		12	69.0	2.5	/experiments/Knapen_AOT/AOT_stimuli/rescaled_final/1931_rv.mp4	0.0	323.0837142467499	0.10001063346862793
72	305.2873032093048	fix_pre	0		120	70.0	2.5	blank	1.0	323.1837248802185	1.0001637935638428
72	305.47094440460205	pulse	0	t		70.0	2.5	blank	1.0	323.36736607551575	
72	306.28746700286865	movie	1		300	70.0	2.5	blank	1.0	324.18388867378235	2.500359296798706
72	307.071172952652	pulse	1	t		70.0	2.5	blank	1.0	324.9675946235657	
72	308.6643455028534	pulse	1	t		70.0	2.5	blank	1.0	326.5607671737671	
72	308.78782629966736	fix_post	2		12	70.0	2.5	blank	1.0	326.68424797058105	0.10019922256469727
73	308.88802552223206	fix_pre	0		120	71.0	2.5	/experiments/Knapen_AOT/AOT_stimuli/rescaled_final/1612_rv.mp4	0.0	326.78444719314575	1.0083634853363037
73	309.89638900756836	movie	1		275	71.0	2.5	/experiments/Knapen_AOT/AOT_stimuli/rescaled_final/1612_rv.mp4	0.0	327.79281067848206	2.492051124572754
73	310.2715678215027	pulse	1	t		71.0	2.5	/experiments/Knapen_AOT/AOT_stimuli/rescaled_final/1612_rv.mp4	0.0	328.1679894924164	
73	311.86957240104675	pulse	1	t		71.0	2.5	/experiments/Knapen_AOT/AOT_stimuli/rescaled_final/1612_rv.mp4	0.0	329.76599407196045	
73	312.3884401321411	fix_post	2		12	71.0	2.5	/experiments/Knapen_AOT/AOT_stimuli/rescaled_final/1612_rv.mp4	0.0	330.2848618030548	0.09997367858886719
74	312.48841381073	fix_pre	0		119	72.0	2.5	/experiments/Knapen_AOT/AOT_stimuli/rescaled_final/1269_rv.mp4	0.0	330.3848354816437	1.0001640319824219
74	313.46449041366577	pulse	0	t		72.0	2.5	/experiments/Knapen_AOT/AOT_stimuli/rescaled_final/1269_rv.mp4	0.0	331.36091208457947	
74	313.4885778427124	movie	1		271	72.0	2.5	/experiments/Knapen_AOT/AOT_stimuli/rescaled_final/1269_rv.mp4	0.0	331.3849995136261	2.5003466606140137
74	315.07118487358093	pulse	1	t		72.0	2.5	/experiments/Knapen_AOT/AOT_stimuli/rescaled_final/1269_rv.mp4	0.0	332.96760654449463	
74	315.9889245033264	fix_post	2		12	72.0	2.5	/experiments/Knapen_AOT/AOT_stimuli/rescaled_final/1269_rv.mp4	0.0	333.8853461742401	0.10001420974731445
75	316.08893871307373	fix_pre	0		120	73.0	2.5	/experiments/Knapen_AOT/AOT_stimuli/rescaled_final/1534_rv.mp4	0.0	333.9853603839874	1.0084996223449707
75	316.6645896434784	pulse	0	t		73.0	2.5	/experiments/Knapen_AOT/AOT_stimuli/rescaled_final/1534_rv.mp4	0.0	334.5610113143921	
75	317.0974383354187	movie	1		273	73.0	2.5	/experiments/Knapen_AOT/AOT_stimuli/rescaled_final/1534_rv.mp4	0.0	334.9938600063324	2.4920148849487305
75	318.26486325263977	pulse	1	t		73.0	2.5	/experiments/Knapen_AOT/AOT_stimuli/rescaled_final/1534_rv.mp4	0.0	336.16128492355347	
75	319.58945322036743	fix_post	2		12	73.0	2.5	/experiments/Knapen_AOT/AOT_stimuli/rescaled_final/1534_rv.mp4	0.0	337.4858748912811	0.10001659393310547
76	319.68946981430054	fix_pre	0		120	74.0	2.5	/experiments/Knapen_AOT/AOT_stimuli/rescaled_final/2130_fw.mp4	0.0	337.58589148521423	1.0085339546203613
76	319.8649172782898	pulse	0	t		74.0	2.5	/experiments/Knapen_AOT/AOT_stimuli/rescaled_final/2130_fw.mp4	0.0	337.7613389492035	
76	320.6980037689209	movie	1		271	74.0	2.5	/experiments/Knapen_AOT/AOT_stimuli/rescaled_final/2130_fw.mp4	0.0	338.5944254398346	2.491994857788086
76	321.46506524086	pulse	1	t		74.0	2.5	/experiments/Knapen_AOT/AOT_stimuli/rescaled_final/2130_fw.mp4	0.0	339.3614869117737	
76	323.06524896621704	pulse	1	t		74.0	2.5	/experiments/Knapen_AOT/AOT_stimuli/rescaled_final/2130_fw.mp4	0.0	340.96167063713074	
76	323.189998626709	fix_post	2		12	74.0	2.5	/experiments/Knapen_AOT/AOT_stimuli/rescaled_final/2130_fw.mp4	0.0	341.0864202976227	0.09999847412109375
77	323.2899971008301	fix_pre	0		120	75.0	2.5	/experiments/Knapen_AOT/AOT_stimuli/rescaled_final/0933_fw.mp4	0.0	341.1864187717438	1.0085039138793945
77	324.2985010147095	movie	1		263	75.0	2.5	/experiments/Knapen_AOT/AOT_stimuli/rescaled_final/0933_fw.mp4	0.0	342.19492268562317	2.4921698570251465
77	324.665563583374	pulse	1	t		75.0	2.5	/experiments/Knapen_AOT/AOT_stimuli/rescaled_final/0933_fw.mp4	0.0	342.5619852542877	
77	326.264972448349	pulse	1	t		75.0	2.5	/experiments/Knapen_AOT/AOT_stimuli/rescaled_final/0933_fw.mp4	0.0	344.1613941192627	
77	326.7906708717346	fix_post	2		12	75.0	2.5	/experiments/Knapen_AOT/AOT_stimuli/rescaled_final/0933_fw.mp4	0.0	344.6870925426483	0.09987449645996094
78	326.8905453681946	fix_pre	0		118	76.0	2.5	blank	1.0	344.7869670391083	0.9834461212158203
78	327.86599135398865	pulse	0	t		76.0	2.5	blank	1.0	345.76241302490234	
78	327.8739914894104	movie	1		301	76.0	2.5	blank	1.0	345.7704131603241	2.5087602138519287
78	329.46609926223755	pulse	1	t		76.0	2.5	blank	1.0	347.36252093315125	
78	330.38275170326233	fix_post	2		12	76.0	2.5	blank	1.0	348.279173374176	0.10003519058227539
79	330.4827868938446	fix_pre	0		120	77.0	2.5	/experiments/Knapen_AOT/AOT_stimuli/rescaled_final/2003_fw.mp4	0.0	348.3792085647583	1.0084552764892578
79	331.06651544570923	pulse	0	t		77.0	2.5	/experiments/Knapen_AOT/AOT_stimuli/rescaled_final/2003_fw.mp4	0.0	348.9629371166229	
79	331.49124217033386	movie	1		286	77.0	2.5	/experiments/Knapen_AOT/AOT_stimuli/rescaled_final/2003_fw.mp4	0.0	349.38766384124756	2.492065191268921
79	332.6647057533264	pulse	1	t		77.0	2.5	/experiments/Knapen_AOT/AOT_stimuli/rescaled_final/2003_fw.mp4	0.0	350.5611274242401	
79	333.9833073616028	fix_post	2		12	77.0	2.5	/experiments/Knapen_AOT/AOT_stimuli/rescaled_final/2003_fw.mp4	0.0	351.8797290325165	0.10026216506958008
80	334.08356952667236	fix_pre	0		120	78.0	2.5	/experiments/Knapen_AOT/AOT_stimuli/rescaled_final/1109_rv.mp4	0.0	351.97999119758606	1.008274793624878
80	334.2667956352234	pulse	0	t		78.0	2.5	/experiments/Knapen_AOT/AOT_stimuli/rescaled_final/1109_rv.mp4	0.0	352.1632173061371	
80	335.09184432029724	movie	1		274	78.0	2.5	/experiments/Knapen_AOT/AOT_stimuli/rescaled_final/1109_rv.mp4	0.0	352.98826599121094	2.491976737976074
80	335.8647449016571	pulse	1	t		78.0	2.5	/experiments/Knapen_AOT/AOT_stimuli/rescaled_final/1109_rv.mp4	0.0	353.7611665725708	
80	337.46745800971985	pulse	1	t		78.0	2.5	/experiments/Knapen_AOT/AOT_stimuli/rescaled_final/1109_rv.mp4	0.0	355.36387968063354	
80	337.5838210582733	fix_post	2		12	78.0	2.5	/experiments/Knapen_AOT/AOT_stimuli/rescaled_final/1109_rv.mp4	0.0	355.480242729187	0.10001826286315918
81	337.6838393211365	fix_pre	0		120	79.0	2.5	/experiments/Knapen_AOT/AOT_stimuli/rescaled_final/1599_rv.mp4	0.0	355.58026099205017	1.0085077285766602
81	338.69234704971313	movie	1		275	79.0	2.5	/experiments/Knapen_AOT/AOT_stimuli/rescaled_final/1599_rv.mp4	0.0	356.58876872062683	2.4920263290405273
81	339.06643080711365	pulse	1	t		79.0	2.5	/experiments/Knapen_AOT/AOT_stimuli/rescaled_final/1599_rv.mp4	0.0	356.96285247802734	
81	340.6657133102417	pulse	1	t		79.0	2.5	/experiments/Knapen_AOT/AOT_stimuli/rescaled_final/1599_rv.mp4	0.0	358.5621349811554	
81	341.18437337875366	fix_post	2		12	79.0	2.5	/experiments/Knapen_AOT/AOT_stimuli/rescaled_final/1599_rv.mp4	0.0	359.08079504966736	0.10000300407409668
82	341.28437638282776	fix_pre	0		119	80.0	2.5	/experiments/Knapen_AOT/AOT_stimuli/rescaled_final/1799_fw.mp4	0.0	359.18079805374146	1.0001142024993896
82	342.2680220603943	pulse	0	t		80.0	2.5	/experiments/Knapen_AOT/AOT_stimuli/rescaled_final/1799_fw.mp4	0.0	360.164443731308	
82	342.28449058532715	movie	1		287	80.0	2.5	/experiments/Knapen_AOT/AOT_stimuli/rescaled_final/1799_fw.mp4	0.0	360.18091225624084	2.5004167556762695
82	343.86765718460083	pulse	1	t		80.0	2.5	/experiments/Knapen_AOT/AOT_stimuli/rescaled_final/1799_fw.mp4	0.0	361.7640788555145	
82	344.7849073410034	fix_post	2		12	80.0	2.5	/experiments/Knapen_AOT/AOT_stimuli/rescaled_final/1799_fw.mp4	0.0	362.6813290119171	0.10001778602600098
83	344.8849251270294	fix_pre	0		120	81.0	2.5	/experiments/Knapen_AOT/AOT_stimuli/rescaled_final/1410_fw.mp4	0.0	362.7813467979431	1.0084867477416992
83	345.4685072898865	pulse	0	t		81.0	2.5	/experiments/Knapen_AOT/AOT_stimuli/rescaled_final/1410_fw.mp4	0.0	363.36492896080017	
83	345.8934118747711	movie	1		264	81.0	2.5	/experiments/Knapen_AOT/AOT_stimuli/rescaled_final/1410_fw.mp4	0.0	363.7898335456848	2.492063522338867
83	347.06702303886414	pulse	1	t		81.0	2.5	/experiments/Knapen_AOT/AOT_stimuli/rescaled_final/1410_fw.mp4	0.0	364.96344470977783	
83	348.38547539711	fix_post	2		12	81.0	2.5	/experiments/Knapen_AOT/AOT_stimuli/rescaled_final/1410_fw.mp4	0.0	366.2818970680237	0.10002803802490234
84	348.4855034351349	fix_pre	0		120	82.0	2.5	/experiments/Knapen_AOT/AOT_stimuli/rescaled_final/0674_fw.mp4	0.0	366.3819251060486	1.0084636211395264
84	348.6689467430115	pulse	0	t		82.0	2.5	/experiments/Knapen_AOT/AOT_stimuli/rescaled_final/0674_fw.mp4	0.0	366.56536841392517	
84	349.4939670562744	movie	1		281	82.0	2.5	/experiments/Knapen_AOT/AOT_stimuli/rescaled_final/0674_fw.mp4	0.0	367.3903887271881	2.4921844005584717
84	350.26792097091675	pulse	1	t		82.0	2.5	/experiments/Knapen_AOT/AOT_stimuli/rescaled_final/0674_fw.mp4	0.0	368.16434264183044	
84	351.8675570487976	pulse	1	t		82.0	2.5	/experiments/Knapen_AOT/AOT_stimuli/rescaled_final/0674_fw.mp4	0.0	369.7639787197113	
84	351.9861514568329	fix_post	2		12	82.0	2.5	/experiments/Knapen_AOT/AOT_stimuli/rescaled_final/0674_fw.mp4	0.0	369.8825731277466	0.09985733032226562
85	352.08600878715515	fix_pre	0		120	83.0	2.5	blank	1.0	369.98243045806885	1.000187873840332
85	353.0861966609955	movie	1		300	83.0	2.5	blank	1.0	370.9826183319092	2.5003504753112793
85	353.46975326538086	pulse	1	t		83.0	2.5	blank	1.0	371.36617493629456	
85	355.0699608325958	pulse	1	t		83.0	2.5	blank	1.0	372.9663825035095	
85	355.58654713630676	fix_post	2		12	83.0	2.5	blank	1.0	373.48296880722046	0.10001087188720703
87	355.68655800819397	stim	0		1715					373.58297967910767	14.293803691864014
87	356.67022252082825	pulse	0	t						374.56664419174194	
87	358.2706820964813	pulse	0	t						376.167103767395	
87	359.8710346221924	pulse	0	t						377.7674562931061	
87	361.4714517593384	pulse	0	t						379.3678734302521	
87	363.0715229511261	pulse	0	t						380.9679446220398	
87	364.6718394756317	pulse	0	t						382.5682611465454	
87	366.2719886302948	pulse	0	t						384.1684103012085	
87	367.8721446990967	pulse	0	t						385.7685663700104	
87	369.4646167755127	pulse	0	t						387.3610384464264	
