trial_nr	onset	event_type	phase	response	nr_frames	movie_index	movie_duration	movie_file	blank	onset_abs	duration
0	0.1916971206665039	stim	0		37					21.069576263427734	0.3083078861236572
0	0.48456406593322754	response	0	space						21.362443208694458	
1	0.5000050067901611	stim	0		2718					21.37788414955139	22.662615060806274
1	23.15226101875305	pulse	0	t						44.03014016151428	
1	23.162620067596436	stim	1		1716					44.040499210357666	14.301135063171387
1	24.74544906616211	pulse	1	t						45.62332820892334	
1	26.345657110214233	pulse	1	t						47.223536252975464	
1	27.94576597213745	pulse	1	t						48.82364511489868	
1	29.546189069747925	pulse	1	t						50.424068212509155	
1	31.146373987197876	pulse	1	t						52.024253129959106	
1	32.746511936187744	pulse	1	t						53.624391078948975	
1	34.346811056137085	pulse	1	t						55.224690198898315	
1	35.94712710380554	pulse	1	t						56.82500624656677	
2	37.46375513076782	fix_pre	0		11	0.0	2.5	/experiments/knapen_AOT/AOT_stimuli/rescaled_final/1331_fw.mp4	0.0	58.34163427352905	0.09165501594543457
2	37.54735708236694	pulse	0	t		0.0	2.5	/experiments/knapen_AOT/AOT_stimuli/rescaled_final/1331_fw.mp4	0.0	58.425236225128174	
2	37.55541014671326	movie	1		245	0.0	2.5	/experiments/knapen_AOT/AOT_stimuli/rescaled_final/1331_fw.mp4	0.0	58.43328928947449	2.5087130069732666
2	39.148154973983765	pulse	1	t		0.0	2.5	/experiments/knapen_AOT/AOT_stimuli/rescaled_final/1331_fw.mp4	0.0	60.026034116744995	
2	40.06412315368652	fix_post	2		12	0.0	2.5	/experiments/knapen_AOT/AOT_stimuli/rescaled_final/1331_fw.mp4	0.0	60.942002296447754	0.10000991821289062
3	40.164133071899414	fix_pre	0		120	1.0	2.5	/experiments/knapen_AOT/AOT_stimuli/rescaled_final/2098_fw.mp4	0.0	61.042012214660645	1.0001749992370605
3	40.74776101112366	pulse	0	t		1.0	2.5	/experiments/knapen_AOT/AOT_stimuli/rescaled_final/2098_fw.mp4	0.0	61.62564015388489	
3	41.164308071136475	movie	1		244	1.0	2.5	/experiments/knapen_AOT/AOT_stimuli/rescaled_final/2098_fw.mp4	0.0	62.042187213897705	2.500365972518921
3	42.3481011390686	pulse	1	t		1.0	2.5	/experiments/knapen_AOT/AOT_stimuli/rescaled_final/2098_fw.mp4	0.0	63.225980281829834	
3	43.664674043655396	fix_post	2		12	1.0	2.5	/experiments/knapen_AOT/AOT_stimuli/rescaled_final/2098_fw.mp4	0.0	64.54255318641663	0.10001111030578613
4	43.76468515396118	fix_pre	0		120	2.0	2.5	/experiments/knapen_AOT/AOT_stimuli/rescaled_final/0834_fw.mp4	0.0	64.64256429672241	1.000241994857788
4	43.9482319355011	pulse	0	t		2.0	2.5	/experiments/knapen_AOT/AOT_stimuli/rescaled_final/0834_fw.mp4	0.0	64.82611107826233	
4	44.76492714881897	movie	1		244	2.0	2.5	/experiments/knapen_AOT/AOT_stimuli/rescaled_final/0834_fw.mp4	0.0	65.6428062915802	2.5002708435058594
4	45.54852914810181	pulse	1	t		2.0	2.5	/experiments/knapen_AOT/AOT_stimuli/rescaled_final/0834_fw.mp4	0.0	66.42640829086304	
4	47.148937940597534	pulse	1	t		2.0	2.5	/experiments/knapen_AOT/AOT_stimuli/rescaled_final/0834_fw.mp4	0.0	68.02681708335876	
4	47.26519799232483	fix_post	2		12	2.0	2.5	/experiments/knapen_AOT/AOT_stimuli/rescaled_final/0834_fw.mp4	0.0	68.14307713508606	0.10002613067626953
5	47.3652241230011	fix_pre	0		120	3.0	2.5	/experiments/knapen_AOT/AOT_stimuli/rescaled_final/1604_rv.mp4	0.0	68.24310326576233	1.0001568794250488
5	48.36538100242615	movie	1		242	3.0	2.5	/experiments/knapen_AOT/AOT_stimuli/rescaled_final/1604_rv.mp4	0.0	69.24326014518738	2.492018938064575
5	48.74959111213684	pulse	1	t		3.0	2.5	/experiments/knapen_AOT/AOT_stimuli/rescaled_final/1604_rv.mp4	0.0	69.62747025489807	
5	50.34929013252258	pulse	1	t		3.0	2.5	/experiments/knapen_AOT/AOT_stimuli/rescaled_final/1604_rv.mp4	0.0	71.22716927528381	
5	50.85739994049072	fix_post	2		12	3.0	2.5	/experiments/knapen_AOT/AOT_stimuli/rescaled_final/1604_rv.mp4	0.0	71.73527908325195	0.10004210472106934
6	50.95744204521179	fix_pre	0		120	4.0	2.5	/experiments/knapen_AOT/AOT_stimuli/rescaled_final/0287_rv.mp4	0.0	71.83532118797302	1.0001349449157715
6	51.94954705238342	pulse	0	t		4.0	2.5	/experiments/knapen_AOT/AOT_stimuli/rescaled_final/0287_rv.mp4	0.0	72.82742619514465	
6	51.95757699012756	movie	1		244	4.0	2.5	/experiments/knapen_AOT/AOT_stimuli/rescaled_final/0287_rv.mp4	0.0	72.8354561328888	2.5088281631469727
6	53.55042314529419	pulse	1	t		4.0	2.5	/experiments/knapen_AOT/AOT_stimuli/rescaled_final/0287_rv.mp4	0.0	74.42830228805542	
6	54.466405153274536	fix_post	2		12	4.0	2.5	/experiments/knapen_AOT/AOT_stimuli/rescaled_final/0287_rv.mp4	0.0	75.34428429603577	0.09993386268615723
7	54.56633901596069	fix_pre	0		120	5.0	2.5	/experiments/knapen_AOT/AOT_stimuli/rescaled_final/1394_fw.mp4	0.0	75.44421815872192	1.0001320838928223
7	55.14250302314758	pulse	0	t		5.0	2.5	/experiments/knapen_AOT/AOT_stimuli/rescaled_final/1394_fw.mp4	0.0	76.02038216590881	
7	55.566471099853516	movie	1		243	5.0	2.5	/experiments/knapen_AOT/AOT_stimuli/rescaled_final/1394_fw.mp4	0.0	76.44435024261475	2.5003550052642822
7	56.742406129837036	pulse	1	t		5.0	2.5	/experiments/knapen_AOT/AOT_stimuli/rescaled_final/1394_fw.mp4	0.0	77.62028527259827	
7	58.0668261051178	fix_post	2		12	5.0	2.5	/experiments/knapen_AOT/AOT_stimuli/rescaled_final/1394_fw.mp4	0.0	78.94470524787903	0.10004997253417969
8	58.16687607765198	fix_pre	0		120	6.0	2.5	blank	1.0	79.04475522041321	1.0001368522644043
8	58.342878103256226	pulse	0	t		6.0	2.5	blank	1.0	79.22075724601746	
8	59.16701292991638	movie	1		300	6.0	2.5	blank	1.0	80.04489207267761	2.500432014465332
8	59.942408084869385	pulse	1	t		6.0	2.5	blank	1.0	80.82028722763062	
8	61.5424690246582	pulse	1	t		6.0	2.5	blank	1.0	82.42034816741943	
8	61.667444944381714	fix_post	2		12	6.0	2.5	blank	1.0	82.54532408714294	0.09994220733642578
9	61.76738715171814	fix_pre	0		120	7.0	2.5	/experiments/knapen_AOT/AOT_stimuli/rescaled_final/0287_fw.mp4	0.0	82.64526629447937	1.0001318454742432
9	62.76751899719238	movie	1		242	7.0	2.5	/experiments/knapen_AOT/AOT_stimuli/rescaled_final/0287_fw.mp4	0.0	83.64539813995361	2.492027997970581
9	63.14277911186218	pulse	1	t		7.0	2.5	/experiments/knapen_AOT/AOT_stimuli/rescaled_final/0287_fw.mp4	0.0	84.02065825462341	
9	64.74307298660278	pulse	1	t		7.0	2.5	/experiments/knapen_AOT/AOT_stimuli/rescaled_final/0287_fw.mp4	0.0	85.62095212936401	
9	65.25954699516296	fix_post	2		12	7.0	2.5	/experiments/knapen_AOT/AOT_stimuli/rescaled_final/0287_fw.mp4	0.0	86.1374261379242	0.10003495216369629
10	65.35958194732666	fix_pre	0		119	8.0	2.5	/experiments/knapen_AOT/AOT_stimuli/rescaled_final/0578_rv.mp4	0.0	86.23746109008789	0.9918429851531982
10	66.34336495399475	pulse	0	t		8.0	2.5	/experiments/knapen_AOT/AOT_stimuli/rescaled_final/0578_rv.mp4	0.0	87.22124409675598	
10	66.35142493247986	movie	1		243	8.0	2.5	/experiments/knapen_AOT/AOT_stimuli/rescaled_final/0578_rv.mp4	0.0	87.22930407524109	2.508725166320801
10	67.94421601295471	pulse	1	t		8.0	2.5	/experiments/knapen_AOT/AOT_stimuli/rescaled_final/0578_rv.mp4	0.0	88.82209515571594	
10	68.86015009880066	fix_post	2		12	8.0	2.5	/experiments/knapen_AOT/AOT_stimuli/rescaled_final/0578_rv.mp4	0.0	89.73802924156189	0.09997797012329102
11	68.96012806892395	fix_pre	0		120	9.0	2.5	/experiments/knapen_AOT/AOT_stimuli/rescaled_final/1026_fw.mp4	0.0	89.83800721168518	1.000128984451294
11	69.54372310638428	pulse	0	t		9.0	2.5	/experiments/knapen_AOT/AOT_stimuli/rescaled_final/1026_fw.mp4	0.0	90.42160224914551	
11	69.96025705337524	movie	1		244	9.0	2.5	/experiments/knapen_AOT/AOT_stimuli/rescaled_final/1026_fw.mp4	0.0	90.83813619613647	2.500385046005249
11	71.14400005340576	pulse	1	t		9.0	2.5	/experiments/knapen_AOT/AOT_stimuli/rescaled_final/1026_fw.mp4	0.0	92.02187919616699	
11	72.4606420993805	fix_post	2		12	9.0	2.5	/experiments/knapen_AOT/AOT_stimuli/rescaled_final/1026_fw.mp4	0.0	93.33852124214172	0.10003185272216797
12	72.56067395210266	fix_pre	0		120	10.0	2.5	/experiments/knapen_AOT/AOT_stimuli/rescaled_final/1958_rv.mp4	0.0	93.43855309486389	1.0001320838928223
12	72.74428701400757	pulse	0	t		10.0	2.5	/experiments/knapen_AOT/AOT_stimuli/rescaled_final/1958_rv.mp4	0.0	93.6221661567688	
12	73.56080603599548	movie	1		240	10.0	2.5	/experiments/knapen_AOT/AOT_stimuli/rescaled_final/1958_rv.mp4	0.0	94.43868517875671	2.50039005279541
12	74.34451794624329	pulse	1	t		10.0	2.5	/experiments/knapen_AOT/AOT_stimuli/rescaled_final/1958_rv.mp4	0.0	95.22239708900452	
12	75.9444329738617	pulse	1	t		10.0	2.5	/experiments/knapen_AOT/AOT_stimuli/rescaled_final/1958_rv.mp4	0.0	96.82231211662292	
12	76.0611960887909	fix_post	2		12	10.0	2.5	/experiments/knapen_AOT/AOT_stimuli/rescaled_final/1958_rv.mp4	0.0	96.93907523155212	0.10001707077026367
13	76.16121315956116	fix_pre	0		120	11.0	2.5	/experiments/knapen_AOT/AOT_stimuli/rescaled_final/2007_fw.mp4	0.0	97.03909230232239	1.0001389980316162
13	77.16135215759277	movie	1		243	11.0	2.5	/experiments/knapen_AOT/AOT_stimuli/rescaled_final/2007_fw.mp4	0.0	98.039231300354	2.4920599460601807
13	77.54614305496216	pulse	1	t		11.0	2.5	/experiments/knapen_AOT/AOT_stimuli/rescaled_final/2007_fw.mp4	0.0	98.42402219772339	
13	79.14521408081055	pulse	1	t		11.0	2.5	/experiments/knapen_AOT/AOT_stimuli/rescaled_final/2007_fw.mp4	0.0	100.02309322357178	
13	79.65341210365295	fix_post	2		12	11.0	2.5	/experiments/knapen_AOT/AOT_stimuli/rescaled_final/2007_fw.mp4	0.0	100.53129124641418	0.09999585151672363
14	79.75340795516968	fix_pre	0		120	12.0	2.5	/experiments/knapen_AOT/AOT_stimuli/rescaled_final/0766_rv.mp4	0.0	100.63128709793091	1.0001230239868164
14	80.74550700187683	pulse	0	t		12.0	2.5	/experiments/knapen_AOT/AOT_stimuli/rescaled_final/0766_rv.mp4	0.0	101.62338614463806	
14	80.7535309791565	movie	1		245	12.0	2.5	/experiments/knapen_AOT/AOT_stimuli/rescaled_final/0766_rv.mp4	0.0	101.63141012191772	2.5087080001831055
14	82.34623003005981	pulse	1	t		12.0	2.5	/experiments/knapen_AOT/AOT_stimuli/rescaled_final/0766_rv.mp4	0.0	103.22410917282104	
14	83.2622389793396	fix_post	2		12	12.0	2.5	/experiments/knapen_AOT/AOT_stimuli/rescaled_final/0766_rv.mp4	0.0	104.14011812210083	0.10003495216369629
15	83.3622739315033	fix_pre	0		120	13.0	2.5	/experiments/knapen_AOT/AOT_stimuli/rescaled_final/1764_fw.mp4	0.0	104.24015307426453	1.0001540184020996
15	83.94588899612427	pulse	0	t		13.0	2.5	/experiments/knapen_AOT/AOT_stimuli/rescaled_final/1764_fw.mp4	0.0	104.8237681388855	
15	84.3624279499054	movie	1		244	13.0	2.5	/experiments/knapen_AOT/AOT_stimuli/rescaled_final/1764_fw.mp4	0.0	105.24030709266663	2.500338077545166
15	85.54193210601807	pulse	1	t		13.0	2.5	/experiments/knapen_AOT/AOT_stimuli/rescaled_final/1764_fw.mp4	0.0	106.4198112487793	
15	86.86276602745056	fix_post	2		12	13.0	2.5	/experiments/knapen_AOT/AOT_stimuli/rescaled_final/1764_fw.mp4	0.0	107.74064517021179	0.10001111030578613
16	86.96277713775635	fix_pre	0		120	14.0	2.5	blank	1.0	107.84065628051758	1.0001590251922607
16	87.14640593528748	pulse	0	t		14.0	2.5	blank	1.0	108.0242850780487	
16	87.96293616294861	movie	1		300	14.0	2.5	blank	1.0	108.84081530570984	2.5003788471221924
16	88.74671602249146	pulse	1	t		14.0	2.5	blank	1.0	109.62459516525269	
16	90.34682893753052	pulse	1	t		14.0	2.5	blank	1.0	111.22470808029175	
16	90.4633150100708	fix_post	2		12	14.0	2.5	blank	1.0	111.34119415283203	0.10003304481506348
17	90.56334805488586	fix_pre	0		120	15.0	2.5	/experiments/knapen_AOT/AOT_stimuli/rescaled_final/1945_rv.mp4	0.0	111.4412271976471	1.0001518726348877
17	91.56349992752075	movie	1		243	15.0	2.5	/experiments/knapen_AOT/AOT_stimuli/rescaled_final/1945_rv.mp4	0.0	112.44137907028198	2.4920501708984375
17	91.94763994216919	pulse	1	t		15.0	2.5	/experiments/knapen_AOT/AOT_stimuli/rescaled_final/1945_rv.mp4	0.0	112.82551908493042	
17	93.54728412628174	pulse	1	t		15.0	2.5	/experiments/knapen_AOT/AOT_stimuli/rescaled_final/1945_rv.mp4	0.0	114.42516326904297	
17	94.05555009841919	fix_post	2		12	15.0	2.5	/experiments/knapen_AOT/AOT_stimuli/rescaled_final/1945_rv.mp4	0.0	114.93342924118042	0.09999799728393555
18	94.15554809570312	fix_pre	0		120	16.0	2.5	/experiments/knapen_AOT/AOT_stimuli/rescaled_final/0287_rv.mp4	0.0	115.03342723846436	1.0001189708709717
18	95.14764714241028	pulse	0	t		16.0	2.5	/experiments/knapen_AOT/AOT_stimuli/rescaled_final/0287_rv.mp4	0.0	116.02552628517151	
18	95.1556670665741	movie	1		244	16.0	2.5	/experiments/knapen_AOT/AOT_stimuli/rescaled_final/0287_rv.mp4	0.0	116.03354620933533	2.508791923522949
18	96.74836897850037	pulse	1	t		16.0	2.5	/experiments/knapen_AOT/AOT_stimuli/rescaled_final/0287_rv.mp4	0.0	117.6262481212616	
18	97.66445899009705	fix_post	2		12	16.0	2.5	/experiments/knapen_AOT/AOT_stimuli/rescaled_final/0287_rv.mp4	0.0	118.54233813285828	0.10001015663146973
19	97.76446914672852	fix_pre	0		120	17.0	2.5	/experiments/knapen_AOT/AOT_stimuli/rescaled_final/0845_rv.mp4	0.0	118.64234828948975	1.0001428127288818
19	98.34801697731018	pulse	0	t		17.0	2.5	/experiments/knapen_AOT/AOT_stimuli/rescaled_final/0845_rv.mp4	0.0	119.22589612007141	
19	98.7646119594574	movie	1		245	17.0	2.5	/experiments/knapen_AOT/AOT_stimuli/rescaled_final/0845_rv.mp4	0.0	119.64249110221863	2.500312089920044
19	99.94832110404968	pulse	1	t		17.0	2.5	/experiments/knapen_AOT/AOT_stimuli/rescaled_final/0845_rv.mp4	0.0	120.82620024681091	
19	101.26492404937744	fix_post	2		12	17.0	2.5	/experiments/knapen_AOT/AOT_stimuli/rescaled_final/0845_rv.mp4	0.0	122.14280319213867	0.10000991821289062
20	101.36493396759033	fix_pre	0		120	18.0	2.5	/experiments/knapen_AOT/AOT_stimuli/rescaled_final/1114_fw.mp4	0.0	122.24281311035156	1.00018310546875
20	101.54849314689636	pulse	0	t		18.0	2.5	/experiments/knapen_AOT/AOT_stimuli/rescaled_final/1114_fw.mp4	0.0	122.42637228965759	
20	102.36511707305908	movie	1		243	18.0	2.5	/experiments/knapen_AOT/AOT_stimuli/rescaled_final/1114_fw.mp4	0.0	123.24299621582031	2.500359058380127
20	103.14875912666321	pulse	1	t		18.0	2.5	/experiments/knapen_AOT/AOT_stimuli/rescaled_final/1114_fw.mp4	0.0	124.02663826942444	
20	104.74920201301575	pulse	1	t		18.0	2.5	/experiments/knapen_AOT/AOT_stimuli/rescaled_final/1114_fw.mp4	0.0	125.62708115577698	
20	104.86547613143921	fix_post	2		12	18.0	2.5	/experiments/knapen_AOT/AOT_stimuli/rescaled_final/1114_fw.mp4	0.0	125.74335527420044	0.10004091262817383
21	104.96551704406738	fix_pre	0		120	19.0	2.5	/experiments/knapen_AOT/AOT_stimuli/rescaled_final/1297_fw.mp4	0.0	125.84339618682861	1.0001471042633057
21	105.96566414833069	movie	1		242	19.0	2.5	/experiments/knapen_AOT/AOT_stimuli/rescaled_final/1297_fw.mp4	0.0	126.84354329109192	2.4920008182525635
21	106.34973216056824	pulse	1	t		19.0	2.5	/experiments/knapen_AOT/AOT_stimuli/rescaled_final/1297_fw.mp4	0.0	127.22761130332947	
21	107.9422299861908	pulse	1	t		19.0	2.5	/experiments/knapen_AOT/AOT_stimuli/rescaled_final/1297_fw.mp4	0.0	128.82010912895203	
21	108.45766496658325	fix_post	2		12	19.0	2.5	/experiments/knapen_AOT/AOT_stimuli/rescaled_final/1297_fw.mp4	0.0	129.33554410934448	0.10002398490905762
22	108.55768895149231	fix_pre	0		120	20.0	2.5	blank	1.0	129.43556809425354	1.000143051147461
22	109.54224014282227	pulse	0	t		20.0	2.5	blank	1.0	130.4201192855835	
22	109.55783200263977	movie	1		301	20.0	2.5	blank	1.0	130.435711145401	2.50872802734375
22	111.14238905906677	pulse	1	t		20.0	2.5	blank	1.0	132.020268201828	
22	112.06656002998352	fix_post	2		12	20.0	2.5	blank	1.0	132.94443917274475	0.10003495216369629
23	112.16659498214722	fix_pre	0		120	21.0	2.5	/experiments/knapen_AOT/AOT_stimuli/rescaled_final/0971_rv.mp4	0.0	133.04447412490845	1.000101089477539
23	112.74262309074402	pulse	0	t		21.0	2.5	/experiments/knapen_AOT/AOT_stimuli/rescaled_final/0971_rv.mp4	0.0	133.62050223350525	
23	113.16669607162476	movie	1		244	21.0	2.5	/experiments/knapen_AOT/AOT_stimuli/rescaled_final/0971_rv.mp4	0.0	134.044575214386	2.5003950595855713
23	114.34255194664001	pulse	1	t		21.0	2.5	/experiments/knapen_AOT/AOT_stimuli/rescaled_final/0971_rv.mp4	0.0	135.22043108940125	
23	115.66709113121033	fix_post	2		12	21.0	2.5	/experiments/knapen_AOT/AOT_stimuli/rescaled_final/0971_rv.mp4	0.0	136.54497027397156	0.10000085830688477
24	115.76709198951721	fix_pre	0		120	22.0	2.5	/experiments/knapen_AOT/AOT_stimuli/rescaled_final/0982_fw.mp4	0.0	136.64497113227844	1.0001671314239502
24	115.94225597381592	pulse	0	t		22.0	2.5	/experiments/knapen_AOT/AOT_stimuli/rescaled_final/0982_fw.mp4	0.0	136.82013511657715	
24	116.76725912094116	movie	1		243	22.0	2.5	/experiments/knapen_AOT/AOT_stimuli/rescaled_final/0982_fw.mp4	0.0	137.6451382637024	2.500351905822754
24	117.54258513450623	pulse	1	t		22.0	2.5	/experiments/knapen_AOT/AOT_stimuli/rescaled_final/0982_fw.mp4	0.0	138.42046427726746	
24	119.14275813102722	pulse	1	t		22.0	2.5	/experiments/knapen_AOT/AOT_stimuli/rescaled_final/0982_fw.mp4	0.0	140.02063727378845	
24	119.26761102676392	fix_post	2		12	22.0	2.5	/experiments/knapen_AOT/AOT_stimuli/rescaled_final/0982_fw.mp4	0.0	140.14549016952515	0.10004711151123047
25	119.36765813827515	fix_pre	0		119	23.0	2.5	/experiments/knapen_AOT/AOT_stimuli/rescaled_final/0272_rv.mp4	0.0	140.24553728103638	0.991797924041748
25	120.3594560623169	movie	1		243	23.0	2.5	/experiments/knapen_AOT/AOT_stimuli/rescaled_final/0272_rv.mp4	0.0	141.23733520507812	2.5003459453582764
25	120.74362993240356	pulse	1	t		23.0	2.5	/experiments/knapen_AOT/AOT_stimuli/rescaled_final/0272_rv.mp4	0.0	141.6215090751648	
25	122.34335708618164	pulse	1	t		23.0	2.5	/experiments/knapen_AOT/AOT_stimuli/rescaled_final/0272_rv.mp4	0.0	143.22123622894287	
25	122.85980200767517	fix_post	2		12	23.0	2.5	/experiments/knapen_AOT/AOT_stimuli/rescaled_final/0272_rv.mp4	0.0	143.7376811504364	0.10004496574401855
26	122.95984697341919	fix_pre	0		119	24.0	2.5	/experiments/knapen_AOT/AOT_stimuli/rescaled_final/2127_rv.mp4	0.0	143.83772611618042	0.9918181896209717
26	123.94353413581848	pulse	0	t		24.0	2.5	/experiments/knapen_AOT/AOT_stimuli/rescaled_final/2127_rv.mp4	0.0	144.8214132785797	
26	123.95166516304016	movie	1		248	24.0	2.5	/experiments/knapen_AOT/AOT_stimuli/rescaled_final/2127_rv.mp4	0.0	144.8295443058014	2.50870680809021
26	125.54421305656433	pulse	1	t		24.0	2.5	/experiments/knapen_AOT/AOT_stimuli/rescaled_final/2127_rv.mp4	0.0	146.42209219932556	
26	126.46037197113037	fix_post	2		12	24.0	2.5	/experiments/knapen_AOT/AOT_stimuli/rescaled_final/2127_rv.mp4	0.0	147.3382511138916	0.10003113746643066
27	126.5604031085968	fix_pre	0		120	25.0	2.5	/experiments/knapen_AOT/AOT_stimuli/rescaled_final/1715_rv.mp4	0.0	147.43828225135803	1.0001130104064941
27	127.14401507377625	pulse	0	t		25.0	2.5	/experiments/knapen_AOT/AOT_stimuli/rescaled_final/1715_rv.mp4	0.0	148.02189421653748	
27	127.5605161190033	movie	1		246	25.0	2.5	/experiments/knapen_AOT/AOT_stimuli/rescaled_final/1715_rv.mp4	0.0	148.43839526176453	2.500370979309082
27	128.7443709373474	pulse	1	t		25.0	2.5	/experiments/knapen_AOT/AOT_stimuli/rescaled_final/1715_rv.mp4	0.0	149.62225008010864	
27	130.06088709831238	fix_post	2		12	25.0	2.5	/experiments/knapen_AOT/AOT_stimuli/rescaled_final/1715_rv.mp4	0.0	150.9387662410736	0.1000368595123291
28	130.1609239578247	fix_pre	0		120	26.0	2.5	blank	1.0	151.03880310058594	1.000154972076416
28	130.34450697898865	pulse	0	t		26.0	2.5	blank	1.0	151.22238612174988	
28	131.16107892990112	movie	1		300	26.0	2.5	blank	1.0	152.03895807266235	2.5004091262817383
28	131.94468712806702	pulse	1	t		26.0	2.5	blank	1.0	152.82256627082825	
28	133.5449240207672	pulse	1	t		26.0	2.5	blank	1.0	154.42280316352844	
28	133.66148805618286	fix_post	2		12	26.0	2.5	blank	1.0	154.5393671989441	0.09999990463256836
29	133.76148796081543	fix_pre	0		119	27.0	2.5	/experiments/knapen_AOT/AOT_stimuli/rescaled_final/1943_fw.mp4	0.0	154.63936710357666	0.991814136505127
29	134.75330209732056	movie	1		239	27.0	2.5	/experiments/knapen_AOT/AOT_stimuli/rescaled_final/1943_fw.mp4	0.0	155.6311812400818	2.5003390312194824
29	135.14548802375793	pulse	1	t		27.0	2.5	/experiments/knapen_AOT/AOT_stimuli/rescaled_final/1943_fw.mp4	0.0	156.02336716651917	
29	136.7454800605774	pulse	1	t		27.0	2.5	/experiments/knapen_AOT/AOT_stimuli/rescaled_final/1943_fw.mp4	0.0	157.62335920333862	
29	137.25364112854004	fix_post	2		12	27.0	2.5	/experiments/knapen_AOT/AOT_stimuli/rescaled_final/1943_fw.mp4	0.0	158.13152027130127	0.09999489784240723
30	137.35363602638245	fix_pre	0		120	28.0	2.5	/experiments/knapen_AOT/AOT_stimuli/rescaled_final/0259_fw.mp4	0.0	158.23151516914368	1.0001718997955322
30	138.34565997123718	pulse	0	t		28.0	2.5	/experiments/knapen_AOT/AOT_stimuli/rescaled_final/0259_fw.mp4	0.0	159.2235391139984	
30	138.35380792617798	movie	1		245	28.0	2.5	/experiments/knapen_AOT/AOT_stimuli/rescaled_final/0259_fw.mp4	0.0	159.2316870689392	2.5086960792541504
30	139.9497790336609	pulse	1	t		28.0	2.5	/experiments/knapen_AOT/AOT_stimuli/rescaled_final/0259_fw.mp4	0.0	160.82765817642212	
30	140.86250400543213	fix_post	2		12	28.0	2.5	/experiments/knapen_AOT/AOT_stimuli/rescaled_final/0259_fw.mp4	0.0	161.74038314819336	0.10002493858337402
31	140.9625289440155	fix_pre	0		120	29.0	2.5	/experiments/knapen_AOT/AOT_stimuli/rescaled_final/1387_fw.mp4	0.0	161.84040808677673	1.000150203704834
31	141.54616808891296	pulse	0	t		29.0	2.5	/experiments/knapen_AOT/AOT_stimuli/rescaled_final/1387_fw.mp4	0.0	162.4240472316742	
31	141.96267914772034	movie	1		244	29.0	2.5	/experiments/knapen_AOT/AOT_stimuli/rescaled_final/1387_fw.mp4	0.0	162.84055829048157	2.5004148483276367
31	143.14298915863037	pulse	1	t		29.0	2.5	/experiments/knapen_AOT/AOT_stimuli/rescaled_final/1387_fw.mp4	0.0	164.0208683013916	
31	144.46309399604797	fix_post	2		12	29.0	2.5	/experiments/knapen_AOT/AOT_stimuli/rescaled_final/1387_fw.mp4	0.0	165.3409731388092	0.10006213188171387
32	144.5631561279297	fix_pre	0		120	30.0	2.5	/experiments/knapen_AOT/AOT_stimuli/rescaled_final/1398_rv.mp4	0.0	165.44103527069092	1.0000629425048828
32	144.7466380596161	pulse	0	t		30.0	2.5	/experiments/knapen_AOT/AOT_stimuli/rescaled_final/1398_rv.mp4	0.0	165.62451720237732	
32	145.56321907043457	movie	1		245	30.0	2.5	/experiments/knapen_AOT/AOT_stimuli/rescaled_final/1398_rv.mp4	0.0	166.4410982131958	2.5003440380096436
32	146.34679007530212	pulse	1	t		30.0	2.5	/experiments/knapen_AOT/AOT_stimuli/rescaled_final/1398_rv.mp4	0.0	167.22466921806335	
32	147.94470500946045	pulse	1	t		30.0	2.5	/experiments/knapen_AOT/AOT_stimuli/rescaled_final/1398_rv.mp4	0.0	168.82258415222168	
32	148.0635631084442	fix_post	2		12	30.0	2.5	/experiments/knapen_AOT/AOT_stimuli/rescaled_final/1398_rv.mp4	0.0	168.94144225120544	0.10002803802490234
33	148.16359114646912	fix_pre	0		119	31.0	2.5	/experiments/knapen_AOT/AOT_stimuli/rescaled_final/0787_fw.mp4	0.0	169.04147028923035	0.9918999671936035
33	149.15549111366272	movie	1		245	31.0	2.5	/experiments/knapen_AOT/AOT_stimuli/rescaled_final/0787_fw.mp4	0.0	170.03337025642395	2.500274896621704
33	149.54738116264343	pulse	1	t		31.0	2.5	/experiments/knapen_AOT/AOT_stimuli/rescaled_final/0787_fw.mp4	0.0	170.42526030540466	
33	151.14762997627258	pulse	1	t		31.0	2.5	/experiments/knapen_AOT/AOT_stimuli/rescaled_final/0787_fw.mp4	0.0	172.0255091190338	
33	151.65576601028442	fix_post	2		12	31.0	2.5	/experiments/knapen_AOT/AOT_stimuli/rescaled_final/0787_fw.mp4	0.0	172.53364515304565	0.10001492500305176
34	151.75578093528748	fix_pre	0		120	32.0	2.5	/experiments/knapen_AOT/AOT_stimuli/rescaled_final/2047_fw.mp4	0.0	172.6336600780487	1.0002012252807617
34	152.74771094322205	pulse	0	t		32.0	2.5	/experiments/knapen_AOT/AOT_stimuli/rescaled_final/2047_fw.mp4	0.0	173.62559008598328	
34	152.75598216056824	movie	1		245	32.0	2.5	/experiments/knapen_AOT/AOT_stimuli/rescaled_final/2047_fw.mp4	0.0	173.63386130332947	2.508668899536133
34	154.34872102737427	pulse	1	t		32.0	2.5	/experiments/knapen_AOT/AOT_stimuli/rescaled_final/2047_fw.mp4	0.0	175.2266001701355	
34	155.26465106010437	fix_post	2		12	32.0	2.5	/experiments/knapen_AOT/AOT_stimuli/rescaled_final/2047_fw.mp4	0.0	176.1425302028656	0.10001397132873535
35	155.3646650314331	fix_pre	0		120	33.0	2.5	/experiments/knapen_AOT/AOT_stimuli/rescaled_final/1557_rv.mp4	0.0	176.24254417419434	1.0001440048217773
35	155.94833493232727	pulse	0	t		33.0	2.5	/experiments/knapen_AOT/AOT_stimuli/rescaled_final/1557_rv.mp4	0.0	176.8262140750885	
35	156.36480903625488	movie	1		244	33.0	2.5	/experiments/knapen_AOT/AOT_stimuli/rescaled_final/1557_rv.mp4	0.0	177.2426881790161	2.5003960132598877
35	157.5486879348755	pulse	1	t		33.0	2.5	/experiments/knapen_AOT/AOT_stimuli/rescaled_final/1557_rv.mp4	0.0	178.42656707763672	
35	158.86520504951477	fix_post	2		12	33.0	2.5	/experiments/knapen_AOT/AOT_stimuli/rescaled_final/1557_rv.mp4	0.0	179.743084192276	0.10005593299865723
36	158.96526098251343	fix_pre	0		120	34.0	2.5	blank	1.0	179.84314012527466	1.0001211166381836
36	159.14879608154297	pulse	0	t		34.0	2.5	blank	1.0	180.0266752243042	
36	159.9653820991516	movie	1		299	34.0	2.5	blank	1.0	180.84326124191284	2.4920060634613037
36	160.74896097183228	pulse	1	t		34.0	2.5	blank	1.0	181.6268401145935	
36	162.34163808822632	pulse	1	t		34.0	2.5	blank	1.0	183.21951723098755	
36	162.45738816261292	fix_post	2		12	34.0	2.5	blank	1.0	183.33526730537415	0.10006093978881836
37	162.55744910240173	fix_pre	0		120	35.0	2.5	/experiments/knapen_AOT/AOT_stimuli/rescaled_final/1771_fw.mp4	0.0	183.43532824516296	1.0001158714294434
37	163.55756497383118	movie	1		244	35.0	2.5	/experiments/knapen_AOT/AOT_stimuli/rescaled_final/1771_fw.mp4	0.0	184.4354441165924	2.5003721714019775
37	163.94166111946106	pulse	1	t		35.0	2.5	/experiments/knapen_AOT/AOT_stimuli/rescaled_final/1771_fw.mp4	0.0	184.8195402622223	
37	165.54231309890747	pulse	1	t		35.0	2.5	/experiments/knapen_AOT/AOT_stimuli/rescaled_final/1771_fw.mp4	0.0	186.4201922416687	
37	166.05793714523315	fix_post	2		12	35.0	2.5	/experiments/knapen_AOT/AOT_stimuli/rescaled_final/1771_fw.mp4	0.0	186.93581628799438	0.10000491142272949
38	166.15794205665588	fix_pre	0		120	36.0	2.5	/experiments/knapen_AOT/AOT_stimuli/rescaled_final/0868_rv.mp4	0.0	187.03582119941711	1.000154972076416
38	167.14236402511597	pulse	0	t		36.0	2.5	/experiments/knapen_AOT/AOT_stimuli/rescaled_final/0868_rv.mp4	0.0	188.0202431678772	
38	167.1580970287323	movie	1		245	36.0	2.5	/experiments/knapen_AOT/AOT_stimuli/rescaled_final/0868_rv.mp4	0.0	188.03597617149353	2.50871205329895
38	168.74199199676514	pulse	1	t		36.0	2.5	/experiments/knapen_AOT/AOT_stimuli/rescaled_final/0868_rv.mp4	0.0	189.61987113952637	
38	169.66680908203125	fix_post	2		12	36.0	2.5	/experiments/knapen_AOT/AOT_stimuli/rescaled_final/0868_rv.mp4	0.0	190.54468822479248	0.09998607635498047
39	169.76679515838623	fix_pre	0		120	37.0	2.5	/experiments/knapen_AOT/AOT_stimuli/rescaled_final/1885_fw.mp4	0.0	190.64467430114746	1.0001659393310547
39	170.34199905395508	pulse	0	t		37.0	2.5	/experiments/knapen_AOT/AOT_stimuli/rescaled_final/1885_fw.mp4	0.0	191.2198781967163	
39	170.76696109771729	movie	1		244	37.0	2.5	/experiments/knapen_AOT/AOT_stimuli/rescaled_final/1885_fw.mp4	0.0	191.64484024047852	2.5003819465637207
39	171.9435510635376	pulse	1	t		37.0	2.5	/experiments/knapen_AOT/AOT_stimuli/rescaled_final/1885_fw.mp4	0.0	192.82143020629883	
39	173.267343044281	fix_post	2		12	37.0	2.5	/experiments/knapen_AOT/AOT_stimuli/rescaled_final/1885_fw.mp4	0.0	194.14522218704224	0.10007500648498535
40	173.367418050766	fix_pre	0		120	38.0	2.5	/experiments/knapen_AOT/AOT_stimuli/rescaled_final/1518_rv.mp4	0.0	194.24529719352722	1.000096082687378
40	173.54252004623413	pulse	0	t		38.0	2.5	/experiments/knapen_AOT/AOT_stimuli/rescaled_final/1518_rv.mp4	0.0	194.42039918899536	
40	174.36751413345337	movie	1		242	38.0	2.5	/experiments/knapen_AOT/AOT_stimuli/rescaled_final/1518_rv.mp4	0.0	195.2453932762146	2.4920289516448975
40	175.14272499084473	pulse	1	t		38.0	2.5	/experiments/knapen_AOT/AOT_stimuli/rescaled_final/1518_rv.mp4	0.0	196.02060413360596	
40	176.74306392669678	pulse	1	t		38.0	2.5	/experiments/knapen_AOT/AOT_stimuli/rescaled_final/1518_rv.mp4	0.0	197.620943069458	
40	176.85954308509827	fix_post	2		12	38.0	2.5	/experiments/knapen_AOT/AOT_stimuli/rescaled_final/1518_rv.mp4	0.0	197.7374222278595	0.09999799728393555
41	176.9595410823822	fix_pre	0		120	39.0	2.5	/experiments/knapen_AOT/AOT_stimuli/rescaled_final/0442_rv.mp4	0.0	197.83742022514343	1.000135898590088
41	177.9596769809723	movie	1		245	39.0	2.5	/experiments/knapen_AOT/AOT_stimuli/rescaled_final/0442_rv.mp4	0.0	198.83755612373352	2.5004031658172607
41	178.34376096725464	pulse	1	t		39.0	2.5	/experiments/knapen_AOT/AOT_stimuli/rescaled_final/0442_rv.mp4	0.0	199.22164011001587	
41	179.94358205795288	pulse	1	t		39.0	2.5	/experiments/knapen_AOT/AOT_stimuli/rescaled_final/0442_rv.mp4	0.0	200.8214612007141	
41	180.46008014678955	fix_post	2		12	39.0	2.5	/experiments/knapen_AOT/AOT_stimuli/rescaled_final/0442_rv.mp4	0.0	201.33795928955078	0.10001587867736816
42	180.56009602546692	fix_pre	0		119	40.0	2.5	/experiments/knapen_AOT/AOT_stimuli/rescaled_final/1008_rv.mp4	0.0	201.43797516822815	0.9918060302734375
42	181.5437409877777	pulse	0	t		40.0	2.5	/experiments/knapen_AOT/AOT_stimuli/rescaled_final/1008_rv.mp4	0.0	202.42162013053894	
42	181.55190205574036	movie	1		244	40.0	2.5	/experiments/knapen_AOT/AOT_stimuli/rescaled_final/1008_rv.mp4	0.0	202.4297811985016	2.5087080001831055
42	183.14541697502136	pulse	1	t		40.0	2.5	/experiments/knapen_AOT/AOT_stimuli/rescaled_final/1008_rv.mp4	0.0	204.0232961177826	
42	184.06061005592346	fix_post	2		12	40.0	2.5	/experiments/knapen_AOT/AOT_stimuli/rescaled_final/1008_rv.mp4	0.0	204.9384891986847	0.10000896453857422
43	184.16061902046204	fix_pre	0		120	41.0	2.5	/experiments/knapen_AOT/AOT_stimuli/rescaled_final/0531_fw.mp4	0.0	205.03849816322327	1.000190019607544
43	184.74426198005676	pulse	0	t		41.0	2.5	/experiments/knapen_AOT/AOT_stimuli/rescaled_final/0531_fw.mp4	0.0	205.622141122818	
43	185.16080904006958	movie	1		244	41.0	2.5	/experiments/knapen_AOT/AOT_stimuli/rescaled_final/0531_fw.mp4	0.0	206.0386881828308	2.5003609657287598
43	186.34452295303345	pulse	1	t		41.0	2.5	/experiments/knapen_AOT/AOT_stimuli/rescaled_final/0531_fw.mp4	0.0	207.22240209579468	
43	187.66117000579834	fix_post	2		12	41.0	2.5	/experiments/knapen_AOT/AOT_stimuli/rescaled_final/0531_fw.mp4	0.0	208.53904914855957	0.10003399848937988
44	187.76120400428772	fix_pre	0		120	42.0	2.5	blank	1.0	208.63908314704895	1.0001311302185059
44	187.94477701187134	pulse	0	t		42.0	2.5	blank	1.0	208.82265615463257	
44	188.76133513450623	movie	1		300	42.0	2.5	blank	1.0	209.63921427726746	2.500386953353882
44	189.54486513137817	pulse	1	t		42.0	2.5	blank	1.0	210.4227442741394	
44	191.14518404006958	pulse	1	t		42.0	2.5	blank	1.0	212.0230631828308	
44	191.2617220878601	fix_post	2		12	42.0	2.5	blank	1.0	212.13960123062134	0.0999748706817627
45	191.36169695854187	fix_pre	0		119	43.0	2.5	/experiments/knapen_AOT/AOT_stimuli/rescaled_final/1943_rv.mp4	0.0	212.2395761013031	0.9918200969696045
45	192.35351705551147	movie	1		243	43.0	2.5	/experiments/knapen_AOT/AOT_stimuli/rescaled_final/1943_rv.mp4	0.0	213.2313961982727	2.50039005279541
45	192.745530128479	pulse	1	t		43.0	2.5	/experiments/knapen_AOT/AOT_stimuli/rescaled_final/1943_rv.mp4	0.0	213.62340927124023	
45	194.3456859588623	pulse	1	t		43.0	2.5	/experiments/knapen_AOT/AOT_stimuli/rescaled_final/1943_rv.mp4	0.0	215.22356510162354	
45	194.85390710830688	fix_post	2		8	43.0	2.5	/experiments/knapen_AOT/AOT_stimuli/rescaled_final/1943_rv.mp4	0.0	215.73178625106812	0.10004091262817383
46	194.95394802093506	fix_pre	0		120	44.0	2.5	/experiments/knapen_AOT/AOT_stimuli/rescaled_final/1804_rv.mp4	0.0	215.8318271636963	1.0001020431518555
46	195.9458429813385	pulse	0	t		44.0	2.5	/experiments/knapen_AOT/AOT_stimuli/rescaled_final/1804_rv.mp4	0.0	216.82372212409973	
46	195.9540500640869	movie	1		247	44.0	2.5	/experiments/knapen_AOT/AOT_stimuli/rescaled_final/1804_rv.mp4	0.0	216.83192920684814	2.508708953857422
46	197.54680109024048	pulse	1	t		44.0	2.5	/experiments/knapen_AOT/AOT_stimuli/rescaled_final/1804_rv.mp4	0.0	218.4246802330017	
46	198.46275901794434	fix_post	2		12	44.0	2.5	/experiments/knapen_AOT/AOT_stimuli/rescaled_final/1804_rv.mp4	0.0	219.34063816070557	0.10001111030578613
47	198.56277012825012	fix_pre	0		120	45.0	2.5	/experiments/knapen_AOT/AOT_stimuli/rescaled_final/1557_fw.mp4	0.0	219.44064927101135	1.0002188682556152
47	199.14640498161316	pulse	0	t		45.0	2.5	/experiments/knapen_AOT/AOT_stimuli/rescaled_final/1557_fw.mp4	0.0	220.0242841243744	
47	199.56298899650574	movie	1		244	45.0	2.5	/experiments/knapen_AOT/AOT_stimuli/rescaled_final/1557_fw.mp4	0.0	220.44086813926697	2.500339984893799
47	200.74344515800476	pulse	1	t		45.0	2.5	/experiments/knapen_AOT/AOT_stimuli/rescaled_final/1557_fw.mp4	0.0	221.621324300766	
47	202.06332898139954	fix_post	2		12	45.0	2.5	/experiments/knapen_AOT/AOT_stimuli/rescaled_final/1557_fw.mp4	0.0	222.94120812416077	0.09998512268066406
48	202.1633141040802	fix_pre	0		120	46.0	2.5	/experiments/knapen_AOT/AOT_stimuli/rescaled_final/0255_rv.mp4	0.0	223.04119324684143	1.0001699924468994
48	202.34689497947693	pulse	0	t		46.0	2.5	/experiments/knapen_AOT/AOT_stimuli/rescaled_final/0255_rv.mp4	0.0	223.22477412223816	
48	203.1634840965271	movie	1		243	46.0	2.5	/experiments/knapen_AOT/AOT_stimuli/rescaled_final/0255_rv.mp4	0.0	224.04136323928833	2.500356912612915
48	203.94714903831482	pulse	1	t		46.0	2.5	/experiments/knapen_AOT/AOT_stimuli/rescaled_final/0255_rv.mp4	0.0	224.82502818107605	
48	205.5479760169983	pulse	1	t		46.0	2.5	/experiments/knapen_AOT/AOT_stimuli/rescaled_final/0255_rv.mp4	0.0	226.42585515975952	
48	205.66384100914001	fix_post	2		12	46.0	2.5	/experiments/knapen_AOT/AOT_stimuli/rescaled_final/0255_rv.mp4	0.0	226.54172015190125	0.1000220775604248
49	205.76386308670044	fix_pre	0		119	47.0	2.5	blank	1.0	226.64174222946167	0.9918010234832764
49	206.75566411018372	movie	1		300	47.0	2.5	blank	1.0	227.63354325294495	2.5004019737243652
49	207.14758110046387	pulse	1	t		47.0	2.5	blank	1.0	228.0254602432251	
49	208.74785113334656	pulse	1	t		47.0	2.5	blank	1.0	229.6257302761078	
49	209.25606608390808	fix_post	2		12	47.0	2.5	blank	1.0	230.1339452266693	0.10004401206970215
50	209.35611009597778	fix_pre	0		120	48.0	2.5	/experiments/knapen_AOT/AOT_stimuli/rescaled_final/1862_rv.mp4	0.0	230.233989238739	1.000087022781372
50	210.34808802604675	pulse	0	t		48.0	2.5	/experiments/knapen_AOT/AOT_stimuli/rescaled_final/1862_rv.mp4	0.0	231.22596716880798	
50	210.35619711875916	movie	1		245	48.0	2.5	/experiments/knapen_AOT/AOT_stimuli/rescaled_final/1862_rv.mp4	0.0	231.23407626152039	2.50872802734375
50	211.9490511417389	pulse	1	t		48.0	2.5	/experiments/knapen_AOT/AOT_stimuli/rescaled_final/1862_rv.mp4	0.0	232.82693028450012	
50	212.8649251461029	fix_post	2		12	48.0	2.5	/experiments/knapen_AOT/AOT_stimuli/rescaled_final/1862_rv.mp4	0.0	233.74280428886414	0.10001087188720703
51	212.9649360179901	fix_pre	0		120	49.0	2.5	/experiments/knapen_AOT/AOT_stimuli/rescaled_final/1872_rv.mp4	0.0	233.84281516075134	1.000148057937622
51	213.54847192764282	pulse	0	t		49.0	2.5	/experiments/knapen_AOT/AOT_stimuli/rescaled_final/1872_rv.mp4	0.0	234.42635107040405	
51	213.96508407592773	movie	1		243	49.0	2.5	/experiments/knapen_AOT/AOT_stimuli/rescaled_final/1872_rv.mp4	0.0	234.84296321868896	2.5003628730773926
51	215.14882397651672	pulse	1	t		49.0	2.5	/experiments/knapen_AOT/AOT_stimuli/rescaled_final/1872_rv.mp4	0.0	236.02670311927795	
51	216.46544694900513	fix_post	2		12	49.0	2.5	/experiments/knapen_AOT/AOT_stimuli/rescaled_final/1872_rv.mp4	0.0	237.34332609176636	0.10004305839538574
52	216.5654900074005	fix_pre	0		120	50.0	2.5	/experiments/knapen_AOT/AOT_stimuli/rescaled_final/1764_fw.mp4	0.0	237.44336915016174	1.0001180171966553
52	216.74913096427917	pulse	0	t		50.0	2.5	/experiments/knapen_AOT/AOT_stimuli/rescaled_final/1764_fw.mp4	0.0	237.6270101070404	
52	217.56560802459717	movie	1		244	50.0	2.5	/experiments/knapen_AOT/AOT_stimuli/rescaled_final/1764_fw.mp4	0.0	238.4434871673584	2.500391960144043
52	218.34936499595642	pulse	1	t		50.0	2.5	/experiments/knapen_AOT/AOT_stimuli/rescaled_final/1764_fw.mp4	0.0	239.22724413871765	
52	219.9496729373932	pulse	1	t		50.0	2.5	/experiments/knapen_AOT/AOT_stimuli/rescaled_final/1764_fw.mp4	0.0	240.82755208015442	
52	220.0659999847412	fix_post	2		12	50.0	2.5	/experiments/knapen_AOT/AOT_stimuli/rescaled_final/1764_fw.mp4	0.0	240.94387912750244	0.10003805160522461
53	220.16603803634644	fix_pre	0		120	51.0	2.5	/experiments/knapen_AOT/AOT_stimuli/rescaled_final/0834_fw.mp4	0.0	241.04391717910767	1.0001211166381836
53	221.16615915298462	movie	1		243	51.0	2.5	/experiments/knapen_AOT/AOT_stimuli/rescaled_final/0834_fw.mp4	0.0	242.04403829574585	2.4920737743377686
53	221.55112314224243	pulse	1	t		51.0	2.5	/experiments/knapen_AOT/AOT_stimuli/rescaled_final/0834_fw.mp4	0.0	242.42900228500366	
53	223.14262914657593	pulse	1	t		51.0	2.5	/experiments/knapen_AOT/AOT_stimuli/rescaled_final/0834_fw.mp4	0.0	244.02050828933716	
53	223.6582329273224	fix_post	2		12	51.0	2.5	/experiments/knapen_AOT/AOT_stimuli/rescaled_final/0834_fw.mp4	0.0	244.53611207008362	0.10000300407409668
54	223.75823593139648	fix_pre	0		120	52.0	2.5	/experiments/knapen_AOT/AOT_stimuli/rescaled_final/0328_fw.mp4	0.0	244.63611507415771	1.0001142024993896
54	224.7426061630249	pulse	0	t		52.0	2.5	/experiments/knapen_AOT/AOT_stimuli/rescaled_final/0328_fw.mp4	0.0	245.62048530578613	
54	224.75835013389587	movie	1		245	52.0	2.5	/experiments/knapen_AOT/AOT_stimuli/rescaled_final/0328_fw.mp4	0.0	245.6362292766571	2.5087039470672607
54	226.3509271144867	pulse	1	t		52.0	2.5	/experiments/knapen_AOT/AOT_stimuli/rescaled_final/0328_fw.mp4	0.0	247.22880625724792	
54	227.26705408096313	fix_post	2		12	52.0	2.5	/experiments/knapen_AOT/AOT_stimuli/rescaled_final/0328_fw.mp4	0.0	248.14493322372437	0.10001301765441895
55	227.36706709861755	fix_pre	0		120	53.0	2.5	/experiments/knapen_AOT/AOT_stimuli/rescaled_final/2096_fw.mp4	0.0	248.24494624137878	1.0001869201660156
55	227.94310593605042	pulse	0	t		53.0	2.5	/experiments/knapen_AOT/AOT_stimuli/rescaled_final/2096_fw.mp4	0.0	248.82098507881165	
55	228.36725401878357	movie	1		245	53.0	2.5	/experiments/knapen_AOT/AOT_stimuli/rescaled_final/2096_fw.mp4	0.0	249.2451331615448	2.5003409385681152
55	229.54393100738525	pulse	1	t		53.0	2.5	/experiments/knapen_AOT/AOT_stimuli/rescaled_final/2096_fw.mp4	0.0	250.42181015014648	
55	230.86759495735168	fix_post	2		12	53.0	2.5	/experiments/knapen_AOT/AOT_stimuli/rescaled_final/2096_fw.mp4	0.0	251.74547410011292	0.10002517700195312
56	230.96762013435364	fix_pre	0		120	54.0	2.5	/experiments/knapen_AOT/AOT_stimuli/rescaled_final/0904_rv.mp4	0.0	251.84549927711487	1.0001349449157715
56	231.1427149772644	pulse	0	t		54.0	2.5	/experiments/knapen_AOT/AOT_stimuli/rescaled_final/0904_rv.mp4	0.0	252.02059412002563	
56	231.9677550792694	movie	1		245	54.0	2.5	/experiments/knapen_AOT/AOT_stimuli/rescaled_final/0904_rv.mp4	0.0	252.84563422203064	2.500385046005249
56	232.74310612678528	pulse	1	t		54.0	2.5	/experiments/knapen_AOT/AOT_stimuli/rescaled_final/0904_rv.mp4	0.0	253.6209852695465	
56	234.34348011016846	pulse	1	t		54.0	2.5	/experiments/knapen_AOT/AOT_stimuli/rescaled_final/0904_rv.mp4	0.0	255.2213592529297	
56	234.46814012527466	fix_post	2		12	54.0	2.5	/experiments/knapen_AOT/AOT_stimuli/rescaled_final/0904_rv.mp4	0.0	255.3460192680359	0.10003185272216797
57	234.56817197799683	fix_pre	0		120	55.0	2.5	blank	1.0	255.44605112075806	1.0001771450042725
57	235.5683491230011	movie	1		299	55.0	2.5	blank	1.0	256.44622826576233	2.492003917694092
57	235.94361305236816	pulse	1	t		55.0	2.5	blank	1.0	256.8214921951294	
57	237.5436749458313	pulse	1	t		55.0	2.5	blank	1.0	258.42155408859253	
57	238.0603530406952	fix_post	2		12	55.0	2.5	blank	1.0	258.9382321834564	0.1000359058380127
58	238.1603889465332	fix_pre	0		119	56.0	2.5	/experiments/knapen_AOT/AOT_stimuli/rescaled_final/0686_fw.mp4	0.0	259.03826808929443	0.9917900562286377
58	239.14395594596863	pulse	0	t		56.0	2.5	/experiments/knapen_AOT/AOT_stimuli/rescaled_final/0686_fw.mp4	0.0	260.02183508872986	
58	239.15217900276184	movie	1		245	56.0	2.5	/experiments/knapen_AOT/AOT_stimuli/rescaled_final/0686_fw.mp4	0.0	260.03005814552307	2.5087180137634277
58	240.74463200569153	pulse	1	t		56.0	2.5	/experiments/knapen_AOT/AOT_stimuli/rescaled_final/0686_fw.mp4	0.0	261.62251114845276	
58	241.66089701652527	fix_post	2		12	56.0	2.5	/experiments/knapen_AOT/AOT_stimuli/rescaled_final/0686_fw.mp4	0.0	262.5387761592865	0.100006103515625
59	241.7609031200409	fix_pre	0		120	57.0	2.5	/experiments/knapen_AOT/AOT_stimuli/rescaled_final/0142_fw.mp4	0.0	262.6387822628021	1.0001578330993652
59	242.34459114074707	pulse	0	t		57.0	2.5	/experiments/knapen_AOT/AOT_stimuli/rescaled_final/0142_fw.mp4	0.0	263.2224702835083	
59	242.76106095314026	movie	1		245	57.0	2.5	/experiments/knapen_AOT/AOT_stimuli/rescaled_final/0142_fw.mp4	0.0	263.6389400959015	2.5003671646118164
59	243.94476294517517	pulse	1	t		57.0	2.5	/experiments/knapen_AOT/AOT_stimuli/rescaled_final/0142_fw.mp4	0.0	264.8226420879364	
59	245.26142811775208	fix_post	2		12	57.0	2.5	/experiments/knapen_AOT/AOT_stimuli/rescaled_final/0142_fw.mp4	0.0	266.1393072605133	0.10007882118225098
60	245.36150693893433	fix_pre	0		120	58.0	2.5	/experiments/knapen_AOT/AOT_stimuli/rescaled_final/1958_fw.mp4	0.0	266.23938608169556	1.00006103515625
60	245.54496908187866	pulse	0	t		58.0	2.5	/experiments/knapen_AOT/AOT_stimuli/rescaled_final/1958_fw.mp4	0.0	266.4228482246399	
60	246.36156797409058	movie	1		243	58.0	2.5	/experiments/knapen_AOT/AOT_stimuli/rescaled_final/1958_fw.mp4	0.0	267.2394471168518	2.5003721714019775
60	247.1453399658203	pulse	1	t		58.0	2.5	/experiments/knapen_AOT/AOT_stimuli/rescaled_final/1958_fw.mp4	0.0	268.02321910858154	
60	248.74526000022888	pulse	1	t		58.0	2.5	/experiments/knapen_AOT/AOT_stimuli/rescaled_final/1958_fw.mp4	0.0	269.6231391429901	
60	248.86194014549255	fix_post	2		12	58.0	2.5	/experiments/knapen_AOT/AOT_stimuli/rescaled_final/1958_fw.mp4	0.0	269.7398192882538	0.10004997253417969
61	248.96199011802673	fix_pre	0		119	59.0	2.5	/experiments/knapen_AOT/AOT_stimuli/rescaled_final/1492_rv.mp4	0.0	269.83986926078796	0.9918279647827148
61	249.95381808280945	movie	1		244	59.0	2.5	/experiments/knapen_AOT/AOT_stimuli/rescaled_final/1492_rv.mp4	0.0	270.8316972255707	2.5003280639648438
61	250.3457851409912	pulse	1	t		59.0	2.5	/experiments/knapen_AOT/AOT_stimuli/rescaled_final/1492_rv.mp4	0.0	271.22366428375244	
61	251.94586205482483	pulse	1	t		59.0	2.5	/experiments/knapen_AOT/AOT_stimuli/rescaled_final/1492_rv.mp4	0.0	272.82374119758606	
61	252.4541461467743	fix_post	2		12	59.0	2.5	/experiments/knapen_AOT/AOT_stimuli/rescaled_final/1492_rv.mp4	0.0	273.3320252895355	0.1000068187713623
62	252.55415296554565	fix_pre	0		117	60.0	2.5	/experiments/knapen_AOT/AOT_stimuli/rescaled_final/1571_fw.mp4	0.0	273.4320321083069	1.0001590251922607
62	253.546138048172	pulse	0	t		60.0	2.5	/experiments/knapen_AOT/AOT_stimuli/rescaled_final/1571_fw.mp4	0.0	274.4240171909332	
62	253.55431199073792	movie	1		244	60.0	2.5	/experiments/knapen_AOT/AOT_stimuli/rescaled_final/1571_fw.mp4	0.0	274.43219113349915	2.508721113204956
62	255.14680099487305	pulse	1	t		60.0	2.5	/experiments/knapen_AOT/AOT_stimuli/rescaled_final/1571_fw.mp4	0.0	276.0246801376343	
62	256.06303310394287	fix_post	2		12	60.0	2.5	/experiments/knapen_AOT/AOT_stimuli/rescaled_final/1571_fw.mp4	0.0	276.9409122467041	0.09999299049377441
63	256.16302609443665	fix_pre	0		120	61.0	2.5	/experiments/knapen_AOT/AOT_stimuli/rescaled_final/1347_rv.mp4	0.0	277.0409052371979	1.0002448558807373
63	256.7466650009155	pulse	0	t		61.0	2.5	/experiments/knapen_AOT/AOT_stimuli/rescaled_final/1347_rv.mp4	0.0	277.62454414367676	
63	257.1632709503174	movie	1		244	61.0	2.5	/experiments/knapen_AOT/AOT_stimuli/rescaled_final/1347_rv.mp4	0.0	278.0411500930786	2.500291109085083
63	258.34703612327576	pulse	1	t		61.0	2.5	/experiments/knapen_AOT/AOT_stimuli/rescaled_final/1347_rv.mp4	0.0	279.224915266037	
63	259.66356205940247	fix_post	2		12	61.0	2.5	/experiments/knapen_AOT/AOT_stimuli/rescaled_final/1347_rv.mp4	0.0	280.5414412021637	0.10000896453857422
64	259.76357102394104	fix_pre	0		120	62.0	2.5	blank	1.0	280.64145016670227	1.0001490116119385
64	259.9470570087433	pulse	0	t		62.0	2.5	blank	1.0	280.8249361515045	
64	260.763720035553	movie	1		300	62.0	2.5	blank	1.0	281.6415991783142	2.5003950595855713
64	261.54746413230896	pulse	1	t		62.0	2.5	blank	1.0	282.4253432750702	
64	263.14764499664307	pulse	1	t		62.0	2.5	blank	1.0	284.0255241394043	
64	263.26411509513855	fix_post	2		12	62.0	2.5	blank	1.0	284.1419942378998	0.09998893737792969
65	263.3641040325165	fix_pre	0		120	63.0	2.5	/experiments/knapen_AOT/AOT_stimuli/rescaled_final/0840_fw.mp4	0.0	284.2419831752777	1.0001749992370605
65	264.36427903175354	movie	1		243	63.0	2.5	/experiments/knapen_AOT/AOT_stimuli/rescaled_final/0840_fw.mp4	0.0	285.24215817451477	2.4920449256896973
65	264.7484929561615	pulse	1	t		63.0	2.5	/experiments/knapen_AOT/AOT_stimuli/rescaled_final/0840_fw.mp4	0.0	285.62637209892273	
65	266.3480131626129	pulse	1	t		63.0	2.5	/experiments/knapen_AOT/AOT_stimuli/rescaled_final/0840_fw.mp4	0.0	287.22589230537415	
65	266.85632395744324	fix_post	2		12	63.0	2.5	/experiments/knapen_AOT/AOT_stimuli/rescaled_final/0840_fw.mp4	0.0	287.73420310020447	0.09999918937683105
66	266.95632314682007	fix_pre	0		120	64.0	2.5	/experiments/knapen_AOT/AOT_stimuli/rescaled_final/0502_rv.mp4	0.0	287.8342022895813	1.000119924545288
66	267.94832706451416	pulse	0	t		64.0	2.5	/experiments/knapen_AOT/AOT_stimuli/rescaled_final/0502_rv.mp4	0.0	288.8262062072754	
66	267.95644307136536	movie	1		244	64.0	2.5	/experiments/knapen_AOT/AOT_stimuli/rescaled_final/0502_rv.mp4	0.0	288.8343222141266	2.5087270736694336
66	269.5491659641266	pulse	1	t		64.0	2.5	/experiments/knapen_AOT/AOT_stimuli/rescaled_final/0502_rv.mp4	0.0	290.4270451068878	
66	270.4651701450348	fix_post	2		12	64.0	2.5	/experiments/knapen_AOT/AOT_stimuli/rescaled_final/0502_rv.mp4	0.0	291.343049287796	0.10000300407409668
67	270.5651731491089	fix_pre	0		120	65.0	2.5	/experiments/knapen_AOT/AOT_stimuli/rescaled_final/1250_fw.mp4	0.0	291.4430522918701	1.0001568794250488
67	271.14876914024353	pulse	0	t		65.0	2.5	/experiments/knapen_AOT/AOT_stimuli/rescaled_final/1250_fw.mp4	0.0	292.02664828300476	
67	271.56533002853394	movie	1		245	65.0	2.5	/experiments/knapen_AOT/AOT_stimuli/rescaled_final/1250_fw.mp4	0.0	292.44320917129517	2.5003669261932373
67	272.74910402297974	pulse	1	t		65.0	2.5	/experiments/knapen_AOT/AOT_stimuli/rescaled_final/1250_fw.mp4	0.0	293.62698316574097	
67	274.0656969547272	fix_post	2		12	65.0	2.5	/experiments/knapen_AOT/AOT_stimuli/rescaled_final/1250_fw.mp4	0.0	294.9435760974884	0.10003018379211426
68	274.1657271385193	fix_pre	0		120	66.0	2.5	/experiments/knapen_AOT/AOT_stimuli/rescaled_final/1008_rv.mp4	0.0	295.0436062812805	1.0001649856567383
68	274.3492250442505	pulse	0	t		66.0	2.5	/experiments/knapen_AOT/AOT_stimuli/rescaled_final/1008_rv.mp4	0.0	295.2271041870117	
68	275.165892124176	movie	1		243	66.0	2.5	/experiments/knapen_AOT/AOT_stimuli/rescaled_final/1008_rv.mp4	0.0	296.04377126693726	2.5003859996795654
68	275.9421191215515	pulse	1	t		66.0	2.5	/experiments/knapen_AOT/AOT_stimuli/rescaled_final/1008_rv.mp4	0.0	296.81999826431274	
68	277.5497441291809	pulse	1	t		66.0	2.5	/experiments/knapen_AOT/AOT_stimuli/rescaled_final/1008_rv.mp4	0.0	298.42762327194214	
68	277.6662781238556	fix_post	2		12	66.0	2.5	/experiments/knapen_AOT/AOT_stimuli/rescaled_final/1008_rv.mp4	0.0	298.5441572666168	0.10006403923034668
69	277.76634216308594	fix_pre	0		120	67.0	2.5	/experiments/knapen_AOT/AOT_stimuli/rescaled_final/1359_fw.mp4	0.0	298.64422130584717	1.0000298023223877
69	278.7663719654083	movie	1		242	67.0	2.5	/experiments/knapen_AOT/AOT_stimuli/rescaled_final/1359_fw.mp4	0.0	299.64425110816956	2.492136001586914
69	279.15149307250977	pulse	1	t		67.0	2.5	/experiments/knapen_AOT/AOT_stimuli/rescaled_final/1359_fw.mp4	0.0	300.029372215271	
69	280.74299597740173	pulse	1	t		67.0	2.5	/experiments/knapen_AOT/AOT_stimuli/rescaled_final/1359_fw.mp4	0.0	301.62087512016296	
69	281.25850796699524	fix_post	2		12	67.0	2.5	/experiments/knapen_AOT/AOT_stimuli/rescaled_final/1359_fw.mp4	0.0	302.13638710975647	0.09994912147521973
70	281.35845708847046	fix_pre	0		119	68.0	2.5	blank	1.0	302.2363362312317	0.9918918609619141
70	282.3420989513397	pulse	0	t		68.0	2.5	blank	1.0	303.21997809410095	
70	282.3503489494324	movie	1		301	68.0	2.5	blank	1.0	303.2282280921936	2.5086441040039062
70	283.9422881603241	pulse	1	t		68.0	2.5	blank	1.0	304.8201673030853	
70	284.8589930534363	fix_post	2		12	68.0	2.5	blank	1.0	305.7368721961975	0.09999608993530273
71	284.9589891433716	fix_pre	0		120	69.0	2.5	/experiments/knapen_AOT/AOT_stimuli/rescaled_final/0956_fw.mp4	0.0	305.8368682861328	1.000182867050171
71	285.5426869392395	pulse	0	t		69.0	2.5	/experiments/knapen_AOT/AOT_stimuli/rescaled_final/0956_fw.mp4	0.0	306.42056608200073	
71	285.95917201042175	movie	1		244	69.0	2.5	/experiments/knapen_AOT/AOT_stimuli/rescaled_final/0956_fw.mp4	0.0	306.837051153183	2.500369071960449
71	287.1428780555725	pulse	1	t		69.0	2.5	/experiments/knapen_AOT/AOT_stimuli/rescaled_final/0956_fw.mp4	0.0	308.02075719833374	
71	288.4595410823822	fix_post	2		12	69.0	2.5	/experiments/knapen_AOT/AOT_stimuli/rescaled_final/0956_fw.mp4	0.0	309.33742022514343	0.10003399848937988
72	288.5595750808716	fix_pre	0		120	70.0	2.5	/experiments/knapen_AOT/AOT_stimuli/rescaled_final/1083_rv.mp4	0.0	309.4374542236328	1.0001490116119385
72	288.7431399822235	pulse	0	t		70.0	2.5	/experiments/knapen_AOT/AOT_stimuli/rescaled_final/1083_rv.mp4	0.0	309.62101912498474	
72	289.5597240924835	movie	1		245	70.0	2.5	/experiments/knapen_AOT/AOT_stimuli/rescaled_final/1083_rv.mp4	0.0	310.43760323524475	2.50032901763916
72	290.34337997436523	pulse	1	t		70.0	2.5	/experiments/knapen_AOT/AOT_stimuli/rescaled_final/1083_rv.mp4	0.0	311.22125911712646	
72	291.94352197647095	pulse	1	t		70.0	2.5	/experiments/knapen_AOT/AOT_stimuli/rescaled_final/1083_rv.mp4	0.0	312.8214011192322	
72	292.0600531101227	fix_post	2		12	70.0	2.5	/experiments/knapen_AOT/AOT_stimuli/rescaled_final/1083_rv.mp4	0.0	312.9379322528839	0.10002994537353516
73	292.1600830554962	fix_pre	0		120	71.0	2.5	/experiments/knapen_AOT/AOT_stimuli/rescaled_final/1843_rv.mp4	0.0	313.03796219825745	1.0001180171966553
73	293.16020107269287	movie	1		243	71.0	2.5	/experiments/knapen_AOT/AOT_stimuli/rescaled_final/1843_rv.mp4	0.0	314.0380802154541	2.4920549392700195
73	293.54414415359497	pulse	1	t		71.0	2.5	/experiments/knapen_AOT/AOT_stimuli/rescaled_final/1843_rv.mp4	0.0	314.4220232963562	
73	295.14412093162537	pulse	1	t		71.0	2.5	/experiments/knapen_AOT/AOT_stimuli/rescaled_final/1843_rv.mp4	0.0	316.0220000743866	
73	295.6522560119629	fix_post	2		12	71.0	2.5	/experiments/knapen_AOT/AOT_stimuli/rescaled_final/1843_rv.mp4	0.0	316.5301351547241	0.10001492500305176
74	295.75227093696594	fix_pre	0		120	72.0	2.5	/experiments/knapen_AOT/AOT_stimuli/rescaled_final/0065_rv.mp4	0.0	316.6301500797272	1.0001821517944336
74	296.74429392814636	pulse	0	t		72.0	2.5	/experiments/knapen_AOT/AOT_stimuli/rescaled_final/0065_rv.mp4	0.0	317.6221730709076	
74	296.7524530887604	movie	1		245	72.0	2.5	/experiments/knapen_AOT/AOT_stimuli/rescaled_final/0065_rv.mp4	0.0	317.6303322315216	2.5087080001831055
74	298.3450651168823	pulse	1	t		72.0	2.5	/experiments/knapen_AOT/AOT_stimuli/rescaled_final/0065_rv.mp4	0.0	319.22294425964355	
74	299.2611610889435	fix_post	2		12	72.0	2.5	/experiments/knapen_AOT/AOT_stimuli/rescaled_final/0065_rv.mp4	0.0	320.1390402317047	0.09999203681945801
75	299.36115312576294	fix_pre	0		120	73.0	2.5	/experiments/knapen_AOT/AOT_stimuli/rescaled_final/1347_fw.mp4	0.0	320.23903226852417	1.0001158714294434
75	299.9447090625763	pulse	0	t		73.0	2.5	/experiments/knapen_AOT/AOT_stimuli/rescaled_final/1347_fw.mp4	0.0	320.8225882053375	
75	300.3612689971924	movie	1		245	73.0	2.5	/experiments/knapen_AOT/AOT_stimuli/rescaled_final/1347_fw.mp4	0.0	321.2391481399536	2.5004050731658936
75	301.54502511024475	pulse	1	t		73.0	2.5	/experiments/knapen_AOT/AOT_stimuli/rescaled_final/1347_fw.mp4	0.0	322.422904253006	
75	302.8616740703583	fix_post	2		12	73.0	2.5	/experiments/knapen_AOT/AOT_stimuli/rescaled_final/1347_fw.mp4	0.0	323.7395532131195	0.10007095336914062
76	302.9617450237274	fix_pre	0		120	74.0	2.5	/experiments/knapen_AOT/AOT_stimuli/rescaled_final/1348_rv.mp4	0.0	323.83962416648865	1.000108003616333
76	303.14532494544983	pulse	0	t		74.0	2.5	/experiments/knapen_AOT/AOT_stimuli/rescaled_final/1348_rv.mp4	0.0	324.02320408821106	
76	303.96185302734375	movie	1		243	74.0	2.5	/experiments/knapen_AOT/AOT_stimuli/rescaled_final/1348_rv.mp4	0.0	324.839732170105	2.500354051589966
76	304.745502948761	pulse	1	t		74.0	2.5	/experiments/knapen_AOT/AOT_stimuli/rescaled_final/1348_rv.mp4	0.0	325.6233820915222	
76	306.3456530570984	pulse	1	t		74.0	2.5	/experiments/knapen_AOT/AOT_stimuli/rescaled_final/1348_rv.mp4	0.0	327.2235321998596	
76	306.4622070789337	fix_post	2		12	74.0	2.5	/experiments/knapen_AOT/AOT_stimuli/rescaled_final/1348_rv.mp4	0.0	327.34008622169495	0.10008597373962402
77	306.56229305267334	fix_pre	0		120	75.0	2.5	/experiments/knapen_AOT/AOT_stimuli/rescaled_final/1083_rv.mp4	0.0	327.44017219543457	1.000075101852417
77	307.56236815452576	movie	1		243	75.0	2.5	/experiments/knapen_AOT/AOT_stimuli/rescaled_final/1083_rv.mp4	0.0	328.440247297287	2.4920589923858643
77	307.9462699890137	pulse	1	t		75.0	2.5	/experiments/knapen_AOT/AOT_stimuli/rescaled_final/1083_rv.mp4	0.0	328.8241491317749	
77	309.54630303382874	pulse	1	t		75.0	2.5	/experiments/knapen_AOT/AOT_stimuli/rescaled_final/1083_rv.mp4	0.0	330.42418217658997	
77	310.0544271469116	fix_post	2		12	75.0	2.5	/experiments/knapen_AOT/AOT_stimuli/rescaled_final/1083_rv.mp4	0.0	330.93230628967285	0.10001993179321289
78	310.15444707870483	fix_pre	0		120	76.0	2.5	blank	1.0	331.03232622146606	1.0001518726348877
78	311.14650893211365	pulse	0	t		76.0	2.5	blank	1.0	332.0243880748749	
78	311.1545989513397	movie	1		301	76.0	2.5	blank	1.0	332.03247809410095	2.50872802734375
78	312.7466881275177	pulse	1	t		76.0	2.5	blank	1.0	333.62456727027893	
78	313.6633269786835	fix_post	2		12	76.0	2.5	blank	1.0	334.5412061214447	0.1000521183013916
79	313.76337909698486	fix_pre	0		120	77.0	2.5	/experiments/knapen_AOT/AOT_stimuli/rescaled_final/0389_fw.mp4	0.0	334.6412582397461	1.0001049041748047
79	314.34693694114685	pulse	0	t		77.0	2.5	/experiments/knapen_AOT/AOT_stimuli/rescaled_final/0389_fw.mp4	0.0	335.2248160839081	
79	314.76348400115967	movie	1		243	77.0	2.5	/experiments/knapen_AOT/AOT_stimuli/rescaled_final/0389_fw.mp4	0.0	335.6413631439209	2.500333070755005
79	315.9471960067749	pulse	1	t		77.0	2.5	/experiments/knapen_AOT/AOT_stimuli/rescaled_final/0389_fw.mp4	0.0	336.82507514953613	
79	317.2638170719147	fix_post	2		12	77.0	2.5	/experiments/knapen_AOT/AOT_stimuli/rescaled_final/0389_fw.mp4	0.0	338.1416962146759	0.10002589225769043
80	317.36384296417236	fix_pre	0		120	78.0	2.5	/experiments/knapen_AOT/AOT_stimuli/rescaled_final/1697_rv.mp4	0.0	338.2417221069336	1.0001661777496338
80	317.54744505882263	pulse	0	t		78.0	2.5	/experiments/knapen_AOT/AOT_stimuli/rescaled_final/1697_rv.mp4	0.0	338.42532420158386	
80	318.364009141922	movie	1		243	78.0	2.5	/experiments/knapen_AOT/AOT_stimuli/rescaled_final/1697_rv.mp4	0.0	339.2418882846832	2.500339984893799
80	319.1475479602814	pulse	1	t		78.0	2.5	/experiments/knapen_AOT/AOT_stimuli/rescaled_final/1697_rv.mp4	0.0	340.0254271030426	
80	320.7482240200043	pulse	1	t		78.0	2.5	/experiments/knapen_AOT/AOT_stimuli/rescaled_final/1697_rv.mp4	0.0	341.6261031627655	
80	320.8643491268158	fix_post	2		12	78.0	2.5	/experiments/knapen_AOT/AOT_stimuli/rescaled_final/1697_rv.mp4	0.0	341.742228269577	0.10008502006530762
81	320.9644341468811	fix_pre	0		120	79.0	2.5	/experiments/knapen_AOT/AOT_stimuli/rescaled_final/1885_fw.mp4	0.0	341.84231328964233	1.0000779628753662
81	321.96451210975647	movie	1		243	79.0	2.5	/experiments/knapen_AOT/AOT_stimuli/rescaled_final/1885_fw.mp4	0.0	342.8423912525177	2.4920589923858643
81	322.3484721183777	pulse	1	t		79.0	2.5	/experiments/knapen_AOT/AOT_stimuli/rescaled_final/1885_fw.mp4	0.0	343.2263512611389	
81	323.94844698905945	pulse	1	t		79.0	2.5	/experiments/knapen_AOT/AOT_stimuli/rescaled_final/1885_fw.mp4	0.0	344.8263261318207	
81	324.45657110214233	fix_post	2		12	79.0	2.5	/experiments/knapen_AOT/AOT_stimuli/rescaled_final/1885_fw.mp4	0.0	345.33445024490356	0.10001397132873535
82	324.55658507347107	fix_pre	0		120	80.0	2.5	/experiments/knapen_AOT/AOT_stimuli/rescaled_final/0901_rv.mp4	0.0	345.4344642162323	1.0001349449157715
82	325.5486030578613	pulse	0	t		80.0	2.5	/experiments/knapen_AOT/AOT_stimuli/rescaled_final/0901_rv.mp4	0.0	346.42648220062256	
82	325.55672001838684	movie	1		249	80.0	2.5	/experiments/knapen_AOT/AOT_stimuli/rescaled_final/0901_rv.mp4	0.0	346.43459916114807	2.508726119995117
82	327.1492381095886	pulse	1	t		80.0	2.5	/experiments/knapen_AOT/AOT_stimuli/rescaled_final/0901_rv.mp4	0.0	348.02711725234985	
82	328.06544613838196	fix_post	2		12	80.0	2.5	/experiments/knapen_AOT/AOT_stimuli/rescaled_final/0901_rv.mp4	0.0	348.9433252811432	0.10000181198120117
83	328.16544795036316	fix_pre	0		120	81.0	2.5	/experiments/knapen_AOT/AOT_stimuli/rescaled_final/0436_fw.mp4	0.0	349.0433270931244	1.0001370906829834
83	328.74910402297974	pulse	0	t		81.0	2.5	/experiments/knapen_AOT/AOT_stimuli/rescaled_final/0436_fw.mp4	0.0	349.62698316574097	
83	329.16558504104614	movie	1		244	81.0	2.5	/experiments/knapen_AOT/AOT_stimuli/rescaled_final/0436_fw.mp4	0.0	350.0434641838074	2.500425100326538
83	330.34937715530396	pulse	1	t		81.0	2.5	/experiments/knapen_AOT/AOT_stimuli/rescaled_final/0436_fw.mp4	0.0	351.2272562980652	
83	331.6660101413727	fix_post	2		12	81.0	2.5	/experiments/knapen_AOT/AOT_stimuli/rescaled_final/0436_fw.mp4	0.0	352.5438892841339	0.1000058650970459
84	331.7660160064697	fix_pre	0		120	82.0	2.5	/experiments/knapen_AOT/AOT_stimuli/rescaled_final/0323_fw.mp4	0.0	352.64389514923096	1.0001020431518555
84	331.9496099948883	pulse	0	t		82.0	2.5	/experiments/knapen_AOT/AOT_stimuli/rescaled_final/0323_fw.mp4	0.0	352.82748913764954	
84	332.7661180496216	movie	1		244	82.0	2.5	/experiments/knapen_AOT/AOT_stimuli/rescaled_final/0323_fw.mp4	0.0	353.6439971923828	2.5003979206085205
84	333.5497031211853	pulse	1	t		82.0	2.5	/experiments/knapen_AOT/AOT_stimuli/rescaled_final/0323_fw.mp4	0.0	354.42758226394653	
84	335.14995193481445	pulse	1	t		82.0	2.5	/experiments/knapen_AOT/AOT_stimuli/rescaled_final/0323_fw.mp4	0.0	356.0278310775757	
84	335.2665159702301	fix_post	2		12	82.0	2.5	/experiments/knapen_AOT/AOT_stimuli/rescaled_final/0323_fw.mp4	0.0	356.14439511299133	0.10001397132873535
85	335.36652994155884	fix_pre	0		120	83.0	2.5	blank	1.0	356.24440908432007	1.0001201629638672
85	336.3666501045227	movie	1		299	83.0	2.5	blank	1.0	357.24452924728394	2.4920709133148193
85	336.7504060268402	pulse	1	t		83.0	2.5	blank	1.0	357.62828516960144	
85	338.34298515319824	pulse	1	t		83.0	2.5	blank	1.0	359.2208642959595	
85	338.8587210178375	fix_post	2		12	83.0	2.5	blank	1.0	359.73660016059875	0.1000070571899414
87	338.95872807502747	stim	0		1716					359.8366072177887	14.302191972732544
87	339.94344210624695	pulse	0	t						360.8213212490082	
87	341.54259514808655	pulse	0	t						362.4204742908478	
87	343.14275312423706	pulse	0	t						364.0206322669983	
87	344.74309396743774	pulse	0	t						365.620973110199	
87	346.34324407577515	pulse	0	t						367.2211232185364	
87	347.94351601600647	pulse	0	t						368.8213951587677	
87	349.54373812675476	pulse	0	t						370.421617269516	
87	351.1439781188965	pulse	0	t						372.0218572616577	
87	352.7442331314087	pulse	0	t						373.6221122741699	
