trial_nr	onset	event_type	phase	response	nr_frames	movie_index	movie_duration	movie_file	blank	onset_abs	duration
0	0.16650891304016113	stim	0		29					17.01636552810669	0.2415769100189209
0	0.40000057220458984	response	0	space						17.249857187271118	
1	0.40808582305908203	stim	0		4726					17.25794243812561	39.40093374252319
1	39.79468131065369	pulse	0	t						56.644537925720215	
1	39.809019565582275	stim	1		1715					56.658876180648804	14.298821687698364
1	41.38968300819397	pulse	1	t						58.2395396232605	
1	42.989800214767456	pulse	1	t						59.839656829833984	
1	44.589928150177	pulse	1	t						61.43978476524353	
1	46.19018507003784	pulse	1	t						63.04004168510437	
1	47.79041266441345	pulse	1	t						64.64026927947998	
1	49.39067339897156	pulse	1	t						66.24053001403809	
1	50.990976095199585	pulse	1	t						67.84083271026611	
1	52.59110999107361	pulse	1	t						69.44096660614014	
2	54.10784125328064	fix_pre	0		11	0.0	2.5	/experiments/knapen_AOT/AOT_stimuli/rescaled_final/1019_rv.mp4	0.0	70.95769786834717	0.10842776298522949
2	54.183470010757446	pulse	0	t		0.0	2.5	/experiments/knapen_AOT/AOT_stimuli/rescaled_final/1019_rv.mp4	0.0	71.03332662582397	
2	54.21626901626587	movie	1		281	0.0	2.5	/experiments/knapen_AOT/AOT_stimuli/rescaled_final/1019_rv.mp4	0.0	71.0661256313324	2.491955518722534
2	55.783628940582275	pulse	1	t		0.0	2.5	/experiments/knapen_AOT/AOT_stimuli/rescaled_final/1019_rv.mp4	0.0	72.6334855556488	
2	56.7082245349884	fix_post	2		12	0.0	2.5	/experiments/knapen_AOT/AOT_stimuli/rescaled_final/1019_rv.mp4	0.0	73.55808115005493	0.1000361442565918
3	56.808260679244995	fix_pre	0		120	1.0	2.5	/experiments/knapen_AOT/AOT_stimuli/rescaled_final/1726_fw.mp4	0.0	73.65811729431152	1.008514165878296
3	57.38356685638428	pulse	0	t		1.0	2.5	/experiments/knapen_AOT/AOT_stimuli/rescaled_final/1726_fw.mp4	0.0	74.2334234714508	
3	57.81677484512329	movie	1		267	1.0	2.5	/experiments/knapen_AOT/AOT_stimuli/rescaled_final/1726_fw.mp4	0.0	74.66663146018982	2.491999626159668
3	58.98375487327576	pulse	1	t		1.0	2.5	/experiments/knapen_AOT/AOT_stimuli/rescaled_final/1726_fw.mp4	0.0	75.83361148834229	
3	60.30877447128296	fix_post	2		12	1.0	2.5	/experiments/knapen_AOT/AOT_stimuli/rescaled_final/1726_fw.mp4	0.0	77.15863108634949	0.10001969337463379
4	60.40879416465759	fix_pre	0		120	2.0	2.5	/experiments/knapen_AOT/AOT_stimuli/rescaled_final/0595_fw.mp4	0.0	77.25865077972412	1.0084831714630127
4	60.58403515815735	pulse	0	t		2.0	2.5	/experiments/knapen_AOT/AOT_stimuli/rescaled_final/0595_fw.mp4	0.0	77.43389177322388	
4	61.417277336120605	movie	1		278	2.0	2.5	/experiments/knapen_AOT/AOT_stimuli/rescaled_final/0595_fw.mp4	0.0	78.26713395118713	2.4920411109924316
4	62.184276819229126	pulse	1	t		2.0	2.5	/experiments/knapen_AOT/AOT_stimuli/rescaled_final/0595_fw.mp4	0.0	79.03413343429565	
4	63.784735679626465	pulse	1	t		2.0	2.5	/experiments/knapen_AOT/AOT_stimuli/rescaled_final/0595_fw.mp4	0.0	80.634592294693	
4	63.90931844711304	fix_post	2		12	2.0	2.5	/experiments/knapen_AOT/AOT_stimuli/rescaled_final/0595_fw.mp4	0.0	80.75917506217957	0.10001087188720703
5	64.00932931900024	fix_pre	0		120	3.0	2.5	/experiments/knapen_AOT/AOT_stimuli/rescaled_final/0750_rv.mp4	0.0	80.85918593406677	1.008521318435669
5	65.01785063743591	movie	1		278	3.0	2.5	/experiments/knapen_AOT/AOT_stimuli/rescaled_final/0750_rv.mp4	0.0	81.86770725250244	2.4920451641082764
5	65.38386464118958	pulse	1	t		3.0	2.5	/experiments/knapen_AOT/AOT_stimuli/rescaled_final/0750_rv.mp4	0.0	82.2337212562561	
5	66.98503470420837	pulse	1	t		3.0	2.5	/experiments/knapen_AOT/AOT_stimuli/rescaled_final/0750_rv.mp4	0.0	83.8348913192749	
5	67.50989580154419	fix_post	2		12	3.0	2.5	/experiments/knapen_AOT/AOT_stimuli/rescaled_final/0750_rv.mp4	0.0	84.35975241661072	0.10004949569702148
6	67.60994529724121	fix_pre	0		118	4.0	2.5	/experiments/knapen_AOT/AOT_stimuli/rescaled_final/1639_fw.mp4	0.0	84.45980191230774	0.9917445182800293
6	68.58523607254028	pulse	0	t		4.0	2.5	/experiments/knapen_AOT/AOT_stimuli/rescaled_final/1639_fw.mp4	0.0	85.43509268760681	
6	68.60168981552124	movie	1		275	4.0	2.5	/experiments/knapen_AOT/AOT_stimuli/rescaled_final/1639_fw.mp4	0.0	85.45154643058777	2.5004324913024902
6	70.1855685710907	pulse	1	t		4.0	2.5	/experiments/knapen_AOT/AOT_stimuli/rescaled_final/1639_fw.mp4	0.0	87.03542518615723	
6	71.10212230682373	fix_post	2		12	4.0	2.5	/experiments/knapen_AOT/AOT_stimuli/rescaled_final/1639_fw.mp4	0.0	87.95197892189026	0.10000967979431152
7	71.20213198661804	fix_pre	0		120	5.0	2.5	blank	1.0	88.05198860168457	1.0001029968261719
7	71.78570175170898	pulse	0	t		5.0	2.5	blank	1.0	88.63555836677551	
7	72.20223498344421	movie	1		300	5.0	2.5	blank	1.0	89.05209159851074	2.5003795623779297
7	73.38600492477417	pulse	1	t		5.0	2.5	blank	1.0	90.2358615398407	
7	74.70261454582214	fix_post	2		12	5.0	2.5	blank	1.0	91.55247116088867	0.10006093978881836
8	74.80267548561096	fix_pre	0		120	6.0	2.5	/experiments/knapen_AOT/AOT_stimuli/rescaled_final/0827_fw.mp4	0.0	91.65253210067749	1.0084738731384277
8	74.98619651794434	pulse	0	t		6.0	2.5	/experiments/knapen_AOT/AOT_stimuli/rescaled_final/0827_fw.mp4	0.0	91.83605313301086	
8	75.81114935874939	movie	1		286	6.0	2.5	/experiments/knapen_AOT/AOT_stimuli/rescaled_final/0827_fw.mp4	0.0	92.66100597381592	2.491994619369507
8	76.58434796333313	pulse	1	t		6.0	2.5	/experiments/knapen_AOT/AOT_stimuli/rescaled_final/0827_fw.mp4	0.0	93.43420457839966	
8	78.18459439277649	pulse	1	t		6.0	2.5	/experiments/knapen_AOT/AOT_stimuli/rescaled_final/0827_fw.mp4	0.0	95.03445100784302	
8	78.3031439781189	fix_post	2		12	6.0	2.5	/experiments/knapen_AOT/AOT_stimuli/rescaled_final/0827_fw.mp4	0.0	95.15300059318542	0.10001754760742188
9	78.40316152572632	fix_pre	0		120	7.0	2.5	/experiments/knapen_AOT/AOT_stimuli/rescaled_final/1123_rv.mp4	0.0	95.25301814079285	1.0085229873657227
9	79.41168451309204	movie	1		286	7.0	2.5	/experiments/knapen_AOT/AOT_stimuli/rescaled_final/1123_rv.mp4	0.0	96.26154112815857	2.492016553878784
9	79.78699684143066	pulse	1	t		7.0	2.5	/experiments/knapen_AOT/AOT_stimuli/rescaled_final/1123_rv.mp4	0.0	96.63685345649719	
9	81.38503861427307	pulse	1	t		7.0	2.5	/experiments/knapen_AOT/AOT_stimuli/rescaled_final/1123_rv.mp4	0.0	98.2348952293396	
9	81.90370106697083	fix_post	2		12	7.0	2.5	/experiments/knapen_AOT/AOT_stimuli/rescaled_final/1123_rv.mp4	0.0	98.75355768203735	0.10004711151123047
10	82.00374817848206	fix_pre	0		119	8.0	2.5	/experiments/knapen_AOT/AOT_stimuli/rescaled_final/0643_fw.mp4	0.0	98.85360479354858	1.0001323223114014
10	82.98738074302673	pulse	0	t		8.0	2.5	/experiments/knapen_AOT/AOT_stimuli/rescaled_final/0643_fw.mp4	0.0	99.83723735809326	
10	83.00388050079346	movie	1		289	8.0	2.5	/experiments/knapen_AOT/AOT_stimuli/rescaled_final/0643_fw.mp4	0.0	99.85373711585999	2.500356674194336
10	84.5859477519989	pulse	1	t		8.0	2.5	/experiments/knapen_AOT/AOT_stimuli/rescaled_final/0643_fw.mp4	0.0	101.43580436706543	
10	85.5042371749878	fix_post	2		12	8.0	2.5	/experiments/knapen_AOT/AOT_stimuli/rescaled_final/0643_fw.mp4	0.0	102.35409379005432	0.10011959075927734
11	85.60435676574707	fix_pre	0		120	9.0	2.5	/experiments/knapen_AOT/AOT_stimuli/rescaled_final/1930_fw.mp4	0.0	102.4542133808136	1.0084197521209717
11	86.18814659118652	pulse	0	t		9.0	2.5	/experiments/knapen_AOT/AOT_stimuli/rescaled_final/1930_fw.mp4	0.0	103.03800320625305	
11	86.61277651786804	movie	1		279	9.0	2.5	/experiments/knapen_AOT/AOT_stimuli/rescaled_final/1930_fw.mp4	0.0	103.46263313293457	2.4919886589050293
11	87.78637623786926	pulse	1	t		9.0	2.5	/experiments/knapen_AOT/AOT_stimuli/rescaled_final/1930_fw.mp4	0.0	104.63623285293579	
11	89.10476517677307	fix_post	2		12	9.0	2.5	/experiments/knapen_AOT/AOT_stimuli/rescaled_final/1930_fw.mp4	0.0	105.9546217918396	0.10001873970031738
12	89.20478391647339	fix_pre	0		120	10.0	2.5	/experiments/knapen_AOT/AOT_stimuli/rescaled_final/1506_fw.mp4	0.0	106.05464053153992	1.0085108280181885
12	89.38833260536194	pulse	0	t		10.0	2.5	/experiments/knapen_AOT/AOT_stimuli/rescaled_final/1506_fw.mp4	0.0	106.23818922042847	
12	90.21329474449158	movie	1		278	10.0	2.5	/experiments/knapen_AOT/AOT_stimuli/rescaled_final/1506_fw.mp4	0.0	107.0631513595581	2.492070436477661
12	90.98676109313965	pulse	1	t		10.0	2.5	/experiments/knapen_AOT/AOT_stimuli/rescaled_final/1506_fw.mp4	0.0	107.83661770820618	
12	92.58663249015808	pulse	1	t		10.0	2.5	/experiments/knapen_AOT/AOT_stimuli/rescaled_final/1506_fw.mp4	0.0	109.43648910522461	
12	92.70536518096924	fix_post	2		12	10.0	2.5	/experiments/knapen_AOT/AOT_stimuli/rescaled_final/1506_fw.mp4	0.0	109.55522179603577	0.09996795654296875
13	92.8053331375122	fix_pre	0		120	11.0	2.5	/experiments/knapen_AOT/AOT_stimuli/rescaled_final/0624_rv.mp4	0.0	109.65518975257874	1.008497953414917
13	93.81383109092712	movie	1		278	11.0	2.5	/experiments/knapen_AOT/AOT_stimuli/rescaled_final/0624_rv.mp4	0.0	110.66368770599365	2.492017984390259
13	94.18753337860107	pulse	1	t		11.0	2.5	/experiments/knapen_AOT/AOT_stimuli/rescaled_final/0624_rv.mp4	0.0	111.0373899936676	
13	95.78785276412964	pulse	1	t		11.0	2.5	/experiments/knapen_AOT/AOT_stimuli/rescaled_final/0624_rv.mp4	0.0	112.63770937919617	
13	96.30584907531738	fix_post	2		12	11.0	2.5	/experiments/knapen_AOT/AOT_stimuli/rescaled_final/0624_rv.mp4	0.0	113.15570569038391	0.10004663467407227
14	96.40589570999146	fix_pre	0		119	12.0	2.5	/experiments/knapen_AOT/AOT_stimuli/rescaled_final/1151_rv.mp4	0.0	113.25575232505798	1.0001518726348877
14	97.38962006568909	pulse	0	t		12.0	2.5	/experiments/knapen_AOT/AOT_stimuli/rescaled_final/1151_rv.mp4	0.0	114.23947668075562	
14	97.40604758262634	movie	1		278	12.0	2.5	/experiments/knapen_AOT/AOT_stimuli/rescaled_final/1151_rv.mp4	0.0	114.25590419769287	2.5003507137298584
14	98.98794841766357	pulse	1	t		12.0	2.5	/experiments/knapen_AOT/AOT_stimuli/rescaled_final/1151_rv.mp4	0.0	115.8378050327301	
14	99.9063982963562	fix_post	2		12	12.0	2.5	/experiments/knapen_AOT/AOT_stimuli/rescaled_final/1151_rv.mp4	0.0	116.75625491142273	0.10001230239868164
15	100.00641059875488	fix_pre	0		120	13.0	2.5	blank	1.0	116.85626721382141	1.0001754760742188
15	100.59024858474731	pulse	0	t		13.0	2.5	blank	1.0	117.44010519981384	
15	101.0065860748291	movie	1		300	13.0	2.5	blank	1.0	117.85644268989563	2.500347852706909
15	102.1830084323883	pulse	1	t		13.0	2.5	blank	1.0	119.03286504745483	
15	103.50693392753601	fix_post	2		12	13.0	2.5	blank	1.0	120.35679054260254	0.10001635551452637
16	103.60695028305054	fix_pre	0		120	14.0	2.5	/experiments/knapen_AOT/AOT_stimuli/rescaled_final/0985_fw.mp4	0.0	120.45680689811707	1.0084912776947021
16	103.7833526134491	pulse	0	t		14.0	2.5	/experiments/knapen_AOT/AOT_stimuli/rescaled_final/0985_fw.mp4	0.0	120.63320922851562	
16	104.61544156074524	movie	1		283	14.0	2.5	/experiments/knapen_AOT/AOT_stimuli/rescaled_final/0985_fw.mp4	0.0	121.46529817581177	2.492033004760742
16	105.38975811004639	pulse	1	t		14.0	2.5	/experiments/knapen_AOT/AOT_stimuli/rescaled_final/0985_fw.mp4	0.0	122.23961472511292	
16	106.98301863670349	pulse	1	t		14.0	2.5	/experiments/knapen_AOT/AOT_stimuli/rescaled_final/0985_fw.mp4	0.0	123.83287525177002	
16	107.10747456550598	fix_post	2		12	14.0	2.5	/experiments/knapen_AOT/AOT_stimuli/rescaled_final/0985_fw.mp4	0.0	123.95733118057251	0.10005950927734375
17	107.20753407478333	fix_pre	0		120	15.0	2.5	/experiments/knapen_AOT/AOT_stimuli/rescaled_final/0092_fw.mp4	0.0	124.05739068984985	1.0084705352783203
17	108.21600461006165	movie	1		275	15.0	2.5	/experiments/knapen_AOT/AOT_stimuli/rescaled_final/0092_fw.mp4	0.0	125.06586122512817	2.492011547088623
17	108.58336400985718	pulse	1	t		15.0	2.5	/experiments/knapen_AOT/AOT_stimuli/rescaled_final/0092_fw.mp4	0.0	125.4332206249237	
17	110.18352103233337	pulse	1	t		15.0	2.5	/experiments/knapen_AOT/AOT_stimuli/rescaled_final/0092_fw.mp4	0.0	127.0333776473999	
17	110.70801615715027	fix_post	2		12	15.0	2.5	/experiments/knapen_AOT/AOT_stimuli/rescaled_final/0092_fw.mp4	0.0	127.5578727722168	0.10001635551452637
18	110.8080325126648	fix_pre	0		118	16.0	2.5	/experiments/knapen_AOT/AOT_stimuli/rescaled_final/0292_fw.mp4	0.0	127.65788912773132	0.9917936325073242
18	111.78339219093323	pulse	0	t		16.0	2.5	/experiments/knapen_AOT/AOT_stimuli/rescaled_final/0292_fw.mp4	0.0	128.63324880599976	
18	111.79982614517212	movie	1		276	16.0	2.5	/experiments/knapen_AOT/AOT_stimuli/rescaled_final/0292_fw.mp4	0.0	128.64968276023865	2.500432252883911
18	113.383718252182	pulse	1	t		16.0	2.5	/experiments/knapen_AOT/AOT_stimuli/rescaled_final/0292_fw.mp4	0.0	130.23357486724854	
18	114.30025839805603	fix_post	2		12	16.0	2.5	/experiments/knapen_AOT/AOT_stimuli/rescaled_final/0292_fw.mp4	0.0	131.15011501312256	0.10004067420959473
19	114.40029907226562	fix_pre	0		120	17.0	2.5	/experiments/knapen_AOT/AOT_stimuli/rescaled_final/1592_fw.mp4	0.0	131.25015568733215	1.0086350440979004
19	114.98428654670715	pulse	0	t		17.0	2.5	/experiments/knapen_AOT/AOT_stimuli/rescaled_final/1592_fw.mp4	0.0	131.83414316177368	
19	115.40893411636353	movie	1		272	17.0	2.5	/experiments/knapen_AOT/AOT_stimuli/rescaled_final/1592_fw.mp4	0.0	132.25879073143005	2.491823434829712
19	116.58429169654846	pulse	1	t		17.0	2.5	/experiments/knapen_AOT/AOT_stimuli/rescaled_final/1592_fw.mp4	0.0	133.434148311615	
19	117.90075755119324	fix_post	2		12	17.0	2.5	/experiments/knapen_AOT/AOT_stimuli/rescaled_final/1592_fw.mp4	0.0	134.75061416625977	0.10006070137023926
20	118.00081825256348	fix_pre	0		120	18.0	2.5	/experiments/knapen_AOT/AOT_stimuli/rescaled_final/0076_rv.mp4	0.0	134.85067486763	1.0084717273712158
20	118.18441033363342	pulse	0	t		18.0	2.5	/experiments/knapen_AOT/AOT_stimuli/rescaled_final/0076_rv.mp4	0.0	135.03426694869995	
20	119.00928997993469	movie	1		275	18.0	2.5	/experiments/knapen_AOT/AOT_stimuli/rescaled_final/0076_rv.mp4	0.0	135.85914659500122	2.492013692855835
20	119.78460597991943	pulse	1	t		18.0	2.5	/experiments/knapen_AOT/AOT_stimuli/rescaled_final/0076_rv.mp4	0.0	136.63446259498596	
20	121.3848648071289	pulse	1	t		18.0	2.5	/experiments/knapen_AOT/AOT_stimuli/rescaled_final/0076_rv.mp4	0.0	138.23472142219543	
20	121.50130367279053	fix_post	2		12	18.0	2.5	/experiments/knapen_AOT/AOT_stimuli/rescaled_final/0076_rv.mp4	0.0	138.35116028785706	0.1000223159790039
21	121.60132598876953	fix_pre	0		120	19.0	2.5	/experiments/knapen_AOT/AOT_stimuli/rescaled_final/1099_rv.mp4	0.0	138.45118260383606	1.0085375308990479
21	122.60986351966858	movie	1		270	19.0	2.5	/experiments/knapen_AOT/AOT_stimuli/rescaled_final/1099_rv.mp4	0.0	139.4597201347351	2.4920175075531006
21	122.98341941833496	pulse	1	t		19.0	2.5	/experiments/knapen_AOT/AOT_stimuli/rescaled_final/1099_rv.mp4	0.0	139.8332760334015	
21	124.58336234092712	pulse	1	t		19.0	2.5	/experiments/knapen_AOT/AOT_stimuli/rescaled_final/1099_rv.mp4	0.0	141.43321895599365	
21	125.10188102722168	fix_post	2		12	19.0	2.5	/experiments/knapen_AOT/AOT_stimuli/rescaled_final/1099_rv.mp4	0.0	141.9517376422882	0.09999513626098633
22	125.20187616348267	fix_pre	0		119	20.0	2.5	/experiments/knapen_AOT/AOT_stimuli/rescaled_final/0567_rv.mp4	0.0	142.0517327785492	1.0085642337799072
22	126.18558073043823	pulse	0	t		20.0	2.5	/experiments/knapen_AOT/AOT_stimuli/rescaled_final/0567_rv.mp4	0.0	143.03543734550476	
22	126.21044039726257	movie	1		272	20.0	2.5	/experiments/knapen_AOT/AOT_stimuli/rescaled_final/0567_rv.mp4	0.0	143.0602970123291	2.4921019077301025
22	127.78397536277771	pulse	1	t		20.0	2.5	/experiments/knapen_AOT/AOT_stimuli/rescaled_final/0567_rv.mp4	0.0	144.63383197784424	
22	128.70254230499268	fix_post	2		12	20.0	2.5	/experiments/knapen_AOT/AOT_stimuli/rescaled_final/0567_rv.mp4	0.0	145.5523989200592	0.09990549087524414
23	128.80244779586792	fix_pre	0		120	21.0	2.5	blank	1.0	145.65230441093445	1.0001614093780518
23	129.38619232177734	pulse	0	t		21.0	2.5	blank	1.0	146.23604893684387	
23	129.80260920524597	movie	1		300	21.0	2.5	blank	1.0	146.6524658203125	2.500307321548462
23	130.98636078834534	pulse	1	t		21.0	2.5	blank	1.0	147.83621740341187	
23	132.30291652679443	fix_post	2		12	21.0	2.5	blank	1.0	149.15277314186096	0.10006403923034668
24	132.40298056602478	fix_pre	0		120	22.0	2.5	/experiments/knapen_AOT/AOT_stimuli/rescaled_final/0196_rv.mp4	0.0	149.2528371810913	1.0084764957427979
24	132.58650255203247	pulse	0	t		22.0	2.5	/experiments/knapen_AOT/AOT_stimuli/rescaled_final/0196_rv.mp4	0.0	149.436359167099	
24	133.41145706176758	movie	1		274	22.0	2.5	/experiments/knapen_AOT/AOT_stimuli/rescaled_final/0196_rv.mp4	0.0	150.2613136768341	2.492016077041626
24	134.1847689151764	pulse	1	t		22.0	2.5	/experiments/knapen_AOT/AOT_stimuli/rescaled_final/0196_rv.mp4	0.0	151.03462553024292	
24	135.78477883338928	pulse	1	t		22.0	2.5	/experiments/knapen_AOT/AOT_stimuli/rescaled_final/0196_rv.mp4	0.0	152.6346354484558	
24	135.9034731388092	fix_post	2		12	22.0	2.5	/experiments/knapen_AOT/AOT_stimuli/rescaled_final/0196_rv.mp4	0.0	152.75332975387573	0.10002374649047852
25	136.00349688529968	fix_pre	0		120	23.0	2.5	/experiments/knapen_AOT/AOT_stimuli/rescaled_final/0475_fw.mp4	0.0	152.8533535003662	1.0084986686706543
25	137.01199555397034	movie	1		274	23.0	2.5	/experiments/knapen_AOT/AOT_stimuli/rescaled_final/0475_fw.mp4	0.0	153.86185216903687	2.4920175075531006
25	137.38568592071533	pulse	1	t		23.0	2.5	/experiments/knapen_AOT/AOT_stimuli/rescaled_final/0475_fw.mp4	0.0	154.23554253578186	
25	138.98505187034607	pulse	1	t		23.0	2.5	/experiments/knapen_AOT/AOT_stimuli/rescaled_final/0475_fw.mp4	0.0	155.8349084854126	
25	139.50401306152344	fix_post	2		12	23.0	2.5	/experiments/knapen_AOT/AOT_stimuli/rescaled_final/0475_fw.mp4	0.0	156.35386967658997	0.10001850128173828
26	139.60403156280518	fix_pre	0		119	24.0	2.5	/experiments/knapen_AOT/AOT_stimuli/rescaled_final/0960_rv.mp4	0.0	156.4538881778717	1.0001659393310547
26	140.58777141571045	pulse	0	t		24.0	2.5	/experiments/knapen_AOT/AOT_stimuli/rescaled_final/0960_rv.mp4	0.0	157.43762803077698	
26	140.60419750213623	movie	1		281	24.0	2.5	/experiments/knapen_AOT/AOT_stimuli/rescaled_final/0960_rv.mp4	0.0	157.45405411720276	2.5003669261932373
26	142.18714666366577	pulse	1	t		24.0	2.5	/experiments/knapen_AOT/AOT_stimuli/rescaled_final/0960_rv.mp4	0.0	159.0370032787323	
26	143.10456442832947	fix_post	2		12	24.0	2.5	/experiments/knapen_AOT/AOT_stimuli/rescaled_final/0960_rv.mp4	0.0	159.954421043396	0.1000053882598877
27	143.20456981658936	fix_pre	0		120	25.0	2.5	/experiments/knapen_AOT/AOT_stimuli/rescaled_final/0223_fw.mp4	0.0	160.05442643165588	1.0084826946258545
27	143.7882263660431	pulse	0	t		25.0	2.5	/experiments/knapen_AOT/AOT_stimuli/rescaled_final/0223_fw.mp4	0.0	160.63808298110962	
27	144.2130525112152	movie	1		267	25.0	2.5	/experiments/knapen_AOT/AOT_stimuli/rescaled_final/0223_fw.mp4	0.0	161.06290912628174	2.4920451641082764
27	145.38658738136292	pulse	1	t		25.0	2.5	/experiments/knapen_AOT/AOT_stimuli/rescaled_final/0223_fw.mp4	0.0	162.23644399642944	
27	146.7050976753235	fix_post	2		12	25.0	2.5	/experiments/knapen_AOT/AOT_stimuli/rescaled_final/0223_fw.mp4	0.0	163.55495429039001	0.10001373291015625
28	146.80511140823364	fix_pre	0		120	26.0	2.5	blank	1.0	163.65496802330017	1.0001380443572998
28	146.98870420455933	pulse	0	t		26.0	2.5	blank	1.0	163.83856081962585	
28	147.80524945259094	movie	1		300	26.0	2.5	blank	1.0	164.65510606765747	2.5003926753997803
28	148.58891415596008	pulse	1	t		26.0	2.5	blank	1.0	165.4387707710266	
28	150.18917107582092	pulse	1	t		26.0	2.5	blank	1.0	167.03902769088745	
28	150.30564212799072	fix_post	2		12	26.0	2.5	blank	1.0	167.15549874305725	0.10002017021179199
29	150.40566229820251	fix_pre	0		120	27.0	2.5	/experiments/knapen_AOT/AOT_stimuli/rescaled_final/1256_rv.mp4	0.0	167.25551891326904	1.0084748268127441
29	151.41413712501526	movie	1		280	27.0	2.5	/experiments/knapen_AOT/AOT_stimuli/rescaled_final/1256_rv.mp4	0.0	168.2639937400818	2.4920358657836914
29	151.7885148525238	pulse	1	t		27.0	2.5	/experiments/knapen_AOT/AOT_stimuli/rescaled_final/1256_rv.mp4	0.0	168.63837146759033	
29	153.3878972530365	pulse	1	t		27.0	2.5	/experiments/knapen_AOT/AOT_stimuli/rescaled_final/1256_rv.mp4	0.0	170.23775386810303	
29	153.90617299079895	fix_post	2		12	27.0	2.5	/experiments/knapen_AOT/AOT_stimuli/rescaled_final/1256_rv.mp4	0.0	170.75602960586548	0.1000216007232666
30	154.00619459152222	fix_pre	0		119	28.0	2.5	/experiments/knapen_AOT/AOT_stimuli/rescaled_final/1279_rv.mp4	0.0	170.85605120658875	1.0002052783966064
30	154.99005150794983	pulse	0	t		28.0	2.5	/experiments/knapen_AOT/AOT_stimuli/rescaled_final/1279_rv.mp4	0.0	171.83990812301636	
30	155.00639986991882	movie	1		283	28.0	2.5	/experiments/knapen_AOT/AOT_stimuli/rescaled_final/1279_rv.mp4	0.0	171.85625648498535	2.5003983974456787
30	156.58936500549316	pulse	1	t		28.0	2.5	/experiments/knapen_AOT/AOT_stimuli/rescaled_final/1279_rv.mp4	0.0	173.4392216205597	
30	157.5067982673645	fix_post	2		12	28.0	2.5	/experiments/knapen_AOT/AOT_stimuli/rescaled_final/1279_rv.mp4	0.0	174.35665488243103	0.09994125366210938
31	157.6067395210266	fix_pre	0		120	29.0	2.5	/experiments/knapen_AOT/AOT_stimuli/rescaled_final/1967_rv.mp4	0.0	174.45659613609314	1.0084893703460693
31	158.19071865081787	pulse	0	t		29.0	2.5	/experiments/knapen_AOT/AOT_stimuli/rescaled_final/1967_rv.mp4	0.0	175.0405752658844	
31	158.61522889137268	movie	1		270	29.0	2.5	/experiments/knapen_AOT/AOT_stimuli/rescaled_final/1967_rv.mp4	0.0	175.4650855064392	2.4920804500579834
31	159.78847217559814	pulse	1	t		29.0	2.5	/experiments/knapen_AOT/AOT_stimuli/rescaled_final/1967_rv.mp4	0.0	176.63832879066467	
31	161.10730934143066	fix_post	2		12	29.0	2.5	/experiments/knapen_AOT/AOT_stimuli/rescaled_final/1967_rv.mp4	0.0	177.9571659564972	0.09995627403259277
32	161.20726561546326	fix_pre	0		120	30.0	2.5	/experiments/knapen_AOT/AOT_stimuli/rescaled_final/1150_rv.mp4	0.0	178.05712223052979	1.0085289478302002
32	161.38404631614685	pulse	0	t		30.0	2.5	/experiments/knapen_AOT/AOT_stimuli/rescaled_final/1150_rv.mp4	0.0	178.23390293121338	
32	162.21579456329346	movie	1		270	30.0	2.5	/experiments/knapen_AOT/AOT_stimuli/rescaled_final/1150_rv.mp4	0.0	179.06565117835999	2.4921741485595703
32	162.98886251449585	pulse	1	t		30.0	2.5	/experiments/knapen_AOT/AOT_stimuli/rescaled_final/1150_rv.mp4	0.0	179.83871912956238	
32	164.5896966457367	pulse	1	t		30.0	2.5	/experiments/knapen_AOT/AOT_stimuli/rescaled_final/1150_rv.mp4	0.0	181.43955326080322	
32	164.70796871185303	fix_post	2		12	30.0	2.5	/experiments/knapen_AOT/AOT_stimuli/rescaled_final/1150_rv.mp4	0.0	181.55782532691956	0.09984016418457031
33	164.8078088760376	fix_pre	0		120	31.0	2.5	/experiments/knapen_AOT/AOT_stimuli/rescaled_final/1926_fw.mp4	0.0	181.65766549110413	1.0085153579711914
33	165.8163242340088	movie	1		279	31.0	2.5	/experiments/knapen_AOT/AOT_stimuli/rescaled_final/1926_fw.mp4	0.0	182.66618084907532	2.4920382499694824
33	166.18356323242188	pulse	1	t		31.0	2.5	/experiments/knapen_AOT/AOT_stimuli/rescaled_final/1926_fw.mp4	0.0	183.0334198474884	
33	167.78406810760498	pulse	1	t		31.0	2.5	/experiments/knapen_AOT/AOT_stimuli/rescaled_final/1926_fw.mp4	0.0	184.6339247226715	
33	168.30836248397827	fix_post	2		12	31.0	2.5	/experiments/knapen_AOT/AOT_stimuli/rescaled_final/1926_fw.mp4	0.0	185.1582190990448	0.1000206470489502
34	168.40838313102722	fix_pre	0		118	32.0	2.5	/experiments/knapen_AOT/AOT_stimuli/rescaled_final/1427_rv.mp4	0.0	185.25823974609375	0.9918038845062256
34	169.38371062278748	pulse	0	t		32.0	2.5	/experiments/knapen_AOT/AOT_stimuli/rescaled_final/1427_rv.mp4	0.0	186.233567237854	
34	169.40018701553345	movie	1		286	32.0	2.5	/experiments/knapen_AOT/AOT_stimuli/rescaled_final/1427_rv.mp4	0.0	186.25004363059998	2.500354528427124
34	170.98399329185486	pulse	1	t		32.0	2.5	/experiments/knapen_AOT/AOT_stimuli/rescaled_final/1427_rv.mp4	0.0	187.8338499069214	
34	171.90054154396057	fix_post	2		12	32.0	2.5	/experiments/knapen_AOT/AOT_stimuli/rescaled_final/1427_rv.mp4	0.0	188.7503981590271	0.10001635551452637
35	172.0005578994751	fix_pre	0		120	33.0	2.5	/experiments/knapen_AOT/AOT_stimuli/rescaled_final/0860_rv.mp4	0.0	188.85041451454163	1.0085101127624512
35	172.5842866897583	pulse	0	t		33.0	2.5	/experiments/knapen_AOT/AOT_stimuli/rescaled_final/0860_rv.mp4	0.0	189.43414330482483	
35	173.00906801223755	movie	1		286	33.0	2.5	/experiments/knapen_AOT/AOT_stimuli/rescaled_final/0860_rv.mp4	0.0	189.85892462730408	2.492044687271118
35	174.1843912601471	pulse	1	t		33.0	2.5	/experiments/knapen_AOT/AOT_stimuli/rescaled_final/0860_rv.mp4	0.0	191.03424787521362	
35	175.50111269950867	fix_post	2		12	33.0	2.5	/experiments/knapen_AOT/AOT_stimuli/rescaled_final/0860_rv.mp4	0.0	192.3509693145752	0.10001039505004883
36	175.60112309455872	fix_pre	0		120	34.0	2.5	blank	1.0	192.45097970962524	1.000114917755127
36	175.7847032546997	pulse	0	t		34.0	2.5	blank	1.0	192.63455986976624	
36	176.60123801231384	movie	1		300	34.0	2.5	blank	1.0	193.45109462738037	2.5004196166992188
36	177.38492918014526	pulse	1	t		34.0	2.5	blank	1.0	194.2347857952118	
36	178.98510885238647	pulse	1	t		34.0	2.5	blank	1.0	195.834965467453	
36	179.10165762901306	fix_post	2		12	34.0	2.5	blank	1.0	195.9515142440796	0.09999656677246094
37	179.20165419578552	fix_pre	0		120	35.0	2.5	/experiments/knapen_AOT/AOT_stimuli/rescaled_final/1461_rv.mp4	0.0	196.05151081085205	1.0084872245788574
37	180.21014142036438	movie	1		286	35.0	2.5	/experiments/knapen_AOT/AOT_stimuli/rescaled_final/1461_rv.mp4	0.0	197.0599980354309	2.492042303085327
37	180.5835464000702	pulse	1	t		35.0	2.5	/experiments/knapen_AOT/AOT_stimuli/rescaled_final/1461_rv.mp4	0.0	197.43340301513672	
37	182.18349409103394	pulse	1	t		35.0	2.5	/experiments/knapen_AOT/AOT_stimuli/rescaled_final/1461_rv.mp4	0.0	199.03335070610046	
37	182.7021837234497	fix_post	2		12	35.0	2.5	/experiments/knapen_AOT/AOT_stimuli/rescaled_final/1461_rv.mp4	0.0	199.55204033851624	0.09998154640197754
38	182.80216526985168	fix_pre	0		119	36.0	2.5	/experiments/knapen_AOT/AOT_stimuli/rescaled_final/1144_rv.mp4	0.0	199.6520218849182	1.0002260208129883
38	183.7859148979187	pulse	0	t		36.0	2.5	/experiments/knapen_AOT/AOT_stimuli/rescaled_final/1144_rv.mp4	0.0	200.63577151298523	
38	183.80239129066467	movie	1		283	36.0	2.5	/experiments/knapen_AOT/AOT_stimuli/rescaled_final/1144_rv.mp4	0.0	200.6522479057312	2.5003368854522705
38	185.38430500030518	pulse	1	t		36.0	2.5	/experiments/knapen_AOT/AOT_stimuli/rescaled_final/1144_rv.mp4	0.0	202.2341616153717	
38	186.30272817611694	fix_post	2		12	36.0	2.5	/experiments/knapen_AOT/AOT_stimuli/rescaled_final/1144_rv.mp4	0.0	203.15258479118347	0.1000516414642334
39	186.40277981758118	fix_pre	0		120	37.0	2.5	/experiments/knapen_AOT/AOT_stimuli/rescaled_final/1041_rv.mp4	0.0	203.2526364326477	1.0084888935089111
39	186.98638248443604	pulse	0	t		37.0	2.5	/experiments/knapen_AOT/AOT_stimuli/rescaled_final/1041_rv.mp4	0.0	203.83623909950256	
39	187.4112687110901	movie	1		275	37.0	2.5	/experiments/knapen_AOT/AOT_stimuli/rescaled_final/1041_rv.mp4	0.0	204.26112532615662	2.492018938064575
39	188.5867109298706	pulse	1	t		37.0	2.5	/experiments/knapen_AOT/AOT_stimuli/rescaled_final/1041_rv.mp4	0.0	205.43656754493713	
39	189.90328764915466	fix_post	2		12	37.0	2.5	/experiments/knapen_AOT/AOT_stimuli/rescaled_final/1041_rv.mp4	0.0	206.7531442642212	0.10000252723693848
40	190.0032901763916	fix_pre	0		120	38.0	2.5	/experiments/knapen_AOT/AOT_stimuli/rescaled_final/1123_fw.mp4	0.0	206.85314679145813	1.0084774494171143
40	190.18706583976746	pulse	0	t		38.0	2.5	/experiments/knapen_AOT/AOT_stimuli/rescaled_final/1123_fw.mp4	0.0	207.03692245483398	
40	191.01176762580872	movie	1		289	38.0	2.5	/experiments/knapen_AOT/AOT_stimuli/rescaled_final/1123_fw.mp4	0.0	207.86162424087524	2.4921460151672363
40	191.7847650051117	pulse	1	t		38.0	2.5	/experiments/knapen_AOT/AOT_stimuli/rescaled_final/1123_fw.mp4	0.0	208.63462162017822	
40	193.3874409198761	pulse	1	t		38.0	2.5	/experiments/knapen_AOT/AOT_stimuli/rescaled_final/1123_fw.mp4	0.0	210.23729753494263	
40	193.50391364097595	fix_post	2		12	38.0	2.5	/experiments/knapen_AOT/AOT_stimuli/rescaled_final/1123_fw.mp4	0.0	210.35377025604248	0.09989809989929199
41	193.60381174087524	fix_pre	0		120	39.0	2.5	/experiments/knapen_AOT/AOT_stimuli/rescaled_final/1468_fw.mp4	0.0	210.45366835594177	1.008535385131836
41	194.61234712600708	movie	1		277	39.0	2.5	/experiments/knapen_AOT/AOT_stimuli/rescaled_final/1468_fw.mp4	0.0	211.4622037410736	2.4919943809509277
41	194.98707151412964	pulse	1	t		39.0	2.5	/experiments/knapen_AOT/AOT_stimuli/rescaled_final/1468_fw.mp4	0.0	211.83692812919617	
41	196.58551383018494	pulse	1	t		39.0	2.5	/experiments/knapen_AOT/AOT_stimuli/rescaled_final/1468_fw.mp4	0.0	213.43537044525146	
41	197.104341506958	fix_post	2		12	39.0	2.5	/experiments/knapen_AOT/AOT_stimuli/rescaled_final/1468_fw.mp4	0.0	213.95419812202454	0.10007309913635254
42	197.20441460609436	fix_pre	0		119	40.0	2.5	blank	1.0	214.0542712211609	0.9917511940002441
42	198.18801426887512	pulse	0	t		40.0	2.5	blank	1.0	215.03787088394165	
42	198.1961658000946	movie	1		301	40.0	2.5	blank	1.0	215.04602241516113	2.508699893951416
42	199.7882421016693	pulse	1	t		40.0	2.5	blank	1.0	216.63809871673584	
42	200.70486569404602	fix_post	2		12	40.0	2.5	blank	1.0	217.55472230911255	0.1000361442565918
43	200.8049018383026	fix_pre	0		120	41.0	2.5	/experiments/knapen_AOT/AOT_stimuli/rescaled_final/0239_rv.mp4	0.0	217.65475845336914	1.0085599422454834
43	201.3884937763214	pulse	0	t		41.0	2.5	/experiments/knapen_AOT/AOT_stimuli/rescaled_final/0239_rv.mp4	0.0	218.23835039138794	
43	201.8134617805481	movie	1		289	41.0	2.5	/experiments/knapen_AOT/AOT_stimuli/rescaled_final/0239_rv.mp4	0.0	218.66331839561462	2.4919943809509277
43	202.98707628250122	pulse	1	t		41.0	2.5	/experiments/knapen_AOT/AOT_stimuli/rescaled_final/0239_rv.mp4	0.0	219.83693289756775	
43	204.30545616149902	fix_post	2		12	41.0	2.5	/experiments/knapen_AOT/AOT_stimuli/rescaled_final/0239_rv.mp4	0.0	221.15531277656555	0.09997439384460449
44	204.40543055534363	fix_pre	0		120	42.0	2.5	/experiments/knapen_AOT/AOT_stimuli/rescaled_final/1367_rv.mp4	0.0	221.25528717041016	1.0085396766662598
44	204.58908987045288	pulse	0	t		42.0	2.5	/experiments/knapen_AOT/AOT_stimuli/rescaled_final/1367_rv.mp4	0.0	221.4389464855194	
44	205.4139702320099	movie	1		285	42.0	2.5	/experiments/knapen_AOT/AOT_stimuli/rescaled_final/1367_rv.mp4	0.0	222.26382684707642	2.492014169692993
44	206.18723845481873	pulse	1	t		42.0	2.5	/experiments/knapen_AOT/AOT_stimuli/rescaled_final/1367_rv.mp4	0.0	223.03709506988525	
44	207.79003071784973	pulse	1	t		42.0	2.5	/experiments/knapen_AOT/AOT_stimuli/rescaled_final/1367_rv.mp4	0.0	224.63988733291626	
44	207.90598440170288	fix_post	2		12	42.0	2.5	/experiments/knapen_AOT/AOT_stimuli/rescaled_final/1367_rv.mp4	0.0	224.7558410167694	0.10006523132324219
45	208.00604963302612	fix_pre	0		120	43.0	2.5	/experiments/knapen_AOT/AOT_stimuli/rescaled_final/0659_fw.mp4	0.0	224.85590624809265	1.00848388671875
45	209.01453351974487	movie	1		277	43.0	2.5	/experiments/knapen_AOT/AOT_stimuli/rescaled_final/0659_fw.mp4	0.0	225.8643901348114	2.492021322250366
45	209.38918161392212	pulse	1	t		43.0	2.5	/experiments/knapen_AOT/AOT_stimuli/rescaled_final/0659_fw.mp4	0.0	226.23903822898865	
45	210.9907727241516	pulse	1	t		43.0	2.5	/experiments/knapen_AOT/AOT_stimuli/rescaled_final/0659_fw.mp4	0.0	227.84062933921814	
45	211.50655484199524	fix_post	2		12	43.0	2.5	/experiments/knapen_AOT/AOT_stimuli/rescaled_final/0659_fw.mp4	0.0	228.35641145706177	0.10002636909484863
46	211.6065812110901	fix_pre	0		119	44.0	2.5	/experiments/knapen_AOT/AOT_stimuli/rescaled_final/1639_fw.mp4	0.0	228.45643782615662	1.0001013278961182
46	212.59046173095703	pulse	0	t		44.0	2.5	/experiments/knapen_AOT/AOT_stimuli/rescaled_final/1639_fw.mp4	0.0	229.44031834602356	
46	212.6066825389862	movie	1		282	44.0	2.5	/experiments/knapen_AOT/AOT_stimuli/rescaled_final/1639_fw.mp4	0.0	229.45653915405273	2.5003457069396973
46	214.18931698799133	pulse	1	t		44.0	2.5	/experiments/knapen_AOT/AOT_stimuli/rescaled_final/1639_fw.mp4	0.0	231.03917360305786	
46	215.1070282459259	fix_post	2		12	44.0	2.5	/experiments/knapen_AOT/AOT_stimuli/rescaled_final/1639_fw.mp4	0.0	231.95688486099243	0.10002255439758301
47	215.2070508003235	fix_pre	0		120	45.0	2.5	/experiments/knapen_AOT/AOT_stimuli/rescaled_final/1789_rv.mp4	0.0	232.05690741539001	1.0086288452148438
47	215.79106521606445	pulse	0	t		45.0	2.5	/experiments/knapen_AOT/AOT_stimuli/rescaled_final/1789_rv.mp4	0.0	232.64092183113098	
47	216.21567964553833	movie	1		283	45.0	2.5	/experiments/knapen_AOT/AOT_stimuli/rescaled_final/1789_rv.mp4	0.0	233.06553626060486	2.4919605255126953
47	217.38939785957336	pulse	1	t		45.0	2.5	/experiments/knapen_AOT/AOT_stimuli/rescaled_final/1789_rv.mp4	0.0	234.2392544746399	
47	218.70764017105103	fix_post	2		12	45.0	2.5	/experiments/knapen_AOT/AOT_stimuli/rescaled_final/1789_rv.mp4	0.0	235.55749678611755	0.09999251365661621
48	218.80763268470764	fix_pre	0		104	46.0	2.5	/experiments/knapen_AOT/AOT_stimuli/rescaled_final/1166_rv.mp4	0.0	235.65748929977417	1.008462905883789
48	218.9912233352661	pulse	0	t		46.0	2.5	/experiments/knapen_AOT/AOT_stimuli/rescaled_final/1166_rv.mp4	0.0	235.84107995033264	
48	219.81609559059143	movie	1		293	46.0	2.5	/experiments/knapen_AOT/AOT_stimuli/rescaled_final/1166_rv.mp4	0.0	236.66595220565796	2.4921252727508545
48	220.5892632007599	pulse	1	t		46.0	2.5	/experiments/knapen_AOT/AOT_stimuli/rescaled_final/1166_rv.mp4	0.0	237.43911981582642	
48	222.1893949508667	pulse	1	t		46.0	2.5	/experiments/knapen_AOT/AOT_stimuli/rescaled_final/1166_rv.mp4	0.0	239.03925156593323	
48	222.30822086334229	fix_post	2		12	46.0	2.5	/experiments/knapen_AOT/AOT_stimuli/rescaled_final/1166_rv.mp4	0.0	239.1580774784088	0.09995365142822266
49	222.4081745147705	fix_pre	0		120	47.0	2.5	/experiments/knapen_AOT/AOT_stimuli/rescaled_final/0436_fw.mp4	0.0	239.25803112983704	1.0085713863372803
49	223.4167459011078	movie	1		292	47.0	2.5	/experiments/knapen_AOT/AOT_stimuli/rescaled_final/0436_fw.mp4	0.0	240.26660251617432	2.4919025897979736
49	223.78398394584656	pulse	1	t		47.0	2.5	/experiments/knapen_AOT/AOT_stimuli/rescaled_final/0436_fw.mp4	0.0	240.6338405609131	
49	225.38389372825623	pulse	1	t		47.0	2.5	/experiments/knapen_AOT/AOT_stimuli/rescaled_final/0436_fw.mp4	0.0	242.23375034332275	
49	225.90864849090576	fix_post	2		12	47.0	2.5	/experiments/knapen_AOT/AOT_stimuli/rescaled_final/0436_fw.mp4	0.0	242.7585051059723	0.1000373363494873
50	226.00868582725525	fix_pre	0		118	48.0	2.5	/experiments/knapen_AOT/AOT_stimuli/rescaled_final/0294_rv.mp4	0.0	242.85854244232178	0.9918129444122314
50	226.98407292366028	pulse	0	t		48.0	2.5	/experiments/knapen_AOT/AOT_stimuli/rescaled_final/0294_rv.mp4	0.0	243.8339295387268	
50	227.00049877166748	movie	1		282	48.0	2.5	/experiments/knapen_AOT/AOT_stimuli/rescaled_final/0294_rv.mp4	0.0	243.850355386734	2.5003840923309326
50	228.5842833518982	pulse	1	t		48.0	2.5	/experiments/knapen_AOT/AOT_stimuli/rescaled_final/0294_rv.mp4	0.0	245.43413996696472	
50	229.5008828639984	fix_post	2		12	48.0	2.5	/experiments/knapen_AOT/AOT_stimuli/rescaled_final/0294_rv.mp4	0.0	246.35073947906494	0.10000157356262207
51	229.60088443756104	fix_pre	0		120	49.0	2.5	blank	1.0	246.45074105262756	1.000138521194458
51	230.1845419406891	pulse	0	t		49.0	2.5	blank	1.0	247.03439855575562	
51	230.6010229587555	movie	1		300	49.0	2.5	blank	1.0	247.45087957382202	2.500365972518921
51	231.78486609458923	pulse	1	t		49.0	2.5	blank	1.0	248.63472270965576	
51	233.1013889312744	fix_post	2		12	49.0	2.5	blank	1.0	249.95124554634094	0.10002255439758301
52	233.201411485672	fix_pre	0		120	50.0	2.5	/experiments/knapen_AOT/AOT_stimuli/rescaled_final/2045_rv.mp4	0.0	250.05126810073853	1.0085794925689697
52	233.385107755661	pulse	0	t		50.0	2.5	/experiments/knapen_AOT/AOT_stimuli/rescaled_final/2045_rv.mp4	0.0	250.23496437072754	
52	234.20999097824097	movie	1		281	50.0	2.5	/experiments/knapen_AOT/AOT_stimuli/rescaled_final/2045_rv.mp4	0.0	251.0598475933075	2.491959571838379
52	234.98526048660278	pulse	1	t		50.0	2.5	/experiments/knapen_AOT/AOT_stimuli/rescaled_final/2045_rv.mp4	0.0	251.8351171016693	
52	236.58549523353577	pulse	1	t		50.0	2.5	/experiments/knapen_AOT/AOT_stimuli/rescaled_final/2045_rv.mp4	0.0	253.4353518486023	
52	236.70195055007935	fix_post	2		12	50.0	2.5	/experiments/knapen_AOT/AOT_stimuli/rescaled_final/2045_rv.mp4	0.0	253.55180716514587	0.10001683235168457
53	236.80196738243103	fix_pre	0		120	51.0	2.5	/experiments/knapen_AOT/AOT_stimuli/rescaled_final/1609_rv.mp4	0.0	253.65182399749756	1.0084810256958008
53	237.81044840812683	movie	1		280	51.0	2.5	/experiments/knapen_AOT/AOT_stimuli/rescaled_final/1609_rv.mp4	0.0	254.66030502319336	2.4920237064361572
53	238.18451404571533	pulse	1	t		51.0	2.5	/experiments/knapen_AOT/AOT_stimuli/rescaled_final/1609_rv.mp4	0.0	255.03437066078186	
53	239.7859435081482	pulse	1	t		51.0	2.5	/experiments/knapen_AOT/AOT_stimuli/rescaled_final/1609_rv.mp4	0.0	256.6358001232147	
53	240.302472114563	fix_post	2		12	51.0	2.5	/experiments/knapen_AOT/AOT_stimuli/rescaled_final/1609_rv.mp4	0.0	257.1523287296295	0.10002827644348145
54	240.40250039100647	fix_pre	0		119	52.0	2.5	/experiments/knapen_AOT/AOT_stimuli/rescaled_final/0643_fw.mp4	0.0	257.252357006073	1.000403642654419
54	241.38623809814453	pulse	0	t		52.0	2.5	/experiments/knapen_AOT/AOT_stimuli/rescaled_final/0643_fw.mp4	0.0	258.23609471321106	
54	241.4029040336609	movie	1		282	52.0	2.5	/experiments/knapen_AOT/AOT_stimuli/rescaled_final/0643_fw.mp4	0.0	258.2527606487274	2.5001518726348877
54	242.98605036735535	pulse	1	t		52.0	2.5	/experiments/knapen_AOT/AOT_stimuli/rescaled_final/0643_fw.mp4	0.0	259.8359069824219	
54	243.90305590629578	fix_post	2		12	52.0	2.5	/experiments/knapen_AOT/AOT_stimuli/rescaled_final/0643_fw.mp4	0.0	260.7529125213623	0.09998106956481934
55	244.0030369758606	fix_pre	0		120	53.0	2.5	/experiments/knapen_AOT/AOT_stimuli/rescaled_final/0117_fw.mp4	0.0	260.8528935909271	1.0085022449493408
55	244.58673095703125	pulse	0	t		53.0	2.5	/experiments/knapen_AOT/AOT_stimuli/rescaled_final/0117_fw.mp4	0.0	261.4365875720978	
55	245.01153922080994	movie	1		287	53.0	2.5	/experiments/knapen_AOT/AOT_stimuli/rescaled_final/0117_fw.mp4	0.0	261.86139583587646	2.492025136947632
55	246.18513774871826	pulse	1	t		53.0	2.5	/experiments/knapen_AOT/AOT_stimuli/rescaled_final/0117_fw.mp4	0.0	263.0349943637848	
55	247.50356435775757	fix_post	2		12	53.0	2.5	/experiments/knapen_AOT/AOT_stimuli/rescaled_final/0117_fw.mp4	0.0	264.3534209728241	0.10001873970031738
56	247.60358309745789	fix_pre	0		120	54.0	2.5	/experiments/knapen_AOT/AOT_stimuli/rescaled_final/0475_fw.mp4	0.0	264.4534397125244	1.008528232574463
56	247.78721976280212	pulse	0	t		54.0	2.5	/experiments/knapen_AOT/AOT_stimuli/rescaled_final/0475_fw.mp4	0.0	264.63707637786865	
56	248.61211133003235	movie	1		288	54.0	2.5	/experiments/knapen_AOT/AOT_stimuli/rescaled_final/0475_fw.mp4	0.0	265.4619679450989	2.4920268058776855
56	249.3853211402893	pulse	1	t		54.0	2.5	/experiments/knapen_AOT/AOT_stimuli/rescaled_final/0475_fw.mp4	0.0	266.23517775535583	
56	250.9859824180603	pulse	1	t		54.0	2.5	/experiments/knapen_AOT/AOT_stimuli/rescaled_final/0475_fw.mp4	0.0	267.83583903312683	
56	251.10413813591003	fix_post	2		12	54.0	2.5	/experiments/knapen_AOT/AOT_stimuli/rescaled_final/0475_fw.mp4	0.0	267.95399475097656	0.09998512268066406
57	251.2041232585907	fix_pre	0		120	55.0	2.5	blank	1.0	268.0539798736572	1.0001366138458252
57	252.20425987243652	movie	1		300	55.0	2.5	blank	1.0	269.05411648750305	2.5003910064697266
57	252.58795809745789	pulse	1	t		55.0	2.5	blank	1.0	269.4378147125244	
57	254.18809747695923	pulse	1	t		55.0	2.5	blank	1.0	271.03795409202576	
57	254.70465087890625	fix_post	2		12	55.0	2.5	blank	1.0	271.5545074939728	0.10002660751342773
58	254.80467748641968	fix_pre	0		119	56.0	2.5	/experiments/knapen_AOT/AOT_stimuli/rescaled_final/1763_fw.mp4	0.0	271.6545341014862	1.000147819519043
58	255.78832125663757	pulse	0	t		56.0	2.5	/experiments/knapen_AOT/AOT_stimuli/rescaled_final/1763_fw.mp4	0.0	272.6381778717041	
58	255.80482530593872	movie	1		277	56.0	2.5	/experiments/knapen_AOT/AOT_stimuli/rescaled_final/1763_fw.mp4	0.0	272.65468192100525	2.5003581047058105
58	257.38702416419983	pulse	1	t		56.0	2.5	/experiments/knapen_AOT/AOT_stimuli/rescaled_final/1763_fw.mp4	0.0	274.23688077926636	
58	258.30518341064453	fix_post	2		12	56.0	2.5	/experiments/knapen_AOT/AOT_stimuli/rescaled_final/1763_fw.mp4	0.0	275.15504002571106	0.10003471374511719
59	258.40521812438965	fix_pre	0		120	57.0	2.5	/experiments/knapen_AOT/AOT_stimuli/rescaled_final/2076_fw.mp4	0.0	275.2550747394562	1.0085980892181396
59	258.9890899658203	pulse	0	t		57.0	2.5	/experiments/knapen_AOT/AOT_stimuli/rescaled_final/2076_fw.mp4	0.0	275.83894658088684	
59	259.4138162136078	movie	1		283	57.0	2.5	/experiments/knapen_AOT/AOT_stimuli/rescaled_final/2076_fw.mp4	0.0	276.2636728286743	2.491909980773926
59	260.5868344306946	pulse	1	t		57.0	2.5	/experiments/knapen_AOT/AOT_stimuli/rescaled_final/2076_fw.mp4	0.0	277.4366910457611	
59	261.9057261943817	fix_post	2		12	57.0	2.5	/experiments/knapen_AOT/AOT_stimuli/rescaled_final/2076_fw.mp4	0.0	278.75558280944824	0.10009479522705078
60	262.00582098960876	fix_pre	0		120	58.0	2.5	/experiments/knapen_AOT/AOT_stimuli/rescaled_final/1368_fw.mp4	0.0	278.8556776046753	1.0084254741668701
60	262.18925523757935	pulse	0	t		58.0	2.5	/experiments/knapen_AOT/AOT_stimuli/rescaled_final/1368_fw.mp4	0.0	279.0391118526459	
60	263.01424646377563	movie	1		280	58.0	2.5	/experiments/knapen_AOT/AOT_stimuli/rescaled_final/1368_fw.mp4	0.0	279.86410307884216	2.4920494556427
60	263.7887680530548	pulse	1	t		58.0	2.5	/experiments/knapen_AOT/AOT_stimuli/rescaled_final/1368_fw.mp4	0.0	280.63862466812134	
60	265.3877646923065	pulse	1	t		58.0	2.5	/experiments/knapen_AOT/AOT_stimuli/rescaled_final/1368_fw.mp4	0.0	282.23762130737305	
60	265.50629591941833	fix_post	2		12	58.0	2.5	/experiments/knapen_AOT/AOT_stimuli/rescaled_final/1368_fw.mp4	0.0	282.35615253448486	0.09999537467956543
61	265.6062912940979	fix_pre	0		120	59.0	2.5	/experiments/knapen_AOT/AOT_stimuli/rescaled_final/1419_fw.mp4	0.0	282.45614790916443	1.008509635925293
61	266.6148009300232	movie	1		284	59.0	2.5	/experiments/knapen_AOT/AOT_stimuli/rescaled_final/1419_fw.mp4	0.0	283.4646575450897	2.492018699645996
61	266.9883289337158	pulse	1	t		59.0	2.5	/experiments/knapen_AOT/AOT_stimuli/rescaled_final/1419_fw.mp4	0.0	283.83818554878235	
61	268.58816862106323	pulse	1	t		59.0	2.5	/experiments/knapen_AOT/AOT_stimuli/rescaled_final/1419_fw.mp4	0.0	285.43802523612976	
61	269.1068196296692	fix_post	2		12	59.0	2.5	/experiments/knapen_AOT/AOT_stimuli/rescaled_final/1419_fw.mp4	0.0	285.9566762447357	0.10003471374511719
62	269.2068543434143	fix_pre	0		119	60.0	2.5	/experiments/knapen_AOT/AOT_stimuli/rescaled_final/1100_rv.mp4	0.0	286.05671095848083	1.00014328956604
62	270.1905105113983	pulse	0	t		60.0	2.5	/experiments/knapen_AOT/AOT_stimuli/rescaled_final/1100_rv.mp4	0.0	287.04036712646484	
62	270.20699763298035	movie	1		281	60.0	2.5	/experiments/knapen_AOT/AOT_stimuli/rescaled_final/1100_rv.mp4	0.0	287.0568542480469	2.5003466606140137
62	271.7904098033905	pulse	1	t		60.0	2.5	/experiments/knapen_AOT/AOT_stimuli/rescaled_final/1100_rv.mp4	0.0	288.64026641845703	
62	272.70734429359436	fix_post	2		12	60.0	2.5	/experiments/knapen_AOT/AOT_stimuli/rescaled_final/1100_rv.mp4	0.0	289.5572009086609	0.10004043579101562
63	272.8073847293854	fix_pre	0		120	61.0	2.5	blank	1.0	289.6572413444519	1.0001351833343506
63	273.3833258152008	pulse	0	t		61.0	2.5	blank	1.0	290.23318243026733	
63	273.8075199127197	movie	1		300	61.0	2.5	blank	1.0	290.65737652778625	2.5003678798675537
63	274.98346424102783	pulse	1	t		61.0	2.5	blank	1.0	291.83332085609436	
63	276.3078877925873	fix_post	2		12	61.0	2.5	blank	1.0	293.1577444076538	0.10007238388061523
64	276.4079601764679	fix_pre	0		120	62.0	2.5	/experiments/knapen_AOT/AOT_stimuli/rescaled_final/1443_fw.mp4	0.0	293.2578167915344	1.0084590911865234
64	276.5832760334015	pulse	0	t		62.0	2.5	/experiments/knapen_AOT/AOT_stimuli/rescaled_final/1443_fw.mp4	0.0	293.433132648468	
64	277.4164192676544	movie	1		278	62.0	2.5	/experiments/knapen_AOT/AOT_stimuli/rescaled_final/1443_fw.mp4	0.0	294.26627588272095	2.491978645324707
64	278.1833906173706	pulse	1	t		62.0	2.5	/experiments/knapen_AOT/AOT_stimuli/rescaled_final/1443_fw.mp4	0.0	295.03324723243713	
64	279.7836437225342	pulse	1	t		62.0	2.5	/experiments/knapen_AOT/AOT_stimuli/rescaled_final/1443_fw.mp4	0.0	296.6335003376007	
64	279.9083979129791	fix_post	2		12	62.0	2.5	/experiments/knapen_AOT/AOT_stimuli/rescaled_final/1443_fw.mp4	0.0	296.75825452804565	0.10003018379211426
65	280.00842809677124	fix_pre	0		120	63.0	2.5	/experiments/knapen_AOT/AOT_stimuli/rescaled_final/1368_rv.mp4	0.0	296.85828471183777	1.0085692405700684
65	281.0169973373413	movie	1		275	63.0	2.5	/experiments/knapen_AOT/AOT_stimuli/rescaled_final/1368_rv.mp4	0.0	297.86685395240784	2.491992950439453
65	281.38389921188354	pulse	1	t		63.0	2.5	/experiments/knapen_AOT/AOT_stimuli/rescaled_final/1368_rv.mp4	0.0	298.2337558269501	
65	282.984069108963	pulse	1	t		63.0	2.5	/experiments/knapen_AOT/AOT_stimuli/rescaled_final/1368_rv.mp4	0.0	299.83392572402954	
65	283.50899028778076	fix_post	2		12	63.0	2.5	/experiments/knapen_AOT/AOT_stimuli/rescaled_final/1368_rv.mp4	0.0	300.3588469028473	0.10001373291015625
66	283.6090040206909	fix_pre	0		118	64.0	2.5	/experiments/knapen_AOT/AOT_stimuli/rescaled_final/0750_rv.mp4	0.0	300.45886063575745	0.9917867183685303
66	284.58438324928284	pulse	0	t		64.0	2.5	/experiments/knapen_AOT/AOT_stimuli/rescaled_final/0750_rv.mp4	0.0	301.43423986434937	
66	284.60079073905945	movie	1		288	64.0	2.5	/experiments/knapen_AOT/AOT_stimuli/rescaled_final/0750_rv.mp4	0.0	301.450647354126	2.5003957748413086
66	286.1838364601135	pulse	1	t		64.0	2.5	/experiments/knapen_AOT/AOT_stimuli/rescaled_final/0750_rv.mp4	0.0	303.03369307518005	
66	287.10118651390076	fix_post	2		12	64.0	2.5	/experiments/knapen_AOT/AOT_stimuli/rescaled_final/0750_rv.mp4	0.0	303.9510431289673	0.10001826286315918
67	287.2012047767639	fix_pre	0		120	65.0	2.5	/experiments/knapen_AOT/AOT_stimuli/rescaled_final/0239_fw.mp4	0.0	304.05106139183044	1.008497714996338
67	287.78482937812805	pulse	0	t		65.0	2.5	/experiments/knapen_AOT/AOT_stimuli/rescaled_final/0239_fw.mp4	0.0	304.6346859931946	
67	288.20970249176025	movie	1		279	65.0	2.5	/experiments/knapen_AOT/AOT_stimuli/rescaled_final/0239_fw.mp4	0.0	305.0595591068268	2.4920365810394287
67	289.38416290283203	pulse	1	t		65.0	2.5	/experiments/knapen_AOT/AOT_stimuli/rescaled_final/0239_fw.mp4	0.0	306.23401951789856	
67	290.7017390727997	fix_post	2		12	65.0	2.5	/experiments/knapen_AOT/AOT_stimuli/rescaled_final/0239_fw.mp4	0.0	307.5515956878662	0.100006103515625
68	290.8017451763153	fix_pre	0		120	66.0	2.5	/experiments/knapen_AOT/AOT_stimuli/rescaled_final/1726_fw.mp4	0.0	307.65160179138184	1.008547306060791
68	290.9853057861328	pulse	0	t		66.0	2.5	/experiments/knapen_AOT/AOT_stimuli/rescaled_final/1726_fw.mp4	0.0	307.83516240119934	
68	291.8102924823761	movie	1		283	66.0	2.5	/experiments/knapen_AOT/AOT_stimuli/rescaled_final/1726_fw.mp4	0.0	308.6601490974426	2.4919707775115967
68	292.5855555534363	pulse	1	t		66.0	2.5	/experiments/knapen_AOT/AOT_stimuli/rescaled_final/1726_fw.mp4	0.0	309.4354121685028	
68	294.1838176250458	pulse	1	t		66.0	2.5	/experiments/knapen_AOT/AOT_stimuli/rescaled_final/1726_fw.mp4	0.0	311.0336742401123	
68	294.3022632598877	fix_post	2		12	66.0	2.5	/experiments/knapen_AOT/AOT_stimuli/rescaled_final/1726_fw.mp4	0.0	311.1521198749542	0.10010337829589844
69	294.4023666381836	fix_pre	0		120	67.0	2.5	/experiments/knapen_AOT/AOT_stimuli/rescaled_final/1744_fw.mp4	0.0	311.2522232532501	1.0084235668182373
69	295.41079020500183	movie	1		277	67.0	2.5	/experiments/knapen_AOT/AOT_stimuli/rescaled_final/1744_fw.mp4	0.0	312.26064682006836	2.49200701713562
69	295.7870216369629	pulse	1	t		67.0	2.5	/experiments/knapen_AOT/AOT_stimuli/rescaled_final/1744_fw.mp4	0.0	312.6368782520294	
69	297.3840756416321	pulse	1	t		67.0	2.5	/experiments/knapen_AOT/AOT_stimuli/rescaled_final/1744_fw.mp4	0.0	314.2339322566986	
69	297.90279722213745	fix_post	2		12	67.0	2.5	/experiments/knapen_AOT/AOT_stimuli/rescaled_final/1744_fw.mp4	0.0	314.752653837204	0.10002708435058594
70	298.00282430648804	fix_pre	0		119	68.0	2.5	blank	1.0	314.85268092155457	0.9918594360351562
70	298.9866554737091	pulse	0	t		68.0	2.5	blank	1.0	315.83651208877563	
70	298.9946837425232	movie	1		301	68.0	2.5	blank	1.0	315.8445403575897	2.508653163909912
70	300.58681654930115	pulse	1	t		68.0	2.5	blank	1.0	317.4366731643677	
70	301.5033369064331	fix_post	2		12	68.0	2.5	blank	1.0	318.35319352149963	0.10003829002380371
71	301.6033751964569	fix_pre	0		120	69.0	2.5	/experiments/knapen_AOT/AOT_stimuli/rescaled_final/0076_fw.mp4	0.0	318.45323181152344	1.008488655090332
71	302.1869637966156	pulse	0	t		69.0	2.5	/experiments/knapen_AOT/AOT_stimuli/rescaled_final/0076_fw.mp4	0.0	319.03682041168213	
71	302.61186385154724	movie	1		277	69.0	2.5	/experiments/knapen_AOT/AOT_stimuli/rescaled_final/0076_fw.mp4	0.0	319.46172046661377	2.492025136947632
71	303.78534412384033	pulse	1	t		69.0	2.5	/experiments/knapen_AOT/AOT_stimuli/rescaled_final/0076_fw.mp4	0.0	320.63520073890686	
71	305.1038889884949	fix_post	2		12	69.0	2.5	/experiments/knapen_AOT/AOT_stimuli/rescaled_final/0076_fw.mp4	0.0	321.9537456035614	0.10015153884887695
72	305.20404052734375	fix_pre	0		120	70.0	2.5	/experiments/knapen_AOT/AOT_stimuli/rescaled_final/1404_fw.mp4	0.0	322.0538971424103	1.0083725452423096
72	305.3874726295471	pulse	0	t		70.0	2.5	/experiments/knapen_AOT/AOT_stimuli/rescaled_final/1404_fw.mp4	0.0	322.23732924461365	
72	306.21241307258606	movie	1		277	70.0	2.5	/experiments/knapen_AOT/AOT_stimuli/rescaled_final/1404_fw.mp4	0.0	323.0622696876526	2.4920079708099365
72	306.9856586456299	pulse	1	t		70.0	2.5	/experiments/knapen_AOT/AOT_stimuli/rescaled_final/1404_fw.mp4	0.0	323.8355152606964	
72	308.58595633506775	pulse	1	t		70.0	2.5	/experiments/knapen_AOT/AOT_stimuli/rescaled_final/1404_fw.mp4	0.0	325.4358129501343	
72	308.704421043396	fix_post	2		12	70.0	2.5	/experiments/knapen_AOT/AOT_stimuli/rescaled_final/1404_fw.mp4	0.0	325.5542776584625	0.1000359058380127
73	308.804456949234	fix_pre	0		120	71.0	2.5	/experiments/knapen_AOT/AOT_stimuli/rescaled_final/1166_rv.mp4	0.0	325.65431356430054	1.0084869861602783
73	309.8129439353943	movie	1		284	71.0	2.5	/experiments/knapen_AOT/AOT_stimuli/rescaled_final/1166_rv.mp4	0.0	326.6628005504608	2.49206280708313
73	310.18637895584106	pulse	1	t		71.0	2.5	/experiments/knapen_AOT/AOT_stimuli/rescaled_final/1166_rv.mp4	0.0	327.0362355709076	
73	311.7865164279938	pulse	1	t		71.0	2.5	/experiments/knapen_AOT/AOT_stimuli/rescaled_final/1166_rv.mp4	0.0	328.6363730430603	
73	312.3050067424774	fix_post	2		12	71.0	2.5	/experiments/knapen_AOT/AOT_stimuli/rescaled_final/1166_rv.mp4	0.0	329.15486335754395	0.10000753402709961
74	312.4050142765045	fix_pre	0		119	72.0	2.5	/experiments/knapen_AOT/AOT_stimuli/rescaled_final/0313_rv.mp4	0.0	329.25487089157104	1.0001022815704346
74	313.38876008987427	pulse	0	t		72.0	2.5	/experiments/knapen_AOT/AOT_stimuli/rescaled_final/0313_rv.mp4	0.0	330.2386167049408	
74	313.40511655807495	movie	1		285	72.0	2.5	/experiments/knapen_AOT/AOT_stimuli/rescaled_final/0313_rv.mp4	0.0	330.2549731731415	2.50038743019104
74	314.9873266220093	pulse	1	t		72.0	2.5	/experiments/knapen_AOT/AOT_stimuli/rescaled_final/0313_rv.mp4	0.0	331.8371832370758	
74	315.905503988266	fix_post	2		12	72.0	2.5	/experiments/knapen_AOT/AOT_stimuli/rescaled_final/0313_rv.mp4	0.0	332.7553606033325	0.10003161430358887
75	316.0055356025696	fix_pre	0		120	73.0	2.5	/experiments/knapen_AOT/AOT_stimuli/rescaled_final/2116_rv.mp4	0.0	332.8553922176361	1.0084607601165771
75	316.5891351699829	pulse	0	t		73.0	2.5	/experiments/knapen_AOT/AOT_stimuli/rescaled_final/2116_rv.mp4	0.0	333.43899178504944	
75	317.01399636268616	movie	1		277	73.0	2.5	/experiments/knapen_AOT/AOT_stimuli/rescaled_final/2116_rv.mp4	0.0	333.8638529777527	2.49208402633667
75	318.18738317489624	pulse	1	t		73.0	2.5	/experiments/knapen_AOT/AOT_stimuli/rescaled_final/2116_rv.mp4	0.0	335.03723978996277	
75	319.5060803890228	fix_post	2		12	73.0	2.5	/experiments/knapen_AOT/AOT_stimuli/rescaled_final/2116_rv.mp4	0.0	336.35593700408936	0.10001373291015625
76	319.606094121933	fix_pre	0		120	74.0	2.5	/experiments/knapen_AOT/AOT_stimuli/rescaled_final/0659_rv.mp4	0.0	336.4559507369995	1.0085561275482178
76	319.78970980644226	pulse	0	t		74.0	2.5	/experiments/knapen_AOT/AOT_stimuli/rescaled_final/0659_rv.mp4	0.0	336.6395664215088	
76	320.6146502494812	movie	1		274	74.0	2.5	/experiments/knapen_AOT/AOT_stimuli/rescaled_final/0659_rv.mp4	0.0	337.46450686454773	2.491938352584839
76	321.3879466056824	pulse	1	t		74.0	2.5	/experiments/knapen_AOT/AOT_stimuli/rescaled_final/0659_rv.mp4	0.0	338.2378032207489	
76	322.98812556266785	pulse	1	t		74.0	2.5	/experiments/knapen_AOT/AOT_stimuli/rescaled_final/0659_rv.mp4	0.0	339.8379821777344	
76	323.10658860206604	fix_post	2		12	74.0	2.5	/experiments/knapen_AOT/AOT_stimuli/rescaled_final/0659_rv.mp4	0.0	339.95644521713257	0.10002541542053223
77	323.2066140174866	fix_pre	0		120	75.0	2.5	/experiments/knapen_AOT/AOT_stimuli/rescaled_final/1442_fw.mp4	0.0	340.0564706325531	1.0086085796356201
77	324.2152225971222	movie	1		271	75.0	2.5	/experiments/knapen_AOT/AOT_stimuli/rescaled_final/1442_fw.mp4	0.0	341.0650792121887	2.4919042587280273
77	324.5890784263611	pulse	1	t		75.0	2.5	/experiments/knapen_AOT/AOT_stimuli/rescaled_final/1442_fw.mp4	0.0	341.4389350414276	
77	326.18869948387146	pulse	1	t		75.0	2.5	/experiments/knapen_AOT/AOT_stimuli/rescaled_final/1442_fw.mp4	0.0	343.038556098938	
77	326.7071268558502	fix_post	2		12	75.0	2.5	/experiments/knapen_AOT/AOT_stimuli/rescaled_final/1442_fw.mp4	0.0	343.55698347091675	0.10003423690795898
78	326.8071610927582	fix_pre	0		119	76.0	2.5	blank	1.0	343.6570177078247	0.9917750358581543
78	327.790935754776	pulse	0	t		76.0	2.5	blank	1.0	344.64079236984253	
78	327.79893612861633	movie	1		301	76.0	2.5	blank	1.0	344.64879274368286	2.508744478225708
78	329.3913152217865	pulse	1	t		76.0	2.5	blank	1.0	346.241171836853	
78	330.30768060684204	fix_post	2		12	76.0	2.5	blank	1.0	347.15753722190857	0.10001730918884277
79	330.4076979160309	fix_pre	0		120	77.0	2.5	/experiments/knapen_AOT/AOT_stimuli/rescaled_final/0613_fw.mp4	0.0	347.2575545310974	1.0084717273712158
79	330.983585357666	pulse	0	t		77.0	2.5	/experiments/knapen_AOT/AOT_stimuli/rescaled_final/0613_fw.mp4	0.0	347.83344197273254	
79	331.4161696434021	movie	1		287	77.0	2.5	/experiments/knapen_AOT/AOT_stimuli/rescaled_final/0613_fw.mp4	0.0	348.2660262584686	2.4920411109924316
79	332.58975529670715	pulse	1	t		77.0	2.5	/experiments/knapen_AOT/AOT_stimuli/rescaled_final/0613_fw.mp4	0.0	349.4396119117737	
79	333.90821075439453	fix_post	2		12	77.0	2.5	/experiments/knapen_AOT/AOT_stimuli/rescaled_final/0613_fw.mp4	0.0	350.75806736946106	0.10002517700195312
80	334.0082359313965	fix_pre	0		120	78.0	2.5	/experiments/knapen_AOT/AOT_stimuli/rescaled_final/1117_fw.mp4	0.0	350.858092546463	1.0085113048553467
80	334.1839165687561	pulse	0	t		78.0	2.5	/experiments/knapen_AOT/AOT_stimuli/rescaled_final/1117_fw.mp4	0.0	351.03377318382263	
80	335.01674723625183	movie	1		273	78.0	2.5	/experiments/knapen_AOT/AOT_stimuli/rescaled_final/1117_fw.mp4	0.0	351.86660385131836	2.4920058250427246
80	335.7840156555176	pulse	1	t		78.0	2.5	/experiments/knapen_AOT/AOT_stimuli/rescaled_final/1117_fw.mp4	0.0	352.6338722705841	
80	337.3840026855469	pulse	1	t		78.0	2.5	/experiments/knapen_AOT/AOT_stimuli/rescaled_final/1117_fw.mp4	0.0	354.2338593006134	
80	337.50875306129456	fix_post	2		12	78.0	2.5	/experiments/knapen_AOT/AOT_stimuli/rescaled_final/1117_fw.mp4	0.0	354.3586096763611	0.10002398490905762
81	337.6087770462036	fix_pre	0		120	79.0	2.5	/experiments/knapen_AOT/AOT_stimuli/rescaled_final/1058_rv.mp4	0.0	354.45863366127014	1.0084784030914307
81	338.61725544929504	movie	1		277	79.0	2.5	/experiments/knapen_AOT/AOT_stimuli/rescaled_final/1058_rv.mp4	0.0	355.4671120643616	2.492050886154175
81	338.9840488433838	pulse	1	t		79.0	2.5	/experiments/knapen_AOT/AOT_stimuli/rescaled_final/1058_rv.mp4	0.0	355.8339054584503	
81	340.5847330093384	pulse	1	t		79.0	2.5	/experiments/knapen_AOT/AOT_stimuli/rescaled_final/1058_rv.mp4	0.0	357.4345896244049	
81	341.1093063354492	fix_post	2		12	79.0	2.5	/experiments/knapen_AOT/AOT_stimuli/rescaled_final/1058_rv.mp4	0.0	357.95916295051575	0.10003447532653809
82	341.20934081077576	fix_pre	0		118	80.0	2.5	/experiments/knapen_AOT/AOT_stimuli/rescaled_final/1559_fw.mp4	0.0	358.0591974258423	0.9918584823608398
82	342.18494415283203	pulse	0	t		80.0	2.5	/experiments/knapen_AOT/AOT_stimuli/rescaled_final/1559_fw.mp4	0.0	359.03480076789856	
82	342.2011992931366	movie	1		283	80.0	2.5	/experiments/knapen_AOT/AOT_stimuli/rescaled_final/1559_fw.mp4	0.0	359.0510559082031	2.5002965927124023
82	343.78501057624817	pulse	1	t		80.0	2.5	/experiments/knapen_AOT/AOT_stimuli/rescaled_final/1559_fw.mp4	0.0	360.6348671913147	
82	344.701495885849	fix_post	2		12	80.0	2.5	/experiments/knapen_AOT/AOT_stimuli/rescaled_final/1559_fw.mp4	0.0	361.5513525009155	0.1000211238861084
83	344.8015170097351	fix_pre	0		120	81.0	2.5	/experiments/knapen_AOT/AOT_stimuli/rescaled_final/0832_fw.mp4	0.0	361.65137362480164	1.0085244178771973
83	345.3851821422577	pulse	0	t		81.0	2.5	/experiments/knapen_AOT/AOT_stimuli/rescaled_final/0832_fw.mp4	0.0	362.2350387573242	
83	345.8100414276123	movie	1		277	81.0	2.5	/experiments/knapen_AOT/AOT_stimuli/rescaled_final/0832_fw.mp4	0.0	362.65989804267883	2.4920454025268555
83	346.9836757183075	pulse	1	t		81.0	2.5	/experiments/knapen_AOT/AOT_stimuli/rescaled_final/0832_fw.mp4	0.0	363.833532333374	
83	348.30208683013916	fix_post	2		12	81.0	2.5	/experiments/knapen_AOT/AOT_stimuli/rescaled_final/0832_fw.mp4	0.0	365.1519434452057	0.09997177124023438
84	348.4020586013794	fix_pre	0		120	82.0	2.5	/experiments/knapen_AOT/AOT_stimuli/rescaled_final/0798_fw.mp4	0.0	365.2519152164459	1.00852370262146
84	348.585640668869	pulse	0	t		82.0	2.5	/experiments/knapen_AOT/AOT_stimuli/rescaled_final/0798_fw.mp4	0.0	365.43549728393555	
84	349.41058230400085	movie	1		270	82.0	2.5	/experiments/knapen_AOT/AOT_stimuli/rescaled_final/0798_fw.mp4	0.0	366.2604389190674	2.4920220375061035
84	350.18421936035156	pulse	1	t		82.0	2.5	/experiments/knapen_AOT/AOT_stimuli/rescaled_final/0798_fw.mp4	0.0	367.0340759754181	
84	351.78403639793396	pulse	1	t		82.0	2.5	/experiments/knapen_AOT/AOT_stimuli/rescaled_final/0798_fw.mp4	0.0	368.6338930130005	
84	351.90260434150696	fix_post	2		12	82.0	2.5	/experiments/knapen_AOT/AOT_stimuli/rescaled_final/0798_fw.mp4	0.0	368.7524609565735	0.09999847412109375
85	352.00260281562805	fix_pre	0		120	83.0	2.5	blank	1.0	368.8524594306946	1.000133752822876
85	353.0027365684509	movie	1		300	83.0	2.5	blank	1.0	369.85259318351746	2.5003767013549805
85	353.3863117694855	pulse	1	t		83.0	2.5	blank	1.0	370.236168384552	
85	354.9864990711212	pulse	1	t		83.0	2.5	blank	1.0	371.83635568618774	
85	355.5031132698059	fix_post	2		12	83.0	2.5	blank	1.0	372.35296988487244	0.10001921653747559
87	355.6031324863434	stim	0		1715					372.4529891014099	14.293816328048706
87	356.58684730529785	pulse	0	t						373.4367039203644	
87	358.1870973110199	pulse	0	t						375.0369539260864	
87	359.7873842716217	pulse	0	t						376.63724088668823	
87	361.3875172138214	pulse	0	t						378.23737382888794	
87	362.98775720596313	pulse	0	t						379.83761382102966	
87	364.5880765914917	pulse	0	t						381.4379332065582	
87	366.1884808540344	pulse	0	t						383.03833746910095	
87	367.78868651390076	pulse	0	t						384.6385431289673	
87	369.38879895210266	pulse	0	t						386.2386555671692	
