trial_nr	onset	event_type	phase	response	nr_frames	movie_index	movie_duration	movie_file	blank	onset_abs	duration
0	0.15819287300109863	stim	0		11					16.62968420982361	0.0914146900177002
0	0.2337808609008789	response	0	space						16.70527219772339	
1	0.24960756301879883	stim	0		4662					16.72109889984131	38.86712312698364
1	39.107070207595825	pulse	0	t						55.578561544418335	
1	39.11673069000244	stim	1		1716					55.58822202682495	14.307565689086914
1	40.69758892059326	pulse	1	t						57.16908025741577	
1	42.29802322387695	pulse	1	t						58.76951456069946	
1	43.8980393409729	pulse	1	t						60.36953067779541	
1	45.49842977523804	pulse	1	t						61.96992111206055	
1	47.09858059883118	pulse	1	t						63.57007193565369	
1	48.69102740287781	pulse	1	t						65.16251873970032	
1	50.291099071502686	pulse	1	t						66.7625904083252	
1	51.8911657333374	pulse	1	t						68.36265707015991	
2	53.424296379089355	fix_pre	0		9	0.0	2.5	/experiments/Knapen_AOT/AOT_stimuli/rescaled_final/1899_fw.mp4	0.0	69.89578771591187	0.09183049201965332
2	53.49136757850647	pulse	0	t		0.0	2.5	/experiments/Knapen_AOT/AOT_stimuli/rescaled_final/1899_fw.mp4	0.0	69.96285891532898	
2	53.51612687110901	movie	1		269	0.0	2.5	/experiments/Knapen_AOT/AOT_stimuli/rescaled_final/1899_fw.mp4	0.0	69.98761820793152	2.4918735027313232
2	55.09195566177368	pulse	1	t		0.0	2.5	/experiments/Knapen_AOT/AOT_stimuli/rescaled_final/1899_fw.mp4	0.0	71.56344699859619	
2	56.00800037384033	fix_post	2		12	0.0	2.5	/experiments/Knapen_AOT/AOT_stimuli/rescaled_final/1899_fw.mp4	0.0	72.47949171066284	0.10003113746643066
3	56.10803151130676	fix_pre	0		120	1.0	2.5	/experiments/Knapen_AOT/AOT_stimuli/rescaled_final/1980_fw.mp4	0.0	72.57952284812927	1.0085170269012451
3	56.69169998168945	pulse	0	t		1.0	2.5	/experiments/Knapen_AOT/AOT_stimuli/rescaled_final/1980_fw.mp4	0.0	73.16319131851196	
3	57.11654853820801	movie	1		286	1.0	2.5	/experiments/Knapen_AOT/AOT_stimuli/rescaled_final/1980_fw.mp4	0.0	73.58803987503052	2.4920170307159424
3	58.29130291938782	pulse	1	t		1.0	2.5	/experiments/Knapen_AOT/AOT_stimuli/rescaled_final/1980_fw.mp4	0.0	74.76279425621033	
3	59.60856556892395	fix_post	2		12	1.0	2.5	/experiments/Knapen_AOT/AOT_stimuli/rescaled_final/1980_fw.mp4	0.0	76.08005690574646	0.1000370979309082
4	59.70860266685486	fix_pre	0		120	2.0	2.5	/experiments/Knapen_AOT/AOT_stimuli/rescaled_final/1973_fw.mp4	0.0	76.18009400367737	1.0084636211395264
4	59.89215040206909	pulse	0	t		2.0	2.5	/experiments/Knapen_AOT/AOT_stimuli/rescaled_final/1973_fw.mp4	0.0	76.3636417388916	
4	60.717066287994385	movie	1		283	2.0	2.5	/experiments/Knapen_AOT/AOT_stimuli/rescaled_final/1973_fw.mp4	0.0	77.1885576248169	2.492033004760742
4	61.49241328239441	pulse	1	t		2.0	2.5	/experiments/Knapen_AOT/AOT_stimuli/rescaled_final/1973_fw.mp4	0.0	77.96390461921692	
4	63.092777967453	pulse	1	t		2.0	2.5	/experiments/Knapen_AOT/AOT_stimuli/rescaled_final/1973_fw.mp4	0.0	79.56426930427551	
4	63.20909929275513	fix_post	2		12	2.0	2.5	/experiments/Knapen_AOT/AOT_stimuli/rescaled_final/1973_fw.mp4	0.0	79.68059062957764	0.10001754760742188
5	63.30911684036255	fix_pre	0		120	3.0	2.5	/experiments/Knapen_AOT/AOT_stimuli/rescaled_final/0575_fw.mp4	0.0	79.78060817718506	1.008575677871704
5	64.31769251823425	movie	1		288	3.0	2.5	/experiments/Knapen_AOT/AOT_stimuli/rescaled_final/0575_fw.mp4	0.0	80.78918385505676	2.4919612407684326
5	64.69146752357483	pulse	1	t		3.0	2.5	/experiments/Knapen_AOT/AOT_stimuli/rescaled_final/0575_fw.mp4	0.0	81.16295886039734	
5	66.29100751876831	pulse	1	t		3.0	2.5	/experiments/Knapen_AOT/AOT_stimuli/rescaled_final/0575_fw.mp4	0.0	82.76249885559082	
5	66.80965375900269	fix_post	2		12	3.0	2.5	/experiments/Knapen_AOT/AOT_stimuli/rescaled_final/0575_fw.mp4	0.0	83.2811450958252	0.10004544258117676
6	66.90969920158386	fix_pre	0		119	4.0	2.5	/experiments/Knapen_AOT/AOT_stimuli/rescaled_final/1241_rv.mp4	0.0	83.38119053840637	1.0001373291015625
6	67.89333295822144	pulse	0	t		4.0	2.5	/experiments/Knapen_AOT/AOT_stimuli/rescaled_final/1241_rv.mp4	0.0	84.36482429504395	
6	67.90983653068542	movie	1		271	4.0	2.5	/experiments/Knapen_AOT/AOT_stimuli/rescaled_final/1241_rv.mp4	0.0	84.38132786750793	2.500352144241333
6	69.49380278587341	pulse	1	t		4.0	2.5	/experiments/Knapen_AOT/AOT_stimuli/rescaled_final/1241_rv.mp4	0.0	85.96529412269592	
6	70.41018867492676	fix_post	2		12	4.0	2.5	/experiments/Knapen_AOT/AOT_stimuli/rescaled_final/1241_rv.mp4	0.0	86.88168001174927	0.10016632080078125
7	70.51035499572754	fix_pre	0		120	5.0	2.5	/experiments/Knapen_AOT/AOT_stimuli/rescaled_final/0063_fw.mp4	0.0	86.98184633255005	1.0083584785461426
7	71.09388780593872	pulse	0	t		5.0	2.5	/experiments/Knapen_AOT/AOT_stimuli/rescaled_final/0063_fw.mp4	0.0	87.56537914276123	
7	71.51871347427368	movie	1		277	5.0	2.5	/experiments/Knapen_AOT/AOT_stimuli/rescaled_final/0063_fw.mp4	0.0	87.99020481109619	2.492030382156372
7	72.69301533699036	pulse	1	t		5.0	2.5	/experiments/Knapen_AOT/AOT_stimuli/rescaled_final/0063_fw.mp4	0.0	89.16450667381287	
7	74.01074385643005	fix_post	2		12	5.0	2.5	/experiments/Knapen_AOT/AOT_stimuli/rescaled_final/0063_fw.mp4	0.0	90.48223519325256	0.10004425048828125
8	74.11078810691833	fix_pre	0		120	6.0	2.5	blank	1.0	90.58227944374084	1.0001261234283447
8	74.2943959236145	pulse	0	t		6.0	2.5	blank	1.0	90.76588726043701	
8	75.11091423034668	movie	1		300	6.0	2.5	blank	1.0	91.58240556716919	2.5003480911254883
8	75.89458465576172	pulse	1	t		6.0	2.5	blank	1.0	92.36607599258423	
8	77.49479365348816	pulse	1	t		6.0	2.5	blank	1.0	93.96628499031067	
8	77.61126232147217	fix_post	2		12	6.0	2.5	blank	1.0	94.08275365829468	0.10003185272216797
9	77.71129417419434	fix_pre	0		120	7.0	2.5	/experiments/Knapen_AOT/AOT_stimuli/rescaled_final/0795_rv.mp4	0.0	94.18278551101685	1.0084812641143799
9	78.71977543830872	movie	1		275	7.0	2.5	/experiments/Knapen_AOT/AOT_stimuli/rescaled_final/0795_rv.mp4	0.0	95.19126677513123	2.4920597076416016
9	79.09517645835876	pulse	1	t		7.0	2.5	/experiments/Knapen_AOT/AOT_stimuli/rescaled_final/0795_rv.mp4	0.0	95.56666779518127	
9	80.6932373046875	pulse	1	t		7.0	2.5	/experiments/Knapen_AOT/AOT_stimuli/rescaled_final/0795_rv.mp4	0.0	97.16472864151001	
9	81.21183514595032	fix_post	2		12	7.0	2.5	/experiments/Knapen_AOT/AOT_stimuli/rescaled_final/0795_rv.mp4	0.0	97.68332648277283	0.10001611709594727
10	81.31185126304626	fix_pre	0		119	8.0	2.5	/experiments/Knapen_AOT/AOT_stimuli/rescaled_final/0380_fw.mp4	0.0	97.78334259986877	1.000246524810791
10	82.2956657409668	pulse	0	t		8.0	2.5	/experiments/Knapen_AOT/AOT_stimuli/rescaled_final/0380_fw.mp4	0.0	98.7671570777893	
10	82.31209778785706	movie	1		283	8.0	2.5	/experiments/Knapen_AOT/AOT_stimuli/rescaled_final/0380_fw.mp4	0.0	98.78358912467957	2.5002481937408447
10	83.89416408538818	pulse	1	t		8.0	2.5	/experiments/Knapen_AOT/AOT_stimuli/rescaled_final/0380_fw.mp4	0.0	100.3656554222107	
10	84.8123459815979	fix_post	2		12	8.0	2.5	/experiments/Knapen_AOT/AOT_stimuli/rescaled_final/0380_fw.mp4	0.0	101.28383731842041	0.10002732276916504
11	84.91237330436707	fix_pre	0		120	9.0	2.5	/experiments/Knapen_AOT/AOT_stimuli/rescaled_final/1233_rv.mp4	0.0	101.38386464118958	1.0084900856018066
11	85.49605870246887	pulse	0	t		9.0	2.5	/experiments/Knapen_AOT/AOT_stimuli/rescaled_final/1233_rv.mp4	0.0	101.96755003929138	
11	85.92086338996887	movie	1		275	9.0	2.5	/experiments/Knapen_AOT/AOT_stimuli/rescaled_final/1233_rv.mp4	0.0	102.39235472679138	2.492143154144287
11	87.09433579444885	pulse	1	t		9.0	2.5	/experiments/Knapen_AOT/AOT_stimuli/rescaled_final/1233_rv.mp4	0.0	103.56582713127136	
11	88.41300654411316	fix_post	2		12	9.0	2.5	/experiments/Knapen_AOT/AOT_stimuli/rescaled_final/1233_rv.mp4	0.0	104.88449788093567	0.09992003440856934
12	88.51292657852173	fix_pre	0		120	10.0	2.5	/experiments/Knapen_AOT/AOT_stimuli/rescaled_final/1521_rv.mp4	0.0	104.98441791534424	1.0084917545318604
12	88.6965811252594	pulse	0	t		10.0	2.5	/experiments/Knapen_AOT/AOT_stimuli/rescaled_final/1521_rv.mp4	0.0	105.16807246208191	
12	89.52141833305359	movie	1		280	10.0	2.5	/experiments/Knapen_AOT/AOT_stimuli/rescaled_final/1521_rv.mp4	0.0	105.9929096698761	2.492018222808838
12	90.29516983032227	pulse	1	t		10.0	2.5	/experiments/Knapen_AOT/AOT_stimuli/rescaled_final/1521_rv.mp4	0.0	106.76666116714478	
12	91.89633870124817	pulse	1	t		10.0	2.5	/experiments/Knapen_AOT/AOT_stimuli/rescaled_final/1521_rv.mp4	0.0	108.36783003807068	
12	92.01343655586243	fix_post	2		12	10.0	2.5	/experiments/Knapen_AOT/AOT_stimuli/rescaled_final/1521_rv.mp4	0.0	108.48492789268494	0.1000220775604248
13	92.11345863342285	fix_pre	0		120	11.0	2.5	/experiments/Knapen_AOT/AOT_stimuli/rescaled_final/1402_fw.mp4	0.0	108.58494997024536	1.008568286895752
13	93.1220269203186	movie	1		290	11.0	2.5	/experiments/Knapen_AOT/AOT_stimuli/rescaled_final/1402_fw.mp4	0.0	109.59351825714111	2.491976737976074
13	93.49566149711609	pulse	1	t		11.0	2.5	/experiments/Knapen_AOT/AOT_stimuli/rescaled_final/1402_fw.mp4	0.0	109.9671528339386	
13	95.09538102149963	pulse	1	t		11.0	2.5	/experiments/Knapen_AOT/AOT_stimuli/rescaled_final/1402_fw.mp4	0.0	111.56687235832214	
13	95.61400365829468	fix_post	2		12	11.0	2.5	/experiments/Knapen_AOT/AOT_stimuli/rescaled_final/1402_fw.mp4	0.0	112.08549499511719	0.10002636909484863
14	95.71403002738953	fix_pre	0		119	12.0	2.5	/experiments/Knapen_AOT/AOT_stimuli/rescaled_final/1233_fw.mp4	0.0	112.18552136421204	1.0001304149627686
14	96.69778370857239	pulse	0	t		12.0	2.5	/experiments/Knapen_AOT/AOT_stimuli/rescaled_final/1233_fw.mp4	0.0	113.1692750453949	
14	96.7141604423523	movie	1		276	12.0	2.5	/experiments/Knapen_AOT/AOT_stimuli/rescaled_final/1233_fw.mp4	0.0	113.1856517791748	2.5005433559417725
14	98.29624509811401	pulse	1	t		12.0	2.5	/experiments/Knapen_AOT/AOT_stimuli/rescaled_final/1233_fw.mp4	0.0	114.76773643493652	
14	99.21470379829407	fix_post	2		12	12.0	2.5	/experiments/Knapen_AOT/AOT_stimuli/rescaled_final/1233_fw.mp4	0.0	115.68619513511658	0.09983229637145996
15	99.31453609466553	fix_pre	0		120	13.0	2.5	blank	1.0	115.78602743148804	1.0001435279846191
15	99.89816808700562	pulse	0	t		13.0	2.5	blank	1.0	116.36965942382812	
15	100.31467962265015	movie	1		300	13.0	2.5	blank	1.0	116.78617095947266	2.500382661819458
15	101.4904112815857	pulse	1	t		13.0	2.5	blank	1.0	117.9619026184082	
15	102.8150622844696	fix_post	2		12	13.0	2.5	blank	1.0	119.28655362129211	0.10002589225769043
16	102.9150881767273	fix_pre	0		120	14.0	2.5	/experiments/Knapen_AOT/AOT_stimuli/rescaled_final/1569_fw.mp4	0.0	119.3865795135498	1.0084741115570068
16	103.09044885635376	pulse	0	t		14.0	2.5	/experiments/Knapen_AOT/AOT_stimuli/rescaled_final/1569_fw.mp4	0.0	119.56194019317627	
16	103.9235622882843	movie	1		286	14.0	2.5	/experiments/Knapen_AOT/AOT_stimuli/rescaled_final/1569_fw.mp4	0.0	120.39505362510681	2.4921958446502686
16	104.6905882358551	pulse	1	t		14.0	2.5	/experiments/Knapen_AOT/AOT_stimuli/rescaled_final/1569_fw.mp4	0.0	121.16207957267761	
16	106.29081153869629	pulse	1	t		14.0	2.5	/experiments/Knapen_AOT/AOT_stimuli/rescaled_final/1569_fw.mp4	0.0	122.7623028755188	
16	106.41575813293457	fix_post	2		12	14.0	2.5	/experiments/Knapen_AOT/AOT_stimuli/rescaled_final/1569_fw.mp4	0.0	122.88724946975708	0.09986186027526855
17	106.51561999320984	fix_pre	0		120	15.0	2.5	/experiments/Knapen_AOT/AOT_stimuli/rescaled_final/0580_rv.mp4	0.0	122.98711133003235	1.0085082054138184
17	107.52412819862366	movie	1		287	15.0	2.5	/experiments/Knapen_AOT/AOT_stimuli/rescaled_final/0580_rv.mp4	0.0	123.99561953544617	2.4920780658721924
17	107.89110589027405	pulse	1	t		15.0	2.5	/experiments/Knapen_AOT/AOT_stimuli/rescaled_final/0580_rv.mp4	0.0	124.36259722709656	
17	109.49045586585999	pulse	1	t		15.0	2.5	/experiments/Knapen_AOT/AOT_stimuli/rescaled_final/0580_rv.mp4	0.0	125.9619472026825	
17	110.01620626449585	fix_post	2		12	15.0	2.5	/experiments/Knapen_AOT/AOT_stimuli/rescaled_final/0580_rv.mp4	0.0	126.48769760131836	0.09998488426208496
18	110.11619114875793	fix_pre	0		118	16.0	2.5	/experiments/Knapen_AOT/AOT_stimuli/rescaled_final/0460_rv.mp4	0.0	126.58768248558044	0.9918069839477539
18	111.09162330627441	pulse	0	t		16.0	2.5	/experiments/Knapen_AOT/AOT_stimuli/rescaled_final/0460_rv.mp4	0.0	127.56311464309692	
18	111.10799813270569	movie	1		291	16.0	2.5	/experiments/Knapen_AOT/AOT_stimuli/rescaled_final/0460_rv.mp4	0.0	127.5794894695282	2.500380516052246
18	112.69180488586426	pulse	1	t		16.0	2.5	/experiments/Knapen_AOT/AOT_stimuli/rescaled_final/0460_rv.mp4	0.0	129.16329622268677	
18	113.60837864875793	fix_post	2		12	16.0	2.5	/experiments/Knapen_AOT/AOT_stimuli/rescaled_final/0460_rv.mp4	0.0	130.07986998558044	0.09998536109924316
19	113.70836400985718	fix_pre	0		120	17.0	2.5	/experiments/Knapen_AOT/AOT_stimuli/rescaled_final/0583_fw.mp4	0.0	130.1798553466797	1.00852632522583
19	114.29203724861145	pulse	0	t		17.0	2.5	/experiments/Knapen_AOT/AOT_stimuli/rescaled_final/0583_fw.mp4	0.0	130.76352858543396	
19	114.71689033508301	movie	1		266	17.0	2.5	/experiments/Knapen_AOT/AOT_stimuli/rescaled_final/0583_fw.mp4	0.0	131.18838167190552	2.4920241832733154
19	115.89228582382202	pulse	1	t		17.0	2.5	/experiments/Knapen_AOT/AOT_stimuli/rescaled_final/0583_fw.mp4	0.0	132.36377716064453	
19	117.20891451835632	fix_post	2		12	17.0	2.5	/experiments/Knapen_AOT/AOT_stimuli/rescaled_final/0583_fw.mp4	0.0	133.68040585517883	0.09999990463256836
20	117.30891442298889	fix_pre	0		120	18.0	2.5	/experiments/Knapen_AOT/AOT_stimuli/rescaled_final/1684_rv.mp4	0.0	133.7804057598114	1.0085341930389404
20	117.49247813224792	pulse	0	t		18.0	2.5	/experiments/Knapen_AOT/AOT_stimuli/rescaled_final/1684_rv.mp4	0.0	133.96396946907043	
20	118.31744861602783	movie	1		286	18.0	2.5	/experiments/Knapen_AOT/AOT_stimuli/rescaled_final/1684_rv.mp4	0.0	134.78893995285034	2.491987943649292
20	119.09152889251709	pulse	1	t		18.0	2.5	/experiments/Knapen_AOT/AOT_stimuli/rescaled_final/1684_rv.mp4	0.0	135.5630202293396	
20	120.69094204902649	pulse	1	t		18.0	2.5	/experiments/Knapen_AOT/AOT_stimuli/rescaled_final/1684_rv.mp4	0.0	137.162433385849	
20	120.80943655967712	fix_post	2		12	18.0	2.5	/experiments/Knapen_AOT/AOT_stimuli/rescaled_final/1684_rv.mp4	0.0	137.28092789649963	0.10001111030578613
21	120.90944766998291	fix_pre	0		120	19.0	2.5	/experiments/Knapen_AOT/AOT_stimuli/rescaled_final/0984_rv.mp4	0.0	137.38093900680542	1.008580207824707
21	121.91802787780762	movie	1		276	19.0	2.5	/experiments/Knapen_AOT/AOT_stimuli/rescaled_final/0984_rv.mp4	0.0	138.38951921463013	2.5002965927124023
21	122.2923309803009	pulse	1	t		19.0	2.5	/experiments/Knapen_AOT/AOT_stimuli/rescaled_final/0984_rv.mp4	0.0	138.7638223171234	
21	123.89125061035156	pulse	1	t		19.0	2.5	/experiments/Knapen_AOT/AOT_stimuli/rescaled_final/0984_rv.mp4	0.0	140.36274194717407	
21	124.41832447052002	fix_post	2		11	19.0	2.5	/experiments/Knapen_AOT/AOT_stimuli/rescaled_final/0984_rv.mp4	0.0	140.88981580734253	0.09166789054870605
22	124.50999236106873	fix_pre	0		119	20.0	2.5	blank	1.0	140.98148369789124	0.9917941093444824
22	125.49389457702637	pulse	0	t		20.0	2.5	blank	1.0	141.96538591384888	
22	125.50178647041321	movie	1		301	20.0	2.5	blank	1.0	141.97327780723572	2.5087525844573975
22	127.09384870529175	pulse	1	t		20.0	2.5	blank	1.0	143.56534004211426	
22	128.0105390548706	fix_post	2		12	20.0	2.5	blank	1.0	144.48203039169312	0.1000068187713623
23	128.11054587364197	fix_pre	0		120	21.0	2.5	/experiments/Knapen_AOT/AOT_stimuli/rescaled_final/0940_rv.mp4	0.0	144.58203721046448	1.008493185043335
23	128.6941521167755	pulse	0	t		21.0	2.5	/experiments/Knapen_AOT/AOT_stimuli/rescaled_final/0940_rv.mp4	0.0	145.16564345359802	
23	129.1190390586853	movie	1		282	21.0	2.5	/experiments/Knapen_AOT/AOT_stimuli/rescaled_final/0940_rv.mp4	0.0	145.5905303955078	2.492030620574951
23	130.29225134849548	pulse	1	t		21.0	2.5	/experiments/Knapen_AOT/AOT_stimuli/rescaled_final/0940_rv.mp4	0.0	146.763742685318	
23	131.61106967926025	fix_post	2		12	21.0	2.5	/experiments/Knapen_AOT/AOT_stimuli/rescaled_final/0940_rv.mp4	0.0	148.08256101608276	0.1000053882598877
24	131.71107506752014	fix_pre	0		120	22.0	2.5	/experiments/Knapen_AOT/AOT_stimuli/rescaled_final/0256_fw.mp4	0.0	148.18256640434265	1.0084774494171143
24	131.89460968971252	pulse	0	t		22.0	2.5	/experiments/Knapen_AOT/AOT_stimuli/rescaled_final/0256_fw.mp4	0.0	148.36610102653503	
24	132.71955251693726	movie	1		295	22.0	2.5	/experiments/Knapen_AOT/AOT_stimuli/rescaled_final/0256_fw.mp4	0.0	149.19104385375977	2.49204158782959
24	133.4926736354828	pulse	1	t		22.0	2.5	/experiments/Knapen_AOT/AOT_stimuli/rescaled_final/0256_fw.mp4	0.0	149.9641649723053	
24	135.09071850776672	pulse	1	t		22.0	2.5	/experiments/Knapen_AOT/AOT_stimuli/rescaled_final/0256_fw.mp4	0.0	151.56220984458923	
24	135.21159410476685	fix_post	2		12	22.0	2.5	/experiments/Knapen_AOT/AOT_stimuli/rescaled_final/0256_fw.mp4	0.0	151.68308544158936	0.09999608993530273
25	135.31159019470215	fix_pre	0		120	23.0	2.5	/experiments/Knapen_AOT/AOT_stimuli/rescaled_final/0380_fw.mp4	0.0	151.78308153152466	1.000110149383545
25	136.3117003440857	movie	1		288	23.0	2.5	/experiments/Knapen_AOT/AOT_stimuli/rescaled_final/0380_fw.mp4	0.0	152.7831916809082	2.5004184246063232
25	136.69171857833862	pulse	1	t		23.0	2.5	/experiments/Knapen_AOT/AOT_stimuli/rescaled_final/0380_fw.mp4	0.0	153.16320991516113	
25	138.2927553653717	pulse	1	t		23.0	2.5	/experiments/Knapen_AOT/AOT_stimuli/rescaled_final/0380_fw.mp4	0.0	154.7642467021942	
25	138.81211876869202	fix_post	2		12	23.0	2.5	/experiments/Knapen_AOT/AOT_stimuli/rescaled_final/0380_fw.mp4	0.0	155.28361010551453	0.10001015663146973
26	138.9121289253235	fix_pre	0		119	24.0	2.5	/experiments/Knapen_AOT/AOT_stimuli/rescaled_final/1692_fw.mp4	0.0	155.383620262146	1.0001916885375977
26	139.89584159851074	pulse	0	t		24.0	2.5	/experiments/Knapen_AOT/AOT_stimuli/rescaled_final/1692_fw.mp4	0.0	156.36733293533325	
26	139.91232061386108	movie	1		296	24.0	2.5	/experiments/Knapen_AOT/AOT_stimuli/rescaled_final/1692_fw.mp4	0.0	156.3838119506836	2.500380039215088
26	141.49365544319153	pulse	1	t		24.0	2.5	/experiments/Knapen_AOT/AOT_stimuli/rescaled_final/1692_fw.mp4	0.0	157.96514678001404	
26	142.41270065307617	fix_post	2		12	24.0	2.5	/experiments/Knapen_AOT/AOT_stimuli/rescaled_final/1692_fw.mp4	0.0	158.88419198989868	0.10002756118774414
27	142.51272821426392	fix_pre	0		120	25.0	2.5	/experiments/Knapen_AOT/AOT_stimuli/rescaled_final/2099_fw.mp4	0.0	158.98421955108643	1.0084588527679443
27	143.09635949134827	pulse	0	t		25.0	2.5	/experiments/Knapen_AOT/AOT_stimuli/rescaled_final/2099_fw.mp4	0.0	159.56785082817078	
27	143.52118706703186	movie	1		278	25.0	2.5	/experiments/Knapen_AOT/AOT_stimuli/rescaled_final/2099_fw.mp4	0.0	159.99267840385437	2.4921815395355225
27	144.69446778297424	pulse	1	t		25.0	2.5	/experiments/Knapen_AOT/AOT_stimuli/rescaled_final/2099_fw.mp4	0.0	161.16595911979675	
27	146.01336860656738	fix_post	2		12	25.0	2.5	/experiments/Knapen_AOT/AOT_stimuli/rescaled_final/2099_fw.mp4	0.0	162.4848599433899	0.09988522529602051
28	146.1132538318634	fix_pre	0		120	26.0	2.5	/experiments/Knapen_AOT/AOT_stimuli/rescaled_final/0235_fw.mp4	0.0	162.5847451686859	1.0085413455963135
28	146.29675960540771	pulse	0	t		26.0	2.5	/experiments/Knapen_AOT/AOT_stimuli/rescaled_final/0235_fw.mp4	0.0	162.76825094223022	
28	147.12179517745972	movie	1		283	26.0	2.5	/experiments/Knapen_AOT/AOT_stimuli/rescaled_final/0235_fw.mp4	0.0	163.59328651428223	2.4919955730438232
28	147.8947675228119	pulse	1	t		26.0	2.5	/experiments/Knapen_AOT/AOT_stimuli/rescaled_final/0235_fw.mp4	0.0	164.3662588596344	
28	149.49521589279175	pulse	1	t		26.0	2.5	/experiments/Knapen_AOT/AOT_stimuli/rescaled_final/0235_fw.mp4	0.0	165.96670722961426	
28	149.61379075050354	fix_post	2		12	26.0	2.5	/experiments/Knapen_AOT/AOT_stimuli/rescaled_final/0235_fw.mp4	0.0	166.08528208732605	0.10000324249267578
29	149.71379399299622	fix_pre	0		120	27.0	2.5	/experiments/Knapen_AOT/AOT_stimuli/rescaled_final/0487_fw.mp4	0.0	166.18528532981873	1.00850510597229
29	150.7222990989685	movie	1		288	27.0	2.5	/experiments/Knapen_AOT/AOT_stimuli/rescaled_final/0487_fw.mp4	0.0	167.19379043579102	2.492006540298462
29	151.0958845615387	pulse	1	t		27.0	2.5	/experiments/Knapen_AOT/AOT_stimuli/rescaled_final/0487_fw.mp4	0.0	167.5673758983612	
29	152.69551801681519	pulse	1	t		27.0	2.5	/experiments/Knapen_AOT/AOT_stimuli/rescaled_final/0487_fw.mp4	0.0	169.1670093536377	
29	153.21430563926697	fix_post	2		12	27.0	2.5	/experiments/Knapen_AOT/AOT_stimuli/rescaled_final/0487_fw.mp4	0.0	169.68579697608948	0.10001277923583984
30	153.3143184185028	fix_pre	0		119	28.0	2.5	blank	1.0	169.78580975532532	0.9918363094329834
30	154.29822635650635	pulse	0	t		28.0	2.5	blank	1.0	170.76971769332886	
30	154.3061547279358	movie	1		301	28.0	2.5	blank	1.0	170.7776460647583	2.508758544921875
30	155.89840507507324	pulse	1	t		28.0	2.5	blank	1.0	172.36989641189575	
30	156.81491327285767	fix_post	2		12	28.0	2.5	blank	1.0	173.28640460968018	0.10002660751342773
31	156.9149398803711	fix_pre	0		120	29.0	2.5	/experiments/Knapen_AOT/AOT_stimuli/rescaled_final/1090_rv.mp4	0.0	173.3864312171936	1.0084595680236816
31	157.491135597229	pulse	0	t		29.0	2.5	/experiments/Knapen_AOT/AOT_stimuli/rescaled_final/1090_rv.mp4	0.0	173.9626269340515	
31	157.92339944839478	movie	1		290	29.0	2.5	/experiments/Knapen_AOT/AOT_stimuli/rescaled_final/1090_rv.mp4	0.0	174.39489078521729	2.4919612407684326
31	159.0907723903656	pulse	1	t		29.0	2.5	/experiments/Knapen_AOT/AOT_stimuli/rescaled_final/1090_rv.mp4	0.0	175.5622637271881	
31	160.4153606891632	fix_post	2		12	29.0	2.5	/experiments/Knapen_AOT/AOT_stimuli/rescaled_final/1090_rv.mp4	0.0	176.88685202598572	0.10004377365112305
32	160.51540446281433	fix_pre	0		120	30.0	2.5	/experiments/Knapen_AOT/AOT_stimuli/rescaled_final/1859_fw.mp4	0.0	176.98689579963684	1.0001087188720703
32	160.69051456451416	pulse	0	t		30.0	2.5	/experiments/Knapen_AOT/AOT_stimuli/rescaled_final/1859_fw.mp4	0.0	177.16200590133667	
32	161.5155131816864	movie	1		292	30.0	2.5	/experiments/Knapen_AOT/AOT_stimuli/rescaled_final/1859_fw.mp4	0.0	177.9870045185089	2.500415325164795
32	162.29080963134766	pulse	1	t		30.0	2.5	/experiments/Knapen_AOT/AOT_stimuli/rescaled_final/1859_fw.mp4	0.0	178.76230096817017	
32	163.8910505771637	pulse	1	t		30.0	2.5	/experiments/Knapen_AOT/AOT_stimuli/rescaled_final/1859_fw.mp4	0.0	180.3625419139862	
32	164.0159285068512	fix_post	2		12	30.0	2.5	/experiments/Knapen_AOT/AOT_stimuli/rescaled_final/1859_fw.mp4	0.0	180.4874198436737	0.10025715827941895
33	164.11618566513062	fix_pre	0		120	31.0	2.5	/experiments/Knapen_AOT/AOT_stimuli/rescaled_final/0273_rv.mp4	0.0	180.58767700195312	0.9998569488525391
33	165.11604261398315	movie	1		294	31.0	2.5	/experiments/Knapen_AOT/AOT_stimuli/rescaled_final/0273_rv.mp4	0.0	181.58753395080566	2.5003974437713623
33	165.49132084846497	pulse	1	t		31.0	2.5	/experiments/Knapen_AOT/AOT_stimuli/rescaled_final/0273_rv.mp4	0.0	181.96281218528748	
33	167.09149861335754	pulse	1	t		31.0	2.5	/experiments/Knapen_AOT/AOT_stimuli/rescaled_final/0273_rv.mp4	0.0	183.56298995018005	
33	167.61644005775452	fix_post	2		12	31.0	2.5	/experiments/Knapen_AOT/AOT_stimuli/rescaled_final/0273_rv.mp4	0.0	184.08793139457703	0.10001564025878906
34	167.7164556980133	fix_pre	0		118	32.0	2.5	/experiments/Knapen_AOT/AOT_stimuli/rescaled_final/1551_fw.mp4	0.0	184.18794703483582	0.9919288158416748
34	168.692049741745	pulse	0	t		32.0	2.5	/experiments/Knapen_AOT/AOT_stimuli/rescaled_final/1551_fw.mp4	0.0	185.1635410785675	
34	168.70838451385498	movie	1		292	32.0	2.5	/experiments/Knapen_AOT/AOT_stimuli/rescaled_final/1551_fw.mp4	0.0	185.1798758506775	2.5002801418304443
34	170.2920024394989	pulse	1	t		32.0	2.5	/experiments/Knapen_AOT/AOT_stimuli/rescaled_final/1551_fw.mp4	0.0	186.7634937763214	
34	171.20866465568542	fix_post	2		12	32.0	2.5	/experiments/Knapen_AOT/AOT_stimuli/rescaled_final/1551_fw.mp4	0.0	187.68015599250793	0.10013341903686523
35	171.3087980747223	fix_pre	0		120	33.0	2.5	/experiments/Knapen_AOT/AOT_stimuli/rescaled_final/2034_fw.mp4	0.0	187.7802894115448	1.0083892345428467
35	171.8922975063324	pulse	0	t		33.0	2.5	/experiments/Knapen_AOT/AOT_stimuli/rescaled_final/2034_fw.mp4	0.0	188.3637888431549	
35	172.31718730926514	movie	1		297	33.0	2.5	/experiments/Knapen_AOT/AOT_stimuli/rescaled_final/2034_fw.mp4	0.0	188.78867864608765	2.492008686065674
35	173.49248576164246	pulse	1	t		33.0	2.5	/experiments/Knapen_AOT/AOT_stimuli/rescaled_final/2034_fw.mp4	0.0	189.96397709846497	
35	174.8091959953308	fix_post	2		12	33.0	2.5	/experiments/Knapen_AOT/AOT_stimuli/rescaled_final/2034_fw.mp4	0.0	191.28068733215332	0.1000058650970459
36	174.90920186042786	fix_pre	0		120	34.0	2.5	/experiments/Knapen_AOT/AOT_stimuli/rescaled_final/2016_rv.mp4	0.0	191.38069319725037	1.0085337162017822
36	175.09270548820496	pulse	0	t		34.0	2.5	/experiments/Knapen_AOT/AOT_stimuli/rescaled_final/2016_rv.mp4	0.0	191.56419682502747	
36	175.91773557662964	movie	1		292	34.0	2.5	/experiments/Knapen_AOT/AOT_stimuli/rescaled_final/2016_rv.mp4	0.0	192.38922691345215	2.491999387741089
36	176.69193077087402	pulse	1	t		34.0	2.5	/experiments/Knapen_AOT/AOT_stimuli/rescaled_final/2016_rv.mp4	0.0	193.16342210769653	
36	178.29080271720886	pulse	1	t		34.0	2.5	/experiments/Knapen_AOT/AOT_stimuli/rescaled_final/2016_rv.mp4	0.0	194.76229405403137	
36	178.40973496437073	fix_post	2		12	34.0	2.5	/experiments/Knapen_AOT/AOT_stimuli/rescaled_final/2016_rv.mp4	0.0	194.88122630119324	0.10002779960632324
37	178.50976276397705	fix_pre	0		120	35.0	2.5	blank	1.0	194.98125410079956	1.0001626014709473
37	179.509925365448	movie	1		300	35.0	2.5	blank	1.0	195.9814167022705	2.500382661819458
37	179.89368796348572	pulse	1	t		35.0	2.5	blank	1.0	196.36517930030823	
37	181.4940149784088	pulse	1	t		35.0	2.5	blank	1.0	197.96550631523132	
37	182.01030802726746	fix_post	2		12	35.0	2.5	blank	1.0	198.48179936408997	0.10000729560852051
38	182.11031532287598	fix_pre	0		119	36.0	2.5	/experiments/Knapen_AOT/AOT_stimuli/rescaled_final/1979_fw.mp4	0.0	198.5818066596985	1.0001602172851562
38	183.09394216537476	pulse	0	t		36.0	2.5	/experiments/Knapen_AOT/AOT_stimuli/rescaled_final/1979_fw.mp4	0.0	199.56543350219727	
38	183.11047554016113	movie	1		290	36.0	2.5	/experiments/Knapen_AOT/AOT_stimuli/rescaled_final/1979_fw.mp4	0.0	199.58196687698364	2.500377893447876
38	184.69284844398499	pulse	1	t		36.0	2.5	/experiments/Knapen_AOT/AOT_stimuli/rescaled_final/1979_fw.mp4	0.0	201.1643397808075	
38	185.610853433609	fix_post	2		12	36.0	2.5	/experiments/Knapen_AOT/AOT_stimuli/rescaled_final/1979_fw.mp4	0.0	202.08234477043152	0.10001134872436523
39	185.71086478233337	fix_pre	0		120	37.0	2.5	/experiments/Knapen_AOT/AOT_stimuli/rescaled_final/1973_fw.mp4	0.0	202.18235611915588	1.0084888935089111
39	186.29455828666687	pulse	0	t		37.0	2.5	/experiments/Knapen_AOT/AOT_stimuli/rescaled_final/1973_fw.mp4	0.0	202.76604962348938	
39	186.71935367584229	movie	1		284	37.0	2.5	/experiments/Knapen_AOT/AOT_stimuli/rescaled_final/1973_fw.mp4	0.0	203.1908450126648	2.4920597076416016
39	187.89291763305664	pulse	1	t		37.0	2.5	/experiments/Knapen_AOT/AOT_stimuli/rescaled_final/1973_fw.mp4	0.0	204.36440896987915	
39	189.2114133834839	fix_post	2		12	37.0	2.5	/experiments/Knapen_AOT/AOT_stimuli/rescaled_final/1973_fw.mp4	0.0	205.6829047203064	0.10000324249267578
40	189.31141662597656	fix_pre	0		120	38.0	2.5	/experiments/Knapen_AOT/AOT_stimuli/rescaled_final/1155_rv.mp4	0.0	205.78290796279907	1.0085132122039795
40	189.4950680732727	pulse	0	t		38.0	2.5	/experiments/Knapen_AOT/AOT_stimuli/rescaled_final/1155_rv.mp4	0.0	205.96655941009521	
40	190.31992983818054	movie	1		286	38.0	2.5	/experiments/Knapen_AOT/AOT_stimuli/rescaled_final/1155_rv.mp4	0.0	206.79142117500305	2.492004632949829
40	191.09282875061035	pulse	1	t		38.0	2.5	/experiments/Knapen_AOT/AOT_stimuli/rescaled_final/1155_rv.mp4	0.0	207.56432008743286	
40	192.69328379631042	pulse	1	t		38.0	2.5	/experiments/Knapen_AOT/AOT_stimuli/rescaled_final/1155_rv.mp4	0.0	209.16477513313293	
40	192.81193447113037	fix_post	2		12	38.0	2.5	/experiments/Knapen_AOT/AOT_stimuli/rescaled_final/1155_rv.mp4	0.0	209.28342580795288	0.10004043579101562
41	192.9119749069214	fix_pre	0		120	39.0	2.5	/experiments/Knapen_AOT/AOT_stimuli/rescaled_final/0483_fw.mp4	0.0	209.3834662437439	1.0085108280181885
41	193.92048573493958	movie	1		283	39.0	2.5	/experiments/Knapen_AOT/AOT_stimuli/rescaled_final/0483_fw.mp4	0.0	210.39197707176208	2.49200439453125
41	194.29388642311096	pulse	1	t		39.0	2.5	/experiments/Knapen_AOT/AOT_stimuli/rescaled_final/0483_fw.mp4	0.0	210.76537775993347	
41	195.89375734329224	pulse	1	t		39.0	2.5	/experiments/Knapen_AOT/AOT_stimuli/rescaled_final/0483_fw.mp4	0.0	212.36524868011475	
41	196.41249012947083	fix_post	2		12	39.0	2.5	/experiments/Knapen_AOT/AOT_stimuli/rescaled_final/0483_fw.mp4	0.0	212.88398146629333	0.09999990463256836
42	196.5124900341034	fix_pre	0		119	40.0	2.5	blank	1.0	212.9839813709259	0.9918181896209717
42	197.49616241455078	pulse	0	t		40.0	2.5	blank	1.0	213.9676537513733	
42	197.50430822372437	movie	1		301	40.0	2.5	blank	1.0	213.97579956054688	2.5086963176727295
42	199.09633708000183	pulse	1	t		40.0	2.5	blank	1.0	215.56782841682434	
42	200.0130045413971	fix_post	2		12	40.0	2.5	blank	1.0	216.4844958782196	0.10001373291015625
43	200.11301827430725	fix_pre	0		120	41.0	2.5	/experiments/Knapen_AOT/AOT_stimuli/rescaled_final/0519_rv.mp4	0.0	216.58450961112976	1.0084865093231201
43	200.6966037750244	pulse	0	t		41.0	2.5	/experiments/Knapen_AOT/AOT_stimuli/rescaled_final/0519_rv.mp4	0.0	217.16809511184692	
43	201.12150478363037	movie	1		281	41.0	2.5	/experiments/Knapen_AOT/AOT_stimuli/rescaled_final/0519_rv.mp4	0.0	217.59299612045288	2.4920737743377686
43	202.29710245132446	pulse	1	t		41.0	2.5	/experiments/Knapen_AOT/AOT_stimuli/rescaled_final/0519_rv.mp4	0.0	218.76859378814697	
43	203.61357855796814	fix_post	2		12	41.0	2.5	/experiments/Knapen_AOT/AOT_stimuli/rescaled_final/0519_rv.mp4	0.0	220.08506989479065	0.09998774528503418
44	203.71356630325317	fix_pre	0		120	42.0	2.5	/experiments/Knapen_AOT/AOT_stimuli/rescaled_final/1402_fw.mp4	0.0	220.18505764007568	1.0085461139678955
44	203.89707922935486	pulse	0	t		42.0	2.5	/experiments/Knapen_AOT/AOT_stimuli/rescaled_final/1402_fw.mp4	0.0	220.36857056617737	
44	204.72211241722107	movie	1		280	42.0	2.5	/experiments/Knapen_AOT/AOT_stimuli/rescaled_final/1402_fw.mp4	0.0	221.19360375404358	2.4920003414154053
44	205.49553775787354	pulse	1	t		42.0	2.5	/experiments/Knapen_AOT/AOT_stimuli/rescaled_final/1402_fw.mp4	0.0	221.96702909469604	
44	207.09566140174866	pulse	1	t		42.0	2.5	/experiments/Knapen_AOT/AOT_stimuli/rescaled_final/1402_fw.mp4	0.0	223.56715273857117	
44	207.21411275863647	fix_post	2		12	42.0	2.5	/experiments/Knapen_AOT/AOT_stimuli/rescaled_final/1402_fw.mp4	0.0	223.68560409545898	0.09998822212219238
45	207.31410098075867	fix_pre	0		120	43.0	2.5	/experiments/Knapen_AOT/AOT_stimuli/rescaled_final/1599_fw.mp4	0.0	223.78559231758118	1.00850248336792
45	208.3226034641266	movie	1		285	43.0	2.5	/experiments/Knapen_AOT/AOT_stimuli/rescaled_final/1599_fw.mp4	0.0	224.7940948009491	2.492037296295166
45	208.69794368743896	pulse	1	t		43.0	2.5	/experiments/Knapen_AOT/AOT_stimuli/rescaled_final/1599_fw.mp4	0.0	225.16943502426147	
45	210.29591488838196	pulse	1	t		43.0	2.5	/experiments/Knapen_AOT/AOT_stimuli/rescaled_final/1599_fw.mp4	0.0	226.76740622520447	
45	210.81464076042175	fix_post	2		12	43.0	2.5	/experiments/Knapen_AOT/AOT_stimuli/rescaled_final/1599_fw.mp4	0.0	227.28613209724426	0.10001039505004883
46	210.9146511554718	fix_pre	0		119	44.0	2.5	/experiments/Knapen_AOT/AOT_stimuli/rescaled_final/1644_rv.mp4	0.0	227.3861424922943	1.000180959701538
46	211.89142894744873	pulse	0	t		44.0	2.5	/experiments/Knapen_AOT/AOT_stimuli/rescaled_final/1644_rv.mp4	0.0	228.36292028427124	
46	211.91483211517334	movie	1		284	44.0	2.5	/experiments/Knapen_AOT/AOT_stimuli/rescaled_final/1644_rv.mp4	0.0	228.38632345199585	2.500352382659912
46	213.4969961643219	pulse	1	t		44.0	2.5	/experiments/Knapen_AOT/AOT_stimuli/rescaled_final/1644_rv.mp4	0.0	229.9684875011444	
46	214.41518449783325	fix_post	2		12	44.0	2.5	/experiments/Knapen_AOT/AOT_stimuli/rescaled_final/1644_rv.mp4	0.0	230.88667583465576	0.10000395774841309
47	214.51518845558167	fix_pre	0		120	45.0	2.5	/experiments/Knapen_AOT/AOT_stimuli/rescaled_final/1239_fw.mp4	0.0	230.98667979240417	1.0085241794586182
47	215.09104752540588	pulse	0	t		45.0	2.5	/experiments/Knapen_AOT/AOT_stimuli/rescaled_final/1239_fw.mp4	0.0	231.5625388622284	
47	215.52371263504028	movie	1		258	45.0	2.5	/experiments/Knapen_AOT/AOT_stimuli/rescaled_final/1239_fw.mp4	0.0	231.9952039718628	2.492267370223999
47	216.69700288772583	pulse	1	t		45.0	2.5	/experiments/Knapen_AOT/AOT_stimuli/rescaled_final/1239_fw.mp4	0.0	233.16849422454834	
47	218.01598000526428	fix_post	2		12	45.0	2.5	/experiments/Knapen_AOT/AOT_stimuli/rescaled_final/1239_fw.mp4	0.0	234.4874713420868	0.09974908828735352
48	218.11572909355164	fix_pre	0		120	46.0	2.5	/experiments/Knapen_AOT/AOT_stimuli/rescaled_final/1806_fw.mp4	0.0	234.58722043037415	1.008495569229126
48	218.2916030883789	pulse	0	t		46.0	2.5	/experiments/Knapen_AOT/AOT_stimuli/rescaled_final/1806_fw.mp4	0.0	234.76309442520142	
48	219.12422466278076	movie	1		279	46.0	2.5	/experiments/Knapen_AOT/AOT_stimuli/rescaled_final/1806_fw.mp4	0.0	235.59571599960327	2.492058038711548
48	219.8912708759308	pulse	1	t		46.0	2.5	/experiments/Knapen_AOT/AOT_stimuli/rescaled_final/1806_fw.mp4	0.0	236.3627622127533	
48	221.4915065765381	pulse	1	t		46.0	2.5	/experiments/Knapen_AOT/AOT_stimuli/rescaled_final/1806_fw.mp4	0.0	237.9629979133606	
48	221.6162827014923	fix_post	2		12	46.0	2.5	/experiments/Knapen_AOT/AOT_stimuli/rescaled_final/1806_fw.mp4	0.0	238.08777403831482	0.09998655319213867
49	221.71626925468445	fix_pre	0		120	47.0	2.5	blank	1.0	238.18776059150696	1.0001599788665771
49	222.71642923355103	movie	1		300	47.0	2.5	blank	1.0	239.18792057037354	2.5003678798675537
49	223.0917067527771	pulse	1	t		47.0	2.5	blank	1.0	239.5631980895996	
49	224.6920096874237	pulse	1	t		47.0	2.5	blank	1.0	241.16350102424622	
49	225.21679711341858	fix_post	2		12	47.0	2.5	blank	1.0	241.6882884502411	0.10004901885986328
50	225.31684613227844	fix_pre	0		118	48.0	2.5	/experiments/Knapen_AOT/AOT_stimuli/rescaled_final/0011_fw.mp4	0.0	241.78833746910095	1.0002028942108154
50	226.29224395751953	pulse	0	t		48.0	2.5	/experiments/Knapen_AOT/AOT_stimuli/rescaled_final/0011_fw.mp4	0.0	242.76373529434204	
50	226.31704902648926	movie	1		286	48.0	2.5	/experiments/Knapen_AOT/AOT_stimuli/rescaled_final/0011_fw.mp4	0.0	242.78854036331177	2.4919536113739014
50	227.8913857936859	pulse	1	t		48.0	2.5	/experiments/Knapen_AOT/AOT_stimuli/rescaled_final/0011_fw.mp4	0.0	244.36287713050842	
50	228.80900263786316	fix_post	2		12	48.0	2.5	/experiments/Knapen_AOT/AOT_stimuli/rescaled_final/0011_fw.mp4	0.0	245.28049397468567	0.10005855560302734
51	228.9090611934662	fix_pre	0		120	49.0	2.5	/experiments/Knapen_AOT/AOT_stimuli/rescaled_final/1716_fw.mp4	0.0	245.3805525302887	1.0085914134979248
51	229.492666721344	pulse	0	t		49.0	2.5	/experiments/Knapen_AOT/AOT_stimuli/rescaled_final/1716_fw.mp4	0.0	245.9641580581665	
51	229.9176526069641	movie	1		272	49.0	2.5	/experiments/Knapen_AOT/AOT_stimuli/rescaled_final/1716_fw.mp4	0.0	246.38914394378662	2.491913080215454
51	231.09290432929993	pulse	1	t		49.0	2.5	/experiments/Knapen_AOT/AOT_stimuli/rescaled_final/1716_fw.mp4	0.0	247.56439566612244	
51	232.40956568717957	fix_post	2		12	49.0	2.5	/experiments/Knapen_AOT/AOT_stimuli/rescaled_final/1716_fw.mp4	0.0	248.88105702400208	0.09999346733093262
52	232.5095591545105	fix_pre	0		120	50.0	2.5	/experiments/Knapen_AOT/AOT_stimuli/rescaled_final/0220_rv.mp4	0.0	248.981050491333	1.008453607559204
52	232.6931755542755	pulse	0	t		50.0	2.5	/experiments/Knapen_AOT/AOT_stimuli/rescaled_final/0220_rv.mp4	0.0	249.16466689109802	
52	233.5180127620697	movie	1		280	50.0	2.5	/experiments/Knapen_AOT/AOT_stimuli/rescaled_final/0220_rv.mp4	0.0	249.9895040988922	2.492133617401123
52	234.2920937538147	pulse	1	t		50.0	2.5	/experiments/Knapen_AOT/AOT_stimuli/rescaled_final/0220_rv.mp4	0.0	250.7635850906372	
52	235.89179182052612	pulse	1	t		50.0	2.5	/experiments/Knapen_AOT/AOT_stimuli/rescaled_final/0220_rv.mp4	0.0	252.36328315734863	
52	236.01014637947083	fix_post	2		12	50.0	2.5	/experiments/Knapen_AOT/AOT_stimuli/rescaled_final/0220_rv.mp4	0.0	252.48163771629333	0.09998369216918945
53	236.11013007164001	fix_pre	0		120	51.0	2.5	/experiments/Knapen_AOT/AOT_stimuli/rescaled_final/2105_rv.mp4	0.0	252.58162140846252	1.0085020065307617
53	237.11863207817078	movie	1		276	51.0	2.5	/experiments/Knapen_AOT/AOT_stimuli/rescaled_final/2105_rv.mp4	0.0	253.5901234149933	2.491995096206665
53	237.49421286582947	pulse	1	t		51.0	2.5	/experiments/Knapen_AOT/AOT_stimuli/rescaled_final/2105_rv.mp4	0.0	253.96570420265198	
53	239.0922873020172	pulse	1	t		51.0	2.5	/experiments/Knapen_AOT/AOT_stimuli/rescaled_final/2105_rv.mp4	0.0	255.56377863883972	
53	239.61062717437744	fix_post	2		12	51.0	2.5	/experiments/Knapen_AOT/AOT_stimuli/rescaled_final/2105_rv.mp4	0.0	256.08211851119995	0.10001826286315918
54	239.7106454372406	fix_pre	0		119	52.0	2.5	/experiments/Knapen_AOT/AOT_stimuli/rescaled_final/0151_rv.mp4	0.0	256.1821367740631	1.0001482963562012
54	240.69443202018738	pulse	0	t		52.0	2.5	/experiments/Knapen_AOT/AOT_stimuli/rescaled_final/0151_rv.mp4	0.0	257.1659233570099	
54	240.7107937335968	movie	1		285	52.0	2.5	/experiments/Knapen_AOT/AOT_stimuli/rescaled_final/0151_rv.mp4	0.0	257.1822850704193	2.500361204147339
54	242.29339146614075	pulse	1	t		52.0	2.5	/experiments/Knapen_AOT/AOT_stimuli/rescaled_final/0151_rv.mp4	0.0	258.76488280296326	
54	243.21115493774414	fix_post	2		12	52.0	2.5	/experiments/Knapen_AOT/AOT_stimuli/rescaled_final/0151_rv.mp4	0.0	259.68264627456665	0.10004639625549316
55	243.31120133399963	fix_pre	0		120	53.0	2.5	/experiments/Knapen_AOT/AOT_stimuli/rescaled_final/0861_rv.mp4	0.0	259.78269267082214	1.0084724426269531
55	243.89480686187744	pulse	0	t		53.0	2.5	/experiments/Knapen_AOT/AOT_stimuli/rescaled_final/0861_rv.mp4	0.0	260.36629819869995	
55	244.3196737766266	movie	1		270	53.0	2.5	/experiments/Knapen_AOT/AOT_stimuli/rescaled_final/0861_rv.mp4	0.0	260.7911651134491	2.4920408725738525
55	245.4938132762909	pulse	1	t		53.0	2.5	/experiments/Knapen_AOT/AOT_stimuli/rescaled_final/0861_rv.mp4	0.0	261.9653046131134	
55	246.81171464920044	fix_post	2		12	53.0	2.5	/experiments/Knapen_AOT/AOT_stimuli/rescaled_final/0861_rv.mp4	0.0	263.28320598602295	0.10003447532653809
56	246.91174912452698	fix_pre	0		120	54.0	2.5	/experiments/Knapen_AOT/AOT_stimuli/rescaled_final/1692_fw.mp4	0.0	263.3832404613495	1.0084490776062012
56	247.09528017044067	pulse	0	t		54.0	2.5	/experiments/Knapen_AOT/AOT_stimuli/rescaled_final/1692_fw.mp4	0.0	263.5667715072632	
56	247.92019820213318	movie	1		284	54.0	2.5	/experiments/Knapen_AOT/AOT_stimuli/rescaled_final/1692_fw.mp4	0.0	264.3916895389557	2.492067813873291
56	248.69371724128723	pulse	1	t		54.0	2.5	/experiments/Knapen_AOT/AOT_stimuli/rescaled_final/1692_fw.mp4	0.0	265.16520857810974	
56	250.29411792755127	pulse	1	t		54.0	2.5	/experiments/Knapen_AOT/AOT_stimuli/rescaled_final/1692_fw.mp4	0.0	266.7656092643738	
56	250.41226601600647	fix_post	2		12	54.0	2.5	/experiments/Knapen_AOT/AOT_stimuli/rescaled_final/1692_fw.mp4	0.0	266.883757352829	0.10015749931335449
57	250.51242351531982	fix_pre	0		120	55.0	2.5	blank	1.0	266.98391485214233	0.9999895095825195
57	251.51241302490234	movie	1		300	55.0	2.5	blank	1.0	267.98390436172485	2.500375747680664
57	251.8960165977478	pulse	1	t		55.0	2.5	blank	1.0	268.3675079345703	
57	253.49624276161194	pulse	1	t		55.0	2.5	blank	1.0	269.96773409843445	
57	254.012788772583	fix_post	2		12	55.0	2.5	blank	1.0	270.4842801094055	0.10007023811340332
58	254.1128590106964	fix_pre	0		119	56.0	2.5	/experiments/Knapen_AOT/AOT_stimuli/rescaled_final/0864_rv.mp4	0.0	270.5843503475189	1.0001189708709717
58	255.09659337997437	pulse	0	t		56.0	2.5	/experiments/Knapen_AOT/AOT_stimuli/rescaled_final/0864_rv.mp4	0.0	271.5680847167969	
58	255.11297798156738	movie	1		273	56.0	2.5	/experiments/Knapen_AOT/AOT_stimuli/rescaled_final/0864_rv.mp4	0.0	271.5844693183899	2.5003533363342285
58	256.6950361728668	pulse	1	t		56.0	2.5	/experiments/Knapen_AOT/AOT_stimuli/rescaled_final/0864_rv.mp4	0.0	273.16652750968933	
58	257.6133313179016	fix_post	2		12	56.0	2.5	/experiments/Knapen_AOT/AOT_stimuli/rescaled_final/0864_rv.mp4	0.0	274.0848226547241	0.10001635551452637
59	257.71334767341614	fix_pre	0		120	57.0	2.5	/experiments/Knapen_AOT/AOT_stimuli/rescaled_final/0861_rv.mp4	0.0	274.18483901023865	1.008554220199585
59	258.29698419570923	pulse	0	t		57.0	2.5	/experiments/Knapen_AOT/AOT_stimuli/rescaled_final/0861_rv.mp4	0.0	274.76847553253174	
59	258.7219018936157	movie	1		270	57.0	2.5	/experiments/Knapen_AOT/AOT_stimuli/rescaled_final/0861_rv.mp4	0.0	275.19339323043823	2.492011785507202
59	259.8976004123688	pulse	1	t		57.0	2.5	/experiments/Knapen_AOT/AOT_stimuli/rescaled_final/0861_rv.mp4	0.0	276.3690917491913	
59	261.2139136791229	fix_post	2		12	57.0	2.5	/experiments/Knapen_AOT/AOT_stimuli/rescaled_final/0861_rv.mp4	0.0	277.68540501594543	0.10000348091125488
60	261.3139171600342	fix_pre	0		120	58.0	2.5	/experiments/Knapen_AOT/AOT_stimuli/rescaled_final/1572_rv.mp4	0.0	277.7854084968567	1.0084888935089111
60	261.4976763725281	pulse	0	t		58.0	2.5	/experiments/Knapen_AOT/AOT_stimuli/rescaled_final/1572_rv.mp4	0.0	277.9691677093506	
60	262.3224060535431	movie	1		272	58.0	2.5	/experiments/Knapen_AOT/AOT_stimuli/rescaled_final/1572_rv.mp4	0.0	278.7938973903656	2.4920318126678467
60	263.09596705436707	pulse	1	t		58.0	2.5	/experiments/Knapen_AOT/AOT_stimuli/rescaled_final/1572_rv.mp4	0.0	279.5674583911896	
60	264.69815039634705	pulse	1	t		58.0	2.5	/experiments/Knapen_AOT/AOT_stimuli/rescaled_final/1572_rv.mp4	0.0	281.16964173316956	
60	264.81443786621094	fix_post	2		12	58.0	2.5	/experiments/Knapen_AOT/AOT_stimuli/rescaled_final/1572_rv.mp4	0.0	281.28592920303345	0.10007286071777344
61	264.9145107269287	fix_pre	0		120	59.0	2.5	/experiments/Knapen_AOT/AOT_stimuli/rescaled_final/1599_fw.mp4	0.0	281.3860020637512	1.008427619934082
61	265.9229383468628	movie	1		271	59.0	2.5	/experiments/Knapen_AOT/AOT_stimuli/rescaled_final/1599_fw.mp4	0.0	282.3944296836853	2.4920787811279297
61	266.2967219352722	pulse	1	t		59.0	2.5	/experiments/Knapen_AOT/AOT_stimuli/rescaled_final/1599_fw.mp4	0.0	282.7682132720947	
61	267.89697790145874	pulse	1	t		59.0	2.5	/experiments/Knapen_AOT/AOT_stimuli/rescaled_final/1599_fw.mp4	0.0	284.36846923828125	
61	268.4150171279907	fix_post	2		12	59.0	2.5	/experiments/Knapen_AOT/AOT_stimuli/rescaled_final/1599_fw.mp4	0.0	284.88650846481323	0.10002684593200684
62	268.51504397392273	fix_pre	0		119	60.0	2.5	/experiments/Knapen_AOT/AOT_stimuli/rescaled_final/1973_rv.mp4	0.0	284.98653531074524	1.0001885890960693
62	269.4989387989044	pulse	0	t		60.0	2.5	/experiments/Knapen_AOT/AOT_stimuli/rescaled_final/1973_rv.mp4	0.0	285.97043013572693	
62	269.5152325630188	movie	1		266	60.0	2.5	/experiments/Knapen_AOT/AOT_stimuli/rescaled_final/1973_rv.mp4	0.0	285.9867238998413	2.5002598762512207
62	271.090763092041	pulse	1	t		60.0	2.5	/experiments/Knapen_AOT/AOT_stimuli/rescaled_final/1973_rv.mp4	0.0	287.5622544288635	
62	272.01549243927	fix_post	2		12	60.0	2.5	/experiments/Knapen_AOT/AOT_stimuli/rescaled_final/1973_rv.mp4	0.0	288.48698377609253	0.10002923011779785
63	272.1155216693878	fix_pre	0		120	61.0	2.5	/experiments/Knapen_AOT/AOT_stimuli/rescaled_final/1239_fw.mp4	0.0	288.5870130062103	1.0084857940673828
63	272.6909785270691	pulse	0	t		61.0	2.5	/experiments/Knapen_AOT/AOT_stimuli/rescaled_final/1239_fw.mp4	0.0	289.1624698638916	
63	273.1240074634552	movie	1		279	61.0	2.5	/experiments/Knapen_AOT/AOT_stimuli/rescaled_final/1239_fw.mp4	0.0	289.5954988002777	2.492032527923584
63	274.29105162620544	pulse	1	t		61.0	2.5	/experiments/Knapen_AOT/AOT_stimuli/rescaled_final/1239_fw.mp4	0.0	290.76254296302795	
63	275.6160399913788	fix_post	2		12	61.0	2.5	/experiments/Knapen_AOT/AOT_stimuli/rescaled_final/1239_fw.mp4	0.0	292.0875313282013	0.10001921653747559
64	275.71605920791626	fix_pre	0		120	62.0	2.5	/experiments/Knapen_AOT/AOT_stimuli/rescaled_final/1237_fw.mp4	0.0	292.18755054473877	1.0084834098815918
64	275.8913085460663	pulse	0	t		62.0	2.5	/experiments/Knapen_AOT/AOT_stimuli/rescaled_final/1237_fw.mp4	0.0	292.3627998828888	
64	276.72454261779785	movie	1		284	62.0	2.5	/experiments/Knapen_AOT/AOT_stimuli/rescaled_final/1237_fw.mp4	0.0	293.19603395462036	2.500401258468628
64	277.49153566360474	pulse	1	t		62.0	2.5	/experiments/Knapen_AOT/AOT_stimuli/rescaled_final/1237_fw.mp4	0.0	293.96302700042725	
64	279.09190344810486	pulse	1	t		62.0	2.5	/experiments/Knapen_AOT/AOT_stimuli/rescaled_final/1237_fw.mp4	0.0	295.56339478492737	
64	279.2249438762665	fix_post	2		11	62.0	2.5	/experiments/Knapen_AOT/AOT_stimuli/rescaled_final/1237_fw.mp4	0.0	295.696435213089	0.09163045883178711
65	279.31657433509827	fix_pre	0		120	63.0	2.5	blank	1.0	295.7880656719208	1.0001745223999023
65	280.31674885749817	movie	1		300	63.0	2.5	blank	1.0	296.7882401943207	2.500389575958252
65	280.6920475959778	pulse	1	t		63.0	2.5	blank	1.0	297.1635389328003	
65	282.29232263565063	pulse	1	t		63.0	2.5	blank	1.0	298.76381397247314	
65	282.8171384334564	fix_post	2		12	63.0	2.5	blank	1.0	299.28862977027893	0.10003399848937988
66	282.9171724319458	fix_pre	0		118	64.0	2.5	/experiments/Knapen_AOT/AOT_stimuli/rescaled_final/0574_fw.mp4	0.0	299.3886637687683	1.0001680850982666
66	283.89260840415955	pulse	0	t		64.0	2.5	/experiments/Knapen_AOT/AOT_stimuli/rescaled_final/0574_fw.mp4	0.0	300.36409974098206	
66	283.91734051704407	movie	1		283	64.0	2.5	/experiments/Knapen_AOT/AOT_stimuli/rescaled_final/0574_fw.mp4	0.0	300.3888318538666	2.491976261138916
66	285.49127674102783	pulse	1	t		64.0	2.5	/experiments/Knapen_AOT/AOT_stimuli/rescaled_final/0574_fw.mp4	0.0	301.96276807785034	
66	286.409316778183	fix_post	2		12	64.0	2.5	/experiments/Knapen_AOT/AOT_stimuli/rescaled_final/0574_fw.mp4	0.0	302.8808081150055	0.10010313987731934
67	286.5094199180603	fix_pre	0		120	65.0	2.5	/experiments/Knapen_AOT/AOT_stimuli/rescaled_final/1743_rv.mp4	0.0	302.9809112548828	1.0084071159362793
67	287.0929961204529	pulse	0	t		65.0	2.5	/experiments/Knapen_AOT/AOT_stimuli/rescaled_final/1743_rv.mp4	0.0	303.5644874572754	
67	287.5178270339966	movie	1		281	65.0	2.5	/experiments/Knapen_AOT/AOT_stimuli/rescaled_final/1743_rv.mp4	0.0	303.9893183708191	2.4920549392700195
67	288.6928114891052	pulse	1	t		65.0	2.5	/experiments/Knapen_AOT/AOT_stimuli/rescaled_final/1743_rv.mp4	0.0	305.16430282592773	
67	290.0098819732666	fix_post	2		12	65.0	2.5	/experiments/Knapen_AOT/AOT_stimuli/rescaled_final/1743_rv.mp4	0.0	306.4813733100891	0.10003256797790527
68	290.1099145412445	fix_pre	0		120	66.0	2.5	/experiments/Knapen_AOT/AOT_stimuli/rescaled_final/1853_fw.mp4	0.0	306.581405878067	1.0084865093231201
68	290.29348826408386	pulse	0	t		66.0	2.5	/experiments/Knapen_AOT/AOT_stimuli/rescaled_final/1853_fw.mp4	0.0	306.7649796009064	
68	291.1184010505676	movie	1		271	66.0	2.5	/experiments/Knapen_AOT/AOT_stimuli/rescaled_final/1853_fw.mp4	0.0	307.58989238739014	2.4920196533203125
68	291.89173555374146	pulse	1	t		66.0	2.5	/experiments/Knapen_AOT/AOT_stimuli/rescaled_final/1853_fw.mp4	0.0	308.36322689056396	
68	293.49218797683716	pulse	1	t		66.0	2.5	/experiments/Knapen_AOT/AOT_stimuli/rescaled_final/1853_fw.mp4	0.0	309.96367931365967	
68	293.61042070388794	fix_post	2		12	66.0	2.5	/experiments/Knapen_AOT/AOT_stimuli/rescaled_final/1853_fw.mp4	0.0	310.08191204071045	0.10011053085327148
69	293.7105312347412	fix_pre	0		120	67.0	2.5	/experiments/Knapen_AOT/AOT_stimuli/rescaled_final/1254_rv.mp4	0.0	310.1820225715637	1.0083725452423096
69	294.7189037799835	movie	1		278	67.0	2.5	/experiments/Knapen_AOT/AOT_stimuli/rescaled_final/1254_rv.mp4	0.0	311.19039511680603	2.4920785427093506
69	295.09281277656555	pulse	1	t		67.0	2.5	/experiments/Knapen_AOT/AOT_stimuli/rescaled_final/1254_rv.mp4	0.0	311.56430411338806	
69	296.69266176223755	pulse	1	t		67.0	2.5	/experiments/Knapen_AOT/AOT_stimuli/rescaled_final/1254_rv.mp4	0.0	313.16415309906006	
69	297.21098232269287	fix_post	2		12	67.0	2.5	/experiments/Knapen_AOT/AOT_stimuli/rescaled_final/1254_rv.mp4	0.0	313.6824736595154	0.09998679161071777
70	297.3109691143036	fix_pre	0		119	68.0	2.5	blank	1.0	313.7824604511261	0.991793155670166
70	298.29468989372253	pulse	0	t		68.0	2.5	blank	1.0	314.76618123054504	
70	298.30276226997375	movie	1		301	68.0	2.5	blank	1.0	314.77425360679626	2.508744955062866
70	299.8950912952423	pulse	1	t		68.0	2.5	blank	1.0	316.3665826320648	
70	300.8115072250366	fix_post	2		12	68.0	2.5	blank	1.0	317.28299856185913	0.10004353523254395
71	300.91155076026917	fix_pre	0		120	69.0	2.5	/experiments/Knapen_AOT/AOT_stimuli/rescaled_final/2173_rv.mp4	0.0	317.3830420970917	1.0085585117340088
71	301.4951539039612	pulse	0	t		69.0	2.5	/experiments/Knapen_AOT/AOT_stimuli/rescaled_final/2173_rv.mp4	0.0	317.9666452407837	
71	301.9201092720032	movie	1		278	69.0	2.5	/experiments/Knapen_AOT/AOT_stimuli/rescaled_final/2173_rv.mp4	0.0	318.3916006088257	2.491931915283203
71	303.09350395202637	pulse	1	t		69.0	2.5	/experiments/Knapen_AOT/AOT_stimuli/rescaled_final/2173_rv.mp4	0.0	319.5649952888489	
71	304.4120411872864	fix_post	2		12	69.0	2.5	/experiments/Knapen_AOT/AOT_stimuli/rescaled_final/2173_rv.mp4	0.0	320.8835325241089	0.10019087791442871
72	304.5122320652008	fix_pre	0		120	70.0	2.5	/experiments/Knapen_AOT/AOT_stimuli/rescaled_final/0063_rv.mp4	0.0	320.9837234020233	1.0083422660827637
72	304.69560289382935	pulse	0	t		70.0	2.5	/experiments/Knapen_AOT/AOT_stimuli/rescaled_final/0063_rv.mp4	0.0	321.16709423065186	
72	305.52057433128357	movie	1		280	70.0	2.5	/experiments/Knapen_AOT/AOT_stimuli/rescaled_final/0063_rv.mp4	0.0	321.9920656681061	2.492014169692993
72	306.2939643859863	pulse	1	t		70.0	2.5	/experiments/Knapen_AOT/AOT_stimuli/rescaled_final/0063_rv.mp4	0.0	322.76545572280884	
72	307.8942518234253	pulse	1	t		70.0	2.5	/experiments/Knapen_AOT/AOT_stimuli/rescaled_final/0063_rv.mp4	0.0	324.3657431602478	
72	308.01258850097656	fix_post	2		12	70.0	2.5	/experiments/Knapen_AOT/AOT_stimuli/rescaled_final/0063_rv.mp4	0.0	324.4840798377991	0.10002446174621582
73	308.1126129627228	fix_pre	0		120	71.0	2.5	/experiments/Knapen_AOT/AOT_stimuli/rescaled_final/0151_rv.mp4	0.0	324.5841042995453	1.0085151195526123
73	309.1211280822754	movie	1		285	71.0	2.5	/experiments/Knapen_AOT/AOT_stimuli/rescaled_final/0151_rv.mp4	0.0	325.5926194190979	2.4920077323913574
73	309.4965636730194	pulse	1	t		71.0	2.5	/experiments/Knapen_AOT/AOT_stimuli/rescaled_final/0151_rv.mp4	0.0	325.9680550098419	
73	311.09429693222046	pulse	1	t		71.0	2.5	/experiments/Knapen_AOT/AOT_stimuli/rescaled_final/0151_rv.mp4	0.0	327.56578826904297	
73	311.61313581466675	fix_post	2		12	71.0	2.5	/experiments/Knapen_AOT/AOT_stimuli/rescaled_final/0151_rv.mp4	0.0	328.08462715148926	0.1000220775604248
74	311.7131578922272	fix_pre	0		119	72.0	2.5	/experiments/Knapen_AOT/AOT_stimuli/rescaled_final/0951_fw.mp4	0.0	328.1846492290497	1.0085241794586182
74	312.69686365127563	pulse	0	t		72.0	2.5	/experiments/Knapen_AOT/AOT_stimuli/rescaled_final/0951_fw.mp4	0.0	329.16835498809814	
74	312.7216820716858	movie	1		282	72.0	2.5	/experiments/Knapen_AOT/AOT_stimuli/rescaled_final/0951_fw.mp4	0.0	329.1931734085083	2.491982936859131
74	314.29539799690247	pulse	1	t		72.0	2.5	/experiments/Knapen_AOT/AOT_stimuli/rescaled_final/0951_fw.mp4	0.0	330.766889333725	
74	315.2136650085449	fix_post	2		12	72.0	2.5	/experiments/Knapen_AOT/AOT_stimuli/rescaled_final/0951_fw.mp4	0.0	331.68515634536743	0.10006427764892578
75	315.31372928619385	fix_pre	0		120	73.0	2.5	/experiments/Knapen_AOT/AOT_stimuli/rescaled_final/1973_rv.mp4	0.0	331.78522062301636	1.0084471702575684
75	315.89736676216125	pulse	0	t		73.0	2.5	/experiments/Knapen_AOT/AOT_stimuli/rescaled_final/1973_rv.mp4	0.0	332.36885809898376	
75	316.3221764564514	movie	1		283	73.0	2.5	/experiments/Knapen_AOT/AOT_stimuli/rescaled_final/1973_rv.mp4	0.0	332.7936677932739	2.4920296669006348
75	317.4957733154297	pulse	1	t		73.0	2.5	/experiments/Knapen_AOT/AOT_stimuli/rescaled_final/1973_rv.mp4	0.0	333.9672646522522	
75	318.81420612335205	fix_post	2		12	73.0	2.5	/experiments/Knapen_AOT/AOT_stimuli/rescaled_final/1973_rv.mp4	0.0	335.28569746017456	0.10008931159973145
76	318.9142954349518	fix_pre	0		120	74.0	2.5	/experiments/Knapen_AOT/AOT_stimuli/rescaled_final/0948_fw.mp4	0.0	335.3857867717743	1.0084271430969238
76	319.0978333950043	pulse	0	t		74.0	2.5	/experiments/Knapen_AOT/AOT_stimuli/rescaled_final/0948_fw.mp4	0.0	335.5693247318268	
76	319.9227225780487	movie	1		271	74.0	2.5	/experiments/Knapen_AOT/AOT_stimuli/rescaled_final/0948_fw.mp4	0.0	336.3942139148712	2.492014169692993
76	320.6963081359863	pulse	1	t		74.0	2.5	/experiments/Knapen_AOT/AOT_stimuli/rescaled_final/0948_fw.mp4	0.0	337.16779947280884	
76	322.29650616645813	pulse	1	t		74.0	2.5	/experiments/Knapen_AOT/AOT_stimuli/rescaled_final/0948_fw.mp4	0.0	338.76799750328064	
76	322.4147367477417	fix_post	2		12	74.0	2.5	/experiments/Knapen_AOT/AOT_stimuli/rescaled_final/0948_fw.mp4	0.0	338.8862280845642	0.10002827644348145
77	322.5147650241852	fix_pre	0		120	75.0	2.5	blank	1.0	338.9862563610077	1.0001747608184814
77	323.51493978500366	movie	1		300	75.0	2.5	blank	1.0	339.9864311218262	2.5003390312194824
77	323.8985595703125	pulse	1	t		75.0	2.5	blank	1.0	340.370050907135	
77	325.49090218544006	pulse	1	t		75.0	2.5	blank	1.0	341.9623935222626	
77	326.01527881622314	fix_post	2		12	75.0	2.5	blank	1.0	342.48677015304565	0.10004591941833496
78	326.1153247356415	fix_pre	0		118	76.0	2.5	/experiments/Knapen_AOT/AOT_stimuli/rescaled_final/0462_fw.mp4	0.0	342.586816072464	1.000307559967041
78	327.0913302898407	pulse	0	t		76.0	2.5	/experiments/Knapen_AOT/AOT_stimuli/rescaled_final/0462_fw.mp4	0.0	343.5628216266632	
78	327.1156322956085	movie	1		289	76.0	2.5	/experiments/Knapen_AOT/AOT_stimuli/rescaled_final/0462_fw.mp4	0.0	343.58712363243103	2.491893768310547
78	328.69110774993896	pulse	1	t		76.0	2.5	/experiments/Knapen_AOT/AOT_stimuli/rescaled_final/0462_fw.mp4	0.0	345.1625990867615	
78	329.60752606391907	fix_post	2		12	76.0	2.5	/experiments/Knapen_AOT/AOT_stimuli/rescaled_final/0462_fw.mp4	0.0	346.0790174007416	0.09998440742492676
79	329.707510471344	fix_pre	0		120	77.0	2.5	/experiments/Knapen_AOT/AOT_stimuli/rescaled_final/0460_fw.mp4	0.0	346.1790018081665	1.0084831714630127
79	330.29136300086975	pulse	0	t		77.0	2.5	/experiments/Knapen_AOT/AOT_stimuli/rescaled_final/0460_fw.mp4	0.0	346.76285433769226	
79	330.715993642807	movie	1		290	77.0	2.5	/experiments/Knapen_AOT/AOT_stimuli/rescaled_final/0460_fw.mp4	0.0	347.1874849796295	2.4920499324798584
79	331.89150381088257	pulse	1	t		77.0	2.5	/experiments/Knapen_AOT/AOT_stimuli/rescaled_final/0460_fw.mp4	0.0	348.3629951477051	
79	333.20804357528687	fix_post	2		12	77.0	2.5	/experiments/Knapen_AOT/AOT_stimuli/rescaled_final/0460_fw.mp4	0.0	349.6795349121094	0.1000678539276123
80	333.3081114292145	fix_pre	0		120	78.0	2.5	/experiments/Knapen_AOT/AOT_stimuli/rescaled_final/0422_rv.mp4	0.0	349.779602766037	1.0084633827209473
80	333.4920530319214	pulse	0	t		78.0	2.5	/experiments/Knapen_AOT/AOT_stimuli/rescaled_final/0422_rv.mp4	0.0	349.9635443687439	
80	334.3165748119354	movie	1		275	78.0	2.5	/experiments/Knapen_AOT/AOT_stimuli/rescaled_final/0422_rv.mp4	0.0	350.78806614875793	2.4920268058776855
80	335.0919916629791	pulse	1	t		78.0	2.5	/experiments/Knapen_AOT/AOT_stimuli/rescaled_final/0422_rv.mp4	0.0	351.56348299980164	
80	336.69251680374146	pulse	1	t		78.0	2.5	/experiments/Knapen_AOT/AOT_stimuli/rescaled_final/0422_rv.mp4	0.0	353.16400814056396	
80	336.8086016178131	fix_post	2		12	78.0	2.5	/experiments/Knapen_AOT/AOT_stimuli/rescaled_final/0422_rv.mp4	0.0	353.2800929546356	0.0999915599822998
81	336.9085931777954	fix_pre	0		120	79.0	2.5	/experiments/Knapen_AOT/AOT_stimuli/rescaled_final/2133_rv.mp4	0.0	353.3800845146179	1.008500099182129
81	337.91709327697754	movie	1		268	79.0	2.5	/experiments/Knapen_AOT/AOT_stimuli/rescaled_final/2133_rv.mp4	0.0	354.38858461380005	2.492022752761841
81	338.2925033569336	pulse	1	t		79.0	2.5	/experiments/Knapen_AOT/AOT_stimuli/rescaled_final/2133_rv.mp4	0.0	354.7639946937561	
81	339.8927414417267	pulse	1	t		79.0	2.5	/experiments/Knapen_AOT/AOT_stimuli/rescaled_final/2133_rv.mp4	0.0	356.3642327785492	
81	340.4091160297394	fix_post	2		12	79.0	2.5	/experiments/Knapen_AOT/AOT_stimuli/rescaled_final/2133_rv.mp4	0.0	356.8806073665619	0.1000051498413086
82	340.5091211795807	fix_pre	0		119	80.0	2.5	/experiments/Knapen_AOT/AOT_stimuli/rescaled_final/0194_rv.mp4	0.0	356.9806125164032	1.0001981258392334
82	341.49286365509033	pulse	0	t		80.0	2.5	/experiments/Knapen_AOT/AOT_stimuli/rescaled_final/0194_rv.mp4	0.0	357.96435499191284	
82	341.5093193054199	movie	1		287	80.0	2.5	/experiments/Knapen_AOT/AOT_stimuli/rescaled_final/0194_rv.mp4	0.0	357.98081064224243	2.500394344329834
82	343.09159421920776	pulse	1	t		80.0	2.5	/experiments/Knapen_AOT/AOT_stimuli/rescaled_final/0194_rv.mp4	0.0	359.5630855560303	
82	344.00971364974976	fix_post	2		12	80.0	2.5	/experiments/Knapen_AOT/AOT_stimuli/rescaled_final/0194_rv.mp4	0.0	360.48120498657227	0.09995675086975098
83	344.1096704006195	fix_pre	0		120	81.0	2.5	/experiments/Knapen_AOT/AOT_stimuli/rescaled_final/1444_rv.mp4	0.0	360.581161737442	1.0084819793701172
83	344.693470954895	pulse	0	t		81.0	2.5	/experiments/Knapen_AOT/AOT_stimuli/rescaled_final/1444_rv.mp4	0.0	361.16496229171753	
83	345.1181523799896	movie	1		269	81.0	2.5	/experiments/Knapen_AOT/AOT_stimuli/rescaled_final/1444_rv.mp4	0.0	361.58964371681213	2.4920387268066406
83	346.29281067848206	pulse	1	t		81.0	2.5	/experiments/Knapen_AOT/AOT_stimuli/rescaled_final/1444_rv.mp4	0.0	362.76430201530457	
83	347.61019110679626	fix_post	2		12	81.0	2.5	/experiments/Knapen_AOT/AOT_stimuli/rescaled_final/1444_rv.mp4	0.0	364.0816824436188	0.10007619857788086
84	347.71026730537415	fix_pre	0		120	82.0	2.5	/experiments/Knapen_AOT/AOT_stimuli/rescaled_final/0261_rv.mp4	0.0	364.18175864219666	1.0084583759307861
84	347.893812417984	pulse	0	t		82.0	2.5	/experiments/Knapen_AOT/AOT_stimuli/rescaled_final/0261_rv.mp4	0.0	364.3653037548065	
84	348.71872568130493	movie	1		270	82.0	2.5	/experiments/Knapen_AOT/AOT_stimuli/rescaled_final/0261_rv.mp4	0.0	365.19021701812744	2.4920003414154053
84	349.4923872947693	pulse	1	t		82.0	2.5	/experiments/Knapen_AOT/AOT_stimuli/rescaled_final/0261_rv.mp4	0.0	365.9638786315918	
84	351.09272480010986	pulse	1	t		82.0	2.5	/experiments/Knapen_AOT/AOT_stimuli/rescaled_final/0261_rv.mp4	0.0	367.5642161369324	
84	351.21072602272034	fix_post	2		12	82.0	2.5	/experiments/Knapen_AOT/AOT_stimuli/rescaled_final/0261_rv.mp4	0.0	367.68221735954285	0.10003423690795898
85	351.3107602596283	fix_pre	0		120	83.0	2.5	blank	1.0	367.7822515964508	1.0001487731933594
85	352.31090903282166	movie	1		300	83.0	2.5	blank	1.0	368.78240036964417	2.50041127204895
85	352.694527387619	pulse	1	t		83.0	2.5	blank	1.0	369.1660187244415	
85	354.29475831985474	pulse	1	t		83.0	2.5	blank	1.0	370.76624965667725	
85	354.8113203048706	fix_post	2		12	83.0	2.5	blank	1.0	371.2828116416931	0.09993219375610352
87	354.9112524986267	stim	0		1715					371.3827438354492	14.29390835762024
87	355.8954141139984	pulse	0	t						372.3669054508209	
87	357.49545907974243	pulse	0	t						373.96695041656494	
87	359.0959610939026	pulse	0	t						375.5674524307251	
87	360.69607162475586	pulse	0	t						377.16756296157837	
87	362.2962052822113	pulse	0	t						378.7676966190338	
87	363.89621758461	pulse	0	t						380.3677089214325	
87	365.4965617656708	pulse	0	t						381.9680531024933	
87	367.09665608406067	pulse	0	t						383.5681474208832	
87	368.69706678390503	pulse	0	t						385.16855812072754	
