trial_nr	onset	event_type	phase	response	nr_frames	movie_index	movie_duration	movie_file	blank	onset_abs	duration
0	0.12493896484375	stim	0		77					85.41073799133301	0.6415770053863525
0	0.7584009170532227	response	0	space						86.04419994354248	
1	0.7665159702301025	stim	0		4647					86.05231499671936	38.724775075912476
1	39.4872670173645	pulse	0	t						124.77306604385376	
1	39.49129104614258	stim	1		1717					124.77709007263184	14.308308839797974
1	41.083142042160034	pulse	1	t						126.36894106864929	
1	42.68312096595764	pulse	1	t						127.9689199924469	
1	44.28310704231262	pulse	1	t						129.56890606880188	
1	45.883139848709106	pulse	1	t						131.16893887519836	
1	47.48320007324219	pulse	1	t						132.76899909973145	
1	49.08308291435242	pulse	1	t						134.36888194084167	
1	50.68313694000244	pulse	1	t						135.9689359664917	
1	52.283100843429565	pulse	1	t						137.56889986991882	
2	53.79959988594055	fix_pre	0		11	0.0	2.5	/experiments/aot/R_S_3WAnGcPubBY_143.mp4	0.0	139.0853989124298	0.0916750431060791
2	53.88309693336487	pulse	0	t		0.0	2.5	/experiments/aot/R_S_3WAnGcPubBY_143.mp4	0.0	139.16889595985413	
2	53.89127492904663	movie	1		300	0.0	2.5	/experiments/aot/R_S_3WAnGcPubBY_143.mp4	0.0	139.1770739555359	2.5083649158477783
2	55.4799599647522	pulse	1	t		0.0	2.5	/experiments/aot/R_S_3WAnGcPubBY_143.mp4	0.0	140.76575899124146	
2	56.39963984489441	fix_post	2		12	0.0	2.5	/experiments/aot/R_S_3WAnGcPubBY_143.mp4	0.0	141.68543887138367	0.09999799728393555
3	56.499637842178345	fix_pre	0		120	1.0	2.5	/experiments/aot/S_pexels-tima-miroshnichenko-8724308.mp4	0.0	141.7854368686676	0.9999802112579346
3	57.083173990249634	pulse	0	t		1.0	2.5	/experiments/aot/S_pexels-tima-miroshnichenko-8724308.mp4	0.0	142.3689730167389	
3	57.49961805343628	movie	1		161	1.0	2.5	/experiments/aot/S_pexels-tima-miroshnichenko-8724308.mp4	0.0	142.78541707992554	2.499924898147583
3	58.68316197395325	pulse	1	t		1.0	2.5	/experiments/aot/S_pexels-tima-miroshnichenko-8724308.mp4	0.0	143.9689610004425	
3	59.99954295158386	fix_post	2		12	1.0	2.5	/experiments/aot/S_pexels-tima-miroshnichenko-8724308.mp4	0.0	145.28534197807312	0.10005998611450195
4	60.099602937698364	fix_pre	0		120	2.0	2.5	/experiments/aot/S_yt-BAQ3Xhm_PPE_23.mp4	0.0	145.38540196418762	1.0000019073486328
4	60.28303599357605	pulse	0	t		2.0	2.5	/experiments/aot/S_yt-BAQ3Xhm_PPE_23.mp4	0.0	145.5688350200653	
4	61.099604845047	movie	1		299	2.0	2.5	/experiments/aot/S_yt-BAQ3Xhm_PPE_23.mp4	0.0	146.38540387153625	2.500005006790161
4	61.88309693336487	pulse	1	t		2.0	2.5	/experiments/aot/S_yt-BAQ3Xhm_PPE_23.mp4	0.0	147.16889595985413	
4	63.47774291038513	pulse	1	t		2.0	2.5	/experiments/aot/S_yt-BAQ3Xhm_PPE_23.mp4	0.0	148.7635419368744	
4	63.59960985183716	fix_post	2		12	2.0	2.5	/experiments/aot/S_yt-BAQ3Xhm_PPE_23.mp4	0.0	148.88540887832642	0.10006999969482422
5	63.69967985153198	fix_pre	0		120	3.0	2.5	/experiments/aot/R_S_yt-7WYXuBHeorw_188.mp4	0.0	148.98547887802124	0.9998331069946289
5	64.69951295852661	movie	1		300	3.0	2.5	/experiments/aot/R_S_yt-7WYXuBHeorw_188.mp4	0.0	149.98531198501587	2.5000600814819336
5	65.0830328464508	pulse	1	t		3.0	2.5	/experiments/aot/R_S_yt-7WYXuBHeorw_188.mp4	0.0	150.36883187294006	
5	66.68308305740356	pulse	1	t		3.0	2.5	/experiments/aot/R_S_yt-7WYXuBHeorw_188.mp4	0.0	151.96888208389282	
5	67.19957304000854	fix_post	2		12	3.0	2.5	/experiments/aot/R_S_yt-7WYXuBHeorw_188.mp4	0.0	152.4853720664978	0.09991002082824707
6	67.29948306083679	fix_pre	0		119	4.0	2.5	/experiments/aot/S_yt-3E02UEHdoZ4_752.mp4	0.0	152.58528208732605	0.9917359352111816
6	68.28315687179565	pulse	0	t		4.0	2.5	/experiments/aot/S_yt-3E02UEHdoZ4_752.mp4	0.0	153.5689558982849	
6	68.29121899604797	movie	1		301	4.0	2.5	/experiments/aot/S_yt-3E02UEHdoZ4_752.mp4	0.0	153.57701802253723	2.508296012878418
6	69.87930703163147	pulse	1	t		4.0	2.5	/experiments/aot/S_yt-3E02UEHdoZ4_752.mp4	0.0	155.16510605812073	
6	70.79951500892639	fix_post	2		12	4.0	2.5	/experiments/aot/S_yt-3E02UEHdoZ4_752.mp4	0.0	156.08531403541565	0.09996795654296875
7	70.89948296546936	fix_pre	0		120	5.0	2.5	/experiments/aot/R_S_yt-uE9XoCLZlFo_1.mp4	0.0	156.18528199195862	1.00006103515625
7	71.48300695419312	pulse	0	t		5.0	2.5	/experiments/aot/R_S_yt-uE9XoCLZlFo_1.mp4	0.0	156.76880598068237	
7	71.89954400062561	movie	1		300	5.0	2.5	/experiments/aot/R_S_yt-uE9XoCLZlFo_1.mp4	0.0	157.18534302711487	2.500002861022949
7	73.0830090045929	pulse	1	t		5.0	2.5	/experiments/aot/R_S_yt-uE9XoCLZlFo_1.mp4	0.0	158.36880803108215	
7	74.39954686164856	fix_post	2		12	5.0	2.5	/experiments/aot/R_S_yt-uE9XoCLZlFo_1.mp4	0.0	159.68534588813782	0.10007500648498535
8	74.49962186813354	fix_pre	0		120	6.0	2.5	/experiments/aot/S_yt-a0axt7n0GuQ_19.mp4	0.0	159.7854208946228	0.9998180866241455
8	74.68300890922546	pulse	0	t		6.0	2.5	/experiments/aot/S_yt-a0axt7n0GuQ_19.mp4	0.0	159.96880793571472	
8	75.49943995475769	movie	1		300	6.0	2.5	/experiments/aot/S_yt-a0axt7n0GuQ_19.mp4	0.0	160.78523898124695	2.5000500679016113
8	76.2829978466034	pulse	1	t		6.0	2.5	/experiments/aot/S_yt-a0axt7n0GuQ_19.mp4	0.0	161.56879687309265	
8	77.88299894332886	pulse	1	t		6.0	2.5	/experiments/aot/S_yt-a0axt7n0GuQ_19.mp4	0.0	163.16879796981812	
8	77.9994900226593	fix_post	2		12	6.0	2.5	/experiments/aot/S_yt-a0axt7n0GuQ_19.mp4	0.0	163.28528904914856	0.09998297691345215
9	78.09947299957275	fix_pre	0		120	7.0	2.5	blank	1.0	163.385272026062	1.0000560283660889
9	79.09952902793884	movie	1		300	7.0	2.5	blank	1.0	164.3853280544281	2.500025987625122
9	79.48301100730896	pulse	1	t		7.0	2.5	blank	1.0	164.76881003379822	
9	81.08300185203552	pulse	1	t		7.0	2.5	blank	1.0	166.36880087852478	
9	81.59955501556396	fix_post	2		12	7.0	2.5	blank	1.0	166.88535404205322	0.10001802444458008
10	81.69957304000854	fix_pre	0		119	8.0	2.5	/experiments/aot/S_ILnEDG_aP1A_35.mp4	0.0	166.9853720664978	0.9915199279785156
10	82.68304395675659	pulse	0	t		8.0	2.5	/experiments/aot/S_ILnEDG_aP1A_35.mp4	0.0	167.96884298324585	
10	82.69109296798706	movie	1		301	8.0	2.5	/experiments/aot/S_ILnEDG_aP1A_35.mp4	0.0	167.97689199447632	2.508389949798584
10	84.27933406829834	pulse	1	t		8.0	2.5	/experiments/aot/S_ILnEDG_aP1A_35.mp4	0.0	169.5651330947876	
10	85.19948291778564	fix_post	2		12	8.0	2.5	/experiments/aot/S_ILnEDG_aP1A_35.mp4	0.0	170.4852819442749	0.10004997253417969
11	85.29953289031982	fix_pre	0		120	9.0	2.5	/experiments/aot/R_S_yt-WhQMF3WM0Ig_29.mp4	0.0	170.58533191680908	0.999521017074585
11	85.88298392295837	pulse	0	t		9.0	2.5	/experiments/aot/R_S_yt-WhQMF3WM0Ig_29.mp4	0.0	171.16878294944763	
11	86.29905390739441	movie	1		300	9.0	2.5	/experiments/aot/R_S_yt-WhQMF3WM0Ig_29.mp4	0.0	171.58485293388367	2.5003859996795654
11	87.48279905319214	pulse	1	t		9.0	2.5	/experiments/aot/R_S_yt-WhQMF3WM0Ig_29.mp4	0.0	172.7685980796814	
11	88.79943990707397	fix_post	2		12	9.0	2.5	/experiments/aot/R_S_yt-WhQMF3WM0Ig_29.mp4	0.0	174.08523893356323	0.10006308555603027
12	88.89950299263	fix_pre	0		120	10.0	2.5	/experiments/aot/S_wc-ujHd_fPVcSlX_10.mp4	0.0	174.18530201911926	0.9999880790710449
12	89.08301305770874	pulse	0	t		10.0	2.5	/experiments/aot/S_wc-ujHd_fPVcSlX_10.mp4	0.0	174.368812084198	
12	89.89949107170105	movie	1		161	10.0	2.5	/experiments/aot/S_wc-ujHd_fPVcSlX_10.mp4	0.0	175.1852900981903	2.5000698566436768
12	90.68294286727905	pulse	1	t		10.0	2.5	/experiments/aot/S_wc-ujHd_fPVcSlX_10.mp4	0.0	175.9687418937683	
12	92.27951288223267	pulse	1	t		10.0	2.5	/experiments/aot/S_wc-ujHd_fPVcSlX_10.mp4	0.0	177.56531190872192	
12	92.39956092834473	fix_post	2		12	10.0	2.5	/experiments/aot/S_wc-ujHd_fPVcSlX_10.mp4	0.0	177.68535995483398	0.09987902641296387
13	92.49943995475769	fix_pre	0		120	11.0	2.5	/experiments/aot/R_S_yt-a0axt7n0GuQ_19.mp4	0.0	177.78523898124695	0.9999690055847168
13	93.49940896034241	movie	1		300	11.0	2.5	/experiments/aot/R_S_yt-a0axt7n0GuQ_19.mp4	0.0	178.78520798683167	2.4999330043792725
13	93.88286685943604	pulse	1	t		11.0	2.5	/experiments/aot/R_S_yt-a0axt7n0GuQ_19.mp4	0.0	179.1686658859253	
13	95.48284983634949	pulse	1	t		11.0	2.5	/experiments/aot/R_S_yt-a0axt7n0GuQ_19.mp4	0.0	180.76864886283875	
13	95.99934196472168	fix_post	2		12	11.0	2.5	/experiments/aot/R_S_yt-a0axt7n0GuQ_19.mp4	0.0	181.28514099121094	0.1000359058380127
14	96.09937787055969	fix_pre	0		119	12.0	2.5	/experiments/aot/S_yt-nYi_FfCjepk_74.mp4	0.0	181.38517689704895	0.9916679859161377
14	97.08285093307495	pulse	0	t		12.0	2.5	/experiments/aot/S_yt-nYi_FfCjepk_74.mp4	0.0	182.3686499595642	
14	97.09104585647583	movie	1		301	12.0	2.5	/experiments/aot/S_yt-nYi_FfCjepk_74.mp4	0.0	182.3768448829651	2.5083160400390625
14	98.67845892906189	pulse	1	t		12.0	2.5	/experiments/aot/S_yt-nYi_FfCjepk_74.mp4	0.0	183.96425795555115	
14	99.59936189651489	fix_post	2		12	12.0	2.5	/experiments/aot/S_yt-nYi_FfCjepk_74.mp4	0.0	184.88516092300415	0.10000395774841309
15	99.6993658542633	fix_pre	0		120	13.0	2.5	blank	1.0	184.98516488075256	1.0000271797180176
15	100.28289103507996	pulse	0	t		13.0	2.5	blank	1.0	185.5686900615692	
15	100.69939303398132	movie	1		300	13.0	2.5	blank	1.0	185.98519206047058	2.500070810317993
15	101.88288402557373	pulse	1	t		13.0	2.5	blank	1.0	187.168683052063	
15	103.19946384429932	fix_post	2		12	13.0	2.5	blank	1.0	188.48526287078857	0.09983110427856445
16	103.29929494857788	fix_pre	0		120	14.0	2.5	/experiments/aot/S_pexels-rodnae-productions-5993671.mp4	0.0	188.58509397506714	1.0001189708709717
16	103.4828028678894	pulse	0	t		14.0	2.5	/experiments/aot/S_pexels-rodnae-productions-5993671.mp4	0.0	188.76860189437866	
16	104.29941391944885	movie	1		163	14.0	2.5	/experiments/aot/S_pexels-rodnae-productions-5993671.mp4	0.0	189.5852129459381	2.499962091445923
16	105.08289098739624	pulse	1	t		14.0	2.5	/experiments/aot/S_pexels-rodnae-productions-5993671.mp4	0.0	190.3686900138855	
16	106.68297290802002	pulse	1	t		14.0	2.5	/experiments/aot/S_pexels-rodnae-productions-5993671.mp4	0.0	191.96877193450928	
16	106.79937601089478	fix_post	2		12	14.0	2.5	/experiments/aot/S_pexels-rodnae-productions-5993671.mp4	0.0	192.08517503738403	0.09998083114624023
17	106.89935684204102	fix_pre	0		120	15.0	2.5	/experiments/aot/S_pexels-vlada-karpovich-8044792.mp4	0.0	192.18515586853027	0.9999752044677734
17	107.89933204650879	movie	1		163	15.0	2.5	/experiments/aot/S_pexels-vlada-karpovich-8044792.mp4	0.0	193.18513107299805	2.5000948905944824
17	108.282958984375	pulse	1	t		15.0	2.5	/experiments/aot/S_pexels-vlada-karpovich-8044792.mp4	0.0	193.56875801086426	
17	109.88278698921204	pulse	1	t		15.0	2.5	/experiments/aot/S_pexels-vlada-karpovich-8044792.mp4	0.0	195.1685860157013	
17	110.39942693710327	fix_post	2		12	15.0	2.5	/experiments/aot/S_pexels-vlada-karpovich-8044792.mp4	0.0	195.68522596359253	0.0999290943145752
18	110.49935603141785	fix_pre	0		119	16.0	2.5	/experiments/aot/S_yt-AbJBxqEYoMg_27.mp4	0.0	195.7851550579071	0.9916369915008545
18	111.48286485671997	pulse	0	t		16.0	2.5	/experiments/aot/S_yt-AbJBxqEYoMg_27.mp4	0.0	196.76866388320923	
18	111.4909930229187	movie	1		301	16.0	2.5	/experiments/aot/S_yt-AbJBxqEYoMg_27.mp4	0.0	196.77679204940796	2.5083179473876953
18	113.0786600112915	pulse	1	t		16.0	2.5	/experiments/aot/S_yt-AbJBxqEYoMg_27.mp4	0.0	198.36445903778076	
18	113.9993109703064	fix_post	2		12	16.0	2.5	/experiments/aot/S_yt-AbJBxqEYoMg_27.mp4	0.0	199.28510999679565	0.10000205039978027
19	114.09931302070618	fix_pre	0		120	17.0	2.5	/experiments/aot/R_S_Pexels_Videos_2795737.mp4	0.0	199.38511204719543	0.9999608993530273
19	114.68277597427368	pulse	0	t		17.0	2.5	/experiments/aot/R_S_Pexels_Videos_2795737.mp4	0.0	199.96857500076294	
19	115.0992739200592	movie	1		162	17.0	2.5	/experiments/aot/R_S_Pexels_Videos_2795737.mp4	0.0	200.38507294654846	2.5000810623168945
19	116.28289604187012	pulse	1	t		17.0	2.5	/experiments/aot/R_S_Pexels_Videos_2795737.mp4	0.0	201.56869506835938	
19	117.5993549823761	fix_post	2		12	17.0	2.5	/experiments/aot/R_S_Pexels_Videos_2795737.mp4	0.0	202.88515400886536	0.10003995895385742
20	117.69939494132996	fix_pre	0		120	18.0	2.5	/experiments/aot/R_S_yt-Jo6PxivsTOg_247.mp4	0.0	202.9851939678192	0.9998960494995117
20	117.88282990455627	pulse	0	t		18.0	2.5	/experiments/aot/R_S_yt-Jo6PxivsTOg_247.mp4	0.0	203.16862893104553	
20	118.69929099082947	movie	1		300	18.0	2.5	/experiments/aot/R_S_yt-Jo6PxivsTOg_247.mp4	0.0	203.98509001731873	2.500063896179199
20	119.48295497894287	pulse	1	t		18.0	2.5	/experiments/aot/R_S_yt-Jo6PxivsTOg_247.mp4	0.0	204.76875400543213	
20	121.08275198936462	pulse	1	t		18.0	2.5	/experiments/aot/R_S_yt-Jo6PxivsTOg_247.mp4	0.0	206.36855101585388	
20	121.19935488700867	fix_post	2		12	18.0	2.5	/experiments/aot/R_S_yt-Jo6PxivsTOg_247.mp4	0.0	206.48515391349792	0.09989809989929199
21	121.29925298690796	fix_pre	0		120	19.0	2.5	/experiments/aot/R_S_yt-2OoHcgS8sss_7.mp4	0.0	206.58505201339722	1.0000710487365723
21	122.29932403564453	movie	1		300	19.0	2.5	/experiments/aot/R_S_yt-2OoHcgS8sss_7.mp4	0.0	207.5851230621338	2.499876022338867
21	122.6827700138092	pulse	1	t		19.0	2.5	/experiments/aot/R_S_yt-2OoHcgS8sss_7.mp4	0.0	207.96856904029846	
21	124.28273105621338	pulse	1	t		19.0	2.5	/experiments/aot/R_S_yt-2OoHcgS8sss_7.mp4	0.0	209.56853008270264	
21	124.7992000579834	fix_post	2		12	19.0	2.5	/experiments/aot/R_S_yt-2OoHcgS8sss_7.mp4	0.0	210.08499908447266	0.10009598731994629
22	124.89929604530334	fix_pre	0		119	20.0	2.5	/experiments/aot/S_yt-XF0fyyFEgWo_280.mp4	0.0	210.1850950717926	0.9915919303894043
22	125.88269305229187	pulse	0	t		20.0	2.5	/experiments/aot/S_yt-XF0fyyFEgWo_280.mp4	0.0	211.16849207878113	
22	125.89088797569275	movie	1		301	20.0	2.5	/experiments/aot/S_yt-XF0fyyFEgWo_280.mp4	0.0	211.176687002182	2.50849986076355
22	127.47846603393555	pulse	1	t		20.0	2.5	/experiments/aot/S_yt-XF0fyyFEgWo_280.mp4	0.0	212.7642650604248	
22	128.3993878364563	fix_post	2		12	20.0	2.5	/experiments/aot/S_yt-XF0fyyFEgWo_280.mp4	0.0	213.68518686294556	0.09973001480102539
23	128.49911785125732	fix_pre	0		120	21.0	2.5	blank	1.0	213.78491687774658	1.0000731945037842
23	129.0827078819275	pulse	0	t		21.0	2.5	blank	1.0	214.36850690841675	
23	129.4991910457611	movie	1		300	21.0	2.5	blank	1.0	214.78499007225037	2.500168800354004
23	130.68273997306824	pulse	1	t		21.0	2.5	blank	1.0	215.9685389995575	
23	131.9993598461151	fix_post	2		12	21.0	2.5	blank	1.0	217.28515887260437	0.09990215301513672
24	132.09926199913025	fix_pre	0		120	22.0	2.5	/experiments/aot/R_S_yt-MEfljVFL0xw_375.mp4	0.0	217.3850610256195	0.9999208450317383
24	132.2827479839325	pulse	0	t		22.0	2.5	/experiments/aot/R_S_yt-MEfljVFL0xw_375.mp4	0.0	217.56854701042175	
24	133.099182844162	movie	1		299	22.0	2.5	/experiments/aot/R_S_yt-MEfljVFL0xw_375.mp4	0.0	218.38498187065125	2.50004506111145
24	133.8827428817749	pulse	1	t		22.0	2.5	/experiments/aot/R_S_yt-MEfljVFL0xw_375.mp4	0.0	219.16854190826416	
24	135.48266696929932	pulse	1	t		22.0	2.5	/experiments/aot/R_S_yt-MEfljVFL0xw_375.mp4	0.0	220.76846599578857	
24	135.59922790527344	fix_post	2		12	22.0	2.5	/experiments/aot/R_S_yt-MEfljVFL0xw_375.mp4	0.0	220.8850269317627	0.09998798370361328
25	135.69921588897705	fix_pre	0		120	23.0	2.5	/experiments/aot/R_S_yt-isJga8ec5UM_32.mp4	0.0	220.9850149154663	1.0000290870666504
25	136.6992449760437	movie	1		299	23.0	2.5	/experiments/aot/R_S_yt-isJga8ec5UM_32.mp4	0.0	221.98504400253296	2.4999020099639893
25	137.08276200294495	pulse	1	t		23.0	2.5	/experiments/aot/R_S_yt-isJga8ec5UM_32.mp4	0.0	222.3685610294342	
25	138.68295288085938	pulse	1	t		23.0	2.5	/experiments/aot/R_S_yt-isJga8ec5UM_32.mp4	0.0	223.96875190734863	
25	139.1991469860077	fix_post	2		12	23.0	2.5	/experiments/aot/R_S_yt-isJga8ec5UM_32.mp4	0.0	224.48494601249695	0.09998893737792969
26	139.29913592338562	fix_pre	0		119	24.0	2.5	/experiments/aot/S_8amznWxLS04_212.mp4	0.0	224.58493494987488	0.9917359352111816
26	140.28268694877625	pulse	0	t		24.0	2.5	/experiments/aot/S_8amznWxLS04_212.mp4	0.0	225.5684859752655	
26	140.2908718585968	movie	1		301	24.0	2.5	/experiments/aot/S_8amznWxLS04_212.mp4	0.0	225.57667088508606	2.508413076400757
26	141.87807989120483	pulse	1	t		24.0	2.5	/experiments/aot/S_8amznWxLS04_212.mp4	0.0	227.1638789176941	
26	142.79928493499756	fix_post	2		12	24.0	2.5	/experiments/aot/S_8amznWxLS04_212.mp4	0.0	228.08508396148682	0.0999901294708252
27	142.89927506446838	fix_pre	0		120	25.0	2.5	/experiments/aot/R_S_pexels-laker-5793000.mp4	0.0	228.18507409095764	1.0001628398895264
27	143.48295783996582	pulse	0	t		25.0	2.5	/experiments/aot/R_S_pexels-laker-5793000.mp4	0.0	228.76875686645508	
27	143.8994379043579	movie	1		162	25.0	2.5	/experiments/aot/R_S_pexels-laker-5793000.mp4	0.0	229.18523693084717	2.499704122543335
27	145.08270287513733	pulse	1	t		25.0	2.5	/experiments/aot/R_S_pexels-laker-5793000.mp4	0.0	230.3685019016266	
27	146.39914202690125	fix_post	2		12	25.0	2.5	/experiments/aot/R_S_pexels-laker-5793000.mp4	0.0	231.6849410533905	0.09999799728393555
28	146.49914002418518	fix_pre	0		120	26.0	2.5	/experiments/aot/R_S_3WAnGcPubBY_143.mp4	0.0	231.78493905067444	1.0000178813934326
28	146.68262887001038	pulse	0	t		26.0	2.5	/experiments/aot/R_S_3WAnGcPubBY_143.mp4	0.0	231.96842789649963	
28	147.4991579055786	movie	1		300	26.0	2.5	/experiments/aot/R_S_3WAnGcPubBY_143.mp4	0.0	232.78495693206787	2.4999749660491943
28	148.28261303901672	pulse	1	t		26.0	2.5	/experiments/aot/R_S_3WAnGcPubBY_143.mp4	0.0	233.56841206550598	
28	149.88246893882751	pulse	1	t		26.0	2.5	/experiments/aot/R_S_3WAnGcPubBY_143.mp4	0.0	235.16826796531677	
28	149.9991328716278	fix_post	2		12	26.0	2.5	/experiments/aot/R_S_3WAnGcPubBY_143.mp4	0.0	235.28493189811707	0.09993410110473633
29	150.09906697273254	fix_pre	0		120	27.0	2.5	/experiments/aot/S_ILSVRC2015_train_00415007.mp4	0.0	235.3848659992218	1.0000410079956055
29	151.09910798072815	movie	1		300	27.0	2.5	/experiments/aot/S_ILSVRC2015_train_00415007.mp4	0.0	236.3849070072174	2.500025987625122
29	151.482568025589	pulse	1	t		27.0	2.5	/experiments/aot/S_ILSVRC2015_train_00415007.mp4	0.0	236.76836705207825	
29	153.08250403404236	pulse	1	t		27.0	2.5	/experiments/aot/S_ILSVRC2015_train_00415007.mp4	0.0	238.36830306053162	
29	153.59913396835327	fix_post	2		12	27.0	2.5	/experiments/aot/S_ILSVRC2015_train_00415007.mp4	0.0	238.88493299484253	0.09992098808288574
30	153.69905495643616	fix_pre	0		119	28.0	2.5	blank	1.0	238.98485398292542	0.9917430877685547
30	154.6826069355011	pulse	0	t		28.0	2.5	blank	1.0	239.96840596199036	
30	154.6907980442047	movie	1		301	28.0	2.5	blank	1.0	239.97659707069397	2.5082409381866455
30	156.28250193595886	pulse	1	t		28.0	2.5	blank	1.0	241.56830096244812	
30	157.19903898239136	fix_post	2		12	28.0	2.5	blank	1.0	242.48483800888062	0.10007405281066895
31	157.29911303520203	fix_pre	0		120	29.0	2.5	/experiments/aot/R_S_comp_L007_C007_PS_v01_SDR_PS_20180925_SDR_2K_AVC.mp4	0.0	242.58491206169128	0.9999668598175049
31	157.882493019104	pulse	0	t		29.0	2.5	/experiments/aot/R_S_comp_L007_C007_PS_v01_SDR_PS_20180925_SDR_2K_AVC.mp4	0.0	243.16829204559326	
31	158.29907989501953	movie	1		168	29.0	2.5	/experiments/aot/R_S_comp_L007_C007_PS_v01_SDR_PS_20180925_SDR_2K_AVC.mp4	0.0	243.5848789215088	2.500072956085205
31	159.48246788978577	pulse	1	t		29.0	2.5	/experiments/aot/R_S_comp_L007_C007_PS_v01_SDR_PS_20180925_SDR_2K_AVC.mp4	0.0	244.76826691627502	
31	160.79915285110474	fix_post	2		12	29.0	2.5	/experiments/aot/R_S_comp_L007_C007_PS_v01_SDR_PS_20180925_SDR_2K_AVC.mp4	0.0	246.084951877594	0.09990406036376953
32	160.8990569114685	fix_pre	0		120	30.0	2.5	/experiments/aot/R_S_yt-VfASxEzDrvc_145.mp4	0.0	246.18485593795776	1.0000121593475342
32	161.08249688148499	pulse	0	t		30.0	2.5	/experiments/aot/R_S_yt-VfASxEzDrvc_145.mp4	0.0	246.36829590797424	
32	161.89906907081604	movie	1		300	30.0	2.5	/experiments/aot/R_S_yt-VfASxEzDrvc_145.mp4	0.0	247.1848680973053	2.5000929832458496
32	162.68247485160828	pulse	1	t		30.0	2.5	/experiments/aot/R_S_yt-VfASxEzDrvc_145.mp4	0.0	247.96827387809753	
32	164.2825620174408	pulse	1	t		30.0	2.5	/experiments/aot/R_S_yt-VfASxEzDrvc_145.mp4	0.0	249.56836104393005	
32	164.3991620540619	fix_post	2		12	30.0	2.5	/experiments/aot/R_S_yt-VfASxEzDrvc_145.mp4	0.0	249.68496108055115	0.09991598129272461
33	164.49907803535461	fix_pre	0		120	31.0	2.5	/experiments/aot/S_ILSVRC2015_train_00756000.mp4	0.0	249.78487706184387	0.9999268054962158
33	165.49900484085083	movie	1		299	31.0	2.5	/experiments/aot/S_ILSVRC2015_train_00756000.mp4	0.0	250.7848038673401	2.5000410079956055
33	165.8825330734253	pulse	1	t		31.0	2.5	/experiments/aot/S_ILSVRC2015_train_00756000.mp4	0.0	251.16833209991455	
33	167.4825599193573	pulse	1	t		31.0	2.5	/experiments/aot/S_ILSVRC2015_train_00756000.mp4	0.0	252.76835894584656	
33	167.99904584884644	fix_post	2		12	31.0	2.5	/experiments/aot/S_ILSVRC2015_train_00756000.mp4	0.0	253.2848448753357	0.09995603561401367
34	168.09900188446045	fix_pre	0		119	32.0	2.5	/experiments/aot/S_yt-ycfVJyrFgB4_15.mp4	0.0	253.3848009109497	0.9917440414428711
34	169.08271098136902	pulse	0	t		32.0	2.5	/experiments/aot/S_yt-ycfVJyrFgB4_15.mp4	0.0	254.36851000785828	
34	169.09074592590332	movie	1		301	32.0	2.5	/experiments/aot/S_yt-ycfVJyrFgB4_15.mp4	0.0	254.37654495239258	2.508275032043457
34	170.6792459487915	pulse	1	t		32.0	2.5	/experiments/aot/S_yt-ycfVJyrFgB4_15.mp4	0.0	255.96504497528076	
34	171.59902095794678	fix_post	2		12	32.0	2.5	/experiments/aot/S_yt-ycfVJyrFgB4_15.mp4	0.0	256.88481998443604	0.10000991821289062
35	171.69903087615967	fix_pre	0		120	33.0	2.5	/experiments/aot/S_1y-EvnfGO9Y_70.mp4	0.0	256.9848299026489	1.0000951290130615
35	172.28264689445496	pulse	0	t		33.0	2.5	/experiments/aot/S_1y-EvnfGO9Y_70.mp4	0.0	257.5684459209442	
35	172.69912600517273	movie	1		300	33.0	2.5	/experiments/aot/S_1y-EvnfGO9Y_70.mp4	0.0	257.984925031662	2.4999969005584717
35	173.88248991966248	pulse	1	t		33.0	2.5	/experiments/aot/S_1y-EvnfGO9Y_70.mp4	0.0	259.16828894615173	
35	175.1991229057312	fix_post	2		12	33.0	2.5	/experiments/aot/S_1y-EvnfGO9Y_70.mp4	0.0	260.48492193222046	0.09993505477905273
36	175.29905796051025	fix_pre	0		120	34.0	2.5	/experiments/aot/S_yt-3E02UEHdoZ4_752.mp4	0.0	260.5848569869995	0.9999690055847168
36	175.48248195648193	pulse	0	t		34.0	2.5	/experiments/aot/S_yt-3E02UEHdoZ4_752.mp4	0.0	260.7682809829712	
36	176.29902696609497	movie	1		300	34.0	2.5	/experiments/aot/S_yt-3E02UEHdoZ4_752.mp4	0.0	261.58482599258423	2.499990940093994
36	177.0824739933014	pulse	1	t		34.0	2.5	/experiments/aot/S_yt-3E02UEHdoZ4_752.mp4	0.0	262.36827301979065	
36	178.68243384361267	pulse	1	t		34.0	2.5	/experiments/aot/S_yt-3E02UEHdoZ4_752.mp4	0.0	263.96823287010193	
36	178.79901790618896	fix_post	2		12	34.0	2.5	/experiments/aot/S_yt-3E02UEHdoZ4_752.mp4	0.0	264.0848169326782	0.09996604919433594
37	178.8989839553833	fix_pre	0		120	35.0	2.5	blank	1.0	264.18478298187256	0.9999980926513672
37	179.89898204803467	movie	1		300	35.0	2.5	blank	1.0	265.1847810745239	2.499969005584717
37	180.28245401382446	pulse	1	t		35.0	2.5	blank	1.0	265.5682530403137	
37	181.88247799873352	pulse	1	t		35.0	2.5	blank	1.0	267.1682770252228	
37	182.39895105361938	fix_post	2		12	35.0	2.5	blank	1.0	267.68475008010864	0.09995889663696289
38	182.49890995025635	fix_pre	0		119	36.0	2.5	/experiments/aot/S_yt-wnQFgNEnHUI_109.mp4	0.0	267.7847089767456	0.9917690753936768
38	183.48245191574097	pulse	0	t		36.0	2.5	/experiments/aot/S_yt-wnQFgNEnHUI_109.mp4	0.0	268.7682509422302	
38	183.49067902565002	movie	1		301	36.0	2.5	/experiments/aot/S_yt-wnQFgNEnHUI_109.mp4	0.0	268.7764780521393	2.5082240104675293
38	185.07833886146545	pulse	1	t		36.0	2.5	/experiments/aot/S_yt-wnQFgNEnHUI_109.mp4	0.0	270.3641378879547	
38	185.99890303611755	fix_post	2		12	36.0	2.5	/experiments/aot/S_yt-wnQFgNEnHUI_109.mp4	0.0	271.2847020626068	0.10009884834289551
39	186.09900188446045	fix_pre	0		120	37.0	2.5	/experiments/aot/R_S_Pexels_Videos_2791797.mp4	0.0	271.3848009109497	0.9999451637268066
39	186.68244099617004	pulse	0	t		37.0	2.5	/experiments/aot/R_S_Pexels_Videos_2791797.mp4	0.0	271.9682400226593	
39	187.09894704818726	movie	1		164	37.0	2.5	/experiments/aot/R_S_Pexels_Videos_2791797.mp4	0.0	272.3847460746765	2.50002384185791
39	188.28246998786926	pulse	1	t		37.0	2.5	/experiments/aot/R_S_Pexels_Videos_2791797.mp4	0.0	273.5682690143585	
39	189.59897089004517	fix_post	2		12	37.0	2.5	/experiments/aot/R_S_Pexels_Videos_2791797.mp4	0.0	274.8847699165344	0.1001291275024414
40	189.6991000175476	fix_pre	0		120	38.0	2.5	/experiments/aot/S_comp_DB_D001_C001_PSNK_v06_SDR_PS_20180824_SDR_2K_AVC.mp4	0.0	274.98489904403687	0.9998059272766113
40	189.88250184059143	pulse	0	t		38.0	2.5	/experiments/aot/S_comp_DB_D001_C001_PSNK_v06_SDR_PS_20180824_SDR_2K_AVC.mp4	0.0	275.1683008670807	
40	190.69890594482422	movie	1		168	38.0	2.5	/experiments/aot/S_comp_DB_D001_C001_PSNK_v06_SDR_PS_20180824_SDR_2K_AVC.mp4	0.0	275.9847049713135	2.500006914138794
40	191.48242497444153	pulse	1	t		38.0	2.5	/experiments/aot/S_comp_DB_D001_C001_PSNK_v06_SDR_PS_20180824_SDR_2K_AVC.mp4	0.0	276.7682240009308	
40	193.0824408531189	pulse	1	t		38.0	2.5	/experiments/aot/S_comp_DB_D001_C001_PSNK_v06_SDR_PS_20180824_SDR_2K_AVC.mp4	0.0	278.36823987960815	
40	193.198912858963	fix_post	2		12	38.0	2.5	/experiments/aot/S_comp_DB_D001_C001_PSNK_v06_SDR_PS_20180824_SDR_2K_AVC.mp4	0.0	278.48471188545227	0.09998703002929688
41	193.2988998889923	fix_pre	0		120	39.0	2.5	/experiments/aot/R_S_yt-4rwBpRuHg-c_1308.mp4	0.0	278.58469891548157	1.0001380443572998
41	194.2990379333496	movie	1		300	39.0	2.5	/experiments/aot/R_S_yt-4rwBpRuHg-c_1308.mp4	0.0	279.58483695983887	2.4994280338287354
41	194.6825020313263	pulse	1	t		39.0	2.5	/experiments/aot/R_S_yt-4rwBpRuHg-c_1308.mp4	0.0	279.96830105781555	
41	196.28186702728271	pulse	1	t		39.0	2.5	/experiments/aot/R_S_yt-4rwBpRuHg-c_1308.mp4	0.0	281.567666053772	
41	196.79846596717834	fix_post	2		12	39.0	2.5	/experiments/aot/R_S_yt-4rwBpRuHg-c_1308.mp4	0.0	282.0842649936676	0.10006308555603027
42	196.89852905273438	fix_pre	0		119	40.0	2.5	/experiments/aot/S_yt-6mRpmfIvdew_1435.mp4	0.0	282.18432807922363	0.9918129444122314
42	197.88197898864746	pulse	0	t		40.0	2.5	/experiments/aot/S_yt-6mRpmfIvdew_1435.mp4	0.0	283.1677780151367	
42	197.8903419971466	movie	1		301	40.0	2.5	/experiments/aot/S_yt-6mRpmfIvdew_1435.mp4	0.0	283.17614102363586	2.508481025695801
42	199.4789800643921	pulse	1	t		40.0	2.5	/experiments/aot/S_yt-6mRpmfIvdew_1435.mp4	0.0	284.76477909088135	
42	200.3988230228424	fix_post	2		12	40.0	2.5	/experiments/aot/S_yt-6mRpmfIvdew_1435.mp4	0.0	285.68462204933167	0.10002493858337402
43	200.49884796142578	fix_pre	0		120	41.0	2.5	/experiments/aot/R_S_yt-9EnchawJ3pA_90.mp4	0.0	285.78464698791504	1.0001499652862549
43	201.08238792419434	pulse	0	t		41.0	2.5	/experiments/aot/R_S_yt-9EnchawJ3pA_90.mp4	0.0	286.3681869506836	
43	201.49899792671204	movie	1		300	41.0	2.5	/experiments/aot/R_S_yt-9EnchawJ3pA_90.mp4	0.0	286.7847969532013	2.499943971633911
43	202.6823308467865	pulse	1	t		41.0	2.5	/experiments/aot/R_S_yt-9EnchawJ3pA_90.mp4	0.0	287.96812987327576	
43	203.99894189834595	fix_post	2		12	41.0	2.5	/experiments/aot/R_S_yt-9EnchawJ3pA_90.mp4	0.0	289.2847409248352	0.09999513626098633
44	204.09893703460693	fix_pre	0		120	42.0	2.5	blank	1.0	289.3847360610962	0.9994909763336182
44	204.2823028564453	pulse	0	t		42.0	2.5	blank	1.0	289.56810188293457	
44	205.09842801094055	movie	1		300	42.0	2.5	blank	1.0	290.3842270374298	2.500454902648926
44	205.88224601745605	pulse	1	t		42.0	2.5	blank	1.0	291.1680450439453	
44	207.48232293128967	pulse	1	t		42.0	2.5	blank	1.0	292.76812195777893	
44	207.59888291358948	fix_post	2		12	42.0	2.5	blank	1.0	292.88468194007874	0.09993410110473633
45	207.6988170146942	fix_pre	0		120	43.0	2.5	/experiments/aot/S_1y-EvnfGO9Y_70.mp4	0.0	292.9846160411835	1.0000510215759277
45	208.69886803627014	movie	1		300	43.0	2.5	/experiments/aot/S_1y-EvnfGO9Y_70.mp4	0.0	293.9846670627594	2.4999489784240723
45	209.0822548866272	pulse	1	t		43.0	2.5	/experiments/aot/S_1y-EvnfGO9Y_70.mp4	0.0	294.36805391311646	
45	210.68231892585754	pulse	1	t		43.0	2.5	/experiments/aot/S_1y-EvnfGO9Y_70.mp4	0.0	295.9681179523468	
45	211.1988170146942	fix_post	2		12	43.0	2.5	/experiments/aot/S_1y-EvnfGO9Y_70.mp4	0.0	296.4846160411835	0.10001301765441895
46	211.29883003234863	fix_pre	0		119	44.0	2.5	/experiments/aot/S_yt-isJga8ec5UM_32.mp4	0.0	296.5846290588379	0.9916408061981201
46	212.28232884407043	pulse	0	t		44.0	2.5	/experiments/aot/S_yt-isJga8ec5UM_32.mp4	0.0	297.5681278705597	
46	212.29047083854675	movie	1		301	44.0	2.5	/experiments/aot/S_yt-isJga8ec5UM_32.mp4	0.0	297.576269865036	2.508341073989868
46	213.87800288200378	pulse	1	t		44.0	2.5	/experiments/aot/S_yt-isJga8ec5UM_32.mp4	0.0	299.16380190849304	
46	214.79881191253662	fix_post	2		12	44.0	2.5	/experiments/aot/S_yt-isJga8ec5UM_32.mp4	0.0	300.0846109390259	0.10000300407409668
47	214.89881491661072	fix_pre	0		120	45.0	2.5	/experiments/aot/S__6qAy77ODUI_175.mp4	0.0	300.1846139431	1.000011920928955
47	215.48223996162415	pulse	0	t		45.0	2.5	/experiments/aot/S__6qAy77ODUI_175.mp4	0.0	300.7680389881134	
47	215.89882683753967	movie	1		300	45.0	2.5	/experiments/aot/S__6qAy77ODUI_175.mp4	0.0	301.18462586402893	2.5000100135803223
47	217.08226084709167	pulse	1	t		45.0	2.5	/experiments/aot/S__6qAy77ODUI_175.mp4	0.0	302.36805987358093	
47	218.39883685112	fix_post	2		12	45.0	2.5	/experiments/aot/S__6qAy77ODUI_175.mp4	0.0	303.68463587760925	0.10011100769042969
48	218.49894785881042	fix_pre	0		120	46.0	2.5	/experiments/aot/R_S_yt-JVhfcpV7OaY_71.mp4	0.0	303.7847468852997	0.9994430541992188
48	218.6822588443756	pulse	0	t		46.0	2.5	/experiments/aot/R_S_yt-JVhfcpV7OaY_71.mp4	0.0	303.96805787086487	
48	219.49839091300964	movie	1		300	46.0	2.5	/experiments/aot/R_S_yt-JVhfcpV7OaY_71.mp4	0.0	304.7841899394989	2.500425100326538
48	220.2821559906006	pulse	1	t		46.0	2.5	/experiments/aot/R_S_yt-JVhfcpV7OaY_71.mp4	0.0	305.56795501708984	
48	221.88276195526123	pulse	1	t		46.0	2.5	/experiments/aot/R_S_yt-JVhfcpV7OaY_71.mp4	0.0	307.1685609817505	
48	221.99881601333618	fix_post	2		12	46.0	2.5	/experiments/aot/R_S_yt-JVhfcpV7OaY_71.mp4	0.0	307.28461503982544	0.0999460220336914
49	222.09876203536987	fix_pre	0		120	47.0	2.5	/experiments/aot/S_yt-cokedWwwYYs_136.mp4	0.0	307.38456106185913	0.9996829032897949
49	223.09844493865967	movie	1		300	47.0	2.5	/experiments/aot/S_yt-cokedWwwYYs_136.mp4	0.0	308.3842439651489	2.5003960132598877
49	223.48224997520447	pulse	1	t		47.0	2.5	/experiments/aot/S_yt-cokedWwwYYs_136.mp4	0.0	308.7680490016937	
49	225.08219289779663	pulse	1	t		47.0	2.5	/experiments/aot/S_yt-cokedWwwYYs_136.mp4	0.0	310.3679919242859	
49	225.59884095191956	fix_post	2		12	47.0	2.5	/experiments/aot/S_yt-cokedWwwYYs_136.mp4	0.0	310.8846399784088	0.10002899169921875
50	225.69886994361877	fix_pre	0		119	48.0	2.5	blank	1.0	310.98466897010803	0.9915509223937988
50	226.68219184875488	pulse	0	t		48.0	2.5	blank	1.0	311.96799087524414	
50	226.69042086601257	movie	1		301	48.0	2.5	blank	1.0	311.97621989250183	2.5083231925964355
50	228.28215503692627	pulse	1	t		48.0	2.5	blank	1.0	313.5679540634155	
50	229.198744058609	fix_post	2		12	48.0	2.5	blank	1.0	314.48454308509827	0.09994983673095703
51	229.29869389533997	fix_pre	0		120	49.0	2.5	/experiments/aot/S_yt-_HuBzj8EPBc_62.mp4	0.0	314.5844929218292	1.0002951622009277
51	229.88213801383972	pulse	0	t		49.0	2.5	/experiments/aot/S_yt-_HuBzj8EPBc_62.mp4	0.0	315.167937040329	
51	230.2989890575409	movie	1		300	49.0	2.5	/experiments/aot/S_yt-_HuBzj8EPBc_62.mp4	0.0	315.58478808403015	2.499785900115967
51	231.48211789131165	pulse	1	t		49.0	2.5	/experiments/aot/S_yt-_HuBzj8EPBc_62.mp4	0.0	316.7679169178009	
51	232.79877495765686	fix_post	2		12	49.0	2.5	/experiments/aot/S_yt-_HuBzj8EPBc_62.mp4	0.0	318.0845739841461	0.09996199607849121
52	232.89873695373535	fix_pre	0		120	50.0	2.5	/experiments/aot/S_yt-Fm97IY0Z2LU_110.mp4	0.0	318.1845359802246	1.0000460147857666
52	233.08222603797913	pulse	0	t		50.0	2.5	/experiments/aot/S_yt-Fm97IY0Z2LU_110.mp4	0.0	318.3680250644684	
52	233.89878296852112	movie	1		300	50.0	2.5	/experiments/aot/S_yt-Fm97IY0Z2LU_110.mp4	0.0	319.1845819950104	2.499495029449463
52	234.6821050643921	pulse	1	t		50.0	2.5	/experiments/aot/S_yt-Fm97IY0Z2LU_110.mp4	0.0	319.96790409088135	
52	236.2821068763733	pulse	1	t		50.0	2.5	/experiments/aot/S_yt-Fm97IY0Z2LU_110.mp4	0.0	321.56790590286255	
52	236.39827799797058	fix_post	2		12	50.0	2.5	/experiments/aot/S_yt-Fm97IY0Z2LU_110.mp4	0.0	321.68407702445984	0.10045194625854492
53	236.49872994422913	fix_pre	0		120	51.0	2.5	/experiments/aot/S_video-7.mp4	0.0	321.7845289707184	1.0
53	237.49872994422913	movie	1		166	51.0	2.5	/experiments/aot/S_video-7.mp4	0.0	322.7845289707184	2.5000040531158447
53	237.88227200508118	pulse	1	t		51.0	2.5	/experiments/aot/S_video-7.mp4	0.0	323.16807103157043	
53	239.48233699798584	pulse	1	t		51.0	2.5	/experiments/aot/S_video-7.mp4	0.0	324.7681360244751	
53	239.99873399734497	fix_post	2		12	51.0	2.5	/experiments/aot/S_video-7.mp4	0.0	325.28453302383423	0.09990406036376953
54	240.09863805770874	fix_pre	0		119	52.0	2.5	/experiments/aot/S_yt-2lnxIdOTxog_157.mp4	0.0	325.384437084198	0.9916729927062988
54	241.0821409225464	pulse	0	t		52.0	2.5	/experiments/aot/S_yt-2lnxIdOTxog_157.mp4	0.0	326.36793994903564	
54	241.09031105041504	movie	1		301	52.0	2.5	/experiments/aot/S_yt-2lnxIdOTxog_157.mp4	0.0	326.3761100769043	2.50837779045105
54	242.67805790901184	pulse	1	t		52.0	2.5	/experiments/aot/S_yt-2lnxIdOTxog_157.mp4	0.0	327.9638569355011	
54	243.5986888408661	fix_post	2		12	52.0	2.5	/experiments/aot/S_yt-2lnxIdOTxog_157.mp4	0.0	328.88448786735535	0.1001131534576416
55	243.69880199432373	fix_pre	0		120	53.0	2.5	/experiments/aot/R_S_yt-4wjGeLyvfjY_223.mp4	0.0	328.984601020813	0.9998779296875
55	244.28212094306946	pulse	0	t		53.0	2.5	/experiments/aot/R_S_yt-4wjGeLyvfjY_223.mp4	0.0	329.5679199695587	
55	244.69867992401123	movie	1		300	53.0	2.5	/experiments/aot/R_S_yt-4wjGeLyvfjY_223.mp4	0.0	329.9844789505005	2.500102996826172
55	245.88211584091187	pulse	1	t		53.0	2.5	/experiments/aot/R_S_yt-4wjGeLyvfjY_223.mp4	0.0	331.1679148674011	
55	247.1987829208374	fix_post	2		12	53.0	2.5	/experiments/aot/R_S_yt-4wjGeLyvfjY_223.mp4	0.0	332.48458194732666	0.09988808631896973
56	247.29867100715637	fix_pre	0		120	54.0	2.5	/experiments/aot/S_yt-ebzrQh5ErI4_3.mp4	0.0	332.58447003364563	1.0000009536743164
56	247.48224592208862	pulse	0	t		54.0	2.5	/experiments/aot/S_yt-ebzrQh5ErI4_3.mp4	0.0	332.7680449485779	
56	248.2986719608307	movie	1		300	54.0	2.5	/experiments/aot/S_yt-ebzrQh5ErI4_3.mp4	0.0	333.58447098731995	2.5000030994415283
56	249.08213806152344	pulse	1	t		54.0	2.5	/experiments/aot/S_yt-ebzrQh5ErI4_3.mp4	0.0	334.3679370880127	
56	250.6821620464325	pulse	1	t		54.0	2.5	/experiments/aot/S_yt-ebzrQh5ErI4_3.mp4	0.0	335.96796107292175	
56	250.79867506027222	fix_post	2		12	54.0	2.5	/experiments/aot/S_yt-ebzrQh5ErI4_3.mp4	0.0	336.0844740867615	0.10002493858337402
57	250.8986999988556	fix_pre	0		120	55.0	2.5	/experiments/aot/S_ILSVRC2015_train_00415007.mp4	0.0	336.18449902534485	0.9999990463256836
57	251.89869904518127	movie	1		300	55.0	2.5	/experiments/aot/S_ILSVRC2015_train_00415007.mp4	0.0	337.18449807167053	2.500060796737671
57	252.2820999622345	pulse	1	t		55.0	2.5	/experiments/aot/S_ILSVRC2015_train_00415007.mp4	0.0	337.56789898872375	
57	253.88165307044983	pulse	1	t		55.0	2.5	/experiments/aot/S_ILSVRC2015_train_00415007.mp4	0.0	339.1674520969391	
57	254.39875984191895	fix_post	2		12	55.0	2.5	/experiments/aot/S_ILSVRC2015_train_00415007.mp4	0.0	339.6845588684082	0.10002613067626953
58	254.49878597259521	fix_pre	0		119	56.0	2.5	blank	1.0	339.7845849990845	0.9918150901794434
58	255.48236393928528	pulse	0	t		56.0	2.5	blank	1.0	340.76816296577454	
58	255.49060106277466	movie	1		301	56.0	2.5	blank	1.0	340.7764000892639	2.5080549716949463
58	257.0821168422699	pulse	1	t		56.0	2.5	blank	1.0	342.36791586875916	
58	257.9986560344696	fix_post	2		12	56.0	2.5	blank	1.0	343.28445506095886	0.10001897811889648
59	258.0986750125885	fix_pre	0		120	57.0	2.5	/experiments/aot/R_S_production_ID_3712945.mp4	0.0	343.38447403907776	0.9999649524688721
59	258.6822090148926	pulse	0	t		57.0	2.5	/experiments/aot/R_S_production_ID_3712945.mp4	0.0	343.96800804138184	
59	259.0986399650574	movie	1		163	57.0	2.5	/experiments/aot/R_S_production_ID_3712945.mp4	0.0	344.38443899154663	2.499969005584717
59	260.2821218967438	pulse	1	t		57.0	2.5	/experiments/aot/R_S_production_ID_3712945.mp4	0.0	345.56792092323303	
59	261.5986089706421	fix_post	2		12	57.0	2.5	/experiments/aot/R_S_production_ID_3712945.mp4	0.0	346.88440799713135	0.09993195533752441
60	261.6985409259796	fix_pre	0		120	58.0	2.5	/experiments/aot/R_S_production_ID_4325591.mp4	0.0	346.9843399524689	1.0000889301300049
60	261.88197898864746	pulse	0	t		58.0	2.5	/experiments/aot/R_S_production_ID_4325591.mp4	0.0	347.1677780151367	
60	262.6986298561096	movie	1		169	58.0	2.5	/experiments/aot/R_S_production_ID_4325591.mp4	0.0	347.9844288825989	2.4999680519104004
60	263.4822950363159	pulse	1	t		58.0	2.5	/experiments/aot/R_S_production_ID_4325591.mp4	0.0	348.7680940628052	
60	265.0820519924164	pulse	1	t		58.0	2.5	/experiments/aot/R_S_production_ID_4325591.mp4	0.0	350.36785101890564	
60	265.19859790802	fix_post	2		12	58.0	2.5	/experiments/aot/R_S_production_ID_4325591.mp4	0.0	350.4843969345093	0.10002493858337402
61	265.2986228466034	fix_pre	0		120	59.0	2.5	/experiments/aot/R_S_yt-isJga8ec5UM_32.mp4	0.0	350.58442187309265	0.999932050704956
61	266.29855489730835	movie	1		300	59.0	2.5	/experiments/aot/R_S_yt-isJga8ec5UM_32.mp4	0.0	351.5843539237976	2.500023126602173
61	266.68195605278015	pulse	1	t		59.0	2.5	/experiments/aot/R_S_yt-isJga8ec5UM_32.mp4	0.0	351.9677550792694	
61	268.28203892707825	pulse	1	t		59.0	2.5	/experiments/aot/R_S_yt-isJga8ec5UM_32.mp4	0.0	353.5678379535675	
61	268.7985780239105	fix_post	2		12	59.0	2.5	/experiments/aot/R_S_yt-isJga8ec5UM_32.mp4	0.0	354.0843770503998	0.0999448299407959
62	268.8985228538513	fix_pre	0		119	60.0	2.5	/experiments/aot/R_S_pexels-kindel-media-8165572.mp4	0.0	354.1843218803406	0.9916720390319824
62	269.8819799423218	pulse	0	t		60.0	2.5	/experiments/aot/R_S_pexels-kindel-media-8165572.mp4	0.0	355.16777896881104	
62	269.8901948928833	movie	1		166	60.0	2.5	/experiments/aot/R_S_pexels-kindel-media-8165572.mp4	0.0	355.17599391937256	2.5083611011505127
62	271.48221802711487	pulse	1	t		60.0	2.5	/experiments/aot/R_S_pexels-kindel-media-8165572.mp4	0.0	356.7680170536041	
62	272.3985559940338	fix_post	2		12	60.0	2.5	/experiments/aot/R_S_pexels-kindel-media-8165572.mp4	0.0	357.68435502052307	0.09998393058776855
63	272.4985399246216	fix_pre	0		120	61.0	2.5	/experiments/aot/R_S_yt-LUIvP_NDWAs_45.mp4	0.0	357.78433895111084	0.9999871253967285
63	273.0819728374481	pulse	0	t		61.0	2.5	/experiments/aot/R_S_yt-LUIvP_NDWAs_45.mp4	0.0	358.3677718639374	
63	273.4985270500183	movie	1		299	61.0	2.5	/experiments/aot/R_S_yt-LUIvP_NDWAs_45.mp4	0.0	358.78432607650757	2.5000360012054443
63	274.6821699142456	pulse	1	t		61.0	2.5	/experiments/aot/R_S_yt-LUIvP_NDWAs_45.mp4	0.0	359.96796894073486	
63	275.99856305122375	fix_post	2		12	61.0	2.5	/experiments/aot/R_S_yt-LUIvP_NDWAs_45.mp4	0.0	361.284362077713	0.09987497329711914
64	276.0984380245209	fix_pre	0		120	62.0	2.5	blank	1.0	361.38423705101013	1.0000958442687988
64	276.2819788455963	pulse	0	t		62.0	2.5	blank	1.0	361.56777787208557	
64	277.0985338687897	movie	1		300	62.0	2.5	blank	1.0	362.38433289527893	2.499912977218628
64	277.88200998306274	pulse	1	t		62.0	2.5	blank	1.0	363.167809009552	
64	279.4819869995117	pulse	1	t		62.0	2.5	blank	1.0	364.767786026001	
64	279.5984468460083	fix_post	2		12	62.0	2.5	blank	1.0	364.88424587249756	0.10006403923034668
65	279.69851088523865	fix_pre	0		120	63.0	2.5	/experiments/aot/S_yt-uWeU2s6JYyk_10.mp4	0.0	364.9843099117279	1.0000050067901611
65	280.6985158920288	movie	1		299	63.0	2.5	/experiments/aot/S_yt-uWeU2s6JYyk_10.mp4	0.0	365.98431491851807	2.5000460147857666
65	281.0819249153137	pulse	1	t		63.0	2.5	/experiments/aot/S_yt-uWeU2s6JYyk_10.mp4	0.0	366.367723941803	
65	282.68190693855286	pulse	1	t		63.0	2.5	/experiments/aot/S_yt-uWeU2s6JYyk_10.mp4	0.0	367.9677059650421	
65	283.1985619068146	fix_post	2		12	63.0	2.5	/experiments/aot/S_yt-uWeU2s6JYyk_10.mp4	0.0	368.48436093330383	0.09994006156921387
66	283.2985019683838	fix_pre	0		119	64.0	2.5	/experiments/aot/S_yt-KpOAdMtPGFs_17.mp4	0.0	368.58430099487305	0.9915640354156494
66	284.28197383880615	pulse	0	t		64.0	2.5	/experiments/aot/S_yt-KpOAdMtPGFs_17.mp4	0.0	369.5677728652954	
66	284.29006600379944	movie	1		301	64.0	2.5	/experiments/aot/S_yt-KpOAdMtPGFs_17.mp4	0.0	369.5758650302887	2.5083858966827393
66	285.8777539730072	pulse	1	t		64.0	2.5	/experiments/aot/S_yt-KpOAdMtPGFs_17.mp4	0.0	371.16355299949646	
66	286.7984519004822	fix_post	2		12	64.0	2.5	/experiments/aot/S_yt-KpOAdMtPGFs_17.mp4	0.0	372.08425092697144	0.1000680923461914
67	286.89851999282837	fix_pre	0		120	65.0	2.5	/experiments/aot/S_yt-zh2yLr-o_8A_953.mp4	0.0	372.1843190193176	0.9999608993530273
67	287.48198890686035	pulse	0	t		65.0	2.5	/experiments/aot/S_yt-zh2yLr-o_8A_953.mp4	0.0	372.7677879333496	
67	287.8984808921814	movie	1		299	65.0	2.5	/experiments/aot/S_yt-zh2yLr-o_8A_953.mp4	0.0	373.18427991867065	2.499997138977051
67	289.08191299438477	pulse	1	t		65.0	2.5	/experiments/aot/S_yt-zh2yLr-o_8A_953.mp4	0.0	374.367712020874	
67	290.39847803115845	fix_post	2		12	65.0	2.5	/experiments/aot/S_yt-zh2yLr-o_8A_953.mp4	0.0	375.6842770576477	0.09995484352111816
68	290.49843287467957	fix_pre	0		120	66.0	2.5	/experiments/aot/R_S_pexels-vlada-karpovich-8044792.mp4	0.0	375.7842319011688	1.0000660419464111
68	290.68181705474854	pulse	0	t		66.0	2.5	/experiments/aot/R_S_pexels-vlada-karpovich-8044792.mp4	0.0	375.9676160812378	
68	291.498498916626	movie	1		164	66.0	2.5	/experiments/aot/R_S_pexels-vlada-karpovich-8044792.mp4	0.0	376.78429794311523	2.4999771118164062
68	292.2819378376007	pulse	1	t		66.0	2.5	/experiments/aot/R_S_pexels-vlada-karpovich-8044792.mp4	0.0	377.56773686408997	
68	293.88185691833496	pulse	1	t		66.0	2.5	/experiments/aot/R_S_pexels-vlada-karpovich-8044792.mp4	0.0	379.1676559448242	
68	293.9984760284424	fix_post	2		12	66.0	2.5	/experiments/aot/R_S_pexels-vlada-karpovich-8044792.mp4	0.0	379.28427505493164	0.09992098808288574
69	294.09839701652527	fix_pre	0		120	67.0	2.5	/experiments/aot/S_yt-VjTiMtjdjTw_103.mp4	0.0	379.3841960430145	0.9999580383300781
69	295.09835505485535	movie	1		300	67.0	2.5	/experiments/aot/S_yt-VjTiMtjdjTw_103.mp4	0.0	380.3841540813446	2.4999938011169434
69	295.48184394836426	pulse	1	t		67.0	2.5	/experiments/aot/S_yt-VjTiMtjdjTw_103.mp4	0.0	380.7676429748535	
69	297.0818119049072	pulse	1	t		67.0	2.5	/experiments/aot/S_yt-VjTiMtjdjTw_103.mp4	0.0	382.3676109313965	
69	297.5983488559723	fix_post	2		12	67.0	2.5	/experiments/aot/S_yt-VjTiMtjdjTw_103.mp4	0.0	382.88414788246155	0.10008001327514648
70	297.69842886924744	fix_pre	0		119	68.0	2.5	blank	1.0	382.9842278957367	0.9916651248931885
70	298.6818549633026	pulse	0	t		68.0	2.5	blank	1.0	383.96765398979187	
70	298.6900939941406	movie	1		301	68.0	2.5	blank	1.0	383.9758930206299	2.508384943008423
70	300.2819080352783	pulse	1	t		68.0	2.5	blank	1.0	385.5677070617676	
70	301.19847893714905	fix_post	2		12	68.0	2.5	blank	1.0	386.4842779636383	0.09985589981079102
71	301.29833483695984	fix_pre	0		120	69.0	2.5	/experiments/aot/S_ILSVRC2015_train_00572001.mp4	0.0	386.5841338634491	1.0001311302185059
71	301.88186407089233	pulse	0	t		69.0	2.5	/experiments/aot/S_ILSVRC2015_train_00572001.mp4	0.0	387.1676630973816	
71	302.29846596717834	movie	1		300	69.0	2.5	/experiments/aot/S_ILSVRC2015_train_00572001.mp4	0.0	387.5842649936676	2.4999170303344727
71	303.4818630218506	pulse	1	t		69.0	2.5	/experiments/aot/S_ILSVRC2015_train_00572001.mp4	0.0	388.76766204833984	
71	304.7983829975128	fix_post	2		12	69.0	2.5	/experiments/aot/S_ILSVRC2015_train_00572001.mp4	0.0	390.0841820240021	0.10000300407409668
72	304.8983860015869	fix_pre	0		120	70.0	2.5	/experiments/aot/R_S_Person_Going_Through_A_Bible.mp4	0.0	390.1841850280762	0.9999370574951172
72	305.08192706108093	pulse	0	t		70.0	2.5	/experiments/aot/R_S_Person_Going_Through_A_Bible.mp4	0.0	390.3677260875702	
72	305.89832305908203	movie	1		165	70.0	2.5	/experiments/aot/R_S_Person_Going_Through_A_Bible.mp4	0.0	391.1841220855713	2.500109910964966
72	306.68196988105774	pulse	1	t		70.0	2.5	/experiments/aot/R_S_Person_Going_Through_A_Bible.mp4	0.0	391.967768907547	
72	308.28135895729065	pulse	1	t		70.0	2.5	/experiments/aot/R_S_Person_Going_Through_A_Bible.mp4	0.0	393.5671579837799	
72	308.398432970047	fix_post	2		12	70.0	2.5	/experiments/aot/R_S_Person_Going_Through_A_Bible.mp4	0.0	393.68423199653625	0.0999150276184082
73	308.4983479976654	fix_pre	0		120	71.0	2.5	/experiments/aot/S_yt-_6j2NXrB-zE_28.mp4	0.0	393.78414702415466	0.9996349811553955
73	309.4979829788208	movie	1		299	71.0	2.5	/experiments/aot/S_yt-_6j2NXrB-zE_28.mp4	0.0	394.78378200531006	2.50032901763916
73	309.88136291503906	pulse	1	t		71.0	2.5	/experiments/aot/S_yt-_6j2NXrB-zE_28.mp4	0.0	395.1671619415283	
73	311.48165798187256	pulse	1	t		71.0	2.5	/experiments/aot/S_yt-_6j2NXrB-zE_28.mp4	0.0	396.7674570083618	
73	311.99831199645996	fix_post	2		12	71.0	2.5	/experiments/aot/S_yt-_6j2NXrB-zE_28.mp4	0.0	397.2841110229492	0.09998488426208496
74	312.09829688072205	fix_pre	0		119	72.0	2.5	/experiments/aot/S_comp_GL_G002_C002_PSNK_v03_SDR_PS_20180925_SDR_2K_AVC.mp4	0.0	397.3840959072113	0.9917271137237549
74	313.081827878952	pulse	0	t		72.0	2.5	/experiments/aot/S_comp_GL_G002_C002_PSNK_v03_SDR_PS_20180925_SDR_2K_AVC.mp4	0.0	398.3676269054413	
74	313.0900239944458	movie	1		165	72.0	2.5	/experiments/aot/S_comp_GL_G002_C002_PSNK_v03_SDR_PS_20180925_SDR_2K_AVC.mp4	0.0	398.37582302093506	2.508336067199707
74	314.6814169883728	pulse	1	t		72.0	2.5	/experiments/aot/S_comp_GL_G002_C002_PSNK_v03_SDR_PS_20180925_SDR_2K_AVC.mp4	0.0	399.96721601486206	
74	315.5983600616455	fix_post	2		12	72.0	2.5	/experiments/aot/S_comp_GL_G002_C002_PSNK_v03_SDR_PS_20180925_SDR_2K_AVC.mp4	0.0	400.88415908813477	0.10002899169921875
75	315.6983890533447	fix_pre	0		120	73.0	2.5	/experiments/aot/S_yt-YeT4acsbqok_210.mp4	0.0	400.984188079834	0.999891996383667
75	316.2818548679352	pulse	0	t		73.0	2.5	/experiments/aot/S_yt-YeT4acsbqok_210.mp4	0.0	401.56765389442444	
75	316.6982810497284	movie	1		300	73.0	2.5	/experiments/aot/S_yt-YeT4acsbqok_210.mp4	0.0	401.98408007621765	2.5000178813934326
75	317.88166785240173	pulse	1	t		73.0	2.5	/experiments/aot/S_yt-YeT4acsbqok_210.mp4	0.0	403.167466878891	
75	319.1982989311218	fix_post	2		12	73.0	2.5	/experiments/aot/S_yt-YeT4acsbqok_210.mp4	0.0	404.4840979576111	0.09996509552001953
76	319.29826402664185	fix_pre	0		120	74.0	2.5	/experiments/aot/S_yt-lfDIg8kaXhA_169.mp4	0.0	404.5840630531311	1.0000970363616943
76	319.4817419052124	pulse	0	t		74.0	2.5	/experiments/aot/S_yt-lfDIg8kaXhA_169.mp4	0.0	404.76754093170166	
76	320.29836106300354	movie	1		300	74.0	2.5	/experiments/aot/S_yt-lfDIg8kaXhA_169.mp4	0.0	405.5841600894928	2.499884843826294
76	321.0817449092865	pulse	1	t		74.0	2.5	/experiments/aot/S_yt-lfDIg8kaXhA_169.mp4	0.0	406.36754393577576	
76	322.68198585510254	pulse	1	t		74.0	2.5	/experiments/aot/S_yt-lfDIg8kaXhA_169.mp4	0.0	407.9677848815918	
76	322.79824590682983	fix_post	2		12	74.0	2.5	/experiments/aot/S_yt-lfDIg8kaXhA_169.mp4	0.0	408.0840449333191	0.09998607635498047
77	322.8982319831848	fix_pre	0		120	75.0	2.5	blank	1.0	408.1840310096741	1.000082015991211
77	323.898313999176	movie	1		300	75.0	2.5	blank	1.0	409.1841130256653	2.4999239444732666
77	324.28174686431885	pulse	1	t		75.0	2.5	blank	1.0	409.5675458908081	
77	325.8817150592804	pulse	1	t		75.0	2.5	blank	1.0	411.16751408576965	
77	326.3982379436493	fix_post	2		12	75.0	2.5	blank	1.0	411.68403697013855	0.09998798370361328
78	326.4982259273529	fix_pre	0		119	76.0	2.5	/experiments/aot/S_bing-www_msn_com_en-us_video_news_tommy-lasorda-salutes-national-league-champs_vp-AAtLThQ_4.mp4	0.0	411.78402495384216	0.9917490482330322
78	327.48167395591736	pulse	0	t		76.0	2.5	/experiments/aot/S_bing-www_msn_com_en-us_video_news_tommy-lasorda-salutes-national-league-champs_vp-AAtLThQ_4.mp4	0.0	412.7674729824066	
78	327.48997497558594	movie	1		164	76.0	2.5	/experiments/aot/S_bing-www_msn_com_en-us_video_news_tommy-lasorda-salutes-national-league-champs_vp-AAtLThQ_4.mp4	0.0	412.7757740020752	2.508336067199707
78	329.0819239616394	pulse	1	t		76.0	2.5	/experiments/aot/S_bing-www_msn_com_en-us_video_news_tommy-lasorda-salutes-national-league-champs_vp-AAtLThQ_4.mp4	0.0	414.36772298812866	
78	329.99831104278564	fix_post	2		12	76.0	2.5	/experiments/aot/S_bing-www_msn_com_en-us_video_news_tommy-lasorda-salutes-national-league-champs_vp-AAtLThQ_4.mp4	0.0	415.2841100692749	0.09992790222167969
79	330.0982389450073	fix_pre	0		120	77.0	2.5	/experiments/aot/S_yt-JVhfcpV7OaY_71.mp4	0.0	415.3840379714966	1.000101089477539
79	330.6816928386688	pulse	0	t		77.0	2.5	/experiments/aot/S_yt-JVhfcpV7OaY_71.mp4	0.0	415.9674918651581	
79	331.09834003448486	movie	1		299	77.0	2.5	/experiments/aot/S_yt-JVhfcpV7OaY_71.mp4	0.0	416.3841390609741	2.499941825866699
79	332.2817380428314	pulse	1	t		77.0	2.5	/experiments/aot/S_yt-JVhfcpV7OaY_71.mp4	0.0	417.5675370693207	
79	333.59828186035156	fix_post	2		12	77.0	2.5	/experiments/aot/S_yt-JVhfcpV7OaY_71.mp4	0.0	418.8840808868408	0.09995102882385254
80	333.6982328891754	fix_pre	0		120	78.0	2.5	/experiments/aot/S_yt-sTBOjPxix5c_1072.mp4	0.0	418.9840319156647	1.0000560283660889
80	333.8818368911743	pulse	0	t		78.0	2.5	/experiments/aot/S_yt-sTBOjPxix5c_1072.mp4	0.0	419.1676359176636	
80	334.6982889175415	movie	1		300	78.0	2.5	/experiments/aot/S_yt-sTBOjPxix5c_1072.mp4	0.0	419.98408794403076	2.4999759197235107
80	335.4816429615021	pulse	1	t		78.0	2.5	/experiments/aot/S_yt-sTBOjPxix5c_1072.mp4	0.0	420.76744198799133	
80	337.08169293403625	pulse	1	t		78.0	2.5	/experiments/aot/S_yt-sTBOjPxix5c_1072.mp4	0.0	422.3674919605255	
80	337.198264837265	fix_post	2		12	78.0	2.5	/experiments/aot/S_yt-sTBOjPxix5c_1072.mp4	0.0	422.4840638637543	0.10002017021179199
81	337.2982850074768	fix_pre	0		120	79.0	2.5	/experiments/aot/S_yt-2OoHcgS8sss_7.mp4	0.0	422.58408403396606	0.999906063079834
81	338.29819107055664	movie	1		299	79.0	2.5	/experiments/aot/S_yt-2OoHcgS8sss_7.mp4	0.0	423.5839900970459	2.49997878074646
81	338.6816999912262	pulse	1	t		79.0	2.5	/experiments/aot/S_yt-2OoHcgS8sss_7.mp4	0.0	423.96749901771545	
81	340.2817120552063	pulse	1	t		79.0	2.5	/experiments/aot/S_yt-2OoHcgS8sss_7.mp4	0.0	425.56751108169556	
81	340.7981698513031	fix_post	2		12	79.0	2.5	/experiments/aot/S_yt-2OoHcgS8sss_7.mp4	0.0	426.08396887779236	0.10002398490905762
82	340.89819383621216	fix_pre	0		119	80.0	2.5	/experiments/aot/R_S_yt-KM_SJx8CMGc_10.mp4	0.0	426.1839928627014	0.9916470050811768
82	341.88167691230774	pulse	0	t		80.0	2.5	/experiments/aot/R_S_yt-KM_SJx8CMGc_10.mp4	0.0	427.167475938797	
82	341.88984084129333	movie	1		301	80.0	2.5	/experiments/aot/R_S_yt-KM_SJx8CMGc_10.mp4	0.0	427.1756398677826	2.5083141326904297
82	343.4777338504791	pulse	1	t		80.0	2.5	/experiments/aot/R_S_yt-KM_SJx8CMGc_10.mp4	0.0	428.7635328769684	
82	344.39815497398376	fix_post	2		12	80.0	2.5	/experiments/aot/R_S_yt-KM_SJx8CMGc_10.mp4	0.0	429.683954000473	0.10002803802490234
83	344.49818301200867	fix_pre	0		120	81.0	2.5	/experiments/aot/R_S_Person_Going_Through_A_Bible.mp4	0.0	429.7839820384979	1.0001449584960938
83	345.0816249847412	pulse	0	t		81.0	2.5	/experiments/aot/R_S_Person_Going_Through_A_Bible.mp4	0.0	430.36742401123047	
83	345.49832797050476	movie	1		164	81.0	2.5	/experiments/aot/R_S_Person_Going_Through_A_Bible.mp4	0.0	430.784126996994	2.499876022338867
83	346.6816370487213	pulse	1	t		81.0	2.5	/experiments/aot/R_S_Person_Going_Through_A_Bible.mp4	0.0	431.96743607521057	
83	347.9982039928436	fix_post	2		12	81.0	2.5	/experiments/aot/R_S_Person_Going_Through_A_Bible.mp4	0.0	433.2840030193329	0.09990596771240234
84	348.09810996055603	fix_pre	0		120	82.0	2.5	/experiments/aot/R_S_yt-K-iCphzt_RE_17.mp4	0.0	433.3839089870453	1.0000500679016113
84	348.2816860675812	pulse	0	t		82.0	2.5	/experiments/aot/R_S_yt-K-iCphzt_RE_17.mp4	0.0	433.56748509407043	
84	349.09816002845764	movie	1		300	82.0	2.5	/experiments/aot/R_S_yt-K-iCphzt_RE_17.mp4	0.0	434.3839590549469	2.500018835067749
84	349.8815870285034	pulse	1	t		82.0	2.5	/experiments/aot/R_S_yt-K-iCphzt_RE_17.mp4	0.0	435.1673860549927	
84	351.4816470146179	pulse	1	t		82.0	2.5	/experiments/aot/R_S_yt-K-iCphzt_RE_17.mp4	0.0	436.7674460411072	
84	351.5981788635254	fix_post	2		12	82.0	2.5	/experiments/aot/R_S_yt-K-iCphzt_RE_17.mp4	0.0	436.88397789001465	0.09993910789489746
85	351.6981179714203	fix_pre	0		120	83.0	2.5	blank	1.0	436.98391699790955	0.9999408721923828
85	352.69805884361267	movie	1		300	83.0	2.5	blank	1.0	437.98385787010193	2.5000669956207275
85	353.08161187171936	pulse	1	t		83.0	2.5	blank	1.0	438.3674108982086	
85	354.68159794807434	pulse	1	t		83.0	2.5	blank	1.0	439.9673969745636	
85	355.1981258392334	fix_post	2		12	83.0	2.5	blank	1.0	440.48392486572266	0.10000205039978027
87	355.2981278896332	stim	0		1716					440.58392691612244	14.30000114440918
87	356.2815320491791	pulse	0	t						441.56733107566833	
87	357.88148283958435	pulse	0	t						443.1672818660736	
87	359.4814670085907	pulse	0	t						444.76726603507996	
87	361.0816459655762	pulse	0	t						446.36744499206543	
87	362.68155789375305	pulse	0	t						447.9673569202423	
87	364.28161096572876	pulse	0	t						449.567409992218	
87	365.8816568851471	pulse	0	t						451.16745591163635	
87	367.4813618659973	pulse	0	t						452.7671608924866	
87	369.08150601387024	pulse	0	t						454.3673050403595	
