trial_nr	onset	event_type	phase	response	nr_frames	movie_index	movie_duration	movie_file	blank	onset_abs	duration
0	0.14142537117004395	stim	0		43					16.001018047332764	0.3583345413208008
0	0.49168896675109863	response	0	space						16.35128164291382	
1	0.4997599124908447	stim	0		4417					16.359352588653564	36.82308769226074
1	37.31355857849121	pulse	0	t						53.17315125465393	
1	37.32284760475159	stim	1		1715					53.18244028091431	14.301325559616089
1	38.90575695037842	pulse	1	t						54.76534962654114	
1	40.506242513656616	pulse	1	t						56.365835189819336	
1	42.106261014938354	pulse	1	t						57.965853691101074	
1	43.70656490325928	pulse	1	t						59.566157579422	
1	45.30670928955078	pulse	1	t						61.1663019657135	
1	46.906927824020386	pulse	1	t						62.766520500183105	
1	48.50730109214783	pulse	1	t						64.36689376831055	
1	50.10745191574097	pulse	1	t						65.96704459190369	
2	51.624173164367676	fix_pre	0		11	0.0	2.5	/experiments/Knapen_AOT/AOT_stimuli/rescaled_final/0827_rv.mp4	0.0	67.4837658405304	0.10836172103881836
2	51.70805859565735	pulse	0	t		0.0	2.5	/experiments/Knapen_AOT/AOT_stimuli/rescaled_final/0827_rv.mp4	0.0	67.56765127182007	
2	51.732534885406494	movie	1		288	0.0	2.5	/experiments/Knapen_AOT/AOT_stimuli/rescaled_final/0827_rv.mp4	0.0	67.59212756156921	2.4920003414154053
2	53.30646061897278	pulse	1	t		0.0	2.5	/experiments/Knapen_AOT/AOT_stimuli/rescaled_final/0827_rv.mp4	0.0	69.1660532951355	
2	54.2245352268219	fix_post	2		12	0.0	2.5	/experiments/Knapen_AOT/AOT_stimuli/rescaled_final/0827_rv.mp4	0.0	70.08412790298462	0.10000133514404297
3	54.32453656196594	fix_pre	0		120	1.0	2.5	/experiments/Knapen_AOT/AOT_stimuli/rescaled_final/1762_rv.mp4	0.0	70.18412923812866	1.0084991455078125
3	54.908090591430664	pulse	0	t		1.0	2.5	/experiments/Knapen_AOT/AOT_stimuli/rescaled_final/1762_rv.mp4	0.0	70.76768326759338	
3	55.333035707473755	movie	1		280	1.0	2.5	/experiments/Knapen_AOT/AOT_stimuli/rescaled_final/1762_rv.mp4	0.0	71.19262838363647	2.4920034408569336
3	56.50694823265076	pulse	1	t		1.0	2.5	/experiments/Knapen_AOT/AOT_stimuli/rescaled_final/1762_rv.mp4	0.0	72.36654090881348	
3	57.82503914833069	fix_post	2		12	1.0	2.5	/experiments/Knapen_AOT/AOT_stimuli/rescaled_final/1762_rv.mp4	0.0	73.68463182449341	0.10002899169921875
4	57.92506814002991	fix_pre	0		120	2.0	2.5	/experiments/Knapen_AOT/AOT_stimuli/rescaled_final/0707_rv.mp4	0.0	73.78466081619263	1.0085115432739258
4	58.108601093292236	pulse	0	t		2.0	2.5	/experiments/Knapen_AOT/AOT_stimuli/rescaled_final/0707_rv.mp4	0.0	73.96819376945496	
4	58.93357968330383	movie	1		273	2.0	2.5	/experiments/Knapen_AOT/AOT_stimuli/rescaled_final/0707_rv.mp4	0.0	74.79317235946655	2.4920873641967773
4	59.70683169364929	pulse	1	t		2.0	2.5	/experiments/Knapen_AOT/AOT_stimuli/rescaled_final/0707_rv.mp4	0.0	75.56642436981201	
4	61.30962538719177	pulse	1	t		2.0	2.5	/experiments/Knapen_AOT/AOT_stimuli/rescaled_final/0707_rv.mp4	0.0	77.16921806335449	
4	61.42566704750061	fix_post	2		12	2.0	2.5	/experiments/Knapen_AOT/AOT_stimuli/rescaled_final/0707_rv.mp4	0.0	77.28525972366333	0.09994196891784668
5	61.52560901641846	fix_pre	0		120	3.0	2.5	/experiments/Knapen_AOT/AOT_stimuli/rescaled_final/1305_rv.mp4	0.0	77.38520169258118	1.0085163116455078
5	62.534125328063965	movie	1		281	3.0	2.5	/experiments/Knapen_AOT/AOT_stimuli/rescaled_final/1305_rv.mp4	0.0	78.39371800422668	2.491997241973877
5	62.90751314163208	pulse	1	t		3.0	2.5	/experiments/Knapen_AOT/AOT_stimuli/rescaled_final/1305_rv.mp4	0.0	78.7671058177948	
5	64.50983309745789	pulse	1	t		3.0	2.5	/experiments/Knapen_AOT/AOT_stimuli/rescaled_final/1305_rv.mp4	0.0	80.3694257736206	
5	65.02612257003784	fix_post	2		12	3.0	2.5	/experiments/Knapen_AOT/AOT_stimuli/rescaled_final/1305_rv.mp4	0.0	80.88571524620056	0.10006117820739746
6	65.12618374824524	fix_pre	0		119	4.0	2.5	/experiments/Knapen_AOT/AOT_stimuli/rescaled_final/1852_fw.mp4	0.0	80.98577642440796	1.0001349449157715
6	66.10983633995056	pulse	0	t		4.0	2.5	/experiments/Knapen_AOT/AOT_stimuli/rescaled_final/1852_fw.mp4	0.0	81.96942901611328	
6	66.12631869316101	movie	1		295	4.0	2.5	/experiments/Knapen_AOT/AOT_stimuli/rescaled_final/1852_fw.mp4	0.0	81.98591136932373	2.5003488063812256
6	67.70864248275757	pulse	1	t		4.0	2.5	/experiments/Knapen_AOT/AOT_stimuli/rescaled_final/1852_fw.mp4	0.0	83.56823515892029	
6	68.62666749954224	fix_post	2		12	4.0	2.5	/experiments/Knapen_AOT/AOT_stimuli/rescaled_final/1852_fw.mp4	0.0	84.48626017570496	0.10008931159973145
7	68.72675681114197	fix_pre	0		120	5.0	2.5	/experiments/Knapen_AOT/AOT_stimuli/rescaled_final/0852_rv.mp4	0.0	84.58634948730469	1.0084803104400635
7	69.30256080627441	pulse	0	t		5.0	2.5	/experiments/Knapen_AOT/AOT_stimuli/rescaled_final/0852_rv.mp4	0.0	85.16215348243713	
7	69.73523712158203	movie	1		289	5.0	2.5	/experiments/Knapen_AOT/AOT_stimuli/rescaled_final/0852_rv.mp4	0.0	85.59482979774475	2.491975784301758
7	70.90888381004333	pulse	1	t		5.0	2.5	/experiments/Knapen_AOT/AOT_stimuli/rescaled_final/0852_rv.mp4	0.0	86.76847648620605	
7	72.22721290588379	fix_post	2		12	5.0	2.5	/experiments/Knapen_AOT/AOT_stimuli/rescaled_final/0852_rv.mp4	0.0	88.08680558204651	0.10001540184020996
8	72.327228307724	fix_pre	0		120	6.0	2.5	blank	1.0	88.18682098388672	1.000150442123413
8	72.50267028808594	pulse	0	t		6.0	2.5	blank	1.0	88.36226296424866	
8	73.32737874984741	movie	1		300	6.0	2.5	blank	1.0	89.18697142601013	2.5003676414489746
8	74.10286545753479	pulse	1	t		6.0	2.5	blank	1.0	89.96245813369751	
8	75.70296025276184	pulse	1	t		6.0	2.5	blank	1.0	91.56255292892456	
8	75.82774639129639	fix_post	2		12	6.0	2.5	blank	1.0	91.6873390674591	0.10003137588500977
9	75.9277777671814	fix_pre	0		120	7.0	2.5	/experiments/Knapen_AOT/AOT_stimuli/rescaled_final/0323_fw.mp4	0.0	91.78737044334412	1.0085837841033936
9	76.93636155128479	movie	1		285	7.0	2.5	/experiments/Knapen_AOT/AOT_stimuli/rescaled_final/0323_fw.mp4	0.0	92.79595422744751	2.491955041885376
9	77.3031952381134	pulse	1	t		7.0	2.5	/experiments/Knapen_AOT/AOT_stimuli/rescaled_final/0323_fw.mp4	0.0	93.16278791427612	
9	78.90345811843872	pulse	1	t		7.0	2.5	/experiments/Knapen_AOT/AOT_stimuli/rescaled_final/0323_fw.mp4	0.0	94.76305079460144	
9	79.42831659317017	fix_post	2		12	7.0	2.5	/experiments/Knapen_AOT/AOT_stimuli/rescaled_final/0323_fw.mp4	0.0	95.28790926933289	0.10001277923583984
10	79.528329372406	fix_pre	0		118	8.0	2.5	/experiments/Knapen_AOT/AOT_stimuli/rescaled_final/1396_rv.mp4	0.0	95.38792204856873	0.9918251037597656
10	80.50373578071594	pulse	0	t		8.0	2.5	/experiments/Knapen_AOT/AOT_stimuli/rescaled_final/1396_rv.mp4	0.0	96.36332845687866	
10	80.52015447616577	movie	1		282	8.0	2.5	/experiments/Knapen_AOT/AOT_stimuli/rescaled_final/1396_rv.mp4	0.0	96.37974715232849	2.5004045963287354
10	82.10273480415344	pulse	1	t		8.0	2.5	/experiments/Knapen_AOT/AOT_stimuli/rescaled_final/1396_rv.mp4	0.0	97.96232748031616	
10	83.0205590724945	fix_post	2		12	8.0	2.5	/experiments/Knapen_AOT/AOT_stimuli/rescaled_final/1396_rv.mp4	0.0	98.88015174865723	0.1000967025756836
11	83.12065577507019	fix_pre	0		120	9.0	2.5	/experiments/Knapen_AOT/AOT_stimuli/rescaled_final/0100_fw.mp4	0.0	98.98024845123291	1.008420705795288
11	83.70424246788025	pulse	0	t		9.0	2.5	/experiments/Knapen_AOT/AOT_stimuli/rescaled_final/0100_fw.mp4	0.0	99.56383514404297	
11	84.12907648086548	movie	1		292	9.0	2.5	/experiments/Knapen_AOT/AOT_stimuli/rescaled_final/0100_fw.mp4	0.0	99.9886691570282	2.4920029640197754
11	85.30440926551819	pulse	1	t		9.0	2.5	/experiments/Knapen_AOT/AOT_stimuli/rescaled_final/0100_fw.mp4	0.0	101.16400194168091	
11	86.62107944488525	fix_post	2		12	9.0	2.5	/experiments/Knapen_AOT/AOT_stimuli/rescaled_final/0100_fw.mp4	0.0	102.48067212104797	0.10005426406860352
12	86.72113370895386	fix_pre	0		120	10.0	2.5	/experiments/Knapen_AOT/AOT_stimuli/rescaled_final/1084_fw.mp4	0.0	102.58072638511658	1.0085461139678955
12	86.90462231636047	pulse	0	t		10.0	2.5	/experiments/Knapen_AOT/AOT_stimuli/rescaled_final/1084_fw.mp4	0.0	102.7642149925232	
12	87.72967982292175	movie	1		282	10.0	2.5	/experiments/Knapen_AOT/AOT_stimuli/rescaled_final/1084_fw.mp4	0.0	103.58927249908447	2.491969347000122
12	88.50298953056335	pulse	1	t		10.0	2.5	/experiments/Knapen_AOT/AOT_stimuli/rescaled_final/1084_fw.mp4	0.0	104.36258220672607	
12	90.10329556465149	pulse	1	t		10.0	2.5	/experiments/Knapen_AOT/AOT_stimuli/rescaled_final/1084_fw.mp4	0.0	105.96288824081421	
12	90.22164916992188	fix_post	2		12	10.0	2.5	/experiments/Knapen_AOT/AOT_stimuli/rescaled_final/1084_fw.mp4	0.0	106.0812418460846	0.1000056266784668
13	90.32165479660034	fix_pre	0		120	11.0	2.5	/experiments/Knapen_AOT/AOT_stimuli/rescaled_final/1786_fw.mp4	0.0	106.18124747276306	1.008467197418213
13	91.33012199401855	movie	1		284	11.0	2.5	/experiments/Knapen_AOT/AOT_stimuli/rescaled_final/1786_fw.mp4	0.0	107.18971467018127	2.492023229598999
13	91.70412468910217	pulse	1	t		11.0	2.5	/experiments/Knapen_AOT/AOT_stimuli/rescaled_final/1786_fw.mp4	0.0	107.56371736526489	
13	93.3038592338562	pulse	1	t		11.0	2.5	/experiments/Knapen_AOT/AOT_stimuli/rescaled_final/1786_fw.mp4	0.0	109.16345191001892	
13	93.82214522361755	fix_post	2		12	11.0	2.5	/experiments/Knapen_AOT/AOT_stimuli/rescaled_final/1786_fw.mp4	0.0	109.68173789978027	0.10002374649047852
14	93.92216897010803	fix_pre	0		119	12.0	2.5	/experiments/Knapen_AOT/AOT_stimuli/rescaled_final/1853_rv.mp4	0.0	109.78176164627075	1.0001420974731445
14	94.90611910820007	pulse	0	t		12.0	2.5	/experiments/Knapen_AOT/AOT_stimuli/rescaled_final/1853_rv.mp4	0.0	110.7657117843628	
14	94.92231106758118	movie	1		282	12.0	2.5	/experiments/Knapen_AOT/AOT_stimuli/rescaled_final/1853_rv.mp4	0.0	110.7819037437439	2.500396728515625
14	96.50479125976562	pulse	1	t		12.0	2.5	/experiments/Knapen_AOT/AOT_stimuli/rescaled_final/1853_rv.mp4	0.0	112.36438393592834	
14	97.4227077960968	fix_post	2		12	12.0	2.5	/experiments/Knapen_AOT/AOT_stimuli/rescaled_final/1853_rv.mp4	0.0	113.28230047225952	0.10000824928283691
15	97.52271604537964	fix_pre	0		120	13.0	2.5	blank	1.0	113.38230872154236	1.0002367496490479
15	98.10634517669678	pulse	0	t		13.0	2.5	blank	1.0	113.9659378528595	
15	98.52295279502869	movie	1		300	13.0	2.5	blank	1.0	114.3825454711914	2.5002689361572266
15	99.70660376548767	pulse	1	t		13.0	2.5	blank	1.0	115.56619644165039	
15	101.02322173118591	fix_post	2		12	13.0	2.5	blank	1.0	116.88281440734863	0.10004115104675293
16	101.12326288223267	fix_pre	0		120	14.0	2.5	/experiments/Knapen_AOT/AOT_stimuli/rescaled_final/0606_fw.mp4	0.0	116.98285555839539	1.0085375308990479
16	101.30697274208069	pulse	0	t		14.0	2.5	/experiments/Knapen_AOT/AOT_stimuli/rescaled_final/0606_fw.mp4	0.0	117.16656541824341	
16	102.13180041313171	movie	1		286	14.0	2.5	/experiments/Knapen_AOT/AOT_stimuli/rescaled_final/0606_fw.mp4	0.0	117.99139308929443	2.4920120239257812
16	102.90522027015686	pulse	1	t		14.0	2.5	/experiments/Knapen_AOT/AOT_stimuli/rescaled_final/0606_fw.mp4	0.0	118.76481294631958	
16	104.50503993034363	pulse	1	t		14.0	2.5	/experiments/Knapen_AOT/AOT_stimuli/rescaled_final/0606_fw.mp4	0.0	120.36463260650635	
16	104.6238124370575	fix_post	2		12	14.0	2.5	/experiments/Knapen_AOT/AOT_stimuli/rescaled_final/0606_fw.mp4	0.0	120.48340511322021	0.10001254081726074
17	104.72382497787476	fix_pre	0		120	15.0	2.5	/experiments/Knapen_AOT/AOT_stimuli/rescaled_final/0920_rv.mp4	0.0	120.58341765403748	1.0084381103515625
17	105.73226308822632	movie	1		286	15.0	2.5	/experiments/Knapen_AOT/AOT_stimuli/rescaled_final/0920_rv.mp4	0.0	121.59185576438904	2.4920527935028076
17	106.10771369934082	pulse	1	t		15.0	2.5	/experiments/Knapen_AOT/AOT_stimuli/rescaled_final/0920_rv.mp4	0.0	121.96730637550354	
17	107.70577383041382	pulse	1	t		15.0	2.5	/experiments/Knapen_AOT/AOT_stimuli/rescaled_final/0920_rv.mp4	0.0	123.56536650657654	
17	108.22431588172913	fix_post	2		12	15.0	2.5	/experiments/Knapen_AOT/AOT_stimuli/rescaled_final/0920_rv.mp4	0.0	124.08390855789185	0.10001635551452637
18	108.32433223724365	fix_pre	0		119	16.0	2.5	/experiments/Knapen_AOT/AOT_stimuli/rescaled_final/0701_fw.mp4	0.0	124.18392491340637	1.0001893043518066
18	109.30807209014893	pulse	0	t		16.0	2.5	/experiments/Knapen_AOT/AOT_stimuli/rescaled_final/0701_fw.mp4	0.0	125.16766476631165	
18	109.32452154159546	movie	1		292	16.0	2.5	/experiments/Knapen_AOT/AOT_stimuli/rescaled_final/0701_fw.mp4	0.0	125.18411421775818	2.5003368854522705
18	110.9068534374237	pulse	1	t		16.0	2.5	/experiments/Knapen_AOT/AOT_stimuli/rescaled_final/0701_fw.mp4	0.0	126.76644611358643	
18	111.82485842704773	fix_post	2		12	16.0	2.5	/experiments/Knapen_AOT/AOT_stimuli/rescaled_final/0701_fw.mp4	0.0	127.68445110321045	0.10001993179321289
19	111.92487835884094	fix_pre	0		120	17.0	2.5	/experiments/Knapen_AOT/AOT_stimuli/rescaled_final/1637_fw.mp4	0.0	127.78447103500366	1.0000810623168945
19	112.50844097137451	pulse	0	t		17.0	2.5	/experiments/Knapen_AOT/AOT_stimuli/rescaled_final/1637_fw.mp4	0.0	128.36803364753723	
19	112.92495942115784	movie	1		296	17.0	2.5	/experiments/Knapen_AOT/AOT_stimuli/rescaled_final/1637_fw.mp4	0.0	128.78455209732056	2.5004470348358154
19	114.10497808456421	pulse	1	t		17.0	2.5	/experiments/Knapen_AOT/AOT_stimuli/rescaled_final/1637_fw.mp4	0.0	129.96457076072693	
19	115.42540645599365	fix_post	2		12	17.0	2.5	/experiments/Knapen_AOT/AOT_stimuli/rescaled_final/1637_fw.mp4	0.0	131.28499913215637	0.09998726844787598
20	115.52539372444153	fix_pre	0		120	18.0	2.5	/experiments/Knapen_AOT/AOT_stimuli/rescaled_final/1113_rv.mp4	0.0	131.38498640060425	1.008561134338379
20	115.7089421749115	pulse	0	t		18.0	2.5	/experiments/Knapen_AOT/AOT_stimuli/rescaled_final/1113_rv.mp4	0.0	131.56853485107422	
20	116.53395485877991	movie	1		293	18.0	2.5	/experiments/Knapen_AOT/AOT_stimuli/rescaled_final/1113_rv.mp4	0.0	132.39354753494263	2.4919638633728027
20	117.30644059181213	pulse	1	t		18.0	2.5	/experiments/Knapen_AOT/AOT_stimuli/rescaled_final/1113_rv.mp4	0.0	133.16603326797485	
20	118.90686225891113	pulse	1	t		18.0	2.5	/experiments/Knapen_AOT/AOT_stimuli/rescaled_final/1113_rv.mp4	0.0	134.76645493507385	
20	119.02591872215271	fix_post	2		12	18.0	2.5	/experiments/Knapen_AOT/AOT_stimuli/rescaled_final/1113_rv.mp4	0.0	134.88551139831543	0.10001730918884277
21	119.12593603134155	fix_pre	0		120	19.0	2.5	blank	1.0	134.98552870750427	1.0001623630523682
21	120.12609839439392	movie	1		300	19.0	2.5	blank	1.0	135.98569107055664	2.500403642654419
21	120.50998830795288	pulse	1	t		19.0	2.5	blank	1.0	136.3695809841156	
21	122.11029410362244	pulse	1	t		19.0	2.5	blank	1.0	137.96988677978516	
21	122.62650203704834	fix_post	2		12	19.0	2.5	blank	1.0	138.48609471321106	0.10003471374511719
22	122.72653675079346	fix_pre	0		119	20.0	2.5	/experiments/Knapen_AOT/AOT_stimuli/rescaled_final/1637_rv.mp4	0.0	138.58612942695618	1.0086166858673096
22	123.71047735214233	pulse	0	t		20.0	2.5	/experiments/Knapen_AOT/AOT_stimuli/rescaled_final/1637_rv.mp4	0.0	139.57007002830505	
22	123.73515343666077	movie	1		285	20.0	2.5	/experiments/Knapen_AOT/AOT_stimuli/rescaled_final/1637_rv.mp4	0.0	139.5947461128235	2.49185848236084
22	125.30902552604675	pulse	1	t		20.0	2.5	/experiments/Knapen_AOT/AOT_stimuli/rescaled_final/1637_rv.mp4	0.0	141.16861820220947	
22	126.2270119190216	fix_post	2		12	20.0	2.5	/experiments/Knapen_AOT/AOT_stimuli/rescaled_final/1637_rv.mp4	0.0	142.08660459518433	0.1000208854675293
23	126.32703280448914	fix_pre	0		120	21.0	2.5	/experiments/Knapen_AOT/AOT_stimuli/rescaled_final/0141_rv.mp4	0.0	142.18662548065186	1.0085148811340332
23	126.90311789512634	pulse	0	t		21.0	2.5	/experiments/Knapen_AOT/AOT_stimuli/rescaled_final/0141_rv.mp4	0.0	142.76271057128906	
23	127.33554768562317	movie	1		289	21.0	2.5	/experiments/Knapen_AOT/AOT_stimuli/rescaled_final/0141_rv.mp4	0.0	143.1951403617859	2.492009401321411
23	128.50924611091614	pulse	1	t		21.0	2.5	/experiments/Knapen_AOT/AOT_stimuli/rescaled_final/0141_rv.mp4	0.0	144.36883878707886	
23	129.82755708694458	fix_post	2		12	21.0	2.5	/experiments/Knapen_AOT/AOT_stimuli/rescaled_final/0141_rv.mp4	0.0	145.6871497631073	0.1000218391418457
24	129.92757892608643	fix_pre	0		120	22.0	2.5	/experiments/Knapen_AOT/AOT_stimuli/rescaled_final/0829_fw.mp4	0.0	145.78717160224915	1.0084941387176514
24	130.1031391620636	pulse	0	t		22.0	2.5	/experiments/Knapen_AOT/AOT_stimuli/rescaled_final/0829_fw.mp4	0.0	145.96273183822632	
24	130.93607306480408	movie	1		272	22.0	2.5	/experiments/Knapen_AOT/AOT_stimuli/rescaled_final/0829_fw.mp4	0.0	146.7956657409668	2.4920220375061035
24	131.70308232307434	pulse	1	t		22.0	2.5	/experiments/Knapen_AOT/AOT_stimuli/rescaled_final/0829_fw.mp4	0.0	147.56267499923706	
24	133.3032877445221	pulse	1	t		22.0	2.5	/experiments/Knapen_AOT/AOT_stimuli/rescaled_final/0829_fw.mp4	0.0	149.16288042068481	
24	133.42809510231018	fix_post	2		12	22.0	2.5	/experiments/Knapen_AOT/AOT_stimuli/rescaled_final/0829_fw.mp4	0.0	149.2876877784729	0.10001564025878906
25	133.52811074256897	fix_pre	0		120	23.0	2.5	/experiments/Knapen_AOT/AOT_stimuli/rescaled_final/2104_rv.mp4	0.0	149.3877034187317	1.0085475444793701
25	134.53665828704834	movie	1		289	23.0	2.5	/experiments/Knapen_AOT/AOT_stimuli/rescaled_final/2104_rv.mp4	0.0	150.39625096321106	2.491981267929077
25	134.90362310409546	pulse	1	t		23.0	2.5	/experiments/Knapen_AOT/AOT_stimuli/rescaled_final/2104_rv.mp4	0.0	150.76321578025818	
25	136.50418257713318	pulse	1	t		23.0	2.5	/experiments/Knapen_AOT/AOT_stimuli/rescaled_final/2104_rv.mp4	0.0	152.3637752532959	
25	137.02863955497742	fix_post	2		12	23.0	2.5	/experiments/Knapen_AOT/AOT_stimuli/rescaled_final/2104_rv.mp4	0.0	152.88823223114014	0.10001707077026367
26	137.12865662574768	fix_pre	0		118	24.0	2.5	/experiments/Knapen_AOT/AOT_stimuli/rescaled_final/0596_fw.mp4	0.0	152.9882493019104	0.9918406009674072
26	138.10403323173523	pulse	0	t		24.0	2.5	/experiments/Knapen_AOT/AOT_stimuli/rescaled_final/0596_fw.mp4	0.0	153.96362590789795	
26	138.1204972267151	movie	1		289	24.0	2.5	/experiments/Knapen_AOT/AOT_stimuli/rescaled_final/0596_fw.mp4	0.0	153.9800899028778	2.5004119873046875
26	139.702885389328	pulse	1	t		24.0	2.5	/experiments/Knapen_AOT/AOT_stimuli/rescaled_final/0596_fw.mp4	0.0	155.56247806549072	
26	140.62090921401978	fix_post	2		12	24.0	2.5	/experiments/Knapen_AOT/AOT_stimuli/rescaled_final/0596_fw.mp4	0.0	156.4805018901825	0.09996271133422852
27	140.720871925354	fix_pre	0		120	25.0	2.5	/experiments/Knapen_AOT/AOT_stimuli/rescaled_final/0609_fw.mp4	0.0	156.58046460151672	1.0085997581481934
27	141.30457401275635	pulse	0	t		25.0	2.5	/experiments/Knapen_AOT/AOT_stimuli/rescaled_final/0609_fw.mp4	0.0	157.16416668891907	
27	141.7294716835022	movie	1		287	25.0	2.5	/experiments/Knapen_AOT/AOT_stimuli/rescaled_final/0609_fw.mp4	0.0	157.58906435966492	2.4919662475585938
27	142.90314245224	pulse	1	t		25.0	2.5	/experiments/Knapen_AOT/AOT_stimuli/rescaled_final/0609_fw.mp4	0.0	158.7627351284027	
27	144.2214379310608	fix_post	2		12	25.0	2.5	/experiments/Knapen_AOT/AOT_stimuli/rescaled_final/0609_fw.mp4	0.0	160.0810306072235	0.09996676445007324
28	144.32140469551086	fix_pre	0		120	26.0	2.5	/experiments/Knapen_AOT/AOT_stimuli/rescaled_final/1692_fw.mp4	0.0	160.18099737167358	1.0085070133209229
28	144.50503587722778	pulse	0	t		26.0	2.5	/experiments/Knapen_AOT/AOT_stimuli/rescaled_final/1692_fw.mp4	0.0	160.3646285533905	
28	145.3299117088318	movie	1		294	26.0	2.5	/experiments/Knapen_AOT/AOT_stimuli/rescaled_final/1692_fw.mp4	0.0	161.1895043849945	2.491997718811035
28	146.10347485542297	pulse	1	t		26.0	2.5	/experiments/Knapen_AOT/AOT_stimuli/rescaled_final/1692_fw.mp4	0.0	161.9630675315857	
28	147.70533967018127	pulse	1	t		26.0	2.5	/experiments/Knapen_AOT/AOT_stimuli/rescaled_final/1692_fw.mp4	0.0	163.564932346344	
28	147.82190942764282	fix_post	2		12	26.0	2.5	/experiments/Knapen_AOT/AOT_stimuli/rescaled_final/1692_fw.mp4	0.0	163.68150210380554	0.1000375747680664
29	147.9219470024109	fix_pre	0		120	27.0	2.5	/experiments/Knapen_AOT/AOT_stimuli/rescaled_final/1624_rv.mp4	0.0	163.7815396785736	1.0000998973846436
29	148.92204689979553	movie	1		297	27.0	2.5	/experiments/Knapen_AOT/AOT_stimuli/rescaled_final/1624_rv.mp4	0.0	164.78163957595825	2.5004470348358154
29	149.30195236206055	pulse	1	t		27.0	2.5	/experiments/Knapen_AOT/AOT_stimuli/rescaled_final/1624_rv.mp4	0.0	165.16154503822327	
29	150.9031195640564	pulse	1	t		27.0	2.5	/experiments/Knapen_AOT/AOT_stimuli/rescaled_final/1624_rv.mp4	0.0	166.76271224021912	
29	151.42249393463135	fix_post	2		12	27.0	2.5	/experiments/Knapen_AOT/AOT_stimuli/rescaled_final/1624_rv.mp4	0.0	167.28208661079407	0.09998536109924316
30	151.5224792957306	fix_pre	0		119	28.0	2.5	blank	1.0	167.3820719718933	0.9918835163116455
30	152.50614643096924	pulse	0	t		28.0	2.5	blank	1.0	168.36573910713196	
30	152.51436281204224	movie	1		301	28.0	2.5	blank	1.0	168.37395548820496	2.508625030517578
30	154.10638689994812	pulse	1	t		28.0	2.5	blank	1.0	169.96597957611084	
30	155.02298784255981	fix_post	2		12	28.0	2.5	blank	1.0	170.88258051872253	0.10002636909484863
31	155.12301421165466	fix_pre	0		120	29.0	2.5	/experiments/Knapen_AOT/AOT_stimuli/rescaled_final/1344_fw.mp4	0.0	170.98260688781738	1.0085453987121582
31	155.7067003250122	pulse	0	t		29.0	2.5	/experiments/Knapen_AOT/AOT_stimuli/rescaled_final/1344_fw.mp4	0.0	171.56629300117493	
31	156.13155961036682	movie	1		277	29.0	2.5	/experiments/Knapen_AOT/AOT_stimuli/rescaled_final/1344_fw.mp4	0.0	171.99115228652954	2.492060899734497
31	157.30522561073303	pulse	1	t		29.0	2.5	/experiments/Knapen_AOT/AOT_stimuli/rescaled_final/1344_fw.mp4	0.0	173.16481828689575	
31	158.62362051010132	fix_post	2		12	29.0	2.5	/experiments/Knapen_AOT/AOT_stimuli/rescaled_final/1344_fw.mp4	0.0	174.48321318626404	0.09999990463256836
32	158.7236204147339	fix_pre	0		120	30.0	2.5	/experiments/Knapen_AOT/AOT_stimuli/rescaled_final/0852_fw.mp4	0.0	174.5832130908966	1.0084187984466553
32	158.90713238716125	pulse	0	t		30.0	2.5	/experiments/Knapen_AOT/AOT_stimuli/rescaled_final/0852_fw.mp4	0.0	174.76672506332397	
32	159.73203921318054	movie	1		273	30.0	2.5	/experiments/Knapen_AOT/AOT_stimuli/rescaled_final/0852_fw.mp4	0.0	175.59163188934326	2.492049217224121
32	160.5050609111786	pulse	1	t		30.0	2.5	/experiments/Knapen_AOT/AOT_stimuli/rescaled_final/0852_fw.mp4	0.0	176.3646535873413	
32	162.10587811470032	pulse	1	t		30.0	2.5	/experiments/Knapen_AOT/AOT_stimuli/rescaled_final/0852_fw.mp4	0.0	177.96547079086304	
32	162.22408843040466	fix_post	2		12	30.0	2.5	/experiments/Knapen_AOT/AOT_stimuli/rescaled_final/0852_fw.mp4	0.0	178.08368110656738	0.10002875328063965
33	162.3241171836853	fix_pre	0		120	31.0	2.5	/experiments/Knapen_AOT/AOT_stimuli/rescaled_final/1290_fw.mp4	0.0	178.18370985984802	1.0086390972137451
33	163.33275628089905	movie	1		277	31.0	2.5	/experiments/Knapen_AOT/AOT_stimuli/rescaled_final/1290_fw.mp4	0.0	179.19234895706177	2.491894006729126
33	163.70627760887146	pulse	1	t		31.0	2.5	/experiments/Knapen_AOT/AOT_stimuli/rescaled_final/1290_fw.mp4	0.0	179.56587028503418	
33	165.3070240020752	pulse	1	t		31.0	2.5	/experiments/Knapen_AOT/AOT_stimuli/rescaled_final/1290_fw.mp4	0.0	181.16661667823792	
33	165.82465028762817	fix_post	2		12	31.0	2.5	/experiments/Knapen_AOT/AOT_stimuli/rescaled_final/1290_fw.mp4	0.0	181.6842429637909	0.10007095336914062
34	165.92472124099731	fix_pre	0		119	32.0	2.5	/experiments/Knapen_AOT/AOT_stimuli/rescaled_final/1184_rv.mp4	0.0	181.78431391716003	1.000070571899414
34	166.90837502479553	pulse	0	t		32.0	2.5	/experiments/Knapen_AOT/AOT_stimuli/rescaled_final/1184_rv.mp4	0.0	182.76796770095825	
34	166.92479181289673	movie	1		279	32.0	2.5	/experiments/Knapen_AOT/AOT_stimuli/rescaled_final/1184_rv.mp4	0.0	182.78438448905945	2.500394821166992
34	168.50739669799805	pulse	1	t		32.0	2.5	/experiments/Knapen_AOT/AOT_stimuli/rescaled_final/1184_rv.mp4	0.0	184.36698937416077	
34	169.42518663406372	fix_post	2		12	32.0	2.5	/experiments/Knapen_AOT/AOT_stimuli/rescaled_final/1184_rv.mp4	0.0	185.28477931022644	0.1000669002532959
35	169.52525353431702	fix_pre	0		120	33.0	2.5	/experiments/Knapen_AOT/AOT_stimuli/rescaled_final/1213_fw.mp4	0.0	185.38484621047974	1.0084452629089355
35	170.1089584827423	pulse	0	t		33.0	2.5	/experiments/Knapen_AOT/AOT_stimuli/rescaled_final/1213_fw.mp4	0.0	185.96855115890503	
35	170.53369879722595	movie	1		281	33.0	2.5	/experiments/Knapen_AOT/AOT_stimuli/rescaled_final/1213_fw.mp4	0.0	186.39329147338867	2.492161989212036
35	171.7072901725769	pulse	1	t		33.0	2.5	/experiments/Knapen_AOT/AOT_stimuli/rescaled_final/1213_fw.mp4	0.0	187.56688284873962	
35	173.025860786438	fix_post	2		12	33.0	2.5	/experiments/Knapen_AOT/AOT_stimuli/rescaled_final/1213_fw.mp4	0.0	188.8854534626007	0.09986686706542969
36	173.12572765350342	fix_pre	0		120	34.0	2.5	/experiments/Knapen_AOT/AOT_stimuli/rescaled_final/0285_fw.mp4	0.0	188.98532032966614	1.0085110664367676
36	173.30928921699524	pulse	0	t		34.0	2.5	/experiments/Knapen_AOT/AOT_stimuli/rescaled_final/0285_fw.mp4	0.0	189.16888189315796	
36	174.13423871994019	movie	1		287	34.0	2.5	/experiments/Knapen_AOT/AOT_stimuli/rescaled_final/0285_fw.mp4	0.0	189.9938313961029	2.49200439453125
36	174.9074330329895	pulse	1	t		34.0	2.5	/experiments/Knapen_AOT/AOT_stimuli/rescaled_final/0285_fw.mp4	0.0	190.76702570915222	
36	176.50798273086548	pulse	1	t		34.0	2.5	/experiments/Knapen_AOT/AOT_stimuli/rescaled_final/0285_fw.mp4	0.0	192.3675754070282	
36	176.62624311447144	fix_post	2		12	34.0	2.5	/experiments/Knapen_AOT/AOT_stimuli/rescaled_final/0285_fw.mp4	0.0	192.48583579063416	0.1000673770904541
37	176.7263104915619	fix_pre	0		120	35.0	2.5	blank	1.0	192.5859031677246	1.0001325607299805
37	177.72644305229187	movie	1		300	35.0	2.5	blank	1.0	193.5860357284546	2.5003907680511475
37	178.10240530967712	pulse	1	t		35.0	2.5	blank	1.0	193.96199798583984	
37	179.70238304138184	pulse	1	t		35.0	2.5	blank	1.0	195.56197571754456	
37	180.22683382034302	fix_post	2		12	35.0	2.5	blank	1.0	196.08642649650574	0.10006213188171387
38	180.32689595222473	fix_pre	0		118	36.0	2.5	/experiments/Knapen_AOT/AOT_stimuli/rescaled_final/0785_fw.mp4	0.0	196.18648862838745	0.9917495250701904
38	181.30245852470398	pulse	0	t		36.0	2.5	/experiments/Knapen_AOT/AOT_stimuli/rescaled_final/0785_fw.mp4	0.0	197.1620512008667	
38	181.31864547729492	movie	1		266	36.0	2.5	/experiments/Knapen_AOT/AOT_stimuli/rescaled_final/0785_fw.mp4	0.0	197.17823815345764	2.500361442565918
38	182.90260338783264	pulse	1	t		36.0	2.5	/experiments/Knapen_AOT/AOT_stimuli/rescaled_final/0785_fw.mp4	0.0	198.76219606399536	
38	183.81900691986084	fix_post	2		12	36.0	2.5	/experiments/Knapen_AOT/AOT_stimuli/rescaled_final/0785_fw.mp4	0.0	199.67859959602356	0.1000375747680664
39	183.9190444946289	fix_pre	0		120	37.0	2.5	/experiments/Knapen_AOT/AOT_stimuli/rescaled_final/2068_rv.mp4	0.0	199.77863717079163	1.0084974765777588
39	184.5026090145111	pulse	0	t		37.0	2.5	/experiments/Knapen_AOT/AOT_stimuli/rescaled_final/2068_rv.mp4	0.0	200.36220169067383	
39	184.92754197120667	movie	1		283	37.0	2.5	/experiments/Knapen_AOT/AOT_stimuli/rescaled_final/2068_rv.mp4	0.0	200.78713464736938	2.4920194149017334
39	186.10284280776978	pulse	1	t		37.0	2.5	/experiments/Knapen_AOT/AOT_stimuli/rescaled_final/2068_rv.mp4	0.0	201.9624354839325	
39	187.4195613861084	fix_post	2		12	37.0	2.5	/experiments/Knapen_AOT/AOT_stimuli/rescaled_final/2068_rv.mp4	0.0	203.27915406227112	0.10002875328063965
40	187.51959013938904	fix_pre	0		120	38.0	2.5	/experiments/Knapen_AOT/AOT_stimuli/rescaled_final/2170_fw.mp4	0.0	203.37918281555176	1.0085034370422363
40	187.70315790176392	pulse	0	t		38.0	2.5	/experiments/Knapen_AOT/AOT_stimuli/rescaled_final/2170_fw.mp4	0.0	203.56275057792664	
40	188.52809357643127	movie	1		280	38.0	2.5	/experiments/Knapen_AOT/AOT_stimuli/rescaled_final/2170_fw.mp4	0.0	204.387686252594	2.492008924484253
40	189.30345678329468	pulse	1	t		38.0	2.5	/experiments/Knapen_AOT/AOT_stimuli/rescaled_final/2170_fw.mp4	0.0	205.1630494594574	
40	190.90362739562988	pulse	1	t		38.0	2.5	/experiments/Knapen_AOT/AOT_stimuli/rescaled_final/2170_fw.mp4	0.0	206.7632200717926	
40	191.02010250091553	fix_post	2		12	38.0	2.5	/experiments/Knapen_AOT/AOT_stimuli/rescaled_final/2170_fw.mp4	0.0	206.87969517707825	0.10033035278320312
41	191.12043285369873	fix_pre	0		120	39.0	2.5	/experiments/Knapen_AOT/AOT_stimuli/rescaled_final/0589_fw.mp4	0.0	206.98002552986145	1.008166790008545
41	192.12859964370728	movie	1		273	39.0	2.5	/experiments/Knapen_AOT/AOT_stimuli/rescaled_final/0589_fw.mp4	0.0	207.98819231987	2.492039442062378
41	192.50405597686768	pulse	1	t		39.0	2.5	/experiments/Knapen_AOT/AOT_stimuli/rescaled_final/0589_fw.mp4	0.0	208.3636486530304	
41	194.1024956703186	pulse	1	t		39.0	2.5	/experiments/Knapen_AOT/AOT_stimuli/rescaled_final/0589_fw.mp4	0.0	209.96208834648132	
41	194.62063908576965	fix_post	2		12	39.0	2.5	/experiments/Knapen_AOT/AOT_stimuli/rescaled_final/0589_fw.mp4	0.0	210.48023176193237	0.10006904602050781
42	194.72070813179016	fix_pre	0		119	40.0	2.5	blank	1.0	210.58030080795288	0.9917798042297363
42	195.7044529914856	pulse	0	t		40.0	2.5	blank	1.0	211.56404566764832	
42	195.7124879360199	movie	1		301	40.0	2.5	blank	1.0	211.57208061218262	2.508692741394043
42	197.30460476875305	pulse	1	t		40.0	2.5	blank	1.0	213.16419744491577	
42	198.22118067741394	fix_post	2		12	40.0	2.5	blank	1.0	214.08077335357666	0.10001921653747559
43	198.32119989395142	fix_pre	0		120	41.0	2.5	/experiments/Knapen_AOT/AOT_stimuli/rescaled_final/0500_fw.mp4	0.0	214.18079257011414	1.0085439682006836
43	198.9048354625702	pulse	0	t		41.0	2.5	/experiments/Knapen_AOT/AOT_stimuli/rescaled_final/0500_fw.mp4	0.0	214.7644281387329	
43	199.3297438621521	movie	1		272	41.0	2.5	/experiments/Knapen_AOT/AOT_stimuli/rescaled_final/0500_fw.mp4	0.0	215.18933653831482	2.49198842048645
43	200.50296449661255	pulse	1	t		41.0	2.5	/experiments/Knapen_AOT/AOT_stimuli/rescaled_final/0500_fw.mp4	0.0	216.36255717277527	
43	201.82173228263855	fix_post	2		12	41.0	2.5	/experiments/Knapen_AOT/AOT_stimuli/rescaled_final/0500_fw.mp4	0.0	217.68132495880127	0.10001134872436523
44	201.92174363136292	fix_pre	0		120	42.0	2.5	/experiments/Knapen_AOT/AOT_stimuli/rescaled_final/0880_fw.mp4	0.0	217.78133630752563	1.0084924697875977
44	202.1052987575531	pulse	0	t		42.0	2.5	/experiments/Knapen_AOT/AOT_stimuli/rescaled_final/0880_fw.mp4	0.0	217.96489143371582	
44	202.9302361011505	movie	1		278	42.0	2.5	/experiments/Knapen_AOT/AOT_stimuli/rescaled_final/0880_fw.mp4	0.0	218.78982877731323	2.4920272827148438
44	203.70344972610474	pulse	1	t		42.0	2.5	/experiments/Knapen_AOT/AOT_stimuli/rescaled_final/0880_fw.mp4	0.0	219.56304240226746	
44	205.30404424667358	pulse	1	t		42.0	2.5	/experiments/Knapen_AOT/AOT_stimuli/rescaled_final/0880_fw.mp4	0.0	221.1636369228363	
44	205.42226338386536	fix_post	2		12	42.0	2.5	/experiments/Knapen_AOT/AOT_stimuli/rescaled_final/0880_fw.mp4	0.0	221.28185606002808	0.10001945495605469
45	205.5222828388214	fix_pre	0		120	43.0	2.5	/experiments/Knapen_AOT/AOT_stimuli/rescaled_final/0100_rv.mp4	0.0	221.38187551498413	1.0085091590881348
45	206.53079199790955	movie	1		283	43.0	2.5	/experiments/Knapen_AOT/AOT_stimuli/rescaled_final/0100_rv.mp4	0.0	222.39038467407227	2.4920177459716797
45	206.90471053123474	pulse	1	t		43.0	2.5	/experiments/Knapen_AOT/AOT_stimuli/rescaled_final/0100_rv.mp4	0.0	222.76430320739746	
45	208.50454258918762	pulse	1	t		43.0	2.5	/experiments/Knapen_AOT/AOT_stimuli/rescaled_final/0100_rv.mp4	0.0	224.36413526535034	
45	209.02280974388123	fix_post	2		12	43.0	2.5	/experiments/Knapen_AOT/AOT_stimuli/rescaled_final/0100_rv.mp4	0.0	224.88240242004395	0.10006523132324219
46	209.12287497520447	fix_pre	0		119	44.0	2.5	/experiments/Knapen_AOT/AOT_stimuli/rescaled_final/2098_rv.mp4	0.0	224.9824676513672	1.0084865093231201
46	210.10672426223755	pulse	0	t		44.0	2.5	/experiments/Knapen_AOT/AOT_stimuli/rescaled_final/2098_rv.mp4	0.0	225.96631693840027	
46	210.1313614845276	movie	1		286	44.0	2.5	/experiments/Knapen_AOT/AOT_stimuli/rescaled_final/2098_rv.mp4	0.0	225.9909541606903	2.491992235183716
46	211.70548629760742	pulse	1	t		44.0	2.5	/experiments/Knapen_AOT/AOT_stimuli/rescaled_final/2098_rv.mp4	0.0	227.56507897377014	
46	212.6233537197113	fix_post	2		12	44.0	2.5	/experiments/Knapen_AOT/AOT_stimuli/rescaled_final/2098_rv.mp4	0.0	228.48294639587402	0.09999752044677734
47	212.72335124015808	fix_pre	0		120	45.0	2.5	/experiments/Knapen_AOT/AOT_stimuli/rescaled_final/0149_rv.mp4	0.0	228.5829439163208	1.0085759162902832
47	213.30704998970032	pulse	0	t		45.0	2.5	/experiments/Knapen_AOT/AOT_stimuli/rescaled_final/0149_rv.mp4	0.0	229.16664266586304	
47	213.73192715644836	movie	1		276	45.0	2.5	/experiments/Knapen_AOT/AOT_stimuli/rescaled_final/0149_rv.mp4	0.0	229.59151983261108	2.4919638633728027
47	214.90566563606262	pulse	1	t		45.0	2.5	/experiments/Knapen_AOT/AOT_stimuli/rescaled_final/0149_rv.mp4	0.0	230.76525831222534	
47	216.22389101982117	fix_post	2		12	45.0	2.5	/experiments/Knapen_AOT/AOT_stimuli/rescaled_final/0149_rv.mp4	0.0	232.0834836959839	0.10000467300415039
48	216.32389569282532	fix_pre	0		120	46.0	2.5	/experiments/Knapen_AOT/AOT_stimuli/rescaled_final/1677_fw.mp4	0.0	232.18348836898804	1.0084917545318604
48	216.50744199752808	pulse	0	t		46.0	2.5	/experiments/Knapen_AOT/AOT_stimuli/rescaled_final/1677_fw.mp4	0.0	232.3670346736908	
48	217.33238744735718	movie	1		262	46.0	2.5	/experiments/Knapen_AOT/AOT_stimuli/rescaled_final/1677_fw.mp4	0.0	233.1919801235199	2.4920594692230225
48	218.10538482666016	pulse	1	t		46.0	2.5	/experiments/Knapen_AOT/AOT_stimuli/rescaled_final/1677_fw.mp4	0.0	233.96497750282288	
48	219.70615339279175	pulse	1	t		46.0	2.5	/experiments/Knapen_AOT/AOT_stimuli/rescaled_final/1677_fw.mp4	0.0	235.56574606895447	
48	219.8244469165802	fix_post	2		12	46.0	2.5	/experiments/Knapen_AOT/AOT_stimuli/rescaled_final/1677_fw.mp4	0.0	235.68403959274292	0.10000848770141602
49	219.92445540428162	fix_pre	0		120	47.0	2.5	/experiments/Knapen_AOT/AOT_stimuli/rescaled_final/1113_fw.mp4	0.0	235.78404808044434	1.0084850788116455
49	220.93294048309326	movie	1		283	47.0	2.5	/experiments/Knapen_AOT/AOT_stimuli/rescaled_final/1113_fw.mp4	0.0	236.79253315925598	2.4920451641082764
49	221.30695176124573	pulse	1	t		47.0	2.5	/experiments/Knapen_AOT/AOT_stimuli/rescaled_final/1113_fw.mp4	0.0	237.16654443740845	
49	222.90676999092102	pulse	1	t		47.0	2.5	/experiments/Knapen_AOT/AOT_stimuli/rescaled_final/1113_fw.mp4	0.0	238.76636266708374	
49	223.42498564720154	fix_post	2		12	47.0	2.5	/experiments/Knapen_AOT/AOT_stimuli/rescaled_final/1113_fw.mp4	0.0	239.28457832336426	0.10005974769592285
50	223.52504539489746	fix_pre	0		119	48.0	2.5	blank	1.0	239.38463807106018	0.9917421340942383
50	224.50876879692078	pulse	0	t		48.0	2.5	blank	1.0	240.3683614730835	
50	224.5167875289917	movie	1		301	48.0	2.5	blank	1.0	240.37638020515442	2.508730411529541
50	226.10892367362976	pulse	1	t		48.0	2.5	blank	1.0	241.96851634979248	
50	227.02551794052124	fix_post	2		12	48.0	2.5	blank	1.0	242.88511061668396	0.10002946853637695
51	227.12554740905762	fix_pre	0		120	49.0	2.5	/experiments/Knapen_AOT/AOT_stimuli/rescaled_final/1304_fw.mp4	0.0	242.98514008522034	1.0084798336029053
51	227.70916271209717	pulse	0	t		49.0	2.5	/experiments/Knapen_AOT/AOT_stimuli/rescaled_final/1304_fw.mp4	0.0	243.5687553882599	
51	228.13402724266052	movie	1		280	49.0	2.5	/experiments/Knapen_AOT/AOT_stimuli/rescaled_final/1304_fw.mp4	0.0	243.99361991882324	2.4920601844787598
51	229.3076527118683	pulse	1	t		49.0	2.5	/experiments/Knapen_AOT/AOT_stimuli/rescaled_final/1304_fw.mp4	0.0	245.167245388031	
51	230.62608742713928	fix_post	2		12	49.0	2.5	/experiments/Knapen_AOT/AOT_stimuli/rescaled_final/1304_fw.mp4	0.0	246.485680103302	0.0999915599822998
52	230.72607898712158	fix_pre	0		120	50.0	2.5	/experiments/Knapen_AOT/AOT_stimuli/rescaled_final/0609_fw.mp4	0.0	246.5856716632843	1.0085110664367676
52	230.903404712677	pulse	0	t		50.0	2.5	/experiments/Knapen_AOT/AOT_stimuli/rescaled_final/0609_fw.mp4	0.0	246.76299738883972	
52	231.73459005355835	movie	1		269	50.0	2.5	/experiments/Knapen_AOT/AOT_stimuli/rescaled_final/0609_fw.mp4	0.0	247.59418272972107	2.4920005798339844
52	232.50799083709717	pulse	1	t		50.0	2.5	/experiments/Knapen_AOT/AOT_stimuli/rescaled_final/0609_fw.mp4	0.0	248.3675835132599	
52	234.10819005966187	pulse	1	t		50.0	2.5	/experiments/Knapen_AOT/AOT_stimuli/rescaled_final/0609_fw.mp4	0.0	249.96778273582458	
52	234.22659063339233	fix_post	2		12	50.0	2.5	/experiments/Knapen_AOT/AOT_stimuli/rescaled_final/0609_fw.mp4	0.0	250.08618330955505	0.10006141662597656
53	234.3266520500183	fix_pre	0		120	51.0	2.5	/experiments/Knapen_AOT/AOT_stimuli/rescaled_final/0701_fw.mp4	0.0	250.18624472618103	1.0084919929504395
53	235.33514404296875	movie	1		279	51.0	2.5	/experiments/Knapen_AOT/AOT_stimuli/rescaled_final/0701_fw.mp4	0.0	251.19473671913147	2.4920036792755127
53	235.70844912528992	pulse	1	t		51.0	2.5	/experiments/Knapen_AOT/AOT_stimuli/rescaled_final/0701_fw.mp4	0.0	251.56804180145264	
53	237.30847358703613	pulse	1	t		51.0	2.5	/experiments/Knapen_AOT/AOT_stimuli/rescaled_final/0701_fw.mp4	0.0	253.16806626319885	
53	237.82714772224426	fix_post	2		12	51.0	2.5	/experiments/Knapen_AOT/AOT_stimuli/rescaled_final/0701_fw.mp4	0.0	253.68674039840698	0.10000777244567871
54	237.92715549468994	fix_pre	0		119	52.0	2.5	/experiments/Knapen_AOT/AOT_stimuli/rescaled_final/0001_fw.mp4	0.0	253.78674817085266	1.0001323223114014
54	238.90311646461487	pulse	0	t		52.0	2.5	/experiments/Knapen_AOT/AOT_stimuli/rescaled_final/0001_fw.mp4	0.0	254.7627091407776	
54	238.92728781700134	movie	1		286	52.0	2.5	/experiments/Knapen_AOT/AOT_stimuli/rescaled_final/0001_fw.mp4	0.0	254.78688049316406	2.500391721725464
54	240.5032365322113	pulse	1	t		52.0	2.5	/experiments/Knapen_AOT/AOT_stimuli/rescaled_final/0001_fw.mp4	0.0	256.362829208374	
54	241.4276795387268	fix_post	2		12	52.0	2.5	/experiments/Knapen_AOT/AOT_stimuli/rescaled_final/0001_fw.mp4	0.0	257.2872722148895	0.10001325607299805
55	241.5276927947998	fix_pre	0		120	53.0	2.5	/experiments/Knapen_AOT/AOT_stimuli/rescaled_final/1741_fw.mp4	0.0	257.3872854709625	1.0085036754608154
55	242.1030671596527	pulse	0	t		53.0	2.5	/experiments/Knapen_AOT/AOT_stimuli/rescaled_final/1741_fw.mp4	0.0	257.96265983581543	
55	242.53619647026062	movie	1		287	53.0	2.5	/experiments/Knapen_AOT/AOT_stimuli/rescaled_final/1741_fw.mp4	0.0	258.39578914642334	2.492017984390259
55	243.7033839225769	pulse	1	t		53.0	2.5	/experiments/Knapen_AOT/AOT_stimuli/rescaled_final/1741_fw.mp4	0.0	259.5629765987396	
55	245.02821445465088	fix_post	2		12	53.0	2.5	/experiments/Knapen_AOT/AOT_stimuli/rescaled_final/1741_fw.mp4	0.0	260.8878071308136	0.10001683235168457
56	245.12823128700256	fix_pre	0		120	54.0	2.5	/experiments/Knapen_AOT/AOT_stimuli/rescaled_final/0454_rv.mp4	0.0	260.9878239631653	1.008500337600708
56	245.3036186695099	pulse	0	t		54.0	2.5	/experiments/Knapen_AOT/AOT_stimuli/rescaled_final/0454_rv.mp4	0.0	261.1632113456726	
56	246.13673162460327	movie	1		279	54.0	2.5	/experiments/Knapen_AOT/AOT_stimuli/rescaled_final/0454_rv.mp4	0.0	261.996324300766	2.4920244216918945
56	246.90368580818176	pulse	1	t		54.0	2.5	/experiments/Knapen_AOT/AOT_stimuli/rescaled_final/0454_rv.mp4	0.0	262.7632784843445	
56	248.50434947013855	pulse	1	t		54.0	2.5	/experiments/Knapen_AOT/AOT_stimuli/rescaled_final/0454_rv.mp4	0.0	264.36394214630127	
56	248.62875604629517	fix_post	2		12	54.0	2.5	/experiments/Knapen_AOT/AOT_stimuli/rescaled_final/0454_rv.mp4	0.0	264.4883487224579	0.09997987747192383
57	248.7287359237671	fix_pre	0		120	55.0	2.5	/experiments/Knapen_AOT/AOT_stimuli/rescaled_final/0347_rv.mp4	0.0	264.5883285999298	1.0085384845733643
57	249.73727440834045	movie	1		287	55.0	2.5	/experiments/Knapen_AOT/AOT_stimuli/rescaled_final/0347_rv.mp4	0.0	265.5968670845032	2.4920318126678467
57	250.10278844833374	pulse	1	t		55.0	2.5	/experiments/Knapen_AOT/AOT_stimuli/rescaled_final/0347_rv.mp4	0.0	265.96238112449646	
57	251.70451831817627	pulse	1	t		55.0	2.5	/experiments/Knapen_AOT/AOT_stimuli/rescaled_final/0347_rv.mp4	0.0	267.564110994339	
57	252.2293062210083	fix_post	2		12	55.0	2.5	/experiments/Knapen_AOT/AOT_stimuli/rescaled_final/0347_rv.mp4	0.0	268.088898897171	0.10004234313964844
58	252.32934856414795	fix_pre	0		118	56.0	2.5	blank	1.0	268.18894124031067	0.9834353923797607
58	253.30482530593872	pulse	0	t		56.0	2.5	blank	1.0	269.16441798210144	
58	253.3127839565277	movie	1		301	56.0	2.5	blank	1.0	269.17237663269043	2.50874400138855
58	254.9050464630127	pulse	1	t		56.0	2.5	blank	1.0	270.7646391391754	
58	255.82152795791626	fix_post	2		12	56.0	2.5	blank	1.0	271.681120634079	0.10002255439758301
59	255.92155051231384	fix_pre	0		120	57.0	2.5	/experiments/Knapen_AOT/AOT_stimuli/rescaled_final/0829_rv.mp4	0.0	271.78114318847656	1.008481740951538
59	256.5051305294037	pulse	0	t		57.0	2.5	/experiments/Knapen_AOT/AOT_stimuli/rescaled_final/0829_rv.mp4	0.0	272.3647232055664	
59	256.9300322532654	movie	1		276	57.0	2.5	/experiments/Knapen_AOT/AOT_stimuli/rescaled_final/0829_rv.mp4	0.0	272.7896249294281	2.492016315460205
59	258.1046419143677	pulse	1	t		57.0	2.5	/experiments/Knapen_AOT/AOT_stimuli/rescaled_final/0829_rv.mp4	0.0	273.9642345905304	
59	259.4220485687256	fix_post	2		12	57.0	2.5	/experiments/Knapen_AOT/AOT_stimuli/rescaled_final/0829_rv.mp4	0.0	275.2816412448883	0.10002422332763672
60	259.5220727920532	fix_pre	0		120	58.0	2.5	/experiments/Knapen_AOT/AOT_stimuli/rescaled_final/0385_rv.mp4	0.0	275.38166546821594	1.0084712505340576
60	259.70564556121826	pulse	0	t		58.0	2.5	/experiments/Knapen_AOT/AOT_stimuli/rescaled_final/0385_rv.mp4	0.0	275.565238237381	
60	260.5305440425873	movie	1		280	58.0	2.5	/experiments/Knapen_AOT/AOT_stimuli/rescaled_final/0385_rv.mp4	0.0	276.39013671875	2.4920575618743896
60	261.30418395996094	pulse	1	t		58.0	2.5	/experiments/Knapen_AOT/AOT_stimuli/rescaled_final/0385_rv.mp4	0.0	277.16377663612366	
60	262.90530943870544	pulse	1	t		58.0	2.5	/experiments/Knapen_AOT/AOT_stimuli/rescaled_final/0385_rv.mp4	0.0	278.76490211486816	
60	263.02260160446167	fix_post	2		12	58.0	2.5	/experiments/Knapen_AOT/AOT_stimuli/rescaled_final/0385_rv.mp4	0.0	278.8821942806244	0.10002946853637695
61	263.12263107299805	fix_pre	0		120	59.0	2.5	/experiments/Knapen_AOT/AOT_stimuli/rescaled_final/1709_fw.mp4	0.0	278.98222374916077	1.0084798336029053
61	264.13111090660095	movie	1		270	59.0	2.5	/experiments/Knapen_AOT/AOT_stimuli/rescaled_final/1709_fw.mp4	0.0	279.9907035827637	2.492027521133423
61	264.5051167011261	pulse	1	t		59.0	2.5	/experiments/Knapen_AOT/AOT_stimuli/rescaled_final/1709_fw.mp4	0.0	280.3647093772888	
61	266.1067621707916	pulse	1	t		59.0	2.5	/experiments/Knapen_AOT/AOT_stimuli/rescaled_final/1709_fw.mp4	0.0	281.96635484695435	
61	266.6231384277344	fix_post	2		12	59.0	2.5	/experiments/Knapen_AOT/AOT_stimuli/rescaled_final/1709_fw.mp4	0.0	282.4827311038971	0.10002422332763672
62	266.723162651062	fix_pre	0		119	60.0	2.5	/experiments/Knapen_AOT/AOT_stimuli/rescaled_final/0177_rv.mp4	0.0	282.58275532722473	1.0085477828979492
62	267.7069754600525	pulse	0	t		60.0	2.5	/experiments/Knapen_AOT/AOT_stimuli/rescaled_final/0177_rv.mp4	0.0	283.5665681362152	
62	267.73171043395996	movie	1		279	60.0	2.5	/experiments/Knapen_AOT/AOT_stimuli/rescaled_final/0177_rv.mp4	0.0	283.5913031101227	2.4919848442077637
62	269.3063225746155	pulse	1	t		60.0	2.5	/experiments/Knapen_AOT/AOT_stimuli/rescaled_final/0177_rv.mp4	0.0	285.1659152507782	
62	270.2236952781677	fix_post	2		12	60.0	2.5	/experiments/Knapen_AOT/AOT_stimuli/rescaled_final/0177_rv.mp4	0.0	286.08328795433044	0.10003900527954102
63	270.32373428344727	fix_pre	0		120	61.0	2.5	/experiments/Knapen_AOT/AOT_stimuli/rescaled_final/1251_rv.mp4	0.0	286.18332695961	1.0084619522094727
63	270.90744853019714	pulse	0	t		61.0	2.5	/experiments/Knapen_AOT/AOT_stimuli/rescaled_final/1251_rv.mp4	0.0	286.76704120635986	
63	271.33219623565674	movie	1		269	61.0	2.5	/experiments/Knapen_AOT/AOT_stimuli/rescaled_final/1251_rv.mp4	0.0	287.19178891181946	2.492025136947632
63	272.5060348510742	pulse	1	t		61.0	2.5	/experiments/Knapen_AOT/AOT_stimuli/rescaled_final/1251_rv.mp4	0.0	288.36562752723694	
63	273.82422137260437	fix_post	2		12	61.0	2.5	/experiments/Knapen_AOT/AOT_stimuli/rescaled_final/1251_rv.mp4	0.0	289.6838140487671	0.10002803802490234
64	273.9242494106293	fix_pre	0		120	62.0	2.5	/experiments/Knapen_AOT/AOT_stimuli/rescaled_final/0134_fw.mp4	0.0	289.783842086792	1.0085015296936035
64	274.10795044898987	pulse	0	t		62.0	2.5	/experiments/Knapen_AOT/AOT_stimuli/rescaled_final/0134_fw.mp4	0.0	289.9675431251526	
64	274.9327509403229	movie	1		260	62.0	2.5	/experiments/Knapen_AOT/AOT_stimuli/rescaled_final/0134_fw.mp4	0.0	290.7923436164856	2.4920406341552734
64	275.70741152763367	pulse	1	t		62.0	2.5	/experiments/Knapen_AOT/AOT_stimuli/rescaled_final/0134_fw.mp4	0.0	291.5670042037964	
64	277.306636095047	pulse	1	t		62.0	2.5	/experiments/Knapen_AOT/AOT_stimuli/rescaled_final/0134_fw.mp4	0.0	293.1662287712097	
64	277.42479157447815	fix_post	2		12	62.0	2.5	/experiments/Knapen_AOT/AOT_stimuli/rescaled_final/0134_fw.mp4	0.0	293.28438425064087	0.1000514030456543
65	277.5248429775238	fix_pre	0		120	63.0	2.5	blank	1.0	293.3844356536865	1.0000886917114258
65	278.52493166923523	movie	1		300	63.0	2.5	blank	1.0	294.38452434539795	2.5003726482391357
65	278.9085147380829	pulse	1	t		63.0	2.5	blank	1.0	294.7681074142456	
65	280.50875091552734	pulse	1	t		63.0	2.5	blank	1.0	296.36834359169006	
65	281.02530431747437	fix_post	2		12	63.0	2.5	blank	1.0	296.8848969936371	0.10001921653747559
66	281.12532353401184	fix_pre	0		119	64.0	2.5	/experiments/Knapen_AOT/AOT_stimuli/rescaled_final/0880_rv.mp4	0.0	296.98491621017456	1.0001773834228516
66	282.1090347766876	pulse	0	t		64.0	2.5	/experiments/Knapen_AOT/AOT_stimuli/rescaled_final/0880_rv.mp4	0.0	297.96862745285034	
66	282.1255009174347	movie	1		291	64.0	2.5	/experiments/Knapen_AOT/AOT_stimuli/rescaled_final/0880_rv.mp4	0.0	297.9850935935974	2.500361442565918
66	283.70801305770874	pulse	1	t		64.0	2.5	/experiments/Knapen_AOT/AOT_stimuli/rescaled_final/0880_rv.mp4	0.0	299.56760573387146	
66	284.6258623600006	fix_post	2		12	64.0	2.5	/experiments/Knapen_AOT/AOT_stimuli/rescaled_final/0880_rv.mp4	0.0	300.48545503616333	0.10011744499206543
67	284.7259798049927	fix_pre	0		120	65.0	2.5	/experiments/Knapen_AOT/AOT_stimuli/rescaled_final/1838_rv.mp4	0.0	300.5855724811554	1.0083858966827393
67	285.30950379371643	pulse	0	t		65.0	2.5	/experiments/Knapen_AOT/AOT_stimuli/rescaled_final/1838_rv.mp4	0.0	301.16909646987915	
67	285.7343657016754	movie	1		278	65.0	2.5	/experiments/Knapen_AOT/AOT_stimuli/rescaled_final/1838_rv.mp4	0.0	301.59395837783813	2.4920248985290527
67	286.9083631038666	pulse	1	t		65.0	2.5	/experiments/Knapen_AOT/AOT_stimuli/rescaled_final/1838_rv.mp4	0.0	302.7679557800293	
67	288.22639060020447	fix_post	2		12	65.0	2.5	/experiments/Knapen_AOT/AOT_stimuli/rescaled_final/1838_rv.mp4	0.0	304.0859832763672	0.10001921653747559
68	288.32640981674194	fix_pre	0		120	66.0	2.5	/experiments/Knapen_AOT/AOT_stimuli/rescaled_final/1829_rv.mp4	0.0	304.18600249290466	1.0084991455078125
68	288.5101091861725	pulse	0	t		66.0	2.5	/experiments/Knapen_AOT/AOT_stimuli/rescaled_final/1829_rv.mp4	0.0	304.3697018623352	
68	289.33490896224976	movie	1		278	66.0	2.5	/experiments/Knapen_AOT/AOT_stimuli/rescaled_final/1829_rv.mp4	0.0	305.1945016384125	2.4920315742492676
68	290.10851550102234	pulse	1	t		66.0	2.5	/experiments/Knapen_AOT/AOT_stimuli/rescaled_final/1829_rv.mp4	0.0	305.96810817718506	
68	291.70848846435547	pulse	1	t		66.0	2.5	/experiments/Knapen_AOT/AOT_stimuli/rescaled_final/1829_rv.mp4	0.0	307.5680811405182	
68	291.826940536499	fix_post	2		12	66.0	2.5	/experiments/Knapen_AOT/AOT_stimuli/rescaled_final/1829_rv.mp4	0.0	307.68653321266174	0.10004305839538574
69	291.9269835948944	fix_pre	0		120	67.0	2.5	/experiments/Knapen_AOT/AOT_stimuli/rescaled_final/0667_rv.mp4	0.0	307.78657627105713	1.0085034370422363
69	292.93548703193665	movie	1		264	67.0	2.5	/experiments/Knapen_AOT/AOT_stimuli/rescaled_final/0667_rv.mp4	0.0	308.79507970809937	2.491985559463501
69	293.3102242946625	pulse	1	t		67.0	2.5	/experiments/Knapen_AOT/AOT_stimuli/rescaled_final/0667_rv.mp4	0.0	309.1698169708252	
69	294.90887355804443	pulse	1	t		67.0	2.5	/experiments/Knapen_AOT/AOT_stimuli/rescaled_final/0667_rv.mp4	0.0	310.76846623420715	
69	295.42747259140015	fix_post	2		12	67.0	2.5	/experiments/Knapen_AOT/AOT_stimuli/rescaled_final/0667_rv.mp4	0.0	311.28706526756287	0.1000211238861084
70	295.52749371528625	fix_pre	0		119	68.0	2.5	blank	1.0	311.387086391449	0.9918138980865479
70	296.50373697280884	pulse	0	t		68.0	2.5	blank	1.0	312.36332964897156	
70	296.5193076133728	movie	1		301	68.0	2.5	blank	1.0	312.3789002895355	2.508692741394043
70	298.10328793525696	pulse	1	t		68.0	2.5	blank	1.0	313.9628806114197	
70	299.02800035476685	fix_post	2		12	68.0	2.5	blank	1.0	314.88759303092957	0.1000678539276123
71	299.12806820869446	fix_pre	0		120	69.0	2.5	/experiments/Knapen_AOT/AOT_stimuli/rescaled_final/0370_fw.mp4	0.0	314.9876608848572	1.0085039138793945
71	299.70335960388184	pulse	0	t		69.0	2.5	/experiments/Knapen_AOT/AOT_stimuli/rescaled_final/0370_fw.mp4	0.0	315.56295228004456	
71	300.13657212257385	movie	1		287	69.0	2.5	/experiments/Knapen_AOT/AOT_stimuli/rescaled_final/0370_fw.mp4	0.0	315.9961647987366	2.491992235183716
71	301.3036119937897	pulse	1	t		69.0	2.5	/experiments/Knapen_AOT/AOT_stimuli/rescaled_final/0370_fw.mp4	0.0	317.1632046699524	
71	302.62856435775757	fix_post	2		12	69.0	2.5	/experiments/Knapen_AOT/AOT_stimuli/rescaled_final/0370_fw.mp4	0.0	318.4881570339203	0.10002470016479492
72	302.72858905792236	fix_pre	0		120	70.0	2.5	/experiments/Knapen_AOT/AOT_stimuli/rescaled_final/2177_rv.mp4	0.0	318.5881817340851	1.0084874629974365
72	302.9045751094818	pulse	0	t		70.0	2.5	/experiments/Knapen_AOT/AOT_stimuli/rescaled_final/2177_rv.mp4	0.0	318.76416778564453	
72	303.7370765209198	movie	1		272	70.0	2.5	/experiments/Knapen_AOT/AOT_stimuli/rescaled_final/2177_rv.mp4	0.0	319.5966691970825	2.492006301879883
72	304.50405645370483	pulse	1	t		70.0	2.5	/experiments/Knapen_AOT/AOT_stimuli/rescaled_final/2177_rv.mp4	0.0	320.36364912986755	
72	306.10478162765503	pulse	1	t		70.0	2.5	/experiments/Knapen_AOT/AOT_stimuli/rescaled_final/2177_rv.mp4	0.0	321.96437430381775	
72	306.2290828227997	fix_post	2		12	70.0	2.5	/experiments/Knapen_AOT/AOT_stimuli/rescaled_final/2177_rv.mp4	0.0	322.0886754989624	0.10006284713745117
73	306.32914566993713	fix_pre	0		120	71.0	2.5	/experiments/Knapen_AOT/AOT_stimuli/rescaled_final/0529_fw.mp4	0.0	322.18873834609985	1.0085029602050781
73	307.3376486301422	movie	1		271	71.0	2.5	/experiments/Knapen_AOT/AOT_stimuli/rescaled_final/0529_fw.mp4	0.0	323.19724130630493	2.491966485977173
73	307.70459938049316	pulse	1	t		71.0	2.5	/experiments/Knapen_AOT/AOT_stimuli/rescaled_final/0529_fw.mp4	0.0	323.5641920566559	
73	309.30478262901306	pulse	1	t		71.0	2.5	/experiments/Knapen_AOT/AOT_stimuli/rescaled_final/0529_fw.mp4	0.0	325.1643753051758	
73	309.8296151161194	fix_post	2		12	71.0	2.5	/experiments/Knapen_AOT/AOT_stimuli/rescaled_final/0529_fw.mp4	0.0	325.6892077922821	0.10003376007080078
74	309.9296488761902	fix_pre	0		118	72.0	2.5	/experiments/Knapen_AOT/AOT_stimuli/rescaled_final/1601_rv.mp4	0.0	325.7892415523529	0.9918887615203857
74	310.9052140712738	pulse	0	t		72.0	2.5	/experiments/Knapen_AOT/AOT_stimuli/rescaled_final/1601_rv.mp4	0.0	326.7648067474365	
74	310.92153763771057	movie	1		277	72.0	2.5	/experiments/Knapen_AOT/AOT_stimuli/rescaled_final/1601_rv.mp4	0.0	326.7811303138733	2.5003087520599365
74	312.5038216114044	pulse	1	t		72.0	2.5	/experiments/Knapen_AOT/AOT_stimuli/rescaled_final/1601_rv.mp4	0.0	328.36341428756714	
74	313.4218463897705	fix_post	2		12	72.0	2.5	/experiments/Knapen_AOT/AOT_stimuli/rescaled_final/1601_rv.mp4	0.0	329.2814390659332	0.10001611709594727
75	313.52186250686646	fix_pre	0		120	73.0	2.5	/experiments/Knapen_AOT/AOT_stimuli/rescaled_final/1730_fw.mp4	0.0	329.3814551830292	1.0084850788116455
75	314.1055676937103	pulse	0	t		73.0	2.5	/experiments/Knapen_AOT/AOT_stimuli/rescaled_final/1730_fw.mp4	0.0	329.96516036987305	
75	314.5303475856781	movie	1		275	73.0	2.5	/experiments/Knapen_AOT/AOT_stimuli/rescaled_final/1730_fw.mp4	0.0	330.3899402618408	2.4921507835388184
75	315.70372104644775	pulse	1	t		73.0	2.5	/experiments/Knapen_AOT/AOT_stimuli/rescaled_final/1730_fw.mp4	0.0	331.5633137226105	
75	317.0224983692169	fix_post	2		12	73.0	2.5	/experiments/Knapen_AOT/AOT_stimuli/rescaled_final/1730_fw.mp4	0.0	332.88209104537964	0.0998988151550293
76	317.12239718437195	fix_pre	0		120	74.0	2.5	/experiments/Knapen_AOT/AOT_stimuli/rescaled_final/0343_rv.mp4	0.0	332.98198986053467	1.0084648132324219
76	317.30614399909973	pulse	0	t		74.0	2.5	/experiments/Knapen_AOT/AOT_stimuli/rescaled_final/0343_rv.mp4	0.0	333.16573667526245	
76	318.13086199760437	movie	1		284	74.0	2.5	/experiments/Knapen_AOT/AOT_stimuli/rescaled_final/0343_rv.mp4	0.0	333.9904546737671	2.4920709133148193
76	318.9046974182129	pulse	1	t		74.0	2.5	/experiments/Knapen_AOT/AOT_stimuli/rescaled_final/0343_rv.mp4	0.0	334.7642900943756	
76	320.504998922348	pulse	1	t		74.0	2.5	/experiments/Knapen_AOT/AOT_stimuli/rescaled_final/0343_rv.mp4	0.0	336.36459159851074	
76	320.6229329109192	fix_post	2		12	74.0	2.5	/experiments/Knapen_AOT/AOT_stimuli/rescaled_final/0343_rv.mp4	0.0	336.4825255870819	0.09999251365661621
77	320.7229254245758	fix_pre	0		120	75.0	2.5	blank	1.0	336.5825181007385	1.0001864433288574
77	321.72311186790466	movie	1		300	75.0	2.5	blank	1.0	337.5827045440674	2.5003774166107178
77	322.1067180633545	pulse	1	t		75.0	2.5	blank	1.0	337.9663107395172	
77	323.70699524879456	pulse	1	t		75.0	2.5	blank	1.0	339.5665879249573	
77	324.2234892845154	fix_post	2		12	75.0	2.5	blank	1.0	340.0830819606781	0.09999728202819824
78	324.3234865665436	fix_pre	0		119	76.0	2.5	/experiments/Knapen_AOT/AOT_stimuli/rescaled_final/1611_fw.mp4	0.0	340.1830792427063	1.0086193084716797
78	325.3071701526642	pulse	0	t		76.0	2.5	/experiments/Knapen_AOT/AOT_stimuli/rescaled_final/1611_fw.mp4	0.0	341.1667628288269	
78	325.33210587501526	movie	1		275	76.0	2.5	/experiments/Knapen_AOT/AOT_stimuli/rescaled_final/1611_fw.mp4	0.0	341.191698551178	2.4919116497039795
78	326.9073281288147	pulse	1	t		76.0	2.5	/experiments/Knapen_AOT/AOT_stimuli/rescaled_final/1611_fw.mp4	0.0	342.7669208049774	
78	327.82401752471924	fix_post	2		12	76.0	2.5	/experiments/Knapen_AOT/AOT_stimuli/rescaled_final/1611_fw.mp4	0.0	343.68361020088196	0.10001611709594727
79	327.9240336418152	fix_pre	0		120	77.0	2.5	/experiments/Knapen_AOT/AOT_stimuli/rescaled_final/1385_rv.mp4	0.0	343.7836263179779	1.0085291862487793
79	328.50777101516724	pulse	0	t		77.0	2.5	/experiments/Knapen_AOT/AOT_stimuli/rescaled_final/1385_rv.mp4	0.0	344.36736369132996	
79	328.93256282806396	movie	1		278	77.0	2.5	/experiments/Knapen_AOT/AOT_stimuli/rescaled_final/1385_rv.mp4	0.0	344.7921555042267	2.49200177192688
79	330.10657596588135	pulse	1	t		77.0	2.5	/experiments/Knapen_AOT/AOT_stimuli/rescaled_final/1385_rv.mp4	0.0	345.96616864204407	
79	331.42456459999084	fix_post	2		12	77.0	2.5	/experiments/Knapen_AOT/AOT_stimuli/rescaled_final/1385_rv.mp4	0.0	347.28415727615356	0.10000348091125488
80	331.5245680809021	fix_pre	0		120	78.0	2.5	/experiments/Knapen_AOT/AOT_stimuli/rescaled_final/1951_rv.mp4	0.0	347.3841607570648	1.0084924697875977
80	331.7081370353699	pulse	0	t		78.0	2.5	/experiments/Knapen_AOT/AOT_stimuli/rescaled_final/1951_rv.mp4	0.0	347.5677297115326	
80	332.5330605506897	movie	1		262	78.0	2.5	/experiments/Knapen_AOT/AOT_stimuli/rescaled_final/1951_rv.mp4	0.0	348.3926532268524	2.492013692855835
80	333.3069269657135	pulse	1	t		78.0	2.5	/experiments/Knapen_AOT/AOT_stimuli/rescaled_final/1951_rv.mp4	0.0	349.1665196418762	
80	334.9084105491638	pulse	1	t		78.0	2.5	/experiments/Knapen_AOT/AOT_stimuli/rescaled_final/1951_rv.mp4	0.0	350.76800322532654	
80	335.02507424354553	fix_post	2		12	78.0	2.5	/experiments/Knapen_AOT/AOT_stimuli/rescaled_final/1951_rv.mp4	0.0	350.88466691970825	0.10007190704345703
81	335.125146150589	fix_pre	0		120	79.0	2.5	/experiments/Knapen_AOT/AOT_stimuli/rescaled_final/1786_rv.mp4	0.0	350.9847388267517	1.008479356765747
81	336.13362550735474	movie	1		273	79.0	2.5	/experiments/Knapen_AOT/AOT_stimuli/rescaled_final/1786_rv.mp4	0.0	351.99321818351746	2.4920051097869873
81	336.50764322280884	pulse	1	t		79.0	2.5	/experiments/Knapen_AOT/AOT_stimuli/rescaled_final/1786_rv.mp4	0.0	352.36723589897156	
81	338.10690784454346	pulse	1	t		79.0	2.5	/experiments/Knapen_AOT/AOT_stimuli/rescaled_final/1786_rv.mp4	0.0	353.9665005207062	
81	338.6256306171417	fix_post	2		12	79.0	2.5	/experiments/Knapen_AOT/AOT_stimuli/rescaled_final/1786_rv.mp4	0.0	354.48522329330444	0.10005474090576172
82	338.7256853580475	fix_pre	0		119	80.0	2.5	/experiments/Knapen_AOT/AOT_stimuli/rescaled_final/1815_fw.mp4	0.0	354.5852780342102	1.0001366138458252
82	339.709570646286	pulse	0	t		80.0	2.5	/experiments/Knapen_AOT/AOT_stimuli/rescaled_final/1815_fw.mp4	0.0	355.56916332244873	
82	339.7258219718933	movie	1		263	80.0	2.5	/experiments/Knapen_AOT/AOT_stimuli/rescaled_final/1815_fw.mp4	0.0	355.58541464805603	2.5003576278686523
82	341.3079299926758	pulse	1	t		80.0	2.5	/experiments/Knapen_AOT/AOT_stimuli/rescaled_final/1815_fw.mp4	0.0	357.1675226688385	
82	342.22617959976196	fix_post	2		12	80.0	2.5	/experiments/Knapen_AOT/AOT_stimuli/rescaled_final/1815_fw.mp4	0.0	358.0857722759247	0.10001254081726074
83	342.3261921405792	fix_pre	0		120	81.0	2.5	/experiments/Knapen_AOT/AOT_stimuli/rescaled_final/0285_rv.mp4	0.0	358.18578481674194	1.0084900856018066
83	342.9100573062897	pulse	0	t		81.0	2.5	/experiments/Knapen_AOT/AOT_stimuli/rescaled_final/0285_rv.mp4	0.0	358.7696499824524	
83	343.33468222618103	movie	1		279	81.0	2.5	/experiments/Knapen_AOT/AOT_stimuli/rescaled_final/0285_rv.mp4	0.0	359.19427490234375	2.4920785427093506
83	344.50880312919617	pulse	1	t		81.0	2.5	/experiments/Knapen_AOT/AOT_stimuli/rescaled_final/0285_rv.mp4	0.0	360.3683958053589	
83	345.8267607688904	fix_post	2		12	81.0	2.5	/experiments/Knapen_AOT/AOT_stimuli/rescaled_final/0285_rv.mp4	0.0	361.6863534450531	0.09998106956481934
84	345.9267418384552	fix_pre	0		120	82.0	2.5	/experiments/Knapen_AOT/AOT_stimuli/rescaled_final/0561_fw.mp4	0.0	361.7863345146179	1.0084946155548096
84	346.1028096675873	pulse	0	t		82.0	2.5	/experiments/Knapen_AOT/AOT_stimuli/rescaled_final/0561_fw.mp4	0.0	361.96240234375	
84	346.93523645401	movie	1		281	82.0	2.5	/experiments/Knapen_AOT/AOT_stimuli/rescaled_final/0561_fw.mp4	0.0	362.79482913017273	2.4920265674591064
84	347.70916748046875	pulse	1	t		82.0	2.5	/experiments/Knapen_AOT/AOT_stimuli/rescaled_final/0561_fw.mp4	0.0	363.56876015663147	
84	349.3028333187103	pulse	1	t		82.0	2.5	/experiments/Knapen_AOT/AOT_stimuli/rescaled_final/0561_fw.mp4	0.0	365.16242599487305	
84	349.4272630214691	fix_post	2		12	82.0	2.5	/experiments/Knapen_AOT/AOT_stimuli/rescaled_final/0561_fw.mp4	0.0	365.28685569763184	0.0999755859375
85	349.5272386074066	fix_pre	0		120	83.0	2.5	blank	1.0	365.38683128356934	1.0001704692840576
85	350.5274090766907	movie	1		300	83.0	2.5	blank	1.0	366.3870017528534	2.5003795623779297
85	350.9028127193451	pulse	1	t		83.0	2.5	blank	1.0	366.7624053955078	
85	352.5030210018158	pulse	1	t		83.0	2.5	blank	1.0	368.3626136779785	
85	353.0277886390686	fix_post	2		12	83.0	2.5	blank	1.0	368.8873813152313	0.1250896453857422
87	353.15287828445435	stim	0		1712					369.01247096061707	14.268763780593872
87	354.103232383728	pulse	0	t						369.96282505989075	
87	355.70374274253845	pulse	0	t						371.5633354187012	
87	357.30381441116333	pulse	0	t						373.16340708732605	
87	358.90401816368103	pulse	0	t						374.76361083984375	
87	360.5041916370392	pulse	0	t						376.3637843132019	
87	362.1044008731842	pulse	0	t						377.9639935493469	
87	363.7047929763794	pulse	0	t						379.5643856525421	
87	365.3048629760742	pulse	0	t						381.16445565223694	
87	366.90509271621704	pulse	0	t						382.76468539237976	
