trial_nr	onset	event_type	phase	response	nr_frames	movie_index	movie_duration	movie_file	blank	onset_abs	duration
0	0.15786314010620117	stim	0		11					20.0336811542511	0.09201598167419434
0	0.24201512336730957	response	0	space						20.117833137512207	
1	0.2498791217803955	stim	0		4816					20.125697135925293	40.13315486907959
1	40.372820138931274	pulse	0	t						60.24863815307617	
1	40.383033990859985	stim	1		1717					60.25885200500488	14.308324098587036
1	41.9675350189209	pulse	1	t						61.843353033065796	
1	43.56743812561035	pulse	1	t						63.44325613975525	
1	45.16746211051941	pulse	1	t						65.0432801246643	
1	46.76738500595093	pulse	1	t						66.64320302009583	
1	48.367233991622925	pulse	1	t						68.24305200576782	
1	49.96716618537903	pulse	1	t						69.84298419952393	
1	51.566503047943115	pulse	1	t						71.44232106208801	
1	53.17482113838196	pulse	1	t						73.05063915252686	
2	54.69135808944702	fix_pre	0		11	0.0	2.5	/experiments/AOT/AOT_stimuli/rescaled_final/1479_rv.mp4	0.0	74.56717610359192	0.09164190292358398
2	54.76732397079468	pulse	0	t		0.0	2.5	/experiments/AOT/AOT_stimuli/rescaled_final/1479_rv.mp4	0.0	74.64314198493958	
2	54.782999992370605	movie	1		243	0.0	2.5	/experiments/AOT/AOT_stimuli/rescaled_final/1479_rv.mp4	0.0	74.6588180065155	2.5082781314849854
2	56.374675989151	pulse	1	t		0.0	2.5	/experiments/AOT/AOT_stimuli/rescaled_final/1479_rv.mp4	0.0	76.2504940032959	
2	57.29127812385559	fix_post	2		12	0.0	2.5	/experiments/AOT/AOT_stimuli/rescaled_final/1479_rv.mp4	0.0	77.16709613800049	0.09997892379760742
3	57.3912570476532	fix_pre	0		120	1.0	2.5	/experiments/AOT/AOT_stimuli/rescaled_final/0639_fw.mp4	0.0	77.2670750617981	1.0001370906829834
3	57.967241048812866	pulse	0	t		1.0	2.5	/experiments/AOT/AOT_stimuli/rescaled_final/0639_fw.mp4	0.0	77.84305906295776	
3	58.39139413833618	movie	1		243	1.0	2.5	/experiments/AOT/AOT_stimuli/rescaled_final/0639_fw.mp4	0.0	78.26721215248108	2.499929904937744
3	59.57489514350891	pulse	1	t		1.0	2.5	/experiments/AOT/AOT_stimuli/rescaled_final/0639_fw.mp4	0.0	79.45071315765381	
3	60.891324043273926	fix_post	2		12	1.0	2.5	/experiments/AOT/AOT_stimuli/rescaled_final/0639_fw.mp4	0.0	80.76714205741882	0.09996199607849121
4	60.99128603935242	fix_pre	0		120	2.0	2.5	/experiments/AOT/AOT_stimuli/rescaled_final/0036_rv.mp4	0.0	80.86710405349731	0.9999411106109619
4	61.167283058166504	pulse	0	t		2.0	2.5	/experiments/AOT/AOT_stimuli/rescaled_final/0036_rv.mp4	0.0	81.0431010723114	
4	61.99122714996338	movie	1		243	2.0	2.5	/experiments/AOT/AOT_stimuli/rescaled_final/0036_rv.mp4	0.0	81.86704516410828	2.5000808238983154
4	62.767292976379395	pulse	1	t		2.0	2.5	/experiments/AOT/AOT_stimuli/rescaled_final/0036_rv.mp4	0.0	82.64311099052429	
4	64.37283515930176	pulse	1	t		2.0	2.5	/experiments/AOT/AOT_stimuli/rescaled_final/0036_rv.mp4	0.0	84.24865317344666	
4	64.4913079738617	fix_post	2		12	2.0	2.5	/experiments/AOT/AOT_stimuli/rescaled_final/0036_rv.mp4	0.0	84.36712598800659	0.09996914863586426
5	64.59127712249756	fix_pre	0		120	3.0	2.5	/experiments/AOT/AOT_stimuli/rescaled_final/0497_fw.mp4	0.0	84.46709513664246	0.99993896484375
5	65.59121608734131	movie	1		244	3.0	2.5	/experiments/AOT/AOT_stimuli/rescaled_final/0497_fw.mp4	0.0	85.4670341014862	2.4999520778656006
5	65.9758071899414	pulse	1	t		3.0	2.5	/experiments/AOT/AOT_stimuli/rescaled_final/0497_fw.mp4	0.0	85.8516252040863	
5	67.56740713119507	pulse	1	t		3.0	2.5	/experiments/AOT/AOT_stimuli/rescaled_final/0497_fw.mp4	0.0	87.44322514533997	
5	68.09116816520691	fix_post	2		12	3.0	2.5	/experiments/AOT/AOT_stimuli/rescaled_final/0497_fw.mp4	0.0	87.9669861793518	0.09966182708740234
6	68.19082999229431	fix_pre	0		119	4.0	2.5	/experiments/AOT/AOT_stimuli/rescaled_final/0630_rv.mp4	0.0	88.06664800643921	0.9921600818634033
6	69.17483115196228	pulse	0	t		4.0	2.5	/experiments/AOT/AOT_stimuli/rescaled_final/0630_rv.mp4	0.0	89.05064916610718	
6	69.18299007415771	movie	1		246	4.0	2.5	/experiments/AOT/AOT_stimuli/rescaled_final/0630_rv.mp4	0.0	89.05880808830261	2.507874011993408
6	70.77447819709778	pulse	1	t		4.0	2.5	/experiments/AOT/AOT_stimuli/rescaled_final/0630_rv.mp4	0.0	90.65029621124268	
6	71.69086408615112	fix_post	2		12	4.0	2.5	/experiments/AOT/AOT_stimuli/rescaled_final/0630_rv.mp4	0.0	91.56668210029602	0.10036993026733398
7	71.79123401641846	fix_pre	0		120	5.0	2.5	/experiments/AOT/AOT_stimuli/rescaled_final/0705_rv.mp4	0.0	91.66705203056335	1.0001590251922607
7	72.36729097366333	pulse	0	t		5.0	2.5	/experiments/AOT/AOT_stimuli/rescaled_final/0705_rv.mp4	0.0	92.24310898780823	
7	72.79139304161072	movie	1		245	5.0	2.5	/experiments/AOT/AOT_stimuli/rescaled_final/0705_rv.mp4	0.0	92.66721105575562	2.499835968017578
7	73.97475218772888	pulse	1	t		5.0	2.5	/experiments/AOT/AOT_stimuli/rescaled_final/0705_rv.mp4	0.0	93.85057020187378	
7	75.2912290096283	fix_post	2		12	5.0	2.5	/experiments/AOT/AOT_stimuli/rescaled_final/0705_rv.mp4	0.0	95.1670470237732	0.09966897964477539
8	75.39089798927307	fix_pre	0		120	6.0	2.5	blank	1.0	95.26671600341797	1.000373125076294
8	75.56720614433289	pulse	0	t		6.0	2.5	blank	1.0	95.44302415847778	
8	76.39127111434937	movie	1		300	6.0	2.5	blank	1.0	96.26708912849426	2.49992299079895
8	77.16715908050537	pulse	1	t		6.0	2.5	blank	1.0	97.04297709465027	
8	78.76718306541443	pulse	1	t		6.0	2.5	blank	1.0	98.64300107955933	
8	78.89119410514832	fix_post	2		12	6.0	2.5	blank	1.0	98.76701211929321	0.09999704360961914
9	78.99119114875793	fix_pre	0		120	7.0	2.5	/experiments/AOT/AOT_stimuli/rescaled_final/1937_rv.mp4	0.0	98.86700916290283	0.9999258518218994
9	79.99111700057983	movie	1		246	7.0	2.5	/experiments/AOT/AOT_stimuli/rescaled_final/1937_rv.mp4	0.0	99.86693501472473	2.4996449947357178
9	80.3740451335907	pulse	1	t		7.0	2.5	/experiments/AOT/AOT_stimuli/rescaled_final/1937_rv.mp4	0.0	100.2498631477356	
9	81.96722412109375	pulse	1	t		7.0	2.5	/experiments/AOT/AOT_stimuli/rescaled_final/1937_rv.mp4	0.0	101.84304213523865	
9	82.49076199531555	fix_post	2		12	7.0	2.5	/experiments/AOT/AOT_stimuli/rescaled_final/1937_rv.mp4	0.0	102.36658000946045	0.10039710998535156
10	82.5911591053009	fix_pre	0		119	8.0	2.5	/experiments/AOT/AOT_stimuli/rescaled_final/1441_fw.mp4	0.0	102.4669771194458	0.9916729927062988
10	83.5670850276947	pulse	0	t		8.0	2.5	/experiments/AOT/AOT_stimuli/rescaled_final/1441_fw.mp4	0.0	103.4429030418396	
10	83.5828320980072	movie	1		246	8.0	2.5	/experiments/AOT/AOT_stimuli/rescaled_final/1441_fw.mp4	0.0	103.4586501121521	2.508289098739624
10	85.17470002174377	pulse	1	t		8.0	2.5	/experiments/AOT/AOT_stimuli/rescaled_final/1441_fw.mp4	0.0	105.05051803588867	
10	86.09112119674683	fix_post	2		12	8.0	2.5	/experiments/AOT/AOT_stimuli/rescaled_final/1441_fw.mp4	0.0	105.96693921089172	0.10001587867736816
11	86.1911370754242	fix_pre	0		120	9.0	2.5	/experiments/AOT/AOT_stimuli/rescaled_final/1065_rv.mp4	0.0	106.06695508956909	1.0000019073486328
11	86.7747311592102	pulse	0	t		9.0	2.5	/experiments/AOT/AOT_stimuli/rescaled_final/1065_rv.mp4	0.0	106.6505491733551	
11	87.19113898277283	movie	1		244	9.0	2.5	/experiments/AOT/AOT_stimuli/rescaled_final/1065_rv.mp4	0.0	107.06695699691772	2.499981164932251
11	88.37472319602966	pulse	1	t		9.0	2.5	/experiments/AOT/AOT_stimuli/rescaled_final/1065_rv.mp4	0.0	108.25054121017456	
11	89.69112014770508	fix_post	2		12	9.0	2.5	/experiments/AOT/AOT_stimuli/rescaled_final/1065_rv.mp4	0.0	109.56693816184998	0.09962797164916992
12	89.79074811935425	fix_pre	0		120	10.0	2.5	/experiments/AOT/AOT_stimuli/rescaled_final/0325_fw.mp4	0.0	109.66656613349915	1.0003559589385986
12	89.9746789932251	pulse	0	t		10.0	2.5	/experiments/AOT/AOT_stimuli/rescaled_final/0325_fw.mp4	0.0	109.85049700737	
12	90.79110407829285	movie	1		243	10.0	2.5	/experiments/AOT/AOT_stimuli/rescaled_final/0325_fw.mp4	0.0	110.66692209243774	2.4999680519104004
12	91.5671501159668	pulse	1	t		10.0	2.5	/experiments/AOT/AOT_stimuli/rescaled_final/0325_fw.mp4	0.0	111.4429681301117	
12	93.17304110527039	pulse	1	t		10.0	2.5	/experiments/AOT/AOT_stimuli/rescaled_final/0325_fw.mp4	0.0	113.04885911941528	
12	93.29107213020325	fix_post	2		12	10.0	2.5	/experiments/AOT/AOT_stimuli/rescaled_final/0325_fw.mp4	0.0	113.16689014434814	0.09968996047973633
13	93.39076209068298	fix_pre	0		120	11.0	2.5	/experiments/AOT/AOT_stimuli/rescaled_final/1065_rv.mp4	0.0	113.26658010482788	1.0003280639648438
13	94.39109015464783	movie	1		244	11.0	2.5	/experiments/AOT/AOT_stimuli/rescaled_final/1065_rv.mp4	0.0	114.26690816879272	2.499976873397827
13	94.77420496940613	pulse	1	t		11.0	2.5	/experiments/AOT/AOT_stimuli/rescaled_final/1065_rv.mp4	0.0	114.65002298355103	
13	96.36728405952454	pulse	1	t		11.0	2.5	/experiments/AOT/AOT_stimuli/rescaled_final/1065_rv.mp4	0.0	116.24310207366943	
13	96.89106702804565	fix_post	2		12	11.0	2.5	/experiments/AOT/AOT_stimuli/rescaled_final/1065_rv.mp4	0.0	116.76688504219055	0.10020995140075684
14	96.99127697944641	fix_pre	0		119	12.0	2.5	blank	1.0	116.86709499359131	0.9914290904998779
14	97.9670341014862	pulse	0	t		12.0	2.5	blank	1.0	117.8428521156311	
14	97.98270606994629	movie	1		301	12.0	2.5	blank	1.0	117.85852408409119	2.5079479217529297
14	99.56708312034607	pulse	1	t		12.0	2.5	blank	1.0	119.44290113449097	
14	100.49065399169922	fix_post	2		12	12.0	2.5	blank	1.0	120.36647200584412	0.10048103332519531
15	100.59113502502441	fix_pre	0		120	13.0	2.5	/experiments/AOT/AOT_stimuli/rescaled_final/0156_rv.mp4	0.0	120.46695303916931	0.9999990463256836
15	101.17463707923889	pulse	0	t		13.0	2.5	/experiments/AOT/AOT_stimuli/rescaled_final/0156_rv.mp4	0.0	121.05045509338379	
15	101.5911340713501	movie	1		243	13.0	2.5	/experiments/AOT/AOT_stimuli/rescaled_final/0156_rv.mp4	0.0	121.466952085495	2.5000059604644775
15	102.77457904815674	pulse	1	t		13.0	2.5	/experiments/AOT/AOT_stimuli/rescaled_final/0156_rv.mp4	0.0	122.65039706230164	
15	104.09114003181458	fix_post	2		12	13.0	2.5	/experiments/AOT/AOT_stimuli/rescaled_final/0156_rv.mp4	0.0	123.96695804595947	0.0998680591583252
16	104.1910080909729	fix_pre	0		120	14.0	2.5	/experiments/AOT/AOT_stimuli/rescaled_final/0089_fw.mp4	0.0	124.0668261051178	0.999626874923706
16	104.37458610534668	pulse	0	t		14.0	2.5	/experiments/AOT/AOT_stimuli/rescaled_final/0089_fw.mp4	0.0	124.25040411949158	
16	105.1906349658966	movie	1		246	14.0	2.5	/experiments/AOT/AOT_stimuli/rescaled_final/0089_fw.mp4	0.0	125.0664529800415	2.500430107116699
16	105.97450113296509	pulse	1	t		14.0	2.5	/experiments/AOT/AOT_stimuli/rescaled_final/0089_fw.mp4	0.0	125.85031914710999	
16	107.57409119606018	pulse	1	t		14.0	2.5	/experiments/AOT/AOT_stimuli/rescaled_final/0089_fw.mp4	0.0	127.44990921020508	
16	107.6910650730133	fix_post	2		12	14.0	2.5	/experiments/AOT/AOT_stimuli/rescaled_final/0089_fw.mp4	0.0	127.5668830871582	0.10001111030578613
17	107.79107618331909	fix_pre	0		120	15.0	2.5	/experiments/AOT/AOT_stimuli/rescaled_final/0360_fw.mp4	0.0	127.66689419746399	0.9999358654022217
17	108.79101204872131	movie	1		245	15.0	2.5	/experiments/AOT/AOT_stimuli/rescaled_final/0360_fw.mp4	0.0	128.6668300628662	2.4995920658111572
17	109.17393016815186	pulse	1	t		15.0	2.5	/experiments/AOT/AOT_stimuli/rescaled_final/0360_fw.mp4	0.0	129.04974818229675	
17	110.7671799659729	pulse	1	t		15.0	2.5	/experiments/AOT/AOT_stimuli/rescaled_final/0360_fw.mp4	0.0	130.6429979801178	
17	111.29060411453247	fix_post	2		12	15.0	2.5	/experiments/AOT/AOT_stimuli/rescaled_final/0360_fw.mp4	0.0	131.16642212867737	0.10041308403015137
18	111.39101719856262	fix_pre	0		119	16.0	2.5	/experiments/AOT/AOT_stimuli/rescaled_final/0776_rv.mp4	0.0	131.26683521270752	0.9916958808898926
18	112.36698317527771	pulse	0	t		16.0	2.5	/experiments/AOT/AOT_stimuli/rescaled_final/0776_rv.mp4	0.0	132.2428011894226	
18	112.38271307945251	movie	1		246	16.0	2.5	/experiments/AOT/AOT_stimuli/rescaled_final/0776_rv.mp4	0.0	132.2585310935974	2.507878065109253
18	113.97402811050415	pulse	1	t		16.0	2.5	/experiments/AOT/AOT_stimuli/rescaled_final/0776_rv.mp4	0.0	133.84984612464905	
18	114.89059114456177	fix_post	2		12	16.0	2.5	/experiments/AOT/AOT_stimuli/rescaled_final/0776_rv.mp4	0.0	134.76640915870667	0.10043692588806152
19	114.99102807044983	fix_pre	0		120	17.0	2.5	/experiments/AOT/AOT_stimuli/rescaled_final/0809_rv.mp4	0.0	134.86684608459473	1.0000081062316895
19	115.56699514389038	pulse	0	t		17.0	2.5	/experiments/AOT/AOT_stimuli/rescaled_final/0809_rv.mp4	0.0	135.44281315803528	
19	115.99103617668152	movie	1		244	17.0	2.5	/experiments/AOT/AOT_stimuli/rescaled_final/0809_rv.mp4	0.0	135.86685419082642	2.4999070167541504
19	117.17459797859192	pulse	1	t		17.0	2.5	/experiments/AOT/AOT_stimuli/rescaled_final/0809_rv.mp4	0.0	137.05041599273682	
19	118.49094319343567	fix_post	2		12	17.0	2.5	/experiments/AOT/AOT_stimuli/rescaled_final/0809_rv.mp4	0.0	138.36676120758057	0.09969282150268555
20	118.59063601493835	fix_pre	0		120	18.0	2.5	/experiments/AOT/AOT_stimuli/rescaled_final/1160_rv.mp4	0.0	138.46645402908325	1.0004141330718994
20	118.77451801300049	pulse	0	t		18.0	2.5	/experiments/AOT/AOT_stimuli/rescaled_final/1160_rv.mp4	0.0	138.65033602714539	
20	119.59105014801025	movie	1		244	18.0	2.5	/experiments/AOT/AOT_stimuli/rescaled_final/1160_rv.mp4	0.0	139.46686816215515	2.500098943710327
20	120.37448716163635	pulse	1	t		18.0	2.5	/experiments/AOT/AOT_stimuli/rescaled_final/1160_rv.mp4	0.0	140.25030517578125	
20	121.97321510314941	pulse	1	t		18.0	2.5	/experiments/AOT/AOT_stimuli/rescaled_final/1160_rv.mp4	0.0	141.8490331172943	
20	122.09114909172058	fix_post	2		12	18.0	2.5	/experiments/AOT/AOT_stimuli/rescaled_final/1160_rv.mp4	0.0	141.96696710586548	0.09983301162719727
21	122.19098210334778	fix_pre	0		120	19.0	2.5	blank	1.0	142.06680011749268	0.9995760917663574
21	123.19055819511414	movie	1		300	19.0	2.5	blank	1.0	143.06637620925903	2.500466823577881
21	123.5744960308075	pulse	1	t		19.0	2.5	blank	1.0	143.4503140449524	
21	125.16693496704102	pulse	1	t		19.0	2.5	blank	1.0	145.0427529811859	
21	125.69102501869202	fix_post	2		12	19.0	2.5	blank	1.0	145.5668430328369	0.09998798370361328
22	125.79101300239563	fix_pre	0		119	20.0	2.5	/experiments/AOT/AOT_stimuli/rescaled_final/0695_rv.mp4	0.0	145.66683101654053	0.9912459850311279
22	126.7741551399231	pulse	0	t		20.0	2.5	/experiments/AOT/AOT_stimuli/rescaled_final/0695_rv.mp4	0.0	146.649973154068	
22	126.78225898742676	movie	1		245	20.0	2.5	/experiments/AOT/AOT_stimuli/rescaled_final/0695_rv.mp4	0.0	146.65807700157166	2.5085861682891846
22	128.37419199943542	pulse	1	t		20.0	2.5	/experiments/AOT/AOT_stimuli/rescaled_final/0695_rv.mp4	0.0	148.25001001358032	
22	129.29084515571594	fix_post	2		12	20.0	2.5	/experiments/AOT/AOT_stimuli/rescaled_final/0695_rv.mp4	0.0	149.16666316986084	0.10036587715148926
23	129.39121103286743	fix_pre	0		120	21.0	2.5	/experiments/AOT/AOT_stimuli/rescaled_final/0682_fw.mp4	0.0	149.26702904701233	0.999845027923584
23	129.96685099601746	pulse	0	t		21.0	2.5	/experiments/AOT/AOT_stimuli/rescaled_final/0682_fw.mp4	0.0	149.84266901016235	
23	130.39105606079102	movie	1		245	21.0	2.5	/experiments/AOT/AOT_stimuli/rescaled_final/0682_fw.mp4	0.0	150.2668740749359	2.4998939037323
23	131.5744969844818	pulse	1	t		21.0	2.5	/experiments/AOT/AOT_stimuli/rescaled_final/0682_fw.mp4	0.0	151.4503149986267	
23	132.89094996452332	fix_post	2		12	21.0	2.5	/experiments/AOT/AOT_stimuli/rescaled_final/0682_fw.mp4	0.0	152.7667679786682	0.09954714775085449
24	132.99049711227417	fix_pre	0		120	22.0	2.5	/experiments/AOT/AOT_stimuli/rescaled_final/2011_rv.mp4	0.0	152.86631512641907	1.0004770755767822
24	133.1744430065155	pulse	0	t		22.0	2.5	/experiments/AOT/AOT_stimuli/rescaled_final/2011_rv.mp4	0.0	153.0502610206604	
24	133.99097418785095	movie	1		249	22.0	2.5	/experiments/AOT/AOT_stimuli/rescaled_final/2011_rv.mp4	0.0	153.86679220199585	2.4999618530273438
24	134.7745189666748	pulse	1	t		22.0	2.5	/experiments/AOT/AOT_stimuli/rescaled_final/2011_rv.mp4	0.0	154.6503369808197	
24	136.37398719787598	pulse	1	t		22.0	2.5	/experiments/AOT/AOT_stimuli/rescaled_final/2011_rv.mp4	0.0	156.24980521202087	
24	136.4909360408783	fix_post	2		12	22.0	2.5	/experiments/AOT/AOT_stimuli/rescaled_final/2011_rv.mp4	0.0	156.3667540550232	0.09997415542602539
25	136.59091019630432	fix_pre	0		120	23.0	2.5	/experiments/AOT/AOT_stimuli/rescaled_final/0312_fw.mp4	0.0	156.46672821044922	0.9999539852142334
25	137.59086418151855	movie	1		246	23.0	2.5	/experiments/AOT/AOT_stimuli/rescaled_final/0312_fw.mp4	0.0	157.46668219566345	2.4995789527893066
25	137.9740390777588	pulse	1	t		23.0	2.5	/experiments/AOT/AOT_stimuli/rescaled_final/0312_fw.mp4	0.0	157.8498570919037	
25	139.57445406913757	pulse	1	t		23.0	2.5	/experiments/AOT/AOT_stimuli/rescaled_final/0312_fw.mp4	0.0	159.45027208328247	
25	140.09044313430786	fix_post	2		12	23.0	2.5	/experiments/AOT/AOT_stimuli/rescaled_final/0312_fw.mp4	0.0	159.96626114845276	0.10045194625854492
26	140.1908950805664	fix_pre	0		119	24.0	2.5	/experiments/AOT/AOT_stimuli/rescaled_final/0751_rv.mp4	0.0	160.0667130947113	0.991671085357666
26	141.17436909675598	pulse	0	t		24.0	2.5	/experiments/AOT/AOT_stimuli/rescaled_final/0751_rv.mp4	0.0	161.05018711090088	
26	141.18256616592407	movie	1		249	24.0	2.5	/experiments/AOT/AOT_stimuli/rescaled_final/0751_rv.mp4	0.0	161.05838418006897	2.5082650184631348
26	142.7738320827484	pulse	1	t		24.0	2.5	/experiments/AOT/AOT_stimuli/rescaled_final/0751_rv.mp4	0.0	162.6496500968933	
26	143.6908311843872	fix_post	2		12	24.0	2.5	/experiments/AOT/AOT_stimuli/rescaled_final/0751_rv.mp4	0.0	163.5666491985321	0.1000828742980957
27	143.7909140586853	fix_pre	0		120	25.0	2.5	/experiments/AOT/AOT_stimuli/rescaled_final/0754_rv.mp4	0.0	163.6667320728302	0.9995501041412354
27	144.37442016601562	pulse	0	t		25.0	2.5	/experiments/AOT/AOT_stimuli/rescaled_final/0754_rv.mp4	0.0	164.25023818016052	
27	144.79046416282654	movie	1		245	25.0	2.5	/experiments/AOT/AOT_stimuli/rescaled_final/0754_rv.mp4	0.0	164.66628217697144	2.500349998474121
27	145.97441911697388	pulse	1	t		25.0	2.5	/experiments/AOT/AOT_stimuli/rescaled_final/0754_rv.mp4	0.0	165.85023713111877	
27	147.29081416130066	fix_post	2		12	25.0	2.5	/experiments/AOT/AOT_stimuli/rescaled_final/0754_rv.mp4	0.0	167.16663217544556	0.10002493858337402
28	147.39083909988403	fix_pre	0		120	26.0	2.5	/experiments/AOT/AOT_stimuli/rescaled_final/1010_fw.mp4	0.0	167.26665711402893	0.999561071395874
28	147.5669550895691	pulse	0	t		26.0	2.5	/experiments/AOT/AOT_stimuli/rescaled_final/1010_fw.mp4	0.0	167.442773103714	
28	148.3904001712799	movie	1		244	26.0	2.5	/experiments/AOT/AOT_stimuli/rescaled_final/1010_fw.mp4	0.0	168.2662181854248	2.5003368854522705
28	149.17434310913086	pulse	1	t		26.0	2.5	/experiments/AOT/AOT_stimuli/rescaled_final/1010_fw.mp4	0.0	169.05016112327576	
28	150.77289605140686	pulse	1	t		26.0	2.5	/experiments/AOT/AOT_stimuli/rescaled_final/1010_fw.mp4	0.0	170.64871406555176	
28	150.89073705673218	fix_post	2		12	26.0	2.5	/experiments/AOT/AOT_stimuli/rescaled_final/1010_fw.mp4	0.0	170.76655507087708	0.10009098052978516
29	150.99082803726196	fix_pre	0		120	27.0	2.5	/experiments/AOT/AOT_stimuli/rescaled_final/1635_fw.mp4	0.0	170.86664605140686	0.9995989799499512
29	151.9904270172119	movie	1		244	27.0	2.5	/experiments/AOT/AOT_stimuli/rescaled_final/1635_fw.mp4	0.0	171.8662450313568	2.4999990463256836
29	152.3741011619568	pulse	1	t		27.0	2.5	/experiments/AOT/AOT_stimuli/rescaled_final/1635_fw.mp4	0.0	172.24991917610168	
29	153.97432899475098	pulse	1	t		27.0	2.5	/experiments/AOT/AOT_stimuli/rescaled_final/1635_fw.mp4	0.0	173.85014700889587	
29	154.4904260635376	fix_post	2		12	27.0	2.5	/experiments/AOT/AOT_stimuli/rescaled_final/1635_fw.mp4	0.0	174.3662440776825	0.10038399696350098
30	154.5908100605011	fix_pre	0		119	28.0	2.5	blank	1.0	174.466628074646	0.9916689395904541
30	155.57427716255188	pulse	0	t		28.0	2.5	blank	1.0	175.45009517669678	
30	155.58247900009155	movie	1		301	28.0	2.5	blank	1.0	175.45829701423645	2.5082201957702637
30	157.17437410354614	pulse	1	t		28.0	2.5	blank	1.0	177.05019211769104	
30	158.09069919586182	fix_post	2		12	28.0	2.5	blank	1.0	177.9665172100067	0.10010480880737305
31	158.1908040046692	fix_pre	0		120	29.0	2.5	/experiments/AOT/AOT_stimuli/rescaled_final/1604_fw.mp4	0.0	178.0666220188141	0.9999120235443115
31	158.7743170261383	pulse	0	t		29.0	2.5	/experiments/AOT/AOT_stimuli/rescaled_final/1604_fw.mp4	0.0	178.6501350402832	
31	159.1907160282135	movie	1		245	29.0	2.5	/experiments/AOT/AOT_stimuli/rescaled_final/1604_fw.mp4	0.0	179.0665340423584	2.5000829696655273
31	160.37449312210083	pulse	1	t		29.0	2.5	/experiments/AOT/AOT_stimuli/rescaled_final/1604_fw.mp4	0.0	180.25031113624573	
31	161.69079899787903	fix_post	2		12	29.0	2.5	/experiments/AOT/AOT_stimuli/rescaled_final/1604_fw.mp4	0.0	181.56661701202393	0.10000920295715332
32	161.79080820083618	fix_pre	0		120	30.0	2.5	/experiments/AOT/AOT_stimuli/rescaled_final/1457_fw.mp4	0.0	181.66662621498108	0.9999139308929443
32	161.97426009178162	pulse	0	t		30.0	2.5	/experiments/AOT/AOT_stimuli/rescaled_final/1457_fw.mp4	0.0	181.8500781059265	
32	162.79072213172913	movie	1		244	30.0	2.5	/experiments/AOT/AOT_stimuli/rescaled_final/1457_fw.mp4	0.0	182.66654014587402	2.500041961669922
32	163.5668339729309	pulse	1	t		30.0	2.5	/experiments/AOT/AOT_stimuli/rescaled_final/1457_fw.mp4	0.0	183.4426519870758	
32	165.1731081008911	pulse	1	t		30.0	2.5	/experiments/AOT/AOT_stimuli/rescaled_final/1457_fw.mp4	0.0	185.048926115036	
32	165.29076409339905	fix_post	2		12	30.0	2.5	/experiments/AOT/AOT_stimuli/rescaled_final/1457_fw.mp4	0.0	185.16658210754395	0.09997797012329102
33	165.39074206352234	fix_pre	0		120	31.0	2.5	/experiments/AOT/AOT_stimuli/rescaled_final/1263_rv.mp4	0.0	185.26656007766724	0.9996590614318848
33	166.39040112495422	movie	1		244	31.0	2.5	/experiments/AOT/AOT_stimuli/rescaled_final/1263_rv.mp4	0.0	186.26621913909912	2.4999208450317383
33	166.77379202842712	pulse	1	t		31.0	2.5	/experiments/AOT/AOT_stimuli/rescaled_final/1263_rv.mp4	0.0	186.64961004257202	
33	168.37422704696655	pulse	1	t		31.0	2.5	/experiments/AOT/AOT_stimuli/rescaled_final/1263_rv.mp4	0.0	188.25004506111145	
33	168.89032196998596	fix_post	2		12	31.0	2.5	/experiments/AOT/AOT_stimuli/rescaled_final/1263_rv.mp4	0.0	188.76613998413086	0.10007405281066895
34	168.99039602279663	fix_pre	0		119	32.0	2.5	/experiments/AOT/AOT_stimuli/rescaled_final/0878_fw.mp4	0.0	188.86621403694153	0.9921369552612305
34	169.97426009178162	pulse	0	t		32.0	2.5	/experiments/AOT/AOT_stimuli/rescaled_final/0878_fw.mp4	0.0	189.8500781059265	
34	169.98253297805786	movie	1		245	32.0	2.5	/experiments/AOT/AOT_stimuli/rescaled_final/0878_fw.mp4	0.0	189.85835099220276	2.508258104324341
34	171.5738070011139	pulse	1	t		32.0	2.5	/experiments/AOT/AOT_stimuli/rescaled_final/0878_fw.mp4	0.0	191.4496250152588	
34	172.4907910823822	fix_post	2		12	32.0	2.5	/experiments/AOT/AOT_stimuli/rescaled_final/0878_fw.mp4	0.0	192.3666090965271	0.09997010231018066
35	172.59076118469238	fix_pre	0		120	33.0	2.5	blank	1.0	192.46657919883728	0.9999179840087891
35	173.1741759777069	pulse	0	t		33.0	2.5	blank	1.0	193.0499939918518	
35	173.59067916870117	movie	1		300	33.0	2.5	blank	1.0	193.46649718284607	2.5001108646392822
35	174.77427911758423	pulse	1	t		33.0	2.5	blank	1.0	194.65009713172913	
35	176.09079003334045	fix_post	2		12	33.0	2.5	blank	1.0	195.96660804748535	0.09991693496704102
36	176.1907069683075	fix_pre	0		120	34.0	2.5	/experiments/AOT/AOT_stimuli/rescaled_final/2165_rv.mp4	0.0	196.0665249824524	1.0000550746917725
36	176.3742640018463	pulse	0	t		34.0	2.5	/experiments/AOT/AOT_stimuli/rescaled_final/2165_rv.mp4	0.0	196.2500820159912	
36	177.19076204299927	movie	1		243	34.0	2.5	/experiments/AOT/AOT_stimuli/rescaled_final/2165_rv.mp4	0.0	197.06658005714417	2.4995150566101074
36	177.97440910339355	pulse	1	t		34.0	2.5	/experiments/AOT/AOT_stimuli/rescaled_final/2165_rv.mp4	0.0	197.85022711753845	
36	179.57245206832886	pulse	1	t		34.0	2.5	/experiments/AOT/AOT_stimuli/rescaled_final/2165_rv.mp4	0.0	199.44827008247375	
36	179.69027709960938	fix_post	2		12	34.0	2.5	/experiments/AOT/AOT_stimuli/rescaled_final/2165_rv.mp4	0.0	199.56609511375427	0.1004340648651123
37	179.7907111644745	fix_pre	0		120	35.0	2.5	/experiments/AOT/AOT_stimuli/rescaled_final/1014_fw.mp4	0.0	199.66652917861938	1.0000109672546387
37	180.79072213172913	movie	1		245	35.0	2.5	/experiments/AOT/AOT_stimuli/rescaled_final/1014_fw.mp4	0.0	200.66654014587402	2.4996988773345947
37	181.17367696762085	pulse	1	t		35.0	2.5	/experiments/AOT/AOT_stimuli/rescaled_final/1014_fw.mp4	0.0	201.04949498176575	
37	182.77368712425232	pulse	1	t		35.0	2.5	/experiments/AOT/AOT_stimuli/rescaled_final/1014_fw.mp4	0.0	202.64950513839722	
37	183.29042100906372	fix_post	2		12	35.0	2.5	/experiments/AOT/AOT_stimuli/rescaled_final/1014_fw.mp4	0.0	203.16623902320862	0.0998830795288086
38	183.39030408859253	fix_pre	0		119	36.0	2.5	/experiments/AOT/AOT_stimuli/rescaled_final/0630_fw.mp4	0.0	203.26612210273743	0.9918100833892822
38	184.37393403053284	pulse	0	t		36.0	2.5	/experiments/AOT/AOT_stimuli/rescaled_final/0630_fw.mp4	0.0	204.24975204467773	
38	184.3821141719818	movie	1		246	36.0	2.5	/experiments/AOT/AOT_stimuli/rescaled_final/0630_fw.mp4	0.0	204.2579321861267	2.5085978507995605
38	185.97375011444092	pulse	1	t		36.0	2.5	/experiments/AOT/AOT_stimuli/rescaled_final/0630_fw.mp4	0.0	205.84956812858582	
38	186.89071202278137	fix_post	2		12	36.0	2.5	/experiments/AOT/AOT_stimuli/rescaled_final/0630_fw.mp4	0.0	206.76653003692627	0.09952998161315918
39	186.99024200439453	fix_pre	0		120	37.0	2.5	/experiments/AOT/AOT_stimuli/rescaled_final/1937_fw.mp4	0.0	206.86606001853943	1.000460147857666
39	187.5741491317749	pulse	0	t		37.0	2.5	/experiments/AOT/AOT_stimuli/rescaled_final/1937_fw.mp4	0.0	207.4499671459198	
39	187.9907021522522	movie	1		244	37.0	2.5	/experiments/AOT/AOT_stimuli/rescaled_final/1937_fw.mp4	0.0	207.8665201663971	2.5001449584960938
39	189.17412304878235	pulse	1	t		37.0	2.5	/experiments/AOT/AOT_stimuli/rescaled_final/1937_fw.mp4	0.0	209.04994106292725	
39	190.4908471107483	fix_post	2		12	37.0	2.5	/experiments/AOT/AOT_stimuli/rescaled_final/1937_fw.mp4	0.0	210.3666651248932	0.09975504875183105
40	190.59060215950012	fix_pre	0		120	38.0	2.5	/experiments/AOT/AOT_stimuli/rescaled_final/1850_rv.mp4	0.0	210.46642017364502	0.9999339580535889
40	190.77407717704773	pulse	0	t		38.0	2.5	/experiments/AOT/AOT_stimuli/rescaled_final/1850_rv.mp4	0.0	210.64989519119263	
40	191.5905361175537	movie	1		244	38.0	2.5	/experiments/AOT/AOT_stimuli/rescaled_final/1850_rv.mp4	0.0	211.4663541316986	2.5000789165496826
40	192.374165058136	pulse	1	t		38.0	2.5	/experiments/AOT/AOT_stimuli/rescaled_final/1850_rv.mp4	0.0	212.24998307228088	
40	193.97231602668762	pulse	1	t		38.0	2.5	/experiments/AOT/AOT_stimuli/rescaled_final/1850_rv.mp4	0.0	213.84813404083252	
40	194.0906150341034	fix_post	2		12	38.0	2.5	/experiments/AOT/AOT_stimuli/rescaled_final/1850_rv.mp4	0.0	213.9664330482483	0.09999895095825195
41	194.19061398506165	fix_pre	0		120	39.0	2.5	/experiments/AOT/AOT_stimuli/rescaled_final/2027_fw.mp4	0.0	214.06643199920654	0.9999270439147949
41	195.19054102897644	movie	1		242	39.0	2.5	/experiments/AOT/AOT_stimuli/rescaled_final/2027_fw.mp4	0.0	215.06635904312134	2.5000720024108887
41	195.57377409934998	pulse	1	t		39.0	2.5	/experiments/AOT/AOT_stimuli/rescaled_final/2027_fw.mp4	0.0	215.44959211349487	
41	197.1740801334381	pulse	1	t		39.0	2.5	/experiments/AOT/AOT_stimuli/rescaled_final/2027_fw.mp4	0.0	217.049898147583	
41	197.69061303138733	fix_post	2		12	39.0	2.5	/experiments/AOT/AOT_stimuli/rescaled_final/2027_fw.mp4	0.0	217.56643104553223	0.09997010231018066
42	197.7905831336975	fix_pre	0		119	40.0	2.5	blank	1.0	217.6664011478424	0.9917469024658203
42	198.7741060256958	pulse	0	t		40.0	2.5	blank	1.0	218.6499240398407	
42	198.78233003616333	movie	1		301	40.0	2.5	blank	1.0	218.65814805030823	2.50823712348938
42	200.3741180896759	pulse	1	t		40.0	2.5	blank	1.0	220.2499361038208	
42	201.2905671596527	fix_post	2		12	40.0	2.5	blank	1.0	221.1663851737976	0.0999898910522461
43	201.39055705070496	fix_pre	0		120	41.0	2.5	/experiments/AOT/AOT_stimuli/rescaled_final/0495_fw.mp4	0.0	221.26637506484985	0.9996509552001953
43	201.97412204742432	pulse	0	t		41.0	2.5	/experiments/AOT/AOT_stimuli/rescaled_final/0495_fw.mp4	0.0	221.8499400615692	
43	202.39020800590515	movie	1		245	41.0	2.5	/experiments/AOT/AOT_stimuli/rescaled_final/0495_fw.mp4	0.0	222.26602602005005	2.5003609657287598
43	203.57410097122192	pulse	1	t		41.0	2.5	/experiments/AOT/AOT_stimuli/rescaled_final/0495_fw.mp4	0.0	223.44991898536682	
43	204.8905689716339	fix_post	2		12	41.0	2.5	/experiments/AOT/AOT_stimuli/rescaled_final/0495_fw.mp4	0.0	224.7663869857788	0.10000014305114746
44	204.99056911468506	fix_pre	0		120	42.0	2.5	/experiments/AOT/AOT_stimuli/rescaled_final/1405_fw.mp4	0.0	224.86638712882996	1.000053882598877
44	205.17416501045227	pulse	0	t		42.0	2.5	/experiments/AOT/AOT_stimuli/rescaled_final/1405_fw.mp4	0.0	225.04998302459717	
44	205.99062299728394	movie	1		245	42.0	2.5	/experiments/AOT/AOT_stimuli/rescaled_final/1405_fw.mp4	0.0	225.86644101142883	2.4999001026153564
44	206.77393198013306	pulse	1	t		42.0	2.5	/experiments/AOT/AOT_stimuli/rescaled_final/1405_fw.mp4	0.0	226.64974999427795	
44	208.37278604507446	pulse	1	t		42.0	2.5	/experiments/AOT/AOT_stimuli/rescaled_final/1405_fw.mp4	0.0	228.24860405921936	
44	208.4905230998993	fix_post	2		12	42.0	2.5	/experiments/AOT/AOT_stimuli/rescaled_final/1405_fw.mp4	0.0	228.3663411140442	0.0999898910522461
45	208.59051299095154	fix_pre	0		120	43.0	2.5	/experiments/AOT/AOT_stimuli/rescaled_final/0290_rv.mp4	0.0	228.46633100509644	1.0000100135803223
45	209.59052300453186	movie	1		244	43.0	2.5	/experiments/AOT/AOT_stimuli/rescaled_final/0290_rv.mp4	0.0	229.46634101867676	2.499588966369629
45	209.9737570285797	pulse	1	t		43.0	2.5	/experiments/AOT/AOT_stimuli/rescaled_final/0290_rv.mp4	0.0	229.8495750427246	
45	211.5739619731903	pulse	1	t		43.0	2.5	/experiments/AOT/AOT_stimuli/rescaled_final/0290_rv.mp4	0.0	231.4497799873352	
45	212.0901119709015	fix_post	2		12	43.0	2.5	/experiments/AOT/AOT_stimuli/rescaled_final/0290_rv.mp4	0.0	231.9659299850464	0.10032105445861816
46	212.1904330253601	fix_pre	0		119	44.0	2.5	/experiments/AOT/AOT_stimuli/rescaled_final/2129_fw.mp4	0.0	232.066251039505	0.9917399883270264
46	213.17402601242065	pulse	0	t		44.0	2.5	/experiments/AOT/AOT_stimuli/rescaled_final/2129_fw.mp4	0.0	233.04984402656555	
46	213.18217301368713	movie	1		245	44.0	2.5	/experiments/AOT/AOT_stimuli/rescaled_final/2129_fw.mp4	0.0	233.05799102783203	2.5083730220794678
46	214.7740020751953	pulse	1	t		44.0	2.5	/experiments/AOT/AOT_stimuli/rescaled_final/2129_fw.mp4	0.0	234.6498200893402	
46	215.6905460357666	fix_post	2		12	44.0	2.5	/experiments/AOT/AOT_stimuli/rescaled_final/2129_fw.mp4	0.0	235.5663640499115	0.09987115859985352
47	215.79041719436646	fix_pre	0		120	45.0	2.5	/experiments/AOT/AOT_stimuli/rescaled_final/1318_rv.mp4	0.0	235.66623520851135	1.000281810760498
47	216.37405109405518	pulse	0	t		45.0	2.5	/experiments/AOT/AOT_stimuli/rescaled_final/1318_rv.mp4	0.0	236.24986910820007	
47	216.79069900512695	movie	1		243	45.0	2.5	/experiments/AOT/AOT_stimuli/rescaled_final/1318_rv.mp4	0.0	236.66651701927185	2.4997739791870117
47	217.97409415245056	pulse	1	t		45.0	2.5	/experiments/AOT/AOT_stimuli/rescaled_final/1318_rv.mp4	0.0	237.84991216659546	
47	219.29047298431396	fix_post	2		12	45.0	2.5	/experiments/AOT/AOT_stimuli/rescaled_final/1318_rv.mp4	0.0	239.16629099845886	0.10002303123474121
48	219.3904960155487	fix_pre	0		120	46.0	2.5	/experiments/AOT/AOT_stimuli/rescaled_final/1846_rv.mp4	0.0	239.2663140296936	1.0000581741333008
48	219.57408213615417	pulse	0	t		46.0	2.5	/experiments/AOT/AOT_stimuli/rescaled_final/1846_rv.mp4	0.0	239.44990015029907	
48	220.390554189682	movie	1		243	46.0	2.5	/experiments/AOT/AOT_stimuli/rescaled_final/1846_rv.mp4	0.0	240.2663722038269	2.4994678497314453
48	221.17403316497803	pulse	1	t		46.0	2.5	/experiments/AOT/AOT_stimuli/rescaled_final/1846_rv.mp4	0.0	241.04985117912292	
48	222.77252912521362	pulse	1	t		46.0	2.5	/experiments/AOT/AOT_stimuli/rescaled_final/1846_rv.mp4	0.0	242.64834713935852	
48	222.89002203941345	fix_post	2		12	46.0	2.5	/experiments/AOT/AOT_stimuli/rescaled_final/1846_rv.mp4	0.0	242.76584005355835	0.10041999816894531
49	222.9904420375824	fix_pre	0		120	47.0	2.5	/experiments/AOT/AOT_stimuli/rescaled_final/0603_fw.mp4	0.0	242.8662600517273	0.999596118927002
49	223.9900381565094	movie	1		245	47.0	2.5	/experiments/AOT/AOT_stimuli/rescaled_final/0603_fw.mp4	0.0	243.8658561706543	2.4999969005584717
49	224.37343096733093	pulse	1	t		47.0	2.5	/experiments/AOT/AOT_stimuli/rescaled_final/0603_fw.mp4	0.0	244.24924898147583	
49	225.97401404380798	pulse	1	t		47.0	2.5	/experiments/AOT/AOT_stimuli/rescaled_final/0603_fw.mp4	0.0	245.84983205795288	
49	226.49003505706787	fix_post	2		12	47.0	2.5	/experiments/AOT/AOT_stimuli/rescaled_final/0603_fw.mp4	0.0	246.36585307121277	0.10000395774841309
50	226.59003901481628	fix_pre	0		119	48.0	2.5	/experiments/AOT/AOT_stimuli/rescaled_final/1339_fw.mp4	0.0	246.46585702896118	0.9921281337738037
50	227.57396817207336	pulse	0	t		48.0	2.5	/experiments/AOT/AOT_stimuli/rescaled_final/1339_fw.mp4	0.0	247.44978618621826	
50	227.5821671485901	movie	1		245	48.0	2.5	/experiments/AOT/AOT_stimuli/rescaled_final/1339_fw.mp4	0.0	247.45798516273499	2.508316993713379
50	229.1735761165619	pulse	1	t		48.0	2.5	/experiments/AOT/AOT_stimuli/rescaled_final/1339_fw.mp4	0.0	249.0493941307068	
50	230.09048414230347	fix_post	2		12	48.0	2.5	/experiments/AOT/AOT_stimuli/rescaled_final/1339_fw.mp4	0.0	249.96630215644836	0.09993100166320801
51	230.19041514396667	fix_pre	0		120	49.0	2.5	blank	1.0	250.06623315811157	1.000105857849121
51	230.77385997772217	pulse	0	t		49.0	2.5	blank	1.0	250.64967799186707	
51	231.1905210018158	movie	1		300	49.0	2.5	blank	1.0	251.0663390159607	2.4998881816864014
51	232.37395405769348	pulse	1	t		49.0	2.5	blank	1.0	252.24977207183838	
51	233.6904091835022	fix_post	2		12	49.0	2.5	blank	1.0	253.5662271976471	0.09998297691345215
52	233.79039216041565	fix_pre	0		120	50.0	2.5	/experiments/AOT/AOT_stimuli/rescaled_final/0537_fw.mp4	0.0	253.66621017456055	0.9997119903564453
52	233.97392416000366	pulse	0	t		50.0	2.5	/experiments/AOT/AOT_stimuli/rescaled_final/0537_fw.mp4	0.0	253.84974217414856	
52	234.7901041507721	movie	1		245	50.0	2.5	/experiments/AOT/AOT_stimuli/rescaled_final/0537_fw.mp4	0.0	254.665922164917	2.500349998474121
52	235.574068069458	pulse	1	t		50.0	2.5	/experiments/AOT/AOT_stimuli/rescaled_final/0537_fw.mp4	0.0	255.4498860836029	
52	237.17251801490784	pulse	1	t		50.0	2.5	/experiments/AOT/AOT_stimuli/rescaled_final/0537_fw.mp4	0.0	257.04833602905273	
52	237.29045414924622	fix_post	2		12	50.0	2.5	/experiments/AOT/AOT_stimuli/rescaled_final/0537_fw.mp4	0.0	257.1662721633911	0.09996390342712402
53	237.39041805267334	fix_pre	0		120	51.0	2.5	/experiments/AOT/AOT_stimuli/rescaled_final/0662_fw.mp4	0.0	257.26623606681824	0.9995419979095459
53	238.38996005058289	movie	1		243	51.0	2.5	/experiments/AOT/AOT_stimuli/rescaled_final/0662_fw.mp4	0.0	258.2657780647278	2.5006890296936035
53	238.77286219596863	pulse	1	t		51.0	2.5	/experiments/AOT/AOT_stimuli/rescaled_final/0662_fw.mp4	0.0	258.6486802101135	
53	240.3740530014038	pulse	1	t		51.0	2.5	/experiments/AOT/AOT_stimuli/rescaled_final/0662_fw.mp4	0.0	260.2498710155487	
53	240.8906490802765	fix_post	2		12	51.0	2.5	/experiments/AOT/AOT_stimuli/rescaled_final/0662_fw.mp4	0.0	260.7664670944214	0.10000801086425781
54	240.99065709114075	fix_pre	0		119	52.0	2.5	/experiments/AOT/AOT_stimuli/rescaled_final/0964_fw.mp4	0.0	260.86647510528564	0.9914560317993164
54	241.97393608093262	pulse	0	t		52.0	2.5	/experiments/AOT/AOT_stimuli/rescaled_final/0964_fw.mp4	0.0	261.8497540950775	
54	241.98211312294006	movie	1		244	52.0	2.5	/experiments/AOT/AOT_stimuli/rescaled_final/0964_fw.mp4	0.0	261.85793113708496	2.5079140663146973
54	243.57316398620605	pulse	1	t		52.0	2.5	/experiments/AOT/AOT_stimuli/rescaled_final/0964_fw.mp4	0.0	263.44898200035095	
54	244.49002718925476	fix_post	2		12	52.0	2.5	/experiments/AOT/AOT_stimuli/rescaled_final/0964_fw.mp4	0.0	264.36584520339966	0.10038995742797852
55	244.59041714668274	fix_pre	0		120	53.0	2.5	/experiments/AOT/AOT_stimuli/rescaled_final/1691_fw.mp4	0.0	264.46623516082764	0.9998788833618164
55	245.17384505271912	pulse	0	t		53.0	2.5	/experiments/AOT/AOT_stimuli/rescaled_final/1691_fw.mp4	0.0	265.049663066864	
55	245.59029603004456	movie	1		245	53.0	2.5	/experiments/AOT/AOT_stimuli/rescaled_final/1691_fw.mp4	0.0	265.46611404418945	2.4996609687805176
55	246.77387714385986	pulse	1	t		53.0	2.5	/experiments/AOT/AOT_stimuli/rescaled_final/1691_fw.mp4	0.0	266.64969515800476	
55	248.08995699882507	fix_post	2		12	53.0	2.5	/experiments/AOT/AOT_stimuli/rescaled_final/1691_fw.mp4	0.0	267.96577501296997	0.10038113594055176
56	248.19033813476562	fix_pre	0		120	54.0	2.5	/experiments/AOT/AOT_stimuli/rescaled_final/0831_fw.mp4	0.0	268.0661561489105	1.0000548362731934
56	248.37392902374268	pulse	0	t		54.0	2.5	/experiments/AOT/AOT_stimuli/rescaled_final/0831_fw.mp4	0.0	268.2497470378876	
56	249.19039297103882	movie	1		244	54.0	2.5	/experiments/AOT/AOT_stimuli/rescaled_final/0831_fw.mp4	0.0	269.0662109851837	2.499523162841797
56	249.97381114959717	pulse	1	t		54.0	2.5	/experiments/AOT/AOT_stimuli/rescaled_final/0831_fw.mp4	0.0	269.84962916374207	
56	251.57215309143066	pulse	1	t		54.0	2.5	/experiments/AOT/AOT_stimuli/rescaled_final/0831_fw.mp4	0.0	271.44797110557556	
56	251.68991613388062	fix_post	2		12	54.0	2.5	/experiments/AOT/AOT_stimuli/rescaled_final/0831_fw.mp4	0.0	271.5657341480255	0.10010099411010742
57	251.79001712799072	fix_pre	0		120	55.0	2.5	/experiments/AOT/AOT_stimuli/rescaled_final/1889_fw.mp4	0.0	271.6658351421356	1.0004549026489258
57	252.79047203063965	movie	1		246	55.0	2.5	/experiments/AOT/AOT_stimuli/rescaled_final/1889_fw.mp4	0.0	272.66629004478455	2.49983811378479
57	253.1749951839447	pulse	1	t		55.0	2.5	/experiments/AOT/AOT_stimuli/rescaled_final/1889_fw.mp4	0.0	273.0508131980896	
57	254.77378511428833	pulse	1	t		55.0	2.5	/experiments/AOT/AOT_stimuli/rescaled_final/1889_fw.mp4	0.0	274.6496031284332	
57	255.29031014442444	fix_post	2		12	55.0	2.5	/experiments/AOT/AOT_stimuli/rescaled_final/1889_fw.mp4	0.0	275.16612815856934	0.0999000072479248
58	255.39021015167236	fix_pre	0		119	56.0	2.5	blank	1.0	275.26602816581726	0.9917528629302979
58	256.37379598617554	pulse	0	t		56.0	2.5	blank	1.0	276.24961400032043	
58	256.38196301460266	movie	1		301	56.0	2.5	blank	1.0	276.25778102874756	2.5083839893341064
58	257.97385001182556	pulse	1	t		56.0	2.5	blank	1.0	277.84966802597046	
58	258.89034700393677	fix_post	2		12	56.0	2.5	blank	1.0	278.76616501808167	0.09995412826538086
59	258.99030113220215	fix_pre	0		120	57.0	2.5	/experiments/AOT/AOT_stimuli/rescaled_final/0878_rv.mp4	0.0	278.86611914634705	1.0000879764556885
59	259.57382106781006	pulse	0	t		57.0	2.5	/experiments/AOT/AOT_stimuli/rescaled_final/0878_rv.mp4	0.0	279.44963908195496	
59	259.99038910865784	movie	1		244	57.0	2.5	/experiments/AOT/AOT_stimuli/rescaled_final/0878_rv.mp4	0.0	279.86620712280273	2.4994449615478516
59	261.1738631725311	pulse	1	t		57.0	2.5	/experiments/AOT/AOT_stimuli/rescaled_final/0878_rv.mp4	0.0	281.049681186676	
59	262.4898340702057	fix_post	2		12	57.0	2.5	/experiments/AOT/AOT_stimuli/rescaled_final/0878_rv.mp4	0.0	282.3656520843506	0.0999460220336914
60	262.5897800922394	fix_pre	0		120	58.0	2.5	/experiments/AOT/AOT_stimuli/rescaled_final/1927_fw.mp4	0.0	282.4655981063843	1.0004758834838867
60	262.77375316619873	pulse	0	t		58.0	2.5	/experiments/AOT/AOT_stimuli/rescaled_final/1927_fw.mp4	0.0	282.6495711803436	
60	263.59025597572327	movie	1		244	58.0	2.5	/experiments/AOT/AOT_stimuli/rescaled_final/1927_fw.mp4	0.0	283.46607398986816	2.4999542236328125
60	264.3737950325012	pulse	1	t		58.0	2.5	/experiments/AOT/AOT_stimuli/rescaled_final/1927_fw.mp4	0.0	284.2496130466461	
60	265.97234296798706	pulse	1	t		58.0	2.5	/experiments/AOT/AOT_stimuli/rescaled_final/1927_fw.mp4	0.0	285.84816098213196	
60	266.0902101993561	fix_post	2		12	58.0	2.5	/experiments/AOT/AOT_stimuli/rescaled_final/1927_fw.mp4	0.0	285.966028213501	0.10007095336914062
61	266.1902811527252	fix_pre	0		120	59.0	2.5	/experiments/AOT/AOT_stimuli/rescaled_final/1173_rv.mp4	0.0	286.0660991668701	1.000035047531128
61	267.19031620025635	movie	1		244	59.0	2.5	/experiments/AOT/AOT_stimuli/rescaled_final/1173_rv.mp4	0.0	287.06613421440125	2.4999048709869385
61	267.57354712486267	pulse	1	t		59.0	2.5	/experiments/AOT/AOT_stimuli/rescaled_final/1173_rv.mp4	0.0	287.44936513900757	
61	269.1737530231476	pulse	1	t		59.0	2.5	/experiments/AOT/AOT_stimuli/rescaled_final/1173_rv.mp4	0.0	289.0495710372925	
61	269.6902210712433	fix_post	2		12	59.0	2.5	/experiments/AOT/AOT_stimuli/rescaled_final/1173_rv.mp4	0.0	289.5660390853882	0.10006904602050781
62	269.7902901172638	fix_pre	0		119	60.0	2.5	/experiments/AOT/AOT_stimuli/rescaled_final/0471_rv.mp4	0.0	289.6661081314087	0.9916789531707764
62	270.77364110946655	pulse	0	t		60.0	2.5	/experiments/AOT/AOT_stimuli/rescaled_final/0471_rv.mp4	0.0	290.64945912361145	
62	270.78196907043457	movie	1		247	60.0	2.5	/experiments/AOT/AOT_stimuli/rescaled_final/0471_rv.mp4	0.0	290.65778708457947	2.508310079574585
62	272.3732900619507	pulse	1	t		60.0	2.5	/experiments/AOT/AOT_stimuli/rescaled_final/0471_rv.mp4	0.0	292.2491080760956	
62	273.29027915000916	fix_post	2		12	60.0	2.5	/experiments/AOT/AOT_stimuli/rescaled_final/0471_rv.mp4	0.0	293.16609716415405	0.09992003440856934
63	273.3901991844177	fix_pre	0		120	61.0	2.5	blank	1.0	293.2660171985626	1.0000698566436768
63	273.9737620353699	pulse	0	t		61.0	2.5	blank	1.0	293.84958004951477	
63	274.3902690410614	movie	1		300	61.0	2.5	blank	1.0	294.2660870552063	2.499650001525879
63	275.57373213768005	pulse	1	t		61.0	2.5	blank	1.0	295.44955015182495	
63	276.8899190425873	fix_post	2		12	61.0	2.5	blank	1.0	296.7657370567322	0.10027313232421875
64	276.9901921749115	fix_pre	0		120	62.0	2.5	/experiments/AOT/AOT_stimuli/rescaled_final/0278_rv.mp4	0.0	296.8660101890564	0.9996089935302734
64	277.17378997802734	pulse	0	t		62.0	2.5	/experiments/AOT/AOT_stimuli/rescaled_final/0278_rv.mp4	0.0	297.04960799217224	
64	277.9898011684418	movie	1		246	62.0	2.5	/experiments/AOT/AOT_stimuli/rescaled_final/0278_rv.mp4	0.0	297.86561918258667	2.5003437995910645
64	278.77376317977905	pulse	1	t		62.0	2.5	/experiments/AOT/AOT_stimuli/rescaled_final/0278_rv.mp4	0.0	298.64958119392395	
64	280.3697040081024	pulse	1	t		62.0	2.5	/experiments/AOT/AOT_stimuli/rescaled_final/0278_rv.mp4	0.0	300.2455220222473	
64	280.49014496803284	fix_post	2		12	62.0	2.5	/experiments/AOT/AOT_stimuli/rescaled_final/0278_rv.mp4	0.0	300.36596298217773	0.09996604919433594
65	280.5901110172272	fix_pre	0		120	63.0	2.5	/experiments/AOT/AOT_stimuli/rescaled_final/1537_fw.mp4	0.0	300.46592903137207	0.9997260570526123
65	281.5898370742798	movie	1		243	63.0	2.5	/experiments/AOT/AOT_stimuli/rescaled_final/1537_fw.mp4	0.0	301.4656550884247	2.4999520778656006
65	281.97371315956116	pulse	1	t		63.0	2.5	/experiments/AOT/AOT_stimuli/rescaled_final/1537_fw.mp4	0.0	301.84953117370605	
65	283.5736382007599	pulse	1	t		63.0	2.5	/experiments/AOT/AOT_stimuli/rescaled_final/1537_fw.mp4	0.0	303.4494562149048	
65	284.0897891521454	fix_post	2		12	63.0	2.5	/experiments/AOT/AOT_stimuli/rescaled_final/1537_fw.mp4	0.0	303.9656071662903	0.10039091110229492
66	284.1901800632477	fix_pre	0		119	64.0	2.5	/experiments/AOT/AOT_stimuli/rescaled_final/1065_fw.mp4	0.0	304.0659980773926	0.9916889667510986
66	285.1737470626831	pulse	0	t		64.0	2.5	/experiments/AOT/AOT_stimuli/rescaled_final/1065_fw.mp4	0.0	305.049565076828	
66	285.1818690299988	movie	1		245	64.0	2.5	/experiments/AOT/AOT_stimuli/rescaled_final/1065_fw.mp4	0.0	305.0576870441437	2.5078980922698975
66	286.77331709861755	pulse	1	t		64.0	2.5	/experiments/AOT/AOT_stimuli/rescaled_final/1065_fw.mp4	0.0	306.64913511276245	
66	287.6897671222687	fix_post	2		12	64.0	2.5	/experiments/AOT/AOT_stimuli/rescaled_final/1065_fw.mp4	0.0	307.5655851364136	0.10011887550354004
67	287.7898859977722	fix_pre	0		120	65.0	2.5	/experiments/AOT/AOT_stimuli/rescaled_final/1893_fw.mp4	0.0	307.6657040119171	1.000236988067627
67	288.3736181259155	pulse	0	t		65.0	2.5	/experiments/AOT/AOT_stimuli/rescaled_final/1893_fw.mp4	0.0	308.2494361400604	
67	288.79012298583984	movie	1		244	65.0	2.5	/experiments/AOT/AOT_stimuli/rescaled_final/1893_fw.mp4	0.0	308.66594099998474	2.499572992324829
67	289.9737331867218	pulse	1	t		65.0	2.5	/experiments/AOT/AOT_stimuli/rescaled_final/1893_fw.mp4	0.0	309.8495512008667	
67	291.2896959781647	fix_post	2		12	65.0	2.5	/experiments/AOT/AOT_stimuli/rescaled_final/1893_fw.mp4	0.0	311.16551399230957	0.10054206848144531
68	291.3902380466461	fix_pre	0		120	66.0	2.5	/experiments/AOT/AOT_stimuli/rescaled_final/0360_rv.mp4	0.0	311.266056060791	0.9999239444732666
68	291.5737590789795	pulse	0	t		66.0	2.5	/experiments/AOT/AOT_stimuli/rescaled_final/0360_rv.mp4	0.0	311.4495770931244	
68	292.3901619911194	movie	1		247	66.0	2.5	/experiments/AOT/AOT_stimuli/rescaled_final/0360_rv.mp4	0.0	312.2659800052643	2.4996261596679688
68	293.1735770702362	pulse	1	t		66.0	2.5	/experiments/AOT/AOT_stimuli/rescaled_final/0360_rv.mp4	0.0	313.0493950843811	
68	294.7715940475464	pulse	1	t		66.0	2.5	/experiments/AOT/AOT_stimuli/rescaled_final/0360_rv.mp4	0.0	314.6474120616913	
68	294.88978815078735	fix_post	2		12	66.0	2.5	/experiments/AOT/AOT_stimuli/rescaled_final/0360_rv.mp4	0.0	314.76560616493225	0.10046100616455078
69	294.9902491569519	fix_pre	0		120	67.0	2.5	/experiments/AOT/AOT_stimuli/rescaled_final/0383_fw.mp4	0.0	314.8660671710968	1.0000348091125488
69	295.99028396606445	movie	1		245	67.0	2.5	/experiments/AOT/AOT_stimuli/rescaled_final/0383_fw.mp4	0.0	315.86610198020935	2.4998512268066406
69	296.3727641105652	pulse	1	t		67.0	2.5	/experiments/AOT/AOT_stimuli/rescaled_final/0383_fw.mp4	0.0	316.2485821247101	
69	297.97354316711426	pulse	1	t		67.0	2.5	/experiments/AOT/AOT_stimuli/rescaled_final/0383_fw.mp4	0.0	317.84936118125916	
69	298.4901351928711	fix_post	2		12	67.0	2.5	/experiments/AOT/AOT_stimuli/rescaled_final/0383_fw.mp4	0.0	318.365953207016	0.10004782676696777
70	298.59018301963806	fix_pre	0		119	68.0	2.5	blank	1.0	318.46600103378296	0.9916269779205322
70	299.5737261772156	pulse	0	t		68.0	2.5	blank	1.0	319.4495441913605	
70	299.5818099975586	movie	1		301	68.0	2.5	blank	1.0	319.4576280117035	2.5078840255737305
70	301.17366909980774	pulse	1	t		68.0	2.5	blank	1.0	321.04948711395264	
70	302.0896940231323	fix_post	2		12	68.0	2.5	blank	1.0	321.9655120372772	0.10037612915039062
71	302.1900701522827	fix_pre	0		120	69.0	2.5	/experiments/AOT/AOT_stimuli/rescaled_final/0463_fw.mp4	0.0	322.0658881664276	1.0000038146972656
71	302.7735171318054	pulse	0	t		69.0	2.5	/experiments/AOT/AOT_stimuli/rescaled_final/0463_fw.mp4	0.0	322.6493351459503	
71	303.19007396698	movie	1		243	69.0	2.5	/experiments/AOT/AOT_stimuli/rescaled_final/0463_fw.mp4	0.0	323.0658919811249	2.500035047531128
71	304.373633146286	pulse	1	t		69.0	2.5	/experiments/AOT/AOT_stimuli/rescaled_final/0463_fw.mp4	0.0	324.2494511604309	
71	305.6901090145111	fix_post	2		12	69.0	2.5	/experiments/AOT/AOT_stimuli/rescaled_final/0463_fw.mp4	0.0	325.565927028656	0.09995698928833008
72	305.79006600379944	fix_pre	0		120	70.0	2.5	/experiments/AOT/AOT_stimuli/rescaled_final/1525_rv.mp4	0.0	325.66588401794434	0.9996039867401123
72	305.9736421108246	pulse	0	t		70.0	2.5	/experiments/AOT/AOT_stimuli/rescaled_final/1525_rv.mp4	0.0	325.8494601249695	
72	306.78966999053955	movie	1		244	70.0	2.5	/experiments/AOT/AOT_stimuli/rescaled_final/1525_rv.mp4	0.0	326.66548800468445	2.4999561309814453
72	307.5735011100769	pulse	1	t		70.0	2.5	/experiments/AOT/AOT_stimuli/rescaled_final/1525_rv.mp4	0.0	327.4493191242218	
72	309.17312502861023	pulse	1	t		70.0	2.5	/experiments/AOT/AOT_stimuli/rescaled_final/1525_rv.mp4	0.0	329.0489430427551	
72	309.289626121521	fix_post	2		12	70.0	2.5	/experiments/AOT/AOT_stimuli/rescaled_final/1525_rv.mp4	0.0	329.1654441356659	0.10047197341918945
73	309.3900980949402	fix_pre	0		120	71.0	2.5	/experiments/AOT/AOT_stimuli/rescaled_final/1266_rv.mp4	0.0	329.2659161090851	1.000014066696167
73	310.39011216163635	movie	1		248	71.0	2.5	/experiments/AOT/AOT_stimuli/rescaled_final/1266_rv.mp4	0.0	330.26593017578125	2.499508857727051
73	310.77333903312683	pulse	1	t		71.0	2.5	/experiments/AOT/AOT_stimuli/rescaled_final/1266_rv.mp4	0.0	330.64915704727173	
73	312.3735320568085	pulse	1	t		71.0	2.5	/experiments/AOT/AOT_stimuli/rescaled_final/1266_rv.mp4	0.0	332.24935007095337	
73	312.8896210193634	fix_post	2		12	71.0	2.5	/experiments/AOT/AOT_stimuli/rescaled_final/1266_rv.mp4	0.0	332.7654390335083	0.10000109672546387
74	312.98962211608887	fix_pre	0		119	72.0	2.5	/experiments/AOT/AOT_stimuli/rescaled_final/1831_rv.mp4	0.0	332.86544013023376	0.9920458793640137
74	313.9735600948334	pulse	0	t		72.0	2.5	/experiments/AOT/AOT_stimuli/rescaled_final/1831_rv.mp4	0.0	333.84937810897827	
74	313.9816679954529	movie	1		246	72.0	2.5	/experiments/AOT/AOT_stimuli/rescaled_final/1831_rv.mp4	0.0	333.8574860095978	2.507935047149658
74	315.57334303855896	pulse	1	t		72.0	2.5	/experiments/AOT/AOT_stimuli/rescaled_final/1831_rv.mp4	0.0	335.44916105270386	
74	316.48960304260254	fix_post	2		12	72.0	2.5	/experiments/AOT/AOT_stimuli/rescaled_final/1831_rv.mp4	0.0	336.36542105674744	0.10001611709594727
75	316.5896191596985	fix_pre	0		120	73.0	2.5	/experiments/AOT/AOT_stimuli/rescaled_final/2169_rv.mp4	0.0	336.4654371738434	0.9999330043792725
75	317.173632144928	pulse	0	t		73.0	2.5	/experiments/AOT/AOT_stimuli/rescaled_final/2169_rv.mp4	0.0	337.0494501590729	
75	317.58955216407776	movie	1		244	73.0	2.5	/experiments/AOT/AOT_stimuli/rescaled_final/2169_rv.mp4	0.0	337.46537017822266	2.500393867492676
75	318.7735869884491	pulse	1	t		73.0	2.5	/experiments/AOT/AOT_stimuli/rescaled_final/2169_rv.mp4	0.0	338.649405002594	
75	320.08994603157043	fix_post	2		12	73.0	2.5	/experiments/AOT/AOT_stimuli/rescaled_final/2169_rv.mp4	0.0	339.96576404571533	0.10000014305114746
76	320.1899461746216	fix_pre	0		120	74.0	2.5	/experiments/AOT/AOT_stimuli/rescaled_final/0426_rv.mp4	0.0	340.0657641887665	0.9996538162231445
76	320.37352299690247	pulse	0	t		74.0	2.5	/experiments/AOT/AOT_stimuli/rescaled_final/0426_rv.mp4	0.0	340.24934101104736	
76	321.1895999908447	movie	1		247	74.0	2.5	/experiments/AOT/AOT_stimuli/rescaled_final/0426_rv.mp4	0.0	341.0654180049896	2.5004711151123047
76	321.97351598739624	pulse	1	t		74.0	2.5	/experiments/AOT/AOT_stimuli/rescaled_final/0426_rv.mp4	0.0	341.84933400154114	
76	323.5694930553436	pulse	1	t		74.0	2.5	/experiments/AOT/AOT_stimuli/rescaled_final/0426_rv.mp4	0.0	343.4453110694885	
76	323.69007110595703	fix_post	2		12	74.0	2.5	/experiments/AOT/AOT_stimuli/rescaled_final/0426_rv.mp4	0.0	343.56588912010193	0.09949994087219238
77	323.7895710468292	fix_pre	0		120	75.0	2.5	/experiments/AOT/AOT_stimuli/rescaled_final/1604_fw.mp4	0.0	343.6653890609741	1.000535011291504
77	324.7901060581207	movie	1		243	75.0	2.5	/experiments/AOT/AOT_stimuli/rescaled_final/1604_fw.mp4	0.0	344.6659240722656	2.499903917312622
77	325.1727931499481	pulse	1	t		75.0	2.5	/experiments/AOT/AOT_stimuli/rescaled_final/1604_fw.mp4	0.0	345.048611164093	
77	326.7734889984131	pulse	1	t		75.0	2.5	/experiments/AOT/AOT_stimuli/rescaled_final/1604_fw.mp4	0.0	346.649307012558	
77	327.29000997543335	fix_post	2		12	75.0	2.5	/experiments/AOT/AOT_stimuli/rescaled_final/1604_fw.mp4	0.0	347.16582798957825	0.09997320175170898
78	327.38998317718506	fix_pre	0		119	76.0	2.5	blank	1.0	347.26580119132996	0.9916279315948486
78	328.3735010623932	pulse	0	t		76.0	2.5	blank	1.0	348.2493190765381	
78	328.3816111087799	movie	1		301	76.0	2.5	blank	1.0	348.2574291229248	2.508043050765991
78	329.9734790325165	pulse	1	t		76.0	2.5	blank	1.0	349.8492970466614	
78	330.8896541595459	fix_post	2		12	76.0	2.5	blank	1.0	350.7654721736908	0.1003119945526123
79	330.9899661540985	fix_pre	0		120	77.0	2.5	/experiments/AOT/AOT_stimuli/rescaled_final/0274_fw.mp4	0.0	350.8657841682434	0.9999549388885498
79	331.57348012924194	pulse	0	t		77.0	2.5	/experiments/AOT/AOT_stimuli/rescaled_final/0274_fw.mp4	0.0	351.44929814338684	
79	331.98992109298706	movie	1		245	77.0	2.5	/experiments/AOT/AOT_stimuli/rescaled_final/0274_fw.mp4	0.0	351.86573910713196	2.499964952468872
79	333.1735870838165	pulse	1	t		77.0	2.5	/experiments/AOT/AOT_stimuli/rescaled_final/0274_fw.mp4	0.0	353.0494050979614	
79	334.48988604545593	fix_post	2		12	77.0	2.5	/experiments/AOT/AOT_stimuli/rescaled_final/0274_fw.mp4	0.0	354.36570405960083	0.09965109825134277
80	334.5895371437073	fix_pre	0		120	78.0	2.5	/experiments/AOT/AOT_stimuli/rescaled_final/1297_fw.mp4	0.0	354.4653551578522	1.0004539489746094
80	334.7734739780426	pulse	0	t		78.0	2.5	/experiments/AOT/AOT_stimuli/rescaled_final/1297_fw.mp4	0.0	354.6492919921875	
80	335.5899910926819	movie	1		243	78.0	2.5	/experiments/AOT/AOT_stimuli/rescaled_final/1297_fw.mp4	0.0	355.4658091068268	2.4995648860931396
80	336.3735179901123	pulse	1	t		78.0	2.5	/experiments/AOT/AOT_stimuli/rescaled_final/1297_fw.mp4	0.0	356.2493360042572	
80	337.97190403938293	pulse	1	t		78.0	2.5	/experiments/AOT/AOT_stimuli/rescaled_final/1297_fw.mp4	0.0	357.84772205352783	
80	338.089555978775	fix_post	2		12	78.0	2.5	/experiments/AOT/AOT_stimuli/rescaled_final/1297_fw.mp4	0.0	357.9653739929199	0.10035514831542969
81	338.18991112709045	fix_pre	0		120	79.0	2.5	/experiments/AOT/AOT_stimuli/rescaled_final/0268_rv.mp4	0.0	358.06572914123535	1.0000488758087158
81	339.18996000289917	movie	1		244	79.0	2.5	/experiments/AOT/AOT_stimuli/rescaled_final/0268_rv.mp4	0.0	359.06577801704407	2.499476194381714
81	339.57322907447815	pulse	1	t		79.0	2.5	/experiments/AOT/AOT_stimuli/rescaled_final/0268_rv.mp4	0.0	359.44904708862305	
81	341.17345213890076	pulse	1	t		79.0	2.5	/experiments/AOT/AOT_stimuli/rescaled_final/0268_rv.mp4	0.0	361.04927015304565	
81	341.6894361972809	fix_post	2		12	79.0	2.5	/experiments/AOT/AOT_stimuli/rescaled_final/0268_rv.mp4	0.0	361.5652542114258	0.10048985481262207
82	341.7899260520935	fix_pre	0		119	80.0	2.5	/experiments/AOT/AOT_stimuli/rescaled_final/0278_rv.mp4	0.0	361.6657440662384	0.9917209148406982
82	342.77349615097046	pulse	0	t		80.0	2.5	/experiments/AOT/AOT_stimuli/rescaled_final/0278_rv.mp4	0.0	362.64931416511536	
82	342.7816469669342	movie	1		247	80.0	2.5	/experiments/AOT/AOT_stimuli/rescaled_final/0278_rv.mp4	0.0	362.6574649810791	2.508268117904663
82	344.37271213531494	pulse	1	t		80.0	2.5	/experiments/AOT/AOT_stimuli/rescaled_final/0278_rv.mp4	0.0	364.24853014945984	
82	345.28991508483887	fix_post	2		12	80.0	2.5	/experiments/AOT/AOT_stimuli/rescaled_final/0278_rv.mp4	0.0	365.16573309898376	0.09997105598449707
83	345.38988614082336	fix_pre	0		120	81.0	2.5	/experiments/AOT/AOT_stimuli/rescaled_final/1144_rv.mp4	0.0	365.26570415496826	0.9999690055847168
83	345.97344303131104	pulse	0	t		81.0	2.5	/experiments/AOT/AOT_stimuli/rescaled_final/1144_rv.mp4	0.0	365.84926104545593	
83	346.3898551464081	movie	1		242	81.0	2.5	/experiments/AOT/AOT_stimuli/rescaled_final/1144_rv.mp4	0.0	366.265673160553	2.4999608993530273
83	347.57354402542114	pulse	1	t		81.0	2.5	/experiments/AOT/AOT_stimuli/rescaled_final/1144_rv.mp4	0.0	367.44936203956604	
83	348.8898160457611	fix_post	2		12	81.0	2.5	/experiments/AOT/AOT_stimuli/rescaled_final/1144_rv.mp4	0.0	368.765634059906	0.09965801239013672
84	348.98947405815125	fix_pre	0		120	82.0	2.5	/experiments/AOT/AOT_stimuli/rescaled_final/0268_fw.mp4	0.0	368.86529207229614	1.0000369548797607
84	349.1733720302582	pulse	0	t		82.0	2.5	/experiments/AOT/AOT_stimuli/rescaled_final/0268_fw.mp4	0.0	369.0491900444031	
84	349.989511013031	movie	1		244	82.0	2.5	/experiments/AOT/AOT_stimuli/rescaled_final/0268_fw.mp4	0.0	369.8653290271759	2.5006561279296875
84	350.77285504341125	pulse	1	t		82.0	2.5	/experiments/AOT/AOT_stimuli/rescaled_final/0268_fw.mp4	0.0	370.64867305755615	
84	352.37205600738525	pulse	1	t		82.0	2.5	/experiments/AOT/AOT_stimuli/rescaled_final/0268_fw.mp4	0.0	372.24787402153015	
84	352.4901671409607	fix_post	2		12	82.0	2.5	/experiments/AOT/AOT_stimuli/rescaled_final/0268_fw.mp4	0.0	372.3659851551056	0.09996390342712402
85	352.5901310443878	fix_pre	0		120	83.0	2.5	blank	1.0	372.4659490585327	0.9997401237487793
85	353.5898711681366	movie	1		300	83.0	2.5	blank	1.0	373.4656891822815	2.4999539852142334
85	353.9734010696411	pulse	1	t		83.0	2.5	blank	1.0	373.849219083786	
85	355.57322216033936	pulse	1	t		83.0	2.5	blank	1.0	375.44904017448425	
85	356.08982515335083	fix_post	2		12	83.0	2.5	blank	1.0	375.9656431674957	0.0996248722076416
87	356.1894500255585	stim	0		1716					376.06526803970337	14.30036211013794
87	357.1732940673828	pulse	0	t						377.0491120815277	
87	358.773246049881	pulse	0	t						378.6490640640259	
87	360.3731920719147	pulse	0	t						380.24901008605957	
87	361.973268032074	pulse	0	t						381.8490860462189	
87	363.5732719898224	pulse	0	t						383.4490900039673	
87	365.17319917678833	pulse	0	t						385.0490171909332	
87	366.77322006225586	pulse	0	t						386.64903807640076	
87	368.3732330799103	pulse	0	t						388.2490510940552	
87	369.9732301235199	pulse	0	t						389.8490481376648	
