trial_nr	onset	event_type	phase	response	nr_frames	movie_index	movie_duration	movie_file	blank	onset_abs	duration
0	0.18316006660461426	stim	0		12					42.881747245788574	0.09993600845336914
0	0.279008150100708	response	0	space						42.97759532928467	
1	0.2830960750579834	stim	0		4940					42.98168325424194	41.18333697319031
1	41.45716404914856	pulse	0	t						84.15575122833252	
1	41.46643304824829	stim	1		1714					84.16502022743225	14.299990892410278
1	43.03964614868164	pulse	1	t						85.7382333278656	
1	44.6399929523468	pulse	1	t						87.33858013153076	
1	46.24008893966675	pulse	1	t						88.93867611885071	
1	47.84041714668274	pulse	1	t						90.5390043258667	
1	49.440659046173096	pulse	1	t						92.13924622535706	
1	51.040815114974976	pulse	1	t						93.73940229415894	
1	52.64108109474182	pulse	1	t						95.33966827392578	
1	54.24132513999939	pulse	1	t						96.93991231918335	
2	55.76642394065857	fix_pre	0		10	0.0	2.5	/experiments/knapen_AOT/AOT_stimuli/rescaled_final/0467_fw.mp4	0.0	98.46501111984253	0.08341097831726074
2	55.84167408943176	pulse	0	t		0.0	2.5	/experiments/knapen_AOT/AOT_stimuli/rescaled_final/0467_fw.mp4	0.0	98.54026126861572	
2	55.84983491897583	movie	1		243	0.0	2.5	/experiments/knapen_AOT/AOT_stimuli/rescaled_final/0467_fw.mp4	0.0	98.54842209815979	2.5086781978607178
2	57.44649910926819	pulse	1	t		0.0	2.5	/experiments/knapen_AOT/AOT_stimuli/rescaled_final/0467_fw.mp4	0.0	100.14508628845215	
2	58.35851311683655	fix_post	2		12	0.0	2.5	/experiments/knapen_AOT/AOT_stimuli/rescaled_final/0467_fw.mp4	0.0	101.05710029602051	0.10000181198120117
3	58.45851492881775	fix_pre	0		120	1.0	2.5	/experiments/knapen_AOT/AOT_stimuli/rescaled_final/2040_fw.mp4	0.0	101.15710210800171	1.0001180171966553
3	59.04206705093384	pulse	0	t		1.0	2.5	/experiments/knapen_AOT/AOT_stimuli/rescaled_final/2040_fw.mp4	0.0	101.7406542301178	
3	59.458632946014404	movie	1		245	1.0	2.5	/experiments/knapen_AOT/AOT_stimuli/rescaled_final/2040_fw.mp4	0.0	102.15722012519836	2.500365972518921
3	60.642494916915894	pulse	1	t		1.0	2.5	/experiments/knapen_AOT/AOT_stimuli/rescaled_final/2040_fw.mp4	0.0	103.34108209609985	
3	61.958998918533325	fix_post	2		12	1.0	2.5	/experiments/knapen_AOT/AOT_stimuli/rescaled_final/2040_fw.mp4	0.0	104.65758609771729	0.10005402565002441
4	62.05905294418335	fix_pre	0		120	2.0	2.5	/experiments/knapen_AOT/AOT_stimuli/rescaled_final/1992_rv.mp4	0.0	104.75764012336731	1.000216007232666
4	62.242669105529785	pulse	0	t		2.0	2.5	/experiments/knapen_AOT/AOT_stimuli/rescaled_final/1992_rv.mp4	0.0	104.94125628471375	
4	63.059268951416016	movie	1		243	2.0	2.5	/experiments/knapen_AOT/AOT_stimuli/rescaled_final/1992_rv.mp4	0.0	105.75785613059998	2.5005149841308594
4	63.84289193153381	pulse	1	t		2.0	2.5	/experiments/knapen_AOT/AOT_stimuli/rescaled_final/1992_rv.mp4	0.0	106.54147911071777	
4	65.4430799484253	pulse	1	t		2.0	2.5	/experiments/knapen_AOT/AOT_stimuli/rescaled_final/1992_rv.mp4	0.0	108.14166712760925	
4	65.55978393554688	fix_post	2		12	2.0	2.5	/experiments/knapen_AOT/AOT_stimuli/rescaled_final/1992_rv.mp4	0.0	108.25837111473083	0.09980010986328125
5	65.65958404541016	fix_pre	0		120	3.0	2.5	/experiments/knapen_AOT/AOT_stimuli/rescaled_final/0975_rv.mp4	0.0	108.35817122459412	1.0001270771026611
5	66.65971112251282	movie	1		241	3.0	2.5	/experiments/knapen_AOT/AOT_stimuli/rescaled_final/0975_rv.mp4	0.0	109.35829830169678	2.4921247959136963
5	67.04362201690674	pulse	1	t		3.0	2.5	/experiments/knapen_AOT/AOT_stimuli/rescaled_final/0975_rv.mp4	0.0	109.7422091960907	
5	68.64355611801147	pulse	1	t		3.0	2.5	/experiments/knapen_AOT/AOT_stimuli/rescaled_final/0975_rv.mp4	0.0	111.34214329719543	
5	69.15183591842651	fix_post	2		12	3.0	2.5	/experiments/knapen_AOT/AOT_stimuli/rescaled_final/0975_rv.mp4	0.0	111.85042309761047	0.09995317459106445
6	69.25178909301758	fix_pre	0		120	4.0	2.5	/experiments/knapen_AOT/AOT_stimuli/rescaled_final/1060_rv.mp4	0.0	111.95037627220154	1.000105857849121
6	70.24377202987671	pulse	0	t		4.0	2.5	/experiments/knapen_AOT/AOT_stimuli/rescaled_final/1060_rv.mp4	0.0	112.94235920906067	
6	70.2518949508667	movie	1		244	4.0	2.5	/experiments/knapen_AOT/AOT_stimuli/rescaled_final/1060_rv.mp4	0.0	112.95048213005066	2.508772134780884
6	71.8447630405426	pulse	1	t		4.0	2.5	/experiments/knapen_AOT/AOT_stimuli/rescaled_final/1060_rv.mp4	0.0	114.54335021972656	
6	72.76066708564758	fix_post	2		10	4.0	2.5	/experiments/knapen_AOT/AOT_stimuli/rescaled_final/1060_rv.mp4	0.0	115.45925426483154	0.10001301765441895
7	72.860680103302	fix_pre	0		120	5.0	2.5	/experiments/knapen_AOT/AOT_stimuli/rescaled_final/2004_rv.mp4	0.0	115.55926728248596	1.0000958442687988
7	73.4441990852356	pulse	0	t		5.0	2.5	/experiments/knapen_AOT/AOT_stimuli/rescaled_final/2004_rv.mp4	0.0	116.14278626441956	
7	73.8607759475708	movie	1		242	5.0	2.5	/experiments/knapen_AOT/AOT_stimuli/rescaled_final/2004_rv.mp4	0.0	116.55936312675476	2.5004711151123047
7	75.04458594322205	pulse	1	t		5.0	2.5	/experiments/knapen_AOT/AOT_stimuli/rescaled_final/2004_rv.mp4	0.0	117.743173122406	
7	76.3612470626831	fix_post	2		12	5.0	2.5	/experiments/knapen_AOT/AOT_stimuli/rescaled_final/2004_rv.mp4	0.0	119.05983424186707	0.09998393058776855
8	76.46123099327087	fix_pre	0		120	6.0	2.5	/experiments/knapen_AOT/AOT_stimuli/rescaled_final/0682_fw.mp4	0.0	119.15981817245483	1.0001039505004883
8	76.64479899406433	pulse	0	t		6.0	2.5	/experiments/knapen_AOT/AOT_stimuli/rescaled_final/0682_fw.mp4	0.0	119.34338617324829	
8	77.46133494377136	movie	1		242	6.0	2.5	/experiments/knapen_AOT/AOT_stimuli/rescaled_final/0682_fw.mp4	0.0	120.15992212295532	2.500509023666382
8	78.24500608444214	pulse	1	t		6.0	2.5	/experiments/knapen_AOT/AOT_stimuli/rescaled_final/0682_fw.mp4	0.0	120.9435932636261	
8	79.84581708908081	pulse	1	t		6.0	2.5	/experiments/knapen_AOT/AOT_stimuli/rescaled_final/0682_fw.mp4	0.0	122.54440426826477	
8	79.96184396743774	fix_post	2		12	6.0	2.5	/experiments/knapen_AOT/AOT_stimuli/rescaled_final/0682_fw.mp4	0.0	122.6604311466217	0.09995698928833008
9	80.06180095672607	fix_pre	0		119	7.0	2.5	blank	1.0	122.76038813591003	0.9917490482330322
9	81.0535500049591	movie	1		300	7.0	2.5	blank	1.0	123.75213718414307	2.500347137451172
9	81.44550013542175	pulse	1	t		7.0	2.5	blank	1.0	124.14408731460571	
9	83.04568004608154	pulse	1	t		7.0	2.5	blank	1.0	125.7442672252655	
9	83.55389714241028	fix_post	2		12	7.0	2.5	blank	1.0	126.25248432159424	0.10004377365112305
10	83.6539409160614	fix_pre	0		120	8.0	2.5	/experiments/knapen_AOT/AOT_stimuli/rescaled_final/1933_rv.mp4	0.0	126.35252809524536	1.000075101852417
10	84.64601397514343	pulse	0	t		8.0	2.5	/experiments/knapen_AOT/AOT_stimuli/rescaled_final/1933_rv.mp4	0.0	127.34460115432739	
10	84.65401601791382	movie	1		244	8.0	2.5	/experiments/knapen_AOT/AOT_stimuli/rescaled_final/1933_rv.mp4	0.0	127.35260319709778	2.5088489055633545
10	86.24659395217896	pulse	1	t		8.0	2.5	/experiments/knapen_AOT/AOT_stimuli/rescaled_final/1933_rv.mp4	0.0	128.94518113136292	
10	87.16286492347717	fix_post	2		12	8.0	2.5	/experiments/knapen_AOT/AOT_stimuli/rescaled_final/1933_rv.mp4	0.0	129.86145210266113	0.09998321533203125
11	87.2628481388092	fix_pre	0		120	9.0	2.5	/experiments/knapen_AOT/AOT_stimuli/rescaled_final/2105_rv.mp4	0.0	129.96143531799316	1.0000529289245605
11	87.83891606330872	pulse	0	t		9.0	2.5	/experiments/knapen_AOT/AOT_stimuli/rescaled_final/2105_rv.mp4	0.0	130.53750324249268	
11	88.26290106773376	movie	1		242	9.0	2.5	/experiments/knapen_AOT/AOT_stimuli/rescaled_final/2105_rv.mp4	0.0	130.96148824691772	2.5006299018859863
11	89.44682097434998	pulse	1	t		9.0	2.5	/experiments/knapen_AOT/AOT_stimuli/rescaled_final/2105_rv.mp4	0.0	132.14540815353394	
11	90.76353096961975	fix_post	2		12	9.0	2.5	/experiments/knapen_AOT/AOT_stimuli/rescaled_final/2105_rv.mp4	0.0	133.4621181488037	0.09983515739440918
12	90.86336612701416	fix_pre	0		120	10.0	2.5	/experiments/knapen_AOT/AOT_stimuli/rescaled_final/0720_fw.mp4	0.0	133.56195330619812	1.0001499652862549
12	91.03939509391785	pulse	0	t		10.0	2.5	/experiments/knapen_AOT/AOT_stimuli/rescaled_final/0720_fw.mp4	0.0	133.7379822731018	
12	91.86351609230042	movie	1		243	10.0	2.5	/experiments/knapen_AOT/AOT_stimuli/rescaled_final/0720_fw.mp4	0.0	134.56210327148438	2.500335931777954
12	92.63975501060486	pulse	1	t		10.0	2.5	/experiments/knapen_AOT/AOT_stimuli/rescaled_final/0720_fw.mp4	0.0	135.33834218978882	
12	94.23918294906616	pulse	1	t		10.0	2.5	/experiments/knapen_AOT/AOT_stimuli/rescaled_final/0720_fw.mp4	0.0	136.93777012825012	
12	94.36385202407837	fix_post	2		12	10.0	2.5	/experiments/knapen_AOT/AOT_stimuli/rescaled_final/0720_fw.mp4	0.0	137.06243920326233	0.10003805160522461
13	94.4638900756836	fix_pre	0		120	11.0	2.5	/experiments/knapen_AOT/AOT_stimuli/rescaled_final/0719_fw.mp4	0.0	137.16247725486755	1.0000920295715332
13	95.46398210525513	movie	1		242	11.0	2.5	/experiments/knapen_AOT/AOT_stimuli/rescaled_final/0719_fw.mp4	0.0	138.1625692844391	2.4921138286590576
13	95.83918404579163	pulse	1	t		11.0	2.5	/experiments/knapen_AOT/AOT_stimuli/rescaled_final/0719_fw.mp4	0.0	138.5377712249756	
13	97.43957114219666	pulse	1	t		11.0	2.5	/experiments/knapen_AOT/AOT_stimuli/rescaled_final/0719_fw.mp4	0.0	140.13815832138062	
13	97.95609593391418	fix_post	2		12	11.0	2.5	/experiments/knapen_AOT/AOT_stimuli/rescaled_final/0719_fw.mp4	0.0	140.65468311309814	0.0999140739440918
14	98.05601000785828	fix_pre	0		119	12.0	2.5	blank	1.0	140.75459718704224	0.9918880462646484
14	99.03981399536133	pulse	0	t		12.0	2.5	blank	1.0	141.7384011745453	
14	99.04789805412292	movie	1		301	12.0	2.5	blank	1.0	141.74648523330688	2.508686065673828
14	100.64006114006042	pulse	1	t		12.0	2.5	blank	1.0	143.33864831924438	
14	101.55658411979675	fix_post	2		12	12.0	2.5	blank	1.0	144.2551712989807	0.10001397132873535
15	101.65659809112549	fix_pre	0		120	13.0	2.5	/experiments/knapen_AOT/AOT_stimuli/rescaled_final/0528_rv.mp4	0.0	144.35518527030945	1.000133991241455
15	102.24013304710388	pulse	0	t		13.0	2.5	/experiments/knapen_AOT/AOT_stimuli/rescaled_final/0528_rv.mp4	0.0	144.93872022628784	
15	102.65673208236694	movie	1		244	13.0	2.5	/experiments/knapen_AOT/AOT_stimuli/rescaled_final/0528_rv.mp4	0.0	145.3553192615509	2.5003809928894043
15	103.84057712554932	pulse	1	t		13.0	2.5	/experiments/knapen_AOT/AOT_stimuli/rescaled_final/0528_rv.mp4	0.0	146.53916430473328	
15	105.15711307525635	fix_post	2		12	13.0	2.5	/experiments/knapen_AOT/AOT_stimuli/rescaled_final/0528_rv.mp4	0.0	147.8557002544403	0.09999585151672363
16	105.25710892677307	fix_pre	0		120	14.0	2.5	/experiments/knapen_AOT/AOT_stimuli/rescaled_final/0751_rv.mp4	0.0	147.95569610595703	1.0001580715179443
16	105.44065713882446	pulse	0	t		14.0	2.5	/experiments/knapen_AOT/AOT_stimuli/rescaled_final/0751_rv.mp4	0.0	148.13924431800842	
16	106.25726699829102	movie	1		245	14.0	2.5	/experiments/knapen_AOT/AOT_stimuli/rescaled_final/0751_rv.mp4	0.0	148.95585417747498	2.5004210472106934
16	107.04091310501099	pulse	1	t		14.0	2.5	/experiments/knapen_AOT/AOT_stimuli/rescaled_final/0751_rv.mp4	0.0	149.73950028419495	
16	108.64110207557678	pulse	1	t		14.0	2.5	/experiments/knapen_AOT/AOT_stimuli/rescaled_final/0751_rv.mp4	0.0	151.33968925476074	
16	108.75768804550171	fix_post	2		12	14.0	2.5	/experiments/knapen_AOT/AOT_stimuli/rescaled_final/0751_rv.mp4	0.0	151.45627522468567	0.10000991821289062
17	108.8576979637146	fix_pre	0		120	15.0	2.5	/experiments/knapen_AOT/AOT_stimuli/rescaled_final/1279_fw.mp4	0.0	151.55628514289856	1.0001161098480225
17	109.85781407356262	movie	1		242	15.0	2.5	/experiments/knapen_AOT/AOT_stimuli/rescaled_final/1279_fw.mp4	0.0	152.55640125274658	2.4921789169311523
17	110.24193811416626	pulse	1	t		15.0	2.5	/experiments/knapen_AOT/AOT_stimuli/rescaled_final/1279_fw.mp4	0.0	152.94052529335022	
17	111.84161114692688	pulse	1	t		15.0	2.5	/experiments/knapen_AOT/AOT_stimuli/rescaled_final/1279_fw.mp4	0.0	154.54019832611084	
17	112.34999299049377	fix_post	2		12	15.0	2.5	/experiments/knapen_AOT/AOT_stimuli/rescaled_final/1279_fw.mp4	0.0	155.04858016967773	0.09989714622497559
18	112.44989013671875	fix_pre	0		120	16.0	2.5	/experiments/knapen_AOT/AOT_stimuli/rescaled_final/1019_rv.mp4	0.0	155.1484773159027	1.000091791152954
18	113.44185614585876	pulse	0	t		16.0	2.5	/experiments/knapen_AOT/AOT_stimuli/rescaled_final/1019_rv.mp4	0.0	156.14044332504272	
18	113.4499819278717	movie	1		246	16.0	2.5	/experiments/knapen_AOT/AOT_stimuli/rescaled_final/1019_rv.mp4	0.0	156.14856910705566	2.5087831020355225
18	115.04331302642822	pulse	1	t		16.0	2.5	/experiments/knapen_AOT/AOT_stimuli/rescaled_final/1019_rv.mp4	0.0	157.74190020561218	
18	115.95876502990723	fix_post	2		12	16.0	2.5	/experiments/knapen_AOT/AOT_stimuli/rescaled_final/1019_rv.mp4	0.0	158.6573522090912	0.1000208854675293
19	116.05878591537476	fix_pre	0		120	17.0	2.5	/experiments/knapen_AOT/AOT_stimuli/rescaled_final/1786_rv.mp4	0.0	158.75737309455872	1.0001270771026611
19	116.64232993125916	pulse	0	t		17.0	2.5	/experiments/knapen_AOT/AOT_stimuli/rescaled_final/1786_rv.mp4	0.0	159.34091711044312	
19	117.05891299247742	movie	1		243	17.0	2.5	/experiments/knapen_AOT/AOT_stimuli/rescaled_final/1786_rv.mp4	0.0	159.75750017166138	2.500434160232544
19	118.24264812469482	pulse	1	t		17.0	2.5	/experiments/knapen_AOT/AOT_stimuli/rescaled_final/1786_rv.mp4	0.0	160.94123530387878	
19	119.55934715270996	fix_post	2		12	17.0	2.5	/experiments/knapen_AOT/AOT_stimuli/rescaled_final/1786_rv.mp4	0.0	162.25793433189392	0.09996676445007324
20	119.65931391716003	fix_pre	0		120	18.0	2.5	/experiments/knapen_AOT/AOT_stimuli/rescaled_final/1060_fw.mp4	0.0	162.357901096344	1.0001211166381836
20	119.84293293952942	pulse	0	t		18.0	2.5	/experiments/knapen_AOT/AOT_stimuli/rescaled_final/1060_fw.mp4	0.0	162.54152011871338	
20	120.65943503379822	movie	1		243	18.0	2.5	/experiments/knapen_AOT/AOT_stimuli/rescaled_final/1060_fw.mp4	0.0	163.35802221298218	2.500535011291504
20	121.44310593605042	pulse	1	t		18.0	2.5	/experiments/knapen_AOT/AOT_stimuli/rescaled_final/1060_fw.mp4	0.0	164.14169311523438	
20	123.04348802566528	pulse	1	t		18.0	2.5	/experiments/knapen_AOT/AOT_stimuli/rescaled_final/1060_fw.mp4	0.0	165.74207520484924	
20	123.15997004508972	fix_post	2		12	18.0	2.5	/experiments/knapen_AOT/AOT_stimuli/rescaled_final/1060_fw.mp4	0.0	165.85855722427368	0.09991192817687988
21	123.2598819732666	fix_pre	0		120	19.0	2.5	/experiments/knapen_AOT/AOT_stimuli/rescaled_final/1029_rv.mp4	0.0	165.95846915245056	1.000082015991211
21	124.25996398925781	movie	1		241	19.0	2.5	/experiments/knapen_AOT/AOT_stimuli/rescaled_final/1029_rv.mp4	0.0	166.95855116844177	2.49206805229187
21	124.64424300193787	pulse	1	t		19.0	2.5	/experiments/knapen_AOT/AOT_stimuli/rescaled_final/1029_rv.mp4	0.0	167.34283018112183	
21	126.24379992485046	pulse	1	t		19.0	2.5	/experiments/knapen_AOT/AOT_stimuli/rescaled_final/1029_rv.mp4	0.0	168.94238710403442	
21	126.75203204154968	fix_post	2		12	19.0	2.5	/experiments/knapen_AOT/AOT_stimuli/rescaled_final/1029_rv.mp4	0.0	169.45061922073364	0.09997797012329102
22	126.85201001167297	fix_pre	0		120	20.0	2.5	blank	1.0	169.55059719085693	1.0001800060272217
22	127.8440670967102	pulse	0	t		20.0	2.5	blank	1.0	170.54265427589417	
22	127.8521900177002	movie	1		301	20.0	2.5	blank	1.0	170.55077719688416	2.5087640285491943
22	129.44428992271423	pulse	1	t		20.0	2.5	blank	1.0	172.1428771018982	
22	130.3609540462494	fix_post	2		12	20.0	2.5	blank	1.0	173.05954122543335	0.09998106956481934
23	130.4609351158142	fix_pre	0		118	21.0	2.5	/experiments/knapen_AOT/AOT_stimuli/rescaled_final/0772_rv.mp4	0.0	173.15952229499817	1.0000908374786377
23	131.04452395439148	pulse	0	t		21.0	2.5	/experiments/knapen_AOT/AOT_stimuli/rescaled_final/0772_rv.mp4	0.0	173.74311113357544	
23	131.46102595329285	movie	1		243	21.0	2.5	/experiments/knapen_AOT/AOT_stimuli/rescaled_final/0772_rv.mp4	0.0	174.1596131324768	2.50045108795166
23	132.64485597610474	pulse	1	t		21.0	2.5	/experiments/knapen_AOT/AOT_stimuli/rescaled_final/0772_rv.mp4	0.0	175.3434431552887	
23	133.9614770412445	fix_post	2		12	21.0	2.5	/experiments/knapen_AOT/AOT_stimuli/rescaled_final/0772_rv.mp4	0.0	176.66006422042847	0.10002708435058594
24	134.0615041255951	fix_pre	0		120	22.0	2.5	/experiments/knapen_AOT/AOT_stimuli/rescaled_final/0889_rv.mp4	0.0	176.76009130477905	1.0000958442687988
24	134.24506902694702	pulse	0	t		22.0	2.5	/experiments/knapen_AOT/AOT_stimuli/rescaled_final/0889_rv.mp4	0.0	176.94365620613098	
24	135.0615999698639	movie	1		242	22.0	2.5	/experiments/knapen_AOT/AOT_stimuli/rescaled_final/0889_rv.mp4	0.0	177.76018714904785	2.500427007675171
24	135.84518098831177	pulse	1	t		22.0	2.5	/experiments/knapen_AOT/AOT_stimuli/rescaled_final/0889_rv.mp4	0.0	178.54376816749573	
24	137.44530200958252	pulse	1	t		22.0	2.5	/experiments/knapen_AOT/AOT_stimuli/rescaled_final/0889_rv.mp4	0.0	180.14388918876648	
24	137.56202697753906	fix_post	2		12	22.0	2.5	/experiments/knapen_AOT/AOT_stimuli/rescaled_final/0889_rv.mp4	0.0	180.26061415672302	0.09991908073425293
25	137.66194605827332	fix_pre	0		120	23.0	2.5	/experiments/knapen_AOT/AOT_stimuli/rescaled_final/0158_fw.mp4	0.0	180.36053323745728	1.0002210140228271
25	138.66216707229614	movie	1		241	23.0	2.5	/experiments/knapen_AOT/AOT_stimuli/rescaled_final/0158_fw.mp4	0.0	181.3607542514801	2.492111921310425
25	139.0463161468506	pulse	1	t		23.0	2.5	/experiments/knapen_AOT/AOT_stimuli/rescaled_final/0158_fw.mp4	0.0	181.74490332603455	
25	140.6386489868164	pulse	1	t		23.0	2.5	/experiments/knapen_AOT/AOT_stimuli/rescaled_final/0158_fw.mp4	0.0	183.33723616600037	
25	141.15427899360657	fix_post	2		12	23.0	2.5	/experiments/knapen_AOT/AOT_stimuli/rescaled_final/0158_fw.mp4	0.0	183.85286617279053	0.09995198249816895
26	141.25423097610474	fix_pre	0		120	24.0	2.5	/experiments/knapen_AOT/AOT_stimuli/rescaled_final/1840_rv.mp4	0.0	183.9528181552887	1.0001850128173828
26	142.23863101005554	pulse	0	t		24.0	2.5	/experiments/knapen_AOT/AOT_stimuli/rescaled_final/1840_rv.mp4	0.0	184.9372181892395	
26	142.25441598892212	movie	1		243	24.0	2.5	/experiments/knapen_AOT/AOT_stimuli/rescaled_final/1840_rv.mp4	0.0	184.95300316810608	2.50860595703125
26	143.84707808494568	pulse	1	t		24.0	2.5	/experiments/knapen_AOT/AOT_stimuli/rescaled_final/1840_rv.mp4	0.0	186.54566526412964	
26	144.76302194595337	fix_post	2		12	24.0	2.5	/experiments/knapen_AOT/AOT_stimuli/rescaled_final/1840_rv.mp4	0.0	187.46160912513733	0.10001206398010254
27	144.86303400993347	fix_pre	0		120	25.0	2.5	/experiments/knapen_AOT/AOT_stimuli/rescaled_final/0353_rv.mp4	0.0	187.56162118911743	1.0002000331878662
27	145.4390950202942	pulse	0	t		25.0	2.5	/experiments/knapen_AOT/AOT_stimuli/rescaled_final/0353_rv.mp4	0.0	188.13768219947815	
27	145.86323404312134	movie	1		243	25.0	2.5	/experiments/knapen_AOT/AOT_stimuli/rescaled_final/0353_rv.mp4	0.0	188.5618212223053	2.500454902648926
27	147.0399580001831	pulse	1	t		25.0	2.5	/experiments/knapen_AOT/AOT_stimuli/rescaled_final/0353_rv.mp4	0.0	189.73854517936707	
27	148.36368894577026	fix_post	2		12	25.0	2.5	/experiments/knapen_AOT/AOT_stimuli/rescaled_final/0353_rv.mp4	0.0	191.06227612495422	0.09992098808288574
28	148.46360993385315	fix_pre	0		120	26.0	2.5	/experiments/knapen_AOT/AOT_stimuli/rescaled_final/1889_rv.mp4	0.0	191.1621971130371	1.0001170635223389
28	148.63891506195068	pulse	0	t		26.0	2.5	/experiments/knapen_AOT/AOT_stimuli/rescaled_final/1889_rv.mp4	0.0	191.33750224113464	
28	149.4637269973755	movie	1		242	26.0	2.5	/experiments/knapen_AOT/AOT_stimuli/rescaled_final/1889_rv.mp4	0.0	192.16231417655945	2.492095947265625
28	150.2389941215515	pulse	1	t		26.0	2.5	/experiments/knapen_AOT/AOT_stimuli/rescaled_final/1889_rv.mp4	0.0	192.93758130073547	
28	151.8391990661621	pulse	1	t		26.0	2.5	/experiments/knapen_AOT/AOT_stimuli/rescaled_final/1889_rv.mp4	0.0	194.53778624534607	
28	151.9558229446411	fix_post	2		13	26.0	2.5	/experiments/knapen_AOT/AOT_stimuli/rescaled_final/1889_rv.mp4	0.0	194.65441012382507	0.10836219787597656
29	152.0641851425171	fix_pre	0		119	27.0	2.5	/experiments/knapen_AOT/AOT_stimuli/rescaled_final/1206_rv.mp4	0.0	194.76277232170105	0.9917478561401367
29	153.05593299865723	movie	1		243	27.0	2.5	/experiments/knapen_AOT/AOT_stimuli/rescaled_final/1206_rv.mp4	0.0	195.7545201778412	2.5005130767822266
29	153.4406750202179	pulse	1	t		27.0	2.5	/experiments/knapen_AOT/AOT_stimuli/rescaled_final/1206_rv.mp4	0.0	196.13926219940186	
29	155.0398759841919	pulse	1	t		27.0	2.5	/experiments/knapen_AOT/AOT_stimuli/rescaled_final/1206_rv.mp4	0.0	197.73846316337585	
29	155.55644607543945	fix_post	2		12	27.0	2.5	/experiments/knapen_AOT/AOT_stimuli/rescaled_final/1206_rv.mp4	0.0	198.2550332546234	0.09986305236816406
30	155.65630912780762	fix_pre	0		119	28.0	2.5	blank	1.0	198.35489630699158	0.9918839931488037
30	156.64004111289978	pulse	0	t		28.0	2.5	blank	1.0	199.33862829208374	
30	156.64819312095642	movie	1		301	28.0	2.5	blank	1.0	199.34678030014038	2.5086498260498047
30	158.24016213417053	pulse	1	t		28.0	2.5	blank	1.0	200.9387493133545	
30	159.15684294700623	fix_post	2		12	28.0	2.5	blank	1.0	201.85543012619019	0.10002708435058594
31	159.2568700313568	fix_pre	0		120	29.0	2.5	/experiments/knapen_AOT/AOT_stimuli/rescaled_final/2152_fw.mp4	0.0	201.95545721054077	1.0001049041748047
31	159.84049606323242	pulse	0	t		29.0	2.5	/experiments/knapen_AOT/AOT_stimuli/rescaled_final/2152_fw.mp4	0.0	202.53908324241638	
31	160.25697493553162	movie	1		242	29.0	2.5	/experiments/knapen_AOT/AOT_stimuli/rescaled_final/2152_fw.mp4	0.0	202.95556211471558	2.5005671977996826
31	161.44092202186584	pulse	1	t		29.0	2.5	/experiments/knapen_AOT/AOT_stimuli/rescaled_final/2152_fw.mp4	0.0	204.1395092010498	
31	162.7575421333313	fix_post	2		12	29.0	2.5	/experiments/knapen_AOT/AOT_stimuli/rescaled_final/2152_fw.mp4	0.0	205.45612931251526	0.09989500045776367
32	162.85743713378906	fix_pre	0		120	30.0	2.5	/experiments/knapen_AOT/AOT_stimuli/rescaled_final/1189_fw.mp4	0.0	205.55602431297302	1.0001788139343262
32	163.04098105430603	pulse	0	t		30.0	2.5	/experiments/knapen_AOT/AOT_stimuli/rescaled_final/1189_fw.mp4	0.0	205.73956823349	
32	163.8576159477234	movie	1		242	30.0	2.5	/experiments/knapen_AOT/AOT_stimuli/rescaled_final/1189_fw.mp4	0.0	206.55620312690735	2.5003139972686768
32	164.64112210273743	pulse	1	t		30.0	2.5	/experiments/knapen_AOT/AOT_stimuli/rescaled_final/1189_fw.mp4	0.0	207.3397092819214	
32	166.24116396903992	pulse	1	t		30.0	2.5	/experiments/knapen_AOT/AOT_stimuli/rescaled_final/1189_fw.mp4	0.0	208.93975114822388	
32	166.35792994499207	fix_post	2		12	30.0	2.5	/experiments/knapen_AOT/AOT_stimuli/rescaled_final/1189_fw.mp4	0.0	209.05651712417603	0.09997797012329102
33	166.45790791511536	fix_pre	0		120	31.0	2.5	/experiments/knapen_AOT/AOT_stimuli/rescaled_final/0747_fw.mp4	0.0	209.15649509429932	1.0001630783081055
33	167.45807099342346	movie	1		241	31.0	2.5	/experiments/knapen_AOT/AOT_stimuli/rescaled_final/0747_fw.mp4	0.0	210.15665817260742	2.4921021461486816
33	167.84290409088135	pulse	1	t		31.0	2.5	/experiments/knapen_AOT/AOT_stimuli/rescaled_final/0747_fw.mp4	0.0	210.5414912700653	
33	169.44202208518982	pulse	1	t		31.0	2.5	/experiments/knapen_AOT/AOT_stimuli/rescaled_final/0747_fw.mp4	0.0	212.14060926437378	
33	169.95017313957214	fix_post	2		12	31.0	2.5	/experiments/knapen_AOT/AOT_stimuli/rescaled_final/0747_fw.mp4	0.0	212.6487603187561	0.10000896453857422
34	170.05018210411072	fix_pre	0		120	32.0	2.5	/experiments/knapen_AOT/AOT_stimuli/rescaled_final/1815_rv.mp4	0.0	212.74876928329468	1.0001168251037598
34	171.04208397865295	pulse	0	t		32.0	2.5	/experiments/knapen_AOT/AOT_stimuli/rescaled_final/1815_rv.mp4	0.0	213.7406711578369	
34	171.05029892921448	movie	1		244	32.0	2.5	/experiments/knapen_AOT/AOT_stimuli/rescaled_final/1815_rv.mp4	0.0	213.74888610839844	2.508676052093506
34	172.64283108711243	pulse	1	t		32.0	2.5	/experiments/knapen_AOT/AOT_stimuli/rescaled_final/1815_rv.mp4	0.0	215.3414182662964	
34	173.55897498130798	fix_post	2		12	32.0	2.5	/experiments/knapen_AOT/AOT_stimuli/rescaled_final/1815_rv.mp4	0.0	216.25756216049194	0.09999704360961914
35	173.6589720249176	fix_pre	0		120	33.0	2.5	/experiments/knapen_AOT/AOT_stimuli/rescaled_final/1969_fw.mp4	0.0	216.35755920410156	1.0001931190490723
35	174.24268007278442	pulse	0	t		33.0	2.5	/experiments/knapen_AOT/AOT_stimuli/rescaled_final/1969_fw.mp4	0.0	216.94126725196838	
35	174.65916514396667	movie	1		243	33.0	2.5	/experiments/knapen_AOT/AOT_stimuli/rescaled_final/1969_fw.mp4	0.0	217.35775232315063	2.500515937805176
35	175.8430371284485	pulse	1	t		33.0	2.5	/experiments/knapen_AOT/AOT_stimuli/rescaled_final/1969_fw.mp4	0.0	218.54162430763245	
35	177.15968108177185	fix_post	2		12	33.0	2.5	/experiments/knapen_AOT/AOT_stimuli/rescaled_final/1969_fw.mp4	0.0	219.8582682609558	0.09988784790039062
36	177.25956892967224	fix_pre	0		120	34.0	2.5	/experiments/knapen_AOT/AOT_stimuli/rescaled_final/1679_rv.mp4	0.0	219.9581561088562	1.0001590251922607
36	177.44304895401	pulse	0	t		34.0	2.5	/experiments/knapen_AOT/AOT_stimuli/rescaled_final/1679_rv.mp4	0.0	220.14163613319397	
36	178.2597279548645	movie	1		242	34.0	2.5	/experiments/knapen_AOT/AOT_stimuli/rescaled_final/1679_rv.mp4	0.0	220.95831513404846	2.500385046005249
36	179.04333996772766	pulse	1	t		34.0	2.5	/experiments/knapen_AOT/AOT_stimuli/rescaled_final/1679_rv.mp4	0.0	221.74192714691162	
36	180.64412093162537	pulse	1	t		34.0	2.5	/experiments/knapen_AOT/AOT_stimuli/rescaled_final/1679_rv.mp4	0.0	223.34270811080933	
36	180.76011300086975	fix_post	2		12	34.0	2.5	/experiments/knapen_AOT/AOT_stimuli/rescaled_final/1679_rv.mp4	0.0	223.4587001800537	0.09996294975280762
37	180.86007595062256	fix_pre	0		120	35.0	2.5	blank	1.0	223.55866312980652	1.0002620220184326
37	181.860337972641	movie	1		299	35.0	2.5	blank	1.0	224.55892515182495	2.4919731616973877
37	182.24391293525696	pulse	1	t		35.0	2.5	blank	1.0	224.94250011444092	
37	183.8441081047058	pulse	1	t		35.0	2.5	blank	1.0	226.54269528388977	
37	184.35231113433838	fix_post	2		12	35.0	2.5	blank	1.0	227.05089831352234	0.10001683235168457
38	184.45232796669006	fix_pre	0		120	36.0	2.5	/experiments/knapen_AOT/AOT_stimuli/rescaled_final/1223_rv.mp4	0.0	227.15091514587402	1.0000970363616943
38	185.44422101974487	pulse	0	t		36.0	2.5	/experiments/knapen_AOT/AOT_stimuli/rescaled_final/1223_rv.mp4	0.0	228.14280819892883	
38	185.45242500305176	movie	1		244	36.0	2.5	/experiments/knapen_AOT/AOT_stimuli/rescaled_final/1223_rv.mp4	0.0	228.15101218223572	2.508697032928467
38	187.0457730293274	pulse	1	t		36.0	2.5	/experiments/knapen_AOT/AOT_stimuli/rescaled_final/1223_rv.mp4	0.0	229.74436020851135	
38	187.96112203598022	fix_post	2		12	36.0	2.5	/experiments/knapen_AOT/AOT_stimuli/rescaled_final/1223_rv.mp4	0.0	230.65970921516418	0.10002994537353516
39	188.06115198135376	fix_pre	0		120	37.0	2.5	/experiments/knapen_AOT/AOT_stimuli/rescaled_final/0355_rv.mp4	0.0	230.75973916053772	1.0002100467681885
39	188.64489102363586	pulse	0	t		37.0	2.5	/experiments/knapen_AOT/AOT_stimuli/rescaled_final/0355_rv.mp4	0.0	231.34347820281982	
39	189.06136202812195	movie	1		241	37.0	2.5	/experiments/knapen_AOT/AOT_stimuli/rescaled_final/0355_rv.mp4	0.0	231.7599492073059	2.500368118286133
39	190.2452039718628	pulse	1	t		37.0	2.5	/experiments/knapen_AOT/AOT_stimuli/rescaled_final/0355_rv.mp4	0.0	232.94379115104675	
39	191.56173014640808	fix_post	2		12	37.0	2.5	/experiments/knapen_AOT/AOT_stimuli/rescaled_final/0355_rv.mp4	0.0	234.26031732559204	0.10006880760192871
40	191.66179895401	fix_pre	0		120	38.0	2.5	/experiments/knapen_AOT/AOT_stimuli/rescaled_final/0192_fw.mp4	0.0	234.36038613319397	1.0000779628753662
40	191.8451669216156	pulse	0	t		38.0	2.5	/experiments/knapen_AOT/AOT_stimuli/rescaled_final/0192_fw.mp4	0.0	234.54375410079956	
40	192.66187691688538	movie	1		244	38.0	2.5	/experiments/knapen_AOT/AOT_stimuli/rescaled_final/0192_fw.mp4	0.0	235.36046409606934	2.500298023223877
40	193.44557094573975	pulse	1	t		38.0	2.5	/experiments/knapen_AOT/AOT_stimuli/rescaled_final/0192_fw.mp4	0.0	236.1441581249237	
40	195.04577898979187	pulse	1	t		38.0	2.5	/experiments/knapen_AOT/AOT_stimuli/rescaled_final/0192_fw.mp4	0.0	237.74436616897583	
40	195.16217494010925	fix_post	2		12	38.0	2.5	/experiments/knapen_AOT/AOT_stimuli/rescaled_final/0192_fw.mp4	0.0	237.8607621192932	0.10008502006530762
41	195.26225996017456	fix_pre	0		119	39.0	2.5	/experiments/knapen_AOT/AOT_stimuli/rescaled_final/0716_rv.mp4	0.0	237.96084713935852	0.9917709827423096
41	196.25403094291687	movie	1		242	39.0	2.5	/experiments/knapen_AOT/AOT_stimuli/rescaled_final/0716_rv.mp4	0.0	238.95261812210083	2.5005240440368652
41	196.64605903625488	pulse	1	t		39.0	2.5	/experiments/knapen_AOT/AOT_stimuli/rescaled_final/0716_rv.mp4	0.0	239.34464621543884	
41	198.24625992774963	pulse	1	t		39.0	2.5	/experiments/knapen_AOT/AOT_stimuli/rescaled_final/0716_rv.mp4	0.0	240.9448471069336	
41	198.75455498695374	fix_post	2		12	39.0	2.5	/experiments/knapen_AOT/AOT_stimuli/rescaled_final/0716_rv.mp4	0.0	241.4531421661377	0.09992599487304688
42	198.85448098182678	fix_pre	0		120	40.0	2.5	/experiments/knapen_AOT/AOT_stimuli/rescaled_final/1100_fw.mp4	0.0	241.55306816101074	1.0001659393310547
42	199.84648895263672	pulse	0	t		40.0	2.5	/experiments/knapen_AOT/AOT_stimuli/rescaled_final/1100_fw.mp4	0.0	242.54507613182068	
42	199.85464692115784	movie	1		243	40.0	2.5	/experiments/knapen_AOT/AOT_stimuli/rescaled_final/1100_fw.mp4	0.0	242.5532341003418	2.50864315032959
42	201.44717502593994	pulse	1	t		40.0	2.5	/experiments/knapen_AOT/AOT_stimuli/rescaled_final/1100_fw.mp4	0.0	244.1457622051239	
42	202.36329007148743	fix_post	2		12	40.0	2.5	/experiments/knapen_AOT/AOT_stimuli/rescaled_final/1100_fw.mp4	0.0	245.0618772506714	0.10006189346313477
43	202.46335196495056	fix_pre	0		120	41.0	2.5	blank	1.0	245.16193914413452	1.000162124633789
43	203.03940606117249	pulse	0	t		41.0	2.5	blank	1.0	245.73799324035645	
43	203.46351408958435	movie	1		300	41.0	2.5	blank	1.0	246.1621012687683	2.5003509521484375
43	204.63969707489014	pulse	1	t		41.0	2.5	blank	1.0	247.3382842540741	
43	205.9638650417328	fix_post	2		12	41.0	2.5	blank	1.0	248.66245222091675	0.10001492500305176
44	206.06387996673584	fix_pre	0		120	42.0	2.5	/experiments/knapen_AOT/AOT_stimuli/rescaled_final/0498_fw.mp4	0.0	248.7624671459198	1.0001039505004883
44	206.23989510536194	pulse	0	t		42.0	2.5	/experiments/knapen_AOT/AOT_stimuli/rescaled_final/0498_fw.mp4	0.0	248.9384822845459	
44	207.06398391723633	movie	1		243	42.0	2.5	/experiments/knapen_AOT/AOT_stimuli/rescaled_final/0498_fw.mp4	0.0	249.7625710964203	2.500444173812866
44	207.83946895599365	pulse	1	t		42.0	2.5	/experiments/knapen_AOT/AOT_stimuli/rescaled_final/0498_fw.mp4	0.0	250.5380561351776	
44	209.43944597244263	pulse	1	t		42.0	2.5	/experiments/knapen_AOT/AOT_stimuli/rescaled_final/0498_fw.mp4	0.0	252.1380331516266	
44	209.5644280910492	fix_post	2		12	42.0	2.5	/experiments/knapen_AOT/AOT_stimuli/rescaled_final/0498_fw.mp4	0.0	252.26301527023315	0.09992694854736328
45	209.66435503959656	fix_pre	0		119	43.0	2.5	/experiments/knapen_AOT/AOT_stimuli/rescaled_final/1720_fw.mp4	0.0	252.36294221878052	0.9918160438537598
45	210.65617108345032	movie	1		242	43.0	2.5	/experiments/knapen_AOT/AOT_stimuli/rescaled_final/1720_fw.mp4	0.0	253.35475826263428	2.5004849433898926
45	211.04044604301453	pulse	1	t		43.0	2.5	/experiments/knapen_AOT/AOT_stimuli/rescaled_final/1720_fw.mp4	0.0	253.7390332221985	
45	212.64006209373474	pulse	1	t		43.0	2.5	/experiments/knapen_AOT/AOT_stimuli/rescaled_final/1720_fw.mp4	0.0	255.3386492729187	
45	213.1566560268402	fix_post	2		12	43.0	2.5	/experiments/knapen_AOT/AOT_stimuli/rescaled_final/1720_fw.mp4	0.0	255.85524320602417	0.0999610424041748
46	213.25661706924438	fix_pre	0		119	44.0	2.5	/experiments/knapen_AOT/AOT_stimuli/rescaled_final/0805_fw.mp4	0.0	255.95520424842834	0.9917929172515869
46	214.24022603034973	pulse	0	t		44.0	2.5	/experiments/knapen_AOT/AOT_stimuli/rescaled_final/0805_fw.mp4	0.0	256.9388132095337	
46	214.24840998649597	movie	1		244	44.0	2.5	/experiments/knapen_AOT/AOT_stimuli/rescaled_final/0805_fw.mp4	0.0	256.94699716567993	2.5086870193481445
46	215.84194803237915	pulse	1	t		44.0	2.5	/experiments/knapen_AOT/AOT_stimuli/rescaled_final/0805_fw.mp4	0.0	258.5405352115631	
46	216.75709700584412	fix_post	2		12	44.0	2.5	/experiments/knapen_AOT/AOT_stimuli/rescaled_final/0805_fw.mp4	0.0	259.4556841850281	0.10001397132873535
47	216.85711097717285	fix_pre	0		120	45.0	2.5	/experiments/knapen_AOT/AOT_stimuli/rescaled_final/2105_rv.mp4	0.0	259.5556981563568	1.0001380443572998
47	217.4406931400299	pulse	0	t		45.0	2.5	/experiments/knapen_AOT/AOT_stimuli/rescaled_final/2105_rv.mp4	0.0	260.13928031921387	
47	217.85724902153015	movie	1		242	45.0	2.5	/experiments/knapen_AOT/AOT_stimuli/rescaled_final/2105_rv.mp4	0.0	260.5558362007141	2.5004539489746094
47	219.04101991653442	pulse	1	t		45.0	2.5	/experiments/knapen_AOT/AOT_stimuli/rescaled_final/2105_rv.mp4	0.0	261.7396070957184	
47	220.35770297050476	fix_post	2		12	45.0	2.5	/experiments/knapen_AOT/AOT_stimuli/rescaled_final/2105_rv.mp4	0.0	263.0562901496887	0.09991717338562012
48	220.45762014389038	fix_pre	0		120	46.0	2.5	/experiments/knapen_AOT/AOT_stimuli/rescaled_final/0838_rv.mp4	0.0	263.15620732307434	1.0002069473266602
48	220.6411600112915	pulse	0	t		46.0	2.5	/experiments/knapen_AOT/AOT_stimuli/rescaled_final/0838_rv.mp4	0.0	263.33974719047546	
48	221.45782709121704	movie	1		242	46.0	2.5	/experiments/knapen_AOT/AOT_stimuli/rescaled_final/0838_rv.mp4	0.0	264.156414270401	2.5004570484161377
48	222.2415509223938	pulse	1	t		46.0	2.5	/experiments/knapen_AOT/AOT_stimuli/rescaled_final/0838_rv.mp4	0.0	264.94013810157776	
48	223.84173703193665	pulse	1	t		46.0	2.5	/experiments/knapen_AOT/AOT_stimuli/rescaled_final/0838_rv.mp4	0.0	266.5403242111206	
48	223.95828413963318	fix_post	2		12	46.0	2.5	/experiments/knapen_AOT/AOT_stimuli/rescaled_final/0838_rv.mp4	0.0	266.65687131881714	0.09995579719543457
49	224.0582399368286	fix_pre	0		120	47.0	2.5	blank	1.0	266.7568271160126	1.000089168548584
49	225.0583291053772	movie	1		299	47.0	2.5	blank	1.0	267.75691628456116	2.492100954055786
49	225.4419641494751	pulse	1	t		47.0	2.5	blank	1.0	268.14055132865906	
49	227.04220914840698	pulse	1	t		47.0	2.5	blank	1.0	269.74079632759094	
49	227.55043005943298	fix_post	2		12	47.0	2.5	blank	1.0	270.24901723861694	0.10002303123474121
50	227.65045309066772	fix_pre	0		120	48.0	2.5	/experiments/knapen_AOT/AOT_stimuli/rescaled_final/1881_fw.mp4	0.0	270.3490402698517	1.000079870223999
50	228.64249396324158	pulse	0	t		48.0	2.5	/experiments/knapen_AOT/AOT_stimuli/rescaled_final/1881_fw.mp4	0.0	271.34108114242554	
50	228.65053296089172	movie	1		244	48.0	2.5	/experiments/knapen_AOT/AOT_stimuli/rescaled_final/1881_fw.mp4	0.0	271.3491201400757	2.508695125579834
50	230.24394607543945	pulse	1	t		48.0	2.5	/experiments/knapen_AOT/AOT_stimuli/rescaled_final/1881_fw.mp4	0.0	272.9425332546234	
50	231.15922808647156	fix_post	2		12	48.0	2.5	/experiments/knapen_AOT/AOT_stimuli/rescaled_final/1881_fw.mp4	0.0	273.8578152656555	0.10003495216369629
51	231.25926303863525	fix_pre	0		120	49.0	2.5	/experiments/knapen_AOT/AOT_stimuli/rescaled_final/1419_fw.mp4	0.0	273.9578502178192	1.0001609325408936
51	231.84291100502014	pulse	0	t		49.0	2.5	/experiments/knapen_AOT/AOT_stimuli/rescaled_final/1419_fw.mp4	0.0	274.5414981842041	
51	232.25942397117615	movie	1		243	49.0	2.5	/experiments/knapen_AOT/AOT_stimuli/rescaled_final/1419_fw.mp4	0.0	274.9580111503601	2.5004470348358154
51	233.4432921409607	pulse	1	t		49.0	2.5	/experiments/knapen_AOT/AOT_stimuli/rescaled_final/1419_fw.mp4	0.0	276.14187932014465	
51	234.75987100601196	fix_post	2		12	49.0	2.5	/experiments/knapen_AOT/AOT_stimuli/rescaled_final/1419_fw.mp4	0.0	277.4584581851959	0.10001206398010254
52	234.85988306999207	fix_pre	0		120	50.0	2.5	/experiments/knapen_AOT/AOT_stimuli/rescaled_final/2158_rv.mp4	0.0	277.558470249176	1.000082015991211
52	235.04335808753967	pulse	0	t		50.0	2.5	/experiments/knapen_AOT/AOT_stimuli/rescaled_final/2158_rv.mp4	0.0	277.74194526672363	
52	235.85996508598328	movie	1		242	50.0	2.5	/experiments/knapen_AOT/AOT_stimuli/rescaled_final/2158_rv.mp4	0.0	278.55855226516724	2.5004940032958984
52	236.64371514320374	pulse	1	t		50.0	2.5	/experiments/knapen_AOT/AOT_stimuli/rescaled_final/2158_rv.mp4	0.0	279.3423023223877	
52	238.24459099769592	pulse	1	t		50.0	2.5	/experiments/knapen_AOT/AOT_stimuli/rescaled_final/2158_rv.mp4	0.0	280.9431781768799	
52	238.36045908927917	fix_post	2		12	50.0	2.5	/experiments/knapen_AOT/AOT_stimuli/rescaled_final/2158_rv.mp4	0.0	281.05904626846313	0.09992694854736328
53	238.46038603782654	fix_pre	0		120	51.0	2.5	/experiments/knapen_AOT/AOT_stimuli/rescaled_final/1172_fw.mp4	0.0	281.1589732170105	1.0001189708709717
53	239.4605050086975	movie	1		241	51.0	2.5	/experiments/knapen_AOT/AOT_stimuli/rescaled_final/1172_fw.mp4	0.0	282.15909218788147	2.492142915725708
53	239.8446500301361	pulse	1	t		51.0	2.5	/experiments/knapen_AOT/AOT_stimuli/rescaled_final/1172_fw.mp4	0.0	282.54323720932007	
53	241.4443039894104	pulse	1	t		51.0	2.5	/experiments/knapen_AOT/AOT_stimuli/rescaled_final/1172_fw.mp4	0.0	284.14289116859436	
53	241.95264792442322	fix_post	2		12	51.0	2.5	/experiments/knapen_AOT/AOT_stimuli/rescaled_final/1172_fw.mp4	0.0	284.6512351036072	0.09991621971130371
54	242.05256414413452	fix_pre	0		120	52.0	2.5	/experiments/knapen_AOT/AOT_stimuli/rescaled_final/0493_rv.mp4	0.0	284.7511513233185	1.000091791152954
54	243.04456496238708	pulse	0	t		52.0	2.5	/experiments/knapen_AOT/AOT_stimuli/rescaled_final/0493_rv.mp4	0.0	285.74315214157104	
54	243.05265593528748	movie	1		243	52.0	2.5	/experiments/knapen_AOT/AOT_stimuli/rescaled_final/0493_rv.mp4	0.0	285.75124311447144	2.5088541507720947
54	244.64631009101868	pulse	1	t		52.0	2.5	/experiments/knapen_AOT/AOT_stimuli/rescaled_final/0493_rv.mp4	0.0	287.34489727020264	
54	245.56151008605957	fix_post	2		12	52.0	2.5	/experiments/knapen_AOT/AOT_stimuli/rescaled_final/0493_rv.mp4	0.0	288.26009726524353	0.10002994537353516
55	245.6615400314331	fix_pre	0		120	53.0	2.5	/experiments/knapen_AOT/AOT_stimuli/rescaled_final/1840_rv.mp4	0.0	288.36012721061707	1.0000429153442383
55	246.24504613876343	pulse	0	t		53.0	2.5	/experiments/knapen_AOT/AOT_stimuli/rescaled_final/1840_rv.mp4	0.0	288.9436333179474	
55	246.66158294677734	movie	1		242	53.0	2.5	/experiments/knapen_AOT/AOT_stimuli/rescaled_final/1840_rv.mp4	0.0	289.3601701259613	2.500338077545166
55	247.84531712532043	pulse	1	t		53.0	2.5	/experiments/knapen_AOT/AOT_stimuli/rescaled_final/1840_rv.mp4	0.0	290.5439043045044	
55	249.1619210243225	fix_post	2		10	53.0	2.5	/experiments/knapen_AOT/AOT_stimuli/rescaled_final/1840_rv.mp4	0.0	291.86050820350647	0.10001301765441895
56	249.26193404197693	fix_pre	0		120	54.0	2.5	/experiments/knapen_AOT/AOT_stimuli/rescaled_final/0331_fw.mp4	0.0	291.9605212211609	1.0002520084381104
56	249.44563913345337	pulse	0	t		54.0	2.5	/experiments/knapen_AOT/AOT_stimuli/rescaled_final/0331_fw.mp4	0.0	292.14422631263733	
56	250.26218605041504	movie	1		242	54.0	2.5	/experiments/knapen_AOT/AOT_stimuli/rescaled_final/0331_fw.mp4	0.0	292.960773229599	2.500432014465332
56	251.04583406448364	pulse	1	t		54.0	2.5	/experiments/knapen_AOT/AOT_stimuli/rescaled_final/0331_fw.mp4	0.0	293.7444212436676	
56	252.64711499214172	pulse	1	t		54.0	2.5	/experiments/knapen_AOT/AOT_stimuli/rescaled_final/0331_fw.mp4	0.0	295.3457021713257	
56	252.76261806488037	fix_post	2		12	54.0	2.5	/experiments/knapen_AOT/AOT_stimuli/rescaled_final/0331_fw.mp4	0.0	295.46120524406433	0.09991693496704102
57	252.8625349998474	fix_pre	0		120	55.0	2.5	/experiments/knapen_AOT/AOT_stimuli/rescaled_final/0326_fw.mp4	0.0	295.5611221790314	1.0001990795135498
57	253.86273407936096	movie	1		243	55.0	2.5	/experiments/knapen_AOT/AOT_stimuli/rescaled_final/0326_fw.mp4	0.0	296.5613212585449	2.4919118881225586
57	254.24667191505432	pulse	1	t		55.0	2.5	/experiments/knapen_AOT/AOT_stimuli/rescaled_final/0326_fw.mp4	0.0	296.9452590942383	
57	255.83903408050537	pulse	1	t		55.0	2.5	/experiments/knapen_AOT/AOT_stimuli/rescaled_final/0326_fw.mp4	0.0	298.53762125968933	
57	256.3546459674835	fix_post	2		12	55.0	2.5	/experiments/knapen_AOT/AOT_stimuli/rescaled_final/0326_fw.mp4	0.0	299.0532331466675	0.10006213188171387
58	256.45470809936523	fix_pre	0		120	56.0	2.5	blank	1.0	299.1532952785492	1.000140905380249
58	257.4391520023346	pulse	0	t		56.0	2.5	blank	1.0	300.13773918151855	
58	257.4548490047455	movie	1		301	56.0	2.5	blank	1.0	300.15343618392944	2.5087130069732666
58	259.03945994377136	pulse	1	t		56.0	2.5	blank	1.0	301.7380471229553	
58	259.96356201171875	fix_post	2		12	56.0	2.5	blank	1.0	302.6621491909027	0.1000370979309082
59	260.06359910964966	fix_pre	0		120	57.0	2.5	/experiments/knapen_AOT/AOT_stimuli/rescaled_final/1100_fw.mp4	0.0	302.7621862888336	1.000105857849121
59	260.6396939754486	pulse	0	t		57.0	2.5	/experiments/knapen_AOT/AOT_stimuli/rescaled_final/1100_fw.mp4	0.0	303.33828115463257	
59	261.0637049674988	movie	1		242	57.0	2.5	/experiments/knapen_AOT/AOT_stimuli/rescaled_final/1100_fw.mp4	0.0	303.76229214668274	2.500370979309082
59	262.2395980358124	pulse	1	t		57.0	2.5	/experiments/knapen_AOT/AOT_stimuli/rescaled_final/1100_fw.mp4	0.0	304.93818521499634	
59	263.56407594680786	fix_post	2		12	57.0	2.5	/experiments/knapen_AOT/AOT_stimuli/rescaled_final/1100_fw.mp4	0.0	306.2626631259918	0.10011696815490723
60	263.66419291496277	fix_pre	0		120	58.0	2.5	/experiments/knapen_AOT/AOT_stimuli/rescaled_final/0760_rv.mp4	0.0	306.36278009414673	1.0000700950622559
60	263.83926606178284	pulse	0	t		58.0	2.5	/experiments/knapen_AOT/AOT_stimuli/rescaled_final/0760_rv.mp4	0.0	306.5378532409668	
60	264.664263010025	movie	1		243	58.0	2.5	/experiments/knapen_AOT/AOT_stimuli/rescaled_final/0760_rv.mp4	0.0	307.362850189209	2.5005009174346924
60	265.4395160675049	pulse	1	t		58.0	2.5	/experiments/knapen_AOT/AOT_stimuli/rescaled_final/0760_rv.mp4	0.0	308.13810324668884	
60	267.03989696502686	pulse	1	t		58.0	2.5	/experiments/knapen_AOT/AOT_stimuli/rescaled_final/0760_rv.mp4	0.0	309.7384841442108	
60	267.1647639274597	fix_post	2		12	58.0	2.5	/experiments/knapen_AOT/AOT_stimuli/rescaled_final/0760_rv.mp4	0.0	309.8633511066437	0.09994721412658691
61	267.2647111415863	fix_pre	0		120	59.0	2.5	/experiments/knapen_AOT/AOT_stimuli/rescaled_final/1189_rv.mp4	0.0	309.96329832077026	1.0000889301300049
61	268.2648000717163	movie	1		241	59.0	2.5	/experiments/knapen_AOT/AOT_stimuli/rescaled_final/1189_rv.mp4	0.0	310.96338725090027	2.4921388626098633
61	268.6400570869446	pulse	1	t		59.0	2.5	/experiments/knapen_AOT/AOT_stimuli/rescaled_final/1189_rv.mp4	0.0	311.33864426612854	
61	270.240266084671	pulse	1	t		59.0	2.5	/experiments/knapen_AOT/AOT_stimuli/rescaled_final/1189_rv.mp4	0.0	312.938853263855	
61	270.7569389343262	fix_post	2		12	59.0	2.5	/experiments/knapen_AOT/AOT_stimuli/rescaled_final/1189_rv.mp4	0.0	313.45552611351013	0.09994101524353027
62	270.8568799495697	fix_pre	0		119	60.0	2.5	/experiments/knapen_AOT/AOT_stimuli/rescaled_final/1311_fw.mp4	0.0	313.55546712875366	0.9917690753936768
62	271.8404891490936	pulse	0	t		60.0	2.5	/experiments/knapen_AOT/AOT_stimuli/rescaled_final/1311_fw.mp4	0.0	314.5390763282776	
62	271.8486490249634	movie	1		244	60.0	2.5	/experiments/knapen_AOT/AOT_stimuli/rescaled_final/1311_fw.mp4	0.0	314.54723620414734	2.50871205329895
62	273.441339969635	pulse	1	t		60.0	2.5	/experiments/knapen_AOT/AOT_stimuli/rescaled_final/1311_fw.mp4	0.0	316.13992714881897	
62	274.35736107826233	fix_post	2		12	60.0	2.5	/experiments/knapen_AOT/AOT_stimuli/rescaled_final/1311_fw.mp4	0.0	317.0559482574463	0.10004806518554688
63	274.4574091434479	fix_pre	0		120	61.0	2.5	/experiments/knapen_AOT/AOT_stimuli/rescaled_final/0208_rv.mp4	0.0	317.15599632263184	1.000140905380249
63	275.0410659313202	pulse	0	t		61.0	2.5	/experiments/knapen_AOT/AOT_stimuli/rescaled_final/0208_rv.mp4	0.0	317.73965311050415	
63	275.4575500488281	movie	1		242	61.0	2.5	/experiments/knapen_AOT/AOT_stimuli/rescaled_final/0208_rv.mp4	0.0	318.1561372280121	2.50032901763916
63	276.641263961792	pulse	1	t		61.0	2.5	/experiments/knapen_AOT/AOT_stimuli/rescaled_final/0208_rv.mp4	0.0	319.33985114097595	
63	277.9578790664673	fix_post	2		12	61.0	2.5	/experiments/knapen_AOT/AOT_stimuli/rescaled_final/0208_rv.mp4	0.0	320.65646624565125	0.10002589225769043
64	278.057904958725	fix_pre	0		120	62.0	2.5	blank	1.0	320.75649213790894	1.0001330375671387
64	278.24145913124084	pulse	0	t		62.0	2.5	blank	1.0	320.9400463104248	
64	279.0580379962921	movie	1		300	62.0	2.5	blank	1.0	321.7566251754761	2.50040602684021
64	279.8416600227356	pulse	1	t		62.0	2.5	blank	1.0	322.54024720191956	
64	281.44199109077454	pulse	1	t		62.0	2.5	blank	1.0	324.1405782699585	
64	281.5584440231323	fix_post	2		12	62.0	2.5	blank	1.0	324.2570312023163	0.1000680923461914
65	281.6585121154785	fix_pre	0		120	63.0	2.5	/experiments/knapen_AOT/AOT_stimuli/rescaled_final/1601_rv.mp4	0.0	324.3570992946625	1.00010085105896
65	282.6586129665375	movie	1		241	63.0	2.5	/experiments/knapen_AOT/AOT_stimuli/rescaled_final/1601_rv.mp4	0.0	325.35720014572144	2.492197036743164
65	283.0429401397705	pulse	1	t		63.0	2.5	/experiments/knapen_AOT/AOT_stimuli/rescaled_final/1601_rv.mp4	0.0	325.74152731895447	
65	284.6424810886383	pulse	1	t		63.0	2.5	/experiments/knapen_AOT/AOT_stimuli/rescaled_final/1601_rv.mp4	0.0	327.34106826782227	
65	285.15081000328064	fix_post	2		12	63.0	2.5	/experiments/knapen_AOT/AOT_stimuli/rescaled_final/1601_rv.mp4	0.0	327.8493971824646	0.0998380184173584
66	285.250648021698	fix_pre	0		120	64.0	2.5	/experiments/knapen_AOT/AOT_stimuli/rescaled_final/0339_rv.mp4	0.0	327.94923520088196	1.00018310546875
66	286.2427840232849	pulse	0	t		64.0	2.5	/experiments/knapen_AOT/AOT_stimuli/rescaled_final/0339_rv.mp4	0.0	328.9413712024689	
66	286.25083112716675	movie	1		244	64.0	2.5	/experiments/knapen_AOT/AOT_stimuli/rescaled_final/0339_rv.mp4	0.0	328.9494183063507	2.5086917877197266
66	287.84339213371277	pulse	1	t		64.0	2.5	/experiments/knapen_AOT/AOT_stimuli/rescaled_final/0339_rv.mp4	0.0	330.54197931289673	
66	288.7595229148865	fix_post	2		12	64.0	2.5	/experiments/knapen_AOT/AOT_stimuli/rescaled_final/0339_rv.mp4	0.0	331.45811009407043	0.1000220775604248
67	288.8595449924469	fix_pre	0		120	65.0	2.5	/experiments/knapen_AOT/AOT_stimuli/rescaled_final/1808_rv.mp4	0.0	331.55813217163086	1.0001239776611328
67	289.4432120323181	pulse	0	t		65.0	2.5	/experiments/knapen_AOT/AOT_stimuli/rescaled_final/1808_rv.mp4	0.0	332.1417992115021	
67	289.85966897010803	movie	1		242	65.0	2.5	/experiments/knapen_AOT/AOT_stimuli/rescaled_final/1808_rv.mp4	0.0	332.558256149292	2.500437021255493
67	291.0435049533844	pulse	1	t		65.0	2.5	/experiments/knapen_AOT/AOT_stimuli/rescaled_final/1808_rv.mp4	0.0	333.74209213256836	
67	292.3601059913635	fix_post	2		12	65.0	2.5	/experiments/knapen_AOT/AOT_stimuli/rescaled_final/1808_rv.mp4	0.0	335.0586931705475	0.09994912147521973
68	292.46005511283875	fix_pre	0		120	66.0	2.5	/experiments/knapen_AOT/AOT_stimuli/rescaled_final/0366_rv.mp4	0.0	335.1586422920227	1.000173807144165
68	292.6436619758606	pulse	0	t		66.0	2.5	/experiments/knapen_AOT/AOT_stimuli/rescaled_final/0366_rv.mp4	0.0	335.34224915504456	
68	293.4602289199829	movie	1		243	66.0	2.5	/experiments/knapen_AOT/AOT_stimuli/rescaled_final/0366_rv.mp4	0.0	336.15881609916687	2.500359058380127
68	294.24397897720337	pulse	1	t		66.0	2.5	/experiments/knapen_AOT/AOT_stimuli/rescaled_final/0366_rv.mp4	0.0	336.94256615638733	
68	295.84397411346436	pulse	1	t		66.0	2.5	/experiments/knapen_AOT/AOT_stimuli/rescaled_final/0366_rv.mp4	0.0	338.5425612926483	
68	295.96058797836304	fix_post	2		12	66.0	2.5	/experiments/knapen_AOT/AOT_stimuli/rescaled_final/0366_rv.mp4	0.0	338.659175157547	0.100006103515625
69	296.06059408187866	fix_pre	0		120	67.0	2.5	/experiments/knapen_AOT/AOT_stimuli/rescaled_final/0719_rv.mp4	0.0	338.7591812610626	1.0001890659332275
69	297.0607831478119	movie	1		242	67.0	2.5	/experiments/knapen_AOT/AOT_stimuli/rescaled_final/0719_rv.mp4	0.0	339.75937032699585	2.492100954055786
69	297.4455659389496	pulse	1	t		67.0	2.5	/experiments/knapen_AOT/AOT_stimuli/rescaled_final/0719_rv.mp4	0.0	340.14415311813354	
69	299.04454493522644	pulse	1	t		67.0	2.5	/experiments/knapen_AOT/AOT_stimuli/rescaled_final/0719_rv.mp4	0.0	341.7431321144104	
69	299.5528841018677	fix_post	2		12	67.0	2.5	/experiments/knapen_AOT/AOT_stimuli/rescaled_final/0719_rv.mp4	0.0	342.25147128105164	0.09993100166320801
70	299.6528151035309	fix_pre	0		120	68.0	2.5	/experiments/knapen_AOT/AOT_stimuli/rescaled_final/0811_rv.mp4	0.0	342.35140228271484	1.000147819519043
70	300.6448919773102	pulse	0	t		68.0	2.5	/experiments/knapen_AOT/AOT_stimuli/rescaled_final/0811_rv.mp4	0.0	343.34347915649414	
70	300.6529629230499	movie	1		245	68.0	2.5	/experiments/knapen_AOT/AOT_stimuli/rescaled_final/0811_rv.mp4	0.0	343.3515501022339	2.5088131427764893
70	302.246178150177	pulse	1	t		68.0	2.5	/experiments/knapen_AOT/AOT_stimuli/rescaled_final/0811_rv.mp4	0.0	344.94476532936096	
70	303.1617760658264	fix_post	2		12	68.0	2.5	/experiments/knapen_AOT/AOT_stimuli/rescaled_final/0811_rv.mp4	0.0	345.8603632450104	0.09993195533752441
71	303.26170802116394	fix_pre	0		120	69.0	2.5	/experiments/knapen_AOT/AOT_stimuli/rescaled_final/0160_fw.mp4	0.0	345.9602952003479	1.000119924545288
71	303.84525895118713	pulse	0	t		69.0	2.5	/experiments/knapen_AOT/AOT_stimuli/rescaled_final/0160_fw.mp4	0.0	346.5438461303711	
71	304.26182794570923	movie	1		242	69.0	2.5	/experiments/knapen_AOT/AOT_stimuli/rescaled_final/0160_fw.mp4	0.0	346.9604151248932	2.5005321502685547
71	305.4456150531769	pulse	1	t		69.0	2.5	/experiments/knapen_AOT/AOT_stimuli/rescaled_final/0160_fw.mp4	0.0	348.14420223236084	
71	306.7623600959778	fix_post	2		12	69.0	2.5	/experiments/knapen_AOT/AOT_stimuli/rescaled_final/0160_fw.mp4	0.0	349.46094727516174	0.09989404678344727
72	306.86225414276123	fix_pre	0		120	70.0	2.5	blank	1.0	349.5608413219452	1.0001368522644043
72	307.0457561016083	pulse	0	t		70.0	2.5	blank	1.0	349.74434328079224	
72	307.86239099502563	movie	1		300	70.0	2.5	blank	1.0	350.5609781742096	2.5003409385681152
72	308.64609599113464	pulse	1	t		70.0	2.5	blank	1.0	351.3446831703186	
72	310.2462019920349	pulse	1	t		70.0	2.5	blank	1.0	352.9447891712189	
72	310.36273193359375	fix_post	2		12	70.0	2.5	blank	1.0	353.0613191127777	0.10004615783691406
73	310.46277809143066	fix_pre	0		117	71.0	2.5	/experiments/knapen_AOT/AOT_stimuli/rescaled_final/0607_rv.mp4	0.0	353.1613652706146	1.0001180171966553
73	311.4628961086273	movie	1		242	71.0	2.5	/experiments/knapen_AOT/AOT_stimuli/rescaled_final/0607_rv.mp4	0.0	354.1614832878113	2.492133855819702
73	311.8475069999695	pulse	1	t		71.0	2.5	/experiments/knapen_AOT/AOT_stimuli/rescaled_final/0607_rv.mp4	0.0	354.54609417915344	
73	313.446720123291	pulse	1	t		71.0	2.5	/experiments/knapen_AOT/AOT_stimuli/rescaled_final/0607_rv.mp4	0.0	356.145307302475	
73	313.955029964447	fix_post	2		12	71.0	2.5	/experiments/knapen_AOT/AOT_stimuli/rescaled_final/0607_rv.mp4	0.0	356.653617143631	0.09992814064025879
74	314.0549581050873	fix_pre	0		120	72.0	2.5	/experiments/knapen_AOT/AOT_stimuli/rescaled_final/0549_fw.mp4	0.0	356.75354528427124	1.000135898590088
74	315.03935194015503	pulse	0	t		72.0	2.5	/experiments/knapen_AOT/AOT_stimuli/rescaled_final/0549_fw.mp4	0.0	357.737939119339	
74	315.05509400367737	movie	1		243	72.0	2.5	/experiments/knapen_AOT/AOT_stimuli/rescaled_final/0549_fw.mp4	0.0	357.7536811828613	2.50872802734375
74	316.64868092536926	pulse	1	t		72.0	2.5	/experiments/knapen_AOT/AOT_stimuli/rescaled_final/0549_fw.mp4	0.0	359.3472681045532	
74	317.5638220310211	fix_post	2		12	72.0	2.5	/experiments/knapen_AOT/AOT_stimuli/rescaled_final/0549_fw.mp4	0.0	360.2624092102051	0.1000359058380127
75	317.66385793685913	fix_pre	0		120	73.0	2.5	/experiments/knapen_AOT/AOT_stimuli/rescaled_final/1206_rv.mp4	0.0	360.3624451160431	1.0001440048217773
75	318.23904299736023	pulse	0	t		73.0	2.5	/experiments/knapen_AOT/AOT_stimuli/rescaled_final/1206_rv.mp4	0.0	360.9376301765442	
75	318.6640019416809	movie	1		243	73.0	2.5	/experiments/knapen_AOT/AOT_stimuli/rescaled_final/1206_rv.mp4	0.0	361.36258912086487	2.500352144241333
75	319.84006905555725	pulse	1	t		73.0	2.5	/experiments/knapen_AOT/AOT_stimuli/rescaled_final/1206_rv.mp4	0.0	362.5386562347412	
75	321.16435408592224	fix_post	2		12	73.0	2.5	/experiments/knapen_AOT/AOT_stimuli/rescaled_final/1206_rv.mp4	0.0	363.8629412651062	0.10004091262817383
76	321.2643949985504	fix_pre	0		120	74.0	2.5	/experiments/knapen_AOT/AOT_stimuli/rescaled_final/0202_rv.mp4	0.0	363.9629821777344	1.0001411437988281
76	321.43959498405457	pulse	0	t		74.0	2.5	/experiments/knapen_AOT/AOT_stimuli/rescaled_final/0202_rv.mp4	0.0	364.1381821632385	
76	322.26453614234924	movie	1		243	74.0	2.5	/experiments/knapen_AOT/AOT_stimuli/rescaled_final/0202_rv.mp4	0.0	364.9631233215332	2.500412940979004
76	323.0398111343384	pulse	1	t		74.0	2.5	/experiments/knapen_AOT/AOT_stimuli/rescaled_final/0202_rv.mp4	0.0	365.73839831352234	
76	324.64015102386475	pulse	1	t		74.0	2.5	/experiments/knapen_AOT/AOT_stimuli/rescaled_final/0202_rv.mp4	0.0	367.3387382030487	
76	324.76494908332825	fix_post	2		12	74.0	2.5	/experiments/knapen_AOT/AOT_stimuli/rescaled_final/0202_rv.mp4	0.0	367.4635362625122	0.09995484352111816
77	324.86490392684937	fix_pre	0		120	75.0	2.5	/experiments/knapen_AOT/AOT_stimuli/rescaled_final/1962_rv.mp4	0.0	367.5634911060333	1.0001170635223389
77	325.8650209903717	movie	1		243	75.0	2.5	/experiments/knapen_AOT/AOT_stimuli/rescaled_final/1962_rv.mp4	0.0	368.56360816955566	2.492043972015381
77	326.2403280735016	pulse	1	t		75.0	2.5	/experiments/knapen_AOT/AOT_stimuli/rescaled_final/1962_rv.mp4	0.0	368.93891525268555	
77	327.84065294265747	pulse	1	t		75.0	2.5	/experiments/knapen_AOT/AOT_stimuli/rescaled_final/1962_rv.mp4	0.0	370.53924012184143	
77	328.3570649623871	fix_post	2		12	75.0	2.5	/experiments/knapen_AOT/AOT_stimuli/rescaled_final/1962_rv.mp4	0.0	371.05565214157104	0.10004210472106934
78	328.45710706710815	fix_pre	0		119	76.0	2.5	/experiments/knapen_AOT/AOT_stimuli/rescaled_final/0355_fw.mp4	0.0	371.1556942462921	0.991797924041748
78	329.4407739639282	pulse	0	t		76.0	2.5	/experiments/knapen_AOT/AOT_stimuli/rescaled_final/0355_fw.mp4	0.0	372.1393611431122	
78	329.4489049911499	movie	1		245	76.0	2.5	/experiments/knapen_AOT/AOT_stimuli/rescaled_final/0355_fw.mp4	0.0	372.14749217033386	2.5086801052093506
78	331.04168605804443	pulse	1	t		76.0	2.5	/experiments/knapen_AOT/AOT_stimuli/rescaled_final/0355_fw.mp4	0.0	373.7402732372284	
78	331.95758509635925	fix_post	2		12	76.0	2.5	/experiments/knapen_AOT/AOT_stimuli/rescaled_final/0355_fw.mp4	0.0	374.6561722755432	0.10005998611450195
79	332.05764508247375	fix_pre	0		120	77.0	2.5	blank	1.0	374.7562322616577	1.0001578330993652
79	332.6411819458008	pulse	0	t		77.0	2.5	blank	1.0	375.33976912498474	
79	333.0578029155731	movie	1		300	77.0	2.5	blank	1.0	375.7563900947571	2.5003390312194824
79	334.2416150569916	pulse	1	t		77.0	2.5	blank	1.0	376.94020223617554	
79	335.5581419467926	fix_post	2		12	77.0	2.5	blank	1.0	378.25672912597656	0.10006999969482422
80	335.6582119464874	fix_pre	0		120	78.0	2.5	/experiments/knapen_AOT/AOT_stimuli/rescaled_final/1342_fw.mp4	0.0	378.3567991256714	1.0001649856567383
80	335.84181904792786	pulse	0	t		78.0	2.5	/experiments/knapen_AOT/AOT_stimuli/rescaled_final/1342_fw.mp4	0.0	378.5404062271118	
80	336.65837693214417	movie	1		243	78.0	2.5	/experiments/knapen_AOT/AOT_stimuli/rescaled_final/1342_fw.mp4	0.0	379.3569641113281	2.500394105911255
80	337.4419529438019	pulse	1	t		78.0	2.5	/experiments/knapen_AOT/AOT_stimuli/rescaled_final/1342_fw.mp4	0.0	380.14054012298584	
80	339.0420639514923	pulse	1	t		78.0	2.5	/experiments/knapen_AOT/AOT_stimuli/rescaled_final/1342_fw.mp4	0.0	381.74065113067627	
80	339.1587710380554	fix_post	2		12	78.0	2.5	/experiments/knapen_AOT/AOT_stimuli/rescaled_final/1342_fw.mp4	0.0	381.8573582172394	0.09995508193969727
81	339.2587261199951	fix_pre	0		120	79.0	2.5	/experiments/knapen_AOT/AOT_stimuli/rescaled_final/1776_rv.mp4	0.0	381.9573132991791	1.0001208782196045
81	340.2588469982147	movie	1		241	79.0	2.5	/experiments/knapen_AOT/AOT_stimuli/rescaled_final/1776_rv.mp4	0.0	382.9574341773987	2.492093086242676
81	340.6434910297394	pulse	1	t		79.0	2.5	/experiments/knapen_AOT/AOT_stimuli/rescaled_final/1776_rv.mp4	0.0	383.34207820892334	
81	342.24280309677124	pulse	1	t		79.0	2.5	/experiments/knapen_AOT/AOT_stimuli/rescaled_final/1776_rv.mp4	0.0	384.9413902759552	
81	342.7509400844574	fix_post	2		12	79.0	2.5	/experiments/knapen_AOT/AOT_stimuli/rescaled_final/1776_rv.mp4	0.0	385.44952726364136	0.09996700286865234
82	342.85090708732605	fix_pre	0		120	80.0	2.5	/experiments/knapen_AOT/AOT_stimuli/rescaled_final/1168_fw.mp4	0.0	385.54949426651	1.0001299381256104
82	343.84293603897095	pulse	0	t		80.0	2.5	/experiments/knapen_AOT/AOT_stimuli/rescaled_final/1168_fw.mp4	0.0	386.5415232181549	
82	343.85103702545166	movie	1		244	80.0	2.5	/experiments/knapen_AOT/AOT_stimuli/rescaled_final/1168_fw.mp4	0.0	386.5496242046356	2.508739948272705
82	345.44766998291016	pulse	1	t		80.0	2.5	/experiments/knapen_AOT/AOT_stimuli/rescaled_final/1168_fw.mp4	0.0	388.1462571620941	
82	346.35977697372437	fix_post	2		12	80.0	2.5	/experiments/knapen_AOT/AOT_stimuli/rescaled_final/1168_fw.mp4	0.0	389.0583641529083	0.10001301765441895
83	346.4597899913788	fix_pre	0		120	81.0	2.5	/experiments/knapen_AOT/AOT_stimuli/rescaled_final/0975_fw.mp4	0.0	389.15837717056274	1.0001540184020996
83	347.04351115226746	pulse	0	t		81.0	2.5	/experiments/knapen_AOT/AOT_stimuli/rescaled_final/0975_fw.mp4	0.0	389.7420983314514	
83	347.4599440097809	movie	1		242	81.0	2.5	/experiments/knapen_AOT/AOT_stimuli/rescaled_final/0975_fw.mp4	0.0	390.15853118896484	2.5003890991210938
83	348.6438241004944	pulse	1	t		81.0	2.5	/experiments/knapen_AOT/AOT_stimuli/rescaled_final/0975_fw.mp4	0.0	391.34241127967834	
83	349.960333108902	fix_post	2		12	81.0	2.5	/experiments/knapen_AOT/AOT_stimuli/rescaled_final/0975_fw.mp4	0.0	392.65892028808594	0.10001492500305176
84	350.06034803390503	fix_pre	0		120	82.0	2.5	blank	1.0	392.758935213089	1.0001249313354492
84	350.2439589500427	pulse	0	t		82.0	2.5	blank	1.0	392.9425461292267	
84	351.0604729652405	movie	1		300	82.0	2.5	blank	1.0	393.75906014442444	2.500386953353882
84	351.84405994415283	pulse	1	t		82.0	2.5	blank	1.0	394.5426471233368	
84	353.4443430900574	pulse	1	t		82.0	2.5	blank	1.0	396.14293026924133	
84	353.56085991859436	fix_post	2		12	82.0	2.5	blank	1.0	396.2594470977783	0.10001420974731445
85	353.6608741283417	fix_pre	0		120	83.0	2.5	/experiments/knapen_AOT/AOT_stimuli/rescaled_final/0277_rv.mp4	0.0	396.35946130752563	1.000140905380249
85	354.6610150337219	movie	1		241	83.0	2.5	/experiments/knapen_AOT/AOT_stimuli/rescaled_final/0277_rv.mp4	0.0	397.3596022129059	2.4920859336853027
85	355.04521107673645	pulse	1	t		83.0	2.5	/experiments/knapen_AOT/AOT_stimuli/rescaled_final/0277_rv.mp4	0.0	397.7437982559204	
85	356.64492106437683	pulse	1	t		83.0	2.5	/experiments/knapen_AOT/AOT_stimuli/rescaled_final/0277_rv.mp4	0.0	399.3435082435608	
85	357.1531009674072	fix_post	2		12	83.0	2.5	/experiments/knapen_AOT/AOT_stimuli/rescaled_final/0277_rv.mp4	0.0	399.8516881465912	0.09993600845336914
87	357.2530369758606	stim	0		1716					399.95162415504456	14.302170038223267
87	358.2450981140137	pulse	0	t						400.94368529319763	
87	359.8452410697937	pulse	0	t						402.54382824897766	
87	361.44558000564575	pulse	0	t						404.1441671848297	
87	363.04584407806396	pulse	0	t						405.7444312572479	
87	364.64598512649536	pulse	0	t						407.3445723056793	
87	366.2461380958557	pulse	0	t						408.9447252750397	
87	367.84647393226624	pulse	0	t						410.5450611114502	
87	369.4393241405487	pulse	0	t						412.13791131973267	
87	371.03960609436035	pulse	0	t						413.7381932735443	
