trial_nr	onset	event_type	phase	response	nr_frames	movie_index	movie_duration	movie_file	blank	onset_abs	duration
0	0.14996886253356934	stim	0		97					34.87060499191284	0.8083040714263916
0	0.9503309726715088	response	0	space						35.67096710205078	
1	0.9582729339599609	stim	0		4980					35.67890906333923	41.4998300075531
1	42.45193886756897	pulse	0	t						77.17257499694824	
1	42.45810294151306	stim	1		1717					77.17873907089233	14.308274030685425
1	44.04993987083435	pulse	1	t						78.77057600021362	
1	45.64989495277405	pulse	1	t						80.37053108215332	
1	47.24985694885254	pulse	1	t						81.97049307823181	
1	48.84986996650696	pulse	1	t						83.57050609588623	
1	50.449875831604004	pulse	1	t						85.17051196098328	
1	52.04983997344971	pulse	1	t						86.77047610282898	
1	53.64973998069763	pulse	1	t						88.3703761100769	
1	55.24976587295532	pulse	1	t						89.9704020023346	
2	56.766376972198486	fix_pre	0		11	0.0	2.5	/experiments/AOT/AOT_stimuli/rescaled_final/0087_fw.mp4	0.0	91.48701310157776	0.09163904190063477
2	56.8497679233551	pulse	0	t		0.0	2.5	/experiments/AOT/AOT_stimuli/rescaled_final/0087_fw.mp4	0.0	91.57040405273438	
2	56.85801601409912	movie	1		246	0.0	2.5	/experiments/AOT/AOT_stimuli/rescaled_final/0087_fw.mp4	0.0	91.5786521434784	2.5084500312805176
2	58.449710845947266	pulse	1	t		0.0	2.5	/experiments/AOT/AOT_stimuli/rescaled_final/0087_fw.mp4	0.0	93.17034697532654	
2	59.36646604537964	fix_post	2		12	0.0	2.5	/experiments/AOT/AOT_stimuli/rescaled_final/0087_fw.mp4	0.0	94.08710217475891	0.09987378120422363
3	59.46633982658386	fix_pre	0		120	1.0	2.5	/experiments/AOT/AOT_stimuli/rescaled_final/0168_fw.mp4	0.0	94.18697595596313	1.0000150203704834
3	60.04986786842346	pulse	0	t		1.0	2.5	/experiments/AOT/AOT_stimuli/rescaled_final/0168_fw.mp4	0.0	94.77050399780273	
3	60.466354846954346	movie	1		244	1.0	2.5	/experiments/AOT/AOT_stimuli/rescaled_final/0168_fw.mp4	0.0	95.18699097633362	2.5000221729278564
3	61.64978384971619	pulse	1	t		1.0	2.5	/experiments/AOT/AOT_stimuli/rescaled_final/0168_fw.mp4	0.0	96.37041997909546	
3	62.9663770198822	fix_post	2		12	1.0	2.5	/experiments/AOT/AOT_stimuli/rescaled_final/0168_fw.mp4	0.0	97.68701314926147	0.09996485710144043
4	63.06634187698364	fix_pre	0		120	2.0	2.5	/experiments/AOT/AOT_stimuli/rescaled_final/0174_rv.mp4	0.0	97.78697800636292	0.9999680519104004
4	63.249987840652466	pulse	0	t		2.0	2.5	/experiments/AOT/AOT_stimuli/rescaled_final/0174_rv.mp4	0.0	97.97062397003174	
4	64.06630992889404	movie	1		245	2.0	2.5	/experiments/AOT/AOT_stimuli/rescaled_final/0174_rv.mp4	0.0	98.78694605827332	2.500092029571533
4	64.84981298446655	pulse	1	t		2.0	2.5	/experiments/AOT/AOT_stimuli/rescaled_final/0174_rv.mp4	0.0	99.57044911384583	
4	66.44863700866699	pulse	1	t		2.0	2.5	/experiments/AOT/AOT_stimuli/rescaled_final/0174_rv.mp4	0.0	101.16927313804626	
4	66.56640195846558	fix_post	2		12	2.0	2.5	/experiments/AOT/AOT_stimuli/rescaled_final/0174_rv.mp4	0.0	101.28703808784485	0.0998530387878418
5	66.66625499725342	fix_pre	0		120	3.0	2.5	/experiments/AOT/AOT_stimuli/rescaled_final/1559_fw.mp4	0.0	101.38689112663269	0.9999990463256836
5	67.6662540435791	movie	1		243	3.0	2.5	/experiments/AOT/AOT_stimuli/rescaled_final/1559_fw.mp4	0.0	102.38689017295837	2.499969005584717
5	68.05105900764465	pulse	1	t		3.0	2.5	/experiments/AOT/AOT_stimuli/rescaled_final/1559_fw.mp4	0.0	102.77169513702393	
5	69.64976692199707	pulse	1	t		3.0	2.5	/experiments/AOT/AOT_stimuli/rescaled_final/1559_fw.mp4	0.0	104.37040305137634	
5	70.16622304916382	fix_post	2		12	3.0	2.5	/experiments/AOT/AOT_stimuli/rescaled_final/1559_fw.mp4	0.0	104.88685917854309	0.10001587867736816
6	70.26623892784119	fix_pre	0		119	4.0	2.5	/experiments/AOT/AOT_stimuli/rescaled_final/1275_rv.mp4	0.0	104.98687505722046	0.9917240142822266
6	71.2498288154602	pulse	0	t		4.0	2.5	/experiments/AOT/AOT_stimuli/rescaled_final/1275_rv.mp4	0.0	105.97046494483948	
6	71.25796294212341	movie	1		245	4.0	2.5	/experiments/AOT/AOT_stimuli/rescaled_final/1275_rv.mp4	0.0	105.97859907150269	2.508375883102417
6	72.85069799423218	pulse	1	t		4.0	2.5	/experiments/AOT/AOT_stimuli/rescaled_final/1275_rv.mp4	0.0	107.57133412361145	
6	73.76633882522583	fix_post	2		12	4.0	2.5	/experiments/AOT/AOT_stimuli/rescaled_final/1275_rv.mp4	0.0	108.4869749546051	0.09995412826538086
7	73.86629295349121	fix_pre	0		120	5.0	2.5	blank	1.0	108.58692908287048	1.0000438690185547
7	74.44983386993408	pulse	0	t		5.0	2.5	blank	1.0	109.17046999931335	
7	74.86633682250977	movie	1		300	5.0	2.5	blank	1.0	109.58697295188904	2.499890089035034
7	76.04976081848145	pulse	1	t		5.0	2.5	blank	1.0	110.77039694786072	
7	77.3662269115448	fix_post	2		12	5.0	2.5	blank	1.0	112.08686304092407	0.10001397132873535
8	77.46624088287354	fix_pre	0		120	6.0	2.5	/experiments/AOT/AOT_stimuli/rescaled_final/2053_fw.mp4	0.0	112.18687701225281	0.9999270439147949
8	77.64982986450195	pulse	0	t		6.0	2.5	/experiments/AOT/AOT_stimuli/rescaled_final/2053_fw.mp4	0.0	112.37046599388123	
8	78.46616792678833	movie	1		244	6.0	2.5	/experiments/AOT/AOT_stimuli/rescaled_final/2053_fw.mp4	0.0	113.1868040561676	2.499660015106201
8	79.2497718334198	pulse	1	t		6.0	2.5	/experiments/AOT/AOT_stimuli/rescaled_final/2053_fw.mp4	0.0	113.97040796279907	
8	80.84820604324341	pulse	1	t		6.0	2.5	/experiments/AOT/AOT_stimuli/rescaled_final/2053_fw.mp4	0.0	115.56884217262268	
8	80.96582794189453	fix_post	2		12	6.0	2.5	/experiments/AOT/AOT_stimuli/rescaled_final/2053_fw.mp4	0.0	115.6864640712738	0.10045790672302246
9	81.06628584861755	fix_pre	0		120	7.0	2.5	/experiments/AOT/AOT_stimuli/rescaled_final/2174_fw.mp4	0.0	115.78692197799683	0.9999730587005615
9	82.06625890731812	movie	1		247	7.0	2.5	/experiments/AOT/AOT_stimuli/rescaled_final/2174_fw.mp4	0.0	116.78689503669739	2.499907970428467
9	82.44884586334229	pulse	1	t		7.0	2.5	/experiments/AOT/AOT_stimuli/rescaled_final/2174_fw.mp4	0.0	117.16948199272156	
9	84.04980993270874	pulse	1	t		7.0	2.5	/experiments/AOT/AOT_stimuli/rescaled_final/2174_fw.mp4	0.0	118.77044606208801	
9	84.56616687774658	fix_post	2		12	7.0	2.5	/experiments/AOT/AOT_stimuli/rescaled_final/2174_fw.mp4	0.0	119.28680300712585	0.1002950668334961
10	84.66646194458008	fix_pre	0		119	8.0	2.5	/experiments/AOT/AOT_stimuli/rescaled_final/2030_rv.mp4	0.0	119.38709807395935	0.9914760589599609
10	85.64973187446594	pulse	0	t		8.0	2.5	/experiments/AOT/AOT_stimuli/rescaled_final/2030_rv.mp4	0.0	120.37036800384521	
10	85.65793800354004	movie	1		245	8.0	2.5	/experiments/AOT/AOT_stimuli/rescaled_final/2030_rv.mp4	0.0	120.37857413291931	2.5082919597625732
10	87.24941897392273	pulse	1	t		8.0	2.5	/experiments/AOT/AOT_stimuli/rescaled_final/2030_rv.mp4	0.0	121.970055103302	
10	88.16622996330261	fix_post	2		12	8.0	2.5	/experiments/AOT/AOT_stimuli/rescaled_final/2030_rv.mp4	0.0	122.88686609268188	0.09997797012329102
11	88.2662079334259	fix_pre	0		120	9.0	2.5	/experiments/AOT/AOT_stimuli/rescaled_final/0546_rv.mp4	0.0	122.98684406280518	1.000011920928955
11	88.84975790977478	pulse	0	t		9.0	2.5	/experiments/AOT/AOT_stimuli/rescaled_final/0546_rv.mp4	0.0	123.57039403915405	
11	89.26621985435486	movie	1		244	9.0	2.5	/experiments/AOT/AOT_stimuli/rescaled_final/0546_rv.mp4	0.0	123.98685598373413	2.4999799728393555
11	90.44976496696472	pulse	1	t		9.0	2.5	/experiments/AOT/AOT_stimuli/rescaled_final/0546_rv.mp4	0.0	125.170401096344	
11	91.76619982719421	fix_post	2		12	9.0	2.5	/experiments/AOT/AOT_stimuli/rescaled_final/0546_rv.mp4	0.0	126.48683595657349	0.10000920295715332
12	91.86620903015137	fix_pre	0		120	10.0	2.5	/experiments/AOT/AOT_stimuli/rescaled_final/0776_rv.mp4	0.0	126.58684515953064	0.9999768733978271
12	92.04970192909241	pulse	0	t		10.0	2.5	/experiments/AOT/AOT_stimuli/rescaled_final/0776_rv.mp4	0.0	126.77033805847168	
12	92.8661859035492	movie	1		245	10.0	2.5	/experiments/AOT/AOT_stimuli/rescaled_final/0776_rv.mp4	0.0	127.58682203292847	2.499993085861206
12	93.64964485168457	pulse	1	t		10.0	2.5	/experiments/AOT/AOT_stimuli/rescaled_final/0776_rv.mp4	0.0	128.37028098106384	
12	95.24813199043274	pulse	1	t		10.0	2.5	/experiments/AOT/AOT_stimuli/rescaled_final/0776_rv.mp4	0.0	129.968768119812	
12	95.3661789894104	fix_post	2		12	10.0	2.5	/experiments/AOT/AOT_stimuli/rescaled_final/0776_rv.mp4	0.0	130.08681511878967	0.10001993179321289
13	95.46619892120361	fix_pre	0		120	11.0	2.5	/experiments/AOT/AOT_stimuli/rescaled_final/0779_rv.mp4	0.0	130.18683505058289	0.9999909400939941
13	96.46618986129761	movie	1		246	11.0	2.5	/experiments/AOT/AOT_stimuli/rescaled_final/0779_rv.mp4	0.0	131.18682599067688	2.499925136566162
13	96.84919786453247	pulse	1	t		11.0	2.5	/experiments/AOT/AOT_stimuli/rescaled_final/0779_rv.mp4	0.0	131.56983399391174	
13	98.44973993301392	pulse	1	t		11.0	2.5	/experiments/AOT/AOT_stimuli/rescaled_final/0779_rv.mp4	0.0	133.1703760623932	
13	98.96611499786377	fix_post	2		12	11.0	2.5	/experiments/AOT/AOT_stimuli/rescaled_final/0779_rv.mp4	0.0	133.68675112724304	0.09996891021728516
14	99.06608390808105	fix_pre	0		119	12.0	2.5	blank	1.0	133.78672003746033	0.9917640686035156
14	100.04971385002136	pulse	0	t		12.0	2.5	blank	1.0	134.77034997940063	
14	100.05784797668457	movie	1		301	12.0	2.5	blank	1.0	134.77848410606384	2.508296012878418
14	101.64965796470642	pulse	1	t		12.0	2.5	blank	1.0	136.3702940940857	
14	102.56614398956299	fix_post	2		12	12.0	2.5	blank	1.0	137.28678011894226	0.09996390342712402
15	102.66610789299011	fix_pre	0		120	13.0	2.5	/experiments/AOT/AOT_stimuli/rescaled_final/1896_rv.mp4	0.0	137.38674402236938	0.9999439716339111
15	103.24961495399475	pulse	0	t		13.0	2.5	/experiments/AOT/AOT_stimuli/rescaled_final/1896_rv.mp4	0.0	137.97025108337402	
15	103.66605186462402	movie	1		245	13.0	2.5	/experiments/AOT/AOT_stimuli/rescaled_final/1896_rv.mp4	0.0	138.3866879940033	2.50006103515625
15	104.84971404075623	pulse	1	t		13.0	2.5	/experiments/AOT/AOT_stimuli/rescaled_final/1896_rv.mp4	0.0	139.5703501701355	
15	106.16611289978027	fix_post	2		12	13.0	2.5	/experiments/AOT/AOT_stimuli/rescaled_final/1896_rv.mp4	0.0	140.88674902915955	0.09995794296264648
16	106.26607084274292	fix_pre	0		120	14.0	2.5	/experiments/AOT/AOT_stimuli/rescaled_final/1219_fw.mp4	0.0	140.9867069721222	1.0001320838928223
16	106.44965195655823	pulse	0	t		14.0	2.5	/experiments/AOT/AOT_stimuli/rescaled_final/1219_fw.mp4	0.0	141.1702880859375	
16	107.26620292663574	movie	1		244	14.0	2.5	/experiments/AOT/AOT_stimuli/rescaled_final/1219_fw.mp4	0.0	141.98683905601501	2.4998619556427
16	108.04964590072632	pulse	1	t		14.0	2.5	/experiments/AOT/AOT_stimuli/rescaled_final/1219_fw.mp4	0.0	142.7702820301056	
16	109.64849591255188	pulse	1	t		14.0	2.5	/experiments/AOT/AOT_stimuli/rescaled_final/1219_fw.mp4	0.0	144.36913204193115	
16	109.76606488227844	fix_post	2		12	14.0	2.5	/experiments/AOT/AOT_stimuli/rescaled_final/1219_fw.mp4	0.0	144.48670101165771	0.1000521183013916
17	109.86611700057983	fix_pre	0		120	15.0	2.5	/experiments/AOT/AOT_stimuli/rescaled_final/0075_fw.mp4	0.0	144.5867531299591	1.0000560283660889
17	110.86617302894592	movie	1		246	15.0	2.5	/experiments/AOT/AOT_stimuli/rescaled_final/0075_fw.mp4	0.0	145.5868091583252	2.499811887741089
17	111.24932885169983	pulse	1	t		15.0	2.5	/experiments/AOT/AOT_stimuli/rescaled_final/0075_fw.mp4	0.0	145.9699649810791	
17	112.84947681427002	pulse	1	t		15.0	2.5	/experiments/AOT/AOT_stimuli/rescaled_final/0075_fw.mp4	0.0	147.5701129436493	
17	113.36598491668701	fix_post	2		12	15.0	2.5	/experiments/AOT/AOT_stimuli/rescaled_final/0075_fw.mp4	0.0	148.08662104606628	0.10014605522155762
18	113.46613097190857	fix_pre	0		119	16.0	2.5	/experiments/AOT/AOT_stimuli/rescaled_final/1073_rv.mp4	0.0	148.18676710128784	0.9916398525238037
18	114.44961881637573	pulse	0	t		16.0	2.5	/experiments/AOT/AOT_stimuli/rescaled_final/1073_rv.mp4	0.0	149.170254945755	
18	114.45777082443237	movie	1		244	16.0	2.5	/experiments/AOT/AOT_stimuli/rescaled_final/1073_rv.mp4	0.0	149.17840695381165	2.508357048034668
18	116.04923701286316	pulse	1	t		16.0	2.5	/experiments/AOT/AOT_stimuli/rescaled_final/1073_rv.mp4	0.0	150.76987314224243	
18	116.96612787246704	fix_post	2		12	16.0	2.5	/experiments/AOT/AOT_stimuli/rescaled_final/1073_rv.mp4	0.0	151.6867640018463	0.10007405281066895
19	117.06620192527771	fix_pre	0		120	17.0	2.5	/experiments/AOT/AOT_stimuli/rescaled_final/1657_fw.mp4	0.0	151.78683805465698	0.9998340606689453
19	117.6495578289032	pulse	0	t		17.0	2.5	/experiments/AOT/AOT_stimuli/rescaled_final/1657_fw.mp4	0.0	152.37019395828247	
19	118.06603598594666	movie	1		243	17.0	2.5	/experiments/AOT/AOT_stimuli/rescaled_final/1657_fw.mp4	0.0	152.78667211532593	2.500041961669922
19	119.24963283538818	pulse	1	t		17.0	2.5	/experiments/AOT/AOT_stimuli/rescaled_final/1657_fw.mp4	0.0	153.97026896476746	
19	120.56607794761658	fix_post	2		12	17.0	2.5	/experiments/AOT/AOT_stimuli/rescaled_final/1657_fw.mp4	0.0	155.28671407699585	0.09998607635498047
20	120.66606402397156	fix_pre	0		120	18.0	2.5	/experiments/AOT/AOT_stimuli/rescaled_final/1725_rv.mp4	0.0	155.38670015335083	0.9995307922363281
20	120.84952902793884	pulse	0	t		18.0	2.5	/experiments/AOT/AOT_stimuli/rescaled_final/1725_rv.mp4	0.0	155.57016515731812	
20	121.66559481620789	movie	1		243	18.0	2.5	/experiments/AOT/AOT_stimuli/rescaled_final/1725_rv.mp4	0.0	156.38623094558716	2.500420093536377
20	122.4494948387146	pulse	1	t		18.0	2.5	/experiments/AOT/AOT_stimuli/rescaled_final/1725_rv.mp4	0.0	157.17013096809387	
20	124.04805397987366	pulse	1	t		18.0	2.5	/experiments/AOT/AOT_stimuli/rescaled_final/1725_rv.mp4	0.0	158.76869010925293	
20	124.16601490974426	fix_post	2		12	18.0	2.5	/experiments/AOT/AOT_stimuli/rescaled_final/1725_rv.mp4	0.0	158.88665103912354	0.1000359058380127
21	124.26605081558228	fix_pre	0		120	19.0	2.5	blank	1.0	158.98668694496155	0.9996030330657959
21	125.26565384864807	movie	1		300	19.0	2.5	blank	1.0	159.98628997802734	2.50030517578125
21	125.64953899383545	pulse	1	t		19.0	2.5	blank	1.0	160.37017512321472	
21	127.24946093559265	pulse	1	t		19.0	2.5	blank	1.0	161.97009706497192	
21	127.76595902442932	fix_post	2		12	19.0	2.5	blank	1.0	162.4865951538086	0.1000978946685791
22	127.8660569190979	fix_pre	0		119	20.0	2.5	/experiments/AOT/AOT_stimuli/rescaled_final/2168_fw.mp4	0.0	162.58669304847717	0.9916160106658936
22	128.84951901435852	pulse	0	t		20.0	2.5	/experiments/AOT/AOT_stimuli/rescaled_final/2168_fw.mp4	0.0	163.5701551437378	
22	128.8576729297638	movie	1		245	20.0	2.5	/experiments/AOT/AOT_stimuli/rescaled_final/2168_fw.mp4	0.0	163.57830905914307	2.508315086364746
22	130.4504189491272	pulse	1	t		20.0	2.5	/experiments/AOT/AOT_stimuli/rescaled_final/2168_fw.mp4	0.0	165.17105507850647	
22	131.36598801612854	fix_post	2		12	20.0	2.5	/experiments/AOT/AOT_stimuli/rescaled_final/2168_fw.mp4	0.0	166.0866241455078	0.0999917984008789
23	131.46597981452942	fix_pre	0		120	21.0	2.5	/experiments/AOT/AOT_stimuli/rescaled_final/1258_rv.mp4	0.0	166.1866159439087	1.0000860691070557
23	132.04945302009583	pulse	0	t		21.0	2.5	/experiments/AOT/AOT_stimuli/rescaled_final/1258_rv.mp4	0.0	166.7700891494751	
23	132.46606588363647	movie	1		244	21.0	2.5	/experiments/AOT/AOT_stimuli/rescaled_final/1258_rv.mp4	0.0	167.18670201301575	2.4994590282440186
23	133.6495099067688	pulse	1	t		21.0	2.5	/experiments/AOT/AOT_stimuli/rescaled_final/1258_rv.mp4	0.0	168.37014603614807	
23	134.9655249118805	fix_post	2		12	21.0	2.5	/experiments/AOT/AOT_stimuli/rescaled_final/1258_rv.mp4	0.0	169.68616104125977	0.10047602653503418
24	135.06600093841553	fix_pre	0		120	22.0	2.5	/experiments/AOT/AOT_stimuli/rescaled_final/1650_rv.mp4	0.0	169.7866370677948	1.0000479221343994
24	135.24955582618713	pulse	0	t		22.0	2.5	/experiments/AOT/AOT_stimuli/rescaled_final/1650_rv.mp4	0.0	169.9701919555664	
24	136.06604886054993	movie	1		245	22.0	2.5	/experiments/AOT/AOT_stimuli/rescaled_final/1650_rv.mp4	0.0	170.7866849899292	2.500007152557373
24	136.84940195083618	pulse	1	t		22.0	2.5	/experiments/AOT/AOT_stimuli/rescaled_final/1650_rv.mp4	0.0	171.57003808021545	
24	138.447350025177	pulse	1	t		22.0	2.5	/experiments/AOT/AOT_stimuli/rescaled_final/1650_rv.mp4	0.0	173.16798615455627	
24	138.5660560131073	fix_post	2		12	22.0	2.5	/experiments/AOT/AOT_stimuli/rescaled_final/1650_rv.mp4	0.0	173.28669214248657	0.0994408130645752
25	138.66549682617188	fix_pre	0		120	23.0	2.5	/experiments/AOT/AOT_stimuli/rescaled_final/2160_fw.mp4	0.0	173.38613295555115	1.0002100467681885
25	139.66570687294006	movie	1		244	23.0	2.5	/experiments/AOT/AOT_stimuli/rescaled_final/2160_fw.mp4	0.0	174.38634300231934	2.5002291202545166
25	140.05012392997742	pulse	1	t		23.0	2.5	/experiments/AOT/AOT_stimuli/rescaled_final/2160_fw.mp4	0.0	174.7707600593567	
25	141.64949989318848	pulse	1	t		23.0	2.5	/experiments/AOT/AOT_stimuli/rescaled_final/2160_fw.mp4	0.0	176.37013602256775	
25	142.16593599319458	fix_post	2		12	23.0	2.5	/experiments/AOT/AOT_stimuli/rescaled_final/2160_fw.mp4	0.0	176.88657212257385	0.10006594657897949
26	142.26600193977356	fix_pre	0		119	24.0	2.5	/experiments/AOT/AOT_stimuli/rescaled_final/1611_rv.mp4	0.0	176.98663806915283	0.9917919635772705
26	143.249440908432	pulse	0	t		24.0	2.5	/experiments/AOT/AOT_stimuli/rescaled_final/1611_rv.mp4	0.0	177.97007703781128	
26	143.25779390335083	movie	1		244	24.0	2.5	/experiments/AOT/AOT_stimuli/rescaled_final/1611_rv.mp4	0.0	177.9784300327301	2.507779121398926
26	144.84920001029968	pulse	1	t		24.0	2.5	/experiments/AOT/AOT_stimuli/rescaled_final/1611_rv.mp4	0.0	179.56983613967896	
26	145.76557302474976	fix_post	2		12	24.0	2.5	/experiments/AOT/AOT_stimuli/rescaled_final/1611_rv.mp4	0.0	180.48620915412903	0.10038590431213379
27	145.8659589290619	fix_pre	0		120	25.0	2.5	/experiments/AOT/AOT_stimuli/rescaled_final/0813_fw.mp4	0.0	180.58659505844116	0.9999339580535889
27	146.44938683509827	pulse	0	t		25.0	2.5	/experiments/AOT/AOT_stimuli/rescaled_final/0813_fw.mp4	0.0	181.17002296447754	
27	146.86589288711548	movie	1		243	25.0	2.5	/experiments/AOT/AOT_stimuli/rescaled_final/0813_fw.mp4	0.0	181.58652901649475	2.4995429515838623
27	148.0495319366455	pulse	1	t		25.0	2.5	/experiments/AOT/AOT_stimuli/rescaled_final/0813_fw.mp4	0.0	182.77016806602478	
27	149.36543583869934	fix_post	2		12	25.0	2.5	/experiments/AOT/AOT_stimuli/rescaled_final/0813_fw.mp4	0.0	184.0860719680786	0.10048413276672363
28	149.46591997146606	fix_pre	0		120	26.0	2.5	blank	1.0	184.18655610084534	1.0000278949737549
28	149.64939904212952	pulse	0	t		26.0	2.5	blank	1.0	184.3700351715088	
28	150.46594786643982	movie	1		300	26.0	2.5	blank	1.0	185.1865839958191	2.499953031539917
28	151.2493839263916	pulse	1	t		26.0	2.5	blank	1.0	185.97002005577087	
28	152.84934997558594	pulse	1	t		26.0	2.5	blank	1.0	187.5699861049652	
28	152.96590089797974	fix_post	2		12	26.0	2.5	blank	1.0	187.686537027359	0.10000014305114746
29	153.06590104103088	fix_pre	0		120	27.0	2.5	/experiments/AOT/AOT_stimuli/rescaled_final/1725_rv.mp4	0.0	187.78653717041016	0.9999749660491943
29	154.06587600708008	movie	1		245	27.0	2.5	/experiments/AOT/AOT_stimuli/rescaled_final/1725_rv.mp4	0.0	188.78651213645935	2.5000228881835938
29	154.4489619731903	pulse	1	t		27.0	2.5	/experiments/AOT/AOT_stimuli/rescaled_final/1725_rv.mp4	0.0	189.16959810256958	
29	156.0493848323822	pulse	1	t		27.0	2.5	/experiments/AOT/AOT_stimuli/rescaled_final/1725_rv.mp4	0.0	190.77002096176147	
29	156.56589889526367	fix_post	2		12	27.0	2.5	/experiments/AOT/AOT_stimuli/rescaled_final/1725_rv.mp4	0.0	191.28653502464294	0.10001611709594727
30	156.66591501235962	fix_pre	0		119	28.0	2.5	/experiments/AOT/AOT_stimuli/rescaled_final/1575_fw.mp4	0.0	191.3865511417389	0.9916458129882812
30	157.64932703971863	pulse	0	t		28.0	2.5	/experiments/AOT/AOT_stimuli/rescaled_final/1575_fw.mp4	0.0	192.3699631690979	
30	157.6575608253479	movie	1		246	28.0	2.5	/experiments/AOT/AOT_stimuli/rescaled_final/1575_fw.mp4	0.0	192.37819695472717	2.508341073989868
30	159.24950098991394	pulse	1	t		28.0	2.5	/experiments/AOT/AOT_stimuli/rescaled_final/1575_fw.mp4	0.0	193.9701371192932	
30	160.16590189933777	fix_post	2		12	28.0	2.5	/experiments/AOT/AOT_stimuli/rescaled_final/1575_fw.mp4	0.0	194.88653802871704	0.0998830795288086
31	160.26578497886658	fix_pre	0		120	29.0	2.5	/experiments/AOT/AOT_stimuli/rescaled_final/0173_rv.mp4	0.0	194.98642110824585	1.0001139640808105
31	160.8493778705597	pulse	0	t		29.0	2.5	/experiments/AOT/AOT_stimuli/rescaled_final/0173_rv.mp4	0.0	195.57001399993896	
31	161.2658989429474	movie	1		244	29.0	2.5	/experiments/AOT/AOT_stimuli/rescaled_final/0173_rv.mp4	0.0	195.98653507232666	2.4998860359191895
31	162.4493670463562	pulse	1	t		29.0	2.5	/experiments/AOT/AOT_stimuli/rescaled_final/0173_rv.mp4	0.0	197.17000317573547	
31	163.76578497886658	fix_post	2		12	29.0	2.5	/experiments/AOT/AOT_stimuli/rescaled_final/0173_rv.mp4	0.0	198.48642110824585	0.10003185272216797
32	163.86581683158875	fix_pre	0		120	30.0	2.5	/experiments/AOT/AOT_stimuli/rescaled_final/0650_rv.mp4	0.0	198.58645296096802	0.9999179840087891
32	164.04929494857788	pulse	0	t		30.0	2.5	/experiments/AOT/AOT_stimuli/rescaled_final/0650_rv.mp4	0.0	198.76993107795715	
32	164.86573481559753	movie	1		243	30.0	2.5	/experiments/AOT/AOT_stimuli/rescaled_final/0650_rv.mp4	0.0	199.5863709449768	2.5000782012939453
32	165.64932489395142	pulse	1	t		30.0	2.5	/experiments/AOT/AOT_stimuli/rescaled_final/0650_rv.mp4	0.0	200.3699610233307	
32	167.24773693084717	pulse	1	t		30.0	2.5	/experiments/AOT/AOT_stimuli/rescaled_final/0650_rv.mp4	0.0	201.96837306022644	
32	167.36581301689148	fix_post	2		12	30.0	2.5	/experiments/AOT/AOT_stimuli/rescaled_final/0650_rv.mp4	0.0	202.08644914627075	0.1000368595123291
33	167.4658498764038	fix_pre	0		120	31.0	2.5	/experiments/AOT/AOT_stimuli/rescaled_final/1033_fw.mp4	0.0	202.18648600578308	1.0000050067901611
33	168.46585488319397	movie	1		243	31.0	2.5	/experiments/AOT/AOT_stimuli/rescaled_final/1033_fw.mp4	0.0	203.18649101257324	2.5000720024108887
33	168.84913992881775	pulse	1	t		31.0	2.5	/experiments/AOT/AOT_stimuli/rescaled_final/1033_fw.mp4	0.0	203.56977605819702	
33	170.44931387901306	pulse	1	t		31.0	2.5	/experiments/AOT/AOT_stimuli/rescaled_final/1033_fw.mp4	0.0	205.16995000839233	
33	170.96592688560486	fix_post	2		12	31.0	2.5	/experiments/AOT/AOT_stimuli/rescaled_final/1033_fw.mp4	0.0	205.68656301498413	0.09991192817687988
34	171.06583881378174	fix_pre	0		119	32.0	2.5	/experiments/AOT/AOT_stimuli/rescaled_final/1905_fw.mp4	0.0	205.786474943161	0.9917161464691162
34	172.0493860244751	pulse	0	t		32.0	2.5	/experiments/AOT/AOT_stimuli/rescaled_final/1905_fw.mp4	0.0	206.77002215385437	
34	172.05755496025085	movie	1		246	32.0	2.5	/experiments/AOT/AOT_stimuli/rescaled_final/1905_fw.mp4	0.0	206.77819108963013	2.5082199573516846
34	173.65055990219116	pulse	1	t		32.0	2.5	/experiments/AOT/AOT_stimuli/rescaled_final/1905_fw.mp4	0.0	208.37119603157043	
34	174.56577491760254	fix_post	2		12	32.0	2.5	/experiments/AOT/AOT_stimuli/rescaled_final/1905_fw.mp4	0.0	209.2864110469818	0.09997010231018066
35	174.66574501991272	fix_pre	0		120	33.0	2.5	/experiments/AOT/AOT_stimuli/rescaled_final/1729_fw.mp4	0.0	209.386381149292	1.0000038146972656
35	175.24931502342224	pulse	0	t		33.0	2.5	/experiments/AOT/AOT_stimuli/rescaled_final/1729_fw.mp4	0.0	209.9699511528015	
35	175.66574883460999	movie	1		246	33.0	2.5	/experiments/AOT/AOT_stimuli/rescaled_final/1729_fw.mp4	0.0	210.38638496398926	2.499610185623169
35	176.84935092926025	pulse	1	t		33.0	2.5	/experiments/AOT/AOT_stimuli/rescaled_final/1729_fw.mp4	0.0	211.56998705863953	
35	178.16535902023315	fix_post	2		12	33.0	2.5	/experiments/AOT/AOT_stimuli/rescaled_final/1729_fw.mp4	0.0	212.88599514961243	0.10046601295471191
36	178.26582503318787	fix_pre	0		120	34.0	2.5	blank	1.0	212.98646116256714	1.0000019073486328
36	178.44927382469177	pulse	0	t		34.0	2.5	blank	1.0	213.16990995407104	
36	179.2658269405365	movie	1		300	34.0	2.5	blank	1.0	213.98646306991577	2.4999098777770996
36	180.04924488067627	pulse	1	t		34.0	2.5	blank	1.0	214.76988101005554	
36	181.64915895462036	pulse	1	t		34.0	2.5	blank	1.0	216.36979508399963	
36	181.7657368183136	fix_post	2		12	34.0	2.5	blank	1.0	216.48637294769287	0.10019612312316895
37	181.86593294143677	fix_pre	0		120	35.0	2.5	/experiments/AOT/AOT_stimuli/rescaled_final/0650_rv.mp4	0.0	216.58656907081604	0.9997599124908447
37	182.8656928539276	movie	1		242	35.0	2.5	/experiments/AOT/AOT_stimuli/rescaled_final/0650_rv.mp4	0.0	217.58632898330688	2.5000879764556885
37	183.24895095825195	pulse	1	t		35.0	2.5	/experiments/AOT/AOT_stimuli/rescaled_final/0650_rv.mp4	0.0	217.96958708763123	
37	184.84912204742432	pulse	1	t		35.0	2.5	/experiments/AOT/AOT_stimuli/rescaled_final/0650_rv.mp4	0.0	219.5697581768036	
37	185.3657808303833	fix_post	2		12	35.0	2.5	/experiments/AOT/AOT_stimuli/rescaled_final/0650_rv.mp4	0.0	220.08641695976257	0.09994816780090332
38	185.4657289981842	fix_pre	0		119	36.0	2.5	/experiments/AOT/AOT_stimuli/rescaled_final/0750_fw.mp4	0.0	220.18636512756348	0.9916210174560547
38	186.4492428302765	pulse	0	t		36.0	2.5	/experiments/AOT/AOT_stimuli/rescaled_final/0750_fw.mp4	0.0	221.16987895965576	
38	186.45735001564026	movie	1		245	36.0	2.5	/experiments/AOT/AOT_stimuli/rescaled_final/0750_fw.mp4	0.0	221.17798614501953	2.5079379081726074
38	188.04856491088867	pulse	1	t		36.0	2.5	/experiments/AOT/AOT_stimuli/rescaled_final/0750_fw.mp4	0.0	222.76920104026794	
38	188.96528792381287	fix_post	2		12	36.0	2.5	/experiments/AOT/AOT_stimuli/rescaled_final/0750_fw.mp4	0.0	223.68592405319214	0.1004180908203125
39	189.06570601463318	fix_pre	0		120	37.0	2.5	/experiments/AOT/AOT_stimuli/rescaled_final/0942_fw.mp4	0.0	223.78634214401245	1.00003981590271
39	189.64925503730774	pulse	0	t		37.0	2.5	/experiments/AOT/AOT_stimuli/rescaled_final/0942_fw.mp4	0.0	224.369891166687	
39	190.0657458305359	movie	1		243	37.0	2.5	/experiments/AOT/AOT_stimuli/rescaled_final/0942_fw.mp4	0.0	224.78638195991516	2.4999821186065674
39	191.24932098388672	pulse	1	t		37.0	2.5	/experiments/AOT/AOT_stimuli/rescaled_final/0942_fw.mp4	0.0	225.969957113266	
39	192.56572794914246	fix_post	2		12	37.0	2.5	/experiments/AOT/AOT_stimuli/rescaled_final/0942_fw.mp4	0.0	227.28636407852173	0.09993505477905273
40	192.6656630039215	fix_pre	0		120	38.0	2.5	/experiments/AOT/AOT_stimuli/rescaled_final/1729_rv.mp4	0.0	227.38629913330078	0.9996488094329834
40	192.84922003746033	pulse	0	t		38.0	2.5	/experiments/AOT/AOT_stimuli/rescaled_final/1729_rv.mp4	0.0	227.5698561668396	
40	193.6653118133545	movie	1		244	38.0	2.5	/experiments/AOT/AOT_stimuli/rescaled_final/1729_rv.mp4	0.0	228.38594794273376	2.5002732276916504
40	194.44872784614563	pulse	1	t		38.0	2.5	/experiments/AOT/AOT_stimuli/rescaled_final/1729_rv.mp4	0.0	229.1693639755249	
40	196.04801297187805	pulse	1	t		38.0	2.5	/experiments/AOT/AOT_stimuli/rescaled_final/1729_rv.mp4	0.0	230.76864910125732	
40	196.16558504104614	fix_post	2		12	38.0	2.5	/experiments/AOT/AOT_stimuli/rescaled_final/1729_rv.mp4	0.0	230.88622117042542	0.10035300254821777
41	196.26593804359436	fix_pre	0		120	39.0	2.5	/experiments/AOT/AOT_stimuli/rescaled_final/1094_fw.mp4	0.0	230.98657417297363	0.9997339248657227
41	197.26567196846008	movie	1		245	39.0	2.5	/experiments/AOT/AOT_stimuli/rescaled_final/1094_fw.mp4	0.0	231.98630809783936	2.499574899673462
41	197.6488699913025	pulse	1	t		39.0	2.5	/experiments/AOT/AOT_stimuli/rescaled_final/1094_fw.mp4	0.0	232.36950612068176	
41	199.24927592277527	pulse	1	t		39.0	2.5	/experiments/AOT/AOT_stimuli/rescaled_final/1094_fw.mp4	0.0	233.96991205215454	
41	199.76524686813354	fix_post	2		12	39.0	2.5	/experiments/AOT/AOT_stimuli/rescaled_final/1094_fw.mp4	0.0	234.48588299751282	0.10043501853942871
42	199.86568188667297	fix_pre	0		119	40.0	2.5	/experiments/AOT/AOT_stimuli/rescaled_final/0315_rv.mp4	0.0	234.58631801605225	0.9916560649871826
42	200.84913396835327	pulse	0	t		40.0	2.5	/experiments/AOT/AOT_stimuli/rescaled_final/0315_rv.mp4	0.0	235.56977009773254	
42	200.85733795166016	movie	1		248	40.0	2.5	/experiments/AOT/AOT_stimuli/rescaled_final/0315_rv.mp4	0.0	235.57797408103943	2.5083060264587402
42	202.44955897331238	pulse	1	t		40.0	2.5	/experiments/AOT/AOT_stimuli/rescaled_final/0315_rv.mp4	0.0	237.17019510269165	
42	203.3656439781189	fix_post	2		12	40.0	2.5	/experiments/AOT/AOT_stimuli/rescaled_final/0315_rv.mp4	0.0	238.08628010749817	0.0999760627746582
43	203.46562004089355	fix_pre	0		120	41.0	2.5	blank	1.0	238.18625617027283	1.0000629425048828
43	204.04916191101074	pulse	0	t		41.0	2.5	blank	1.0	238.76979804039001	
43	204.46568298339844	movie	1		300	41.0	2.5	blank	1.0	239.1863191127777	2.4999279975891113
43	205.64912486076355	pulse	1	t		41.0	2.5	blank	1.0	240.36976099014282	
43	206.96561098098755	fix_post	2		12	41.0	2.5	blank	1.0	241.68624711036682	0.10000085830688477
44	207.06561183929443	fix_pre	0		120	42.0	2.5	/experiments/AOT/AOT_stimuli/rescaled_final/1270_fw.mp4	0.0	241.7862479686737	1.0000050067901611
44	207.24911093711853	pulse	0	t		42.0	2.5	/experiments/AOT/AOT_stimuli/rescaled_final/1270_fw.mp4	0.0	241.9697470664978	
44	208.0656168460846	movie	1		244	42.0	2.5	/experiments/AOT/AOT_stimuli/rescaled_final/1270_fw.mp4	0.0	242.78625297546387	2.5000979900360107
44	208.8490810394287	pulse	1	t		42.0	2.5	/experiments/AOT/AOT_stimuli/rescaled_final/1270_fw.mp4	0.0	243.56971716880798	
44	210.44744896888733	pulse	1	t		42.0	2.5	/experiments/AOT/AOT_stimuli/rescaled_final/1270_fw.mp4	0.0	245.1680850982666	
44	210.5657148361206	fix_post	2		12	42.0	2.5	/experiments/AOT/AOT_stimuli/rescaled_final/1270_fw.mp4	0.0	245.28635096549988	0.09983301162719727
45	210.6655478477478	fix_pre	0		120	43.0	2.5	/experiments/AOT/AOT_stimuli/rescaled_final/1190_fw.mp4	0.0	245.38618397712708	1.000049114227295
45	211.6655969619751	movie	1		243	43.0	2.5	/experiments/AOT/AOT_stimuli/rescaled_final/1190_fw.mp4	0.0	246.38623309135437	2.499927043914795
45	212.04865503311157	pulse	1	t		43.0	2.5	/experiments/AOT/AOT_stimuli/rescaled_final/1190_fw.mp4	0.0	246.76929116249084	
45	213.64909482002258	pulse	1	t		43.0	2.5	/experiments/AOT/AOT_stimuli/rescaled_final/1190_fw.mp4	0.0	248.36973094940186	
45	214.1655240058899	fix_post	2		12	43.0	2.5	/experiments/AOT/AOT_stimuli/rescaled_final/1190_fw.mp4	0.0	248.88616013526917	0.10002493858337402
46	214.26554894447327	fix_pre	0		119	44.0	2.5	/experiments/AOT/AOT_stimuli/rescaled_final/0375_fw.mp4	0.0	248.98618507385254	0.9917280673980713
46	215.2490839958191	pulse	0	t		44.0	2.5	/experiments/AOT/AOT_stimuli/rescaled_final/0375_fw.mp4	0.0	249.96972012519836	
46	215.25727701187134	movie	1		245	44.0	2.5	/experiments/AOT/AOT_stimuli/rescaled_final/0375_fw.mp4	0.0	249.9779131412506	2.508327007293701
46	216.84865999221802	pulse	1	t		44.0	2.5	/experiments/AOT/AOT_stimuli/rescaled_final/0375_fw.mp4	0.0	251.5692961215973	
46	217.76560401916504	fix_post	2		12	44.0	2.5	/experiments/AOT/AOT_stimuli/rescaled_final/0375_fw.mp4	0.0	252.4862401485443	0.10000801086425781
47	217.8656120300293	fix_pre	0		120	45.0	2.5	/experiments/AOT/AOT_stimuli/rescaled_final/2170_fw.mp4	0.0	252.58624815940857	1.0000088214874268
47	218.44913792610168	pulse	0	t		45.0	2.5	/experiments/AOT/AOT_stimuli/rescaled_final/2170_fw.mp4	0.0	253.16977405548096	
47	218.86562085151672	movie	1		245	45.0	2.5	/experiments/AOT/AOT_stimuli/rescaled_final/2170_fw.mp4	0.0	253.586256980896	2.5000221729278564
47	220.04912400245667	pulse	1	t		45.0	2.5	/experiments/AOT/AOT_stimuli/rescaled_final/2170_fw.mp4	0.0	254.76976013183594	
47	221.36564302444458	fix_post	2		12	45.0	2.5	/experiments/AOT/AOT_stimuli/rescaled_final/2170_fw.mp4	0.0	256.08627915382385	0.09993696212768555
48	221.46557998657227	fix_pre	0		120	46.0	2.5	/experiments/AOT/AOT_stimuli/rescaled_final/0108_fw.mp4	0.0	256.18621611595154	0.999985933303833
48	221.64900493621826	pulse	0	t		46.0	2.5	/experiments/AOT/AOT_stimuli/rescaled_final/0108_fw.mp4	0.0	256.36964106559753	
48	222.4655659198761	movie	1		251	46.0	2.5	/experiments/AOT/AOT_stimuli/rescaled_final/0108_fw.mp4	0.0	257.18620204925537	2.499891996383667
48	223.2490508556366	pulse	1	t		46.0	2.5	/experiments/AOT/AOT_stimuli/rescaled_final/0108_fw.mp4	0.0	257.96968698501587	
48	224.8491199016571	pulse	1	t		46.0	2.5	/experiments/AOT/AOT_stimuli/rescaled_final/0108_fw.mp4	0.0	259.5697560310364	
48	224.96545791625977	fix_post	2		12	46.0	2.5	/experiments/AOT/AOT_stimuli/rescaled_final/0108_fw.mp4	0.0	259.68609404563904	0.10010910034179688
49	225.06556701660156	fix_pre	0		120	47.0	2.5	/experiments/AOT/AOT_stimuli/rescaled_final/1033_fw.mp4	0.0	259.78620314598083	0.9998929500579834
49	226.06545996665955	movie	1		243	47.0	2.5	/experiments/AOT/AOT_stimuli/rescaled_final/1033_fw.mp4	0.0	260.7860960960388	2.5000360012054443
49	226.44949102401733	pulse	1	t		47.0	2.5	/experiments/AOT/AOT_stimuli/rescaled_final/1033_fw.mp4	0.0	261.1701271533966	
49	228.04901599884033	pulse	1	t		47.0	2.5	/experiments/AOT/AOT_stimuli/rescaled_final/1033_fw.mp4	0.0	262.7696521282196	
49	228.565495967865	fix_post	2		12	47.0	2.5	/experiments/AOT/AOT_stimuli/rescaled_final/1033_fw.mp4	0.0	263.28613209724426	0.09999203681945801
50	228.66548800468445	fix_pre	0		119	48.0	2.5	blank	1.0	263.3861241340637	0.9916608333587646
50	229.64917492866516	pulse	0	t		48.0	2.5	blank	1.0	264.36981105804443	
50	229.6571488380432	movie	1		301	48.0	2.5	blank	1.0	264.3777849674225	2.5083730220794678
50	231.24898290634155	pulse	1	t		48.0	2.5	blank	1.0	265.9696190357208	
50	232.16552186012268	fix_post	2		12	48.0	2.5	blank	1.0	266.88615798950195	0.0999751091003418
51	232.26549696922302	fix_pre	0		120	49.0	2.5	/experiments/AOT/AOT_stimuli/rescaled_final/0559_rv.mp4	0.0	266.9861330986023	1.0000219345092773
51	232.84893989562988	pulse	0	t		49.0	2.5	/experiments/AOT/AOT_stimuli/rescaled_final/0559_rv.mp4	0.0	267.56957602500916	
51	233.2655189037323	movie	1		241	49.0	2.5	/experiments/AOT/AOT_stimuli/rescaled_final/0559_rv.mp4	0.0	267.9861550331116	2.500576972961426
51	234.44917392730713	pulse	1	t		49.0	2.5	/experiments/AOT/AOT_stimuli/rescaled_final/0559_rv.mp4	0.0	269.1698100566864	
51	235.76609587669373	fix_post	2		12	49.0	2.5	/experiments/AOT/AOT_stimuli/rescaled_final/0559_rv.mp4	0.0	270.486732006073	0.09946298599243164
52	235.86555886268616	fix_pre	0		120	50.0	2.5	/experiments/AOT/AOT_stimuli/rescaled_final/1154_rv.mp4	0.0	270.58619499206543	1.0000321865081787
52	236.04910397529602	pulse	0	t		50.0	2.5	/experiments/AOT/AOT_stimuli/rescaled_final/1154_rv.mp4	0.0	270.7697401046753	
52	236.86559104919434	movie	1		243	50.0	2.5	/experiments/AOT/AOT_stimuli/rescaled_final/1154_rv.mp4	0.0	271.5862271785736	2.499973773956299
52	237.64900183677673	pulse	1	t		50.0	2.5	/experiments/AOT/AOT_stimuli/rescaled_final/1154_rv.mp4	0.0	272.369637966156	
52	239.24771785736084	pulse	1	t		50.0	2.5	/experiments/AOT/AOT_stimuli/rescaled_final/1154_rv.mp4	0.0	273.9683539867401	
52	239.36556482315063	fix_post	2		12	50.0	2.5	/experiments/AOT/AOT_stimuli/rescaled_final/1154_rv.mp4	0.0	274.0862009525299	0.09992504119873047
53	239.46548986434937	fix_pre	0		120	51.0	2.5	/experiments/AOT/AOT_stimuli/rescaled_final/1559_rv.mp4	0.0	274.18612599372864	1.0000030994415283
53	240.4654929637909	movie	1		243	51.0	2.5	/experiments/AOT/AOT_stimuli/rescaled_final/1559_rv.mp4	0.0	275.18612909317017	2.499979019165039
53	240.8485758304596	pulse	1	t		51.0	2.5	/experiments/AOT/AOT_stimuli/rescaled_final/1559_rv.mp4	0.0	275.56921195983887	
53	242.44898891448975	pulse	1	t		51.0	2.5	/experiments/AOT/AOT_stimuli/rescaled_final/1559_rv.mp4	0.0	277.169625043869	
53	242.96547198295593	fix_post	2		12	51.0	2.5	/experiments/AOT/AOT_stimuli/rescaled_final/1559_rv.mp4	0.0	277.6861081123352	0.09999799728393555
54	243.06546998023987	fix_pre	0		119	52.0	2.5	/experiments/AOT/AOT_stimuli/rescaled_final/0460_fw.mp4	0.0	277.78610610961914	0.9917440414428711
54	244.04901695251465	pulse	0	t		52.0	2.5	/experiments/AOT/AOT_stimuli/rescaled_final/0460_fw.mp4	0.0	278.7696530818939	
54	244.05721402168274	movie	1		244	52.0	2.5	/experiments/AOT/AOT_stimuli/rescaled_final/0460_fw.mp4	0.0	278.777850151062	2.5082669258117676
54	245.6485719680786	pulse	1	t		52.0	2.5	/experiments/AOT/AOT_stimuli/rescaled_final/0460_fw.mp4	0.0	280.3692080974579	
54	246.5654809474945	fix_post	2		12	52.0	2.5	/experiments/AOT/AOT_stimuli/rescaled_final/0460_fw.mp4	0.0	281.2861170768738	0.1000669002532959
55	246.6655478477478	fix_pre	0		120	53.0	2.5	/experiments/AOT/AOT_stimuli/rescaled_final/0591_rv.mp4	0.0	281.3861839771271	0.999906063079834
55	247.2489368915558	pulse	0	t		53.0	2.5	/experiments/AOT/AOT_stimuli/rescaled_final/0591_rv.mp4	0.0	281.96957302093506	
55	247.66545391082764	movie	1		244	53.0	2.5	/experiments/AOT/AOT_stimuli/rescaled_final/0591_rv.mp4	0.0	282.3860900402069	2.4996659755706787
55	248.84892392158508	pulse	1	t		53.0	2.5	/experiments/AOT/AOT_stimuli/rescaled_final/0591_rv.mp4	0.0	283.56956005096436	
55	250.16511988639832	fix_post	2		12	53.0	2.5	/experiments/AOT/AOT_stimuli/rescaled_final/0591_rv.mp4	0.0	284.8857560157776	0.09995198249816895
56	250.26507186889648	fix_pre	0		120	54.0	2.5	/experiments/AOT/AOT_stimuli/rescaled_final/2146_rv.mp4	0.0	284.98570799827576	1.0004451274871826
56	250.4489450454712	pulse	0	t		54.0	2.5	/experiments/AOT/AOT_stimuli/rescaled_final/2146_rv.mp4	0.0	285.16958117485046	
56	251.26551699638367	movie	1		245	54.0	2.5	/experiments/AOT/AOT_stimuli/rescaled_final/2146_rv.mp4	0.0	285.98615312576294	2.49992299079895
56	252.0491440296173	pulse	1	t		54.0	2.5	/experiments/AOT/AOT_stimuli/rescaled_final/2146_rv.mp4	0.0	286.7697801589966	
56	253.64777088165283	pulse	1	t		54.0	2.5	/experiments/AOT/AOT_stimuli/rescaled_final/2146_rv.mp4	0.0	288.3684070110321	
56	253.76543998718262	fix_post	2		12	54.0	2.5	/experiments/AOT/AOT_stimuli/rescaled_final/2146_rv.mp4	0.0	288.4860761165619	0.10000205039978027
57	253.8654420375824	fix_pre	0		120	55.0	2.5	/experiments/AOT/AOT_stimuli/rescaled_final/0074_fw.mp4	0.0	288.58607816696167	0.9999878406524658
57	254.86542987823486	movie	1		247	55.0	2.5	/experiments/AOT/AOT_stimuli/rescaled_final/0074_fw.mp4	0.0	289.58606600761414	2.49989914894104
57	255.24835991859436	pulse	1	t		55.0	2.5	/experiments/AOT/AOT_stimuli/rescaled_final/0074_fw.mp4	0.0	289.96899604797363	
57	256.8489599227905	pulse	1	t		55.0	2.5	/experiments/AOT/AOT_stimuli/rescaled_final/0074_fw.mp4	0.0	291.5695960521698	
57	257.3653290271759	fix_post	2		12	55.0	2.5	/experiments/AOT/AOT_stimuli/rescaled_final/0074_fw.mp4	0.0	292.0859651565552	0.1000518798828125
58	257.4653809070587	fix_pre	0		119	56.0	2.5	blank	1.0	292.186017036438	0.9916689395904541
58	258.4488248825073	pulse	0	t		56.0	2.5	blank	1.0	293.1694610118866	
58	258.45704984664917	movie	1		301	56.0	2.5	blank	1.0	293.17768597602844	2.508324146270752
58	260.0488419532776	pulse	1	t		56.0	2.5	blank	1.0	294.76947808265686	
58	260.9653739929199	fix_post	2		12	56.0	2.5	blank	1.0	295.6860101222992	0.09998297691345215
59	261.0653569698334	fix_pre	0		120	57.0	2.5	/experiments/AOT/AOT_stimuli/rescaled_final/1380_rv.mp4	0.0	295.78599309921265	1.0000028610229492
59	261.64884090423584	pulse	0	t		57.0	2.5	/experiments/AOT/AOT_stimuli/rescaled_final/1380_rv.mp4	0.0	296.3694770336151	
59	262.0653598308563	movie	1		245	57.0	2.5	/experiments/AOT/AOT_stimuli/rescaled_final/1380_rv.mp4	0.0	296.7859959602356	2.4999661445617676
59	263.24893498420715	pulse	1	t		57.0	2.5	/experiments/AOT/AOT_stimuli/rescaled_final/1380_rv.mp4	0.0	297.9695711135864	
59	264.5653259754181	fix_post	2		12	57.0	2.5	/experiments/AOT/AOT_stimuli/rescaled_final/1380_rv.mp4	0.0	299.28596210479736	0.09971499443054199
60	264.66504096984863	fix_pre	0		120	58.0	2.5	/experiments/AOT/AOT_stimuli/rescaled_final/1047_rv.mp4	0.0	299.3856770992279	1.0002660751342773
60	264.8488960266113	pulse	0	t		58.0	2.5	/experiments/AOT/AOT_stimuli/rescaled_final/1047_rv.mp4	0.0	299.5695321559906	
60	265.6653070449829	movie	1		244	58.0	2.5	/experiments/AOT/AOT_stimuli/rescaled_final/1047_rv.mp4	0.0	300.3859431743622	2.500093936920166
60	266.44878792762756	pulse	1	t		58.0	2.5	/experiments/AOT/AOT_stimuli/rescaled_final/1047_rv.mp4	0.0	301.16942405700684	
60	268.047415971756	pulse	1	t		58.0	2.5	/experiments/AOT/AOT_stimuli/rescaled_final/1047_rv.mp4	0.0	302.76805210113525	
60	268.1654009819031	fix_post	2		12	58.0	2.5	/experiments/AOT/AOT_stimuli/rescaled_final/1047_rv.mp4	0.0	302.88603711128235	0.09990406036376953
61	268.26530504226685	fix_pre	0		120	59.0	2.5	/experiments/AOT/AOT_stimuli/rescaled_final/0512_rv.mp4	0.0	302.9859411716461	1.0
61	269.26530504226685	movie	1		244	59.0	2.5	/experiments/AOT/AOT_stimuli/rescaled_final/0512_rv.mp4	0.0	303.9859411716461	2.500005006790161
61	269.6484580039978	pulse	1	t		59.0	2.5	/experiments/AOT/AOT_stimuli/rescaled_final/0512_rv.mp4	0.0	304.3690941333771	
61	271.2488248348236	pulse	1	t		59.0	2.5	/experiments/AOT/AOT_stimuli/rescaled_final/0512_rv.mp4	0.0	305.9694609642029	
61	271.765310049057	fix_post	2		12	59.0	2.5	/experiments/AOT/AOT_stimuli/rescaled_final/0512_rv.mp4	0.0	306.4859461784363	0.10002684593200684
62	271.865336894989	fix_pre	0		119	60.0	2.5	/experiments/AOT/AOT_stimuli/rescaled_final/2168_fw.mp4	0.0	306.5859730243683	0.9915940761566162
62	272.84874296188354	pulse	0	t		60.0	2.5	/experiments/AOT/AOT_stimuli/rescaled_final/2168_fw.mp4	0.0	307.5693790912628	
62	272.85693097114563	movie	1		245	60.0	2.5	/experiments/AOT/AOT_stimuli/rescaled_final/2168_fw.mp4	0.0	307.5775671005249	2.5084240436553955
62	274.44852685928345	pulse	1	t		60.0	2.5	/experiments/AOT/AOT_stimuli/rescaled_final/2168_fw.mp4	0.0	309.1691629886627	
62	275.365355014801	fix_post	2		12	60.0	2.5	/experiments/AOT/AOT_stimuli/rescaled_final/2168_fw.mp4	0.0	310.0859911441803	0.09993195533752441
63	275.46528697013855	fix_pre	0		120	61.0	2.5	blank	1.0	310.1859230995178	1.0000019073486328
63	276.04874897003174	pulse	0	t		61.0	2.5	blank	1.0	310.769385099411	
63	276.4652888774872	movie	1		300	61.0	2.5	blank	1.0	311.18592500686646	2.499988079071045
63	277.64884901046753	pulse	1	t		61.0	2.5	blank	1.0	312.3694851398468	
63	278.9652769565582	fix_post	2		12	61.0	2.5	blank	1.0	313.6859130859375	0.10001301765441895
64	279.06528997421265	fix_pre	0		120	62.0	2.5	/experiments/AOT/AOT_stimuli/rescaled_final/1521_fw.mp4	0.0	313.7859261035919	1.0000979900360107
64	279.24873399734497	pulse	0	t		62.0	2.5	/experiments/AOT/AOT_stimuli/rescaled_final/1521_fw.mp4	0.0	313.96937012672424	
64	280.06538796424866	movie	1		246	62.0	2.5	/experiments/AOT/AOT_stimuli/rescaled_final/1521_fw.mp4	0.0	314.78602409362793	2.4999330043792725
64	280.8487958908081	pulse	1	t		62.0	2.5	/experiments/AOT/AOT_stimuli/rescaled_final/1521_fw.mp4	0.0	315.5694320201874	
64	282.44842290878296	pulse	1	t		62.0	2.5	/experiments/AOT/AOT_stimuli/rescaled_final/1521_fw.mp4	0.0	317.16905903816223	
64	282.56532096862793	fix_post	2		12	62.0	2.5	/experiments/AOT/AOT_stimuli/rescaled_final/1521_fw.mp4	0.0	317.2859570980072	0.0999598503112793
65	282.6652808189392	fix_pre	0		120	63.0	2.5	/experiments/AOT/AOT_stimuli/rescaled_final/1938_fw.mp4	0.0	317.3859169483185	0.9998860359191895
65	283.6651668548584	movie	1		247	63.0	2.5	/experiments/AOT/AOT_stimuli/rescaled_final/1938_fw.mp4	0.0	318.38580298423767	2.499667167663574
65	284.04828786849976	pulse	1	t		63.0	2.5	/experiments/AOT/AOT_stimuli/rescaled_final/1938_fw.mp4	0.0	318.768923997879	
65	285.64872193336487	pulse	1	t		63.0	2.5	/experiments/AOT/AOT_stimuli/rescaled_final/1938_fw.mp4	0.0	320.36935806274414	
65	286.164834022522	fix_post	2		12	63.0	2.5	/experiments/AOT/AOT_stimuli/rescaled_final/1938_fw.mp4	0.0	320.88547015190125	0.10045695304870605
66	286.2652909755707	fix_pre	0		119	64.0	2.5	/experiments/AOT/AOT_stimuli/rescaled_final/0108_rv.mp4	0.0	320.98592710494995	0.9916589260101318
66	287.24877190589905	pulse	0	t		64.0	2.5	/experiments/AOT/AOT_stimuli/rescaled_final/0108_rv.mp4	0.0	321.9694080352783	
66	287.2569499015808	movie	1		249	64.0	2.5	/experiments/AOT/AOT_stimuli/rescaled_final/0108_rv.mp4	0.0	321.9775860309601	2.508358955383301
66	288.848317861557	pulse	1	t		64.0	2.5	/experiments/AOT/AOT_stimuli/rescaled_final/0108_rv.mp4	0.0	323.5689539909363	
66	289.7653088569641	fix_post	2		12	64.0	2.5	/experiments/AOT/AOT_stimuli/rescaled_final/0108_rv.mp4	0.0	324.4859449863434	0.09992408752441406
67	289.8652329444885	fix_pre	0		120	65.0	2.5	/experiments/AOT/AOT_stimuli/rescaled_final/0436_fw.mp4	0.0	324.5858690738678	1.0000019073486328
67	290.44875383377075	pulse	0	t		65.0	2.5	/experiments/AOT/AOT_stimuli/rescaled_final/0436_fw.mp4	0.0	325.16938996315	
67	290.86523485183716	movie	1		245	65.0	2.5	/experiments/AOT/AOT_stimuli/rescaled_final/0436_fw.mp4	0.0	325.58587098121643	2.5000410079956055
67	292.04878401756287	pulse	1	t		65.0	2.5	/experiments/AOT/AOT_stimuli/rescaled_final/0436_fw.mp4	0.0	326.76942014694214	
67	293.36527585983276	fix_post	2		12	65.0	2.5	/experiments/AOT/AOT_stimuli/rescaled_final/0436_fw.mp4	0.0	328.08591198921204	0.09997010231018066
68	293.46524596214294	fix_pre	0		120	66.0	2.5	/experiments/AOT/AOT_stimuli/rescaled_final/1228_fw.mp4	0.0	328.1858820915222	0.999985933303833
68	293.6489088535309	pulse	0	t		66.0	2.5	/experiments/AOT/AOT_stimuli/rescaled_final/1228_fw.mp4	0.0	328.36954498291016	
68	294.4652318954468	movie	1		243	66.0	2.5	/experiments/AOT/AOT_stimuli/rescaled_final/1228_fw.mp4	0.0	329.18586802482605	2.4996531009674072
68	295.2486720085144	pulse	1	t		66.0	2.5	/experiments/AOT/AOT_stimuli/rescaled_final/1228_fw.mp4	0.0	329.9693081378937	
68	296.84690594673157	pulse	1	t		66.0	2.5	/experiments/AOT/AOT_stimuli/rescaled_final/1228_fw.mp4	0.0	331.56754207611084	
68	296.9648849964142	fix_post	2		12	66.0	2.5	/experiments/AOT/AOT_stimuli/rescaled_final/1228_fw.mp4	0.0	331.68552112579346	0.10031795501708984
69	297.0652029514313	fix_pre	0		120	67.0	2.5	/experiments/AOT/AOT_stimuli/rescaled_final/1746_fw.mp4	0.0	331.78583908081055	1.0000090599060059
69	298.0652120113373	movie	1		244	67.0	2.5	/experiments/AOT/AOT_stimuli/rescaled_final/1746_fw.mp4	0.0	332.78584814071655	2.4998998641967773
69	298.44843792915344	pulse	1	t		67.0	2.5	/experiments/AOT/AOT_stimuli/rescaled_final/1746_fw.mp4	0.0	333.1690740585327	
69	300.0486788749695	pulse	1	t		67.0	2.5	/experiments/AOT/AOT_stimuli/rescaled_final/1746_fw.mp4	0.0	334.76931500434875	
69	300.56511187553406	fix_post	2		12	67.0	2.5	/experiments/AOT/AOT_stimuli/rescaled_final/1746_fw.mp4	0.0	335.28574800491333	0.10006403923034668
70	300.6651759147644	fix_pre	0		119	68.0	2.5	blank	1.0	335.3858120441437	0.9916560649871826
70	301.64867901802063	pulse	0	t		68.0	2.5	blank	1.0	336.3693151473999	
70	301.6568319797516	movie	1		301	68.0	2.5	blank	1.0	336.37746810913086	2.5084638595581055
70	303.2486050128937	pulse	1	t		68.0	2.5	blank	1.0	337.96924114227295	
70	304.1652958393097	fix_post	2		12	68.0	2.5	blank	1.0	338.88593196868896	0.09988212585449219
71	304.2651779651642	fix_pre	0		120	69.0	2.5	/experiments/AOT/AOT_stimuli/rescaled_final/2128_rv.mp4	0.0	338.98581409454346	1.000058889389038
71	304.84858298301697	pulse	0	t		69.0	2.5	/experiments/AOT/AOT_stimuli/rescaled_final/2128_rv.mp4	0.0	339.56921911239624	
71	305.2652368545532	movie	1		246	69.0	2.5	/experiments/AOT/AOT_stimuli/rescaled_final/2128_rv.mp4	0.0	339.9858729839325	2.500185966491699
71	306.4486508369446	pulse	1	t		69.0	2.5	/experiments/AOT/AOT_stimuli/rescaled_final/2128_rv.mp4	0.0	341.16928696632385	
71	307.7654228210449	fix_post	2		12	69.0	2.5	/experiments/AOT/AOT_stimuli/rescaled_final/2128_rv.mp4	0.0	342.4860589504242	0.0995640754699707
72	307.8649868965149	fix_pre	0		120	70.0	2.5	/experiments/AOT/AOT_stimuli/rescaled_final/0345_rv.mp4	0.0	342.58562302589417	0.9998059272766113
72	308.0488839149475	pulse	0	t		70.0	2.5	/experiments/AOT/AOT_stimuli/rescaled_final/0345_rv.mp4	0.0	342.7695200443268	
72	308.8647928237915	movie	1		244	70.0	2.5	/experiments/AOT/AOT_stimuli/rescaled_final/0345_rv.mp4	0.0	343.5854289531708	2.4999091625213623
72	309.648619890213	pulse	1	t		70.0	2.5	/experiments/AOT/AOT_stimuli/rescaled_final/0345_rv.mp4	0.0	344.3692560195923	
72	311.24684381484985	pulse	1	t		70.0	2.5	/experiments/AOT/AOT_stimuli/rescaled_final/0345_rv.mp4	0.0	345.9674799442291	
72	311.36470198631287	fix_post	2		12	70.0	2.5	/experiments/AOT/AOT_stimuli/rescaled_final/0345_rv.mp4	0.0	346.08533811569214	0.10046982765197754
73	311.46517181396484	fix_pre	0		120	71.0	2.5	/experiments/AOT/AOT_stimuli/rescaled_final/0401_fw.mp4	0.0	346.1858079433441	1.000047206878662
73	312.4652190208435	movie	1		245	71.0	2.5	/experiments/AOT/AOT_stimuli/rescaled_final/0401_fw.mp4	0.0	347.1858551502228	2.4995110034942627
73	312.8496479988098	pulse	1	t		71.0	2.5	/experiments/AOT/AOT_stimuli/rescaled_final/0401_fw.mp4	0.0	347.5702841281891	
73	314.44855284690857	pulse	1	t		71.0	2.5	/experiments/AOT/AOT_stimuli/rescaled_final/0401_fw.mp4	0.0	349.16918897628784	
73	314.96473002433777	fix_post	2		12	71.0	2.5	/experiments/AOT/AOT_stimuli/rescaled_final/0401_fw.mp4	0.0	349.68536615371704	0.10035085678100586
74	315.0650808811188	fix_pre	0		119	72.0	2.5	/experiments/AOT/AOT_stimuli/rescaled_final/0925_rv.mp4	0.0	349.78571701049805	0.9917171001434326
74	316.0485489368439	pulse	0	t		72.0	2.5	/experiments/AOT/AOT_stimuli/rescaled_final/0925_rv.mp4	0.0	350.76918506622314	
74	316.0567979812622	movie	1		246	72.0	2.5	/experiments/AOT/AOT_stimuli/rescaled_final/0925_rv.mp4	0.0	350.7774341106415	2.508302927017212
74	317.6482198238373	pulse	1	t		72.0	2.5	/experiments/AOT/AOT_stimuli/rescaled_final/0925_rv.mp4	0.0	352.36885595321655	
74	318.5651009082794	fix_post	2		12	72.0	2.5	/experiments/AOT/AOT_stimuli/rescaled_final/0925_rv.mp4	0.0	353.2857370376587	0.09996294975280762
75	318.6650638580322	fix_pre	0		120	73.0	2.5	/experiments/AOT/AOT_stimuli/rescaled_final/0487_rv.mp4	0.0	353.3856999874115	1.000049114227295
75	319.248566865921	pulse	0	t		73.0	2.5	/experiments/AOT/AOT_stimuli/rescaled_final/0487_rv.mp4	0.0	353.9692029953003	
75	319.6651129722595	movie	1		247	73.0	2.5	/experiments/AOT/AOT_stimuli/rescaled_final/0487_rv.mp4	0.0	354.3857491016388	2.4999330043792725
75	320.84861993789673	pulse	1	t		73.0	2.5	/experiments/AOT/AOT_stimuli/rescaled_final/0487_rv.mp4	0.0	355.569256067276	
75	322.1650459766388	fix_post	2		12	73.0	2.5	/experiments/AOT/AOT_stimuli/rescaled_final/0487_rv.mp4	0.0	356.88568210601807	0.10004305839538574
76	322.2650890350342	fix_pre	0		120	74.0	2.5	/experiments/AOT/AOT_stimuli/rescaled_final/1238_fw.mp4	0.0	356.98572516441345	0.9999988079071045
76	322.4486289024353	pulse	0	t		74.0	2.5	/experiments/AOT/AOT_stimuli/rescaled_final/1238_fw.mp4	0.0	357.1692650318146	
76	323.2650878429413	movie	1		243	74.0	2.5	/experiments/AOT/AOT_stimuli/rescaled_final/1238_fw.mp4	0.0	357.98572397232056	2.500033140182495
76	324.04854702949524	pulse	1	t		74.0	2.5	/experiments/AOT/AOT_stimuli/rescaled_final/1238_fw.mp4	0.0	358.7691831588745	
76	325.65697503089905	pulse	1	t		74.0	2.5	/experiments/AOT/AOT_stimuli/rescaled_final/1238_fw.mp4	0.0	360.3776111602783	
76	325.7651209831238	fix_post	2		12	74.0	2.5	/experiments/AOT/AOT_stimuli/rescaled_final/1238_fw.mp4	0.0	360.48575711250305	0.09991192817687988
77	325.86503291130066	fix_pre	0		120	75.0	2.5	blank	1.0	360.58566904067993	1.0000050067901611
77	326.8650379180908	movie	1		300	75.0	2.5	blank	1.0	361.5856740474701	2.500009059906006
77	327.2487049102783	pulse	1	t		75.0	2.5	blank	1.0	361.9693410396576	
77	328.8485310077667	pulse	1	t		75.0	2.5	blank	1.0	363.569167137146	
77	329.3650469779968	fix_post	2		12	75.0	2.5	blank	1.0	364.0856831073761	0.09996390342712402
78	329.46501088142395	fix_pre	0		119	76.0	2.5	/experiments/AOT/AOT_stimuli/rescaled_final/0952_rv.mp4	0.0	364.1856470108032	0.9916901588439941
78	330.44858598709106	pulse	0	t		76.0	2.5	/experiments/AOT/AOT_stimuli/rescaled_final/0952_rv.mp4	0.0	365.16922211647034	
78	330.45670104026794	movie	1		249	76.0	2.5	/experiments/AOT/AOT_stimuli/rescaled_final/0952_rv.mp4	0.0	365.1773371696472	2.5084478855133057
78	332.04806184768677	pulse	1	t		76.0	2.5	/experiments/AOT/AOT_stimuli/rescaled_final/0952_rv.mp4	0.0	366.76869797706604	
78	332.96514892578125	fix_post	2		12	76.0	2.5	/experiments/AOT/AOT_stimuli/rescaled_final/0952_rv.mp4	0.0	367.6857850551605	0.0999140739440918
79	333.06506299972534	fix_pre	0		120	77.0	2.5	/experiments/AOT/AOT_stimuli/rescaled_final/1393_rv.mp4	0.0	367.7856991291046	1.0
79	333.64853501319885	pulse	0	t		77.0	2.5	/experiments/AOT/AOT_stimuli/rescaled_final/1393_rv.mp4	0.0	368.3691711425781	
79	334.06506299972534	movie	1		246	77.0	2.5	/experiments/AOT/AOT_stimuli/rescaled_final/1393_rv.mp4	0.0	368.7856991291046	2.4995579719543457
79	335.2486159801483	pulse	1	t		77.0	2.5	/experiments/AOT/AOT_stimuli/rescaled_final/1393_rv.mp4	0.0	369.9692521095276	
79	336.5646209716797	fix_post	2		12	77.0	2.5	/experiments/AOT/AOT_stimuli/rescaled_final/1393_rv.mp4	0.0	371.28525710105896	0.10044598579406738
80	336.66506695747375	fix_pre	0		120	78.0	2.5	/experiments/AOT/AOT_stimuli/rescaled_final/1258_fw.mp4	0.0	371.385703086853	1.0000338554382324
80	336.84847497940063	pulse	0	t		78.0	2.5	/experiments/AOT/AOT_stimuli/rescaled_final/1258_fw.mp4	0.0	371.5691111087799	
80	337.665100812912	movie	1		244	78.0	2.5	/experiments/AOT/AOT_stimuli/rescaled_final/1258_fw.mp4	0.0	372.38573694229126	2.4998581409454346
80	338.4484488964081	pulse	1	t		78.0	2.5	/experiments/AOT/AOT_stimuli/rescaled_final/1258_fw.mp4	0.0	373.16908502578735	
80	340.047080039978	pulse	1	t		78.0	2.5	/experiments/AOT/AOT_stimuli/rescaled_final/1258_fw.mp4	0.0	374.7677161693573	
80	340.1649589538574	fix_post	2		12	78.0	2.5	/experiments/AOT/AOT_stimuli/rescaled_final/1258_fw.mp4	0.0	374.8855950832367	0.10003495216369629
81	340.2649939060211	fix_pre	0		120	79.0	2.5	/experiments/AOT/AOT_stimuli/rescaled_final/0952_rv.mp4	0.0	374.9856300354004	0.9995579719543457
81	341.26455187797546	movie	1		249	79.0	2.5	/experiments/AOT/AOT_stimuli/rescaled_final/0952_rv.mp4	0.0	375.98518800735474	2.5000290870666504
81	341.64792490005493	pulse	1	t		79.0	2.5	/experiments/AOT/AOT_stimuli/rescaled_final/0952_rv.mp4	0.0	376.3685610294342	
81	343.2485179901123	pulse	1	t		79.0	2.5	/experiments/AOT/AOT_stimuli/rescaled_final/0952_rv.mp4	0.0	377.9691541194916	
81	343.7645809650421	fix_post	2		12	79.0	2.5	/experiments/AOT/AOT_stimuli/rescaled_final/0952_rv.mp4	0.0	378.4852170944214	0.10037493705749512
82	343.8649559020996	fix_pre	0		119	80.0	2.5	/experiments/AOT/AOT_stimuli/rescaled_final/1555_rv.mp4	0.0	378.5855920314789	0.9917111396789551
82	344.8484959602356	pulse	0	t		80.0	2.5	/experiments/AOT/AOT_stimuli/rescaled_final/1555_rv.mp4	0.0	379.56913208961487	
82	344.85666704177856	movie	1		245	80.0	2.5	/experiments/AOT/AOT_stimuli/rescaled_final/1555_rv.mp4	0.0	379.57730317115784	2.508241891860962
82	346.4483618736267	pulse	1	t		80.0	2.5	/experiments/AOT/AOT_stimuli/rescaled_final/1555_rv.mp4	0.0	381.168998003006	
82	347.3649089336395	fix_post	2		12	80.0	2.5	/experiments/AOT/AOT_stimuli/rescaled_final/1555_rv.mp4	0.0	382.0855450630188	0.10001206398010254
83	347.46492099761963	fix_pre	0		120	81.0	2.5	/experiments/AOT/AOT_stimuli/rescaled_final/1896_rv.mp4	0.0	382.1855571269989	0.9999480247497559
83	348.04840183258057	pulse	0	t		81.0	2.5	/experiments/AOT/AOT_stimuli/rescaled_final/1896_rv.mp4	0.0	382.76903796195984	
83	348.4648690223694	movie	1		243	81.0	2.5	/experiments/AOT/AOT_stimuli/rescaled_final/1896_rv.mp4	0.0	383.18550515174866	2.5000319480895996
83	349.64853501319885	pulse	1	t		81.0	2.5	/experiments/AOT/AOT_stimuli/rescaled_final/1896_rv.mp4	0.0	384.3691711425781	
83	350.964900970459	fix_post	2		12	81.0	2.5	/experiments/AOT/AOT_stimuli/rescaled_final/1896_rv.mp4	0.0	385.68553709983826	0.10005402565002441
84	351.064954996109	fix_pre	0		120	82.0	2.5	/experiments/AOT/AOT_stimuli/rescaled_final/1094_rv.mp4	0.0	385.7855911254883	1.0000269412994385
84	351.248477935791	pulse	0	t		82.0	2.5	/experiments/AOT/AOT_stimuli/rescaled_final/1094_rv.mp4	0.0	385.9691140651703	
84	352.06498193740845	movie	1		243	82.0	2.5	/experiments/AOT/AOT_stimuli/rescaled_final/1094_rv.mp4	0.0	386.7856180667877	2.499483108520508
84	352.8484058380127	pulse	1	t		82.0	2.5	/experiments/AOT/AOT_stimuli/rescaled_final/1094_rv.mp4	0.0	387.56904196739197	
84	354.4568238258362	pulse	1	t		82.0	2.5	/experiments/AOT/AOT_stimuli/rescaled_final/1094_rv.mp4	0.0	389.17745995521545	
84	354.56446504592896	fix_post	2		12	82.0	2.5	/experiments/AOT/AOT_stimuli/rescaled_final/1094_rv.mp4	0.0	389.2851011753082	0.10043478012084961
85	354.6648998260498	fix_pre	0		120	83.0	2.5	blank	1.0	389.3855359554291	0.9999861717224121
85	355.6648859977722	movie	1		300	83.0	2.5	blank	1.0	390.3855221271515	2.4999749660491943
85	356.0484139919281	pulse	1	t		83.0	2.5	blank	1.0	390.7690501213074	
85	357.6483578681946	pulse	1	t		83.0	2.5	blank	1.0	392.36899399757385	
85	358.1648609638214	fix_post	2		12	83.0	2.5	blank	1.0	392.8854970932007	0.10000491142272949
87	358.26486587524414	stim	0		1716					392.9855020046234	14.30000114440918
87	359.2483780384064	pulse	0	t						393.96901416778564	
87	360.8483638763428	pulse	0	t						395.56900000572205	
87	362.447988986969	pulse	0	t						397.16862511634827	
87	364.04860401153564	pulse	0	t						398.7692401409149	
87	365.64838695526123	pulse	0	t						400.3690230846405	
87	367.24834299087524	pulse	0	t						401.9689791202545	
87	368.84836983680725	pulse	0	t						403.5690059661865	
87	370.44825196266174	pulse	0	t						405.168888092041	
87	372.0482349395752	pulse	0	t						406.76887106895447	
