trial_nr	onset	event_type	phase	response	nr_frames	movie_index	movie_duration	movie_file	blank	onset_abs	duration
0	0.14990782737731934	stim	0		36					18.655250072479248	0.29999876022338867
0	0.44168901443481445	response	0	space						18.947031259536743	
1	0.449906587600708	stim	0		4473					18.955248832702637	37.29148840904236
1	37.73182916641235	pulse	0	t						56.23717141151428	
1	37.741394996643066	stim	1		1715					56.246737241744995	14.30788516998291
1	39.322734117507935	pulse	1	t						57.82807636260986	
1	40.922802686691284	pulse	1	t						59.42814493179321	
1	42.52303695678711	pulse	1	t						61.02837920188904	
1	44.123244285583496	pulse	1	t						62.628586530685425	
1	45.72349739074707	pulse	1	t						64.228839635849	
1	47.323734998703	pulse	1	t						65.82907724380493	
1	48.923970460891724	pulse	1	t						67.42931270599365	
1	50.524251222610474	pulse	1	t						69.0295934677124	
2	52.04928016662598	fix_pre	0		10	0.0	2.5	/experiments/Knapen_AOT/AOT_stimuli/rescaled_final/1098_fw.mp4	0.0	70.5546224117279	0.1001889705657959
2	52.12449669837952	pulse	0	t		0.0	2.5	/experiments/Knapen_AOT/AOT_stimuli/rescaled_final/1098_fw.mp4	0.0	70.62983894348145	
2	52.14946913719177	movie	1		289	0.0	2.5	/experiments/Knapen_AOT/AOT_stimuli/rescaled_final/1098_fw.mp4	0.0	70.6548113822937	2.4918816089630127
2	53.72321033477783	pulse	1	t		0.0	2.5	/experiments/Knapen_AOT/AOT_stimuli/rescaled_final/1098_fw.mp4	0.0	72.22855257987976	
2	54.641350746154785	fix_post	2		12	0.0	2.5	/experiments/Knapen_AOT/AOT_stimuli/rescaled_final/1098_fw.mp4	0.0	73.14669299125671	0.10008621215820312
3	54.74143695831299	fix_pre	0		120	1.0	2.5	/experiments/Knapen_AOT/AOT_stimuli/rescaled_final/0191_fw.mp4	0.0	73.24677920341492	1.008408784866333
3	55.325063705444336	pulse	0	t		1.0	2.5	/experiments/Knapen_AOT/AOT_stimuli/rescaled_final/0191_fw.mp4	0.0	73.83040595054626	
3	55.74984574317932	movie	1		288	1.0	2.5	/experiments/Knapen_AOT/AOT_stimuli/rescaled_final/0191_fw.mp4	0.0	74.25518798828125	2.49204158782959
3	56.92365837097168	pulse	1	t		1.0	2.5	/experiments/Knapen_AOT/AOT_stimuli/rescaled_final/0191_fw.mp4	0.0	75.42900061607361	
3	58.24188733100891	fix_post	2		12	1.0	2.5	/experiments/Knapen_AOT/AOT_stimuli/rescaled_final/0191_fw.mp4	0.0	76.74722957611084	0.10001420974731445
4	58.341901540756226	fix_pre	0		120	2.0	2.5	/experiments/Knapen_AOT/AOT_stimuli/rescaled_final/0588_fw.mp4	0.0	76.84724378585815	1.0085351467132568
4	58.525463342666626	pulse	0	t		2.0	2.5	/experiments/Knapen_AOT/AOT_stimuli/rescaled_final/0588_fw.mp4	0.0	77.03080558776855	
4	59.35043668746948	movie	1		288	2.0	2.5	/experiments/Knapen_AOT/AOT_stimuli/rescaled_final/0588_fw.mp4	0.0	77.85577893257141	2.4919981956481934
4	60.12388253211975	pulse	1	t		2.0	2.5	/experiments/Knapen_AOT/AOT_stimuli/rescaled_final/0588_fw.mp4	0.0	78.62922477722168	
4	61.72409629821777	pulse	1	t		2.0	2.5	/experiments/Knapen_AOT/AOT_stimuli/rescaled_final/0588_fw.mp4	0.0	80.2294385433197	
4	61.842434883117676	fix_post	2		12	2.0	2.5	/experiments/Knapen_AOT/AOT_stimuli/rescaled_final/0588_fw.mp4	0.0	80.3477771282196	0.10005974769592285
5	61.9424946308136	fix_pre	0		120	3.0	2.5	/experiments/Knapen_AOT/AOT_stimuli/rescaled_final/0160_rv.mp4	0.0	80.44783687591553	1.0084383487701416
5	62.95093297958374	movie	1		294	3.0	2.5	/experiments/Knapen_AOT/AOT_stimuli/rescaled_final/0160_rv.mp4	0.0	81.45627522468567	2.4920308589935303
5	63.324496269226074	pulse	1	t		3.0	2.5	/experiments/Knapen_AOT/AOT_stimuli/rescaled_final/0160_rv.mp4	0.0	81.829838514328	
5	64.92437505722046	pulse	1	t		3.0	2.5	/experiments/Knapen_AOT/AOT_stimuli/rescaled_final/0160_rv.mp4	0.0	83.42971730232239	
5	65.44296383857727	fix_post	2		12	3.0	2.5	/experiments/Knapen_AOT/AOT_stimuli/rescaled_final/0160_rv.mp4	0.0	83.9483060836792	0.10001730918884277
6	65.54298114776611	fix_pre	0		119	4.0	2.5	/experiments/Knapen_AOT/AOT_stimuli/rescaled_final/1462_rv.mp4	0.0	84.04832339286804	1.0001633167266846
6	66.52664351463318	pulse	0	t		4.0	2.5	/experiments/Knapen_AOT/AOT_stimuli/rescaled_final/1462_rv.mp4	0.0	85.03198575973511	
6	66.5431444644928	movie	1		283	4.0	2.5	/experiments/Knapen_AOT/AOT_stimuli/rescaled_final/1462_rv.mp4	0.0	85.04848670959473	2.5003645420074463
6	68.12578630447388	pulse	1	t		4.0	2.5	/experiments/Knapen_AOT/AOT_stimuli/rescaled_final/1462_rv.mp4	0.0	86.6311285495758	
6	69.04350900650024	fix_post	2		12	4.0	2.5	/experiments/Knapen_AOT/AOT_stimuli/rescaled_final/1462_rv.mp4	0.0	87.54885125160217	0.10001492500305176
7	69.1435239315033	fix_pre	0		120	5.0	2.5	blank	1.0	87.64886617660522	1.0001673698425293
7	69.72714734077454	pulse	0	t		5.0	2.5	blank	1.0	88.23248958587646	
7	70.14369130134583	movie	1		300	5.0	2.5	blank	1.0	88.64903354644775	2.500357151031494
7	71.3273994922638	pulse	1	t		5.0	2.5	blank	1.0	89.83274173736572	
7	72.64404845237732	fix_post	2		12	5.0	2.5	blank	1.0	91.14939069747925	0.10001611709594727
8	72.74406456947327	fix_pre	0		120	6.0	2.5	/experiments/Knapen_AOT/AOT_stimuli/rescaled_final/1866_fw.mp4	0.0	91.2494068145752	1.0085139274597168
8	72.92761993408203	pulse	0	t		6.0	2.5	/experiments/Knapen_AOT/AOT_stimuli/rescaled_final/1866_fw.mp4	0.0	91.43296217918396	
8	73.75257849693298	movie	1		293	6.0	2.5	/experiments/Knapen_AOT/AOT_stimuli/rescaled_final/1866_fw.mp4	0.0	92.25792074203491	2.4920177459716797
8	74.52587866783142	pulse	1	t		6.0	2.5	/experiments/Knapen_AOT/AOT_stimuli/rescaled_final/1866_fw.mp4	0.0	93.03122091293335	
8	76.12596011161804	pulse	1	t		6.0	2.5	/experiments/Knapen_AOT/AOT_stimuli/rescaled_final/1866_fw.mp4	0.0	94.63130235671997	
8	76.24459624290466	fix_post	2		12	6.0	2.5	/experiments/Knapen_AOT/AOT_stimuli/rescaled_final/1866_fw.mp4	0.0	94.74993848800659	0.10001349449157715
9	76.34460973739624	fix_pre	0		120	7.0	2.5	/experiments/Knapen_AOT/AOT_stimuli/rescaled_final/0456_fw.mp4	0.0	94.84995198249817	1.008481502532959
9	77.3530912399292	movie	1		286	7.0	2.5	/experiments/Knapen_AOT/AOT_stimuli/rescaled_final/0456_fw.mp4	0.0	95.85843348503113	2.4920334815979004
9	77.72655749320984	pulse	1	t		7.0	2.5	/experiments/Knapen_AOT/AOT_stimuli/rescaled_final/0456_fw.mp4	0.0	96.23189973831177	
9	79.32651686668396	pulse	1	t		7.0	2.5	/experiments/Knapen_AOT/AOT_stimuli/rescaled_final/0456_fw.mp4	0.0	97.83185911178589	
9	79.8451247215271	fix_post	2		12	7.0	2.5	/experiments/Knapen_AOT/AOT_stimuli/rescaled_final/0456_fw.mp4	0.0	98.35046696662903	0.10005402565002441
10	79.94517874717712	fix_pre	0		119	8.0	2.5	/experiments/Knapen_AOT/AOT_stimuli/rescaled_final/0688_fw.mp4	0.0	98.45052099227905	1.0001568794250488
10	80.92889451980591	pulse	0	t		8.0	2.5	/experiments/Knapen_AOT/AOT_stimuli/rescaled_final/0688_fw.mp4	0.0	99.43423676490784	
10	80.94533562660217	movie	1		296	8.0	2.5	/experiments/Knapen_AOT/AOT_stimuli/rescaled_final/0688_fw.mp4	0.0	99.4506778717041	2.5003392696380615
10	82.5276346206665	pulse	1	t		8.0	2.5	/experiments/Knapen_AOT/AOT_stimuli/rescaled_final/0688_fw.mp4	0.0	101.03297686576843	
10	83.44567489624023	fix_post	2		12	8.0	2.5	/experiments/Knapen_AOT/AOT_stimuli/rescaled_final/0688_fw.mp4	0.0	101.95101714134216	0.1000361442565918
11	83.54571104049683	fix_pre	0		120	9.0	2.5	/experiments/Knapen_AOT/AOT_stimuli/rescaled_final/1392_rv.mp4	0.0	102.05105328559875	1.0084781646728516
11	84.12126660346985	pulse	0	t		9.0	2.5	/experiments/Knapen_AOT/AOT_stimuli/rescaled_final/1392_rv.mp4	0.0	102.62660884857178	
11	84.55418920516968	movie	1		289	9.0	2.5	/experiments/Knapen_AOT/AOT_stimuli/rescaled_final/1392_rv.mp4	0.0	103.0595314502716	2.492004632949829
11	85.72145342826843	pulse	1	t		9.0	2.5	/experiments/Knapen_AOT/AOT_stimuli/rescaled_final/1392_rv.mp4	0.0	104.22679567337036	
11	87.0461938381195	fix_post	2		12	9.0	2.5	/experiments/Knapen_AOT/AOT_stimuli/rescaled_final/1392_rv.mp4	0.0	105.55153608322144	0.10008049011230469
12	87.14627432823181	fix_pre	0		120	10.0	2.5	/experiments/Knapen_AOT/AOT_stimuli/rescaled_final/0233_fw.mp4	0.0	105.65161657333374	1.0086073875427246
12	87.32149052619934	pulse	0	t		10.0	2.5	/experiments/Knapen_AOT/AOT_stimuli/rescaled_final/0233_fw.mp4	0.0	105.82683277130127	
12	88.15488171577454	movie	1		284	10.0	2.5	/experiments/Knapen_AOT/AOT_stimuli/rescaled_final/0233_fw.mp4	0.0	106.66022396087646	2.491872787475586
12	88.92183017730713	pulse	1	t		10.0	2.5	/experiments/Knapen_AOT/AOT_stimuli/rescaled_final/0233_fw.mp4	0.0	107.42717242240906	
12	90.52195024490356	pulse	1	t		10.0	2.5	/experiments/Knapen_AOT/AOT_stimuli/rescaled_final/0233_fw.mp4	0.0	109.0272924900055	
12	90.64675450325012	fix_post	2		12	10.0	2.5	/experiments/Knapen_AOT/AOT_stimuli/rescaled_final/0233_fw.mp4	0.0	109.15209674835205	0.10004568099975586
13	90.74680018424988	fix_pre	0		120	11.0	2.5	/experiments/Knapen_AOT/AOT_stimuli/rescaled_final/1109_rv.mp4	0.0	109.2521424293518	1.0085294246673584
13	91.75532960891724	movie	1		285	11.0	2.5	/experiments/Knapen_AOT/AOT_stimuli/rescaled_final/1109_rv.mp4	0.0	110.26067185401917	2.4919681549072266
13	92.12228178977966	pulse	1	t		11.0	2.5	/experiments/Knapen_AOT/AOT_stimuli/rescaled_final/1109_rv.mp4	0.0	110.62762403488159	
13	93.72248983383179	pulse	1	t		11.0	2.5	/experiments/Knapen_AOT/AOT_stimuli/rescaled_final/1109_rv.mp4	0.0	112.22783207893372	
13	94.24729776382446	fix_post	2		12	11.0	2.5	/experiments/Knapen_AOT/AOT_stimuli/rescaled_final/1109_rv.mp4	0.0	112.75264000892639	0.1000676155090332
14	94.3473653793335	fix_pre	0		118	12.0	2.5	/experiments/Knapen_AOT/AOT_stimuli/rescaled_final/0543_rv.mp4	0.0	112.85270762443542	0.991854190826416
14	95.32267141342163	pulse	0	t		12.0	2.5	/experiments/Knapen_AOT/AOT_stimuli/rescaled_final/0543_rv.mp4	0.0	113.82801365852356	
14	95.33921957015991	movie	1		292	12.0	2.5	/experiments/Knapen_AOT/AOT_stimuli/rescaled_final/0543_rv.mp4	0.0	113.84456181526184	2.5002756118774414
14	96.92161917686462	pulse	1	t		12.0	2.5	/experiments/Knapen_AOT/AOT_stimuli/rescaled_final/0543_rv.mp4	0.0	115.42696142196655	
14	97.83949518203735	fix_post	2		12	12.0	2.5	/experiments/Knapen_AOT/AOT_stimuli/rescaled_final/0543_rv.mp4	0.0	116.34483742713928	0.10001873970031738
15	97.93951392173767	fix_pre	0		120	13.0	2.5	/experiments/Knapen_AOT/AOT_stimuli/rescaled_final/0157_fw.mp4	0.0	116.4448561668396	1.0085248947143555
15	98.52357769012451	pulse	0	t		13.0	2.5	/experiments/Knapen_AOT/AOT_stimuli/rescaled_final/0157_fw.mp4	0.0	117.02891993522644	
15	98.94803881645203	movie	1		288	13.0	2.5	/experiments/Knapen_AOT/AOT_stimuli/rescaled_final/0157_fw.mp4	0.0	117.45338106155396	2.492022752761841
15	100.12357139587402	pulse	1	t		13.0	2.5	/experiments/Knapen_AOT/AOT_stimuli/rescaled_final/0157_fw.mp4	0.0	118.62891364097595	
15	101.44006156921387	fix_post	2		12	13.0	2.5	/experiments/Knapen_AOT/AOT_stimuli/rescaled_final/0157_fw.mp4	0.0	119.9454038143158	0.09999918937683105
16	101.5400607585907	fix_pre	0		120	14.0	2.5	blank	1.0	120.04540300369263	1.0001401901245117
16	101.72361540794373	pulse	0	t		14.0	2.5	blank	1.0	120.22895765304565	
16	102.54020094871521	movie	1		300	14.0	2.5	blank	1.0	121.04554319381714	2.5004608631134033
16	103.32382774353027	pulse	1	t		14.0	2.5	blank	1.0	121.8291699886322	
16	104.92410945892334	pulse	1	t		14.0	2.5	blank	1.0	123.42945170402527	
16	105.04066181182861	fix_post	2		12	14.0	2.5	blank	1.0	123.54600405693054	0.10000824928283691
17	105.14067006111145	fix_pre	0		120	15.0	2.5	/experiments/Knapen_AOT/AOT_stimuli/rescaled_final/1436_rv.mp4	0.0	123.64601230621338	1.0084877014160156
17	106.14915776252747	movie	1		285	15.0	2.5	/experiments/Knapen_AOT/AOT_stimuli/rescaled_final/1436_rv.mp4	0.0	124.6545000076294	2.4919848442077637
17	106.52317070960999	pulse	1	t		15.0	2.5	/experiments/Knapen_AOT/AOT_stimuli/rescaled_final/1436_rv.mp4	0.0	125.02851295471191	
17	108.12256073951721	pulse	1	t		15.0	2.5	/experiments/Knapen_AOT/AOT_stimuli/rescaled_final/1436_rv.mp4	0.0	126.62790298461914	
17	108.64114260673523	fix_post	2		12	15.0	2.5	/experiments/Knapen_AOT/AOT_stimuli/rescaled_final/1436_rv.mp4	0.0	127.14648485183716	0.10001897811889648
18	108.74116158485413	fix_pre	0		119	16.0	2.5	/experiments/Knapen_AOT/AOT_stimuli/rescaled_final/0502_fw.mp4	0.0	127.24650382995605	1.000143051147461
18	109.7248125076294	pulse	0	t		16.0	2.5	/experiments/Knapen_AOT/AOT_stimuli/rescaled_final/0502_fw.mp4	0.0	128.23015475273132	
18	109.74130463600159	movie	1		292	16.0	2.5	/experiments/Knapen_AOT/AOT_stimuli/rescaled_final/0502_fw.mp4	0.0	128.24664688110352	2.5003747940063477
18	111.32379937171936	pulse	1	t		16.0	2.5	/experiments/Knapen_AOT/AOT_stimuli/rescaled_final/0502_fw.mp4	0.0	129.8291416168213	
18	112.24167943000793	fix_post	2		12	16.0	2.5	/experiments/Knapen_AOT/AOT_stimuli/rescaled_final/0502_fw.mp4	0.0	130.74702167510986	0.10000777244567871
19	112.34168720245361	fix_pre	0		120	17.0	2.5	/experiments/Knapen_AOT/AOT_stimuli/rescaled_final/0999_fw.mp4	0.0	130.84702944755554	1.008516550064087
19	112.92527890205383	pulse	0	t		17.0	2.5	/experiments/Knapen_AOT/AOT_stimuli/rescaled_final/0999_fw.mp4	0.0	131.43062114715576	
19	113.3502037525177	movie	1		294	17.0	2.5	/experiments/Knapen_AOT/AOT_stimuli/rescaled_final/0999_fw.mp4	0.0	131.85554599761963	2.4920260906219482
19	114.52417540550232	pulse	1	t		17.0	2.5	/experiments/Knapen_AOT/AOT_stimuli/rescaled_final/0999_fw.mp4	0.0	133.02951765060425	
19	115.84222984313965	fix_post	2		12	17.0	2.5	/experiments/Knapen_AOT/AOT_stimuli/rescaled_final/0999_fw.mp4	0.0	134.34757208824158	0.10007214546203613
20	115.94230198860168	fix_pre	0		120	18.0	2.5	/experiments/Knapen_AOT/AOT_stimuli/rescaled_final/2112_rv.mp4	0.0	134.4476442337036	1.0084421634674072
20	116.12578463554382	pulse	0	t		18.0	2.5	/experiments/Knapen_AOT/AOT_stimuli/rescaled_final/2112_rv.mp4	0.0	134.63112688064575	
20	116.95074415206909	movie	1		288	18.0	2.5	/experiments/Knapen_AOT/AOT_stimuli/rescaled_final/2112_rv.mp4	0.0	135.45608639717102	2.491997241973877
20	117.72402238845825	pulse	1	t		18.0	2.5	/experiments/Knapen_AOT/AOT_stimuli/rescaled_final/2112_rv.mp4	0.0	136.22936463356018	
20	119.32438945770264	pulse	1	t		18.0	2.5	/experiments/Knapen_AOT/AOT_stimuli/rescaled_final/2112_rv.mp4	0.0	137.82973170280457	
20	119.44274139404297	fix_post	2		12	18.0	2.5	/experiments/Knapen_AOT/AOT_stimuli/rescaled_final/2112_rv.mp4	0.0	137.9480836391449	0.10002994537353516
21	119.5427713394165	fix_pre	0		120	19.0	2.5	/experiments/Knapen_AOT/AOT_stimuli/rescaled_final/1456_fw.mp4	0.0	138.04811358451843	1.0085654258728027
21	120.5513367652893	movie	1		285	19.0	2.5	/experiments/Knapen_AOT/AOT_stimuli/rescaled_final/1456_fw.mp4	0.0	139.05667901039124	2.491987466812134
21	120.92622065544128	pulse	1	t		19.0	2.5	/experiments/Knapen_AOT/AOT_stimuli/rescaled_final/1456_fw.mp4	0.0	139.4315629005432	
21	122.5246069431305	pulse	1	t		19.0	2.5	/experiments/Knapen_AOT/AOT_stimuli/rescaled_final/1456_fw.mp4	0.0	141.02994918823242	
21	123.04332423210144	fix_post	2		12	19.0	2.5	/experiments/Knapen_AOT/AOT_stimuli/rescaled_final/1456_fw.mp4	0.0	141.54866647720337	0.09999632835388184
22	123.14332056045532	fix_pre	0		119	20.0	2.5	/experiments/Knapen_AOT/AOT_stimuli/rescaled_final/1888_rv.mp4	0.0	141.64866280555725	1.0001466274261475
22	124.12702250480652	pulse	0	t		20.0	2.5	/experiments/Knapen_AOT/AOT_stimuli/rescaled_final/1888_rv.mp4	0.0	142.63236474990845	
22	124.14346718788147	movie	1		289	20.0	2.5	/experiments/Knapen_AOT/AOT_stimuli/rescaled_final/1888_rv.mp4	0.0	142.6488094329834	2.500373601913452
22	125.72608947753906	pulse	1	t		20.0	2.5	/experiments/Knapen_AOT/AOT_stimuli/rescaled_final/1888_rv.mp4	0.0	144.231431722641	
22	126.64384078979492	fix_post	2		12	20.0	2.5	/experiments/Knapen_AOT/AOT_stimuli/rescaled_final/1888_rv.mp4	0.0	145.14918303489685	0.10000061988830566
23	126.74384140968323	fix_pre	0		120	21.0	2.5	blank	1.0	145.24918365478516	1.0001425743103027
23	127.3277838230133	pulse	0	t		21.0	2.5	blank	1.0	145.83312606811523	
23	127.74398398399353	movie	1		300	21.0	2.5	blank	1.0	146.24932622909546	2.500401735305786
23	128.9279022216797	pulse	1	t		21.0	2.5	blank	1.0	147.43324446678162	
23	130.24438571929932	fix_post	2		12	21.0	2.5	blank	1.0	148.74972796440125	0.10008788108825684
24	130.34447360038757	fix_pre	0		120	22.0	2.5	/experiments/Knapen_AOT/AOT_stimuli/rescaled_final/1049_fw.mp4	0.0	148.8498158454895	1.0083889961242676
24	130.52799820899963	pulse	0	t		22.0	2.5	/experiments/Knapen_AOT/AOT_stimuli/rescaled_final/1049_fw.mp4	0.0	149.03334045410156	
24	131.35286259651184	movie	1		282	22.0	2.5	/experiments/Knapen_AOT/AOT_stimuli/rescaled_final/1049_fw.mp4	0.0	149.85820484161377	2.4920759201049805
24	132.12621188163757	pulse	1	t		22.0	2.5	/experiments/Knapen_AOT/AOT_stimuli/rescaled_final/1049_fw.mp4	0.0	150.6315541267395	
24	133.72644209861755	pulse	1	t		22.0	2.5	/experiments/Knapen_AOT/AOT_stimuli/rescaled_final/1049_fw.mp4	0.0	152.23178434371948	
24	133.84493851661682	fix_post	2		12	22.0	2.5	/experiments/Knapen_AOT/AOT_stimuli/rescaled_final/1049_fw.mp4	0.0	152.35028076171875	0.09998583793640137
25	133.94492435455322	fix_pre	0		120	23.0	2.5	/experiments/Knapen_AOT/AOT_stimuli/rescaled_final/1163_rv.mp4	0.0	152.45026659965515	1.0085010528564453
25	134.95342540740967	movie	1		282	23.0	2.5	/experiments/Knapen_AOT/AOT_stimuli/rescaled_final/1163_rv.mp4	0.0	153.4587676525116	2.4920666217803955
25	135.32714796066284	pulse	1	t		23.0	2.5	/experiments/Knapen_AOT/AOT_stimuli/rescaled_final/1163_rv.mp4	0.0	153.83249020576477	
25	136.9275279045105	pulse	1	t		23.0	2.5	/experiments/Knapen_AOT/AOT_stimuli/rescaled_final/1163_rv.mp4	0.0	155.43287014961243	
25	137.44549202919006	fix_post	2		12	23.0	2.5	/experiments/Knapen_AOT/AOT_stimuli/rescaled_final/1163_rv.mp4	0.0	155.950834274292	0.1000211238861084
26	137.54551315307617	fix_pre	0		119	24.0	2.5	/experiments/Knapen_AOT/AOT_stimuli/rescaled_final/1287_fw.mp4	0.0	156.0508553981781	1.008531093597412
26	138.52916288375854	pulse	0	t		24.0	2.5	/experiments/Knapen_AOT/AOT_stimuli/rescaled_final/1287_fw.mp4	0.0	157.03450512886047	
26	138.55404424667358	movie	1		284	24.0	2.5	/experiments/Knapen_AOT/AOT_stimuli/rescaled_final/1287_fw.mp4	0.0	157.0593864917755	2.4919931888580322
26	140.12798643112183	pulse	1	t		24.0	2.5	/experiments/Knapen_AOT/AOT_stimuli/rescaled_final/1287_fw.mp4	0.0	158.63332867622375	
26	141.04603743553162	fix_post	2		12	24.0	2.5	/experiments/Knapen_AOT/AOT_stimuli/rescaled_final/1287_fw.mp4	0.0	159.55137968063354	0.10000777244567871
27	141.1460452079773	fix_pre	0		120	25.0	2.5	/experiments/Knapen_AOT/AOT_stimuli/rescaled_final/0060_fw.mp4	0.0	159.65138745307922	1.0084619522094727
27	141.7222135066986	pulse	0	t		25.0	2.5	/experiments/Knapen_AOT/AOT_stimuli/rescaled_final/0060_fw.mp4	0.0	160.22755575180054	
27	142.15450716018677	movie	1		281	25.0	2.5	/experiments/Knapen_AOT/AOT_stimuli/rescaled_final/0060_fw.mp4	0.0	160.6598494052887	2.4920318126678467
27	143.32186245918274	pulse	1	t		25.0	2.5	/experiments/Knapen_AOT/AOT_stimuli/rescaled_final/0060_fw.mp4	0.0	161.82720470428467	
27	144.64653897285461	fix_post	2		12	25.0	2.5	/experiments/Knapen_AOT/AOT_stimuli/rescaled_final/0060_fw.mp4	0.0	163.15188121795654	0.10002946853637695
28	144.746568441391	fix_pre	0		120	26.0	2.5	blank	1.0	163.25191068649292	1.0001282691955566
28	144.9219765663147	pulse	0	t		26.0	2.5	blank	1.0	163.42731881141663	
28	145.74669671058655	movie	1		300	26.0	2.5	blank	1.0	164.25203895568848	2.5004072189331055
28	146.52217626571655	pulse	1	t		26.0	2.5	blank	1.0	165.02751851081848	
28	148.12235736846924	pulse	1	t		26.0	2.5	blank	1.0	166.62769961357117	
28	148.24710392951965	fix_post	2		12	26.0	2.5	blank	1.0	166.75244617462158	0.09997892379760742
29	148.34708285331726	fix_pre	0		120	27.0	2.5	/experiments/Knapen_AOT/AOT_stimuli/rescaled_final/1398_fw.mp4	0.0	166.8524250984192	1.0085079669952393
29	149.3555908203125	movie	1		288	27.0	2.5	/experiments/Knapen_AOT/AOT_stimuli/rescaled_final/1398_fw.mp4	0.0	167.86093306541443	2.492021322250366
29	149.72260117530823	pulse	1	t		27.0	2.5	/experiments/Knapen_AOT/AOT_stimuli/rescaled_final/1398_fw.mp4	0.0	168.22794342041016	
29	151.32278633117676	pulse	1	t		27.0	2.5	/experiments/Knapen_AOT/AOT_stimuli/rescaled_final/1398_fw.mp4	0.0	169.8281285762787	
29	151.84761214256287	fix_post	2		12	27.0	2.5	/experiments/Knapen_AOT/AOT_stimuli/rescaled_final/1398_fw.mp4	0.0	170.3529543876648	0.10003519058227539
30	151.94764733314514	fix_pre	0		118	28.0	2.5	/experiments/Knapen_AOT/AOT_stimuli/rescaled_final/1658_fw.mp4	0.0	170.45298957824707	0.9918467998504639
30	152.92300653457642	pulse	0	t		28.0	2.5	/experiments/Knapen_AOT/AOT_stimuli/rescaled_final/1658_fw.mp4	0.0	171.42834877967834	
30	152.9394941329956	movie	1		285	28.0	2.5	/experiments/Knapen_AOT/AOT_stimuli/rescaled_final/1658_fw.mp4	0.0	171.44483637809753	2.5003411769866943
30	154.52164816856384	pulse	1	t		28.0	2.5	/experiments/Knapen_AOT/AOT_stimuli/rescaled_final/1658_fw.mp4	0.0	173.02699041366577	
30	155.4398353099823	fix_post	2		12	28.0	2.5	/experiments/Knapen_AOT/AOT_stimuli/rescaled_final/1658_fw.mp4	0.0	173.94517755508423	0.1000363826751709
31	155.53987169265747	fix_pre	0		120	29.0	2.5	/experiments/Knapen_AOT/AOT_stimuli/rescaled_final/0704_fw.mp4	0.0	174.0452139377594	1.0084846019744873
31	156.1234691143036	pulse	0	t		29.0	2.5	/experiments/Knapen_AOT/AOT_stimuli/rescaled_final/0704_fw.mp4	0.0	174.62881135940552	
31	156.54835629463196	movie	1		293	29.0	2.5	/experiments/Knapen_AOT/AOT_stimuli/rescaled_final/0704_fw.mp4	0.0	175.0536985397339	2.492014169692993
31	157.72203707695007	pulse	1	t		29.0	2.5	/experiments/Knapen_AOT/AOT_stimuli/rescaled_final/0704_fw.mp4	0.0	176.227379322052	
31	159.04037046432495	fix_post	2		12	29.0	2.5	/experiments/Knapen_AOT/AOT_stimuli/rescaled_final/0704_fw.mp4	0.0	177.54571270942688	0.10002803802490234
32	159.14039850234985	fix_pre	0		120	30.0	2.5	/experiments/Knapen_AOT/AOT_stimuli/rescaled_final/2000_rv.mp4	0.0	177.64574074745178	1.0085217952728271
32	159.32393264770508	pulse	0	t		30.0	2.5	/experiments/Knapen_AOT/AOT_stimuli/rescaled_final/2000_rv.mp4	0.0	177.829274892807	
32	160.14892029762268	movie	1		281	30.0	2.5	/experiments/Knapen_AOT/AOT_stimuli/rescaled_final/2000_rv.mp4	0.0	178.6542625427246	2.4919941425323486
32	160.92224645614624	pulse	1	t		30.0	2.5	/experiments/Knapen_AOT/AOT_stimuli/rescaled_final/2000_rv.mp4	0.0	179.42758870124817	
32	162.52243375778198	pulse	1	t		30.0	2.5	/experiments/Knapen_AOT/AOT_stimuli/rescaled_final/2000_rv.mp4	0.0	181.0277760028839	
32	162.64091444015503	fix_post	2		12	30.0	2.5	/experiments/Knapen_AOT/AOT_stimuli/rescaled_final/2000_rv.mp4	0.0	181.14625668525696	0.10001826286315918
33	162.7409327030182	fix_pre	0		120	31.0	2.5	/experiments/Knapen_AOT/AOT_stimuli/rescaled_final/1159_rv.mp4	0.0	181.24627494812012	1.008507251739502
33	163.7494399547577	movie	1		289	31.0	2.5	/experiments/Knapen_AOT/AOT_stimuli/rescaled_final/1159_rv.mp4	0.0	182.25478219985962	2.492011070251465
33	164.12330222129822	pulse	1	t		31.0	2.5	/experiments/Knapen_AOT/AOT_stimuli/rescaled_final/1159_rv.mp4	0.0	182.62864446640015	
33	165.72324967384338	pulse	1	t		31.0	2.5	/experiments/Knapen_AOT/AOT_stimuli/rescaled_final/1159_rv.mp4	0.0	184.2285919189453	
33	166.24145102500916	fix_post	2		12	31.0	2.5	/experiments/Knapen_AOT/AOT_stimuli/rescaled_final/1159_rv.mp4	0.0	184.74679327011108	0.1000053882598877
34	166.34145641326904	fix_pre	0		119	32.0	2.5	/experiments/Knapen_AOT/AOT_stimuli/rescaled_final/0502_fw.mp4	0.0	184.84679865837097	1.000171422958374
34	167.32517170906067	pulse	0	t		32.0	2.5	/experiments/Knapen_AOT/AOT_stimuli/rescaled_final/0502_fw.mp4	0.0	185.8305139541626	
34	167.34162783622742	movie	1		286	32.0	2.5	/experiments/Knapen_AOT/AOT_stimuli/rescaled_final/0502_fw.mp4	0.0	185.84697008132935	2.5003764629364014
34	168.92426991462708	pulse	1	t		32.0	2.5	/experiments/Knapen_AOT/AOT_stimuli/rescaled_final/0502_fw.mp4	0.0	187.429612159729	
34	169.84200429916382	fix_post	2		12	32.0	2.5	/experiments/Knapen_AOT/AOT_stimuli/rescaled_final/0502_fw.mp4	0.0	188.34734654426575	0.10000300407409668
35	169.94200730323792	fix_pre	0		120	33.0	2.5	blank	1.0	188.44734954833984	1.0001726150512695
35	170.52565693855286	pulse	0	t		33.0	2.5	blank	1.0	189.03099918365479	
35	170.94217991828918	movie	1		300	33.0	2.5	blank	1.0	189.4475221633911	2.5003468990325928
35	172.12586069107056	pulse	1	t		33.0	2.5	blank	1.0	190.63120293617249	
35	173.44252681732178	fix_post	2		12	33.0	2.5	blank	1.0	191.9478690624237	0.10010409355163574
36	173.5426309108734	fix_pre	0		120	34.0	2.5	/experiments/Knapen_AOT/AOT_stimuli/rescaled_final/0170_fw.mp4	0.0	192.04797315597534	1.0083906650543213
36	173.72615885734558	pulse	0	t		34.0	2.5	/experiments/Knapen_AOT/AOT_stimuli/rescaled_final/0170_fw.mp4	0.0	192.2315011024475	
36	174.55102157592773	movie	1		286	34.0	2.5	/experiments/Knapen_AOT/AOT_stimuli/rescaled_final/0170_fw.mp4	0.0	193.05636382102966	2.4921693801879883
36	175.32444310188293	pulse	1	t		34.0	2.5	/experiments/Knapen_AOT/AOT_stimuli/rescaled_final/0170_fw.mp4	0.0	193.82978534698486	
36	176.92673873901367	pulse	1	t		34.0	2.5	/experiments/Knapen_AOT/AOT_stimuli/rescaled_final/0170_fw.mp4	0.0	195.4320809841156	
36	177.04319095611572	fix_post	2		12	34.0	2.5	/experiments/Knapen_AOT/AOT_stimuli/rescaled_final/0170_fw.mp4	0.0	195.54853320121765	0.09990072250366211
37	177.14309167861938	fix_pre	0		120	35.0	2.5	/experiments/Knapen_AOT/AOT_stimuli/rescaled_final/0456_rv.mp4	0.0	195.6484339237213	1.0084965229034424
37	178.15158820152283	movie	1		285	35.0	2.5	/experiments/Knapen_AOT/AOT_stimuli/rescaled_final/0456_rv.mp4	0.0	196.65693044662476	2.492027997970581
37	178.52527904510498	pulse	1	t		35.0	2.5	/experiments/Knapen_AOT/AOT_stimuli/rescaled_final/0456_rv.mp4	0.0	197.0306212902069	
37	180.12505197525024	pulse	1	t		35.0	2.5	/experiments/Knapen_AOT/AOT_stimuli/rescaled_final/0456_rv.mp4	0.0	198.63039422035217	
37	180.6436161994934	fix_post	2		12	35.0	2.5	/experiments/Knapen_AOT/AOT_stimuli/rescaled_final/0456_rv.mp4	0.0	199.14895844459534	0.09999704360961914
38	180.74361324310303	fix_pre	0		119	36.0	2.5	/experiments/Knapen_AOT/AOT_stimuli/rescaled_final/0962_rv.mp4	0.0	199.24895548820496	1.0004351139068604
38	181.72733354568481	pulse	0	t		36.0	2.5	/experiments/Knapen_AOT/AOT_stimuli/rescaled_final/0962_rv.mp4	0.0	200.23267579078674	
38	181.7440483570099	movie	1		293	36.0	2.5	/experiments/Knapen_AOT/AOT_stimuli/rescaled_final/0962_rv.mp4	0.0	200.24939060211182	2.5001370906829834
38	183.32641649246216	pulse	1	t		36.0	2.5	/experiments/Knapen_AOT/AOT_stimuli/rescaled_final/0962_rv.mp4	0.0	201.8317587375641	
38	184.24418544769287	fix_post	2		12	36.0	2.5	/experiments/Knapen_AOT/AOT_stimuli/rescaled_final/0962_rv.mp4	0.0	202.7495276927948	0.09999513626098633
39	184.34418058395386	fix_pre	0		120	37.0	2.5	/experiments/Knapen_AOT/AOT_stimuli/rescaled_final/0191_rv.mp4	0.0	202.8495228290558	1.0084888935089111
39	184.92782521247864	pulse	0	t		37.0	2.5	/experiments/Knapen_AOT/AOT_stimuli/rescaled_final/0191_rv.mp4	0.0	203.43316745758057	
39	185.35266947746277	movie	1		289	37.0	2.5	/experiments/Knapen_AOT/AOT_stimuli/rescaled_final/0191_rv.mp4	0.0	203.8580117225647	2.4920332431793213
39	186.52625107765198	pulse	1	t		37.0	2.5	/experiments/Knapen_AOT/AOT_stimuli/rescaled_final/0191_rv.mp4	0.0	205.0315933227539	
39	187.8447027206421	fix_post	2		12	37.0	2.5	/experiments/Knapen_AOT/AOT_stimuli/rescaled_final/0191_rv.mp4	0.0	206.35004496574402	0.100067138671875
40	187.94476985931396	fix_pre	0		120	38.0	2.5	/experiments/Knapen_AOT/AOT_stimuli/rescaled_final/0060_fw.mp4	0.0	206.4501121044159	1.0084381103515625
40	188.12219381332397	pulse	0	t		38.0	2.5	/experiments/Knapen_AOT/AOT_stimuli/rescaled_final/0060_fw.mp4	0.0	206.6275360584259	
40	188.95320796966553	movie	1		284	38.0	2.5	/experiments/Knapen_AOT/AOT_stimuli/rescaled_final/0060_fw.mp4	0.0	207.45855021476746	2.492037296295166
40	189.72742342948914	pulse	1	t		38.0	2.5	/experiments/Knapen_AOT/AOT_stimuli/rescaled_final/0060_fw.mp4	0.0	208.23276567459106	
40	191.32679915428162	pulse	1	t		38.0	2.5	/experiments/Knapen_AOT/AOT_stimuli/rescaled_final/0060_fw.mp4	0.0	209.83214139938354	
40	191.4452452659607	fix_post	2		12	38.0	2.5	/experiments/Knapen_AOT/AOT_stimuli/rescaled_final/0060_fw.mp4	0.0	209.95058751106262	0.10002303123474121
41	191.54526829719543	fix_pre	0		120	39.0	2.5	/experiments/Knapen_AOT/AOT_stimuli/rescaled_final/0800_fw.mp4	0.0	210.05061054229736	1.008533000946045
41	192.55380129814148	movie	1		292	39.0	2.5	/experiments/Knapen_AOT/AOT_stimuli/rescaled_final/0800_fw.mp4	0.0	211.0591435432434	2.4919469356536865
41	192.92763328552246	pulse	1	t		39.0	2.5	/experiments/Knapen_AOT/AOT_stimuli/rescaled_final/0800_fw.mp4	0.0	211.4329755306244	
41	194.52119731903076	pulse	1	t		39.0	2.5	/experiments/Knapen_AOT/AOT_stimuli/rescaled_final/0800_fw.mp4	0.0	213.0265395641327	
41	195.04574823379517	fix_post	2		12	39.0	2.5	/experiments/Knapen_AOT/AOT_stimuli/rescaled_final/0800_fw.mp4	0.0	213.5510904788971	0.10001397132873535
42	195.1457622051239	fix_pre	0		118	40.0	2.5	blank	1.0	213.65110445022583	0.9834797382354736
42	196.12105250358582	pulse	0	t		40.0	2.5	blank	1.0	214.62639474868774	
42	196.12924194335938	movie	1		301	40.0	2.5	blank	1.0	214.6345841884613	2.508725643157959
42	197.72134566307068	pulse	1	t		40.0	2.5	blank	1.0	216.2266879081726	
42	198.63796758651733	fix_post	2		12	40.0	2.5	blank	1.0	217.14330983161926	0.10000920295715332
43	198.7379767894745	fix_pre	0		120	41.0	2.5	/experiments/Knapen_AOT/AOT_stimuli/rescaled_final/0226_rv.mp4	0.0	217.24331903457642	1.0001182556152344
43	199.321604013443	pulse	0	t		41.0	2.5	/experiments/Knapen_AOT/AOT_stimuli/rescaled_final/0226_rv.mp4	0.0	217.82694625854492	
43	199.73809504508972	movie	1		299	41.0	2.5	/experiments/Knapen_AOT/AOT_stimuli/rescaled_final/0226_rv.mp4	0.0	218.24343729019165	2.5004286766052246
43	200.92178964614868	pulse	1	t		41.0	2.5	/experiments/Knapen_AOT/AOT_stimuli/rescaled_final/0226_rv.mp4	0.0	219.4271318912506	
43	202.23852372169495	fix_post	2		12	41.0	2.5	/experiments/Knapen_AOT/AOT_stimuli/rescaled_final/0226_rv.mp4	0.0	220.74386596679688	0.10000395774841309
44	202.33852767944336	fix_pre	0		120	42.0	2.5	/experiments/Knapen_AOT/AOT_stimuli/rescaled_final/0029_fw.mp4	0.0	220.8438699245453	1.0084733963012695
44	202.52203464508057	pulse	0	t		42.0	2.5	/experiments/Knapen_AOT/AOT_stimuli/rescaled_final/0029_fw.mp4	0.0	221.0273768901825	
44	203.34700107574463	movie	1		291	42.0	2.5	/experiments/Knapen_AOT/AOT_stimuli/rescaled_final/0029_fw.mp4	0.0	221.85234332084656	2.492049217224121
44	204.12228059768677	pulse	1	t		42.0	2.5	/experiments/Knapen_AOT/AOT_stimuli/rescaled_final/0029_fw.mp4	0.0	222.6276228427887	
44	205.72218704223633	pulse	1	t		42.0	2.5	/experiments/Knapen_AOT/AOT_stimuli/rescaled_final/0029_fw.mp4	0.0	224.22752928733826	
44	205.83905029296875	fix_post	2		12	42.0	2.5	/experiments/Knapen_AOT/AOT_stimuli/rescaled_final/0029_fw.mp4	0.0	224.34439253807068	0.1000070571899414
45	205.9390573501587	fix_pre	0		120	43.0	2.5	/experiments/Knapen_AOT/AOT_stimuli/rescaled_final/1529_rv.mp4	0.0	224.44439959526062	1.0085222721099854
45	206.94757962226868	movie	1		289	43.0	2.5	/experiments/Knapen_AOT/AOT_stimuli/rescaled_final/1529_rv.mp4	0.0	225.4529218673706	2.4920334815979004
45	207.32128167152405	pulse	1	t		43.0	2.5	/experiments/Knapen_AOT/AOT_stimuli/rescaled_final/1529_rv.mp4	0.0	225.82662391662598	
45	208.9215407371521	pulse	1	t		43.0	2.5	/experiments/Knapen_AOT/AOT_stimuli/rescaled_final/1529_rv.mp4	0.0	227.42688298225403	
45	209.43961310386658	fix_post	2		12	43.0	2.5	/experiments/Knapen_AOT/AOT_stimuli/rescaled_final/1529_rv.mp4	0.0	227.9449553489685	0.10005688667297363
46	209.53966999053955	fix_pre	0		119	44.0	2.5	/experiments/Knapen_AOT/AOT_stimuli/rescaled_final/0932_rv.mp4	0.0	228.04501223564148	1.0001194477081299
46	210.5233612060547	pulse	0	t		44.0	2.5	/experiments/Knapen_AOT/AOT_stimuli/rescaled_final/0932_rv.mp4	0.0	229.02870345115662	
46	210.53978943824768	movie	1		294	44.0	2.5	/experiments/Knapen_AOT/AOT_stimuli/rescaled_final/0932_rv.mp4	0.0	229.0451316833496	2.500359296798706
46	212.122168302536	pulse	1	t		44.0	2.5	/experiments/Knapen_AOT/AOT_stimuli/rescaled_final/0932_rv.mp4	0.0	230.62751054763794	
46	213.0401487350464	fix_post	2		12	44.0	2.5	/experiments/Knapen_AOT/AOT_stimuli/rescaled_final/0932_rv.mp4	0.0	231.54549098014832	0.1000213623046875
47	213.14017009735107	fix_pre	0		120	45.0	2.5	/experiments/Knapen_AOT/AOT_stimuli/rescaled_final/1621_fw.mp4	0.0	231.645512342453	1.0085184574127197
47	213.72381401062012	pulse	0	t		45.0	2.5	/experiments/Knapen_AOT/AOT_stimuli/rescaled_final/1621_fw.mp4	0.0	232.22915625572205	
47	214.1486885547638	movie	1		275	45.0	2.5	/experiments/Knapen_AOT/AOT_stimuli/rescaled_final/1621_fw.mp4	0.0	232.65403079986572	2.4920520782470703
47	215.32218432426453	pulse	1	t		45.0	2.5	/experiments/Knapen_AOT/AOT_stimuli/rescaled_final/1621_fw.mp4	0.0	233.82752656936646	
47	216.64074063301086	fix_post	2		12	45.0	2.5	/experiments/Knapen_AOT/AOT_stimuli/rescaled_final/1621_fw.mp4	0.0	235.1460828781128	0.10005497932434082
48	216.7407956123352	fix_pre	0		120	46.0	2.5	/experiments/Knapen_AOT/AOT_stimuli/rescaled_final/0543_fw.mp4	0.0	235.24613785743713	1.008411169052124
48	216.92425751686096	pulse	0	t		46.0	2.5	/experiments/Knapen_AOT/AOT_stimuli/rescaled_final/0543_fw.mp4	0.0	235.4295997619629	
48	217.74920678138733	movie	1		278	46.0	2.5	/experiments/Knapen_AOT/AOT_stimuli/rescaled_final/0543_fw.mp4	0.0	236.25454902648926	2.4920170307159424
48	218.523339509964	pulse	1	t		46.0	2.5	/experiments/Knapen_AOT/AOT_stimuli/rescaled_final/0543_fw.mp4	0.0	237.02868175506592	
48	220.12285351753235	pulse	1	t		46.0	2.5	/experiments/Knapen_AOT/AOT_stimuli/rescaled_final/0543_fw.mp4	0.0	238.62819576263428	
48	220.24122381210327	fix_post	2		12	46.0	2.5	/experiments/Knapen_AOT/AOT_stimuli/rescaled_final/0543_fw.mp4	0.0	238.7465660572052	0.10004758834838867
49	220.34127140045166	fix_pre	0		120	47.0	2.5	/experiments/Knapen_AOT/AOT_stimuli/rescaled_final/0323_fw.mp4	0.0	238.8466136455536	1.0084929466247559
49	221.34976434707642	movie	1		287	47.0	2.5	/experiments/Knapen_AOT/AOT_stimuli/rescaled_final/0323_fw.mp4	0.0	239.85510659217834	2.4919986724853516
49	221.72333335876465	pulse	1	t		47.0	2.5	/experiments/Knapen_AOT/AOT_stimuli/rescaled_final/0323_fw.mp4	0.0	240.22867560386658	
49	223.32343173027039	pulse	1	t		47.0	2.5	/experiments/Knapen_AOT/AOT_stimuli/rescaled_final/0323_fw.mp4	0.0	241.82877397537231	
49	223.84176301956177	fix_post	2		12	47.0	2.5	/experiments/Knapen_AOT/AOT_stimuli/rescaled_final/0323_fw.mp4	0.0	242.3471052646637	0.10001993179321289
50	223.94178295135498	fix_pre	0		119	48.0	2.5	/experiments/Knapen_AOT/AOT_stimuli/rescaled_final/1795_fw.mp4	0.0	242.4471251964569	1.0002541542053223
50	224.92559218406677	pulse	0	t		48.0	2.5	/experiments/Knapen_AOT/AOT_stimuli/rescaled_final/1795_fw.mp4	0.0	243.4309344291687	
50	224.9420371055603	movie	1		286	48.0	2.5	/experiments/Knapen_AOT/AOT_stimuli/rescaled_final/1795_fw.mp4	0.0	243.44737935066223	2.5002799034118652
50	226.52412486076355	pulse	1	t		48.0	2.5	/experiments/Knapen_AOT/AOT_stimuli/rescaled_final/1795_fw.mp4	0.0	245.02946710586548	
50	227.44231700897217	fix_post	2		12	48.0	2.5	/experiments/Knapen_AOT/AOT_stimuli/rescaled_final/1795_fw.mp4	0.0	245.9476592540741	0.10001349449157715
51	227.54233050346375	fix_pre	0		120	49.0	2.5	blank	1.0	246.04767274856567	1.0001378059387207
51	228.12603449821472	pulse	0	t		49.0	2.5	blank	1.0	246.63137674331665	
51	228.54246830940247	movie	1		300	49.0	2.5	blank	1.0	247.0478105545044	2.5003879070281982
51	229.72635531425476	pulse	1	t		49.0	2.5	blank	1.0	248.2316975593567	
51	231.04285621643066	fix_post	2		12	49.0	2.5	blank	1.0	249.5481984615326	0.10001730918884277
52	231.1428735256195	fix_pre	0		120	50.0	2.5	/experiments/Knapen_AOT/AOT_stimuli/rescaled_final/0672_rv.mp4	0.0	249.64821577072144	1.0084736347198486
52	231.32642555236816	pulse	0	t		50.0	2.5	/experiments/Knapen_AOT/AOT_stimuli/rescaled_final/0672_rv.mp4	0.0	249.8317677974701	
52	232.15134716033936	movie	1		283	50.0	2.5	/experiments/Knapen_AOT/AOT_stimuli/rescaled_final/0672_rv.mp4	0.0	250.65668940544128	2.492097854614258
52	232.92471575737	pulse	1	t		50.0	2.5	/experiments/Knapen_AOT/AOT_stimuli/rescaled_final/0672_rv.mp4	0.0	251.43005800247192	
52	234.52500438690186	pulse	1	t		50.0	2.5	/experiments/Knapen_AOT/AOT_stimuli/rescaled_final/0672_rv.mp4	0.0	253.03034663200378	
52	234.6434450149536	fix_post	2		12	50.0	2.5	/experiments/Knapen_AOT/AOT_stimuli/rescaled_final/0672_rv.mp4	0.0	253.14878726005554	0.10005569458007812
53	234.7435007095337	fix_pre	0		120	51.0	2.5	/experiments/Knapen_AOT/AOT_stimuli/rescaled_final/0342_rv.mp4	0.0	253.24884295463562	1.0084114074707031
53	235.7519121170044	movie	1		279	51.0	2.5	/experiments/Knapen_AOT/AOT_stimuli/rescaled_final/0342_rv.mp4	0.0	254.25725436210632	2.4920494556427
53	236.12718176841736	pulse	1	t		51.0	2.5	/experiments/Knapen_AOT/AOT_stimuli/rescaled_final/0342_rv.mp4	0.0	254.6325240135193	
53	237.72559881210327	pulse	1	t		51.0	2.5	/experiments/Knapen_AOT/AOT_stimuli/rescaled_final/0342_rv.mp4	0.0	256.2309410572052	
53	238.2439615726471	fix_post	2		12	51.0	2.5	/experiments/Knapen_AOT/AOT_stimuli/rescaled_final/0342_rv.mp4	0.0	256.749303817749	0.09999585151672363
54	238.34395742416382	fix_pre	0		119	52.0	2.5	/experiments/Knapen_AOT/AOT_stimuli/rescaled_final/0282_fw.mp4	0.0	256.84929966926575	1.0002009868621826
54	239.32796502113342	pulse	0	t		52.0	2.5	/experiments/Knapen_AOT/AOT_stimuli/rescaled_final/0282_fw.mp4	0.0	257.83330726623535	
54	239.344158411026	movie	1		281	52.0	2.5	/experiments/Knapen_AOT/AOT_stimuli/rescaled_final/0282_fw.mp4	0.0	257.84950065612793	2.5003113746643066
54	240.92766880989075	pulse	1	t		52.0	2.5	/experiments/Knapen_AOT/AOT_stimuli/rescaled_final/0282_fw.mp4	0.0	259.4330110549927	
54	241.8444697856903	fix_post	2		12	52.0	2.5	/experiments/Knapen_AOT/AOT_stimuli/rescaled_final/0282_fw.mp4	0.0	260.34981203079224	0.10005021095275879
55	241.94451999664307	fix_pre	0		120	53.0	2.5	/experiments/Knapen_AOT/AOT_stimuli/rescaled_final/0155_rv.mp4	0.0	260.449862241745	1.0084478855133057
55	242.52825689315796	pulse	0	t		53.0	2.5	/experiments/Knapen_AOT/AOT_stimuli/rescaled_final/0155_rv.mp4	0.0	261.0335991382599	
55	242.95296788215637	movie	1		277	53.0	2.5	/experiments/Knapen_AOT/AOT_stimuli/rescaled_final/0155_rv.mp4	0.0	261.4583101272583	2.492039203643799
55	244.126779794693	pulse	1	t		53.0	2.5	/experiments/Knapen_AOT/AOT_stimuli/rescaled_final/0155_rv.mp4	0.0	262.6321220397949	
55	245.44500708580017	fix_post	2		12	53.0	2.5	/experiments/Knapen_AOT/AOT_stimuli/rescaled_final/0155_rv.mp4	0.0	263.9503493309021	0.10002350807189941
56	245.54503059387207	fix_pre	0		120	54.0	2.5	/experiments/Knapen_AOT/AOT_stimuli/rescaled_final/0546_rv.mp4	0.0	264.050372838974	1.0084867477416992
56	245.72859501838684	pulse	0	t		54.0	2.5	/experiments/Knapen_AOT/AOT_stimuli/rescaled_final/0546_rv.mp4	0.0	264.23393726348877	
56	246.55351734161377	movie	1		278	54.0	2.5	/experiments/Knapen_AOT/AOT_stimuli/rescaled_final/0546_rv.mp4	0.0	265.0588595867157	2.4920501708984375
56	247.32735323905945	pulse	1	t		54.0	2.5	/experiments/Knapen_AOT/AOT_stimuli/rescaled_final/0546_rv.mp4	0.0	265.8326954841614	
56	248.927330493927	pulse	1	t		54.0	2.5	/experiments/Knapen_AOT/AOT_stimuli/rescaled_final/0546_rv.mp4	0.0	267.43267273902893	
56	249.0455675125122	fix_post	2		12	54.0	2.5	/experiments/Knapen_AOT/AOT_stimuli/rescaled_final/0546_rv.mp4	0.0	267.55090975761414	0.10000061988830566
57	249.1455681324005	fix_pre	0		120	55.0	2.5	/experiments/Knapen_AOT/AOT_stimuli/rescaled_final/0323_fw.mp4	0.0	267.65091037750244	1.0084853172302246
57	250.15405344963074	movie	1		282	55.0	2.5	/experiments/Knapen_AOT/AOT_stimuli/rescaled_final/0323_fw.mp4	0.0	268.65939569473267	2.492039680480957
57	250.529771566391	pulse	1	t		55.0	2.5	/experiments/Knapen_AOT/AOT_stimuli/rescaled_final/0323_fw.mp4	0.0	269.0351138114929	
57	252.12157320976257	pulse	1	t		55.0	2.5	/experiments/Knapen_AOT/AOT_stimuli/rescaled_final/0323_fw.mp4	0.0	270.6269154548645	
57	252.6460931301117	fix_post	2		12	55.0	2.5	/experiments/Knapen_AOT/AOT_stimuli/rescaled_final/0323_fw.mp4	0.0	271.1514353752136	0.10011029243469238
58	252.7462034225464	fix_pre	0		118	56.0	2.5	blank	1.0	271.2515456676483	0.9833700656890869
58	253.72163724899292	pulse	0	t		56.0	2.5	blank	1.0	272.22697949409485	
58	253.72957348823547	movie	1		301	56.0	2.5	blank	1.0	272.2349157333374	2.5087718963623047
58	255.3217442035675	pulse	1	t		56.0	2.5	blank	1.0	273.82708644866943	
58	256.2383453845978	fix_post	2		12	56.0	2.5	blank	1.0	274.7436876296997	0.10005331039428711
59	256.33839869499207	fix_pre	0		120	57.0	2.5	/experiments/Knapen_AOT/AOT_stimuli/rescaled_final/1278_rv.mp4	0.0	274.843740940094	1.0084490776062012
59	256.9220013618469	pulse	0	t		57.0	2.5	/experiments/Knapen_AOT/AOT_stimuli/rescaled_final/1278_rv.mp4	0.0	275.42734360694885	
59	257.34684777259827	movie	1		276	57.0	2.5	/experiments/Knapen_AOT/AOT_stimuli/rescaled_final/1278_rv.mp4	0.0	275.8521900177002	2.491973400115967
59	258.5224494934082	pulse	1	t		57.0	2.5	/experiments/Knapen_AOT/AOT_stimuli/rescaled_final/1278_rv.mp4	0.0	277.02779173851013	
59	259.83882117271423	fix_post	2		12	57.0	2.5	/experiments/Knapen_AOT/AOT_stimuli/rescaled_final/1278_rv.mp4	0.0	278.34416341781616	0.10005474090576172
60	259.93887591362	fix_pre	0		120	58.0	2.5	/experiments/Knapen_AOT/AOT_stimuli/rescaled_final/0831_fw.mp4	0.0	278.4442181587219	1.0085198879241943
60	260.12247109413147	pulse	0	t		58.0	2.5	/experiments/Knapen_AOT/AOT_stimuli/rescaled_final/0831_fw.mp4	0.0	278.6278133392334	
60	260.9473958015442	movie	1		280	58.0	2.5	/experiments/Knapen_AOT/AOT_stimuli/rescaled_final/0831_fw.mp4	0.0	279.4527380466461	2.4920237064361572
60	261.7227747440338	pulse	1	t		58.0	2.5	/experiments/Knapen_AOT/AOT_stimuli/rescaled_final/0831_fw.mp4	0.0	280.22811698913574	
60	263.3228933811188	pulse	1	t		58.0	2.5	/experiments/Knapen_AOT/AOT_stimuli/rescaled_final/0831_fw.mp4	0.0	281.8282356262207	
60	263.43941950798035	fix_post	2		12	58.0	2.5	/experiments/Knapen_AOT/AOT_stimuli/rescaled_final/0831_fw.mp4	0.0	281.9447617530823	0.1000220775604248
61	263.53944158554077	fix_pre	0		120	59.0	2.5	/experiments/Knapen_AOT/AOT_stimuli/rescaled_final/1434_rv.mp4	0.0	282.0447838306427	1.0084655284881592
61	264.54790711402893	movie	1		276	59.0	2.5	/experiments/Knapen_AOT/AOT_stimuli/rescaled_final/1434_rv.mp4	0.0	283.05324935913086	2.492014169692993
61	264.9215016365051	pulse	1	t		59.0	2.5	/experiments/Knapen_AOT/AOT_stimuli/rescaled_final/1434_rv.mp4	0.0	283.42684388160706	
61	266.5235345363617	pulse	1	t		59.0	2.5	/experiments/Knapen_AOT/AOT_stimuli/rescaled_final/1434_rv.mp4	0.0	285.0288767814636	
61	267.0399212837219	fix_post	2		12	59.0	2.5	/experiments/Knapen_AOT/AOT_stimuli/rescaled_final/1434_rv.mp4	0.0	285.54526352882385	0.10001826286315918
62	267.1399395465851	fix_pre	0		119	60.0	2.5	/experiments/Knapen_AOT/AOT_stimuli/rescaled_final/0695_fw.mp4	0.0	285.645281791687	1.0001590251922607
62	268.12367582321167	pulse	0	t		60.0	2.5	/experiments/Knapen_AOT/AOT_stimuli/rescaled_final/0695_fw.mp4	0.0	286.6290180683136	
62	268.14009857177734	movie	1		291	60.0	2.5	/experiments/Knapen_AOT/AOT_stimuli/rescaled_final/0695_fw.mp4	0.0	286.6454408168793	2.50049090385437
62	269.7223393917084	pulse	1	t		60.0	2.5	/experiments/Knapen_AOT/AOT_stimuli/rescaled_final/0695_fw.mp4	0.0	288.2276816368103	
62	270.6405894756317	fix_post	2		12	60.0	2.5	/experiments/Knapen_AOT/AOT_stimuli/rescaled_final/0695_fw.mp4	0.0	289.14593172073364	0.09992718696594238
63	270.74051666259766	fix_pre	0		120	61.0	2.5	/experiments/Knapen_AOT/AOT_stimuli/rescaled_final/1189_rv.mp4	0.0	289.2458589076996	1.0084455013275146
63	271.32414627075195	pulse	0	t		61.0	2.5	/experiments/Knapen_AOT/AOT_stimuli/rescaled_final/1189_rv.mp4	0.0	289.8294885158539	
63	271.74896216392517	movie	1		288	61.0	2.5	/experiments/Knapen_AOT/AOT_stimuli/rescaled_final/1189_rv.mp4	0.0	290.2543044090271	2.492053747177124
63	272.9224326610565	pulse	1	t		61.0	2.5	/experiments/Knapen_AOT/AOT_stimuli/rescaled_final/1189_rv.mp4	0.0	291.42777490615845	
63	274.2410159111023	fix_post	2		12	61.0	2.5	/experiments/Knapen_AOT/AOT_stimuli/rescaled_final/1189_rv.mp4	0.0	292.7463581562042	0.10000824928283691
64	274.34102416038513	fix_pre	0		120	62.0	2.5	/experiments/Knapen_AOT/AOT_stimuli/rescaled_final/1462_rv.mp4	0.0	292.84636640548706	1.0084600448608398
64	274.5246014595032	pulse	0	t		62.0	2.5	/experiments/Knapen_AOT/AOT_stimuli/rescaled_final/1462_rv.mp4	0.0	293.0299437046051	
64	275.349484205246	movie	1		283	62.0	2.5	/experiments/Knapen_AOT/AOT_stimuli/rescaled_final/1462_rv.mp4	0.0	293.8548264503479	2.4920945167541504
64	276.12288212776184	pulse	1	t		62.0	2.5	/experiments/Knapen_AOT/AOT_stimuli/rescaled_final/1462_rv.mp4	0.0	294.62822437286377	
64	277.7231390476227	pulse	1	t		62.0	2.5	/experiments/Knapen_AOT/AOT_stimuli/rescaled_final/1462_rv.mp4	0.0	296.2284812927246	
64	277.8415787220001	fix_post	2		12	62.0	2.5	/experiments/Knapen_AOT/AOT_stimuli/rescaled_final/1462_rv.mp4	0.0	296.34692096710205	0.09998202323913574
65	277.94156074523926	fix_pre	0		120	63.0	2.5	blank	1.0	296.4469029903412	1.0001428127288818
65	278.94170355796814	movie	1		300	63.0	2.5	blank	1.0	297.44704580307007	2.5003912448883057
65	279.32535004615784	pulse	1	t		63.0	2.5	blank	1.0	297.83069229125977	
65	280.9258074760437	pulse	1	t		63.0	2.5	blank	1.0	299.43114972114563	
65	281.44209480285645	fix_post	2		12	63.0	2.5	blank	1.0	299.9474370479584	0.100006103515625
66	281.54210090637207	fix_pre	0		119	64.0	2.5	/experiments/Knapen_AOT/AOT_stimuli/rescaled_final/1706_fw.mp4	0.0	300.047443151474	1.0002155303955078
66	282.5257821083069	pulse	0	t		64.0	2.5	/experiments/Knapen_AOT/AOT_stimuli/rescaled_final/1706_fw.mp4	0.0	301.0311243534088	
66	282.5423164367676	movie	1		284	64.0	2.5	/experiments/Knapen_AOT/AOT_stimuli/rescaled_final/1706_fw.mp4	0.0	301.0476586818695	2.5003318786621094
66	284.1247947216034	pulse	1	t		64.0	2.5	/experiments/Knapen_AOT/AOT_stimuli/rescaled_final/1706_fw.mp4	0.0	302.6301369667053	
66	285.0426483154297	fix_post	2		12	64.0	2.5	/experiments/Knapen_AOT/AOT_stimuli/rescaled_final/1706_fw.mp4	0.0	303.5479905605316	0.10005712509155273
67	285.14270544052124	fix_pre	0		120	65.0	2.5	/experiments/Knapen_AOT/AOT_stimuli/rescaled_final/0203_rv.mp4	0.0	303.64804768562317	1.0084218978881836
67	285.72631907463074	pulse	0	t		65.0	2.5	/experiments/Knapen_AOT/AOT_stimuli/rescaled_final/0203_rv.mp4	0.0	304.23166131973267	
67	286.1511273384094	movie	1		281	65.0	2.5	/experiments/Knapen_AOT/AOT_stimuli/rescaled_final/0203_rv.mp4	0.0	304.65646958351135	2.4920411109924316
67	287.3253524303436	pulse	1	t		65.0	2.5	/experiments/Knapen_AOT/AOT_stimuli/rescaled_final/0203_rv.mp4	0.0	305.83069467544556	
67	288.64316844940186	fix_post	2		12	65.0	2.5	/experiments/Knapen_AOT/AOT_stimuli/rescaled_final/0203_rv.mp4	0.0	307.1485106945038	0.10003542900085449
68	288.7432038784027	fix_pre	0		120	66.0	2.5	/experiments/Knapen_AOT/AOT_stimuli/rescaled_final/1534_fw.mp4	0.0	307.24854612350464	1.0085065364837646
68	288.9267535209656	pulse	0	t		66.0	2.5	/experiments/Knapen_AOT/AOT_stimuli/rescaled_final/1534_fw.mp4	0.0	307.4320957660675	
68	289.7517104148865	movie	1		285	66.0	2.5	/experiments/Knapen_AOT/AOT_stimuli/rescaled_final/1534_fw.mp4	0.0	308.2570526599884	2.491985321044922
68	290.5251536369324	pulse	1	t		66.0	2.5	/experiments/Knapen_AOT/AOT_stimuli/rescaled_final/1534_fw.mp4	0.0	309.0304958820343	
68	292.127366065979	pulse	1	t		66.0	2.5	/experiments/Knapen_AOT/AOT_stimuli/rescaled_final/1534_fw.mp4	0.0	310.63270831108093	
68	292.2436957359314	fix_post	2		12	66.0	2.5	/experiments/Knapen_AOT/AOT_stimuli/rescaled_final/1534_fw.mp4	0.0	310.7490379810333	0.10009551048278809
69	292.3437912464142	fix_pre	0		120	67.0	2.5	/experiments/Knapen_AOT/AOT_stimuli/rescaled_final/0688_rv.mp4	0.0	310.8491334915161	1.008441686630249
69	293.35223293304443	movie	1		290	67.0	2.5	/experiments/Knapen_AOT/AOT_stimuli/rescaled_final/0688_rv.mp4	0.0	311.85757517814636	2.4920191764831543
69	293.72638463974	pulse	1	t		67.0	2.5	/experiments/Knapen_AOT/AOT_stimuli/rescaled_final/0688_rv.mp4	0.0	312.2317268848419	
69	295.325865983963	pulse	1	t		67.0	2.5	/experiments/Knapen_AOT/AOT_stimuli/rescaled_final/0688_rv.mp4	0.0	313.83120822906494	
69	295.8442521095276	fix_post	2		12	67.0	2.5	/experiments/Knapen_AOT/AOT_stimuli/rescaled_final/0688_rv.mp4	0.0	314.3495943546295	0.10001039505004883
70	295.94426250457764	fix_pre	0		119	68.0	2.5	/experiments/Knapen_AOT/AOT_stimuli/rescaled_final/1833_rv.mp4	0.0	314.44960474967957	1.0001740455627441
70	296.9279520511627	pulse	0	t		68.0	2.5	/experiments/Knapen_AOT/AOT_stimuli/rescaled_final/1833_rv.mp4	0.0	315.43329429626465	
70	296.9444365501404	movie	1		288	68.0	2.5	/experiments/Knapen_AOT/AOT_stimuli/rescaled_final/1833_rv.mp4	0.0	315.4497787952423	2.5003631114959717
70	298.52689814567566	pulse	1	t		68.0	2.5	/experiments/Knapen_AOT/AOT_stimuli/rescaled_final/1833_rv.mp4	0.0	317.0322403907776	
70	299.44479966163635	fix_post	2		12	68.0	2.5	/experiments/Knapen_AOT/AOT_stimuli/rescaled_final/1833_rv.mp4	0.0	317.9501419067383	0.10007834434509277
71	299.54487800598145	fix_pre	0		120	69.0	2.5	/experiments/Knapen_AOT/AOT_stimuli/rescaled_final/0695_rv.mp4	0.0	318.0502202510834	1.0085053443908691
71	300.128536939621	pulse	0	t		69.0	2.5	/experiments/Knapen_AOT/AOT_stimuli/rescaled_final/0695_rv.mp4	0.0	318.6338791847229	
71	300.5533833503723	movie	1		271	69.0	2.5	/experiments/Knapen_AOT/AOT_stimuli/rescaled_final/0695_rv.mp4	0.0	319.05872559547424	2.4919698238372803
71	301.727814912796	pulse	1	t		69.0	2.5	/experiments/Knapen_AOT/AOT_stimuli/rescaled_final/0695_rv.mp4	0.0	320.23315715789795	
71	303.0453531742096	fix_post	2		12	69.0	2.5	/experiments/Knapen_AOT/AOT_stimuli/rescaled_final/0695_rv.mp4	0.0	321.5506954193115	0.10001611709594727
72	303.14536929130554	fix_pre	0		120	70.0	2.5	blank	1.0	321.65071153640747	1.0001399517059326
72	303.32901525497437	pulse	0	t		70.0	2.5	blank	1.0	321.8343575000763	
72	304.1455092430115	movie	1		300	70.0	2.5	blank	1.0	322.6508514881134	2.500432014465332
72	304.92932868003845	pulse	1	t		70.0	2.5	blank	1.0	323.4346709251404	
72	306.52937388420105	pulse	1	t		70.0	2.5	blank	1.0	325.034716129303	
72	306.6459412574768	fix_post	2		12	70.0	2.5	blank	1.0	325.15128350257874	0.09995079040527344
73	306.7458920478821	fix_pre	0		120	71.0	2.5	/experiments/Knapen_AOT/AOT_stimuli/rescaled_final/0342_fw.mp4	0.0	325.251234292984	1.008495807647705
73	307.7543878555298	movie	1		276	71.0	2.5	/experiments/Knapen_AOT/AOT_stimuli/rescaled_final/0342_fw.mp4	0.0	326.2597301006317	2.4920601844787598
73	308.1281077861786	pulse	1	t		71.0	2.5	/experiments/Knapen_AOT/AOT_stimuli/rescaled_final/0342_fw.mp4	0.0	326.6334500312805	
73	309.7283842563629	pulse	1	t		71.0	2.5	/experiments/Knapen_AOT/AOT_stimuli/rescaled_final/0342_fw.mp4	0.0	328.23372650146484	
73	310.24644804000854	fix_post	2		12	71.0	2.5	/experiments/Knapen_AOT/AOT_stimuli/rescaled_final/0342_fw.mp4	0.0	328.7517902851105	0.09999847412109375
74	310.34644651412964	fix_pre	0		118	72.0	2.5	/experiments/Knapen_AOT/AOT_stimuli/rescaled_final/0226_rv.mp4	0.0	328.85178875923157	0.9918334484100342
74	311.32204389572144	pulse	0	t		72.0	2.5	/experiments/Knapen_AOT/AOT_stimuli/rescaled_final/0226_rv.mp4	0.0	329.82738614082336	
74	311.3382799625397	movie	1		285	72.0	2.5	/experiments/Knapen_AOT/AOT_stimuli/rescaled_final/0226_rv.mp4	0.0	329.8436222076416	2.5003573894500732
74	312.92232298851013	pulse	1	t		72.0	2.5	/experiments/Knapen_AOT/AOT_stimuli/rescaled_final/0226_rv.mp4	0.0	331.42766523361206	
74	313.83863735198975	fix_post	2		12	72.0	2.5	/experiments/Knapen_AOT/AOT_stimuli/rescaled_final/0226_rv.mp4	0.0	332.3439795970917	0.10008525848388672
75	313.93872261047363	fix_pre	0		120	73.0	2.5	/experiments/Knapen_AOT/AOT_stimuli/rescaled_final/1754_rv.mp4	0.0	332.44406485557556	1.008408784866333
75	314.5223307609558	pulse	0	t		73.0	2.5	/experiments/Knapen_AOT/AOT_stimuli/rescaled_final/1754_rv.mp4	0.0	333.02767300605774	
75	314.94713139533997	movie	1		286	73.0	2.5	/experiments/Knapen_AOT/AOT_stimuli/rescaled_final/1754_rv.mp4	0.0	333.4524736404419	2.492037296295166
75	316.12255215644836	pulse	1	t		73.0	2.5	/experiments/Knapen_AOT/AOT_stimuli/rescaled_final/1754_rv.mp4	0.0	334.6278944015503	
75	317.43916869163513	fix_post	2		12	73.0	2.5	/experiments/Knapen_AOT/AOT_stimuli/rescaled_final/1754_rv.mp4	0.0	335.94451093673706	0.10001587867736816
76	317.5391845703125	fix_pre	0		120	74.0	2.5	/experiments/Knapen_AOT/AOT_stimuli/rescaled_final/1866_rv.mp4	0.0	336.04452681541443	1.0085134506225586
76	317.7227964401245	pulse	0	t		74.0	2.5	/experiments/Knapen_AOT/AOT_stimuli/rescaled_final/1866_rv.mp4	0.0	336.22813868522644	
76	318.54769802093506	movie	1		282	74.0	2.5	/experiments/Knapen_AOT/AOT_stimuli/rescaled_final/1866_rv.mp4	0.0	337.053040266037	2.4920156002044678
76	319.3230745792389	pulse	1	t		74.0	2.5	/experiments/Knapen_AOT/AOT_stimuli/rescaled_final/1866_rv.mp4	0.0	337.8284168243408	
76	320.9233407974243	pulse	1	t		74.0	2.5	/experiments/Knapen_AOT/AOT_stimuli/rescaled_final/1866_rv.mp4	0.0	339.42868304252625	
76	321.0397136211395	fix_post	2		12	74.0	2.5	/experiments/Knapen_AOT/AOT_stimuli/rescaled_final/1866_rv.mp4	0.0	339.54505586624146	0.10003280639648438
77	321.139746427536	fix_pre	0		120	75.0	2.5	/experiments/Knapen_AOT/AOT_stimuli/rescaled_final/1586_fw.mp4	0.0	339.64508867263794	1.008469820022583
77	322.1482162475586	movie	1		265	75.0	2.5	/experiments/Knapen_AOT/AOT_stimuli/rescaled_final/1586_fw.mp4	0.0	340.6535584926605	2.492063283920288
77	322.5218391418457	pulse	1	t		75.0	2.5	/experiments/Knapen_AOT/AOT_stimuli/rescaled_final/1586_fw.mp4	0.0	341.02718138694763	
77	324.1219072341919	pulse	1	t		75.0	2.5	/experiments/Knapen_AOT/AOT_stimuli/rescaled_final/1586_fw.mp4	0.0	342.6272494792938	
77	324.6402795314789	fix_post	2		12	75.0	2.5	/experiments/Knapen_AOT/AOT_stimuli/rescaled_final/1586_fw.mp4	0.0	343.1456217765808	0.10004210472106934
78	324.74032163619995	fix_pre	0		119	76.0	2.5	/experiments/Knapen_AOT/AOT_stimuli/rescaled_final/0651_rv.mp4	0.0	343.2456638813019	1.0001423358917236
78	325.7240810394287	pulse	0	t		76.0	2.5	/experiments/Knapen_AOT/AOT_stimuli/rescaled_final/0651_rv.mp4	0.0	344.22942328453064	
78	325.7404639720917	movie	1		278	76.0	2.5	/experiments/Knapen_AOT/AOT_stimuli/rescaled_final/0651_rv.mp4	0.0	344.2458062171936	2.5003371238708496
78	327.3236367702484	pulse	1	t		76.0	2.5	/experiments/Knapen_AOT/AOT_stimuli/rescaled_final/0651_rv.mp4	0.0	345.82897901535034	
78	328.2408010959625	fix_post	2		12	76.0	2.5	/experiments/Knapen_AOT/AOT_stimuli/rescaled_final/0651_rv.mp4	0.0	346.74614334106445	0.10001206398010254
79	328.3408131599426	fix_pre	0		120	77.0	2.5	blank	1.0	346.84615540504456	1.0001616477966309
79	328.9244077205658	pulse	0	t		77.0	2.5	blank	1.0	347.4297499656677	
79	329.34097480773926	movie	1		300	77.0	2.5	blank	1.0	347.8463170528412	2.5004730224609375
79	330.52464294433594	pulse	1	t		77.0	2.5	blank	1.0	349.02998518943787	
79	331.8414478302002	fix_post	2		11	77.0	2.5	blank	1.0	350.3467900753021	0.09993648529052734
80	331.9413843154907	fix_pre	0		120	78.0	2.5	/experiments/Knapen_AOT/AOT_stimuli/rescaled_final/1183_rv.mp4	0.0	350.44672656059265	1.008470058441162
80	332.1249167919159	pulse	0	t		78.0	2.5	/experiments/Knapen_AOT/AOT_stimuli/rescaled_final/1183_rv.mp4	0.0	350.6302590370178	
80	332.9498543739319	movie	1		278	78.0	2.5	/experiments/Knapen_AOT/AOT_stimuli/rescaled_final/1183_rv.mp4	0.0	351.4551966190338	2.492032527923584
80	333.72331380844116	pulse	1	t		78.0	2.5	/experiments/Knapen_AOT/AOT_stimuli/rescaled_final/1183_rv.mp4	0.0	352.2286560535431	
80	335.3234190940857	pulse	1	t		78.0	2.5	/experiments/Knapen_AOT/AOT_stimuli/rescaled_final/1183_rv.mp4	0.0	353.8287613391876	
80	335.44188690185547	fix_post	2		12	78.0	2.5	/experiments/Knapen_AOT/AOT_stimuli/rescaled_final/1183_rv.mp4	0.0	353.9472291469574	0.10006093978881836
81	335.5419478416443	fix_pre	0		120	79.0	2.5	/experiments/Knapen_AOT/AOT_stimuli/rescaled_final/2155_rv.mp4	0.0	354.0472900867462	1.008453369140625
81	336.5504012107849	movie	1		274	79.0	2.5	/experiments/Knapen_AOT/AOT_stimuli/rescaled_final/2155_rv.mp4	0.0	355.05574345588684	2.4920125007629395
81	336.9254240989685	pulse	1	t		79.0	2.5	/experiments/Knapen_AOT/AOT_stimuli/rescaled_final/2155_rv.mp4	0.0	355.43076634407043	
81	338.52496552467346	pulse	1	t		79.0	2.5	/experiments/Knapen_AOT/AOT_stimuli/rescaled_final/2155_rv.mp4	0.0	357.0303077697754	
81	339.04241371154785	fix_post	2		12	79.0	2.5	/experiments/Knapen_AOT/AOT_stimuli/rescaled_final/2155_rv.mp4	0.0	357.5477559566498	0.10004043579101562
82	339.14245414733887	fix_pre	0		119	80.0	2.5	/experiments/Knapen_AOT/AOT_stimuli/rescaled_final/2058_fw.mp4	0.0	357.6477963924408	1.0000817775726318
82	340.12608456611633	pulse	0	t		80.0	2.5	/experiments/Knapen_AOT/AOT_stimuli/rescaled_final/2058_fw.mp4	0.0	358.63142681121826	
82	340.1425359249115	movie	1		284	80.0	2.5	/experiments/Knapen_AOT/AOT_stimuli/rescaled_final/2058_fw.mp4	0.0	358.6478781700134	2.500425338745117
82	341.725239276886	pulse	1	t		80.0	2.5	/experiments/Knapen_AOT/AOT_stimuli/rescaled_final/2058_fw.mp4	0.0	360.2305815219879	
82	342.6429612636566	fix_post	2		12	80.0	2.5	/experiments/Knapen_AOT/AOT_stimuli/rescaled_final/2058_fw.mp4	0.0	361.14830350875854	0.10001206398010254
83	342.7429733276367	fix_pre	0		120	81.0	2.5	/experiments/Knapen_AOT/AOT_stimuli/rescaled_final/1782_fw.mp4	0.0	361.24831557273865	1.0085020065307617
83	343.3270502090454	pulse	0	t		81.0	2.5	/experiments/Knapen_AOT/AOT_stimuli/rescaled_final/1782_fw.mp4	0.0	361.83239245414734	
83	343.7514753341675	movie	1		277	81.0	2.5	/experiments/Knapen_AOT/AOT_stimuli/rescaled_final/1782_fw.mp4	0.0	362.2568175792694	2.492016553878784
83	344.925128698349	pulse	1	t		81.0	2.5	/experiments/Knapen_AOT/AOT_stimuli/rescaled_final/1782_fw.mp4	0.0	363.4304709434509	
83	346.24349188804626	fix_post	2		12	81.0	2.5	/experiments/Knapen_AOT/AOT_stimuli/rescaled_final/1782_fw.mp4	0.0	364.7488341331482	0.10002398490905762
84	346.3435158729553	fix_pre	0		120	82.0	2.5	/experiments/Knapen_AOT/AOT_stimuli/rescaled_final/0666_fw.mp4	0.0	364.84885811805725	1.0084741115570068
84	346.52701020240784	pulse	0	t		82.0	2.5	/experiments/Knapen_AOT/AOT_stimuli/rescaled_final/0666_fw.mp4	0.0	365.03235244750977	
84	347.35198998451233	movie	1		278	82.0	2.5	/experiments/Knapen_AOT/AOT_stimuli/rescaled_final/0666_fw.mp4	0.0	365.85733222961426	2.492074489593506
84	348.1255462169647	pulse	1	t		82.0	2.5	/experiments/Knapen_AOT/AOT_stimuli/rescaled_final/0666_fw.mp4	0.0	366.63088846206665	
84	349.72564911842346	pulse	1	t		82.0	2.5	/experiments/Knapen_AOT/AOT_stimuli/rescaled_final/0666_fw.mp4	0.0	368.2309913635254	
84	349.84406447410583	fix_post	2		12	82.0	2.5	/experiments/Knapen_AOT/AOT_stimuli/rescaled_final/0666_fw.mp4	0.0	368.34940671920776	0.10001277923583984
85	349.9440772533417	fix_pre	0		120	83.0	2.5	blank	1.0	368.4494194984436	1.0001122951507568
85	350.94418954849243	movie	1		300	83.0	2.5	blank	1.0	369.44953179359436	2.500389575958252
85	351.32770562171936	pulse	1	t		83.0	2.5	blank	1.0	369.8330478668213	
85	352.9279911518097	pulse	1	t		83.0	2.5	blank	1.0	371.4333333969116	
85	353.4445791244507	fix_post	2		12	83.0	2.5	blank	1.0	371.9499213695526	0.09997439384460449
87	353.5445535182953	stim	0		1715					372.0498957633972	14.293915033340454
87	354.52836990356445	pulse	0	t						373.0337121486664	
87	356.1286315917969	pulse	0	t						374.6339738368988	
87	357.728684425354	pulse	0	t						376.23402667045593	
87	359.3291268348694	pulse	0	t						377.8344690799713	
87	360.9293336868286	pulse	0	t						379.43467593193054	
87	362.52948331832886	pulse	0	t						381.0348255634308	
87	364.1214323043823	pulse	0	t						382.62677454948425	
87	365.7225868701935	pulse	0	t						384.2279291152954	
87	367.3219244480133	pulse	0	t						385.82726669311523	
