trial_nr	onset	event_type	phase	response	nr_frames	movie_index	movie_duration	movie_file	blank	onset_abs	duration
0	0.16652369499206543	stim	0		11					17.32311224937439	0.09161114692687988
0	0.2500739097595215	response	0	space						17.406662464141846	
1	0.2581348419189453	stim	0		4601					17.41472339630127	38.36725664138794
1	38.59568166732788	pulse	0	t						55.752270221710205	
1	38.625391483306885	stim	1		1715					55.78198003768921	14.299080610275269
1	40.18973731994629	pulse	1	t						57.34632587432861	
1	41.78971529006958	pulse	1	t						58.946303844451904	
1	43.389899015426636	pulse	1	t						60.54648756980896	
1	44.9900906085968	pulse	1	t						62.146679162979126	
1	46.590388774871826	pulse	1	t						63.74697732925415	
1	48.190619707107544	pulse	1	t						65.34720826148987	
1	49.790971994400024	pulse	1	t						66.94756054878235	
1	51.3913300037384	pulse	1	t						68.54791855812073	
2	52.92447209358215	fix_pre	0		9	0.0	2.5	/experiments/Knapen_AOT/AOT_stimuli/rescaled_final/0892_rv.mp4	0.0	70.08106064796448	0.09168291091918945
2	52.99141073226929	pulse	0	t		0.0	2.5	/experiments/Knapen_AOT/AOT_stimuli/rescaled_final/0892_rv.mp4	0.0	70.14799928665161	
2	53.01615500450134	movie	1		280	0.0	2.5	/experiments/Knapen_AOT/AOT_stimuli/rescaled_final/0892_rv.mp4	0.0	70.17274355888367	2.491971254348755
2	54.59161972999573	pulse	1	t		0.0	2.5	/experiments/Knapen_AOT/AOT_stimuli/rescaled_final/0892_rv.mp4	0.0	71.74820828437805	
2	55.5081262588501	fix_post	2		12	0.0	2.5	/experiments/Knapen_AOT/AOT_stimuli/rescaled_final/0892_rv.mp4	0.0	72.66471481323242	0.10001873970031738
3	55.608144998550415	fix_pre	0		120	1.0	2.5	/experiments/Knapen_AOT/AOT_stimuli/rescaled_final/1309_rv.mp4	0.0	72.76473355293274	1.0085082054138184
3	56.19179368019104	pulse	0	t		1.0	2.5	/experiments/Knapen_AOT/AOT_stimuli/rescaled_final/1309_rv.mp4	0.0	73.34838223457336	
3	56.61665320396423	movie	1		275	1.0	2.5	/experiments/Knapen_AOT/AOT_stimuli/rescaled_final/1309_rv.mp4	0.0	73.77324175834656	2.4920337200164795
3	57.78993535041809	pulse	1	t		1.0	2.5	/experiments/Knapen_AOT/AOT_stimuli/rescaled_final/1309_rv.mp4	0.0	74.94652390480042	
3	59.10868692398071	fix_post	2		12	1.0	2.5	/experiments/Knapen_AOT/AOT_stimuli/rescaled_final/1309_rv.mp4	0.0	76.26527547836304	0.10001993179321289
4	59.208706855773926	fix_pre	0		120	2.0	2.5	/experiments/Knapen_AOT/AOT_stimuli/rescaled_final/1190_fw.mp4	0.0	76.36529541015625	1.008488416671753
4	59.392258167266846	pulse	0	t		2.0	2.5	/experiments/Knapen_AOT/AOT_stimuli/rescaled_final/1190_fw.mp4	0.0	76.54884672164917	
4	60.21719527244568	movie	1		284	2.0	2.5	/experiments/Knapen_AOT/AOT_stimuli/rescaled_final/1190_fw.mp4	0.0	77.373783826828	2.4920241832733154
4	60.99037265777588	pulse	1	t		2.0	2.5	/experiments/Knapen_AOT/AOT_stimuli/rescaled_final/1190_fw.mp4	0.0	78.1469612121582	
4	62.59097599983215	pulse	1	t		2.0	2.5	/experiments/Knapen_AOT/AOT_stimuli/rescaled_final/1190_fw.mp4	0.0	79.74756455421448	
4	62.709219455718994	fix_post	2		12	2.0	2.5	/experiments/Knapen_AOT/AOT_stimuli/rescaled_final/1190_fw.mp4	0.0	79.86580801010132	0.10018038749694824
5	62.80939984321594	fix_pre	0		120	3.0	2.5	/experiments/Knapen_AOT/AOT_stimuli/rescaled_final/0248_fw.mp4	0.0	79.96598839759827	1.0083389282226562
5	63.8177387714386	movie	1		283	3.0	2.5	/experiments/Knapen_AOT/AOT_stimuli/rescaled_final/0248_fw.mp4	0.0	80.97432732582092	2.492042303085327
5	64.19147849082947	pulse	1	t		3.0	2.5	/experiments/Knapen_AOT/AOT_stimuli/rescaled_final/0248_fw.mp4	0.0	81.34806704521179	
5	65.79110932350159	pulse	1	t		3.0	2.5	/experiments/Knapen_AOT/AOT_stimuli/rescaled_final/0248_fw.mp4	0.0	82.94769787788391	
5	66.30978107452393	fix_post	2		12	3.0	2.5	/experiments/Knapen_AOT/AOT_stimuli/rescaled_final/0248_fw.mp4	0.0	83.46636962890625	0.100006103515625
6	66.40978717803955	fix_pre	0		119	4.0	2.5	/experiments/Knapen_AOT/AOT_stimuli/rescaled_final/1693_rv.mp4	0.0	83.56637573242188	1.0001721382141113
6	67.39345812797546	pulse	0	t		4.0	2.5	/experiments/Knapen_AOT/AOT_stimuli/rescaled_final/1693_rv.mp4	0.0	84.55004668235779	
6	67.40995931625366	movie	1		296	4.0	2.5	/experiments/Knapen_AOT/AOT_stimuli/rescaled_final/1693_rv.mp4	0.0	84.56654787063599	2.500354528427124
6	68.99204874038696	pulse	1	t		4.0	2.5	/experiments/Knapen_AOT/AOT_stimuli/rescaled_final/1693_rv.mp4	0.0	86.14863729476929	
6	69.91031384468079	fix_post	2		12	4.0	2.5	/experiments/Knapen_AOT/AOT_stimuli/rescaled_final/1693_rv.mp4	0.0	87.06690239906311	0.10001897811889648
7	70.01033282279968	fix_pre	0		120	5.0	2.5	blank	1.0	87.166921377182	1.0001380443572998
7	70.59395790100098	pulse	0	t		5.0	2.5	blank	1.0	87.7505464553833	
7	71.01047086715698	movie	1		300	5.0	2.5	blank	1.0	88.1670594215393	2.500389337539673
7	72.1942069530487	pulse	1	t		5.0	2.5	blank	1.0	89.35079550743103	
7	73.51086020469666	fix_post	2		12	5.0	2.5	blank	1.0	90.66744875907898	0.10003662109375
8	73.6108968257904	fix_pre	0		120	6.0	2.5	/experiments/Knapen_AOT/AOT_stimuli/rescaled_final/0078_rv.mp4	0.0	90.76748538017273	1.0085577964782715
8	73.79440498352051	pulse	0	t		6.0	2.5	/experiments/Knapen_AOT/AOT_stimuli/rescaled_final/0078_rv.mp4	0.0	90.95099353790283	
8	74.61945462226868	movie	1		291	6.0	2.5	/experiments/Knapen_AOT/AOT_stimuli/rescaled_final/0078_rv.mp4	0.0	91.776043176651	2.491950750350952
8	75.3925108909607	pulse	1	t		6.0	2.5	/experiments/Knapen_AOT/AOT_stimuli/rescaled_final/0078_rv.mp4	0.0	92.54909944534302	
8	76.99306106567383	pulse	1	t		6.0	2.5	/experiments/Knapen_AOT/AOT_stimuli/rescaled_final/0078_rv.mp4	0.0	94.14964962005615	
8	77.11140537261963	fix_post	2		12	6.0	2.5	/experiments/Knapen_AOT/AOT_stimuli/rescaled_final/0078_rv.mp4	0.0	94.26799392700195	0.10002636909484863
9	77.21143174171448	fix_pre	0		120	7.0	2.5	/experiments/Knapen_AOT/AOT_stimuli/rescaled_final/0859_rv.mp4	0.0	94.3680202960968	1.0085296630859375
9	78.21996140480042	movie	1		287	7.0	2.5	/experiments/Knapen_AOT/AOT_stimuli/rescaled_final/0859_rv.mp4	0.0	95.37654995918274	2.4919915199279785
9	78.59368014335632	pulse	1	t		7.0	2.5	/experiments/Knapen_AOT/AOT_stimuli/rescaled_final/0859_rv.mp4	0.0	95.75026869773865	
9	80.19328379631042	pulse	1	t		7.0	2.5	/experiments/Knapen_AOT/AOT_stimuli/rescaled_final/0859_rv.mp4	0.0	97.34987235069275	
9	80.7119529247284	fix_post	2		12	7.0	2.5	/experiments/Knapen_AOT/AOT_stimuli/rescaled_final/0859_rv.mp4	0.0	97.86854147911072	0.10000944137573242
10	80.81196236610413	fix_pre	0		119	8.0	2.5	/experiments/Knapen_AOT/AOT_stimuli/rescaled_final/1568_fw.mp4	0.0	97.96855092048645	1.0001342296600342
10	81.79559087753296	pulse	0	t		8.0	2.5	/experiments/Knapen_AOT/AOT_stimuli/rescaled_final/1568_fw.mp4	0.0	98.95217943191528	
10	81.81209659576416	movie	1		292	8.0	2.5	/experiments/Knapen_AOT/AOT_stimuli/rescaled_final/1568_fw.mp4	0.0	98.96868515014648	2.5003488063812256
10	83.39348769187927	pulse	1	t		8.0	2.5	/experiments/Knapen_AOT/AOT_stimuli/rescaled_final/1568_fw.mp4	0.0	100.5500762462616	
10	84.31244540214539	fix_post	2		12	8.0	2.5	/experiments/Knapen_AOT/AOT_stimuli/rescaled_final/1568_fw.mp4	0.0	101.46903395652771	0.10001826286315918
11	84.41246366500854	fix_pre	0		120	9.0	2.5	/experiments/Knapen_AOT/AOT_stimuli/rescaled_final/1473_rv.mp4	0.0	101.56905221939087	1.0001347064971924
11	84.99600481987	pulse	0	t		9.0	2.5	/experiments/Knapen_AOT/AOT_stimuli/rescaled_final/1473_rv.mp4	0.0	102.15259337425232	
11	85.41259837150574	movie	1		293	9.0	2.5	/experiments/Knapen_AOT/AOT_stimuli/rescaled_final/1473_rv.mp4	0.0	102.56918692588806	2.5004160404205322
11	86.59282732009888	pulse	1	t		9.0	2.5	/experiments/Knapen_AOT/AOT_stimuli/rescaled_final/1473_rv.mp4	0.0	103.7494158744812	
11	87.91301441192627	fix_post	2		12	9.0	2.5	/experiments/Knapen_AOT/AOT_stimuli/rescaled_final/1473_rv.mp4	0.0	105.0696029663086	0.10004782676696777
12	88.01306223869324	fix_pre	0		120	10.0	2.5	/experiments/Knapen_AOT/AOT_stimuli/rescaled_final/1765_fw.mp4	0.0	105.16965079307556	1.0085325241088867
12	88.1968674659729	pulse	0	t		10.0	2.5	/experiments/Knapen_AOT/AOT_stimuli/rescaled_final/1765_fw.mp4	0.0	105.35345602035522	
12	89.02159476280212	movie	1		292	10.0	2.5	/experiments/Knapen_AOT/AOT_stimuli/rescaled_final/1765_fw.mp4	0.0	106.17818331718445	2.491950035095215
12	89.79465794563293	pulse	1	t		10.0	2.5	/experiments/Knapen_AOT/AOT_stimuli/rescaled_final/1765_fw.mp4	0.0	106.95124650001526	
12	91.3950605392456	pulse	1	t		10.0	2.5	/experiments/Knapen_AOT/AOT_stimuli/rescaled_final/1765_fw.mp4	0.0	108.55164909362793	
12	91.51354479789734	fix_post	2		12	10.0	2.5	/experiments/Knapen_AOT/AOT_stimuli/rescaled_final/1765_fw.mp4	0.0	108.67013335227966	0.1000370979309082
13	91.61358189582825	fix_pre	0		120	11.0	2.5	/experiments/Knapen_AOT/AOT_stimuli/rescaled_final/0033_fw.mp4	0.0	108.77017045021057	1.0085031986236572
13	92.6220850944519	movie	1		284	11.0	2.5	/experiments/Knapen_AOT/AOT_stimuli/rescaled_final/0033_fw.mp4	0.0	109.77867364883423	2.492011785507202
13	92.99564576148987	pulse	1	t		11.0	2.5	/experiments/Knapen_AOT/AOT_stimuli/rescaled_final/0033_fw.mp4	0.0	110.15223431587219	
13	94.59532141685486	pulse	1	t		11.0	2.5	/experiments/Knapen_AOT/AOT_stimuli/rescaled_final/0033_fw.mp4	0.0	111.75190997123718	
13	95.1140968799591	fix_post	2		12	11.0	2.5	/experiments/Knapen_AOT/AOT_stimuli/rescaled_final/0033_fw.mp4	0.0	112.27068543434143	0.10013747215270996
14	95.21423435211182	fix_pre	0		119	12.0	2.5	blank	1.0	112.37082290649414	0.9917900562286377
14	96.19092893600464	pulse	0	t		12.0	2.5	blank	1.0	113.34751749038696	
14	96.20602440834045	movie	1		301	12.0	2.5	blank	1.0	113.36261296272278	2.508619785308838
14	97.79035997390747	pulse	1	t		12.0	2.5	blank	1.0	114.9469485282898	
14	98.71464419364929	fix_post	2		12	12.0	2.5	blank	1.0	115.87123274803162	0.10006380081176758
15	98.81470799446106	fix_pre	0		120	13.0	2.5	/experiments/Knapen_AOT/AOT_stimuli/rescaled_final/0006_fw.mp4	0.0	115.97129654884338	1.0084376335144043
15	99.39010524749756	pulse	0	t		13.0	2.5	/experiments/Knapen_AOT/AOT_stimuli/rescaled_final/0006_fw.mp4	0.0	116.54669380187988	
15	99.82314562797546	movie	1		288	13.0	2.5	/experiments/Knapen_AOT/AOT_stimuli/rescaled_final/0006_fw.mp4	0.0	116.97973418235779	2.492199182510376
15	100.9902503490448	pulse	1	t		13.0	2.5	/experiments/Knapen_AOT/AOT_stimuli/rescaled_final/0006_fw.mp4	0.0	118.14683890342712	
15	102.31534481048584	fix_post	2		12	13.0	2.5	/experiments/Knapen_AOT/AOT_stimuli/rescaled_final/0006_fw.mp4	0.0	119.47193336486816	0.09986090660095215
16	102.41520571708679	fix_pre	0		120	14.0	2.5	/experiments/Knapen_AOT/AOT_stimuli/rescaled_final/0174_fw.mp4	0.0	119.57179427146912	1.0085678100585938
16	102.59046626091003	pulse	0	t		14.0	2.5	/experiments/Knapen_AOT/AOT_stimuli/rescaled_final/0174_fw.mp4	0.0	119.74705481529236	
16	103.42377352714539	movie	1		287	14.0	2.5	/experiments/Knapen_AOT/AOT_stimuli/rescaled_final/0174_fw.mp4	0.0	120.58036208152771	2.4919776916503906
16	104.19068574905396	pulse	1	t		14.0	2.5	/experiments/Knapen_AOT/AOT_stimuli/rescaled_final/0174_fw.mp4	0.0	121.34727430343628	
16	105.79091811180115	pulse	1	t		14.0	2.5	/experiments/Knapen_AOT/AOT_stimuli/rescaled_final/0174_fw.mp4	0.0	122.94750666618347	
16	105.91575121879578	fix_post	2		12	14.0	2.5	/experiments/Knapen_AOT/AOT_stimuli/rescaled_final/0174_fw.mp4	0.0	123.0723397731781	0.10000228881835938
17	106.01575350761414	fix_pre	0		120	15.0	2.5	/experiments/Knapen_AOT/AOT_stimuli/rescaled_final/0110_rv.mp4	0.0	123.17234206199646	1.008526086807251
17	107.02427959442139	movie	1		287	15.0	2.5	/experiments/Knapen_AOT/AOT_stimuli/rescaled_final/0110_rv.mp4	0.0	124.18086814880371	2.492004156112671
17	107.39146757125854	pulse	1	t		15.0	2.5	/experiments/Knapen_AOT/AOT_stimuli/rescaled_final/0110_rv.mp4	0.0	124.54805612564087	
17	108.9914345741272	pulse	1	t		15.0	2.5	/experiments/Knapen_AOT/AOT_stimuli/rescaled_final/0110_rv.mp4	0.0	126.14802312850952	
17	109.51628375053406	fix_post	2		12	15.0	2.5	/experiments/Knapen_AOT/AOT_stimuli/rescaled_final/0110_rv.mp4	0.0	126.67287230491638	0.10000753402709961
18	109.61629128456116	fix_pre	0		118	16.0	2.5	/experiments/Knapen_AOT/AOT_stimuli/rescaled_final/0902_rv.mp4	0.0	126.77287983894348	0.9918243885040283
18	110.59164309501648	pulse	0	t		16.0	2.5	/experiments/Knapen_AOT/AOT_stimuli/rescaled_final/0902_rv.mp4	0.0	127.7482316493988	
18	110.60811567306519	movie	1		281	16.0	2.5	/experiments/Knapen_AOT/AOT_stimuli/rescaled_final/0902_rv.mp4	0.0	127.76470422744751	2.500370740890503
18	112.19162273406982	pulse	1	t		16.0	2.5	/experiments/Knapen_AOT/AOT_stimuli/rescaled_final/0902_rv.mp4	0.0	129.34821128845215	
18	113.10848641395569	fix_post	2		12	16.0	2.5	/experiments/Knapen_AOT/AOT_stimuli/rescaled_final/0902_rv.mp4	0.0	130.265074968338	0.10002732276916504
19	113.20851373672485	fix_pre	0		120	17.0	2.5	/experiments/Knapen_AOT/AOT_stimuli/rescaled_final/0714_fw.mp4	0.0	130.36510229110718	1.008490800857544
19	113.79216456413269	pulse	0	t		17.0	2.5	/experiments/Knapen_AOT/AOT_stimuli/rescaled_final/0714_fw.mp4	0.0	130.94875311851501	
19	114.2170045375824	movie	1		282	17.0	2.5	/experiments/Knapen_AOT/AOT_stimuli/rescaled_final/0714_fw.mp4	0.0	131.37359309196472	2.492051362991333
19	115.39059376716614	pulse	1	t		17.0	2.5	/experiments/Knapen_AOT/AOT_stimuli/rescaled_final/0714_fw.mp4	0.0	132.54718232154846	
19	116.70905590057373	fix_post	2		12	17.0	2.5	/experiments/Knapen_AOT/AOT_stimuli/rescaled_final/0714_fw.mp4	0.0	133.86564445495605	0.1000056266784668
20	116.8090615272522	fix_pre	0		120	18.0	2.5	/experiments/Knapen_AOT/AOT_stimuli/rescaled_final/0439_rv.mp4	0.0	133.96565008163452	1.008605718612671
20	116.99259972572327	pulse	0	t		18.0	2.5	/experiments/Knapen_AOT/AOT_stimuli/rescaled_final/0439_rv.mp4	0.0	134.1491882801056	
20	117.81766724586487	movie	1		274	18.0	2.5	/experiments/Knapen_AOT/AOT_stimuli/rescaled_final/0439_rv.mp4	0.0	134.9742558002472	2.4919164180755615
20	118.5908796787262	pulse	1	t		18.0	2.5	/experiments/Knapen_AOT/AOT_stimuli/rescaled_final/0439_rv.mp4	0.0	135.74746823310852	
20	120.19140720367432	pulse	1	t		18.0	2.5	/experiments/Knapen_AOT/AOT_stimuli/rescaled_final/0439_rv.mp4	0.0	137.34799575805664	
20	120.30958366394043	fix_post	2		12	18.0	2.5	/experiments/Knapen_AOT/AOT_stimuli/rescaled_final/0439_rv.mp4	0.0	137.46617221832275	0.10000777244567871
21	120.40959143638611	fix_pre	0		120	19.0	2.5	blank	1.0	137.56617999076843	1.0001494884490967
21	121.4097409248352	movie	1		300	19.0	2.5	blank	1.0	138.56632947921753	2.5003886222839355
21	121.79332780838013	pulse	1	t		19.0	2.5	blank	1.0	138.94991636276245	
21	123.3935341835022	pulse	1	t		19.0	2.5	blank	1.0	140.55012273788452	
21	123.91012954711914	fix_post	2		12	19.0	2.5	blank	1.0	141.06671810150146	0.10002970695495605
22	124.0101592540741	fix_pre	0		119	20.0	2.5	/experiments/Knapen_AOT/AOT_stimuli/rescaled_final/1273_rv.mp4	0.0	141.16674780845642	1.0001275539398193
22	124.9938223361969	pulse	0	t		20.0	2.5	/experiments/Knapen_AOT/AOT_stimuli/rescaled_final/1273_rv.mp4	0.0	142.15041089057922	
22	125.01028680801392	movie	1		282	20.0	2.5	/experiments/Knapen_AOT/AOT_stimuli/rescaled_final/1273_rv.mp4	0.0	142.16687536239624	2.5003671646118164
22	126.5927004814148	pulse	1	t		20.0	2.5	/experiments/Knapen_AOT/AOT_stimuli/rescaled_final/1273_rv.mp4	0.0	143.74928903579712	
22	127.51065397262573	fix_post	2		12	20.0	2.5	/experiments/Knapen_AOT/AOT_stimuli/rescaled_final/1273_rv.mp4	0.0	144.66724252700806	0.10002470016479492
23	127.61067867279053	fix_pre	0		120	21.0	2.5	/experiments/Knapen_AOT/AOT_stimuli/rescaled_final/1182_fw.mp4	0.0	144.76726722717285	1.0085434913635254
23	128.19433212280273	pulse	0	t		21.0	2.5	/experiments/Knapen_AOT/AOT_stimuli/rescaled_final/1182_fw.mp4	0.0	145.35092067718506	
23	128.61922216415405	movie	1		291	21.0	2.5	/experiments/Knapen_AOT/AOT_stimuli/rescaled_final/1182_fw.mp4	0.0	145.77581071853638	2.491983413696289
23	129.79245948791504	pulse	1	t		21.0	2.5	/experiments/Knapen_AOT/AOT_stimuli/rescaled_final/1182_fw.mp4	0.0	146.94904804229736	
23	131.11120557785034	fix_post	2		12	21.0	2.5	/experiments/Knapen_AOT/AOT_stimuli/rescaled_final/1182_fw.mp4	0.0	148.26779413223267	0.1000206470489502
24	131.2112262248993	fix_pre	0		120	22.0	2.5	/experiments/Knapen_AOT/AOT_stimuli/rescaled_final/1765_rv.mp4	0.0	148.36781477928162	1.0084915161132812
24	131.39484691619873	pulse	0	t		22.0	2.5	/experiments/Knapen_AOT/AOT_stimuli/rescaled_final/1765_rv.mp4	0.0	148.55143547058105	
24	132.21971774101257	movie	1		284	22.0	2.5	/experiments/Knapen_AOT/AOT_stimuli/rescaled_final/1765_rv.mp4	0.0	149.3763062953949	2.49202561378479
24	132.99456524848938	pulse	1	t		22.0	2.5	/experiments/Knapen_AOT/AOT_stimuli/rescaled_final/1765_rv.mp4	0.0	150.1511538028717	
24	134.5933117866516	pulse	1	t		22.0	2.5	/experiments/Knapen_AOT/AOT_stimuli/rescaled_final/1765_rv.mp4	0.0	151.74990034103394	
24	134.71174335479736	fix_post	2		12	22.0	2.5	/experiments/Knapen_AOT/AOT_stimuli/rescaled_final/1765_rv.mp4	0.0	151.8683319091797	0.10001969337463379
25	134.811763048172	fix_pre	0		120	23.0	2.5	/experiments/Knapen_AOT/AOT_stimuli/rescaled_final/1375_fw.mp4	0.0	151.96835160255432	1.0084850788116455
25	135.82024812698364	movie	1		283	23.0	2.5	/experiments/Knapen_AOT/AOT_stimuli/rescaled_final/1375_fw.mp4	0.0	152.97683668136597	2.5003697872161865
25	136.19371390342712	pulse	1	t		23.0	2.5	/experiments/Knapen_AOT/AOT_stimuli/rescaled_final/1375_fw.mp4	0.0	153.35030245780945	
25	137.79650139808655	pulse	1	t		23.0	2.5	/experiments/Knapen_AOT/AOT_stimuli/rescaled_final/1375_fw.mp4	0.0	154.95308995246887	
25	138.32061791419983	fix_post	2		11	23.0	2.5	/experiments/Knapen_AOT/AOT_stimuli/rescaled_final/1375_fw.mp4	0.0	155.47720646858215	0.0916745662689209
26	138.41229248046875	fix_pre	0		119	24.0	2.5	/experiments/Knapen_AOT/AOT_stimuli/rescaled_final/1678_fw.mp4	0.0	155.56888103485107	1.0002729892730713
26	139.39598774909973	pulse	0	t		24.0	2.5	/experiments/Knapen_AOT/AOT_stimuli/rescaled_final/1678_fw.mp4	0.0	156.55257630348206	
26	139.41256546974182	movie	1		291	24.0	2.5	/experiments/Knapen_AOT/AOT_stimuli/rescaled_final/1678_fw.mp4	0.0	156.56915402412415	2.5002825260162354
26	140.9947953224182	pulse	1	t		24.0	2.5	/experiments/Knapen_AOT/AOT_stimuli/rescaled_final/1678_fw.mp4	0.0	158.15138387680054	
26	141.91284799575806	fix_post	2		12	24.0	2.5	/experiments/Knapen_AOT/AOT_stimuli/rescaled_final/1678_fw.mp4	0.0	159.06943655014038	0.10001039505004883
27	142.0128583908081	fix_pre	0		120	25.0	2.5	/experiments/Knapen_AOT/AOT_stimuli/rescaled_final/1357_fw.mp4	0.0	159.16944694519043	1.0084834098815918
27	142.59645438194275	pulse	0	t		25.0	2.5	/experiments/Knapen_AOT/AOT_stimuli/rescaled_final/1357_fw.mp4	0.0	159.75304293632507	
27	143.0213418006897	movie	1		276	25.0	2.5	/experiments/Knapen_AOT/AOT_stimuli/rescaled_final/1357_fw.mp4	0.0	160.17793035507202	2.4920265674591064
27	144.19662189483643	pulse	1	t		25.0	2.5	/experiments/Knapen_AOT/AOT_stimuli/rescaled_final/1357_fw.mp4	0.0	161.35321044921875	
27	145.5133683681488	fix_post	2		12	25.0	2.5	/experiments/Knapen_AOT/AOT_stimuli/rescaled_final/1357_fw.mp4	0.0	162.66995692253113	0.10007786750793457
28	145.61344623565674	fix_pre	0		120	26.0	2.5	blank	1.0	162.77003479003906	1.0000627040863037
28	145.79695105552673	pulse	0	t		26.0	2.5	blank	1.0	162.95353960990906	
28	146.61350893974304	movie	1		300	26.0	2.5	blank	1.0	163.77009749412537	2.5005478858947754
28	147.39714670181274	pulse	1	t		26.0	2.5	blank	1.0	164.55373525619507	
28	148.99751448631287	pulse	1	t		26.0	2.5	blank	1.0	166.1541030406952	
28	149.11405682563782	fix_post	2		12	26.0	2.5	blank	1.0	166.27064538002014	0.09987664222717285
29	149.213933467865	fix_pre	0		120	27.0	2.5	/experiments/Knapen_AOT/AOT_stimuli/rescaled_final/1600_fw.mp4	0.0	166.37052202224731	1.0085413455963135
29	150.2224748134613	movie	1		274	27.0	2.5	/experiments/Knapen_AOT/AOT_stimuli/rescaled_final/1600_fw.mp4	0.0	167.37906336784363	2.4919700622558594
29	150.596093416214	pulse	1	t		27.0	2.5	/experiments/Knapen_AOT/AOT_stimuli/rescaled_final/1600_fw.mp4	0.0	167.7526819705963	
29	152.19581151008606	pulse	1	t		27.0	2.5	/experiments/Knapen_AOT/AOT_stimuli/rescaled_final/1600_fw.mp4	0.0	169.35240006446838	
29	152.71444487571716	fix_post	2		12	27.0	2.5	/experiments/Knapen_AOT/AOT_stimuli/rescaled_final/1600_fw.mp4	0.0	169.8710334300995	0.1000208854675293
30	152.8144657611847	fix_pre	0		119	28.0	2.5	/experiments/Knapen_AOT/AOT_stimuli/rescaled_final/0908_fw.mp4	0.0	169.97105431556702	1.0001440048217773
30	153.79124212265015	pulse	0	t		28.0	2.5	/experiments/Knapen_AOT/AOT_stimuli/rescaled_final/0908_fw.mp4	0.0	170.94783067703247	
30	153.81460976600647	movie	1		293	28.0	2.5	/experiments/Knapen_AOT/AOT_stimuli/rescaled_final/0908_fw.mp4	0.0	170.9711983203888	2.500377655029297
30	155.3971197605133	pulse	1	t		28.0	2.5	/experiments/Knapen_AOT/AOT_stimuli/rescaled_final/0908_fw.mp4	0.0	172.55370831489563	
30	156.31498742103577	fix_post	2		12	28.0	2.5	/experiments/Knapen_AOT/AOT_stimuli/rescaled_final/0908_fw.mp4	0.0	173.4715759754181	0.10018110275268555
31	156.41516852378845	fix_pre	0		120	29.0	2.5	/experiments/Knapen_AOT/AOT_stimuli/rescaled_final/0078_rv.mp4	0.0	173.57175707817078	1.0083482265472412
31	156.9905867576599	pulse	0	t		29.0	2.5	/experiments/Knapen_AOT/AOT_stimuli/rescaled_final/0078_rv.mp4	0.0	174.14717531204224	
31	157.4235167503357	movie	1		281	29.0	2.5	/experiments/Knapen_AOT/AOT_stimuli/rescaled_final/0078_rv.mp4	0.0	174.58010530471802	2.492009401321411
31	158.59056687355042	pulse	1	t		29.0	2.5	/experiments/Knapen_AOT/AOT_stimuli/rescaled_final/0078_rv.mp4	0.0	175.74715542793274	
31	159.9155261516571	fix_post	2		12	29.0	2.5	/experiments/Knapen_AOT/AOT_stimuli/rescaled_final/0078_rv.mp4	0.0	177.07211470603943	0.10002446174621582
32	160.01555061340332	fix_pre	0		120	30.0	2.5	/experiments/Knapen_AOT/AOT_stimuli/rescaled_final/1190_fw.mp4	0.0	177.17213916778564	1.0085067749023438
32	160.19126343727112	pulse	0	t		30.0	2.5	/experiments/Knapen_AOT/AOT_stimuli/rescaled_final/1190_fw.mp4	0.0	177.34785199165344	
32	161.02405738830566	movie	1		285	30.0	2.5	/experiments/Knapen_AOT/AOT_stimuli/rescaled_final/1190_fw.mp4	0.0	178.180645942688	2.492014169692993
32	161.79101181030273	pulse	1	t		30.0	2.5	/experiments/Knapen_AOT/AOT_stimuli/rescaled_final/1190_fw.mp4	0.0	178.94760036468506	
32	163.39126563072205	pulse	1	t		30.0	2.5	/experiments/Knapen_AOT/AOT_stimuli/rescaled_final/1190_fw.mp4	0.0	180.54785418510437	
32	163.51607155799866	fix_post	2		12	30.0	2.5	/experiments/Knapen_AOT/AOT_stimuli/rescaled_final/1190_fw.mp4	0.0	180.67266011238098	0.10003209114074707
33	163.6161036491394	fix_pre	0		120	31.0	2.5	/experiments/Knapen_AOT/AOT_stimuli/rescaled_final/2114_rv.mp4	0.0	180.77269220352173	1.008512258529663
33	164.62461590766907	movie	1		288	31.0	2.5	/experiments/Knapen_AOT/AOT_stimuli/rescaled_final/2114_rv.mp4	0.0	181.7812044620514	2.492112874984741
33	164.99043774604797	pulse	1	t		31.0	2.5	/experiments/Knapen_AOT/AOT_stimuli/rescaled_final/2114_rv.mp4	0.0	182.1470263004303	
33	166.59173560142517	pulse	1	t		31.0	2.5	/experiments/Knapen_AOT/AOT_stimuli/rescaled_final/2114_rv.mp4	0.0	183.7483241558075	
33	167.1167287826538	fix_post	2		12	31.0	2.5	/experiments/Knapen_AOT/AOT_stimuli/rescaled_final/2114_rv.mp4	0.0	184.27331733703613	0.09990501403808594
34	167.2166337966919	fix_pre	0		118	32.0	2.5	/experiments/Knapen_AOT/AOT_stimuli/rescaled_final/0263_rv.mp4	0.0	184.37322235107422	0.9919874668121338
34	168.19201493263245	pulse	0	t		32.0	2.5	/experiments/Knapen_AOT/AOT_stimuli/rescaled_final/0263_rv.mp4	0.0	185.34860348701477	
34	168.20862126350403	movie	1		289	32.0	2.5	/experiments/Knapen_AOT/AOT_stimuli/rescaled_final/0263_rv.mp4	0.0	185.36520981788635	2.5001866817474365
34	169.7907018661499	pulse	1	t		32.0	2.5	/experiments/Knapen_AOT/AOT_stimuli/rescaled_final/0263_rv.mp4	0.0	186.94729042053223	
34	170.70880794525146	fix_post	2		12	32.0	2.5	/experiments/Knapen_AOT/AOT_stimuli/rescaled_final/0263_rv.mp4	0.0	187.8653964996338	0.1000213623046875
35	170.80882930755615	fix_pre	0		120	33.0	2.5	/experiments/Knapen_AOT/AOT_stimuli/rescaled_final/0107_rv.mp4	0.0	187.96541786193848	1.0001554489135742
35	171.39244604110718	pulse	0	t		33.0	2.5	/experiments/Knapen_AOT/AOT_stimuli/rescaled_final/0107_rv.mp4	0.0	188.5490345954895	
35	171.80898475646973	movie	1		296	33.0	2.5	/experiments/Knapen_AOT/AOT_stimuli/rescaled_final/0107_rv.mp4	0.0	188.96557331085205	2.500351905822754
35	172.99282789230347	pulse	1	t		33.0	2.5	/experiments/Knapen_AOT/AOT_stimuli/rescaled_final/0107_rv.mp4	0.0	190.1494164466858	
35	174.30933666229248	fix_post	2		12	33.0	2.5	/experiments/Knapen_AOT/AOT_stimuli/rescaled_final/0107_rv.mp4	0.0	191.4659252166748	0.10010027885437012
36	174.40943694114685	fix_pre	0		120	34.0	2.5	/experiments/Knapen_AOT/AOT_stimuli/rescaled_final/0950_rv.mp4	0.0	191.56602549552917	1.0084309577941895
36	174.59356307983398	pulse	0	t		34.0	2.5	/experiments/Knapen_AOT/AOT_stimuli/rescaled_final/0950_rv.mp4	0.0	191.7501516342163	
36	175.41786789894104	movie	1		296	34.0	2.5	/experiments/Knapen_AOT/AOT_stimuli/rescaled_final/0950_rv.mp4	0.0	192.57445645332336	2.4920835494995117
36	176.19308519363403	pulse	1	t		34.0	2.5	/experiments/Knapen_AOT/AOT_stimuli/rescaled_final/0950_rv.mp4	0.0	193.34967374801636	
36	177.790709733963	pulse	1	t		34.0	2.5	/experiments/Knapen_AOT/AOT_stimuli/rescaled_final/0950_rv.mp4	0.0	194.94729828834534	
36	177.90995144844055	fix_post	2		12	34.0	2.5	/experiments/Knapen_AOT/AOT_stimuli/rescaled_final/0950_rv.mp4	0.0	195.06654000282288	0.1000204086303711
37	178.00997185707092	fix_pre	0		120	35.0	2.5	blank	1.0	195.16656041145325	1.0000736713409424
37	179.01004552841187	movie	1		300	35.0	2.5	blank	1.0	196.1666340827942	2.5004045963287354
37	179.3936927318573	pulse	1	t		35.0	2.5	blank	1.0	196.55028128623962	
37	180.99387454986572	pulse	1	t		35.0	2.5	blank	1.0	198.15046310424805	
37	181.5104501247406	fix_post	2		12	35.0	2.5	blank	1.0	198.66703867912292	0.10016059875488281
38	181.61061072349548	fix_pre	0		119	36.0	2.5	/experiments/Knapen_AOT/AOT_stimuli/rescaled_final/2115_rv.mp4	0.0	198.7671992778778	1.0000114440917969
38	182.59426879882812	pulse	0	t		36.0	2.5	/experiments/Knapen_AOT/AOT_stimuli/rescaled_final/2115_rv.mp4	0.0	199.75085735321045	
38	182.61062216758728	movie	1		289	36.0	2.5	/experiments/Knapen_AOT/AOT_stimuli/rescaled_final/2115_rv.mp4	0.0	199.7672107219696	2.5003600120544434
38	184.19264125823975	pulse	1	t		36.0	2.5	/experiments/Knapen_AOT/AOT_stimuli/rescaled_final/2115_rv.mp4	0.0	201.34922981262207	
38	185.11098217964172	fix_post	2		12	36.0	2.5	/experiments/Knapen_AOT/AOT_stimuli/rescaled_final/2115_rv.mp4	0.0	202.26757073402405	0.10003161430358887
39	185.2110137939453	fix_pre	0		120	37.0	2.5	/experiments/Knapen_AOT/AOT_stimuli/rescaled_final/0065_fw.mp4	0.0	202.36760234832764	1.0084826946258545
39	185.79489731788635	pulse	0	t		37.0	2.5	/experiments/Knapen_AOT/AOT_stimuli/rescaled_final/0065_fw.mp4	0.0	202.95148587226868	
39	186.21949648857117	movie	1		280	37.0	2.5	/experiments/Knapen_AOT/AOT_stimuli/rescaled_final/0065_fw.mp4	0.0	203.3760850429535	2.4920647144317627
39	187.3930811882019	pulse	1	t		37.0	2.5	/experiments/Knapen_AOT/AOT_stimuli/rescaled_final/0065_fw.mp4	0.0	204.54966974258423	
39	188.71156120300293	fix_post	2		12	37.0	2.5	/experiments/Knapen_AOT/AOT_stimuli/rescaled_final/0065_fw.mp4	0.0	205.86814975738525	0.1000223159790039
40	188.81158351898193	fix_pre	0		120	38.0	2.5	/experiments/Knapen_AOT/AOT_stimuli/rescaled_final/1537_rv.mp4	0.0	205.96817207336426	1.0085172653198242
40	188.99514842033386	pulse	0	t		38.0	2.5	/experiments/Knapen_AOT/AOT_stimuli/rescaled_final/1537_rv.mp4	0.0	206.1517369747162	
40	189.82010078430176	movie	1		286	38.0	2.5	/experiments/Knapen_AOT/AOT_stimuli/rescaled_final/1537_rv.mp4	0.0	206.97668933868408	2.4919745922088623
40	190.59322929382324	pulse	1	t		38.0	2.5	/experiments/Knapen_AOT/AOT_stimuli/rescaled_final/1537_rv.mp4	0.0	207.74981784820557	
40	192.19345831871033	pulse	1	t		38.0	2.5	/experiments/Knapen_AOT/AOT_stimuli/rescaled_final/1537_rv.mp4	0.0	209.35004687309265	
40	192.31207537651062	fix_post	2		12	38.0	2.5	/experiments/Knapen_AOT/AOT_stimuli/rescaled_final/1537_rv.mp4	0.0	209.46866393089294	0.10006475448608398
41	192.4121401309967	fix_pre	0		120	39.0	2.5	/experiments/Knapen_AOT/AOT_stimuli/rescaled_final/0908_fw.mp4	0.0	209.56872868537903	1.0084903240203857
41	193.4206304550171	movie	1		282	39.0	2.5	/experiments/Knapen_AOT/AOT_stimuli/rescaled_final/0908_fw.mp4	0.0	210.5772190093994	2.5003321170806885
41	193.79416227340698	pulse	1	t		39.0	2.5	/experiments/Knapen_AOT/AOT_stimuli/rescaled_final/0908_fw.mp4	0.0	210.9507508277893	
41	195.39399981498718	pulse	1	t		39.0	2.5	/experiments/Knapen_AOT/AOT_stimuli/rescaled_final/0908_fw.mp4	0.0	212.5505883693695	
41	195.92096257209778	fix_post	2		11	39.0	2.5	/experiments/Knapen_AOT/AOT_stimuli/rescaled_final/0908_fw.mp4	0.0	213.0775511264801	0.09168744087219238
42	196.01265001296997	fix_pre	0		119	40.0	2.5	/experiments/Knapen_AOT/AOT_stimuli/rescaled_final/1082_fw.mp4	0.0	213.1692385673523	1.0001585483551025
42	196.9965796470642	pulse	0	t		40.0	2.5	/experiments/Knapen_AOT/AOT_stimuli/rescaled_final/1082_fw.mp4	0.0	214.15316820144653	
42	197.01280856132507	movie	1		276	40.0	2.5	/experiments/Knapen_AOT/AOT_stimuli/rescaled_final/1082_fw.mp4	0.0	214.1693971157074	2.50036883354187
42	198.59509301185608	pulse	1	t		40.0	2.5	/experiments/Knapen_AOT/AOT_stimuli/rescaled_final/1082_fw.mp4	0.0	215.7516815662384	
42	199.51317739486694	fix_post	2		12	40.0	2.5	/experiments/Knapen_AOT/AOT_stimuli/rescaled_final/1082_fw.mp4	0.0	216.66976594924927	0.10000038146972656
43	199.61317777633667	fix_pre	0		120	41.0	2.5	blank	1.0	216.769766330719	1.000145435333252
43	200.19681525230408	pulse	0	t		41.0	2.5	blank	1.0	217.3534038066864	
43	200.61332321166992	movie	1		300	41.0	2.5	blank	1.0	217.76991176605225	2.5003857612609863
43	201.7972867488861	pulse	1	t		41.0	2.5	blank	1.0	218.95387530326843	
43	203.1137089729309	fix_post	2		12	41.0	2.5	blank	1.0	220.27029752731323	0.10003304481506348
44	203.21374201774597	fix_pre	0		120	42.0	2.5	/experiments/Knapen_AOT/AOT_stimuli/rescaled_final/0950_rv.mp4	0.0	220.3703305721283	1.0084872245788574
44	203.3905589580536	pulse	0	t		42.0	2.5	/experiments/Knapen_AOT/AOT_stimuli/rescaled_final/0950_rv.mp4	0.0	220.5471475124359	
44	204.22222924232483	movie	1		274	42.0	2.5	/experiments/Knapen_AOT/AOT_stimuli/rescaled_final/0950_rv.mp4	0.0	221.37881779670715	2.4920196533203125
44	204.995676279068	pulse	1	t		42.0	2.5	/experiments/Knapen_AOT/AOT_stimuli/rescaled_final/0950_rv.mp4	0.0	222.15226483345032	
44	206.59584975242615	pulse	1	t		42.0	2.5	/experiments/Knapen_AOT/AOT_stimuli/rescaled_final/0950_rv.mp4	0.0	223.75243830680847	
44	206.71424889564514	fix_post	2		12	42.0	2.5	/experiments/Knapen_AOT/AOT_stimuli/rescaled_final/0950_rv.mp4	0.0	223.87083745002747	0.10002899169921875
45	206.81427788734436	fix_pre	0		120	43.0	2.5	/experiments/Knapen_AOT/AOT_stimuli/rescaled_final/0813_fw.mp4	0.0	223.97086644172668	1.008474349975586
45	207.82275223731995	movie	1		292	43.0	2.5	/experiments/Knapen_AOT/AOT_stimuli/rescaled_final/0813_fw.mp4	0.0	224.97934079170227	2.4920380115509033
45	208.18996858596802	pulse	1	t		43.0	2.5	/experiments/Knapen_AOT/AOT_stimuli/rescaled_final/0813_fw.mp4	0.0	225.34655714035034	
45	209.78994727134705	pulse	1	t		43.0	2.5	/experiments/Knapen_AOT/AOT_stimuli/rescaled_final/0813_fw.mp4	0.0	226.94653582572937	
45	210.31479024887085	fix_post	2		12	43.0	2.5	/experiments/Knapen_AOT/AOT_stimuli/rescaled_final/0813_fw.mp4	0.0	227.47137880325317	0.10004210472106934
46	210.41483235359192	fix_pre	0		118	44.0	2.5	/experiments/Knapen_AOT/AOT_stimuli/rescaled_final/1404_fw.mp4	0.0	227.57142090797424	0.9918484687805176
46	211.39028692245483	pulse	0	t		44.0	2.5	/experiments/Knapen_AOT/AOT_stimuli/rescaled_final/1404_fw.mp4	0.0	228.54687547683716	
46	211.40668082237244	movie	1		284	44.0	2.5	/experiments/Knapen_AOT/AOT_stimuli/rescaled_final/1404_fw.mp4	0.0	228.56326937675476	2.5003185272216797
46	212.9905297756195	pulse	1	t		44.0	2.5	/experiments/Knapen_AOT/AOT_stimuli/rescaled_final/1404_fw.mp4	0.0	230.14711833000183	
46	213.90699934959412	fix_post	2		12	44.0	2.5	/experiments/Knapen_AOT/AOT_stimuli/rescaled_final/1404_fw.mp4	0.0	231.06358790397644	0.10002899169921875
47	214.00702834129333	fix_pre	0		120	45.0	2.5	/experiments/Knapen_AOT/AOT_stimuli/rescaled_final/0371_rv.mp4	0.0	231.16361689567566	1.0084831714630127
47	214.59085941314697	pulse	0	t		45.0	2.5	/experiments/Knapen_AOT/AOT_stimuli/rescaled_final/0371_rv.mp4	0.0	231.7474479675293	
47	215.01551151275635	movie	1		251	45.0	2.5	/experiments/Knapen_AOT/AOT_stimuli/rescaled_final/0371_rv.mp4	0.0	232.17210006713867	2.492065906524658
47	216.19085788726807	pulse	1	t		45.0	2.5	/experiments/Knapen_AOT/AOT_stimuli/rescaled_final/0371_rv.mp4	0.0	233.3474464416504	
47	217.507577419281	fix_post	2		12	45.0	2.5	/experiments/Knapen_AOT/AOT_stimuli/rescaled_final/0371_rv.mp4	0.0	234.66416597366333	0.0999751091003418
48	217.60755252838135	fix_pre	0		120	46.0	2.5	/experiments/Knapen_AOT/AOT_stimuli/rescaled_final/1616_rv.mp4	0.0	234.76414108276367	1.0085618495941162
48	217.79122066497803	pulse	0	t		46.0	2.5	/experiments/Knapen_AOT/AOT_stimuli/rescaled_final/1616_rv.mp4	0.0	234.94780921936035	
48	218.61611437797546	movie	1		288	46.0	2.5	/experiments/Knapen_AOT/AOT_stimuli/rescaled_final/1616_rv.mp4	0.0	235.7727029323578	2.4919793605804443
48	219.3915889263153	pulse	1	t		46.0	2.5	/experiments/Knapen_AOT/AOT_stimuli/rescaled_final/1616_rv.mp4	0.0	236.54817748069763	
48	220.99173974990845	pulse	1	t		46.0	2.5	/experiments/Knapen_AOT/AOT_stimuli/rescaled_final/1616_rv.mp4	0.0	238.14832830429077	
48	221.1080937385559	fix_post	2		12	46.0	2.5	/experiments/Knapen_AOT/AOT_stimuli/rescaled_final/1616_rv.mp4	0.0	238.26468229293823	0.10011053085327148
49	221.20820426940918	fix_pre	0		120	47.0	2.5	/experiments/Knapen_AOT/AOT_stimuli/rescaled_final/0902_fw.mp4	0.0	238.3647928237915	1.0084435939788818
49	222.21664786338806	movie	1		284	47.0	2.5	/experiments/Knapen_AOT/AOT_stimuli/rescaled_final/0902_fw.mp4	0.0	239.37323641777039	2.491973400115967
49	222.59030151367188	pulse	1	t		47.0	2.5	/experiments/Knapen_AOT/AOT_stimuli/rescaled_final/0902_fw.mp4	0.0	239.7468900680542	
49	224.1904284954071	pulse	1	t		47.0	2.5	/experiments/Knapen_AOT/AOT_stimuli/rescaled_final/0902_fw.mp4	0.0	241.34701704978943	
49	224.70862126350403	fix_post	2		12	47.0	2.5	/experiments/Knapen_AOT/AOT_stimuli/rescaled_final/0902_fw.mp4	0.0	241.86520981788635	0.10004281997680664
50	224.80866408348083	fix_pre	0		119	48.0	2.5	blank	1.0	241.96525263786316	0.9917752742767334
50	225.7923412322998	pulse	0	t		48.0	2.5	blank	1.0	242.94892978668213	
50	225.80043935775757	movie	1		301	48.0	2.5	blank	1.0	242.9570279121399	2.5088586807250977
50	227.39260482788086	pulse	1	t		48.0	2.5	blank	1.0	244.54919338226318	
50	228.30929803848267	fix_post	2		12	48.0	2.5	blank	1.0	245.465886592865	0.0998847484588623
51	228.40918278694153	fix_pre	0		120	49.0	2.5	/experiments/Knapen_AOT/AOT_stimuli/rescaled_final/0752_rv.mp4	0.0	245.56577134132385	1.0085029602050781
51	228.9929428100586	pulse	0	t		49.0	2.5	/experiments/Knapen_AOT/AOT_stimuli/rescaled_final/0752_rv.mp4	0.0	246.14953136444092	
51	229.4176857471466	movie	1		291	49.0	2.5	/experiments/Knapen_AOT/AOT_stimuli/rescaled_final/0752_rv.mp4	0.0	246.57427430152893	2.492048501968384
51	230.59125065803528	pulse	1	t		49.0	2.5	/experiments/Knapen_AOT/AOT_stimuli/rescaled_final/0752_rv.mp4	0.0	247.7478392124176	
51	231.909734249115	fix_post	2		12	49.0	2.5	/experiments/Knapen_AOT/AOT_stimuli/rescaled_final/0752_rv.mp4	0.0	249.06632280349731	0.10004115104675293
52	232.00977540016174	fix_pre	0		120	50.0	2.5	/experiments/Knapen_AOT/AOT_stimuli/rescaled_final/0095_fw.mp4	0.0	249.16636395454407	1.0084683895111084
52	232.19337010383606	pulse	0	t		50.0	2.5	/experiments/Knapen_AOT/AOT_stimuli/rescaled_final/0095_fw.mp4	0.0	249.34995865821838	
52	233.01824378967285	movie	1		281	50.0	2.5	/experiments/Knapen_AOT/AOT_stimuli/rescaled_final/0095_fw.mp4	0.0	250.17483234405518	2.492025136947632
52	233.79168343544006	pulse	1	t		50.0	2.5	/experiments/Knapen_AOT/AOT_stimuli/rescaled_final/0095_fw.mp4	0.0	250.9482719898224	
52	235.39186668395996	pulse	1	t		50.0	2.5	/experiments/Knapen_AOT/AOT_stimuli/rescaled_final/0095_fw.mp4	0.0	252.54845523834229	
52	235.51026892662048	fix_post	2		12	50.0	2.5	/experiments/Knapen_AOT/AOT_stimuli/rescaled_final/0095_fw.mp4	0.0	252.6668574810028	0.09998726844787598
53	235.61025619506836	fix_pre	0		120	51.0	2.5	/experiments/Knapen_AOT/AOT_stimuli/rescaled_final/1509_rv.mp4	0.0	252.76684474945068	1.0087018013000488
53	236.6189579963684	movie	1		292	51.0	2.5	/experiments/Knapen_AOT/AOT_stimuli/rescaled_final/1509_rv.mp4	0.0	253.77554655075073	2.4918735027313232
53	236.9923131465912	pulse	1	t		51.0	2.5	/experiments/Knapen_AOT/AOT_stimuli/rescaled_final/1509_rv.mp4	0.0	254.1489017009735	
53	238.592365026474	pulse	1	t		51.0	2.5	/experiments/Knapen_AOT/AOT_stimuli/rescaled_final/1509_rv.mp4	0.0	255.74895358085632	
53	239.11083149909973	fix_post	2		12	51.0	2.5	/experiments/Knapen_AOT/AOT_stimuli/rescaled_final/1509_rv.mp4	0.0	256.26742005348206	0.10003471374511719
54	239.21086621284485	fix_pre	0		119	52.0	2.5	/experiments/Knapen_AOT/AOT_stimuli/rescaled_final/0364_rv.mp4	0.0	256.3674547672272	1.0001161098480225
54	240.1945345401764	pulse	0	t		52.0	2.5	/experiments/Knapen_AOT/AOT_stimuli/rescaled_final/0364_rv.mp4	0.0	257.3511230945587	
54	240.21098232269287	movie	1		265	52.0	2.5	/experiments/Knapen_AOT/AOT_stimuli/rescaled_final/0364_rv.mp4	0.0	257.3675708770752	2.5003502368927
54	241.79342794418335	pulse	1	t		52.0	2.5	/experiments/Knapen_AOT/AOT_stimuli/rescaled_final/0364_rv.mp4	0.0	258.9500164985657	
54	242.71133255958557	fix_post	2		12	52.0	2.5	/experiments/Knapen_AOT/AOT_stimuli/rescaled_final/0364_rv.mp4	0.0	259.8679211139679	0.10002470016479492
55	242.81135725975037	fix_pre	0		120	53.0	2.5	/experiments/Knapen_AOT/AOT_stimuli/rescaled_final/0742_rv.mp4	0.0	259.9679458141327	1.008575439453125
55	243.39500784873962	pulse	0	t		53.0	2.5	/experiments/Knapen_AOT/AOT_stimuli/rescaled_final/0742_rv.mp4	0.0	260.55159640312195	
55	243.8199326992035	movie	1		292	53.0	2.5	/experiments/Knapen_AOT/AOT_stimuli/rescaled_final/0742_rv.mp4	0.0	260.9765212535858	2.4919626712799072
55	244.9934868812561	pulse	1	t		53.0	2.5	/experiments/Knapen_AOT/AOT_stimuli/rescaled_final/0742_rv.mp4	0.0	262.1500754356384	
55	246.3118953704834	fix_post	2		12	53.0	2.5	/experiments/Knapen_AOT/AOT_stimuli/rescaled_final/0742_rv.mp4	0.0	263.4684839248657	0.10000395774841309
56	246.4118993282318	fix_pre	0		120	54.0	2.5	/experiments/Knapen_AOT/AOT_stimuli/rescaled_final/1950_rv.mp4	0.0	263.56848788261414	1.0084986686706543
56	246.5955092906952	pulse	0	t		54.0	2.5	/experiments/Knapen_AOT/AOT_stimuli/rescaled_final/1950_rv.mp4	0.0	263.7520978450775	
56	247.42039799690247	movie	1		284	54.0	2.5	/experiments/Knapen_AOT/AOT_stimuli/rescaled_final/1950_rv.mp4	0.0	264.5769865512848	2.492030382156372
56	248.19597339630127	pulse	1	t		54.0	2.5	/experiments/Knapen_AOT/AOT_stimuli/rescaled_final/1950_rv.mp4	0.0	265.3525619506836	
56	249.7941927909851	pulse	1	t		54.0	2.5	/experiments/Knapen_AOT/AOT_stimuli/rescaled_final/1950_rv.mp4	0.0	266.95078134536743	
56	249.91242837905884	fix_post	2		12	54.0	2.5	/experiments/Knapen_AOT/AOT_stimuli/rescaled_final/1950_rv.mp4	0.0	267.06901693344116	0.10023140907287598
57	250.0126597881317	fix_pre	0		120	55.0	2.5	/experiments/Knapen_AOT/AOT_stimuli/rescaled_final/0154_fw.mp4	0.0	267.16924834251404	1.0082595348358154
57	251.02091932296753	movie	1		278	55.0	2.5	/experiments/Knapen_AOT/AOT_stimuli/rescaled_final/0154_fw.mp4	0.0	268.17750787734985	2.492029905319214
57	251.39472675323486	pulse	1	t		55.0	2.5	/experiments/Knapen_AOT/AOT_stimuli/rescaled_final/0154_fw.mp4	0.0	268.5513153076172	
57	252.994633436203	pulse	1	t		55.0	2.5	/experiments/Knapen_AOT/AOT_stimuli/rescaled_final/0154_fw.mp4	0.0	270.1512219905853	
57	253.51294922828674	fix_post	2		12	55.0	2.5	/experiments/Knapen_AOT/AOT_stimuli/rescaled_final/0154_fw.mp4	0.0	270.66953778266907	0.1000518798828125
58	253.61300110816956	fix_pre	0		119	56.0	2.5	blank	1.0	270.7695896625519	0.9918348789215088
58	254.5967628955841	pulse	0	t		56.0	2.5	blank	1.0	271.75335144996643	
58	254.60483598709106	movie	1		301	56.0	2.5	blank	1.0	271.7614245414734	2.508668899536133
58	256.1970067024231	pulse	1	t		56.0	2.5	blank	1.0	273.3535952568054	
58	257.1135048866272	fix_post	2		12	56.0	2.5	blank	1.0	274.2700934410095	0.1000216007232666
59	257.21352648735046	fix_pre	0		120	57.0	2.5	/experiments/Knapen_AOT/AOT_stimuli/rescaled_final/0016_rv.mp4	0.0	274.3701150417328	1.0085043907165527
59	257.7973384857178	pulse	0	t		57.0	2.5	/experiments/Knapen_AOT/AOT_stimuli/rescaled_final/0016_rv.mp4	0.0	274.9539270401001	
59	258.222030878067	movie	1		283	57.0	2.5	/experiments/Knapen_AOT/AOT_stimuli/rescaled_final/0016_rv.mp4	0.0	275.37861943244934	2.492027997970581
59	259.39563751220703	pulse	1	t		57.0	2.5	/experiments/Knapen_AOT/AOT_stimuli/rescaled_final/0016_rv.mp4	0.0	276.55222606658936	
59	260.7140588760376	fix_post	2		12	57.0	2.5	/experiments/Knapen_AOT/AOT_stimuli/rescaled_final/0016_rv.mp4	0.0	277.8706474304199	0.10000467300415039
60	260.81406354904175	fix_pre	0		120	58.0	2.5	/experiments/Knapen_AOT/AOT_stimuli/rescaled_final/0813_rv.mp4	0.0	277.9706521034241	1.0085113048553467
60	260.9977297782898	pulse	0	t		58.0	2.5	/experiments/Knapen_AOT/AOT_stimuli/rescaled_final/0813_rv.mp4	0.0	278.1543183326721	
60	261.8225748538971	movie	1		275	58.0	2.5	/experiments/Knapen_AOT/AOT_stimuli/rescaled_final/0813_rv.mp4	0.0	278.9791634082794	2.4920270442962646
60	262.5963659286499	pulse	1	t		58.0	2.5	/experiments/Knapen_AOT/AOT_stimuli/rescaled_final/0813_rv.mp4	0.0	279.7529544830322	
60	264.1961362361908	pulse	1	t		58.0	2.5	/experiments/Knapen_AOT/AOT_stimuli/rescaled_final/0813_rv.mp4	0.0	281.3527247905731	
60	264.31460189819336	fix_post	2		12	58.0	2.5	/experiments/Knapen_AOT/AOT_stimuli/rescaled_final/0813_rv.mp4	0.0	281.4711904525757	0.10000252723693848
61	264.4146044254303	fix_pre	0		120	59.0	2.5	/experiments/Knapen_AOT/AOT_stimuli/rescaled_final/0778_fw.mp4	0.0	281.5711929798126	1.0086321830749512
61	265.42323660850525	movie	1		285	59.0	2.5	/experiments/Knapen_AOT/AOT_stimuli/rescaled_final/0778_fw.mp4	0.0	282.5798251628876	2.491925001144409
61	265.7903962135315	pulse	1	t		59.0	2.5	/experiments/Knapen_AOT/AOT_stimuli/rescaled_final/0778_fw.mp4	0.0	282.9469847679138	
61	267.3903331756592	pulse	1	t		59.0	2.5	/experiments/Knapen_AOT/AOT_stimuli/rescaled_final/0778_fw.mp4	0.0	284.5469217300415	
61	267.91516160964966	fix_post	2		12	59.0	2.5	/experiments/Knapen_AOT/AOT_stimuli/rescaled_final/0778_fw.mp4	0.0	285.071750164032	0.09999537467956543
62	268.0151569843292	fix_pre	0		118	60.0	2.5	/experiments/Knapen_AOT/AOT_stimuli/rescaled_final/1120_rv.mp4	0.0	285.17174553871155	0.9918503761291504
62	268.9905638694763	pulse	0	t		60.0	2.5	/experiments/Knapen_AOT/AOT_stimuli/rescaled_final/1120_rv.mp4	0.0	286.14715242385864	
62	269.0070073604584	movie	1		282	60.0	2.5	/experiments/Knapen_AOT/AOT_stimuli/rescaled_final/1120_rv.mp4	0.0	286.1635959148407	2.5003485679626465
62	270.591246843338	pulse	1	t		60.0	2.5	/experiments/Knapen_AOT/AOT_stimuli/rescaled_final/1120_rv.mp4	0.0	287.74783539772034	
62	271.507355928421	fix_post	2		12	60.0	2.5	/experiments/Knapen_AOT/AOT_stimuli/rescaled_final/1120_rv.mp4	0.0	288.66394448280334	0.10002279281616211
63	271.6073787212372	fix_pre	0		120	61.0	2.5	blank	1.0	288.7639672756195	1.0001637935638428
63	272.1910116672516	pulse	0	t		61.0	2.5	blank	1.0	289.3476002216339	
63	272.607542514801	movie	1		300	61.0	2.5	blank	1.0	289.76413106918335	2.5003650188446045
63	273.79129433631897	pulse	1	t		61.0	2.5	blank	1.0	290.9478828907013	
63	275.10790753364563	fix_post	2		12	61.0	2.5	blank	1.0	292.26449608802795	0.10001683235168457
64	275.2079243659973	fix_pre	0		120	62.0	2.5	/experiments/Knapen_AOT/AOT_stimuli/rescaled_final/1715_fw.mp4	0.0	292.36451292037964	1.00850248336792
64	275.39151763916016	pulse	0	t		62.0	2.5	/experiments/Knapen_AOT/AOT_stimuli/rescaled_final/1715_fw.mp4	0.0	292.5481061935425	
64	276.21642684936523	movie	1		271	62.0	2.5	/experiments/Knapen_AOT/AOT_stimuli/rescaled_final/1715_fw.mp4	0.0	293.37301540374756	2.4920265674591064
64	276.991738319397	pulse	1	t		62.0	2.5	/experiments/Knapen_AOT/AOT_stimuli/rescaled_final/1715_fw.mp4	0.0	294.1483268737793	
64	278.59214544296265	pulse	1	t		62.0	2.5	/experiments/Knapen_AOT/AOT_stimuli/rescaled_final/1715_fw.mp4	0.0	295.74873399734497	
64	278.70845341682434	fix_post	2		12	62.0	2.5	/experiments/Knapen_AOT/AOT_stimuli/rescaled_final/1715_fw.mp4	0.0	295.86504197120667	0.10006093978881836
65	278.80851435661316	fix_pre	0		120	63.0	2.5	/experiments/Knapen_AOT/AOT_stimuli/rescaled_final/1968_fw.mp4	0.0	295.9651029109955	1.0084590911865234
65	279.8169734477997	movie	1		275	63.0	2.5	/experiments/Knapen_AOT/AOT_stimuli/rescaled_final/1968_fw.mp4	0.0	296.973562002182	2.4920318126678467
65	280.1908960342407	pulse	1	t		63.0	2.5	/experiments/Knapen_AOT/AOT_stimuli/rescaled_final/1968_fw.mp4	0.0	297.34748458862305	
65	281.790513753891	pulse	1	t		63.0	2.5	/experiments/Knapen_AOT/AOT_stimuli/rescaled_final/1968_fw.mp4	0.0	298.9471023082733	
65	282.30900526046753	fix_post	2		12	63.0	2.5	/experiments/Knapen_AOT/AOT_stimuli/rescaled_final/1968_fw.mp4	0.0	299.46559381484985	0.09998798370361328
66	282.40899324417114	fix_pre	0		119	64.0	2.5	/experiments/Knapen_AOT/AOT_stimuli/rescaled_final/0550_fw.mp4	0.0	299.56558179855347	1.0003979206085205
66	283.3927071094513	pulse	0	t		64.0	2.5	/experiments/Knapen_AOT/AOT_stimuli/rescaled_final/0550_fw.mp4	0.0	300.5492956638336	
66	283.40939116477966	movie	1		272	64.0	2.5	/experiments/Knapen_AOT/AOT_stimuli/rescaled_final/0550_fw.mp4	0.0	300.565979719162	2.5001184940338135
66	284.99176573753357	pulse	1	t		64.0	2.5	/experiments/Knapen_AOT/AOT_stimuli/rescaled_final/0550_fw.mp4	0.0	302.1483542919159	
66	285.9095096588135	fix_post	2		12	64.0	2.5	/experiments/Knapen_AOT/AOT_stimuli/rescaled_final/0550_fw.mp4	0.0	303.0660982131958	0.10010027885437012
67	286.00960993766785	fix_pre	0		120	65.0	2.5	/experiments/Knapen_AOT/AOT_stimuli/rescaled_final/0404_rv.mp4	0.0	303.16619849205017	1.0084083080291748
67	286.5931713581085	pulse	0	t		65.0	2.5	/experiments/Knapen_AOT/AOT_stimuli/rescaled_final/0404_rv.mp4	0.0	303.74975991249084	
67	287.018018245697	movie	1		264	65.0	2.5	/experiments/Knapen_AOT/AOT_stimuli/rescaled_final/0404_rv.mp4	0.0	304.17460680007935	2.492098808288574
67	288.1917796134949	pulse	1	t		65.0	2.5	/experiments/Knapen_AOT/AOT_stimuli/rescaled_final/0404_rv.mp4	0.0	305.3483681678772	
67	289.5101170539856	fix_post	2		12	65.0	2.5	/experiments/Knapen_AOT/AOT_stimuli/rescaled_final/0404_rv.mp4	0.0	306.6667056083679	0.09998631477355957
68	289.61010336875916	fix_pre	0		120	66.0	2.5	/experiments/Knapen_AOT/AOT_stimuli/rescaled_final/1739_fw.mp4	0.0	306.7666919231415	1.008448600769043
68	289.7936155796051	pulse	0	t		66.0	2.5	/experiments/Knapen_AOT/AOT_stimuli/rescaled_final/1739_fw.mp4	0.0	306.9502041339874	
68	290.6185519695282	movie	1		273	66.0	2.5	/experiments/Knapen_AOT/AOT_stimuli/rescaled_final/1739_fw.mp4	0.0	307.7751405239105	2.492170572280884
68	291.3930571079254	pulse	1	t		66.0	2.5	/experiments/Knapen_AOT/AOT_stimuli/rescaled_final/1739_fw.mp4	0.0	308.54964566230774	
68	292.9923758506775	pulse	1	t		66.0	2.5	/experiments/Knapen_AOT/AOT_stimuli/rescaled_final/1739_fw.mp4	0.0	310.1489644050598	
68	293.1107225418091	fix_post	2		12	66.0	2.5	/experiments/Knapen_AOT/AOT_stimuli/rescaled_final/1739_fw.mp4	0.0	310.2673110961914	0.09991598129272461
69	293.2106385231018	fix_pre	0		120	67.0	2.5	/experiments/Knapen_AOT/AOT_stimuli/rescaled_final/1934_rv.mp4	0.0	310.36722707748413	1.008498191833496
69	294.2191367149353	movie	1		290	67.0	2.5	/experiments/Knapen_AOT/AOT_stimuli/rescaled_final/1934_rv.mp4	0.0	311.3757252693176	2.492002487182617
69	294.5927748680115	pulse	1	t		67.0	2.5	/experiments/Knapen_AOT/AOT_stimuli/rescaled_final/1934_rv.mp4	0.0	311.7493634223938	
69	296.1928951740265	pulse	1	t		67.0	2.5	/experiments/Knapen_AOT/AOT_stimuli/rescaled_final/1934_rv.mp4	0.0	313.3494837284088	
69	296.7111392021179	fix_post	2		12	67.0	2.5	/experiments/Knapen_AOT/AOT_stimuli/rescaled_final/1934_rv.mp4	0.0	313.86772775650024	0.10006546974182129
70	296.81120467185974	fix_pre	0		119	68.0	2.5	/experiments/Knapen_AOT/AOT_stimuli/rescaled_final/0261_rv.mp4	0.0	313.96779322624207	1.0001463890075684
70	297.7950839996338	pulse	0	t		68.0	2.5	/experiments/Knapen_AOT/AOT_stimuli/rescaled_final/0261_rv.mp4	0.0	314.9516725540161	
70	297.8113510608673	movie	1		290	68.0	2.5	/experiments/Knapen_AOT/AOT_stimuli/rescaled_final/0261_rv.mp4	0.0	314.96793961524963	2.5004308223724365
70	299.3935444355011	pulse	1	t		68.0	2.5	/experiments/Knapen_AOT/AOT_stimuli/rescaled_final/0261_rv.mp4	0.0	316.5501329898834	
70	300.31178188323975	fix_post	2		12	68.0	2.5	/experiments/Knapen_AOT/AOT_stimuli/rescaled_final/0261_rv.mp4	0.0	317.46837043762207	0.09995865821838379
71	300.41174054145813	fix_pre	0		120	69.0	2.5	blank	1.0	317.56832909584045	1.000122308731079
71	300.995317697525	pulse	0	t		69.0	2.5	blank	1.0	318.15190625190735	
71	301.4118628501892	movie	1		300	69.0	2.5	blank	1.0	318.56845140457153	2.500375270843506
71	302.5956904888153	pulse	1	t		69.0	2.5	blank	1.0	319.75227904319763	
71	303.9122381210327	fix_post	2		12	69.0	2.5	blank	1.0	321.06882667541504	0.10005545616149902
72	304.0122935771942	fix_pre	0		120	70.0	2.5	/experiments/Knapen_AOT/AOT_stimuli/rescaled_final/2015_rv.mp4	0.0	321.16888213157654	1.0086078643798828
72	304.1958124637604	pulse	0	t		70.0	2.5	/experiments/Knapen_AOT/AOT_stimuli/rescaled_final/2015_rv.mp4	0.0	321.3524010181427	
72	305.0209014415741	movie	1		279	70.0	2.5	/experiments/Knapen_AOT/AOT_stimuli/rescaled_final/2015_rv.mp4	0.0	322.1774899959564	2.491849899291992
72	305.79398918151855	pulse	1	t		70.0	2.5	/experiments/Knapen_AOT/AOT_stimuli/rescaled_final/2015_rv.mp4	0.0	322.9505777359009	
72	307.3943421840668	pulse	1	t		70.0	2.5	/experiments/Knapen_AOT/AOT_stimuli/rescaled_final/2015_rv.mp4	0.0	324.5509307384491	
72	307.5127513408661	fix_post	2		12	70.0	2.5	/experiments/Knapen_AOT/AOT_stimuli/rescaled_final/2015_rv.mp4	0.0	324.6693398952484	0.09999704360961914
73	307.6127483844757	fix_pre	0		120	71.0	2.5	/experiments/Knapen_AOT/AOT_stimuli/rescaled_final/1296_rv.mp4	0.0	324.76933693885803	1.0085341930389404
73	308.62128257751465	movie	1		275	71.0	2.5	/experiments/Knapen_AOT/AOT_stimuli/rescaled_final/1296_rv.mp4	0.0	325.777871131897	2.4920341968536377
73	308.9953143596649	pulse	1	t		71.0	2.5	/experiments/Knapen_AOT/AOT_stimuli/rescaled_final/1296_rv.mp4	0.0	326.15190291404724	
73	310.5951614379883	pulse	1	t		71.0	2.5	/experiments/Knapen_AOT/AOT_stimuli/rescaled_final/1296_rv.mp4	0.0	327.7517499923706	
73	311.1133167743683	fix_post	2		12	71.0	2.5	/experiments/Knapen_AOT/AOT_stimuli/rescaled_final/1296_rv.mp4	0.0	328.2699053287506	0.10000801086425781
74	311.21332478523254	fix_pre	0		119	72.0	2.5	/experiments/Knapen_AOT/AOT_stimuli/rescaled_final/0065_rv.mp4	0.0	328.36991333961487	1.0002532005310059
74	312.19711565971375	pulse	0	t		72.0	2.5	/experiments/Knapen_AOT/AOT_stimuli/rescaled_final/0065_rv.mp4	0.0	329.35370421409607	
74	312.21357798576355	movie	1		276	72.0	2.5	/experiments/Knapen_AOT/AOT_stimuli/rescaled_final/0065_rv.mp4	0.0	329.3701665401459	2.5003182888031006
74	313.7958641052246	pulse	1	t		72.0	2.5	/experiments/Knapen_AOT/AOT_stimuli/rescaled_final/0065_rv.mp4	0.0	330.95245265960693	
74	314.71389627456665	fix_post	2		12	72.0	2.5	/experiments/Knapen_AOT/AOT_stimuli/rescaled_final/0065_rv.mp4	0.0	331.870484828949	0.1000211238861084
75	314.81391739845276	fix_pre	0		120	73.0	2.5	/experiments/Knapen_AOT/AOT_stimuli/rescaled_final/0265_rv.mp4	0.0	331.9705059528351	1.0084373950958252
75	315.39217162132263	pulse	0	t		73.0	2.5	/experiments/Knapen_AOT/AOT_stimuli/rescaled_final/0265_rv.mp4	0.0	332.54876017570496	
75	315.8223547935486	movie	1		271	73.0	2.5	/experiments/Knapen_AOT/AOT_stimuli/rescaled_final/0265_rv.mp4	0.0	332.9789433479309	2.5004091262817383
75	316.99608063697815	pulse	1	t		73.0	2.5	/experiments/Knapen_AOT/AOT_stimuli/rescaled_final/0265_rv.mp4	0.0	334.1526691913605	
75	318.3227639198303	fix_post	2		11	73.0	2.5	/experiments/Knapen_AOT/AOT_stimuli/rescaled_final/0265_rv.mp4	0.0	335.47935247421265	0.09160995483398438
76	318.4143738746643	fix_pre	0		120	74.0	2.5	/experiments/Knapen_AOT/AOT_stimuli/rescaled_final/0778_rv.mp4	0.0	335.57096242904663	1.0085442066192627
76	318.597957611084	pulse	0	t		74.0	2.5	/experiments/Knapen_AOT/AOT_stimuli/rescaled_final/0778_rv.mp4	0.0	335.7545461654663	
76	319.42291808128357	movie	1		261	74.0	2.5	/experiments/Knapen_AOT/AOT_stimuli/rescaled_final/0778_rv.mp4	0.0	336.5795066356659	2.4920506477355957
76	320.1979749202728	pulse	1	t		74.0	2.5	/experiments/Knapen_AOT/AOT_stimuli/rescaled_final/0778_rv.mp4	0.0	337.35456347465515	
76	321.7973253726959	pulse	1	t		74.0	2.5	/experiments/Knapen_AOT/AOT_stimuli/rescaled_final/0778_rv.mp4	0.0	338.95391392707825	
76	321.91496872901917	fix_post	2		12	74.0	2.5	/experiments/Knapen_AOT/AOT_stimuli/rescaled_final/0778_rv.mp4	0.0	339.0715572834015	0.10000133514404297
77	322.0149700641632	fix_pre	0		120	75.0	2.5	/experiments/Knapen_AOT/AOT_stimuli/rescaled_final/1623_fw.mp4	0.0	339.17155861854553	1.0085124969482422
77	323.02348256111145	movie	1		266	75.0	2.5	/experiments/Knapen_AOT/AOT_stimuli/rescaled_final/1623_fw.mp4	0.0	340.1800711154938	2.4919934272766113
77	323.39081621170044	pulse	1	t		75.0	2.5	/experiments/Knapen_AOT/AOT_stimuli/rescaled_final/1623_fw.mp4	0.0	340.54740476608276	
77	324.9911072254181	pulse	1	t		75.0	2.5	/experiments/Knapen_AOT/AOT_stimuli/rescaled_final/1623_fw.mp4	0.0	342.1476957798004	
77	325.51547598838806	fix_post	2		12	75.0	2.5	/experiments/Knapen_AOT/AOT_stimuli/rescaled_final/1623_fw.mp4	0.0	342.6720645427704	0.10001230239868164
78	325.61548829078674	fix_pre	0		118	76.0	2.5	/experiments/Knapen_AOT/AOT_stimuli/rescaled_final/1713_fw.mp4	0.0	342.77207684516907	0.9918463230133057
78	326.5909070968628	pulse	0	t		76.0	2.5	/experiments/Knapen_AOT/AOT_stimuli/rescaled_final/1713_fw.mp4	0.0	343.7474956512451	
78	326.60733461380005	movie	1		275	76.0	2.5	/experiments/Knapen_AOT/AOT_stimuli/rescaled_final/1713_fw.mp4	0.0	343.7639231681824	2.5003530979156494
78	328.1912112236023	pulse	1	t		76.0	2.5	/experiments/Knapen_AOT/AOT_stimuli/rescaled_final/1713_fw.mp4	0.0	345.3477997779846	
78	329.1076877117157	fix_post	2		12	76.0	2.5	/experiments/Knapen_AOT/AOT_stimuli/rescaled_final/1713_fw.mp4	0.0	346.264276266098	0.10001993179321289
79	329.2077076435089	fix_pre	0		120	77.0	2.5	blank	1.0	346.36429619789124	1.0001840591430664
79	329.7913393974304	pulse	0	t		77.0	2.5	blank	1.0	346.94792795181274	
79	330.207891702652	movie	1		300	77.0	2.5	blank	1.0	347.3644802570343	2.5004119873046875
79	331.39162278175354	pulse	1	t		77.0	2.5	blank	1.0	348.54821133613586	
79	332.70830368995667	fix_post	2		12	77.0	2.5	blank	1.0	349.864892244339	0.09995746612548828
80	332.80826115608215	fix_pre	0		120	78.0	2.5	/experiments/Knapen_AOT/AOT_stimuli/rescaled_final/1770_fw.mp4	0.0	349.9648497104645	1.0085010528564453
80	332.99178886413574	pulse	0	t		78.0	2.5	/experiments/Knapen_AOT/AOT_stimuli/rescaled_final/1770_fw.mp4	0.0	350.14837741851807	
80	333.8167622089386	movie	1		272	78.0	2.5	/experiments/Knapen_AOT/AOT_stimuli/rescaled_final/1770_fw.mp4	0.0	350.9733507633209	2.4920058250427246
80	334.59208035469055	pulse	1	t		78.0	2.5	/experiments/Knapen_AOT/AOT_stimuli/rescaled_final/1770_fw.mp4	0.0	351.7486689090729	
80	336.1923291683197	pulse	1	t		78.0	2.5	/experiments/Knapen_AOT/AOT_stimuli/rescaled_final/1770_fw.mp4	0.0	353.348917722702	
80	336.3087680339813	fix_post	2		12	78.0	2.5	/experiments/Knapen_AOT/AOT_stimuli/rescaled_final/1770_fw.mp4	0.0	353.46535658836365	0.10005450248718262
81	336.4088225364685	fix_pre	0		120	79.0	2.5	/experiments/Knapen_AOT/AOT_stimuli/rescaled_final/0612_fw.mp4	0.0	353.56541109085083	1.008460283279419
81	337.4172828197479	movie	1		272	79.0	2.5	/experiments/Knapen_AOT/AOT_stimuli/rescaled_final/0612_fw.mp4	0.0	354.57387137413025	2.492035150527954
81	337.79137897491455	pulse	1	t		79.0	2.5	/experiments/Knapen_AOT/AOT_stimuli/rescaled_final/0612_fw.mp4	0.0	354.9479675292969	
81	339.39283323287964	pulse	1	t		79.0	2.5	/experiments/Knapen_AOT/AOT_stimuli/rescaled_final/0612_fw.mp4	0.0	356.54942178726196	
81	339.9093179702759	fix_post	2		12	79.0	2.5	/experiments/Knapen_AOT/AOT_stimuli/rescaled_final/0612_fw.mp4	0.0	357.0659065246582	0.10004162788391113
82	340.0093595981598	fix_pre	0		119	80.0	2.5	/experiments/Knapen_AOT/AOT_stimuli/rescaled_final/1514_rv.mp4	0.0	357.1659481525421	1.0000886917114258
82	340.9930658340454	pulse	0	t		80.0	2.5	/experiments/Knapen_AOT/AOT_stimuli/rescaled_final/1514_rv.mp4	0.0	358.14965438842773	
82	341.0094482898712	movie	1		276	80.0	2.5	/experiments/Knapen_AOT/AOT_stimuli/rescaled_final/1514_rv.mp4	0.0	358.16603684425354	2.500404119491577
82	342.5935981273651	pulse	1	t		80.0	2.5	/experiments/Knapen_AOT/AOT_stimuli/rescaled_final/1514_rv.mp4	0.0	359.75018668174744	
82	343.5098524093628	fix_post	2		12	80.0	2.5	/experiments/Knapen_AOT/AOT_stimuli/rescaled_final/1514_rv.mp4	0.0	360.6664409637451	0.10003089904785156
83	343.60988330841064	fix_pre	0		120	81.0	2.5	/experiments/Knapen_AOT/AOT_stimuli/rescaled_final/0016_fw.mp4	0.0	360.76647186279297	1.0084803104400635
83	344.1935381889343	pulse	0	t		81.0	2.5	/experiments/Knapen_AOT/AOT_stimuli/rescaled_final/0016_fw.mp4	0.0	361.35012674331665	
83	344.6183636188507	movie	1		274	81.0	2.5	/experiments/Knapen_AOT/AOT_stimuli/rescaled_final/0016_fw.mp4	0.0	361.77495217323303	2.4920456409454346
83	345.79309463500977	pulse	1	t		81.0	2.5	/experiments/Knapen_AOT/AOT_stimuli/rescaled_final/0016_fw.mp4	0.0	362.9496831893921	
83	347.11040925979614	fix_post	2		12	81.0	2.5	/experiments/Knapen_AOT/AOT_stimuli/rescaled_final/0016_fw.mp4	0.0	364.26699781417847	0.10004830360412598
84	347.21045756340027	fix_pre	0		120	82.0	2.5	blank	1.0	364.3670461177826	1.0002641677856445
84	347.3939881324768	pulse	0	t		82.0	2.5	blank	1.0	364.55057668685913	
84	348.2107217311859	movie	1		300	82.0	2.5	blank	1.0	365.36731028556824	2.5002505779266357
84	348.99454045295715	pulse	1	t		82.0	2.5	blank	1.0	366.1511290073395	
84	350.59455847740173	pulse	1	t		82.0	2.5	blank	1.0	367.75114703178406	
84	350.71097230911255	fix_post	2		12	82.0	2.5	blank	1.0	367.8675608634949	0.10000348091125488
85	350.8109757900238	fix_pre	0		120	83.0	2.5	/experiments/Knapen_AOT/AOT_stimuli/rescaled_final/0556_rv.mp4	0.0	367.9675643444061	1.008533000946045
85	351.81950879096985	movie	1		274	83.0	2.5	/experiments/Knapen_AOT/AOT_stimuli/rescaled_final/0556_rv.mp4	0.0	368.9760973453522	2.4919772148132324
85	352.19508504867554	pulse	1	t		83.0	2.5	/experiments/Knapen_AOT/AOT_stimuli/rescaled_final/0556_rv.mp4	0.0	369.35167360305786	
85	353.7928898334503	pulse	1	t		83.0	2.5	/experiments/Knapen_AOT/AOT_stimuli/rescaled_final/0556_rv.mp4	0.0	370.94947838783264	
85	354.3114860057831	fix_post	2		12	83.0	2.5	/experiments/Knapen_AOT/AOT_stimuli/rescaled_final/0556_rv.mp4	0.0	371.4680745601654	0.1334972381591797
87	354.44498324394226	stim	0		1711					371.6015717983246	14.260340213775635
87	355.39521384239197	pulse	0	t						372.5518023967743	
87	356.9954583644867	pulse	0	t						374.152046918869	
87	358.5956542491913	pulse	0	t						375.7522428035736	
87	360.19599199295044	pulse	0	t						377.35258054733276	
87	361.79618859291077	pulse	0	t						378.9527771472931	
87	363.39642453193665	pulse	0	t						380.55301308631897	
87	364.9967348575592	pulse	0	t						382.1533234119415	
87	366.59694957733154	pulse	0	t						383.75353813171387	
87	368.1971526145935	pulse	0	t						385.35374116897583	
