trial_nr	onset	event_type	phase	response	nr_frames	movie_index	movie_duration	movie_file	blank	onset_abs	duration
0	0.16655874252319336	stim	0		1					18.73511242866516	0.008304834365844727
0	0.11888313293457031	response	0	space						18.687436819076538	
1	0.17486357688903809	stim	0		4664					18.743417263031006	38.88409781455994
1	39.04911422729492	pulse	0	t						57.61766791343689	
1	39.058961391448975	stim	1		1715					57.62751507759094	14.3072190284729
1	40.63949990272522	pulse	1	t						59.20805358886719	
1	42.23976492881775	pulse	1	t						60.80831861495972	
1	43.840028524398804	pulse	1	t						62.40858221054077	
1	45.4401798248291	pulse	1	t						64.00873351097107	
1	47.04072666168213	pulse	1	t						65.6092803478241	
1	48.640658140182495	pulse	1	t						67.20921182632446	
1	50.24093747138977	pulse	1	t						68.80949115753174	
1	51.84120440483093	pulse	1	t						70.4097580909729	
2	53.366180419921875	fix_pre	0		10	0.0	2.5	/experiments/knapen_AOT/AOT_stimuli/rescaled_final/1832_rv.mp4	0.0	71.93473410606384	0.10003113746643066
2	53.441322326660156	pulse	0	t		0.0	2.5	/experiments/knapen_AOT/AOT_stimuli/rescaled_final/1832_rv.mp4	0.0	72.00987601280212	
2	53.466211557388306	movie	1		293	0.0	2.5	/experiments/knapen_AOT/AOT_stimuli/rescaled_final/1832_rv.mp4	0.0	72.03476524353027	2.492014169692993
2	55.04026436805725	pulse	1	t		0.0	2.5	/experiments/knapen_AOT/AOT_stimuli/rescaled_final/1832_rv.mp4	0.0	73.60881805419922	
2	55.9582257270813	fix_post	2		12	0.0	2.5	/experiments/knapen_AOT/AOT_stimuli/rescaled_final/1832_rv.mp4	0.0	74.52677941322327	0.10007548332214355
3	56.05830121040344	fix_pre	0		120	1.0	2.5	/experiments/knapen_AOT/AOT_stimuli/rescaled_final/0268_fw.mp4	0.0	74.62685489654541	1.0084292888641357
3	56.64184904098511	pulse	0	t		1.0	2.5	/experiments/knapen_AOT/AOT_stimuli/rescaled_final/0268_fw.mp4	0.0	75.21040272712708	
3	57.06673049926758	movie	1		282	1.0	2.5	/experiments/knapen_AOT/AOT_stimuli/rescaled_final/0268_fw.mp4	0.0	75.63528418540955	2.4920670986175537
3	58.24035882949829	pulse	1	t		1.0	2.5	/experiments/knapen_AOT/AOT_stimuli/rescaled_final/0268_fw.mp4	0.0	76.80891251564026	
3	59.55879759788513	fix_post	2		12	1.0	2.5	/experiments/knapen_AOT/AOT_stimuli/rescaled_final/0268_fw.mp4	0.0	78.1273512840271	0.09999418258666992
4	59.6587917804718	fix_pre	0		120	2.0	2.5	/experiments/knapen_AOT/AOT_stimuli/rescaled_final/1654_rv.mp4	0.0	78.22734546661377	1.0085070133209229
4	59.84234833717346	pulse	0	t		2.0	2.5	/experiments/knapen_AOT/AOT_stimuli/rescaled_final/1654_rv.mp4	0.0	78.41090202331543	
4	60.667298793792725	movie	1		278	2.0	2.5	/experiments/knapen_AOT/AOT_stimuli/rescaled_final/1654_rv.mp4	0.0	79.23585247993469	2.492032051086426
4	61.440590620040894	pulse	1	t		2.0	2.5	/experiments/knapen_AOT/AOT_stimuli/rescaled_final/1654_rv.mp4	0.0	80.00914430618286	
4	63.041847944259644	pulse	1	t		2.0	2.5	/experiments/knapen_AOT/AOT_stimuli/rescaled_final/1654_rv.mp4	0.0	81.61040163040161	
4	63.15933084487915	fix_post	2		12	2.0	2.5	/experiments/knapen_AOT/AOT_stimuli/rescaled_final/1654_rv.mp4	0.0	81.72788453102112	0.09999775886535645
5	63.25932860374451	fix_pre	0		120	3.0	2.5	/experiments/knapen_AOT/AOT_stimuli/rescaled_final/0205_fw.mp4	0.0	81.82788228988647	1.0085253715515137
5	64.26785397529602	movie	1		277	3.0	2.5	/experiments/knapen_AOT/AOT_stimuli/rescaled_final/0205_fw.mp4	0.0	82.83640766143799	2.4920241832733154
5	64.6415867805481	pulse	1	t		3.0	2.5	/experiments/knapen_AOT/AOT_stimuli/rescaled_final/0205_fw.mp4	0.0	83.21014046669006	
5	66.24105954170227	pulse	1	t		3.0	2.5	/experiments/knapen_AOT/AOT_stimuli/rescaled_final/0205_fw.mp4	0.0	84.80961322784424	
5	66.75987815856934	fix_post	2		12	3.0	2.5	/experiments/knapen_AOT/AOT_stimuli/rescaled_final/0205_fw.mp4	0.0	85.3284318447113	0.10001420974731445
6	66.85989236831665	fix_pre	0		119	4.0	2.5	/experiments/knapen_AOT/AOT_stimuli/rescaled_final/1323_fw.mp4	0.0	85.42844605445862	1.0001537799835205
6	67.8435161113739	pulse	0	t		4.0	2.5	/experiments/knapen_AOT/AOT_stimuli/rescaled_final/1323_fw.mp4	0.0	86.41206979751587	
6	67.86004614830017	movie	1		272	4.0	2.5	/experiments/knapen_AOT/AOT_stimuli/rescaled_final/1323_fw.mp4	0.0	86.42859983444214	2.5003957748413086
6	69.44217133522034	pulse	1	t		4.0	2.5	/experiments/knapen_AOT/AOT_stimuli/rescaled_final/1323_fw.mp4	0.0	88.0107250213623	
6	70.36044192314148	fix_post	2		12	4.0	2.5	/experiments/knapen_AOT/AOT_stimuli/rescaled_final/1323_fw.mp4	0.0	88.92899560928345	0.0999917984008789
7	70.46043372154236	fix_pre	0		120	5.0	2.5	blank	1.0	89.02898740768433	1.0001616477966309
7	71.04398155212402	pulse	0	t		5.0	2.5	blank	1.0	89.61253523826599	
7	71.46059536933899	movie	1		300	5.0	2.5	blank	1.0	90.02914905548096	2.5003838539123535
7	72.6442039012909	pulse	1	t		5.0	2.5	blank	1.0	91.21275758743286	
7	73.96097922325134	fix_post	2		12	5.0	2.5	blank	1.0	92.52953290939331	0.10001254081726074
8	74.0609917640686	fix_pre	0		120	6.0	2.5	/experiments/knapen_AOT/AOT_stimuli/rescaled_final/1209_rv.mp4	0.0	92.62954545021057	1.0084941387176514
8	74.24462294578552	pulse	0	t		6.0	2.5	/experiments/knapen_AOT/AOT_stimuli/rescaled_final/1209_rv.mp4	0.0	92.81317663192749	
8	75.06948590278625	movie	1		278	6.0	2.5	/experiments/knapen_AOT/AOT_stimuli/rescaled_final/1209_rv.mp4	0.0	93.63803958892822	2.492008686065674
8	75.84325933456421	pulse	1	t		6.0	2.5	/experiments/knapen_AOT/AOT_stimuli/rescaled_final/1209_rv.mp4	0.0	94.41181302070618	
8	77.44273495674133	pulse	1	t		6.0	2.5	/experiments/knapen_AOT/AOT_stimuli/rescaled_final/1209_rv.mp4	0.0	96.0112886428833	
8	77.56149458885193	fix_post	2		12	6.0	2.5	/experiments/knapen_AOT/AOT_stimuli/rescaled_final/1209_rv.mp4	0.0	96.1300482749939	0.10008597373962402
9	77.66158056259155	fix_pre	0		120	7.0	2.5	/experiments/knapen_AOT/AOT_stimuli/rescaled_final/0114_rv.mp4	0.0	96.23013424873352	1.0084359645843506
9	78.6700165271759	movie	1		275	7.0	2.5	/experiments/knapen_AOT/AOT_stimuli/rescaled_final/0114_rv.mp4	0.0	97.23857021331787	2.492008686065674
9	79.04362773895264	pulse	1	t		7.0	2.5	/experiments/knapen_AOT/AOT_stimuli/rescaled_final/0114_rv.mp4	0.0	97.6121814250946	
9	80.64474964141846	pulse	1	t		7.0	2.5	/experiments/knapen_AOT/AOT_stimuli/rescaled_final/0114_rv.mp4	0.0	99.21330332756042	
9	81.16202521324158	fix_post	2		12	7.0	2.5	/experiments/knapen_AOT/AOT_stimuli/rescaled_final/0114_rv.mp4	0.0	99.73057889938354	0.1000514030456543
10	81.26207661628723	fix_pre	0		119	8.0	2.5	/experiments/knapen_AOT/AOT_stimuli/rescaled_final/0717_rv.mp4	0.0	99.8306303024292	1.000114917755127
10	82.24566721916199	pulse	0	t		8.0	2.5	/experiments/knapen_AOT/AOT_stimuli/rescaled_final/0717_rv.mp4	0.0	100.81422090530396	
10	82.26219153404236	movie	1		285	8.0	2.5	/experiments/knapen_AOT/AOT_stimuli/rescaled_final/0717_rv.mp4	0.0	100.83074522018433	2.500490188598633
10	83.84401297569275	pulse	1	t		8.0	2.5	/experiments/knapen_AOT/AOT_stimuli/rescaled_final/0717_rv.mp4	0.0	102.41256666183472	
10	84.76268172264099	fix_post	2		12	8.0	2.5	/experiments/knapen_AOT/AOT_stimuli/rescaled_final/0717_rv.mp4	0.0	103.33123540878296	0.0999748706817627
11	84.86265659332275	fix_pre	0		120	9.0	2.5	/experiments/knapen_AOT/AOT_stimuli/rescaled_final/1667_fw.mp4	0.0	103.43121027946472	1.008448839187622
11	85.43855500221252	pulse	0	t		9.0	2.5	/experiments/knapen_AOT/AOT_stimuli/rescaled_final/1667_fw.mp4	0.0	104.00710868835449	
11	85.87110543251038	movie	1		283	9.0	2.5	/experiments/knapen_AOT/AOT_stimuli/rescaled_final/1667_fw.mp4	0.0	104.43965911865234	2.492011547088623
11	87.04478478431702	pulse	1	t		9.0	2.5	/experiments/knapen_AOT/AOT_stimuli/rescaled_final/1667_fw.mp4	0.0	105.61333847045898	
11	88.363116979599	fix_post	2		12	9.0	2.5	/experiments/knapen_AOT/AOT_stimuli/rescaled_final/1667_fw.mp4	0.0	106.93167066574097	0.10001564025878906
12	88.46313261985779	fix_pre	0		120	10.0	2.5	/experiments/knapen_AOT/AOT_stimuli/rescaled_final/0556_fw.mp4	0.0	107.03168630599976	1.0085463523864746
12	88.6386969089508	pulse	0	t		10.0	2.5	/experiments/knapen_AOT/AOT_stimuli/rescaled_final/0556_fw.mp4	0.0	107.20725059509277	
12	89.47167897224426	movie	1		287	10.0	2.5	/experiments/knapen_AOT/AOT_stimuli/rescaled_final/0556_fw.mp4	0.0	108.04023265838623	2.4919285774230957
12	90.23861408233643	pulse	1	t		10.0	2.5	/experiments/knapen_AOT/AOT_stimuli/rescaled_final/0556_fw.mp4	0.0	108.8071677684784	
12	91.83876252174377	pulse	1	t		10.0	2.5	/experiments/knapen_AOT/AOT_stimuli/rescaled_final/0556_fw.mp4	0.0	110.40731620788574	
12	91.96360754966736	fix_post	2		12	10.0	2.5	/experiments/knapen_AOT/AOT_stimuli/rescaled_final/0556_fw.mp4	0.0	110.53216123580933	0.10008883476257324
13	92.06369638442993	fix_pre	0		120	11.0	2.5	/experiments/knapen_AOT/AOT_stimuli/rescaled_final/2023_fw.mp4	0.0	110.6322500705719	1.008493185043335
13	93.07218956947327	movie	1		296	11.0	2.5	/experiments/knapen_AOT/AOT_stimuli/rescaled_final/2023_fw.mp4	0.0	111.64074325561523	2.4920098781585693
13	93.43894004821777	pulse	1	t		11.0	2.5	/experiments/knapen_AOT/AOT_stimuli/rescaled_final/2023_fw.mp4	0.0	112.00749373435974	
13	95.03929328918457	pulse	1	t		11.0	2.5	/experiments/knapen_AOT/AOT_stimuli/rescaled_final/2023_fw.mp4	0.0	113.60784697532654	
13	95.56419944763184	fix_post	2		12	11.0	2.5	/experiments/knapen_AOT/AOT_stimuli/rescaled_final/2023_fw.mp4	0.0	114.1327531337738	0.09998202323913574
14	95.66418147087097	fix_pre	0		118	12.0	2.5	/experiments/knapen_AOT/AOT_stimuli/rescaled_final/0689_fw.mp4	0.0	114.23273515701294	0.9918417930603027
14	96.63950276374817	pulse	0	t		12.0	2.5	/experiments/knapen_AOT/AOT_stimuli/rescaled_final/0689_fw.mp4	0.0	115.20805644989014	
14	96.65602326393127	movie	1		298	12.0	2.5	/experiments/knapen_AOT/AOT_stimuli/rescaled_final/0689_fw.mp4	0.0	115.22457695007324	2.5003466606140137
14	98.23974323272705	pulse	1	t		12.0	2.5	/experiments/knapen_AOT/AOT_stimuli/rescaled_final/0689_fw.mp4	0.0	116.80829691886902	
14	99.15636992454529	fix_post	2		12	12.0	2.5	/experiments/knapen_AOT/AOT_stimuli/rescaled_final/0689_fw.mp4	0.0	117.72492361068726	0.1000070571899414
15	99.25637698173523	fix_pre	0		120	13.0	2.5	/experiments/knapen_AOT/AOT_stimuli/rescaled_final/1810_rv.mp4	0.0	117.8249306678772	1.0001423358917236
15	99.84000825881958	pulse	0	t		13.0	2.5	/experiments/knapen_AOT/AOT_stimuli/rescaled_final/1810_rv.mp4	0.0	118.40856194496155	
15	100.25651931762695	movie	1		292	13.0	2.5	/experiments/knapen_AOT/AOT_stimuli/rescaled_final/1810_rv.mp4	0.0	118.82507300376892	2.5003857612609863
15	101.44017338752747	pulse	1	t		13.0	2.5	/experiments/knapen_AOT/AOT_stimuli/rescaled_final/1810_rv.mp4	0.0	120.00872707366943	
15	102.75690507888794	fix_post	2		12	13.0	2.5	/experiments/knapen_AOT/AOT_stimuli/rescaled_final/1810_rv.mp4	0.0	121.32545876502991	0.1000833511352539
16	102.8569884300232	fix_pre	0		120	14.0	2.5	blank	1.0	121.42554211616516	1.000121831893921
16	103.04038619995117	pulse	0	t		14.0	2.5	blank	1.0	121.60893988609314	
16	103.85711026191711	movie	1		300	14.0	2.5	blank	1.0	122.42566394805908	2.5003817081451416
16	104.64067959785461	pulse	1	t		14.0	2.5	blank	1.0	123.20923328399658	
16	106.24092125892639	pulse	1	t		14.0	2.5	blank	1.0	124.80947494506836	
16	106.35749197006226	fix_post	2		12	14.0	2.5	blank	1.0	124.92604565620422	0.10007810592651367
17	106.45757007598877	fix_pre	0		120	15.0	2.5	/experiments/knapen_AOT/AOT_stimuli/rescaled_final/0324_fw.mp4	0.0	125.02612376213074	1.0084507465362549
17	107.46602082252502	movie	1		279	15.0	2.5	/experiments/knapen_AOT/AOT_stimuli/rescaled_final/0324_fw.mp4	0.0	126.03457450866699	2.4920032024383545
17	107.83965229988098	pulse	1	t		15.0	2.5	/experiments/knapen_AOT/AOT_stimuli/rescaled_final/0324_fw.mp4	0.0	126.40820598602295	
17	109.43958401679993	pulse	1	t		15.0	2.5	/experiments/knapen_AOT/AOT_stimuli/rescaled_final/0324_fw.mp4	0.0	128.0081377029419	
17	109.95802402496338	fix_post	2		12	15.0	2.5	/experiments/knapen_AOT/AOT_stimuli/rescaled_final/0324_fw.mp4	0.0	128.52657771110535	0.09999966621398926
18	110.05802369117737	fix_pre	0		119	16.0	2.5	/experiments/knapen_AOT/AOT_stimuli/rescaled_final/2063_fw.mp4	0.0	128.62657737731934	1.0003008842468262
18	111.04165315628052	pulse	0	t		16.0	2.5	/experiments/knapen_AOT/AOT_stimuli/rescaled_final/2063_fw.mp4	0.0	129.61020684242249	
18	111.0583245754242	movie	1		284	16.0	2.5	/experiments/knapen_AOT/AOT_stimuli/rescaled_final/2063_fw.mp4	0.0	129.62687826156616	2.500258207321167
18	112.64047145843506	pulse	1	t		16.0	2.5	/experiments/knapen_AOT/AOT_stimuli/rescaled_final/2063_fw.mp4	0.0	131.20902514457703	
18	113.55858278274536	fix_post	2		12	16.0	2.5	/experiments/knapen_AOT/AOT_stimuli/rescaled_final/2063_fw.mp4	0.0	132.12713646888733	0.10004496574401855
19	113.65862774848938	fix_pre	0		120	17.0	2.5	/experiments/knapen_AOT/AOT_stimuli/rescaled_final/1206_rv.mp4	0.0	132.22718143463135	1.0084669589996338
19	114.24216055870056	pulse	0	t		17.0	2.5	/experiments/knapen_AOT/AOT_stimuli/rescaled_final/1206_rv.mp4	0.0	132.81071424484253	
19	114.66709470748901	movie	1		283	17.0	2.5	/experiments/knapen_AOT/AOT_stimuli/rescaled_final/1206_rv.mp4	0.0	133.23564839363098	2.4922192096710205
19	115.84063959121704	pulse	1	t		17.0	2.5	/experiments/knapen_AOT/AOT_stimuli/rescaled_final/1206_rv.mp4	0.0	134.409193277359	
19	117.15931391716003	fix_post	2		12	17.0	2.5	/experiments/knapen_AOT/AOT_stimuli/rescaled_final/1206_rv.mp4	0.0	135.727867603302	0.09980201721191406
20	117.25911593437195	fix_pre	0		120	18.0	2.5	/experiments/knapen_AOT/AOT_stimuli/rescaled_final/1194_fw.mp4	0.0	135.82766962051392	1.0085246562957764
20	117.44277000427246	pulse	0	t		18.0	2.5	/experiments/knapen_AOT/AOT_stimuli/rescaled_final/1194_fw.mp4	0.0	136.01132369041443	
20	118.26764059066772	movie	1		283	18.0	2.5	/experiments/knapen_AOT/AOT_stimuli/rescaled_final/1194_fw.mp4	0.0	136.8361942768097	2.491999626159668
20	119.04092168807983	pulse	1	t		18.0	2.5	/experiments/knapen_AOT/AOT_stimuli/rescaled_final/1194_fw.mp4	0.0	137.6094753742218	
20	120.6422815322876	pulse	1	t		18.0	2.5	/experiments/knapen_AOT/AOT_stimuli/rescaled_final/1194_fw.mp4	0.0	139.21083521842957	
20	120.75964021682739	fix_post	2		12	18.0	2.5	/experiments/knapen_AOT/AOT_stimuli/rescaled_final/1194_fw.mp4	0.0	139.32819390296936	0.10006260871887207
21	120.85970282554626	fix_pre	0		120	19.0	2.5	/experiments/knapen_AOT/AOT_stimuli/rescaled_final/1858_rv.mp4	0.0	139.42825651168823	1.0084712505340576
21	121.86817407608032	movie	1		291	19.0	2.5	/experiments/knapen_AOT/AOT_stimuli/rescaled_final/1858_rv.mp4	0.0	140.4367277622223	2.4920153617858887
21	122.24181079864502	pulse	1	t		19.0	2.5	/experiments/knapen_AOT/AOT_stimuli/rescaled_final/1858_rv.mp4	0.0	140.810364484787	
21	123.84132623672485	pulse	1	t		19.0	2.5	/experiments/knapen_AOT/AOT_stimuli/rescaled_final/1858_rv.mp4	0.0	142.40987992286682	
21	124.36018943786621	fix_post	2		12	19.0	2.5	/experiments/knapen_AOT/AOT_stimuli/rescaled_final/1858_rv.mp4	0.0	142.92874312400818	0.10003209114074707
22	124.46022152900696	fix_pre	0		119	20.0	2.5	blank	1.0	143.02877521514893	0.9918091297149658
22	125.44386625289917	pulse	0	t		20.0	2.5	blank	1.0	144.01241993904114	
22	125.45203065872192	movie	1		301	20.0	2.5	blank	1.0	144.0205843448639	2.5087056159973145
22	127.04405474662781	pulse	1	t		20.0	2.5	blank	1.0	145.61260843276978	
22	127.96073627471924	fix_post	2		12	20.0	2.5	blank	1.0	146.5292899608612	0.10000061988830566
23	128.06073689460754	fix_pre	0		120	21.0	2.5	/experiments/knapen_AOT/AOT_stimuli/rescaled_final/1957_fw.mp4	0.0	146.6292905807495	1.0084924697875977
23	128.6443088054657	pulse	0	t		21.0	2.5	/experiments/knapen_AOT/AOT_stimuli/rescaled_final/1957_fw.mp4	0.0	147.21286249160767	
23	129.06922936439514	movie	1		283	21.0	2.5	/experiments/knapen_AOT/AOT_stimuli/rescaled_final/1957_fw.mp4	0.0	147.6377830505371	2.4920413494110107
23	130.24250602722168	pulse	1	t		21.0	2.5	/experiments/knapen_AOT/AOT_stimuli/rescaled_final/1957_fw.mp4	0.0	148.81105971336365	
23	131.56127071380615	fix_post	2		12	21.0	2.5	/experiments/knapen_AOT/AOT_stimuli/rescaled_final/1957_fw.mp4	0.0	150.12982439994812	0.10000920295715332
24	131.6612799167633	fix_pre	0		120	22.0	2.5	/experiments/knapen_AOT/AOT_stimuli/rescaled_final/0968_fw.mp4	0.0	150.22983360290527	1.0085091590881348
24	131.84496593475342	pulse	0	t		22.0	2.5	/experiments/knapen_AOT/AOT_stimuli/rescaled_final/0968_fw.mp4	0.0	150.41351962089539	
24	132.66978907585144	movie	1		282	22.0	2.5	/experiments/knapen_AOT/AOT_stimuli/rescaled_final/0968_fw.mp4	0.0	151.2383427619934	2.492016315460205
24	133.4429225921631	pulse	1	t		22.0	2.5	/experiments/knapen_AOT/AOT_stimuli/rescaled_final/0968_fw.mp4	0.0	152.01147627830505	
24	135.04403281211853	pulse	1	t		22.0	2.5	/experiments/knapen_AOT/AOT_stimuli/rescaled_final/0968_fw.mp4	0.0	153.6125864982605	
24	135.16180539131165	fix_post	2		12	22.0	2.5	/experiments/knapen_AOT/AOT_stimuli/rescaled_final/0968_fw.mp4	0.0	153.7303590774536	0.10002422332763672
25	135.26182961463928	fix_pre	0		120	23.0	2.5	/experiments/knapen_AOT/AOT_stimuli/rescaled_final/1784_fw.mp4	0.0	153.83038330078125	1.0085060596466064
25	136.2703356742859	movie	1		291	23.0	2.5	/experiments/knapen_AOT/AOT_stimuli/rescaled_final/1784_fw.mp4	0.0	154.83888936042786	2.492008924484253
25	136.64400434494019	pulse	1	t		23.0	2.5	/experiments/knapen_AOT/AOT_stimuli/rescaled_final/1784_fw.mp4	0.0	155.21255803108215	
25	138.23790621757507	pulse	1	t		23.0	2.5	/experiments/knapen_AOT/AOT_stimuli/rescaled_final/1784_fw.mp4	0.0	156.80645990371704	
25	138.76234459877014	fix_post	2		12	23.0	2.5	/experiments/knapen_AOT/AOT_stimuli/rescaled_final/1784_fw.mp4	0.0	157.3308982849121	0.10001921653747559
26	138.86236381530762	fix_pre	0		118	24.0	2.5	/experiments/knapen_AOT/AOT_stimuli/rescaled_final/0820_rv.mp4	0.0	157.43091750144958	0.9918437004089355
26	139.83797597885132	pulse	0	t		24.0	2.5	/experiments/knapen_AOT/AOT_stimuli/rescaled_final/0820_rv.mp4	0.0	158.4065296649933	
26	139.85420751571655	movie	1		278	24.0	2.5	/experiments/knapen_AOT/AOT_stimuli/rescaled_final/0820_rv.mp4	0.0	158.42276120185852	2.5003879070281982
26	141.43797254562378	pulse	1	t		24.0	2.5	/experiments/knapen_AOT/AOT_stimuli/rescaled_final/0820_rv.mp4	0.0	160.00652623176575	
26	142.35459542274475	fix_post	2		12	24.0	2.5	/experiments/knapen_AOT/AOT_stimuli/rescaled_final/0820_rv.mp4	0.0	160.92314910888672	0.10003018379211426
27	142.45462560653687	fix_pre	0		120	25.0	2.5	/experiments/knapen_AOT/AOT_stimuli/rescaled_final/1542_rv.mp4	0.0	161.02317929267883	1.0084972381591797
27	143.03837513923645	pulse	0	t		25.0	2.5	/experiments/knapen_AOT/AOT_stimuli/rescaled_final/1542_rv.mp4	0.0	161.60692882537842	
27	143.46312284469604	movie	1		280	25.0	2.5	/experiments/knapen_AOT/AOT_stimuli/rescaled_final/1542_rv.mp4	0.0	162.031676530838	2.4919707775115967
27	144.63841772079468	pulse	1	t		25.0	2.5	/experiments/knapen_AOT/AOT_stimuli/rescaled_final/1542_rv.mp4	0.0	163.20697140693665	
27	145.95509362220764	fix_post	2		12	25.0	2.5	/experiments/knapen_AOT/AOT_stimuli/rescaled_final/1542_rv.mp4	0.0	164.5236473083496	0.10001087188720703
28	146.05510449409485	fix_pre	0		120	26.0	2.5	/experiments/knapen_AOT/AOT_stimuli/rescaled_final/0717_fw.mp4	0.0	164.62365818023682	1.008514404296875
28	146.23877954483032	pulse	0	t		26.0	2.5	/experiments/knapen_AOT/AOT_stimuli/rescaled_final/0717_fw.mp4	0.0	164.8073332309723	
28	147.06361889839172	movie	1		284	26.0	2.5	/experiments/knapen_AOT/AOT_stimuli/rescaled_final/0717_fw.mp4	0.0	165.6321725845337	2.4920225143432617
28	147.83914995193481	pulse	1	t		26.0	2.5	/experiments/knapen_AOT/AOT_stimuli/rescaled_final/0717_fw.mp4	0.0	166.40770363807678	
28	149.4391086101532	pulse	1	t		26.0	2.5	/experiments/knapen_AOT/AOT_stimuli/rescaled_final/0717_fw.mp4	0.0	168.00766229629517	
28	149.55564141273499	fix_post	2		12	26.0	2.5	/experiments/knapen_AOT/AOT_stimuli/rescaled_final/0717_fw.mp4	0.0	168.12419509887695	0.10004806518554688
29	149.65568947792053	fix_pre	0		120	27.0	2.5	blank	1.0	168.2242431640625	1.0001120567321777
29	150.6558015346527	movie	1		300	27.0	2.5	blank	1.0	169.22435522079468	2.500366449356079
29	151.03935265541077	pulse	1	t		27.0	2.5	blank	1.0	169.60790634155273	
29	152.6395833492279	pulse	1	t		27.0	2.5	blank	1.0	171.20813703536987	
29	153.1561679840088	fix_post	2		12	27.0	2.5	blank	1.0	171.72472167015076	0.10002827644348145
30	153.25619626045227	fix_pre	0		119	28.0	2.5	/experiments/knapen_AOT/AOT_stimuli/rescaled_final/0729_fw.mp4	0.0	171.82474994659424	1.000185489654541
30	154.23984146118164	pulse	0	t		28.0	2.5	/experiments/knapen_AOT/AOT_stimuli/rescaled_final/0729_fw.mp4	0.0	172.8083951473236	
30	154.2563817501068	movie	1		282	28.0	2.5	/experiments/knapen_AOT/AOT_stimuli/rescaled_final/0729_fw.mp4	0.0	172.82493543624878	2.5003201961517334
30	155.83927369117737	pulse	1	t		28.0	2.5	/experiments/knapen_AOT/AOT_stimuli/rescaled_final/0729_fw.mp4	0.0	174.40782737731934	
30	156.75670194625854	fix_post	2		12	28.0	2.5	/experiments/knapen_AOT/AOT_stimuli/rescaled_final/0729_fw.mp4	0.0	175.3252556324005	0.10003900527954102
31	156.8567409515381	fix_pre	0		120	29.0	2.5	/experiments/knapen_AOT/AOT_stimuli/rescaled_final/1194_rv.mp4	0.0	175.42529463768005	1.0084848403930664
31	157.44045734405518	pulse	0	t		29.0	2.5	/experiments/knapen_AOT/AOT_stimuli/rescaled_final/1194_rv.mp4	0.0	176.00901103019714	
31	157.86522579193115	movie	1		293	29.0	2.5	/experiments/knapen_AOT/AOT_stimuli/rescaled_final/1194_rv.mp4	0.0	176.43377947807312	2.4920802116394043
31	159.03846740722656	pulse	1	t		29.0	2.5	/experiments/knapen_AOT/AOT_stimuli/rescaled_final/1194_rv.mp4	0.0	177.60702109336853	
31	160.35730600357056	fix_post	2		12	29.0	2.5	/experiments/knapen_AOT/AOT_stimuli/rescaled_final/1194_rv.mp4	0.0	178.92585968971252	0.10003113746643066
32	160.457337141037	fix_pre	0		120	30.0	2.5	/experiments/knapen_AOT/AOT_stimuli/rescaled_final/0216_rv.mp4	0.0	179.02589082717896	1.008460283279419
32	160.64077639579773	pulse	0	t		30.0	2.5	/experiments/knapen_AOT/AOT_stimuli/rescaled_final/0216_rv.mp4	0.0	179.2093300819397	
32	161.4657974243164	movie	1		287	30.0	2.5	/experiments/knapen_AOT/AOT_stimuli/rescaled_final/0216_rv.mp4	0.0	180.03435111045837	2.492025852203369
32	162.23882937431335	pulse	1	t		30.0	2.5	/experiments/knapen_AOT/AOT_stimuli/rescaled_final/0216_rv.mp4	0.0	180.80738306045532	
32	163.84047436714172	pulse	1	t		30.0	2.5	/experiments/knapen_AOT/AOT_stimuli/rescaled_final/0216_rv.mp4	0.0	182.4090280532837	
32	163.95782327651978	fix_post	2		12	30.0	2.5	/experiments/knapen_AOT/AOT_stimuli/rescaled_final/0216_rv.mp4	0.0	182.52637696266174	0.10000753402709961
33	164.05783081054688	fix_pre	0		120	31.0	2.5	/experiments/knapen_AOT/AOT_stimuli/rescaled_final/0064_fw.mp4	0.0	182.62638449668884	1.008528470993042
33	165.06635928153992	movie	1		291	31.0	2.5	/experiments/knapen_AOT/AOT_stimuli/rescaled_final/0064_fw.mp4	0.0	183.63491296768188	2.491978168487549
33	165.4397337436676	pulse	1	t		31.0	2.5	/experiments/knapen_AOT/AOT_stimuli/rescaled_final/0064_fw.mp4	0.0	184.00828742980957	
33	167.0396065711975	pulse	1	t		31.0	2.5	/experiments/knapen_AOT/AOT_stimuli/rescaled_final/0064_fw.mp4	0.0	185.60816025733948	
33	167.55833745002747	fix_post	2		12	31.0	2.5	/experiments/knapen_AOT/AOT_stimuli/rescaled_final/0064_fw.mp4	0.0	186.12689113616943	0.10003161430358887
34	167.65836906433105	fix_pre	0		119	32.0	2.5	/experiments/knapen_AOT/AOT_stimuli/rescaled_final/1149_rv.mp4	0.0	186.22692275047302	1.000258207321167
34	168.6419837474823	pulse	0	t		32.0	2.5	/experiments/knapen_AOT/AOT_stimuli/rescaled_final/1149_rv.mp4	0.0	187.21053743362427	
34	168.65862727165222	movie	1		277	32.0	2.5	/experiments/knapen_AOT/AOT_stimuli/rescaled_final/1149_rv.mp4	0.0	187.2271809577942	2.5002763271331787
34	170.24095273017883	pulse	1	t		32.0	2.5	/experiments/knapen_AOT/AOT_stimuli/rescaled_final/1149_rv.mp4	0.0	188.8095064163208	
34	171.1589035987854	fix_post	2		12	32.0	2.5	/experiments/knapen_AOT/AOT_stimuli/rescaled_final/1149_rv.mp4	0.0	189.72745728492737	0.1000509262084961
35	171.2589545249939	fix_pre	0		120	33.0	2.5	/experiments/knapen_AOT/AOT_stimuli/rescaled_final/1738_rv.mp4	0.0	189.82750821113586	1.008453607559204
35	171.84267950057983	pulse	0	t		33.0	2.5	/experiments/knapen_AOT/AOT_stimuli/rescaled_final/1738_rv.mp4	0.0	190.4112331867218	
35	172.2674081325531	movie	1		286	33.0	2.5	/experiments/knapen_AOT/AOT_stimuli/rescaled_final/1738_rv.mp4	0.0	190.83596181869507	2.492044687271118
35	173.44290590286255	pulse	1	t		33.0	2.5	/experiments/knapen_AOT/AOT_stimuli/rescaled_final/1738_rv.mp4	0.0	192.01145958900452	
35	174.75945281982422	fix_post	2		12	33.0	2.5	/experiments/knapen_AOT/AOT_stimuli/rescaled_final/1738_rv.mp4	0.0	193.3280065059662	0.10000300407409668
36	174.85945582389832	fix_pre	0		120	34.0	2.5	/experiments/knapen_AOT/AOT_stimuli/rescaled_final/1288_fw.mp4	0.0	193.42800951004028	1.008500576019287
36	175.04299664497375	pulse	0	t		34.0	2.5	/experiments/knapen_AOT/AOT_stimuli/rescaled_final/1288_fw.mp4	0.0	193.61155033111572	
36	175.8679563999176	movie	1		291	34.0	2.5	/experiments/knapen_AOT/AOT_stimuli/rescaled_final/1288_fw.mp4	0.0	194.43651008605957	2.4920365810394287
36	176.64090156555176	pulse	1	t		34.0	2.5	/experiments/knapen_AOT/AOT_stimuli/rescaled_final/1288_fw.mp4	0.0	195.20945525169373	
36	178.24173736572266	pulse	1	t		34.0	2.5	/experiments/knapen_AOT/AOT_stimuli/rescaled_final/1288_fw.mp4	0.0	196.81029105186462	
36	178.35999298095703	fix_post	2		12	34.0	2.5	/experiments/knapen_AOT/AOT_stimuli/rescaled_final/1288_fw.mp4	0.0	196.928546667099	0.1000065803527832
37	178.45999956130981	fix_pre	0		120	35.0	2.5	blank	1.0	197.02855324745178	1.00014328956604
37	179.46014285087585	movie	1		300	35.0	2.5	blank	1.0	198.02869653701782	2.500373601913452
37	179.8436930179596	pulse	1	t		35.0	2.5	blank	1.0	198.41224670410156	
37	181.4439127445221	pulse	1	t		35.0	2.5	blank	1.0	200.01246643066406	
37	181.9605164527893	fix_post	2		12	35.0	2.5	blank	1.0	200.52907013893127	0.10001325607299805
38	182.0605297088623	fix_pre	0		119	36.0	2.5	/experiments/knapen_AOT/AOT_stimuli/rescaled_final/0825_rv.mp4	0.0	200.62908339500427	1.000136137008667
38	183.04414439201355	pulse	0	t		36.0	2.5	/experiments/knapen_AOT/AOT_stimuli/rescaled_final/0825_rv.mp4	0.0	201.61269807815552	
38	183.06066584587097	movie	1		291	36.0	2.5	/experiments/knapen_AOT/AOT_stimuli/rescaled_final/0825_rv.mp4	0.0	201.62921953201294	2.500385046005249
38	184.64268445968628	pulse	1	t		36.0	2.5	/experiments/knapen_AOT/AOT_stimuli/rescaled_final/0825_rv.mp4	0.0	203.21123814582825	
38	185.56105089187622	fix_post	2		12	36.0	2.5	/experiments/knapen_AOT/AOT_stimuli/rescaled_final/0825_rv.mp4	0.0	204.1296045780182	0.10000896453857422
39	185.6610598564148	fix_pre	0		120	37.0	2.5	/experiments/knapen_AOT/AOT_stimuli/rescaled_final/0748_fw.mp4	0.0	204.22961354255676	1.0085296630859375
39	186.24519562721252	pulse	0	t		37.0	2.5	/experiments/knapen_AOT/AOT_stimuli/rescaled_final/0748_fw.mp4	0.0	204.8137493133545	
39	186.66958951950073	movie	1		289	37.0	2.5	/experiments/knapen_AOT/AOT_stimuli/rescaled_final/0748_fw.mp4	0.0	205.2381432056427	2.4920129776000977
39	187.84402918815613	pulse	1	t		37.0	2.5	/experiments/knapen_AOT/AOT_stimuli/rescaled_final/0748_fw.mp4	0.0	206.4125828742981	
39	189.16160249710083	fix_post	2		12	37.0	2.5	/experiments/knapen_AOT/AOT_stimuli/rescaled_final/0748_fw.mp4	0.0	207.7301561832428	0.10003805160522461
40	189.26164054870605	fix_pre	0		120	38.0	2.5	/experiments/knapen_AOT/AOT_stimuli/rescaled_final/0090_rv.mp4	0.0	207.83019423484802	1.008453130722046
40	189.4387457370758	pulse	0	t		38.0	2.5	/experiments/knapen_AOT/AOT_stimuli/rescaled_final/0090_rv.mp4	0.0	208.00729942321777	
40	190.2700936794281	movie	1		292	38.0	2.5	/experiments/knapen_AOT/AOT_stimuli/rescaled_final/0090_rv.mp4	0.0	208.83864736557007	2.492032766342163
40	191.0436098575592	pulse	1	t		38.0	2.5	/experiments/knapen_AOT/AOT_stimuli/rescaled_final/0090_rv.mp4	0.0	209.61216354370117	
40	192.64569568634033	pulse	1	t		38.0	2.5	/experiments/knapen_AOT/AOT_stimuli/rescaled_final/0090_rv.mp4	0.0	211.2142493724823	
40	192.76212644577026	fix_post	2		12	38.0	2.5	/experiments/knapen_AOT/AOT_stimuli/rescaled_final/0090_rv.mp4	0.0	211.33068013191223	0.10003900527954102
41	192.8621654510498	fix_pre	0		120	39.0	2.5	/experiments/knapen_AOT/AOT_stimuli/rescaled_final/1095_rv.mp4	0.0	211.43071913719177	1.0084986686706543
41	193.87066411972046	movie	1		287	39.0	2.5	/experiments/knapen_AOT/AOT_stimuli/rescaled_final/1095_rv.mp4	0.0	212.43921780586243	2.4920096397399902
41	194.24464988708496	pulse	1	t		39.0	2.5	/experiments/knapen_AOT/AOT_stimuli/rescaled_final/1095_rv.mp4	0.0	212.81320357322693	
41	195.84435653686523	pulse	1	t		39.0	2.5	/experiments/knapen_AOT/AOT_stimuli/rescaled_final/1095_rv.mp4	0.0	214.4129102230072	
41	196.36267375946045	fix_post	2		12	39.0	2.5	/experiments/knapen_AOT/AOT_stimuli/rescaled_final/1095_rv.mp4	0.0	214.93122744560242	0.10001230239868164
42	196.46268606185913	fix_pre	0		118	40.0	2.5	/experiments/knapen_AOT/AOT_stimuli/rescaled_final/1055_fw.mp4	0.0	215.0312397480011	0.9918384552001953
42	197.4382996559143	pulse	0	t		40.0	2.5	/experiments/knapen_AOT/AOT_stimuli/rescaled_final/1055_fw.mp4	0.0	216.00685334205627	
42	197.45452451705933	movie	1		291	40.0	2.5	/experiments/knapen_AOT/AOT_stimuli/rescaled_final/1055_fw.mp4	0.0	216.0230782032013	2.5003714561462402
42	199.0387840270996	pulse	1	t		40.0	2.5	/experiments/knapen_AOT/AOT_stimuli/rescaled_final/1055_fw.mp4	0.0	217.60733771324158	
42	199.95489597320557	fix_post	2		12	40.0	2.5	/experiments/knapen_AOT/AOT_stimuli/rescaled_final/1055_fw.mp4	0.0	218.52344965934753	0.10005426406860352
43	200.05495023727417	fix_pre	0		120	41.0	2.5	blank	1.0	218.62350392341614	1.0000889301300049
43	200.6385452747345	pulse	0	t		41.0	2.5	blank	1.0	219.20709896087646	
43	201.05503916740417	movie	1		300	41.0	2.5	blank	1.0	219.62359285354614	2.5003836154937744
43	202.23880863189697	pulse	1	t		41.0	2.5	blank	1.0	220.80736231803894	
43	203.55542278289795	fix_post	2		12	41.0	2.5	blank	1.0	222.12397646903992	0.10003018379211426
44	203.65545296669006	fix_pre	0		120	42.0	2.5	/experiments/knapen_AOT/AOT_stimuli/rescaled_final/0602_rv.mp4	0.0	222.22400665283203	1.008551836013794
44	203.83901453018188	pulse	0	t		42.0	2.5	/experiments/knapen_AOT/AOT_stimuli/rescaled_final/0602_rv.mp4	0.0	222.40756821632385	
44	204.66400480270386	movie	1		284	42.0	2.5	/experiments/knapen_AOT/AOT_stimuli/rescaled_final/0602_rv.mp4	0.0	223.23255848884583	2.4920237064361572
44	205.43953037261963	pulse	1	t		42.0	2.5	/experiments/knapen_AOT/AOT_stimuli/rescaled_final/0602_rv.mp4	0.0	224.0080840587616	
44	207.03947043418884	pulse	1	t		42.0	2.5	/experiments/knapen_AOT/AOT_stimuli/rescaled_final/0602_rv.mp4	0.0	225.6080241203308	
44	207.15602850914001	fix_post	2		12	42.0	2.5	/experiments/knapen_AOT/AOT_stimuli/rescaled_final/0602_rv.mp4	0.0	225.72458219528198	0.09995436668395996
45	207.25598287582397	fix_pre	0		120	43.0	2.5	/experiments/knapen_AOT/AOT_stimuli/rescaled_final/0415_rv.mp4	0.0	225.82453656196594	1.008575201034546
45	208.26455807685852	movie	1		294	43.0	2.5	/experiments/knapen_AOT/AOT_stimuli/rescaled_final/0415_rv.mp4	0.0	226.8331117630005	2.4919443130493164
45	208.63972067832947	pulse	1	t		43.0	2.5	/experiments/knapen_AOT/AOT_stimuli/rescaled_final/0415_rv.mp4	0.0	227.20827436447144	
45	210.24006509780884	pulse	1	t		43.0	2.5	/experiments/knapen_AOT/AOT_stimuli/rescaled_final/0415_rv.mp4	0.0	228.8086187839508	
45	210.75650238990784	fix_post	2		12	43.0	2.5	/experiments/knapen_AOT/AOT_stimuli/rescaled_final/0415_rv.mp4	0.0	229.3250560760498	0.10008573532104492
46	210.85658812522888	fix_pre	0		119	44.0	2.5	/experiments/knapen_AOT/AOT_stimuli/rescaled_final/1573_rv.mp4	0.0	229.42514181137085	1.0001180171966553
46	211.84019994735718	pulse	0	t		44.0	2.5	/experiments/knapen_AOT/AOT_stimuli/rescaled_final/1573_rv.mp4	0.0	230.40875363349915	
46	211.85670614242554	movie	1		283	44.0	2.5	/experiments/knapen_AOT/AOT_stimuli/rescaled_final/1573_rv.mp4	0.0	230.4252598285675	2.50032639503479
46	213.43930649757385	pulse	1	t		44.0	2.5	/experiments/knapen_AOT/AOT_stimuli/rescaled_final/1573_rv.mp4	0.0	232.00786018371582	
46	214.35703253746033	fix_post	2		12	44.0	2.5	/experiments/knapen_AOT/AOT_stimuli/rescaled_final/1573_rv.mp4	0.0	232.9255862236023	0.1000223159790039
47	214.45705485343933	fix_pre	0		120	45.0	2.5	/experiments/knapen_AOT/AOT_stimuli/rescaled_final/1838_rv.mp4	0.0	233.0256085395813	1.008591890335083
47	215.04065251350403	pulse	0	t		45.0	2.5	/experiments/knapen_AOT/AOT_stimuli/rescaled_final/1838_rv.mp4	0.0	233.609206199646	
47	215.4656467437744	movie	1		277	45.0	2.5	/experiments/knapen_AOT/AOT_stimuli/rescaled_final/1838_rv.mp4	0.0	234.03420042991638	2.492218494415283
47	216.63876152038574	pulse	1	t		45.0	2.5	/experiments/knapen_AOT/AOT_stimuli/rescaled_final/1838_rv.mp4	0.0	235.2073152065277	
47	217.9578652381897	fix_post	2		7	45.0	2.5	/experiments/knapen_AOT/AOT_stimuli/rescaled_final/1838_rv.mp4	0.0	236.52641892433167	0.1915757656097412
48	218.14944100379944	fix_pre	0		109	46.0	2.5	/experiments/knapen_AOT/AOT_stimuli/rescaled_final/1673_rv.mp4	0.0	236.7179946899414	0.9166672229766846
48	218.2411825656891	pulse	0	t		46.0	2.5	/experiments/knapen_AOT/AOT_stimuli/rescaled_final/1673_rv.mp4	0.0	236.80973625183105	
48	219.06610822677612	movie	1		285	46.0	2.5	/experiments/knapen_AOT/AOT_stimuli/rescaled_final/1673_rv.mp4	0.0	237.6346619129181	2.492039680480957
48	219.83931279182434	pulse	1	t		46.0	2.5	/experiments/knapen_AOT/AOT_stimuli/rescaled_final/1673_rv.mp4	0.0	238.4078664779663	
48	221.4396243095398	pulse	1	t		46.0	2.5	/experiments/knapen_AOT/AOT_stimuli/rescaled_final/1673_rv.mp4	0.0	240.00817799568176	
48	221.55814790725708	fix_post	2		12	46.0	2.5	/experiments/knapen_AOT/AOT_stimuli/rescaled_final/1673_rv.mp4	0.0	240.12670159339905	0.09999823570251465
49	221.6581461429596	fix_pre	0		120	47.0	2.5	blank	1.0	240.22669982910156	1.0001416206359863
49	222.65828776359558	movie	1		300	47.0	2.5	blank	1.0	241.22684144973755	2.500386953353882
49	223.0419192314148	pulse	1	t		47.0	2.5	blank	1.0	241.61047291755676	
49	224.6421549320221	pulse	1	t		47.0	2.5	blank	1.0	243.21070861816406	
49	225.15867471694946	fix_post	2		12	47.0	2.5	blank	1.0	243.72722840309143	0.10008597373962402
50	225.2587606906891	fix_pre	0		119	48.0	2.5	/experiments/knapen_AOT/AOT_stimuli/rescaled_final/1832_fw.mp4	0.0	243.82731437683105	1.0001060962677002
50	226.24235939979553	pulse	0	t		48.0	2.5	/experiments/knapen_AOT/AOT_stimuli/rescaled_final/1832_fw.mp4	0.0	244.8109130859375	
50	226.2588667869568	movie	1		274	48.0	2.5	/experiments/knapen_AOT/AOT_stimuli/rescaled_final/1832_fw.mp4	0.0	244.82742047309875	2.5003433227539062
50	227.8410086631775	pulse	1	t		48.0	2.5	/experiments/knapen_AOT/AOT_stimuli/rescaled_final/1832_fw.mp4	0.0	246.40956234931946	
50	228.7592101097107	fix_post	2		12	48.0	2.5	/experiments/knapen_AOT/AOT_stimuli/rescaled_final/1832_fw.mp4	0.0	247.32776379585266	0.10003304481506348
51	228.85924315452576	fix_pre	0		120	49.0	2.5	/experiments/knapen_AOT/AOT_stimuli/rescaled_final/0602_fw.mp4	0.0	247.42779684066772	1.0086658000946045
51	229.44289422035217	pulse	0	t		49.0	2.5	/experiments/knapen_AOT/AOT_stimuli/rescaled_final/0602_fw.mp4	0.0	248.01144790649414	
51	229.86790895462036	movie	1		289	49.0	2.5	/experiments/knapen_AOT/AOT_stimuli/rescaled_final/0602_fw.mp4	0.0	248.43646264076233	2.491910934448242
51	231.04129457473755	pulse	1	t		49.0	2.5	/experiments/knapen_AOT/AOT_stimuli/rescaled_final/0602_fw.mp4	0.0	249.60984826087952	
51	232.3598198890686	fix_post	2		12	49.0	2.5	/experiments/knapen_AOT/AOT_stimuli/rescaled_final/0602_fw.mp4	0.0	250.92837357521057	0.09999871253967285
52	232.45981860160828	fix_pre	0		120	50.0	2.5	/experiments/knapen_AOT/AOT_stimuli/rescaled_final/1076_fw.mp4	0.0	251.02837228775024	1.0084812641143799
52	232.64353322982788	pulse	0	t		50.0	2.5	/experiments/knapen_AOT/AOT_stimuli/rescaled_final/1076_fw.mp4	0.0	251.21208691596985	
52	233.46829986572266	movie	1		291	50.0	2.5	/experiments/knapen_AOT/AOT_stimuli/rescaled_final/1076_fw.mp4	0.0	252.03685355186462	2.4920341968536377
52	234.24156641960144	pulse	1	t		50.0	2.5	/experiments/knapen_AOT/AOT_stimuli/rescaled_final/1076_fw.mp4	0.0	252.8101201057434	
52	235.84195041656494	pulse	1	t		50.0	2.5	/experiments/knapen_AOT/AOT_stimuli/rescaled_final/1076_fw.mp4	0.0	254.4105041027069	
52	235.9603340625763	fix_post	2		12	50.0	2.5	/experiments/knapen_AOT/AOT_stimuli/rescaled_final/1076_fw.mp4	0.0	254.52888774871826	0.09997844696044922
53	236.06031250953674	fix_pre	0		120	51.0	2.5	/experiments/knapen_AOT/AOT_stimuli/rescaled_final/0138_rv.mp4	0.0	254.6288661956787	1.0085170269012451
53	237.068829536438	movie	1		286	51.0	2.5	/experiments/knapen_AOT/AOT_stimuli/rescaled_final/0138_rv.mp4	0.0	255.63738322257996	2.4921131134033203
53	237.44241070747375	pulse	1	t		51.0	2.5	/experiments/knapen_AOT/AOT_stimuli/rescaled_final/0138_rv.mp4	0.0	256.0109643936157	
53	239.04239082336426	pulse	1	t		51.0	2.5	/experiments/knapen_AOT/AOT_stimuli/rescaled_final/0138_rv.mp4	0.0	257.6109445095062	
53	239.5609426498413	fix_post	2		12	51.0	2.5	/experiments/knapen_AOT/AOT_stimuli/rescaled_final/0138_rv.mp4	0.0	258.1294963359833	0.09997010231018066
54	239.6609127521515	fix_pre	0		119	52.0	2.5	/experiments/knapen_AOT/AOT_stimuli/rescaled_final/1956_fw.mp4	0.0	258.22946643829346	1.0000929832458496
54	240.64454865455627	pulse	0	t		52.0	2.5	/experiments/knapen_AOT/AOT_stimuli/rescaled_final/1956_fw.mp4	0.0	259.21310234069824	
54	240.66100573539734	movie	1		290	52.0	2.5	/experiments/knapen_AOT/AOT_stimuli/rescaled_final/1956_fw.mp4	0.0	259.2295594215393	2.5003788471221924
54	242.24362635612488	pulse	1	t		52.0	2.5	/experiments/knapen_AOT/AOT_stimuli/rescaled_final/1956_fw.mp4	0.0	260.81218004226685	
54	243.16138458251953	fix_post	2		12	52.0	2.5	/experiments/knapen_AOT/AOT_stimuli/rescaled_final/1956_fw.mp4	0.0	261.7299382686615	0.10000944137573242
55	243.26139402389526	fix_pre	0		120	53.0	2.5	/experiments/knapen_AOT/AOT_stimuli/rescaled_final/1173_rv.mp4	0.0	261.82994771003723	1.0085203647613525
55	243.8450207710266	pulse	0	t		53.0	2.5	/experiments/knapen_AOT/AOT_stimuli/rescaled_final/1173_rv.mp4	0.0	262.4135744571686	
55	244.26991438865662	movie	1		283	53.0	2.5	/experiments/knapen_AOT/AOT_stimuli/rescaled_final/1173_rv.mp4	0.0	262.8384680747986	2.4920568466186523
55	245.44378399848938	pulse	1	t		53.0	2.5	/experiments/knapen_AOT/AOT_stimuli/rescaled_final/1173_rv.mp4	0.0	264.01233768463135	
55	246.76197123527527	fix_post	2		12	53.0	2.5	/experiments/knapen_AOT/AOT_stimuli/rescaled_final/1173_rv.mp4	0.0	265.33052492141724	0.10000467300415039
56	246.86197590827942	fix_pre	0		120	54.0	2.5	/experiments/knapen_AOT/AOT_stimuli/rescaled_final/0759_fw.mp4	0.0	265.4305295944214	1.0084547996520996
56	247.039155960083	pulse	0	t		54.0	2.5	/experiments/knapen_AOT/AOT_stimuli/rescaled_final/0759_fw.mp4	0.0	265.607709646225	
56	247.87043070793152	movie	1		281	54.0	2.5	/experiments/knapen_AOT/AOT_stimuli/rescaled_final/0759_fw.mp4	0.0	266.4389843940735	2.4920177459716797
56	248.64398574829102	pulse	1	t		54.0	2.5	/experiments/knapen_AOT/AOT_stimuli/rescaled_final/0759_fw.mp4	0.0	267.212539434433	
56	250.24407124519348	pulse	1	t		54.0	2.5	/experiments/knapen_AOT/AOT_stimuli/rescaled_final/0759_fw.mp4	0.0	268.81262493133545	
56	250.3624484539032	fix_post	2		12	54.0	2.5	/experiments/knapen_AOT/AOT_stimuli/rescaled_final/0759_fw.mp4	0.0	268.93100214004517	0.10002517700195312
57	250.46247363090515	fix_pre	0		120	55.0	2.5	blank	1.0	269.0310273170471	1.0001654624938965
57	251.46263909339905	movie	1		300	55.0	2.5	blank	1.0	270.031192779541	2.5003573894500732
57	251.84622836112976	pulse	1	t		55.0	2.5	blank	1.0	270.41478204727173	
57	253.4386749267578	pulse	1	t		55.0	2.5	blank	1.0	272.0072286128998	
57	253.96299648284912	fix_post	2		12	55.0	2.5	blank	1.0	272.5315501689911	0.10012388229370117
58	254.06312036514282	fix_pre	0		118	56.0	2.5	/experiments/knapen_AOT/AOT_stimuli/rescaled_final/1173_fw.mp4	0.0	272.6316740512848	0.991732120513916
58	255.03872394561768	pulse	0	t		56.0	2.5	/experiments/knapen_AOT/AOT_stimuli/rescaled_final/1173_fw.mp4	0.0	273.60727763175964	
58	255.05485248565674	movie	1		286	56.0	2.5	/experiments/knapen_AOT/AOT_stimuli/rescaled_final/1173_fw.mp4	0.0	273.6234061717987	2.5005147457122803
58	256.6389904022217	pulse	1	t		56.0	2.5	/experiments/knapen_AOT/AOT_stimuli/rescaled_final/1173_fw.mp4	0.0	275.20754408836365	
58	257.555367231369	fix_post	2		12	56.0	2.5	/experiments/knapen_AOT/AOT_stimuli/rescaled_final/1173_fw.mp4	0.0	276.123920917511	0.10000085830688477
59	257.6553680896759	fix_pre	0		120	57.0	2.5	/experiments/knapen_AOT/AOT_stimuli/rescaled_final/1784_rv.mp4	0.0	276.22392177581787	1.0083351135253906
59	258.2390675544739	pulse	0	t		57.0	2.5	/experiments/knapen_AOT/AOT_stimuli/rescaled_final/1784_rv.mp4	0.0	276.80762124061584	
59	258.6637032032013	movie	1		290	57.0	2.5	/experiments/knapen_AOT/AOT_stimuli/rescaled_final/1784_rv.mp4	0.0	277.23225688934326	2.492030382156372
59	259.8390893936157	pulse	1	t		57.0	2.5	/experiments/knapen_AOT/AOT_stimuli/rescaled_final/1784_rv.mp4	0.0	278.4076430797577	
59	261.15573358535767	fix_post	2		12	57.0	2.5	/experiments/knapen_AOT/AOT_stimuli/rescaled_final/1784_rv.mp4	0.0	279.72428727149963	0.10004377365112305
60	261.2557773590088	fix_pre	0		120	58.0	2.5	/experiments/knapen_AOT/AOT_stimuli/rescaled_final/1618_rv.mp4	0.0	279.82433104515076	1.0086383819580078
60	261.43937706947327	pulse	0	t		58.0	2.5	/experiments/knapen_AOT/AOT_stimuli/rescaled_final/1618_rv.mp4	0.0	280.00793075561523	
60	262.2644157409668	movie	1		284	58.0	2.5	/experiments/knapen_AOT/AOT_stimuli/rescaled_final/1618_rv.mp4	0.0	280.83296942710876	2.4918837547302246
60	263.0398988723755	pulse	1	t		58.0	2.5	/experiments/knapen_AOT/AOT_stimuli/rescaled_final/1618_rv.mp4	0.0	281.60845255851746	
60	264.6398046016693	pulse	1	t		58.0	2.5	/experiments/knapen_AOT/AOT_stimuli/rescaled_final/1618_rv.mp4	0.0	283.2083582878113	
60	264.756299495697	fix_post	2		12	58.0	2.5	/experiments/knapen_AOT/AOT_stimuli/rescaled_final/1618_rv.mp4	0.0	283.324853181839	0.09998726844787598
61	264.8562867641449	fix_pre	0		120	59.0	2.5	/experiments/knapen_AOT/AOT_stimuli/rescaled_final/0835_fw.mp4	0.0	283.42484045028687	1.0086145401000977
61	265.864901304245	movie	1		288	59.0	2.5	/experiments/knapen_AOT/AOT_stimuli/rescaled_final/0835_fw.mp4	0.0	284.43345499038696	2.4919087886810303
61	266.23913168907166	pulse	1	t		59.0	2.5	/experiments/knapen_AOT/AOT_stimuli/rescaled_final/0835_fw.mp4	0.0	284.8076853752136	
61	267.8402490615845	pulse	1	t		59.0	2.5	/experiments/knapen_AOT/AOT_stimuli/rescaled_final/0835_fw.mp4	0.0	286.40880274772644	
61	268.356810092926	fix_post	2		12	59.0	2.5	/experiments/knapen_AOT/AOT_stimuli/rescaled_final/0835_fw.mp4	0.0	286.925363779068	0.1000204086303711
62	268.4568305015564	fix_pre	0		119	60.0	2.5	/experiments/knapen_AOT/AOT_stimuli/rescaled_final/0646_rv.mp4	0.0	287.02538418769836	1.0001652240753174
62	269.4405517578125	pulse	0	t		60.0	2.5	/experiments/knapen_AOT/AOT_stimuli/rescaled_final/0646_rv.mp4	0.0	288.00910544395447	
62	269.4569957256317	movie	1		278	60.0	2.5	/experiments/knapen_AOT/AOT_stimuli/rescaled_final/0646_rv.mp4	0.0	288.0255494117737	2.500359535217285
62	271.0407190322876	pulse	1	t		60.0	2.5	/experiments/knapen_AOT/AOT_stimuli/rescaled_final/0646_rv.mp4	0.0	289.60927271842957	
62	271.957355260849	fix_post	2		12	60.0	2.5	/experiments/knapen_AOT/AOT_stimuli/rescaled_final/0646_rv.mp4	0.0	290.52590894699097	0.10003852844238281
63	272.0573937892914	fix_pre	0		120	61.0	2.5	blank	1.0	290.62594747543335	1.000147819519043
63	272.64103960990906	pulse	0	t		61.0	2.5	blank	1.0	291.209593296051	
63	273.0575416088104	movie	1		300	61.0	2.5	blank	1.0	291.6260952949524	2.5004234313964844
63	274.241397857666	pulse	1	t		61.0	2.5	blank	1.0	292.809951543808	
63	275.5579650402069	fix_post	2		12	61.0	2.5	blank	1.0	294.1265187263489	0.09995841979980469
64	275.6579234600067	fix_pre	0		120	62.0	2.5	/experiments/knapen_AOT/AOT_stimuli/rescaled_final/2090_rv.mp4	0.0	294.2264771461487	1.0085139274597168
64	275.84167885780334	pulse	0	t		62.0	2.5	/experiments/knapen_AOT/AOT_stimuli/rescaled_final/2090_rv.mp4	0.0	294.4102325439453	
64	276.66643738746643	movie	1		285	62.0	2.5	/experiments/knapen_AOT/AOT_stimuli/rescaled_final/2090_rv.mp4	0.0	295.2349910736084	2.4919991493225098
64	277.4398126602173	pulse	1	t		62.0	2.5	/experiments/knapen_AOT/AOT_stimuli/rescaled_final/2090_rv.mp4	0.0	296.00836634635925	
64	279.0400290489197	pulse	1	t		62.0	2.5	/experiments/knapen_AOT/AOT_stimuli/rescaled_final/2090_rv.mp4	0.0	297.60858273506165	
64	279.15843653678894	fix_post	2		12	62.0	2.5	/experiments/knapen_AOT/AOT_stimuli/rescaled_final/2090_rv.mp4	0.0	297.7269902229309	0.1000220775604248
65	279.25845861434937	fix_pre	0		120	63.0	2.5	/experiments/knapen_AOT/AOT_stimuli/rescaled_final/1956_rv.mp4	0.0	297.82701230049133	1.0085368156433105
65	280.2669954299927	movie	1		291	63.0	2.5	/experiments/knapen_AOT/AOT_stimuli/rescaled_final/1956_rv.mp4	0.0	298.83554911613464	2.4919955730438232
65	280.64141631126404	pulse	1	t		63.0	2.5	/experiments/knapen_AOT/AOT_stimuli/rescaled_final/1956_rv.mp4	0.0	299.209969997406	
65	282.2404658794403	pulse	1	t		63.0	2.5	/experiments/knapen_AOT/AOT_stimuli/rescaled_final/1956_rv.mp4	0.0	300.8090195655823	
65	282.7589910030365	fix_post	2		12	63.0	2.5	/experiments/knapen_AOT/AOT_stimuli/rescaled_final/1956_rv.mp4	0.0	301.32754468917847	0.10003399848937988
66	282.8590250015259	fix_pre	0		119	64.0	2.5	/experiments/knapen_AOT/AOT_stimuli/rescaled_final/1689_rv.mp4	0.0	301.42757868766785	1.0001623630523682
66	283.8426971435547	pulse	0	t		64.0	2.5	/experiments/knapen_AOT/AOT_stimuli/rescaled_final/1689_rv.mp4	0.0	302.41125082969666	
66	283.85918736457825	movie	1		281	64.0	2.5	/experiments/knapen_AOT/AOT_stimuli/rescaled_final/1689_rv.mp4	0.0	302.4277410507202	2.5003416538238525
66	285.4420647621155	pulse	1	t		64.0	2.5	/experiments/knapen_AOT/AOT_stimuli/rescaled_final/1689_rv.mp4	0.0	304.01061844825745	
66	286.3595290184021	fix_post	2		12	64.0	2.5	/experiments/knapen_AOT/AOT_stimuli/rescaled_final/1689_rv.mp4	0.0	304.92808270454407	0.10003185272216797
67	286.45956087112427	fix_pre	0		120	65.0	2.5	/experiments/knapen_AOT/AOT_stimuli/rescaled_final/0024_rv.mp4	0.0	305.02811455726624	1.008479118347168
67	287.0431544780731	pulse	0	t		65.0	2.5	/experiments/knapen_AOT/AOT_stimuli/rescaled_final/0024_rv.mp4	0.0	305.6117081642151	
67	287.46803998947144	movie	1		284	65.0	2.5	/experiments/knapen_AOT/AOT_stimuli/rescaled_final/0024_rv.mp4	0.0	306.0365936756134	2.4920172691345215
67	288.6417820453644	pulse	1	t		65.0	2.5	/experiments/knapen_AOT/AOT_stimuli/rescaled_final/0024_rv.mp4	0.0	307.21033573150635	
67	289.96005725860596	fix_post	2		12	65.0	2.5	/experiments/knapen_AOT/AOT_stimuli/rescaled_final/0024_rv.mp4	0.0	308.5286109447479	0.10007667541503906
68	290.060133934021	fix_pre	0		120	66.0	2.5	/experiments/knapen_AOT/AOT_stimuli/rescaled_final/1129_fw.mp4	0.0	308.62868762016296	1.0084502696990967
68	290.2437148094177	pulse	0	t		66.0	2.5	/experiments/knapen_AOT/AOT_stimuli/rescaled_final/1129_fw.mp4	0.0	308.8122684955597	
68	291.0685842037201	movie	1		281	66.0	2.5	/experiments/knapen_AOT/AOT_stimuli/rescaled_final/1129_fw.mp4	0.0	309.63713788986206	2.492173194885254
68	291.84254121780396	pulse	1	t		66.0	2.5	/experiments/knapen_AOT/AOT_stimuli/rescaled_final/1129_fw.mp4	0.0	310.4110949039459	
68	293.4425392150879	pulse	1	t		66.0	2.5	/experiments/knapen_AOT/AOT_stimuli/rescaled_final/1129_fw.mp4	0.0	312.01109290122986	
68	293.56075739860535	fix_post	2		12	66.0	2.5	/experiments/knapen_AOT/AOT_stimuli/rescaled_final/1129_fw.mp4	0.0	312.1293110847473	0.0999135971069336
69	293.6606709957123	fix_pre	0		120	67.0	2.5	/experiments/knapen_AOT/AOT_stimuli/rescaled_final/1047_fw.mp4	0.0	312.22922468185425	1.0084571838378906
69	294.66912817955017	movie	1		277	67.0	2.5	/experiments/knapen_AOT/AOT_stimuli/rescaled_final/1047_fw.mp4	0.0	313.23768186569214	2.4920172691345215
69	295.04252409935	pulse	1	t		67.0	2.5	/experiments/knapen_AOT/AOT_stimuli/rescaled_final/1047_fw.mp4	0.0	313.61107778549194	
69	296.6423897743225	pulse	1	t		67.0	2.5	/experiments/knapen_AOT/AOT_stimuli/rescaled_final/1047_fw.mp4	0.0	315.2109434604645	
69	297.1611454486847	fix_post	2		12	67.0	2.5	/experiments/knapen_AOT/AOT_stimuli/rescaled_final/1047_fw.mp4	0.0	315.72969913482666	0.10003018379211426
70	297.2611756324768	fix_pre	0		119	68.0	2.5	/experiments/knapen_AOT/AOT_stimuli/rescaled_final/1918_rv.mp4	0.0	315.8297293186188	1.0001399517059326
70	298.2448616027832	pulse	0	t		68.0	2.5	/experiments/knapen_AOT/AOT_stimuli/rescaled_final/1918_rv.mp4	0.0	316.81341528892517	
70	298.26131558418274	movie	1		294	68.0	2.5	/experiments/knapen_AOT/AOT_stimuli/rescaled_final/1918_rv.mp4	0.0	316.8298692703247	2.500457525253296
70	299.843523979187	pulse	1	t		68.0	2.5	/experiments/knapen_AOT/AOT_stimuli/rescaled_final/1918_rv.mp4	0.0	318.412077665329	
70	300.76177310943604	fix_post	2		12	68.0	2.5	/experiments/knapen_AOT/AOT_stimuli/rescaled_final/1918_rv.mp4	0.0	319.330326795578	0.0999908447265625
71	300.8617639541626	fix_pre	0		120	69.0	2.5	blank	1.0	319.43031764030457	1.0000953674316406
71	301.44532656669617	pulse	0	t		69.0	2.5	blank	1.0	320.01388025283813	
71	301.86185932159424	movie	1		300	69.0	2.5	blank	1.0	320.4304130077362	2.500368595123291
71	303.04582810401917	pulse	1	t		69.0	2.5	blank	1.0	321.61438179016113	
71	304.36222791671753	fix_post	2		12	69.0	2.5	blank	1.0	322.9307816028595	0.10001635551452637
72	304.46224427223206	fix_pre	0		120	70.0	2.5	/experiments/knapen_AOT/AOT_stimuli/rescaled_final/1173_fw.mp4	0.0	323.030797958374	1.0085101127624512
72	304.6458764076233	pulse	0	t		70.0	2.5	/experiments/knapen_AOT/AOT_stimuli/rescaled_final/1173_fw.mp4	0.0	323.21443009376526	
72	305.4707543849945	movie	1		275	70.0	2.5	/experiments/knapen_AOT/AOT_stimuli/rescaled_final/1173_fw.mp4	0.0	324.0393080711365	2.492215394973755
72	306.2461242675781	pulse	1	t		70.0	2.5	/experiments/knapen_AOT/AOT_stimuli/rescaled_final/1173_fw.mp4	0.0	324.8146779537201	
72	307.8440411090851	pulse	1	t		70.0	2.5	/experiments/knapen_AOT/AOT_stimuli/rescaled_final/1173_fw.mp4	0.0	326.41259479522705	
72	307.96296977996826	fix_post	2		12	70.0	2.5	/experiments/knapen_AOT/AOT_stimuli/rescaled_final/1173_fw.mp4	0.0	326.53152346611023	0.09983301162719727
73	308.06280279159546	fix_pre	0		120	71.0	2.5	/experiments/knapen_AOT/AOT_stimuli/rescaled_final/0825_fw.mp4	0.0	326.6313564777374	1.008467674255371
73	309.07127046585083	movie	1		286	71.0	2.5	/experiments/knapen_AOT/AOT_stimuli/rescaled_final/0825_fw.mp4	0.0	327.6398241519928	2.4920380115509033
73	309.4383637905121	pulse	1	t		71.0	2.5	/experiments/knapen_AOT/AOT_stimuli/rescaled_final/0825_fw.mp4	0.0	328.00691747665405	
73	311.03849029541016	pulse	1	t		71.0	2.5	/experiments/knapen_AOT/AOT_stimuli/rescaled_final/0825_fw.mp4	0.0	329.6070439815521	
73	311.56330847740173	fix_post	2		12	71.0	2.5	/experiments/knapen_AOT/AOT_stimuli/rescaled_final/0825_fw.mp4	0.0	330.1318621635437	0.10002017021179199
74	311.6633286476135	fix_pre	0		118	72.0	2.5	/experiments/knapen_AOT/AOT_stimuli/rescaled_final/0324_rv.mp4	0.0	330.2318823337555	0.9918138980865479
74	312.63870453834534	pulse	0	t		72.0	2.5	/experiments/knapen_AOT/AOT_stimuli/rescaled_final/0324_rv.mp4	0.0	331.2072582244873	
74	312.6551425457001	movie	1		292	72.0	2.5	/experiments/knapen_AOT/AOT_stimuli/rescaled_final/0324_rv.mp4	0.0	331.22369623184204	2.5003647804260254
74	314.2389802932739	pulse	1	t		72.0	2.5	/experiments/knapen_AOT/AOT_stimuli/rescaled_final/0324_rv.mp4	0.0	332.8075339794159	
74	315.1555073261261	fix_post	2		12	72.0	2.5	/experiments/knapen_AOT/AOT_stimuli/rescaled_final/0324_rv.mp4	0.0	333.72406101226807	0.10003352165222168
75	315.2555408477783	fix_pre	0		120	73.0	2.5	/experiments/knapen_AOT/AOT_stimuli/rescaled_final/1181_rv.mp4	0.0	333.8240945339203	1.0084824562072754
75	315.83923721313477	pulse	0	t		73.0	2.5	/experiments/knapen_AOT/AOT_stimuli/rescaled_final/1181_rv.mp4	0.0	334.40779089927673	
75	316.2640233039856	movie	1		284	73.0	2.5	/experiments/knapen_AOT/AOT_stimuli/rescaled_final/1181_rv.mp4	0.0	334.83257699012756	2.4920217990875244
75	317.4381597042084	pulse	1	t		73.0	2.5	/experiments/knapen_AOT/AOT_stimuli/rescaled_final/1181_rv.mp4	0.0	336.00671339035034	
75	318.7560451030731	fix_post	2		12	73.0	2.5	/experiments/knapen_AOT/AOT_stimuli/rescaled_final/1181_rv.mp4	0.0	337.3245987892151	0.10000085830688477
76	318.85604596138	fix_pre	0		120	74.0	2.5	/experiments/knapen_AOT/AOT_stimuli/rescaled_final/1659_fw.mp4	0.0	337.424599647522	1.0085501670837402
76	319.0396740436554	pulse	0	t		74.0	2.5	/experiments/knapen_AOT/AOT_stimuli/rescaled_final/1659_fw.mp4	0.0	337.60822772979736	
76	319.86459612846375	movie	1		276	74.0	2.5	/experiments/knapen_AOT/AOT_stimuli/rescaled_final/1659_fw.mp4	0.0	338.4331498146057	2.4920029640197754
76	320.63992261886597	pulse	1	t		74.0	2.5	/experiments/knapen_AOT/AOT_stimuli/rescaled_final/1659_fw.mp4	0.0	339.20847630500793	
76	322.2403290271759	pulse	1	t		74.0	2.5	/experiments/knapen_AOT/AOT_stimuli/rescaled_final/1659_fw.mp4	0.0	340.80888271331787	
76	322.3565990924835	fix_post	2		12	74.0	2.5	/experiments/knapen_AOT/AOT_stimuli/rescaled_final/1659_fw.mp4	0.0	340.9251527786255	0.10001659393310547
77	322.4566156864166	fix_pre	0		120	75.0	2.5	/experiments/knapen_AOT/AOT_stimuli/rescaled_final/2090_fw.mp4	0.0	341.0251693725586	1.008495569229126
77	323.46511125564575	movie	1		275	75.0	2.5	/experiments/knapen_AOT/AOT_stimuli/rescaled_final/2090_fw.mp4	0.0	342.0336649417877	2.492189884185791
77	323.83871054649353	pulse	1	t		75.0	2.5	/experiments/knapen_AOT/AOT_stimuli/rescaled_final/2090_fw.mp4	0.0	342.4072642326355	
77	325.43907284736633	pulse	1	t		75.0	2.5	/experiments/knapen_AOT/AOT_stimuli/rescaled_final/2090_fw.mp4	0.0	344.0076265335083	
77	325.95730113983154	fix_post	2		12	75.0	2.5	/experiments/knapen_AOT/AOT_stimuli/rescaled_final/2090_fw.mp4	0.0	344.5258548259735	0.09984087944030762
78	326.05714201927185	fix_pre	0		119	76.0	2.5	blank	1.0	344.6256957054138	0.9918639659881592
78	327.0409188270569	pulse	0	t		76.0	2.5	blank	1.0	345.60947251319885	
78	327.04900598526	movie	1		301	76.0	2.5	blank	1.0	345.617559671402	2.5086734294891357
78	328.64116287231445	pulse	1	t		76.0	2.5	blank	1.0	347.2097165584564	
78	329.55767941474915	fix_post	2		12	76.0	2.5	blank	1.0	348.1262331008911	0.1000056266784668
79	329.6576850414276	fix_pre	0		120	77.0	2.5	/experiments/knapen_AOT/AOT_stimuli/rescaled_final/0459_rv.mp4	0.0	348.2262387275696	1.0085546970367432
79	330.2413287162781	pulse	0	t		77.0	2.5	/experiments/knapen_AOT/AOT_stimuli/rescaled_final/0459_rv.mp4	0.0	348.80988240242004	
79	330.66623973846436	movie	1		276	77.0	2.5	/experiments/knapen_AOT/AOT_stimuli/rescaled_final/0459_rv.mp4	0.0	349.2347934246063	2.491964340209961
79	331.8401389122009	pulse	1	t		77.0	2.5	/experiments/knapen_AOT/AOT_stimuli/rescaled_final/0459_rv.mp4	0.0	350.4086925983429	
79	333.1582040786743	fix_post	2		12	77.0	2.5	/experiments/knapen_AOT/AOT_stimuli/rescaled_final/0459_rv.mp4	0.0	351.7267577648163	0.10001921653747559
80	333.2582232952118	fix_pre	0		120	78.0	2.5	/experiments/knapen_AOT/AOT_stimuli/rescaled_final/1149_fw.mp4	0.0	351.82677698135376	1.0085065364837646
80	333.44182085990906	pulse	0	t		78.0	2.5	/experiments/knapen_AOT/AOT_stimuli/rescaled_final/1149_fw.mp4	0.0	352.010374546051	
80	334.26672983169556	movie	1		283	78.0	2.5	/experiments/knapen_AOT/AOT_stimuli/rescaled_final/1149_fw.mp4	0.0	352.8352835178375	2.4920167922973633
80	335.04026794433594	pulse	1	t		78.0	2.5	/experiments/knapen_AOT/AOT_stimuli/rescaled_final/1149_fw.mp4	0.0	353.6088216304779	
80	336.6401789188385	pulse	1	t		78.0	2.5	/experiments/knapen_AOT/AOT_stimuli/rescaled_final/1149_fw.mp4	0.0	355.20873260498047	
80	336.7587466239929	fix_post	2		12	78.0	2.5	/experiments/knapen_AOT/AOT_stimuli/rescaled_final/1149_fw.mp4	0.0	355.3273003101349	0.10013222694396973
81	336.8588788509369	fix_pre	0		120	79.0	2.5	/experiments/knapen_AOT/AOT_stimuli/rescaled_final/2090_fw.mp4	0.0	355.42743253707886	1.0084242820739746
81	337.86730313301086	movie	1		280	79.0	2.5	/experiments/knapen_AOT/AOT_stimuli/rescaled_final/2090_fw.mp4	0.0	356.43585681915283	2.491992712020874
81	338.2413046360016	pulse	1	t		79.0	2.5	/experiments/knapen_AOT/AOT_stimuli/rescaled_final/2090_fw.mp4	0.0	356.80985832214355	
81	339.8410818576813	pulse	1	t		79.0	2.5	/experiments/knapen_AOT/AOT_stimuli/rescaled_final/2090_fw.mp4	0.0	358.40963554382324	
81	340.35929584503174	fix_post	2		12	79.0	2.5	/experiments/knapen_AOT/AOT_stimuli/rescaled_final/2090_fw.mp4	0.0	358.9278495311737	0.10012292861938477
82	340.4594187736511	fix_pre	0		119	80.0	2.5	/experiments/knapen_AOT/AOT_stimuli/rescaled_final/1659_rv.mp4	0.0	359.0279724597931	1.0000879764556885
82	341.4430556297302	pulse	0	t		80.0	2.5	/experiments/knapen_AOT/AOT_stimuli/rescaled_final/1659_rv.mp4	0.0	360.0116093158722	
82	341.4595067501068	movie	1		277	80.0	2.5	/experiments/knapen_AOT/AOT_stimuli/rescaled_final/1659_rv.mp4	0.0	360.0280604362488	2.5003480911254883
82	343.04162549972534	pulse	1	t		80.0	2.5	/experiments/knapen_AOT/AOT_stimuli/rescaled_final/1659_rv.mp4	0.0	361.6101791858673	
82	343.9598548412323	fix_post	2		12	80.0	2.5	/experiments/knapen_AOT/AOT_stimuli/rescaled_final/1659_rv.mp4	0.0	362.52840852737427	0.10009050369262695
83	344.0599453449249	fix_pre	0		120	81.0	2.5	/experiments/knapen_AOT/AOT_stimuli/rescaled_final/1894_fw.mp4	0.0	362.6284990310669	1.008488416671753
83	344.6435010433197	pulse	0	t		81.0	2.5	/experiments/knapen_AOT/AOT_stimuli/rescaled_final/1894_fw.mp4	0.0	363.21205472946167	
83	345.0684337615967	movie	1		269	81.0	2.5	/experiments/knapen_AOT/AOT_stimuli/rescaled_final/1894_fw.mp4	0.0	363.63698744773865	2.491952896118164
83	346.2422046661377	pulse	1	t		81.0	2.5	/experiments/knapen_AOT/AOT_stimuli/rescaled_final/1894_fw.mp4	0.0	364.81075835227966	
83	347.56038665771484	fix_post	2		12	81.0	2.5	/experiments/knapen_AOT/AOT_stimuli/rescaled_final/1894_fw.mp4	0.0	366.1289403438568	0.10004615783691406
84	347.66043281555176	fix_pre	0		120	82.0	2.5	/experiments/knapen_AOT/AOT_stimuli/rescaled_final/1157_fw.mp4	0.0	366.2289865016937	1.0084571838378906
84	347.8439531326294	pulse	0	t		82.0	2.5	/experiments/knapen_AOT/AOT_stimuli/rescaled_final/1157_fw.mp4	0.0	366.41250681877136	
84	348.66888999938965	movie	1		276	82.0	2.5	/experiments/knapen_AOT/AOT_stimuli/rescaled_final/1157_fw.mp4	0.0	367.2374436855316	2.49204683303833
84	349.4434962272644	pulse	1	t		82.0	2.5	/experiments/knapen_AOT/AOT_stimuli/rescaled_final/1157_fw.mp4	0.0	368.0120499134064	
84	351.04273200035095	pulse	1	t		82.0	2.5	/experiments/knapen_AOT/AOT_stimuli/rescaled_final/1157_fw.mp4	0.0	369.6112856864929	
84	351.160936832428	fix_post	2		12	82.0	2.5	/experiments/knapen_AOT/AOT_stimuli/rescaled_final/1157_fw.mp4	0.0	369.72949051856995	0.10001301765441895
85	351.2609498500824	fix_pre	0		120	83.0	2.5	blank	1.0	369.82950353622437	1.0001420974731445
85	352.26109194755554	movie	1		300	83.0	2.5	blank	1.0	370.8296456336975	2.500352621078491
85	352.6447205543518	pulse	1	t		83.0	2.5	blank	1.0	371.2132742404938	
85	354.24505853652954	pulse	1	t		83.0	2.5	blank	1.0	372.8136122226715	
85	354.76144456863403	fix_post	2		12	83.0	2.5	blank	1.0	373.329998254776	0.10848498344421387
87	354.86992955207825	stim	0		1714					373.4384832382202	14.285362482070923
87	355.845383644104	pulse	0	t						374.413937330246	
87	357.44584250450134	pulse	0	t						376.0143961906433	
87	359.0460801124573	pulse	0	t						377.61463379859924	
87	360.63886880874634	pulse	0	t						379.2074224948883	
87	362.2384920120239	pulse	0	t						380.8070456981659	
87	363.8388452529907	pulse	0	t						382.4073989391327	
87	365.43855714797974	pulse	0	t						384.0071108341217	
87	367.03901863098145	pulse	0	t						385.6075723171234	
87	368.6391022205353	pulse	0	t						387.20765590667725	
