trial_nr	onset	event_type	phase	response	nr_frames	movie_index	movie_duration	movie_file	blank	onset_abs	duration
0	0.16653084754943848	stim	0		27					14.32040524482727	0.22493767738342285
0	0.38338255882263184	response	0	space						14.537256956100464	
1	0.39146852493286133	stim	0		3952					14.545342922210693	32.9481520652771
1	33.32964324951172	pulse	0	t						47.48351764678955	
1	33.33962059020996	stim	1		1716					47.49349498748779	14.300623416900635
1	34.92182230949402	pulse	1	t						49.07569670677185	
1	36.52199149131775	pulse	1	t						50.67586588859558	
1	38.122276067733765	pulse	1	t						52.2761504650116	
1	39.7144992351532	pulse	1	t						53.86837363243103	
1	41.314422845840454	pulse	1	t						55.468297243118286	
1	42.91461491584778	pulse	1	t						57.06848931312561	
1	44.51490116119385	pulse	1	t						58.66877555847168	
1	46.11513876914978	pulse	1	t						60.26901316642761	
2	47.640244007110596	fix_pre	0		10	0.0	2.5	/experiments/Knapen_AOT/AOT_stimuli/rescaled_final/0121_fw.mp4	0.0	61.79411840438843	0.09171104431152344
2	47.715354919433594	pulse	0	t		0.0	2.5	/experiments/Knapen_AOT/AOT_stimuli/rescaled_final/0121_fw.mp4	0.0	61.869229316711426	
2	47.73195505142212	movie	1		300	0.0	2.5	/experiments/Knapen_AOT/AOT_stimuli/rescaled_final/0121_fw.mp4	0.0	61.88582944869995	2.500345468521118
2	49.315683126449585	pulse	1	t		0.0	2.5	/experiments/Knapen_AOT/AOT_stimuli/rescaled_final/0121_fw.mp4	0.0	63.46955752372742	
2	50.23230051994324	fix_post	2		12	0.0	2.5	/experiments/Knapen_AOT/AOT_stimuli/rescaled_final/0121_fw.mp4	0.0	64.38617491722107	0.10001564025878906
3	50.332316160202026	fix_pre	0		120	1.0	2.5	/experiments/Knapen_AOT/AOT_stimuli/rescaled_final/0313_fw.mp4	0.0	64.48619055747986	1.0001301765441895
3	50.915860414505005	pulse	0	t		1.0	2.5	/experiments/Knapen_AOT/AOT_stimuli/rescaled_final/0313_fw.mp4	0.0	65.06973481178284	
3	51.332446336746216	movie	1		300	1.0	2.5	/experiments/Knapen_AOT/AOT_stimuli/rescaled_final/0313_fw.mp4	0.0	65.48632073402405	2.5003786087036133
3	52.51611876487732	pulse	1	t		1.0	2.5	/experiments/Knapen_AOT/AOT_stimuli/rescaled_final/0313_fw.mp4	0.0	66.66999316215515	
3	53.83282494544983	fix_post	2		12	1.0	2.5	/experiments/Knapen_AOT/AOT_stimuli/rescaled_final/0313_fw.mp4	0.0	67.98669934272766	0.10001564025878906
4	53.93284058570862	fix_pre	0		120	2.0	2.5	/experiments/Knapen_AOT/AOT_stimuli/rescaled_final/0929_rv.mp4	0.0	68.08671498298645	1.0001482963562012
4	54.11630916595459	pulse	0	t		2.0	2.5	/experiments/Knapen_AOT/AOT_stimuli/rescaled_final/0929_rv.mp4	0.0	68.27018356323242	
4	54.93298888206482	movie	1		300	2.0	2.5	/experiments/Knapen_AOT/AOT_stimuli/rescaled_final/0929_rv.mp4	0.0	69.08686327934265	2.5003750324249268
4	55.716588258743286	pulse	1	t		2.0	2.5	/experiments/Knapen_AOT/AOT_stimuli/rescaled_final/0929_rv.mp4	0.0	69.87046265602112	
4	57.316861391067505	pulse	1	t		2.0	2.5	/experiments/Knapen_AOT/AOT_stimuli/rescaled_final/0929_rv.mp4	0.0	71.47073578834534	
4	57.433363914489746	fix_post	2		12	2.0	2.5	/experiments/Knapen_AOT/AOT_stimuli/rescaled_final/0929_rv.mp4	0.0	71.58723831176758	0.10000467300415039
5	57.5333685874939	fix_pre	0		119	3.0	2.5	/experiments/Knapen_AOT/AOT_stimuli/rescaled_final/1323_rv.mp4	0.0	71.68724298477173	0.991844654083252
5	58.52521324157715	movie	1		300	3.0	2.5	/experiments/Knapen_AOT/AOT_stimuli/rescaled_final/1323_rv.mp4	0.0	72.67908763885498	2.5003764629364014
5	58.91709566116333	pulse	1	t		3.0	2.5	/experiments/Knapen_AOT/AOT_stimuli/rescaled_final/1323_rv.mp4	0.0	73.07097005844116	
5	60.51729917526245	pulse	1	t		3.0	2.5	/experiments/Knapen_AOT/AOT_stimuli/rescaled_final/1323_rv.mp4	0.0	74.67117357254028	
5	61.02558970451355	fix_post	2		12	3.0	2.5	/experiments/Knapen_AOT/AOT_stimuli/rescaled_final/1323_rv.mp4	0.0	75.17946410179138	0.1000068187713623
6	61.12559652328491	fix_pre	0		120	4.0	2.5	/experiments/Knapen_AOT/AOT_stimuli/rescaled_final/0119_rv.mp4	0.0	75.27947092056274	1.0004651546478271
6	62.117531299591064	pulse	0	t		4.0	2.5	/experiments/Knapen_AOT/AOT_stimuli/rescaled_final/0119_rv.mp4	0.0	76.2714056968689	
6	62.12606167793274	movie	1		301	4.0	2.5	/experiments/Knapen_AOT/AOT_stimuli/rescaled_final/0119_rv.mp4	0.0	76.27993607521057	2.5083913803100586
6	63.717869997024536	pulse	1	t		4.0	2.5	/experiments/Knapen_AOT/AOT_stimuli/rescaled_final/0119_rv.mp4	0.0	77.87174439430237	
6	64.6344530582428	fix_post	2		12	4.0	2.5	/experiments/Knapen_AOT/AOT_stimuli/rescaled_final/0119_rv.mp4	0.0	78.78832745552063	0.10001397132873535
7	64.73446702957153	fix_pre	0		120	5.0	2.5	/experiments/Knapen_AOT/AOT_stimuli/rescaled_final/0391_rv.mp4	0.0	78.88834142684937	1.0001568794250488
7	65.3180022239685	pulse	0	t		5.0	2.5	/experiments/Knapen_AOT/AOT_stimuli/rescaled_final/0391_rv.mp4	0.0	79.47187662124634	
7	65.73462390899658	movie	1		299	5.0	2.5	/experiments/Knapen_AOT/AOT_stimuli/rescaled_final/0391_rv.mp4	0.0	79.88849830627441	2.5003654956817627
7	66.91829419136047	pulse	1	t		5.0	2.5	/experiments/Knapen_AOT/AOT_stimuli/rescaled_final/0391_rv.mp4	0.0	81.0721685886383	
7	68.23498940467834	fix_post	2		12	5.0	2.5	/experiments/Knapen_AOT/AOT_stimuli/rescaled_final/0391_rv.mp4	0.0	82.38886380195618	0.10010004043579102
8	68.33508944511414	fix_pre	0		120	6.0	2.5	blank	1.0	82.48896384239197	1.0000646114349365
8	68.51848793029785	pulse	0	t		6.0	2.5	blank	1.0	82.67236232757568	
8	69.33515405654907	movie	1		300	6.0	2.5	blank	1.0	83.4890284538269	2.5003767013549805
8	70.11874222755432	pulse	1	t		6.0	2.5	blank	1.0	84.27261662483215	
8	71.71895670890808	pulse	1	t		6.0	2.5	blank	1.0	85.87283110618591	
8	71.83553075790405	fix_post	2		12	6.0	2.5	blank	1.0	85.98940515518188	0.1000220775604248
9	71.93555283546448	fix_pre	0		120	7.0	2.5	/experiments/Knapen_AOT/AOT_stimuli/rescaled_final/1021_fw.mp4	0.0	86.08942723274231	1.0003294944763184
9	72.9358823299408	movie	1		299	7.0	2.5	/experiments/Knapen_AOT/AOT_stimuli/rescaled_final/1021_fw.mp4	0.0	87.08975672721863	2.4918737411499023
9	73.31506872177124	pulse	1	t		7.0	2.5	/experiments/Knapen_AOT/AOT_stimuli/rescaled_final/1021_fw.mp4	0.0	87.46894311904907	
9	74.91505789756775	pulse	1	t		7.0	2.5	/experiments/Knapen_AOT/AOT_stimuli/rescaled_final/1021_fw.mp4	0.0	89.06893229484558	
9	75.4277560710907	fix_post	2		12	7.0	2.5	/experiments/Knapen_AOT/AOT_stimuli/rescaled_final/1021_fw.mp4	0.0	89.58163046836853	0.10001325607299805
10	75.5277693271637	fix_pre	0		120	8.0	2.5	/experiments/Knapen_AOT/AOT_stimuli/rescaled_final/0768_fw.mp4	0.0	89.68164372444153	1.0005197525024414
10	76.5197114944458	pulse	0	t		8.0	2.5	/experiments/Knapen_AOT/AOT_stimuli/rescaled_final/0768_fw.mp4	0.0	90.67358589172363	
10	76.52828907966614	movie	1		301	8.0	2.5	/experiments/Knapen_AOT/AOT_stimuli/rescaled_final/0768_fw.mp4	0.0	90.68216347694397	2.508327007293701
10	78.1162314414978	pulse	1	t		8.0	2.5	/experiments/Knapen_AOT/AOT_stimuli/rescaled_final/0768_fw.mp4	0.0	92.27010583877563	
10	79.03661608695984	fix_post	2		12	8.0	2.5	/experiments/Knapen_AOT/AOT_stimuli/rescaled_final/0768_fw.mp4	0.0	93.19049048423767	0.10001730918884277
11	79.13663339614868	fix_pre	0		120	9.0	2.5	/experiments/Knapen_AOT/AOT_stimuli/rescaled_final/0430_fw.mp4	0.0	93.29050779342651	1.0001473426818848
11	79.72016739845276	pulse	0	t		9.0	2.5	/experiments/Knapen_AOT/AOT_stimuli/rescaled_final/0430_fw.mp4	0.0	93.87404179573059	
11	80.13678073883057	movie	1		300	9.0	2.5	/experiments/Knapen_AOT/AOT_stimuli/rescaled_final/0430_fw.mp4	0.0	94.2906551361084	2.5003819465637207
11	81.31621646881104	pulse	1	t		9.0	2.5	/experiments/Knapen_AOT/AOT_stimuli/rescaled_final/0430_fw.mp4	0.0	95.47009086608887	
11	82.63716268539429	fix_post	2		12	9.0	2.5	/experiments/Knapen_AOT/AOT_stimuli/rescaled_final/0430_fw.mp4	0.0	96.79103708267212	0.10002422332763672
12	82.73718690872192	fix_pre	0		120	10.0	2.5	/experiments/Knapen_AOT/AOT_stimuli/rescaled_final/0278_rv.mp4	0.0	96.89106130599976	1.0001459121704102
12	82.9206645488739	pulse	0	t		10.0	2.5	/experiments/Knapen_AOT/AOT_stimuli/rescaled_final/0278_rv.mp4	0.0	97.07453894615173	
12	83.73733282089233	movie	1		299	10.0	2.5	/experiments/Knapen_AOT/AOT_stimuli/rescaled_final/0278_rv.mp4	0.0	97.89120721817017	2.5003623962402344
12	84.516770362854	pulse	1	t		10.0	2.5	/experiments/Knapen_AOT/AOT_stimuli/rescaled_final/0278_rv.mp4	0.0	98.67064476013184	
12	86.11685943603516	pulse	1	t		10.0	2.5	/experiments/Knapen_AOT/AOT_stimuli/rescaled_final/0278_rv.mp4	0.0	100.27073383331299	
12	86.23769521713257	fix_post	2		12	10.0	2.5	/experiments/Knapen_AOT/AOT_stimuli/rescaled_final/0278_rv.mp4	0.0	100.3915696144104	0.10003805160522461
13	86.3377332687378	fix_pre	0		120	11.0	2.5	/experiments/Knapen_AOT/AOT_stimuli/rescaled_final/1865_fw.mp4	0.0	100.49160766601562	1.0001845359802246
13	87.33791780471802	movie	1		299	11.0	2.5	/experiments/Knapen_AOT/AOT_stimuli/rescaled_final/1865_fw.mp4	0.0	101.49179220199585	2.492034673690796
13	87.71744537353516	pulse	1	t		11.0	2.5	/experiments/Knapen_AOT/AOT_stimuli/rescaled_final/1865_fw.mp4	0.0	101.87131977081299	
13	89.3173496723175	pulse	1	t		11.0	2.5	/experiments/Knapen_AOT/AOT_stimuli/rescaled_final/1865_fw.mp4	0.0	103.47122406959534	
13	89.82995247840881	fix_post	2		12	11.0	2.5	/experiments/Knapen_AOT/AOT_stimuli/rescaled_final/1865_fw.mp4	0.0	103.98382687568665	0.09998154640197754
14	89.92993402481079	fix_pre	0		120	12.0	2.5	blank	1.0	104.08380842208862	1.0001695156097412
14	90.92187213897705	pulse	0	t		12.0	2.5	blank	1.0	105.07574653625488	
14	90.93010354042053	movie	1		301	12.0	2.5	blank	1.0	105.08397793769836	2.5086863040924072
14	92.52211308479309	pulse	1	t		12.0	2.5	blank	1.0	106.67598748207092	
14	93.43878984451294	fix_post	2		12	12.0	2.5	blank	1.0	107.59266424179077	0.10002827644348145
15	93.53881812095642	fix_pre	0		120	13.0	2.5	/experiments/Knapen_AOT/AOT_stimuli/rescaled_final/0465_rv.mp4	0.0	107.69269251823425	1.0001485347747803
15	94.12235713005066	pulse	0	t		13.0	2.5	/experiments/Knapen_AOT/AOT_stimuli/rescaled_final/0465_rv.mp4	0.0	108.27623152732849	
15	94.5389666557312	movie	1		300	13.0	2.5	/experiments/Knapen_AOT/AOT_stimuli/rescaled_final/0465_rv.mp4	0.0	108.69284105300903	2.5003559589385986
15	95.71850037574768	pulse	1	t		13.0	2.5	/experiments/Knapen_AOT/AOT_stimuli/rescaled_final/0465_rv.mp4	0.0	109.87237477302551	
15	97.0393226146698	fix_post	2		12	13.0	2.5	/experiments/Knapen_AOT/AOT_stimuli/rescaled_final/0465_rv.mp4	0.0	111.19319701194763	0.10001826286315918
16	97.13934087753296	fix_pre	0		120	14.0	2.5	/experiments/Knapen_AOT/AOT_stimuli/rescaled_final/0740_rv.mp4	0.0	111.29321527481079	1.0001440048217773
16	97.32285809516907	pulse	0	t		14.0	2.5	/experiments/Knapen_AOT/AOT_stimuli/rescaled_final/0740_rv.mp4	0.0	111.4767324924469	
16	98.13948488235474	movie	1		300	14.0	2.5	/experiments/Knapen_AOT/AOT_stimuli/rescaled_final/0740_rv.mp4	0.0	112.29335927963257	2.500392198562622
16	98.91496419906616	pulse	1	t		14.0	2.5	/experiments/Knapen_AOT/AOT_stimuli/rescaled_final/0740_rv.mp4	0.0	113.068838596344	
16	100.51502132415771	pulse	1	t		14.0	2.5	/experiments/Knapen_AOT/AOT_stimuli/rescaled_final/0740_rv.mp4	0.0	114.66889572143555	
16	100.63987708091736	fix_post	2		12	14.0	2.5	/experiments/Knapen_AOT/AOT_stimuli/rescaled_final/0740_rv.mp4	0.0	114.79375147819519	0.10000014305114746
17	100.7398772239685	fix_pre	0		120	15.0	2.5	/experiments/Knapen_AOT/AOT_stimuli/rescaled_final/0155_rv.mp4	0.0	114.89375162124634	1.0001513957977295
17	101.74002861976624	movie	1		299	15.0	2.5	/experiments/Knapen_AOT/AOT_stimuli/rescaled_final/0155_rv.mp4	0.0	115.89390301704407	2.4920451641082764
17	102.11531925201416	pulse	1	t		15.0	2.5	/experiments/Knapen_AOT/AOT_stimuli/rescaled_final/0155_rv.mp4	0.0	116.26919364929199	
17	103.71552848815918	pulse	1	t		15.0	2.5	/experiments/Knapen_AOT/AOT_stimuli/rescaled_final/0155_rv.mp4	0.0	117.86940288543701	
17	104.23207378387451	fix_post	2		12	15.0	2.5	/experiments/Knapen_AOT/AOT_stimuli/rescaled_final/0155_rv.mp4	0.0	118.38594818115234	0.10001778602600098
18	104.33209156990051	fix_pre	0		119	16.0	2.5	/experiments/Knapen_AOT/AOT_stimuli/rescaled_final/1306_rv.mp4	0.0	118.48596596717834	0.9920430183410645
18	105.31568837165833	pulse	0	t		16.0	2.5	/experiments/Knapen_AOT/AOT_stimuli/rescaled_final/1306_rv.mp4	0.0	119.46956276893616	
18	105.32413458824158	movie	1		301	16.0	2.5	/experiments/Knapen_AOT/AOT_stimuli/rescaled_final/1306_rv.mp4	0.0	119.47800898551941	2.508481502532959
18	106.91606211662292	pulse	1	t		16.0	2.5	/experiments/Knapen_AOT/AOT_stimuli/rescaled_final/1306_rv.mp4	0.0	121.06993651390076	
18	107.83261609077454	fix_post	2		12	16.0	2.5	/experiments/Knapen_AOT/AOT_stimuli/rescaled_final/1306_rv.mp4	0.0	121.98649048805237	0.10001516342163086
19	107.93263125419617	fix_pre	0		120	17.0	2.5	/experiments/Knapen_AOT/AOT_stimuli/rescaled_final/1858_fw.mp4	0.0	122.086505651474	1.0001590251922607
19	108.51615858078003	pulse	0	t		17.0	2.5	/experiments/Knapen_AOT/AOT_stimuli/rescaled_final/1858_fw.mp4	0.0	122.67003297805786	
19	108.93279027938843	movie	1		300	17.0	2.5	/experiments/Knapen_AOT/AOT_stimuli/rescaled_final/1858_fw.mp4	0.0	123.08666467666626	2.5003743171691895
19	110.11643695831299	pulse	1	t		17.0	2.5	/experiments/Knapen_AOT/AOT_stimuli/rescaled_final/1858_fw.mp4	0.0	124.27031135559082	
19	111.43316459655762	fix_post	2		12	17.0	2.5	/experiments/Knapen_AOT/AOT_stimuli/rescaled_final/1858_fw.mp4	0.0	125.58703899383545	0.10001420974731445
20	111.53317880630493	fix_pre	0		120	18.0	2.5	/experiments/Knapen_AOT/AOT_stimuli/rescaled_final/0369_rv.mp4	0.0	125.68705320358276	1.0001459121704102
20	111.71666193008423	pulse	0	t		18.0	2.5	/experiments/Knapen_AOT/AOT_stimuli/rescaled_final/0369_rv.mp4	0.0	125.87053632736206	
20	112.53332471847534	movie	1		300	18.0	2.5	/experiments/Knapen_AOT/AOT_stimuli/rescaled_final/0369_rv.mp4	0.0	126.68719911575317	2.500447988510132
20	113.31697869300842	pulse	1	t		18.0	2.5	/experiments/Knapen_AOT/AOT_stimuli/rescaled_final/0369_rv.mp4	0.0	127.47085309028625	
20	114.91721773147583	pulse	1	t		18.0	2.5	/experiments/Knapen_AOT/AOT_stimuli/rescaled_final/0369_rv.mp4	0.0	129.07109212875366	
20	115.03377270698547	fix_post	2		12	18.0	2.5	/experiments/Knapen_AOT/AOT_stimuli/rescaled_final/0369_rv.mp4	0.0	129.1876471042633	0.09994101524353027
21	115.133713722229	fix_pre	0		120	19.0	2.5	blank	1.0	129.28758811950684	1.0001418590545654
21	116.13385558128357	movie	1		299	19.0	2.5	blank	1.0	130.2877299785614	2.4920551776885986
21	116.51738214492798	pulse	1	t		19.0	2.5	blank	1.0	130.6712565422058	
21	118.11763191223145	pulse	1	t		19.0	2.5	blank	1.0	132.27150630950928	
21	118.62591075897217	fix_post	2		12	19.0	2.5	blank	1.0	132.77978515625	0.1000516414642334
22	118.7259624004364	fix_pre	0		120	20.0	2.5	/experiments/Knapen_AOT/AOT_stimuli/rescaled_final/0580_fw.mp4	0.0	132.87983679771423	1.0085067749023438
22	119.71792817115784	pulse	0	t		20.0	2.5	/experiments/Knapen_AOT/AOT_stimuli/rescaled_final/0580_fw.mp4	0.0	133.87180256843567	
22	119.73446917533875	movie	1		300	20.0	2.5	/experiments/Knapen_AOT/AOT_stimuli/rescaled_final/0580_fw.mp4	0.0	133.88834357261658	2.5003111362457275
22	121.31430506706238	pulse	1	t		20.0	2.5	/experiments/Knapen_AOT/AOT_stimuli/rescaled_final/0580_fw.mp4	0.0	135.4681794643402	
22	122.23478031158447	fix_post	2		12	20.0	2.5	/experiments/Knapen_AOT/AOT_stimuli/rescaled_final/0580_fw.mp4	0.0	136.3886547088623	0.10001897811889648
23	122.33479928970337	fix_pre	0		120	21.0	2.5	/experiments/Knapen_AOT/AOT_stimuli/rescaled_final/1280_fw.mp4	0.0	136.4886736869812	1.0001490116119385
23	122.9183406829834	pulse	0	t		21.0	2.5	/experiments/Knapen_AOT/AOT_stimuli/rescaled_final/1280_fw.mp4	0.0	137.07221508026123	
23	123.33494830131531	movie	1		300	21.0	2.5	/experiments/Knapen_AOT/AOT_stimuli/rescaled_final/1280_fw.mp4	0.0	137.48882269859314	2.5003890991210938
23	124.514395236969	pulse	1	t		21.0	2.5	/experiments/Knapen_AOT/AOT_stimuli/rescaled_final/1280_fw.mp4	0.0	138.66826963424683	
23	125.8353374004364	fix_post	2		12	21.0	2.5	/experiments/Knapen_AOT/AOT_stimuli/rescaled_final/1280_fw.mp4	0.0	139.98921179771423	0.1000208854675293
24	125.93535828590393	fix_pre	0		120	22.0	2.5	/experiments/Knapen_AOT/AOT_stimuli/rescaled_final/1138_rv.mp4	0.0	140.08923268318176	1.0001578330993652
24	126.11880016326904	pulse	0	t		22.0	2.5	/experiments/Knapen_AOT/AOT_stimuli/rescaled_final/1138_rv.mp4	0.0	140.27267456054688	
24	126.9355161190033	movie	1		300	22.0	2.5	/experiments/Knapen_AOT/AOT_stimuli/rescaled_final/1138_rv.mp4	0.0	141.08939051628113	2.500349521636963
24	127.71474575996399	pulse	1	t		22.0	2.5	/experiments/Knapen_AOT/AOT_stimuli/rescaled_final/1138_rv.mp4	0.0	141.86862015724182	
24	129.31498956680298	pulse	1	t		22.0	2.5	/experiments/Knapen_AOT/AOT_stimuli/rescaled_final/1138_rv.mp4	0.0	143.4688639640808	
24	129.43586564064026	fix_post	2		12	22.0	2.5	/experiments/Knapen_AOT/AOT_stimuli/rescaled_final/1138_rv.mp4	0.0	143.5897400379181	0.10001492500305176
25	129.5358805656433	fix_pre	0		120	23.0	2.5	/experiments/Knapen_AOT/AOT_stimuli/rescaled_final/0725_rv.mp4	0.0	143.68975496292114	1.0001530647277832
25	130.5360336303711	movie	1		299	23.0	2.5	/experiments/Knapen_AOT/AOT_stimuli/rescaled_final/0725_rv.mp4	0.0	144.68990802764893	2.492051601409912
25	130.9157633781433	pulse	1	t		23.0	2.5	/experiments/Knapen_AOT/AOT_stimuli/rescaled_final/0725_rv.mp4	0.0	145.06963777542114	
25	132.51543879508972	pulse	1	t		23.0	2.5	/experiments/Knapen_AOT/AOT_stimuli/rescaled_final/0725_rv.mp4	0.0	146.66931319236755	
25	133.028085231781	fix_post	2		12	23.0	2.5	/experiments/Knapen_AOT/AOT_stimuli/rescaled_final/0725_rv.mp4	0.0	147.18195962905884	0.10000467300415039
26	133.12808990478516	fix_pre	0		120	24.0	2.5	/experiments/Knapen_AOT/AOT_stimuli/rescaled_final/0879_rv.mp4	0.0	147.281964302063	1.000347375869751
26	134.12010407447815	pulse	0	t		24.0	2.5	/experiments/Knapen_AOT/AOT_stimuli/rescaled_final/0879_rv.mp4	0.0	148.27397847175598	
26	134.1284372806549	movie	1		301	24.0	2.5	/experiments/Knapen_AOT/AOT_stimuli/rescaled_final/0879_rv.mp4	0.0	148.28231167793274	2.50850772857666
26	135.716388463974	pulse	1	t		24.0	2.5	/experiments/Knapen_AOT/AOT_stimuli/rescaled_final/0879_rv.mp4	0.0	149.87026286125183	
26	136.63694500923157	fix_post	2		12	24.0	2.5	/experiments/Knapen_AOT/AOT_stimuli/rescaled_final/0879_rv.mp4	0.0	150.7908194065094	0.10004329681396484
27	136.73698830604553	fix_pre	0		120	25.0	2.5	/experiments/Knapen_AOT/AOT_stimuli/rescaled_final/0618_fw.mp4	0.0	150.89086270332336	1.0001304149627686
27	137.32050824165344	pulse	0	t		25.0	2.5	/experiments/Knapen_AOT/AOT_stimuli/rescaled_final/0618_fw.mp4	0.0	151.47438263893127	
27	137.7371187210083	movie	1		300	25.0	2.5	/experiments/Knapen_AOT/AOT_stimuli/rescaled_final/0618_fw.mp4	0.0	151.89099311828613	2.5003745555877686
27	138.91648840904236	pulse	1	t		25.0	2.5	/experiments/Knapen_AOT/AOT_stimuli/rescaled_final/0618_fw.mp4	0.0	153.0703628063202	
27	140.23749327659607	fix_post	2		12	25.0	2.5	/experiments/Knapen_AOT/AOT_stimuli/rescaled_final/0618_fw.mp4	0.0	154.3913676738739	0.10002708435058594
28	140.33752036094666	fix_pre	0		120	26.0	2.5	/experiments/Knapen_AOT/AOT_stimuli/rescaled_final/1985_fw.mp4	0.0	154.4913947582245	1.0001518726348877
28	140.52102065086365	pulse	0	t		26.0	2.5	/experiments/Knapen_AOT/AOT_stimuli/rescaled_final/1985_fw.mp4	0.0	154.67489504814148	
28	141.33767223358154	movie	1		300	26.0	2.5	/experiments/Knapen_AOT/AOT_stimuli/rescaled_final/1985_fw.mp4	0.0	155.49154663085938	2.5003552436828613
28	142.11676049232483	pulse	1	t		26.0	2.5	/experiments/Knapen_AOT/AOT_stimuli/rescaled_final/1985_fw.mp4	0.0	156.27063488960266	
28	143.7172532081604	pulse	1	t		26.0	2.5	/experiments/Knapen_AOT/AOT_stimuli/rescaled_final/1985_fw.mp4	0.0	157.87112760543823	
28	143.8380274772644	fix_post	2		12	26.0	2.5	/experiments/Knapen_AOT/AOT_stimuli/rescaled_final/1985_fw.mp4	0.0	157.99190187454224	0.10001707077026367
29	143.93804454803467	fix_pre	0		120	27.0	2.5	blank	1.0	158.0919189453125	1.0001347064971924
29	144.93817925453186	movie	1		299	27.0	2.5	blank	1.0	159.0920536518097	2.4920578002929688
29	145.3217270374298	pulse	1	t		27.0	2.5	blank	1.0	159.47560143470764	
29	146.92200446128845	pulse	1	t		27.0	2.5	blank	1.0	161.07587885856628	
29	147.43023705482483	fix_post	2		12	27.0	2.5	blank	1.0	161.58411145210266	0.10001659393310547
30	147.53025364875793	fix_pre	0		120	28.0	2.5	/experiments/Knapen_AOT/AOT_stimuli/rescaled_final/1446_rv.mp4	0.0	161.68412804603577	1.0001463890075684
30	148.52217602729797	pulse	0	t		28.0	2.5	/experiments/Knapen_AOT/AOT_stimuli/rescaled_final/1446_rv.mp4	0.0	162.6760504245758	
30	148.5304000377655	movie	1		301	28.0	2.5	/experiments/Knapen_AOT/AOT_stimuli/rescaled_final/1446_rv.mp4	0.0	162.68427443504333	2.5087053775787354
30	150.11877179145813	pulse	1	t		28.0	2.5	/experiments/Knapen_AOT/AOT_stimuli/rescaled_final/1446_rv.mp4	0.0	164.27264618873596	
30	151.03910541534424	fix_post	2		12	28.0	2.5	/experiments/Knapen_AOT/AOT_stimuli/rescaled_final/1446_rv.mp4	0.0	165.19297981262207	0.10002636909484863
31	151.1391317844391	fix_pre	0		120	29.0	2.5	/experiments/Knapen_AOT/AOT_stimuli/rescaled_final/1342_fw.mp4	0.0	165.29300618171692	1.0001490116119385
31	151.71451997756958	pulse	0	t		29.0	2.5	/experiments/Knapen_AOT/AOT_stimuli/rescaled_final/1342_fw.mp4	0.0	165.8683943748474	
31	152.13928079605103	movie	1		300	29.0	2.5	/experiments/Knapen_AOT/AOT_stimuli/rescaled_final/1342_fw.mp4	0.0	166.29315519332886	2.500378131866455
31	153.31464171409607	pulse	1	t		29.0	2.5	/experiments/Knapen_AOT/AOT_stimuli/rescaled_final/1342_fw.mp4	0.0	167.4685161113739	
31	154.63965892791748	fix_post	2		12	29.0	2.5	/experiments/Knapen_AOT/AOT_stimuli/rescaled_final/1342_fw.mp4	0.0	168.7935333251953	0.10002851486206055
32	154.73968744277954	fix_pre	0		120	30.0	2.5	/experiments/Knapen_AOT/AOT_stimuli/rescaled_final/0616_fw.mp4	0.0	168.89356184005737	1.0001325607299805
32	154.91481685638428	pulse	0	t		30.0	2.5	/experiments/Knapen_AOT/AOT_stimuli/rescaled_final/0616_fw.mp4	0.0	169.0686912536621	
32	155.73982000350952	movie	1		300	30.0	2.5	/experiments/Knapen_AOT/AOT_stimuli/rescaled_final/0616_fw.mp4	0.0	169.89369440078735	2.5003693103790283
32	156.51507830619812	pulse	1	t		30.0	2.5	/experiments/Knapen_AOT/AOT_stimuli/rescaled_final/0616_fw.mp4	0.0	170.66895270347595	
32	158.11533069610596	pulse	1	t		30.0	2.5	/experiments/Knapen_AOT/AOT_stimuli/rescaled_final/0616_fw.mp4	0.0	172.2692050933838	
32	158.24018931388855	fix_post	2		12	30.0	2.5	/experiments/Knapen_AOT/AOT_stimuli/rescaled_final/0616_fw.mp4	0.0	172.39406371116638	0.1000370979309082
33	158.34022641181946	fix_pre	0		120	31.0	2.5	/experiments/Knapen_AOT/AOT_stimuli/rescaled_final/2041_rv.mp4	0.0	172.4941008090973	1.0001311302185059
33	159.34035754203796	movie	1		299	31.0	2.5	/experiments/Knapen_AOT/AOT_stimuli/rescaled_final/2041_rv.mp4	0.0	173.4942319393158	2.4920570850372314
33	159.71564292907715	pulse	1	t		31.0	2.5	/experiments/Knapen_AOT/AOT_stimuli/rescaled_final/2041_rv.mp4	0.0	173.86951732635498	
33	161.31587934494019	pulse	1	t		31.0	2.5	/experiments/Knapen_AOT/AOT_stimuli/rescaled_final/2041_rv.mp4	0.0	175.46975374221802	
33	161.8324146270752	fix_post	2		12	31.0	2.5	/experiments/Knapen_AOT/AOT_stimuli/rescaled_final/2041_rv.mp4	0.0	175.98628902435303	0.10001063346862793
34	161.93242526054382	fix_pre	0		119	32.0	2.5	/experiments/Knapen_AOT/AOT_stimuli/rescaled_final/1719_fw.mp4	0.0	176.08629965782166	1.0001616477966309
34	162.9160714149475	pulse	0	t		32.0	2.5	/experiments/Knapen_AOT/AOT_stimuli/rescaled_final/1719_fw.mp4	0.0	177.06994581222534	
34	162.93258690834045	movie	1		300	32.0	2.5	/experiments/Knapen_AOT/AOT_stimuli/rescaled_final/1719_fw.mp4	0.0	177.0864613056183	2.5003960132598877
34	164.51634645462036	pulse	1	t		32.0	2.5	/experiments/Knapen_AOT/AOT_stimuli/rescaled_final/1719_fw.mp4	0.0	178.6702208518982	
34	165.43298292160034	fix_post	2		12	32.0	2.5	/experiments/Knapen_AOT/AOT_stimuli/rescaled_final/1719_fw.mp4	0.0	179.58685731887817	0.09998703002929688
35	165.53296995162964	fix_pre	0		120	33.0	2.5	/experiments/Knapen_AOT/AOT_stimuli/rescaled_final/1149_fw.mp4	0.0	179.68684434890747	1.0001378059387207
35	166.1164824962616	pulse	0	t		33.0	2.5	/experiments/Knapen_AOT/AOT_stimuli/rescaled_final/1149_fw.mp4	0.0	180.27035689353943	
35	166.53310775756836	movie	1		300	33.0	2.5	/experiments/Knapen_AOT/AOT_stimuli/rescaled_final/1149_fw.mp4	0.0	180.6869821548462	2.500382661819458
35	167.71678280830383	pulse	1	t		33.0	2.5	/experiments/Knapen_AOT/AOT_stimuli/rescaled_final/1149_fw.mp4	0.0	181.87065720558167	
35	169.03349041938782	fix_post	2		12	33.0	2.5	/experiments/Knapen_AOT/AOT_stimuli/rescaled_final/1149_fw.mp4	0.0	183.18736481666565	0.10001921653747559
36	169.1335096359253	fix_pre	0		120	34.0	2.5	blank	1.0	183.28738403320312	1.0001325607299805
36	169.3170506954193	pulse	0	t		34.0	2.5	blank	1.0	183.47092509269714	
36	170.13364219665527	movie	1		300	34.0	2.5	blank	1.0	184.2875165939331	2.5004069805145264
36	170.9172101020813	pulse	1	t		34.0	2.5	blank	1.0	185.07108449935913	
36	172.51744103431702	pulse	1	t		34.0	2.5	blank	1.0	186.67131543159485	
36	172.6340491771698	fix_post	2		12	34.0	2.5	blank	1.0	186.78792357444763	0.09998416900634766
37	172.73403334617615	fix_pre	0		120	35.0	2.5	/experiments/Knapen_AOT/AOT_stimuli/rescaled_final/1021_rv.mp4	0.0	186.88790774345398	1.00016188621521
37	173.73419523239136	movie	1		299	35.0	2.5	/experiments/Knapen_AOT/AOT_stimuli/rescaled_final/1021_rv.mp4	0.0	187.8880696296692	2.4920387268066406
37	174.11522269248962	pulse	1	t		35.0	2.5	/experiments/Knapen_AOT/AOT_stimuli/rescaled_final/1021_rv.mp4	0.0	188.26909708976746	
37	175.7179617881775	pulse	1	t		35.0	2.5	/experiments/Knapen_AOT/AOT_stimuli/rescaled_final/1021_rv.mp4	0.0	189.87183618545532	
37	176.226233959198	fix_post	2		12	35.0	2.5	/experiments/Knapen_AOT/AOT_stimuli/rescaled_final/1021_rv.mp4	0.0	190.38010835647583	0.10003495216369629
38	176.3262689113617	fix_pre	0		120	36.0	2.5	/experiments/Knapen_AOT/AOT_stimuli/rescaled_final/0618_rv.mp4	0.0	190.48014330863953	1.008500099182129
38	177.3182075023651	pulse	0	t		36.0	2.5	/experiments/Knapen_AOT/AOT_stimuli/rescaled_final/0618_rv.mp4	0.0	191.47208189964294	
38	177.33476901054382	movie	1		300	36.0	2.5	/experiments/Knapen_AOT/AOT_stimuli/rescaled_final/0618_rv.mp4	0.0	191.48864340782166	2.500380277633667
38	178.91468739509583	pulse	1	t		36.0	2.5	/experiments/Knapen_AOT/AOT_stimuli/rescaled_final/0618_rv.mp4	0.0	193.06856179237366	
38	179.8351492881775	fix_post	2		12	36.0	2.5	/experiments/Knapen_AOT/AOT_stimuli/rescaled_final/0618_rv.mp4	0.0	193.98902368545532	0.10002279281616211
39	179.93517208099365	fix_pre	0		120	37.0	2.5	/experiments/Knapen_AOT/AOT_stimuli/rescaled_final/0288_fw.mp4	0.0	194.08904647827148	1.0001087188720703
39	180.5186562538147	pulse	0	t		37.0	2.5	/experiments/Knapen_AOT/AOT_stimuli/rescaled_final/0288_fw.mp4	0.0	194.67253065109253	
39	180.93528079986572	movie	1		300	37.0	2.5	/experiments/Knapen_AOT/AOT_stimuli/rescaled_final/0288_fw.mp4	0.0	195.08915519714355	2.500368118286133
39	182.1146411895752	pulse	1	t		37.0	2.5	/experiments/Knapen_AOT/AOT_stimuli/rescaled_final/0288_fw.mp4	0.0	196.26851558685303	
39	183.43564891815186	fix_post	2		12	37.0	2.5	/experiments/Knapen_AOT/AOT_stimuli/rescaled_final/0288_fw.mp4	0.0	197.5895233154297	0.10001659393310547
40	183.53566551208496	fix_pre	0		120	38.0	2.5	/experiments/Knapen_AOT/AOT_stimuli/rescaled_final/0198_fw.mp4	0.0	197.6895399093628	1.0001132488250732
40	183.71916389465332	pulse	0	t		38.0	2.5	/experiments/Knapen_AOT/AOT_stimuli/rescaled_final/0198_fw.mp4	0.0	197.87303829193115	
40	184.53577876091003	movie	1		300	38.0	2.5	/experiments/Knapen_AOT/AOT_stimuli/rescaled_final/0198_fw.mp4	0.0	198.68965315818787	2.5004539489746094
40	185.31491494178772	pulse	1	t		38.0	2.5	/experiments/Knapen_AOT/AOT_stimuli/rescaled_final/0198_fw.mp4	0.0	199.46878933906555	
40	186.91542959213257	pulse	1	t		38.0	2.5	/experiments/Knapen_AOT/AOT_stimuli/rescaled_final/0198_fw.mp4	0.0	201.0693039894104	
40	187.03623270988464	fix_post	2		12	38.0	2.5	/experiments/Knapen_AOT/AOT_stimuli/rescaled_final/0198_fw.mp4	0.0	201.19010710716248	0.10003471374511719
41	187.13626742362976	fix_pre	0		120	39.0	2.5	/experiments/Knapen_AOT/AOT_stimuli/rescaled_final/0288_rv.mp4	0.0	201.2901418209076	1.0000927448272705
41	188.13636016845703	movie	1		299	39.0	2.5	/experiments/Knapen_AOT/AOT_stimuli/rescaled_final/0288_rv.mp4	0.0	202.29023456573486	2.4920387268066406
41	188.5159876346588	pulse	1	t		39.0	2.5	/experiments/Knapen_AOT/AOT_stimuli/rescaled_final/0288_rv.mp4	0.0	202.66986203193665	
41	190.11568331718445	pulse	1	t		39.0	2.5	/experiments/Knapen_AOT/AOT_stimuli/rescaled_final/0288_rv.mp4	0.0	204.26955771446228	
41	190.62839889526367	fix_post	2		12	39.0	2.5	/experiments/Knapen_AOT/AOT_stimuli/rescaled_final/0288_rv.mp4	0.0	204.7822732925415	0.10001564025878906
42	190.72841453552246	fix_pre	0		120	40.0	2.5	/experiments/Knapen_AOT/AOT_stimuli/rescaled_final/0083_rv.mp4	0.0	204.8822889328003	1.0085163116455078
42	191.72041630744934	pulse	0	t		40.0	2.5	/experiments/Knapen_AOT/AOT_stimuli/rescaled_final/0083_rv.mp4	0.0	205.87429070472717	
42	191.73693084716797	movie	1		299	40.0	2.5	/experiments/Knapen_AOT/AOT_stimuli/rescaled_final/0083_rv.mp4	0.0	205.8908052444458	2.500382423400879
42	193.31673550605774	pulse	1	t		40.0	2.5	/experiments/Knapen_AOT/AOT_stimuli/rescaled_final/0083_rv.mp4	0.0	207.47060990333557	
42	194.23731327056885	fix_post	2		12	40.0	2.5	/experiments/Knapen_AOT/AOT_stimuli/rescaled_final/0083_rv.mp4	0.0	208.39118766784668	0.10001564025878906
43	194.33732891082764	fix_pre	0		120	41.0	2.5	/experiments/Knapen_AOT/AOT_stimuli/rescaled_final/2175_rv.mp4	0.0	208.49120330810547	1.0001416206359863
43	194.9208402633667	pulse	0	t		41.0	2.5	/experiments/Knapen_AOT/AOT_stimuli/rescaled_final/2175_rv.mp4	0.0	209.07471466064453	
43	195.33747053146362	movie	1		299	41.0	2.5	/experiments/Knapen_AOT/AOT_stimuli/rescaled_final/2175_rv.mp4	0.0	209.49134492874146	2.500347137451172
43	196.51697945594788	pulse	1	t		41.0	2.5	/experiments/Knapen_AOT/AOT_stimuli/rescaled_final/2175_rv.mp4	0.0	210.6708538532257	
43	197.8378176689148	fix_post	2		12	41.0	2.5	/experiments/Knapen_AOT/AOT_stimuli/rescaled_final/2175_rv.mp4	0.0	211.99169206619263	0.10001277923583984
44	197.93783044815063	fix_pre	0		120	42.0	2.5	blank	1.0	212.09170484542847	1.0001451969146729
44	198.12132477760315	pulse	0	t		42.0	2.5	blank	1.0	212.27519917488098	
44	198.9379756450653	movie	1		300	42.0	2.5	blank	1.0	213.09185004234314	2.500415563583374
44	199.7215404510498	pulse	1	t		42.0	2.5	blank	1.0	213.87541484832764	
44	201.32176995277405	pulse	1	t		42.0	2.5	blank	1.0	215.47564435005188	
44	201.43839120864868	fix_post	2		12	42.0	2.5	blank	1.0	215.5922656059265	0.1000070571899414
45	201.53839826583862	fix_pre	0		120	43.0	2.5	/experiments/Knapen_AOT/AOT_stimuli/rescaled_final/1293_rv.mp4	0.0	215.69227266311646	1.0002803802490234
45	202.53867864608765	movie	1		300	43.0	2.5	/experiments/Knapen_AOT/AOT_stimuli/rescaled_final/1293_rv.mp4	0.0	216.69255304336548	2.5002219676971436
45	202.9182538986206	pulse	1	t		43.0	2.5	/experiments/Knapen_AOT/AOT_stimuli/rescaled_final/1293_rv.mp4	0.0	217.07212829589844	
45	204.51795625686646	pulse	1	t		43.0	2.5	/experiments/Knapen_AOT/AOT_stimuli/rescaled_final/1293_rv.mp4	0.0	218.6718306541443	
45	205.0389006137848	fix_post	2		12	43.0	2.5	/experiments/Knapen_AOT/AOT_stimuli/rescaled_final/1293_rv.mp4	0.0	219.19277501106262	0.1000218391418457
46	205.13892245292664	fix_pre	0		119	44.0	2.5	/experiments/Knapen_AOT/AOT_stimuli/rescaled_final/1865_fw.mp4	0.0	219.29279685020447	0.9921200275421143
46	206.12257361412048	pulse	0	t		44.0	2.5	/experiments/Knapen_AOT/AOT_stimuli/rescaled_final/1865_fw.mp4	0.0	220.27644801139832	
46	206.13104248046875	movie	1		301	44.0	2.5	/experiments/Knapen_AOT/AOT_stimuli/rescaled_final/1865_fw.mp4	0.0	220.28491687774658	2.5084567070007324
46	207.71908330917358	pulse	1	t		44.0	2.5	/experiments/Knapen_AOT/AOT_stimuli/rescaled_final/1865_fw.mp4	0.0	221.87295770645142	
46	208.63949918746948	fix_post	2		12	44.0	2.5	/experiments/Knapen_AOT/AOT_stimuli/rescaled_final/1865_fw.mp4	0.0	222.79337358474731	0.10005617141723633
47	208.73955535888672	fix_pre	0		120	45.0	2.5	/experiments/Knapen_AOT/AOT_stimuli/rescaled_final/0725_fw.mp4	0.0	222.89342975616455	1.000053882598877
47	209.31476545333862	pulse	0	t		45.0	2.5	/experiments/Knapen_AOT/AOT_stimuli/rescaled_final/0725_fw.mp4	0.0	223.46863985061646	
47	209.7396092414856	movie	1		288	45.0	2.5	/experiments/Knapen_AOT/AOT_stimuli/rescaled_final/0725_fw.mp4	0.0	223.89348363876343	2.5003843307495117
47	210.91494297981262	pulse	1	t		45.0	2.5	/experiments/Knapen_AOT/AOT_stimuli/rescaled_final/0725_fw.mp4	0.0	225.06881737709045	
47	212.2399935722351	fix_post	2		12	45.0	2.5	/experiments/Knapen_AOT/AOT_stimuli/rescaled_final/0725_fw.mp4	0.0	226.39386796951294	0.10002470016479492
48	212.3400182723999	fix_pre	0		120	46.0	2.5	/experiments/Knapen_AOT/AOT_stimuli/rescaled_final/1031_rv.mp4	0.0	226.49389266967773	1.0001177787780762
48	212.51512932777405	pulse	0	t		46.0	2.5	/experiments/Knapen_AOT/AOT_stimuli/rescaled_final/1031_rv.mp4	0.0	226.66900372505188	
48	213.34013605117798	movie	1		300	46.0	2.5	/experiments/Knapen_AOT/AOT_stimuli/rescaled_final/1031_rv.mp4	0.0	227.4940104484558	2.5004212856292725
48	214.11553239822388	pulse	1	t		46.0	2.5	/experiments/Knapen_AOT/AOT_stimuli/rescaled_final/1031_rv.mp4	0.0	228.2694067955017	
48	215.715656042099	pulse	1	t		46.0	2.5	/experiments/Knapen_AOT/AOT_stimuli/rescaled_final/1031_rv.mp4	0.0	229.86953043937683	
48	215.84055733680725	fix_post	2		12	46.0	2.5	/experiments/Knapen_AOT/AOT_stimuli/rescaled_final/1031_rv.mp4	0.0	229.99443173408508	0.10002470016479492
49	215.94058203697205	fix_pre	0		120	47.0	2.5	/experiments/Knapen_AOT/AOT_stimuli/rescaled_final/1932_rv.mp4	0.0	230.09445643424988	1.0000872611999512
49	216.940669298172	movie	1		299	47.0	2.5	/experiments/Knapen_AOT/AOT_stimuli/rescaled_final/1932_rv.mp4	0.0	231.09454369544983	2.4920547008514404
49	217.31596899032593	pulse	1	t		47.0	2.5	/experiments/Knapen_AOT/AOT_stimuli/rescaled_final/1932_rv.mp4	0.0	231.46984338760376	
49	218.9161262512207	pulse	1	t		47.0	2.5	/experiments/Knapen_AOT/AOT_stimuli/rescaled_final/1932_rv.mp4	0.0	233.07000064849854	
49	219.43272399902344	fix_post	2		12	47.0	2.5	/experiments/Knapen_AOT/AOT_stimuli/rescaled_final/1932_rv.mp4	0.0	233.58659839630127	0.1000206470489502
50	219.5327446460724	fix_pre	0		119	48.0	2.5	blank	1.0	233.68661904335022	0.9918851852416992
50	220.51633405685425	pulse	0	t		48.0	2.5	blank	1.0	234.67020845413208	
50	220.5246298313141	movie	1		301	48.0	2.5	blank	1.0	234.67850422859192	2.5086400508880615
50	222.11661744117737	pulse	1	t		48.0	2.5	blank	1.0	236.2704918384552	
50	223.03326988220215	fix_post	2		12	48.0	2.5	blank	1.0	237.18714427947998	0.10001754760742188
51	223.13328742980957	fix_pre	0		120	49.0	2.5	/experiments/Knapen_AOT/AOT_stimuli/rescaled_final/2038_rv.mp4	0.0	237.2871618270874	1.0001587867736816
51	223.7168846130371	pulse	0	t		49.0	2.5	/experiments/Knapen_AOT/AOT_stimuli/rescaled_final/2038_rv.mp4	0.0	237.87075901031494	
51	224.13344621658325	movie	1		300	49.0	2.5	/experiments/Knapen_AOT/AOT_stimuli/rescaled_final/2038_rv.mp4	0.0	238.28732061386108	2.500365972518921
51	225.31715035438538	pulse	1	t		49.0	2.5	/experiments/Knapen_AOT/AOT_stimuli/rescaled_final/2038_rv.mp4	0.0	239.4710247516632	
51	226.63381218910217	fix_post	2		12	49.0	2.5	/experiments/Knapen_AOT/AOT_stimuli/rescaled_final/2038_rv.mp4	0.0	240.78768658638	0.10001492500305176
52	226.73382711410522	fix_pre	0		120	50.0	2.5	/experiments/Knapen_AOT/AOT_stimuli/rescaled_final/1347_fw.mp4	0.0	240.88770151138306	1.0004150867462158
52	226.9173460006714	pulse	0	t		50.0	2.5	/experiments/Knapen_AOT/AOT_stimuli/rescaled_final/1347_fw.mp4	0.0	241.07122039794922	
52	227.73424220085144	movie	1		300	50.0	2.5	/experiments/Knapen_AOT/AOT_stimuli/rescaled_final/1347_fw.mp4	0.0	241.88811659812927	2.500114679336548
52	228.51761603355408	pulse	1	t		50.0	2.5	/experiments/Knapen_AOT/AOT_stimuli/rescaled_final/1347_fw.mp4	0.0	242.6714904308319	
52	230.11779689788818	pulse	1	t		50.0	2.5	/experiments/Knapen_AOT/AOT_stimuli/rescaled_final/1347_fw.mp4	0.0	244.27167129516602	
52	230.234356880188	fix_post	2		12	50.0	2.5	/experiments/Knapen_AOT/AOT_stimuli/rescaled_final/1347_fw.mp4	0.0	244.38823127746582	0.10002374649047852
53	230.33438062667847	fix_pre	0		120	51.0	2.5	/experiments/Knapen_AOT/AOT_stimuli/rescaled_final/0306_fw.mp4	0.0	244.4882550239563	1.0001389980316162
53	231.33451962471008	movie	1		299	51.0	2.5	/experiments/Knapen_AOT/AOT_stimuli/rescaled_final/0306_fw.mp4	0.0	245.48839402198792	2.4920783042907715
53	231.71807861328125	pulse	1	t		51.0	2.5	/experiments/Knapen_AOT/AOT_stimuli/rescaled_final/0306_fw.mp4	0.0	245.87195301055908	
53	233.3182909488678	pulse	1	t		51.0	2.5	/experiments/Knapen_AOT/AOT_stimuli/rescaled_final/0306_fw.mp4	0.0	247.47216534614563	
53	233.82659792900085	fix_post	2		12	51.0	2.5	/experiments/Knapen_AOT/AOT_stimuli/rescaled_final/0306_fw.mp4	0.0	247.9804723262787	0.10003209114074707
54	233.9266300201416	fix_pre	0		120	52.0	2.5	/experiments/Knapen_AOT/AOT_stimuli/rescaled_final/0228_fw.mp4	0.0	248.08050441741943	1.0001909732818604
54	234.9185209274292	pulse	0	t		52.0	2.5	/experiments/Knapen_AOT/AOT_stimuli/rescaled_final/0228_fw.mp4	0.0	249.07239532470703	
54	234.92682099342346	movie	1		301	52.0	2.5	/experiments/Knapen_AOT/AOT_stimuli/rescaled_final/0228_fw.mp4	0.0	249.0806953907013	2.5086145401000977
54	236.51885437965393	pulse	1	t		52.0	2.5	/experiments/Knapen_AOT/AOT_stimuli/rescaled_final/0228_fw.mp4	0.0	250.67272877693176	
54	237.43543553352356	fix_post	2		12	52.0	2.5	/experiments/Knapen_AOT/AOT_stimuli/rescaled_final/0228_fw.mp4	0.0	251.5893099308014	0.10001802444458008
55	237.53545355796814	fix_pre	0		120	53.0	2.5	/experiments/Knapen_AOT/AOT_stimuli/rescaled_final/1738_rv.mp4	0.0	251.68932795524597	1.0001442432403564
55	238.11899995803833	pulse	0	t		53.0	2.5	/experiments/Knapen_AOT/AOT_stimuli/rescaled_final/1738_rv.mp4	0.0	252.27287435531616	
55	238.5355978012085	movie	1		300	53.0	2.5	/experiments/Knapen_AOT/AOT_stimuli/rescaled_final/1738_rv.mp4	0.0	252.68947219848633	2.5003750324249268
55	239.71495938301086	pulse	1	t		53.0	2.5	/experiments/Knapen_AOT/AOT_stimuli/rescaled_final/1738_rv.mp4	0.0	253.8688337802887	
55	241.03597283363342	fix_post	2		12	53.0	2.5	/experiments/Knapen_AOT/AOT_stimuli/rescaled_final/1738_rv.mp4	0.0	255.18984723091125	0.10004353523254395
56	241.13601636886597	fix_pre	0		120	54.0	2.5	/experiments/Knapen_AOT/AOT_stimuli/rescaled_final/0119_rv.mp4	0.0	255.2898907661438	1.0001206398010254
56	241.31950688362122	pulse	0	t		54.0	2.5	/experiments/Knapen_AOT/AOT_stimuli/rescaled_final/0119_rv.mp4	0.0	255.47338128089905	
56	242.136137008667	movie	1		299	54.0	2.5	/experiments/Knapen_AOT/AOT_stimuli/rescaled_final/0119_rv.mp4	0.0	256.2900114059448	2.5003838539123535
56	242.91526198387146	pulse	1	t		54.0	2.5	/experiments/Knapen_AOT/AOT_stimuli/rescaled_final/0119_rv.mp4	0.0	257.0691363811493	
56	244.5157253742218	pulse	1	t		54.0	2.5	/experiments/Knapen_AOT/AOT_stimuli/rescaled_final/0119_rv.mp4	0.0	258.66959977149963	
56	244.63652086257935	fix_post	2		12	54.0	2.5	/experiments/Knapen_AOT/AOT_stimuli/rescaled_final/0119_rv.mp4	0.0	258.7903952598572	0.10002017021179199
57	244.73654103279114	fix_pre	0		120	55.0	2.5	blank	1.0	258.89041543006897	1.000138759613037
57	245.73667979240417	movie	1		299	55.0	2.5	blank	1.0	259.890554189682	2.4920494556427
57	246.1203260421753	pulse	1	t		55.0	2.5	blank	1.0	260.2742004394531	
57	247.72041201591492	pulse	1	t		55.0	2.5	blank	1.0	261.87428641319275	
57	248.22872924804688	fix_post	2		12	55.0	2.5	blank	1.0	262.3826036453247	0.10002779960632324
58	248.3287570476532	fix_pre	0		120	56.0	2.5	/experiments/Knapen_AOT/AOT_stimuli/rescaled_final/2041_fw.mp4	0.0	262.48263144493103	1.0085084438323975
58	249.32071685791016	pulse	0	t		56.0	2.5	/experiments/Knapen_AOT/AOT_stimuli/rescaled_final/2041_fw.mp4	0.0	263.474591255188	
58	249.3372654914856	movie	1		300	56.0	2.5	/experiments/Knapen_AOT/AOT_stimuli/rescaled_final/2041_fw.mp4	0.0	263.4911398887634	2.5003654956817627
58	250.91742396354675	pulse	1	t		56.0	2.5	/experiments/Knapen_AOT/AOT_stimuli/rescaled_final/2041_fw.mp4	0.0	265.0712983608246	
58	251.83763098716736	fix_post	2		12	56.0	2.5	/experiments/Knapen_AOT/AOT_stimuli/rescaled_final/2041_fw.mp4	0.0	265.9915053844452	0.09998512268066406
59	251.93761610984802	fix_pre	0		120	57.0	2.5	/experiments/Knapen_AOT/AOT_stimuli/rescaled_final/0030_rv.mp4	0.0	266.09149050712585	1.0001566410064697
59	252.52115416526794	pulse	0	t		57.0	2.5	/experiments/Knapen_AOT/AOT_stimuli/rescaled_final/0030_rv.mp4	0.0	266.6750285625458	
59	252.9377727508545	movie	1		300	57.0	2.5	/experiments/Knapen_AOT/AOT_stimuli/rescaled_final/0030_rv.mp4	0.0	267.0916471481323	2.5003702640533447
59	254.11718440055847	pulse	1	t		57.0	2.5	/experiments/Knapen_AOT/AOT_stimuli/rescaled_final/0030_rv.mp4	0.0	268.2710587978363	
59	255.43814301490784	fix_post	2		12	57.0	2.5	/experiments/Knapen_AOT/AOT_stimuli/rescaled_final/0030_rv.mp4	0.0	269.59201741218567	0.10002994537353516
60	255.53817296028137	fix_pre	0		120	58.0	2.5	/experiments/Knapen_AOT/AOT_stimuli/rescaled_final/2139_fw.mp4	0.0	269.6920473575592	1.0001356601715088
60	255.72170400619507	pulse	0	t		58.0	2.5	/experiments/Knapen_AOT/AOT_stimuli/rescaled_final/2139_fw.mp4	0.0	269.8755784034729	
60	256.5383086204529	movie	1		300	58.0	2.5	/experiments/Knapen_AOT/AOT_stimuli/rescaled_final/2139_fw.mp4	0.0	270.6921830177307	2.500373125076294
60	257.31756138801575	pulse	1	t		58.0	2.5	/experiments/Knapen_AOT/AOT_stimuli/rescaled_final/2139_fw.mp4	0.0	271.4714357852936	
60	258.91774463653564	pulse	1	t		58.0	2.5	/experiments/Knapen_AOT/AOT_stimuli/rescaled_final/2139_fw.mp4	0.0	273.0716190338135	
60	259.0386817455292	fix_post	2		12	58.0	2.5	/experiments/Knapen_AOT/AOT_stimuli/rescaled_final/2139_fw.mp4	0.0	273.192556142807	0.10003852844238281
61	259.13872027397156	fix_pre	0		120	59.0	2.5	/experiments/Knapen_AOT/AOT_stimuli/rescaled_final/0388_rv.mp4	0.0	273.2925946712494	1.0002038478851318
61	260.1389241218567	movie	1		300	59.0	2.5	/experiments/Knapen_AOT/AOT_stimuli/rescaled_final/0388_rv.mp4	0.0	274.2927985191345	2.5003018379211426
61	260.51842212677	pulse	1	t		59.0	2.5	/experiments/Knapen_AOT/AOT_stimuli/rescaled_final/0388_rv.mp4	0.0	274.67229652404785	
61	262.11816215515137	pulse	1	t		59.0	2.5	/experiments/Knapen_AOT/AOT_stimuli/rescaled_final/0388_rv.mp4	0.0	276.2720365524292	
61	262.63922595977783	fix_post	2		12	59.0	2.5	/experiments/Knapen_AOT/AOT_stimuli/rescaled_final/0388_rv.mp4	0.0	276.79310035705566	0.10003352165222168
62	262.73925948143005	fix_pre	0		119	60.0	2.5	/experiments/Knapen_AOT/AOT_stimuli/rescaled_final/0635_rv.mp4	0.0	276.8931338787079	0.9921691417694092
62	263.72286438941956	pulse	0	t		60.0	2.5	/experiments/Knapen_AOT/AOT_stimuli/rescaled_final/0635_rv.mp4	0.0	277.8767387866974	
62	263.73142862319946	movie	1		301	60.0	2.5	/experiments/Knapen_AOT/AOT_stimuli/rescaled_final/0635_rv.mp4	0.0	277.8853030204773	2.5083353519439697
62	265.32159757614136	pulse	1	t		60.0	2.5	/experiments/Knapen_AOT/AOT_stimuli/rescaled_final/0635_rv.mp4	0.0	279.4754719734192	
62	266.23976397514343	fix_post	2		12	60.0	2.5	/experiments/Knapen_AOT/AOT_stimuli/rescaled_final/0635_rv.mp4	0.0	280.39363837242126	0.10001349449157715
63	266.339777469635	fix_pre	0		120	61.0	2.5	/experiments/Knapen_AOT/AOT_stimuli/rescaled_final/0198_rv.mp4	0.0	280.49365186691284	1.0001537799835205
63	266.91514015197754	pulse	0	t		61.0	2.5	/experiments/Knapen_AOT/AOT_stimuli/rescaled_final/0198_rv.mp4	0.0	281.06901454925537	
63	267.33993124961853	movie	1		300	61.0	2.5	/experiments/Knapen_AOT/AOT_stimuli/rescaled_final/0198_rv.mp4	0.0	281.49380564689636	2.5003974437713623
63	268.5153067111969	pulse	1	t		61.0	2.5	/experiments/Knapen_AOT/AOT_stimuli/rescaled_final/0198_rv.mp4	0.0	282.66918110847473	
63	269.8403286933899	fix_post	2		12	61.0	2.5	/experiments/Knapen_AOT/AOT_stimuli/rescaled_final/0198_rv.mp4	0.0	283.9942030906677	0.0999906063079834
64	269.9403192996979	fix_pre	0		120	62.0	2.5	blank	1.0	284.0941936969757	1.0001418590545654
64	270.1154773235321	pulse	0	t		62.0	2.5	blank	1.0	284.26935172080994	
64	270.94046115875244	movie	1		300	62.0	2.5	blank	1.0	285.0943355560303	2.500401735305786
64	271.7157208919525	pulse	1	t		62.0	2.5	blank	1.0	285.86959528923035	
64	273.31592535972595	pulse	1	t		62.0	2.5	blank	1.0	287.4697997570038	
64	273.4408628940582	fix_post	2		12	62.0	2.5	blank	1.0	287.59473729133606	0.10000085830688477
65	273.5408637523651	fix_pre	0		120	63.0	2.5	/experiments/Knapen_AOT/AOT_stimuli/rescaled_final/0140_rv.mp4	0.0	287.69473814964294	1.0001778602600098
65	274.5410416126251	movie	1		299	63.0	2.5	/experiments/Knapen_AOT/AOT_stimuli/rescaled_final/0140_rv.mp4	0.0	288.69491600990295	2.492032766342163
65	274.91627049446106	pulse	1	t		63.0	2.5	/experiments/Knapen_AOT/AOT_stimuli/rescaled_final/0140_rv.mp4	0.0	289.0701448917389	
65	276.5165283679962	pulse	1	t		63.0	2.5	/experiments/Knapen_AOT/AOT_stimuli/rescaled_final/0140_rv.mp4	0.0	290.67040276527405	
65	277.0330743789673	fix_post	2		12	63.0	2.5	/experiments/Knapen_AOT/AOT_stimuli/rescaled_final/0140_rv.mp4	0.0	291.1869487762451	0.10002565383911133
66	277.1331000328064	fix_pre	0		119	64.0	2.5	/experiments/Knapen_AOT/AOT_stimuli/rescaled_final/1212_fw.mp4	0.0	291.28697443008423	1.000145673751831
66	278.11669731140137	pulse	0	t		64.0	2.5	/experiments/Knapen_AOT/AOT_stimuli/rescaled_final/1212_fw.mp4	0.0	292.2705717086792	
66	278.1332457065582	movie	1		300	64.0	2.5	/experiments/Knapen_AOT/AOT_stimuli/rescaled_final/1212_fw.mp4	0.0	292.28712010383606	2.5003480911254883
66	279.71698093414307	pulse	1	t		64.0	2.5	/experiments/Knapen_AOT/AOT_stimuli/rescaled_final/1212_fw.mp4	0.0	293.8708553314209	
66	280.6335937976837	fix_post	2		12	64.0	2.5	/experiments/Knapen_AOT/AOT_stimuli/rescaled_final/1212_fw.mp4	0.0	294.78746819496155	0.10001635551452637
67	280.73361015319824	fix_pre	0		120	65.0	2.5	/experiments/Knapen_AOT/AOT_stimuli/rescaled_final/0623_rv.mp4	0.0	294.8874845504761	1.000173568725586
67	281.3172245025635	pulse	0	t		65.0	2.5	/experiments/Knapen_AOT/AOT_stimuli/rescaled_final/0623_rv.mp4	0.0	295.4710988998413	
67	281.7337837219238	movie	1		300	65.0	2.5	/experiments/Knapen_AOT/AOT_stimuli/rescaled_final/0623_rv.mp4	0.0	295.88765811920166	2.5003514289855957
67	282.91748309135437	pulse	1	t		65.0	2.5	/experiments/Knapen_AOT/AOT_stimuli/rescaled_final/0623_rv.mp4	0.0	297.0713574886322	
67	284.2341351509094	fix_post	2		12	65.0	2.5	/experiments/Knapen_AOT/AOT_stimuli/rescaled_final/0623_rv.mp4	0.0	298.38800954818726	0.10002398490905762
68	284.3341591358185	fix_pre	0		120	66.0	2.5	/experiments/Knapen_AOT/AOT_stimuli/rescaled_final/1280_rv.mp4	0.0	298.4880335330963	1.0001468658447266
68	284.5176417827606	pulse	0	t		66.0	2.5	/experiments/Knapen_AOT/AOT_stimuli/rescaled_final/1280_rv.mp4	0.0	298.67151618003845	
68	285.3343060016632	movie	1		300	66.0	2.5	/experiments/Knapen_AOT/AOT_stimuli/rescaled_final/1280_rv.mp4	0.0	299.48818039894104	2.5003702640533447
68	286.1179509162903	pulse	1	t		66.0	2.5	/experiments/Knapen_AOT/AOT_stimuli/rescaled_final/1280_rv.mp4	0.0	300.2718253135681	
68	287.7182676792145	pulse	1	t		66.0	2.5	/experiments/Knapen_AOT/AOT_stimuli/rescaled_final/1280_rv.mp4	0.0	301.8721420764923	
68	287.83467626571655	fix_post	2		12	66.0	2.5	/experiments/Knapen_AOT/AOT_stimuli/rescaled_final/1280_rv.mp4	0.0	301.9885506629944	0.10003805160522461
69	287.9347143173218	fix_pre	0		119	67.0	2.5	/experiments/Knapen_AOT/AOT_stimuli/rescaled_final/1433_fw.mp4	0.0	302.0885887145996	0.9917714595794678
69	288.92648577690125	movie	1		300	67.0	2.5	/experiments/Knapen_AOT/AOT_stimuli/rescaled_final/1433_fw.mp4	0.0	303.0803601741791	2.5003960132598877
69	289.31434988975525	pulse	1	t		67.0	2.5	/experiments/Knapen_AOT/AOT_stimuli/rescaled_final/1433_fw.mp4	0.0	303.4682242870331	
69	290.9186086654663	pulse	1	t		67.0	2.5	/experiments/Knapen_AOT/AOT_stimuli/rescaled_final/1433_fw.mp4	0.0	305.07248306274414	
69	291.42688179016113	fix_post	2		12	67.0	2.5	/experiments/Knapen_AOT/AOT_stimuli/rescaled_final/1433_fw.mp4	0.0	305.58075618743896	0.10001420974731445
70	291.52689599990845	fix_pre	0		120	68.0	2.5	/experiments/Knapen_AOT/AOT_stimuli/rescaled_final/0409_fw.mp4	0.0	305.6807703971863	1.0001394748687744
70	292.5188283920288	pulse	0	t		68.0	2.5	/experiments/Knapen_AOT/AOT_stimuli/rescaled_final/0409_fw.mp4	0.0	306.67270278930664	
70	292.5270354747772	movie	1		301	68.0	2.5	/experiments/Knapen_AOT/AOT_stimuli/rescaled_final/0409_fw.mp4	0.0	306.68090987205505	2.508737087249756
70	294.1153178215027	pulse	1	t		68.0	2.5	/experiments/Knapen_AOT/AOT_stimuli/rescaled_final/0409_fw.mp4	0.0	308.2691922187805	
70	295.035772562027	fix_post	2		12	68.0	2.5	/experiments/Knapen_AOT/AOT_stimuli/rescaled_final/0409_fw.mp4	0.0	309.1896469593048	0.10004591941833496
71	295.1358184814453	fix_pre	0		120	69.0	2.5	blank	1.0	309.28969287872314	1.0001039505004883
71	295.71933102607727	pulse	0	t		69.0	2.5	blank	1.0	309.8732054233551	
71	296.1359224319458	movie	1		300	69.0	2.5	blank	1.0	310.28979682922363	2.5003929138183594
71	297.3195743560791	pulse	1	t		69.0	2.5	blank	1.0	311.47344875335693	
71	298.63631534576416	fix_post	2		12	69.0	2.5	blank	1.0	312.790189743042	0.10001897811889648
72	298.73633432388306	fix_pre	0		120	70.0	2.5	/experiments/Knapen_AOT/AOT_stimuli/rescaled_final/1154_fw.mp4	0.0	312.8902087211609	1.0002613067626953
72	298.91981053352356	pulse	0	t		70.0	2.5	/experiments/Knapen_AOT/AOT_stimuli/rescaled_final/1154_fw.mp4	0.0	313.0736849308014	
72	299.73659563064575	movie	1		300	70.0	2.5	/experiments/Knapen_AOT/AOT_stimuli/rescaled_final/1154_fw.mp4	0.0	313.8904700279236	2.5002567768096924
72	300.5158038139343	pulse	1	t		70.0	2.5	/experiments/Knapen_AOT/AOT_stimuli/rescaled_final/1154_fw.mp4	0.0	314.66967821121216	
72	302.11606550216675	pulse	1	t		70.0	2.5	/experiments/Knapen_AOT/AOT_stimuli/rescaled_final/1154_fw.mp4	0.0	316.2699398994446	
72	302.23685240745544	fix_post	2		12	70.0	2.5	/experiments/Knapen_AOT/AOT_stimuli/rescaled_final/1154_fw.mp4	0.0	316.3907268047333	0.10000038146972656
73	302.33685278892517	fix_pre	0		120	71.0	2.5	/experiments/Knapen_AOT/AOT_stimuli/rescaled_final/1035_rv.mp4	0.0	316.490727186203	1.0001513957977295
73	303.3370041847229	movie	1		299	71.0	2.5	/experiments/Knapen_AOT/AOT_stimuli/rescaled_final/1035_rv.mp4	0.0	317.49087858200073	2.492058515548706
73	303.7163670063019	pulse	1	t		71.0	2.5	/experiments/Knapen_AOT/AOT_stimuli/rescaled_final/1035_rv.mp4	0.0	317.8702414035797	
73	305.3164222240448	pulse	1	t		71.0	2.5	/experiments/Knapen_AOT/AOT_stimuli/rescaled_final/1035_rv.mp4	0.0	319.47029662132263	
73	305.8290627002716	fix_post	2		12	71.0	2.5	/experiments/Knapen_AOT/AOT_stimuli/rescaled_final/1035_rv.mp4	0.0	319.98293709754944	0.10000467300415039
74	305.92906737327576	fix_pre	0		120	72.0	2.5	/experiments/Knapen_AOT/AOT_stimuli/rescaled_final/0675_rv.mp4	0.0	320.0829417705536	1.000180959701538
74	306.9209852218628	pulse	0	t		72.0	2.5	/experiments/Knapen_AOT/AOT_stimuli/rescaled_final/0675_rv.mp4	0.0	321.0748596191406	
74	306.9292483329773	movie	1		300	72.0	2.5	/experiments/Knapen_AOT/AOT_stimuli/rescaled_final/0675_rv.mp4	0.0	321.0831227302551	2.5086753368377686
74	308.5174536705017	pulse	1	t		72.0	2.5	/experiments/Knapen_AOT/AOT_stimuli/rescaled_final/0675_rv.mp4	0.0	322.67132806777954	
74	309.43792366981506	fix_post	2		12	72.0	2.5	/experiments/Knapen_AOT/AOT_stimuli/rescaled_final/0675_rv.mp4	0.0	323.5917980670929	0.10007047653198242
75	309.53799414634705	fix_pre	0		120	73.0	2.5	/experiments/Knapen_AOT/AOT_stimuli/rescaled_final/2153_fw.mp4	0.0	323.6918685436249	1.0000941753387451
75	310.12152123451233	pulse	0	t		73.0	2.5	/experiments/Knapen_AOT/AOT_stimuli/rescaled_final/2153_fw.mp4	0.0	324.27539563179016	
75	310.5380883216858	movie	1		300	73.0	2.5	/experiments/Knapen_AOT/AOT_stimuli/rescaled_final/2153_fw.mp4	0.0	324.6919627189636	2.500382661819458
75	311.7174401283264	pulse	1	t		73.0	2.5	/experiments/Knapen_AOT/AOT_stimuli/rescaled_final/2153_fw.mp4	0.0	325.87131452560425	
75	313.03847098350525	fix_post	2		12	73.0	2.5	/experiments/Knapen_AOT/AOT_stimuli/rescaled_final/2153_fw.mp4	0.0	327.1923453807831	0.10004329681396484
76	313.1385142803192	fix_pre	0		120	74.0	2.5	/experiments/Knapen_AOT/AOT_stimuli/rescaled_final/0090_fw.mp4	0.0	327.29238867759705	1.0001215934753418
76	313.3219997882843	pulse	0	t		74.0	2.5	/experiments/Knapen_AOT/AOT_stimuli/rescaled_final/0090_fw.mp4	0.0	327.47587418556213	
76	314.13863587379456	movie	1		300	74.0	2.5	/experiments/Knapen_AOT/AOT_stimuli/rescaled_final/0090_fw.mp4	0.0	328.2925102710724	2.500431776046753
76	314.9179666042328	pulse	1	t		74.0	2.5	/experiments/Knapen_AOT/AOT_stimuli/rescaled_final/0090_fw.mp4	0.0	329.0718410015106	
76	316.5182478427887	pulse	1	t		74.0	2.5	/experiments/Knapen_AOT/AOT_stimuli/rescaled_final/0090_fw.mp4	0.0	330.6721222400665	
76	316.6390676498413	fix_post	2		12	74.0	2.5	/experiments/Knapen_AOT/AOT_stimuli/rescaled_final/0090_fw.mp4	0.0	330.79294204711914	0.09995770454406738
77	316.7390253543854	fix_pre	0		120	75.0	2.5	blank	1.0	330.8928997516632	1.0001513957977295
77	317.7391767501831	movie	1		299	75.0	2.5	blank	1.0	331.89305114746094	2.4920339584350586
77	318.1147108078003	pulse	1	t		75.0	2.5	blank	1.0	332.2685852050781	
77	319.71459102630615	pulse	1	t		75.0	2.5	blank	1.0	333.868465423584	
77	320.23121070861816	fix_post	2		12	75.0	2.5	blank	1.0	334.385085105896	0.10001492500305176
78	320.3312256336212	fix_pre	0		119	76.0	2.5	/experiments/Knapen_AOT/AOT_stimuli/rescaled_final/1154_rv.mp4	0.0	334.48510003089905	1.000173807144165
78	321.31483697891235	pulse	0	t		76.0	2.5	/experiments/Knapen_AOT/AOT_stimuli/rescaled_final/1154_rv.mp4	0.0	335.4687113761902	
78	321.3313994407654	movie	1		300	76.0	2.5	/experiments/Knapen_AOT/AOT_stimuli/rescaled_final/1154_rv.mp4	0.0	335.4852738380432	2.5003719329833984
78	322.9152317047119	pulse	1	t		76.0	2.5	/experiments/Knapen_AOT/AOT_stimuli/rescaled_final/1154_rv.mp4	0.0	337.06910610198975	
78	323.8317713737488	fix_post	2		12	76.0	2.5	/experiments/Knapen_AOT/AOT_stimuli/rescaled_final/1154_rv.mp4	0.0	337.9856457710266	0.10003018379211426
79	323.9318015575409	fix_pre	0		120	77.0	2.5	/experiments/Knapen_AOT/AOT_stimuli/rescaled_final/0516_rv.mp4	0.0	338.0856759548187	1.0001811981201172
79	324.51531767845154	pulse	0	t		77.0	2.5	/experiments/Knapen_AOT/AOT_stimuli/rescaled_final/0516_rv.mp4	0.0	338.66919207572937	
79	324.931982755661	movie	1		300	77.0	2.5	/experiments/Knapen_AOT/AOT_stimuli/rescaled_final/0516_rv.mp4	0.0	339.08585715293884	2.500324010848999
79	326.1156008243561	pulse	1	t		77.0	2.5	/experiments/Knapen_AOT/AOT_stimuli/rescaled_final/0516_rv.mp4	0.0	340.2694752216339	
79	327.43230676651	fix_post	2		12	77.0	2.5	/experiments/Knapen_AOT/AOT_stimuli/rescaled_final/0516_rv.mp4	0.0	341.58618116378784	0.10000252723693848
80	327.53230929374695	fix_pre	0		120	78.0	2.5	/experiments/Knapen_AOT/AOT_stimuli/rescaled_final/1913_rv.mp4	0.0	341.6861836910248	1.0001661777496338
80	327.7158088684082	pulse	0	t		78.0	2.5	/experiments/Knapen_AOT/AOT_stimuli/rescaled_final/1913_rv.mp4	0.0	341.86968326568604	
80	328.5324754714966	movie	1		300	78.0	2.5	/experiments/Knapen_AOT/AOT_stimuli/rescaled_final/1913_rv.mp4	0.0	342.6863498687744	2.5003669261932373
80	329.316059589386	pulse	1	t		78.0	2.5	/experiments/Knapen_AOT/AOT_stimuli/rescaled_final/1913_rv.mp4	0.0	343.4699339866638	
80	330.9163155555725	pulse	1	t		78.0	2.5	/experiments/Knapen_AOT/AOT_stimuli/rescaled_final/1913_rv.mp4	0.0	345.07018995285034	
80	331.0328423976898	fix_post	2		12	78.0	2.5	/experiments/Knapen_AOT/AOT_stimuli/rescaled_final/1913_rv.mp4	0.0	345.18671679496765	0.10004878044128418
81	331.1328911781311	fix_pre	0		120	79.0	2.5	/experiments/Knapen_AOT/AOT_stimuli/rescaled_final/1913_fw.mp4	0.0	345.28676557540894	1.000119924545288
81	332.1330111026764	movie	1		300	79.0	2.5	/experiments/Knapen_AOT/AOT_stimuli/rescaled_final/1913_fw.mp4	0.0	346.2868854999542	2.5003650188446045
81	332.51660346984863	pulse	1	t		79.0	2.5	/experiments/Knapen_AOT/AOT_stimuli/rescaled_final/1913_fw.mp4	0.0	346.67047786712646	
81	334.11678290367126	pulse	1	t		79.0	2.5	/experiments/Knapen_AOT/AOT_stimuli/rescaled_final/1913_fw.mp4	0.0	348.2706573009491	
81	334.633376121521	fix_post	2		12	79.0	2.5	/experiments/Knapen_AOT/AOT_stimuli/rescaled_final/1913_fw.mp4	0.0	348.7872505187988	0.10002326965332031
82	334.7333993911743	fix_pre	0		119	80.0	2.5	/experiments/Knapen_AOT/AOT_stimuli/rescaled_final/0936_rv.mp4	0.0	348.88727378845215	0.9921207427978516
82	335.7169840335846	pulse	0	t		80.0	2.5	/experiments/Knapen_AOT/AOT_stimuli/rescaled_final/0936_rv.mp4	0.0	349.8708584308624	
82	335.72552013397217	movie	1		301	80.0	2.5	/experiments/Knapen_AOT/AOT_stimuli/rescaled_final/0936_rv.mp4	0.0	349.87939453125	2.508408784866333
82	337.31733775138855	pulse	1	t		80.0	2.5	/experiments/Knapen_AOT/AOT_stimuli/rescaled_final/0936_rv.mp4	0.0	351.4712121486664	
82	338.2339289188385	fix_post	2		12	80.0	2.5	/experiments/Knapen_AOT/AOT_stimuli/rescaled_final/0936_rv.mp4	0.0	352.38780331611633	0.10001277923583984
83	338.33394169807434	fix_pre	0		120	81.0	2.5	/experiments/Knapen_AOT/AOT_stimuli/rescaled_final/1026_fw.mp4	0.0	352.4878160953522	1.000157356262207
83	338.9174659252167	pulse	0	t		81.0	2.5	/experiments/Knapen_AOT/AOT_stimuli/rescaled_final/1026_fw.mp4	0.0	353.0713403224945	
83	339.33409905433655	movie	1		300	81.0	2.5	/experiments/Knapen_AOT/AOT_stimuli/rescaled_final/1026_fw.mp4	0.0	353.4879734516144	2.500354051589966
83	340.5177915096283	pulse	1	t		81.0	2.5	/experiments/Knapen_AOT/AOT_stimuli/rescaled_final/1026_fw.mp4	0.0	354.6716659069061	
83	341.8344531059265	fix_post	2		12	81.0	2.5	/experiments/Knapen_AOT/AOT_stimuli/rescaled_final/1026_fw.mp4	0.0	355.98832750320435	0.10004520416259766
84	341.9344983100891	fix_pre	0		120	82.0	2.5	/experiments/Knapen_AOT/AOT_stimuli/rescaled_final/2171_rv.mp4	0.0	356.08837270736694	1.000121831893921
84	342.11800622940063	pulse	0	t		82.0	2.5	/experiments/Knapen_AOT/AOT_stimuli/rescaled_final/2171_rv.mp4	0.0	356.27188062667847	
84	342.93462014198303	movie	1		299	82.0	2.5	/experiments/Knapen_AOT/AOT_stimuli/rescaled_final/2171_rv.mp4	0.0	357.08849453926086	2.500386953353882
84	343.7182288169861	pulse	1	t		82.0	2.5	/experiments/Knapen_AOT/AOT_stimuli/rescaled_final/2171_rv.mp4	0.0	357.8721032142639	
84	345.3184666633606	pulse	1	t		82.0	2.5	/experiments/Knapen_AOT/AOT_stimuli/rescaled_final/2171_rv.mp4	0.0	359.4723410606384	
84	345.4350070953369	fix_post	2		12	82.0	2.5	/experiments/Knapen_AOT/AOT_stimuli/rescaled_final/2171_rv.mp4	0.0	359.58888149261475	0.1000220775604248
85	345.53502917289734	fix_pre	0		120	83.0	2.5	blank	1.0	359.68890357017517	1.000138282775879
85	346.5351674556732	movie	1		299	83.0	2.5	blank	1.0	360.68904185295105	2.4921038150787354
85	346.9186735153198	pulse	1	t		83.0	2.5	blank	1.0	361.07254791259766	
85	348.5188949108124	pulse	1	t		83.0	2.5	blank	1.0	362.6727693080902	
85	349.02727127075195	fix_post	2		12	83.0	2.5	blank	1.0	363.1811456680298	0.09996414184570312
87	349.12723541259766	stim	0		1716					363.2811098098755	14.302136898040771
87	350.11916518211365	pulse	0	t						364.2730395793915	
87	351.7193834781647	pulse	0	t						365.8732578754425	
87	353.3196427822113	pulse	0	t						367.47351717948914	
87	354.9198787212372	pulse	0	t						369.073753118515	
87	356.52016496658325	pulse	0	t						370.6740393638611	
87	358.1203384399414	pulse	0	t						372.27421283721924	
87	359.7206780910492	pulse	0	t						373.874552488327	
87	361.3208816051483	pulse	0	t						375.47475600242615	
87	362.9210844039917	pulse	0	t						377.07495880126953	
