trial_nr	onset	event_type	phase	response	nr_frames	movie_index	movie_duration	movie_file	blank	onset_abs	duration
0	0.15041399002075195	stim	0		322					23.887743949890137	2.683316946029663
0	2.825835943222046	response	0	space						26.56316590309143	
1	2.833730936050415	stim	0		16631					26.5710608959198	138.5910279750824
1	141.41689109802246	pulse	0	t						165.15422105789185	
1	141.4247589111328	stim	1		1717					165.1620888710022	14.308281183242798
1	143.016597032547	pulse	1	t						166.75392699241638	
1	144.61653900146484	pulse	1	t						168.35386896133423	
1	146.21657991409302	pulse	1	t						169.9539098739624	
1	147.81660199165344	pulse	1	t						171.55393195152283	
1	149.4165289402008	pulse	1	t						173.1538589000702	
1	151.01646995544434	pulse	1	t						174.75379991531372	
1	152.6164789199829	pulse	1	t						176.3538088798523	
1	154.21647691726685	pulse	1	t						177.95380687713623	
2	155.7330400943756	fix_pre	0		11	0.0	2.5	/experiments/AOT/AOT_stimuli/rescaled_final/0705_rv.mp4	0.0	179.470370054245	0.09163689613342285
2	155.81652307510376	pulse	0	t		0.0	2.5	/experiments/AOT/AOT_stimuli/rescaled_final/0705_rv.mp4	0.0	179.55385303497314	
2	155.82467699050903	movie	1		244	0.0	2.5	/experiments/AOT/AOT_stimuli/rescaled_final/0705_rv.mp4	0.0	179.56200695037842	2.5083389282226562
2	157.41779804229736	pulse	1	t		0.0	2.5	/experiments/AOT/AOT_stimuli/rescaled_final/0705_rv.mp4	0.0	181.15512800216675	
2	158.3330159187317	fix_post	2		12	0.0	2.5	/experiments/AOT/AOT_stimuli/rescaled_final/0705_rv.mp4	0.0	182.07034587860107	0.10006904602050781
3	158.4330849647522	fix_pre	0		120	1.0	2.5	/experiments/AOT/AOT_stimuli/rescaled_final/1283_rv.mp4	0.0	182.17041492462158	1.0000121593475342
3	159.01652097702026	pulse	0	t		1.0	2.5	/experiments/AOT/AOT_stimuli/rescaled_final/1283_rv.mp4	0.0	182.75385093688965	
3	159.43309712409973	movie	1		245	1.0	2.5	/experiments/AOT/AOT_stimuli/rescaled_final/1283_rv.mp4	0.0	183.17042708396912	2.499924898147583
3	160.61653804779053	pulse	1	t		1.0	2.5	/experiments/AOT/AOT_stimuli/rescaled_final/1283_rv.mp4	0.0	184.3538680076599	
3	161.93302202224731	fix_post	2		12	1.0	2.5	/experiments/AOT/AOT_stimuli/rescaled_final/1283_rv.mp4	0.0	185.6703519821167	0.09996891021728516
4	162.0329909324646	fix_pre	0		120	2.0	2.5	/experiments/AOT/AOT_stimuli/rescaled_final/0358_rv.mp4	0.0	185.77032089233398	1.0000040531158447
4	162.21647691726685	pulse	0	t		2.0	2.5	/experiments/AOT/AOT_stimuli/rescaled_final/0358_rv.mp4	0.0	185.95380687713623	
4	163.03299498558044	movie	1		243	2.0	2.5	/experiments/AOT/AOT_stimuli/rescaled_final/0358_rv.mp4	0.0	186.77032494544983	2.4995639324188232
4	163.8165318965912	pulse	1	t		2.0	2.5	/experiments/AOT/AOT_stimuli/rescaled_final/0358_rv.mp4	0.0	187.55386185646057	
4	165.41490602493286	pulse	1	t		2.0	2.5	/experiments/AOT/AOT_stimuli/rescaled_final/0358_rv.mp4	0.0	189.15223598480225	
4	165.53255891799927	fix_post	2		12	2.0	2.5	/experiments/AOT/AOT_stimuli/rescaled_final/0358_rv.mp4	0.0	189.26988887786865	0.10042214393615723
5	165.63298106193542	fix_pre	0		120	3.0	2.5	/experiments/AOT/AOT_stimuli/rescaled_final/0020_fw.mp4	0.0	189.3703110218048	1.000035047531128
5	166.63301610946655	movie	1		245	3.0	2.5	/experiments/AOT/AOT_stimuli/rescaled_final/0020_fw.mp4	0.0	190.37034606933594	2.4999887943267822
5	167.0163950920105	pulse	1	t		3.0	2.5	/experiments/AOT/AOT_stimuli/rescaled_final/0020_fw.mp4	0.0	190.75372505187988	
5	168.61641597747803	pulse	1	t		3.0	2.5	/experiments/AOT/AOT_stimuli/rescaled_final/0020_fw.mp4	0.0	192.3537459373474	
5	169.13300490379333	fix_post	2		12	3.0	2.5	/experiments/AOT/AOT_stimuli/rescaled_final/0020_fw.mp4	0.0	192.87033486366272	0.09998011589050293
6	169.23298501968384	fix_pre	0		119	4.0	2.5	/experiments/AOT/AOT_stimuli/rescaled_final/1454_fw.mp4	0.0	192.97031497955322	0.9916279315948486
6	170.21638298034668	pulse	0	t		4.0	2.5	/experiments/AOT/AOT_stimuli/rescaled_final/1454_fw.mp4	0.0	193.95371294021606	
6	170.2246129512787	movie	1		245	4.0	2.5	/experiments/AOT/AOT_stimuli/rescaled_final/1454_fw.mp4	0.0	193.96194291114807	2.5091211795806885
6	171.81626105308533	pulse	1	t		4.0	2.5	/experiments/AOT/AOT_stimuli/rescaled_final/1454_fw.mp4	0.0	195.5535910129547	
6	172.73373413085938	fix_post	2		12	4.0	2.5	/experiments/AOT/AOT_stimuli/rescaled_final/1454_fw.mp4	0.0	196.47106409072876	0.09936785697937012
7	172.83310198783875	fix_pre	0		120	5.0	2.5	blank	1.0	196.57043194770813	0.9998979568481445
7	173.41644096374512	pulse	0	t		5.0	2.5	blank	1.0	197.1537709236145	
7	173.8329999446869	movie	1		300	5.0	2.5	blank	1.0	197.57032990455627	2.4998881816864014
7	175.01639890670776	pulse	1	t		5.0	2.5	blank	1.0	198.75372886657715	
7	176.3328881263733	fix_post	2		12	5.0	2.5	blank	1.0	200.07021808624268	0.10008597373962402
8	176.43297410011292	fix_pre	0		120	6.0	2.5	/experiments/AOT/AOT_stimuli/rescaled_final/0041_rv.mp4	0.0	200.1703040599823	1.0000619888305664
8	176.6163980960846	pulse	0	t		6.0	2.5	/experiments/AOT/AOT_stimuli/rescaled_final/0041_rv.mp4	0.0	200.35372805595398	
8	177.43303608894348	movie	1		245	6.0	2.5	/experiments/AOT/AOT_stimuli/rescaled_final/0041_rv.mp4	0.0	201.17036604881287	2.4998409748077393
8	178.21640300750732	pulse	1	t		6.0	2.5	/experiments/AOT/AOT_stimuli/rescaled_final/0041_rv.mp4	0.0	201.9537329673767	
8	179.81695199012756	pulse	1	t		6.0	2.5	/experiments/AOT/AOT_stimuli/rescaled_final/0041_rv.mp4	0.0	203.55428194999695	
8	179.93287706375122	fix_post	2		12	6.0	2.5	/experiments/AOT/AOT_stimuli/rescaled_final/0041_rv.mp4	0.0	203.6702070236206	0.09961795806884766
9	180.03249502182007	fix_pre	0		120	7.0	2.5	/experiments/AOT/AOT_stimuli/rescaled_final/0866_rv.mp4	0.0	203.76982498168945	0.999985933303833
9	181.0324809551239	movie	1		245	7.0	2.5	/experiments/AOT/AOT_stimuli/rescaled_final/0866_rv.mp4	0.0	204.7698109149933	2.500976085662842
9	181.41551208496094	pulse	1	t		7.0	2.5	/experiments/AOT/AOT_stimuli/rescaled_final/0866_rv.mp4	0.0	205.15284204483032	
9	183.01621508598328	pulse	1	t		7.0	2.5	/experiments/AOT/AOT_stimuli/rescaled_final/0866_rv.mp4	0.0	206.75354504585266	
9	183.53345704078674	fix_post	2		12	7.0	2.5	/experiments/AOT/AOT_stimuli/rescaled_final/0866_rv.mp4	0.0	207.27078700065613	0.09937500953674316
10	183.6328320503235	fix_pre	0		119	8.0	2.5	/experiments/AOT/AOT_stimuli/rescaled_final/0651_fw.mp4	0.0	207.37016201019287	0.9917230606079102
10	184.6163890361786	pulse	0	t		8.0	2.5	/experiments/AOT/AOT_stimuli/rescaled_final/0651_fw.mp4	0.0	208.35371899604797	
10	184.6245551109314	movie	1		245	8.0	2.5	/experiments/AOT/AOT_stimuli/rescaled_final/0651_fw.mp4	0.0	208.36188507080078	2.5083248615264893
10	186.2161099910736	pulse	1	t		8.0	2.5	/experiments/AOT/AOT_stimuli/rescaled_final/0651_fw.mp4	0.0	209.953439950943	
10	187.13287997245789	fix_post	2		12	8.0	2.5	/experiments/AOT/AOT_stimuli/rescaled_final/0651_fw.mp4	0.0	210.87020993232727	0.10007500648498535
11	187.23295497894287	fix_pre	0		120	9.0	2.5	/experiments/AOT/AOT_stimuli/rescaled_final/1648_rv.mp4	0.0	210.97028493881226	0.9998950958251953
11	187.81643795967102	pulse	0	t		9.0	2.5	/experiments/AOT/AOT_stimuli/rescaled_final/1648_rv.mp4	0.0	211.5537679195404	
11	188.23285007476807	movie	1		244	9.0	2.5	/experiments/AOT/AOT_stimuli/rescaled_final/1648_rv.mp4	0.0	211.97018003463745	2.5000669956207275
11	189.41642093658447	pulse	1	t		9.0	2.5	/experiments/AOT/AOT_stimuli/rescaled_final/1648_rv.mp4	0.0	213.15375089645386	
11	190.7329170703888	fix_post	2		12	9.0	2.5	/experiments/AOT/AOT_stimuli/rescaled_final/1648_rv.mp4	0.0	214.47024703025818	0.0999300479888916
12	190.83284711837769	fix_pre	0		120	10.0	2.5	/experiments/AOT/AOT_stimuli/rescaled_final/1959_rv.mp4	0.0	214.57017707824707	1.000006914138794
12	191.01634192466736	pulse	0	t		10.0	2.5	/experiments/AOT/AOT_stimuli/rescaled_final/1959_rv.mp4	0.0	214.75367188453674	
12	191.83285403251648	movie	1		243	10.0	2.5	/experiments/AOT/AOT_stimuli/rescaled_final/1959_rv.mp4	0.0	215.57018399238586	2.4999940395355225
12	192.61631298065186	pulse	1	t		10.0	2.5	/experiments/AOT/AOT_stimuli/rescaled_final/1959_rv.mp4	0.0	216.35364294052124	
12	194.21492099761963	pulse	1	t		10.0	2.5	/experiments/AOT/AOT_stimuli/rescaled_final/1959_rv.mp4	0.0	217.952250957489	
12	194.332848072052	fix_post	2		12	10.0	2.5	/experiments/AOT/AOT_stimuli/rescaled_final/1959_rv.mp4	0.0	218.0701780319214	0.09998393058776855
13	194.43283200263977	fix_pre	0		120	11.0	2.5	/experiments/AOT/AOT_stimuli/rescaled_final/1319_fw.mp4	0.0	218.17016196250916	0.999985933303833
13	195.4328179359436	movie	1		245	11.0	2.5	/experiments/AOT/AOT_stimuli/rescaled_final/1319_fw.mp4	0.0	219.170147895813	2.4999561309814453
13	195.81606006622314	pulse	1	t		11.0	2.5	/experiments/AOT/AOT_stimuli/rescaled_final/1319_fw.mp4	0.0	219.55339002609253	
13	197.41621494293213	pulse	1	t		11.0	2.5	/experiments/AOT/AOT_stimuli/rescaled_final/1319_fw.mp4	0.0	221.1535449028015	
13	197.93277406692505	fix_post	2		12	11.0	2.5	/experiments/AOT/AOT_stimuli/rescaled_final/1319_fw.mp4	0.0	221.67010402679443	0.10001301765441895
14	198.03278708457947	fix_pre	0		119	12.0	2.5	/experiments/AOT/AOT_stimuli/rescaled_final/1906_fw.mp4	0.0	221.77011704444885	0.9917049407958984
14	199.01634311676025	pulse	0	t		12.0	2.5	/experiments/AOT/AOT_stimuli/rescaled_final/1906_fw.mp4	0.0	222.75367307662964	
14	199.02449202537537	movie	1		248	12.0	2.5	/experiments/AOT/AOT_stimuli/rescaled_final/1906_fw.mp4	0.0	222.76182198524475	2.508352041244507
14	200.61580610275269	pulse	1	t		12.0	2.5	/experiments/AOT/AOT_stimuli/rescaled_final/1906_fw.mp4	0.0	224.35313606262207	
14	201.53284406661987	fix_post	2		12	12.0	2.5	/experiments/AOT/AOT_stimuli/rescaled_final/1906_fw.mp4	0.0	225.27017402648926	0.09988689422607422
15	201.63273096084595	fix_pre	0		120	13.0	2.5	/experiments/AOT/AOT_stimuli/rescaled_final/1913_fw.mp4	0.0	225.37006092071533	1.0000929832458496
15	202.2163541316986	pulse	0	t		13.0	2.5	/experiments/AOT/AOT_stimuli/rescaled_final/1913_fw.mp4	0.0	225.953684091568	
15	202.6328239440918	movie	1		245	13.0	2.5	/experiments/AOT/AOT_stimuli/rescaled_final/1913_fw.mp4	0.0	226.37015390396118	2.4999260902404785
15	203.8163459300995	pulse	1	t		13.0	2.5	/experiments/AOT/AOT_stimuli/rescaled_final/1913_fw.mp4	0.0	227.55367588996887	
15	205.13275003433228	fix_post	2		12	13.0	2.5	/experiments/AOT/AOT_stimuli/rescaled_final/1913_fw.mp4	0.0	228.87007999420166	0.10005402565002441
16	205.2328040599823	fix_pre	0		120	14.0	2.5	blank	1.0	228.97013401985168	0.9999449253082275
16	205.41628694534302	pulse	0	t		14.0	2.5	blank	1.0	229.1536169052124	
16	206.23274898529053	movie	1		300	14.0	2.5	blank	1.0	229.9700789451599	2.5000460147857666
16	207.01628303527832	pulse	1	t		14.0	2.5	blank	1.0	230.7536129951477	
16	208.6162760257721	pulse	1	t		14.0	2.5	blank	1.0	232.35360598564148	
16	208.7327950000763	fix_post	2		12	14.0	2.5	blank	1.0	232.47012495994568	0.0999290943145752
17	208.83272409439087	fix_pre	0		120	15.0	2.5	/experiments/AOT/AOT_stimuli/rescaled_final/1619_rv.mp4	0.0	232.57005405426025	1.0001139640808105
17	209.83283805847168	movie	1		244	15.0	2.5	/experiments/AOT/AOT_stimuli/rescaled_final/1619_rv.mp4	0.0	233.57016801834106	2.4999189376831055
17	210.21587491035461	pulse	1	t		15.0	2.5	/experiments/AOT/AOT_stimuli/rescaled_final/1619_rv.mp4	0.0	233.953204870224	
17	211.81624794006348	pulse	1	t		15.0	2.5	/experiments/AOT/AOT_stimuli/rescaled_final/1619_rv.mp4	0.0	235.55357789993286	
17	212.33275699615479	fix_post	2		12	15.0	2.5	/experiments/AOT/AOT_stimuli/rescaled_final/1619_rv.mp4	0.0	236.07008695602417	0.09998297691345215
18	212.43273997306824	fix_pre	0		119	16.0	2.5	/experiments/AOT/AOT_stimuli/rescaled_final/0283_rv.mp4	0.0	236.17006993293762	0.9917259216308594
18	213.4162619113922	pulse	0	t		16.0	2.5	/experiments/AOT/AOT_stimuli/rescaled_final/0283_rv.mp4	0.0	237.1535918712616	
18	213.4244658946991	movie	1		244	16.0	2.5	/experiments/AOT/AOT_stimuli/rescaled_final/0283_rv.mp4	0.0	237.16179585456848	2.508225202560425
18	215.01724696159363	pulse	1	t		16.0	2.5	/experiments/AOT/AOT_stimuli/rescaled_final/0283_rv.mp4	0.0	238.754576921463	
18	215.93269109725952	fix_post	2		12	16.0	2.5	/experiments/AOT/AOT_stimuli/rescaled_final/0283_rv.mp4	0.0	239.6700210571289	0.1000208854675293
19	216.03271198272705	fix_pre	0		120	17.0	2.5	/experiments/AOT/AOT_stimuli/rescaled_final/0118_rv.mp4	0.0	239.77004194259644	1.0000190734863281
19	216.6162350177765	pulse	0	t		17.0	2.5	/experiments/AOT/AOT_stimuli/rescaled_final/0118_rv.mp4	0.0	240.35356497764587	
19	217.03273105621338	movie	1		243	17.0	2.5	/experiments/AOT/AOT_stimuli/rescaled_final/0118_rv.mp4	0.0	240.77006101608276	2.4995720386505127
19	218.21630096435547	pulse	1	t		17.0	2.5	/experiments/AOT/AOT_stimuli/rescaled_final/0118_rv.mp4	0.0	241.95363092422485	
19	219.5323030948639	fix_post	2		12	17.0	2.5	/experiments/AOT/AOT_stimuli/rescaled_final/0118_rv.mp4	0.0	243.26963305473328	0.10045099258422852
20	219.63275408744812	fix_pre	0		120	18.0	2.5	/experiments/AOT/AOT_stimuli/rescaled_final/1782_rv.mp4	0.0	243.3700840473175	0.9999489784240723
20	219.81623697280884	pulse	0	t		18.0	2.5	/experiments/AOT/AOT_stimuli/rescaled_final/1782_rv.mp4	0.0	243.55356693267822	
20	220.6327030658722	movie	1		244	18.0	2.5	/experiments/AOT/AOT_stimuli/rescaled_final/1782_rv.mp4	0.0	244.37003302574158	2.499966859817505
20	221.4162940979004	pulse	1	t		18.0	2.5	/experiments/AOT/AOT_stimuli/rescaled_final/1782_rv.mp4	0.0	245.15362405776978	
20	223.01450896263123	pulse	1	t		18.0	2.5	/experiments/AOT/AOT_stimuli/rescaled_final/1782_rv.mp4	0.0	246.7518389225006	
20	223.1326699256897	fix_post	2		12	18.0	2.5	/experiments/AOT/AOT_stimuli/rescaled_final/1782_rv.mp4	0.0	246.86999988555908	0.1000370979309082
21	223.2327070236206	fix_pre	0		120	19.0	2.5	blank	1.0	246.97003698349	0.9999749660491943
21	224.2326819896698	movie	1		300	19.0	2.5	blank	1.0	247.97001194953918	2.5000739097595215
21	224.6161949634552	pulse	1	t		19.0	2.5	blank	1.0	248.35352492332458	
21	226.21619200706482	pulse	1	t		19.0	2.5	blank	1.0	249.9535219669342	
21	226.73275589942932	fix_post	2		12	19.0	2.5	blank	1.0	250.4700858592987	0.099884033203125
22	226.83263993263245	fix_pre	0		119	20.0	2.5	/experiments/AOT/AOT_stimuli/rescaled_final/1490_rv.mp4	0.0	250.56996989250183	0.991724967956543
22	227.81624102592468	pulse	0	t		20.0	2.5	/experiments/AOT/AOT_stimuli/rescaled_final/1490_rv.mp4	0.0	251.55357098579407	
22	227.824364900589	movie	1		244	20.0	2.5	/experiments/AOT/AOT_stimuli/rescaled_final/1490_rv.mp4	0.0	251.56169486045837	2.5083560943603516
22	229.4174280166626	pulse	1	t		20.0	2.5	/experiments/AOT/AOT_stimuli/rescaled_final/1490_rv.mp4	0.0	253.15475797653198	
22	230.33272099494934	fix_post	2		12	20.0	2.5	/experiments/AOT/AOT_stimuli/rescaled_final/1490_rv.mp4	0.0	254.07005095481873	0.09991598129272461
23	230.43263697624207	fix_pre	0		120	21.0	2.5	/experiments/AOT/AOT_stimuli/rescaled_final/1406_rv.mp4	0.0	254.16996693611145	0.99993896484375
23	231.01620507240295	pulse	0	t		21.0	2.5	/experiments/AOT/AOT_stimuli/rescaled_final/1406_rv.mp4	0.0	254.75353503227234	
23	231.43257594108582	movie	1		243	21.0	2.5	/experiments/AOT/AOT_stimuli/rescaled_final/1406_rv.mp4	0.0	255.1699059009552	2.500148057937622
23	232.61619806289673	pulse	1	t		21.0	2.5	/experiments/AOT/AOT_stimuli/rescaled_final/1406_rv.mp4	0.0	256.3535280227661	
23	233.93272399902344	fix_post	2		12	21.0	2.5	/experiments/AOT/AOT_stimuli/rescaled_final/1406_rv.mp4	0.0	257.6700539588928	0.1000521183013916
24	234.03277611732483	fix_pre	0		120	22.0	2.5	/experiments/AOT/AOT_stimuli/rescaled_final/0768_rv.mp4	0.0	257.7701060771942	0.9999568462371826
24	234.21616792678833	pulse	0	t		22.0	2.5	/experiments/AOT/AOT_stimuli/rescaled_final/0768_rv.mp4	0.0	257.9534978866577	
24	235.032732963562	movie	1		244	22.0	2.5	/experiments/AOT/AOT_stimuli/rescaled_final/0768_rv.mp4	0.0	258.7700629234314	2.499516010284424
24	235.81566905975342	pulse	1	t		22.0	2.5	/experiments/AOT/AOT_stimuli/rescaled_final/0768_rv.mp4	0.0	259.5529990196228	
24	237.4142189025879	pulse	1	t		22.0	2.5	/experiments/AOT/AOT_stimuli/rescaled_final/0768_rv.mp4	0.0	261.1515488624573	
24	237.53224897384644	fix_post	2		12	22.0	2.5	/experiments/AOT/AOT_stimuli/rescaled_final/0768_rv.mp4	0.0	261.2695789337158	0.10046100616455078
25	237.632709980011	fix_pre	0		120	23.0	2.5	/experiments/AOT/AOT_stimuli/rescaled_final/1552_fw.mp4	0.0	261.37003993988037	1.0001461505889893
25	238.63285613059998	movie	1		243	23.0	2.5	/experiments/AOT/AOT_stimuli/rescaled_final/1552_fw.mp4	0.0	262.37018609046936	2.4993538856506348
25	239.01637601852417	pulse	1	t		23.0	2.5	/experiments/AOT/AOT_stimuli/rescaled_final/1552_fw.mp4	0.0	262.75370597839355	
25	240.61616396903992	pulse	1	t		23.0	2.5	/experiments/AOT/AOT_stimuli/rescaled_final/1552_fw.mp4	0.0	264.3534939289093	
25	241.1322100162506	fix_post	2		12	23.0	2.5	/experiments/AOT/AOT_stimuli/rescaled_final/1552_fw.mp4	0.0	264.86953997612	0.10037398338317871
26	241.2325839996338	fix_pre	0		119	24.0	2.5	/experiments/AOT/AOT_stimuli/rescaled_final/0522_rv.mp4	0.0	264.9699139595032	0.9916999340057373
26	242.2160999774933	pulse	0	t		24.0	2.5	/experiments/AOT/AOT_stimuli/rescaled_final/0522_rv.mp4	0.0	265.95342993736267	
26	242.22428393363953	movie	1		246	24.0	2.5	/experiments/AOT/AOT_stimuli/rescaled_final/0522_rv.mp4	0.0	265.9616138935089	2.5082671642303467
26	243.81630110740662	pulse	1	t		24.0	2.5	/experiments/AOT/AOT_stimuli/rescaled_final/0522_rv.mp4	0.0	267.553631067276	
26	244.73255109786987	fix_post	2		12	24.0	2.5	/experiments/AOT/AOT_stimuli/rescaled_final/0522_rv.mp4	0.0	268.46988105773926	0.10000991821289062
27	244.83256101608276	fix_pre	0		120	25.0	2.5	/experiments/AOT/AOT_stimuli/rescaled_final/1127_rv.mp4	0.0	268.56989097595215	0.9999969005584717
27	245.4160759449005	pulse	0	t		25.0	2.5	/experiments/AOT/AOT_stimuli/rescaled_final/1127_rv.mp4	0.0	269.1534059047699	
27	245.83255791664124	movie	1		247	25.0	2.5	/experiments/AOT/AOT_stimuli/rescaled_final/1127_rv.mp4	0.0	269.5698878765106	2.500002145767212
27	247.01619410514832	pulse	1	t		25.0	2.5	/experiments/AOT/AOT_stimuli/rescaled_final/1127_rv.mp4	0.0	270.7535240650177	
27	248.33256006240845	fix_post	2		12	25.0	2.5	/experiments/AOT/AOT_stimuli/rescaled_final/1127_rv.mp4	0.0	272.06989002227783	0.09995293617248535
28	248.43251299858093	fix_pre	0		120	26.0	2.5	blank	1.0	272.1698429584503	0.9999630451202393
28	248.61608600616455	pulse	0	t		26.0	2.5	blank	1.0	272.35341596603394	
28	249.43247604370117	movie	1		300	26.0	2.5	blank	1.0	273.16980600357056	2.500062942504883
28	250.21607398986816	pulse	1	t		26.0	2.5	blank	1.0	273.95340394973755	
28	251.81602096557617	pulse	1	t		26.0	2.5	blank	1.0	275.55335092544556	
28	251.93253898620605	fix_post	2		12	26.0	2.5	blank	1.0	275.66986894607544	0.0999600887298584
29	252.0324990749359	fix_pre	0		120	27.0	2.5	/experiments/AOT/AOT_stimuli/rescaled_final/0595_fw.mp4	0.0	275.7698290348053	1.0000269412994385
29	253.03252601623535	movie	1		243	27.0	2.5	/experiments/AOT/AOT_stimuli/rescaled_final/0595_fw.mp4	0.0	276.76985597610474	2.500009059906006
29	253.4159369468689	pulse	1	t		27.0	2.5	/experiments/AOT/AOT_stimuli/rescaled_final/0595_fw.mp4	0.0	277.1532669067383	
29	255.01599097251892	pulse	1	t		27.0	2.5	/experiments/AOT/AOT_stimuli/rescaled_final/0595_fw.mp4	0.0	278.7533209323883	
29	255.53253507614136	fix_post	2		12	27.0	2.5	/experiments/AOT/AOT_stimuli/rescaled_final/0595_fw.mp4	0.0	279.26986503601074	0.09994292259216309
30	255.63247799873352	fix_pre	0		119	28.0	2.5	/experiments/AOT/AOT_stimuli/rescaled_final/0805_rv.mp4	0.0	279.3698079586029	0.9917659759521484
30	256.6161139011383	pulse	0	t		28.0	2.5	/experiments/AOT/AOT_stimuli/rescaled_final/0805_rv.mp4	0.0	280.3534438610077	
30	256.62424397468567	movie	1		246	28.0	2.5	/experiments/AOT/AOT_stimuli/rescaled_final/0805_rv.mp4	0.0	280.36157393455505	2.5082061290740967
30	258.2155010700226	pulse	1	t		28.0	2.5	/experiments/AOT/AOT_stimuli/rescaled_final/0805_rv.mp4	0.0	281.95283102989197	
30	259.13245010375977	fix_post	2		12	28.0	2.5	/experiments/AOT/AOT_stimuli/rescaled_final/0805_rv.mp4	0.0	282.86978006362915	0.1000368595123291
31	259.2324869632721	fix_pre	0		120	29.0	2.5	/experiments/AOT/AOT_stimuli/rescaled_final/1997_rv.mp4	0.0	282.9698169231415	0.9999940395355225
31	259.81599712371826	pulse	0	t		29.0	2.5	/experiments/AOT/AOT_stimuli/rescaled_final/1997_rv.mp4	0.0	283.55332708358765	
31	260.2324810028076	movie	1		242	29.0	2.5	/experiments/AOT/AOT_stimuli/rescaled_final/1997_rv.mp4	0.0	283.969810962677	2.4999630451202393
31	261.41608691215515	pulse	1	t		29.0	2.5	/experiments/AOT/AOT_stimuli/rescaled_final/1997_rv.mp4	0.0	285.15341687202454	
31	262.73244404792786	fix_post	2		12	29.0	2.5	/experiments/AOT/AOT_stimuli/rescaled_final/1997_rv.mp4	0.0	286.46977400779724	0.10003495216369629
32	262.83247900009155	fix_pre	0		120	30.0	2.5	/experiments/AOT/AOT_stimuli/rescaled_final/0692_rv.mp4	0.0	286.56980895996094	1.00006103515625
32	263.0160460472107	pulse	0	t		30.0	2.5	/experiments/AOT/AOT_stimuli/rescaled_final/0692_rv.mp4	0.0	286.7533760070801	
32	263.8325400352478	movie	1		245	30.0	2.5	/experiments/AOT/AOT_stimuli/rescaled_final/0692_rv.mp4	0.0	287.5698699951172	2.500014066696167
32	264.6161000728607	pulse	1	t		30.0	2.5	/experiments/AOT/AOT_stimuli/rescaled_final/0692_rv.mp4	0.0	288.3534300327301	
32	266.2142870426178	pulse	1	t		30.0	2.5	/experiments/AOT/AOT_stimuli/rescaled_final/0692_rv.mp4	0.0	289.9516170024872	
32	266.33255410194397	fix_post	2		12	30.0	2.5	/experiments/AOT/AOT_stimuli/rescaled_final/0692_rv.mp4	0.0	290.06988406181335	0.09984779357910156
33	266.43240189552307	fix_pre	0		120	31.0	2.5	/experiments/AOT/AOT_stimuli/rescaled_final/1997_fw.mp4	0.0	290.16973185539246	1.0001041889190674
33	267.43250608444214	movie	1		245	31.0	2.5	/experiments/AOT/AOT_stimuli/rescaled_final/1997_fw.mp4	0.0	291.1698360443115	2.499955892562866
33	267.8154149055481	pulse	1	t		31.0	2.5	/experiments/AOT/AOT_stimuli/rescaled_final/1997_fw.mp4	0.0	291.5527448654175	
33	269.4159710407257	pulse	1	t		31.0	2.5	/experiments/AOT/AOT_stimuli/rescaled_final/1997_fw.mp4	0.0	293.1533010005951	
33	269.932461977005	fix_post	2		12	31.0	2.5	/experiments/AOT/AOT_stimuli/rescaled_final/1997_fw.mp4	0.0	293.6697919368744	0.10003399848937988
34	270.0324959754944	fix_pre	0		119	32.0	2.5	/experiments/AOT/AOT_stimuli/rescaled_final/1771_rv.mp4	0.0	293.76982593536377	0.99167799949646
34	271.01594495773315	pulse	0	t		32.0	2.5	/experiments/AOT/AOT_stimuli/rescaled_final/1771_rv.mp4	0.0	294.75327491760254	
34	271.02417397499084	movie	1		247	32.0	2.5	/experiments/AOT/AOT_stimuli/rescaled_final/1771_rv.mp4	0.0	294.76150393486023	2.5082950592041016
34	272.6155149936676	pulse	1	t		32.0	2.5	/experiments/AOT/AOT_stimuli/rescaled_final/1771_rv.mp4	0.0	296.352844953537	
34	273.53246903419495	fix_post	2		12	32.0	2.5	/experiments/AOT/AOT_stimuli/rescaled_final/1771_rv.mp4	0.0	297.26979899406433	0.09998488426208496
35	273.63245391845703	fix_pre	0		120	33.0	2.5	/experiments/AOT/AOT_stimuli/rescaled_final/1374_fw.mp4	0.0	297.3697838783264	1.0000171661376953
35	274.2159540653229	pulse	0	t		33.0	2.5	/experiments/AOT/AOT_stimuli/rescaled_final/1374_fw.mp4	0.0	297.95328402519226	
35	274.6324710845947	movie	1		244	33.0	2.5	/experiments/AOT/AOT_stimuli/rescaled_final/1374_fw.mp4	0.0	298.3698010444641	2.5004279613494873
35	275.81602597236633	pulse	1	t		33.0	2.5	/experiments/AOT/AOT_stimuli/rescaled_final/1374_fw.mp4	0.0	299.5533559322357	
35	277.1328990459442	fix_post	2		12	33.0	2.5	/experiments/AOT/AOT_stimuli/rescaled_final/1374_fw.mp4	0.0	300.8702290058136	0.09956192970275879
36	277.232460975647	fix_pre	0		120	34.0	2.5	blank	1.0	300.96979093551636	1.0000760555267334
36	277.41584396362305	pulse	0	t		34.0	2.5	blank	1.0	301.15317392349243	
36	278.2325370311737	movie	1		300	34.0	2.5	blank	1.0	301.9698669910431	2.4998669624328613
36	279.0159389972687	pulse	1	t		34.0	2.5	blank	1.0	302.75326895713806	
36	280.6159439086914	pulse	1	t		34.0	2.5	blank	1.0	304.3532738685608	
36	280.73240399360657	fix_post	2		12	34.0	2.5	blank	1.0	304.46973395347595	0.10000801086425781
37	280.8324120044708	fix_pre	0		120	35.0	2.5	/experiments/AOT/AOT_stimuli/rescaled_final/1914_rv.mp4	0.0	304.5697419643402	0.9999260902404785
37	281.8323380947113	movie	1		244	35.0	2.5	/experiments/AOT/AOT_stimuli/rescaled_final/1914_rv.mp4	0.0	305.5696680545807	2.5000689029693604
37	282.2167820930481	pulse	1	t		35.0	2.5	/experiments/AOT/AOT_stimuli/rescaled_final/1914_rv.mp4	0.0	305.9541120529175	
37	283.8158769607544	pulse	1	t		35.0	2.5	/experiments/AOT/AOT_stimuli/rescaled_final/1914_rv.mp4	0.0	307.5532069206238	
37	284.33240699768066	fix_post	2		12	35.0	2.5	/experiments/AOT/AOT_stimuli/rescaled_final/1914_rv.mp4	0.0	308.06973695755005	0.10001897811889648
38	284.43242597579956	fix_pre	0		119	36.0	2.5	/experiments/AOT/AOT_stimuli/rescaled_final/0877_fw.mp4	0.0	308.16975593566895	0.9916229248046875
38	285.4159150123596	pulse	0	t		36.0	2.5	/experiments/AOT/AOT_stimuli/rescaled_final/0877_fw.mp4	0.0	309.153244972229	
38	285.42404890060425	movie	1		245	36.0	2.5	/experiments/AOT/AOT_stimuli/rescaled_final/0877_fw.mp4	0.0	309.16137886047363	2.5087602138519287
38	287.01560497283936	pulse	1	t		36.0	2.5	/experiments/AOT/AOT_stimuli/rescaled_final/0877_fw.mp4	0.0	310.75293493270874	
38	287.9328091144562	fix_post	2		12	36.0	2.5	/experiments/AOT/AOT_stimuli/rescaled_final/0877_fw.mp4	0.0	311.67013907432556	0.09960579872131348
39	288.0324149131775	fix_pre	0		120	37.0	2.5	/experiments/AOT/AOT_stimuli/rescaled_final/0426_fw.mp4	0.0	311.7697448730469	0.9999570846557617
39	288.6160559654236	pulse	0	t		37.0	2.5	/experiments/AOT/AOT_stimuli/rescaled_final/0426_fw.mp4	0.0	312.35338592529297	
39	289.03237199783325	movie	1		245	37.0	2.5	/experiments/AOT/AOT_stimuli/rescaled_final/0426_fw.mp4	0.0	312.76970195770264	2.5000269412994385
39	290.2160859107971	pulse	1	t		37.0	2.5	/experiments/AOT/AOT_stimuli/rescaled_final/0426_fw.mp4	0.0	313.9534158706665	
39	291.5323989391327	fix_post	2		12	37.0	2.5	/experiments/AOT/AOT_stimuli/rescaled_final/0426_fw.mp4	0.0	315.2697288990021	0.09998202323913574
40	291.6323809623718	fix_pre	0		120	38.0	2.5	/experiments/AOT/AOT_stimuli/rescaled_final/0494_fw.mp4	0.0	315.3697109222412	0.9996261596679688
40	291.8154089450836	pulse	0	t		38.0	2.5	/experiments/AOT/AOT_stimuli/rescaled_final/0494_fw.mp4	0.0	315.552738904953	
40	292.6320071220398	movie	1		243	38.0	2.5	/experiments/AOT/AOT_stimuli/rescaled_final/0494_fw.mp4	0.0	316.3693370819092	2.5002589225769043
40	293.41548705101013	pulse	1	t		38.0	2.5	/experiments/AOT/AOT_stimuli/rescaled_final/0494_fw.mp4	0.0	317.1528170108795	
40	295.01408791542053	pulse	1	t		38.0	2.5	/experiments/AOT/AOT_stimuli/rescaled_final/0494_fw.mp4	0.0	318.7514178752899	
40	295.1322660446167	fix_post	2		12	38.0	2.5	/experiments/AOT/AOT_stimuli/rescaled_final/0494_fw.mp4	0.0	318.8695960044861	0.10041999816894531
41	295.23268604278564	fix_pre	0		120	39.0	2.5	/experiments/AOT/AOT_stimuli/rescaled_final/0054_rv.mp4	0.0	318.97001600265503	0.9996829032897949
41	296.23236894607544	movie	1		246	39.0	2.5	/experiments/AOT/AOT_stimuli/rescaled_final/0054_rv.mp4	0.0	319.9696989059448	2.500080108642578
41	296.6154670715332	pulse	1	t		39.0	2.5	/experiments/AOT/AOT_stimuli/rescaled_final/0054_rv.mp4	0.0	320.3527970314026	
41	298.21582102775574	pulse	1	t		39.0	2.5	/experiments/AOT/AOT_stimuli/rescaled_final/0054_rv.mp4	0.0	321.9531509876251	
41	298.732449054718	fix_post	2		12	39.0	2.5	/experiments/AOT/AOT_stimuli/rescaled_final/0054_rv.mp4	0.0	322.4697790145874	0.0998990535736084
42	298.8323481082916	fix_pre	0		119	40.0	2.5	/experiments/AOT/AOT_stimuli/rescaled_final/2142_fw.mp4	0.0	322.569678068161	0.9916179180145264
42	299.8157660961151	pulse	0	t		40.0	2.5	/experiments/AOT/AOT_stimuli/rescaled_final/2142_fw.mp4	0.0	323.5530960559845	
42	299.82396602630615	movie	1		246	40.0	2.5	/experiments/AOT/AOT_stimuli/rescaled_final/2142_fw.mp4	0.0	323.56129598617554	2.508465051651001
42	301.41581106185913	pulse	1	t		40.0	2.5	/experiments/AOT/AOT_stimuli/rescaled_final/2142_fw.mp4	0.0	325.1531410217285	
42	302.33243107795715	fix_post	2		12	40.0	2.5	/experiments/AOT/AOT_stimuli/rescaled_final/2142_fw.mp4	0.0	326.06976103782654	0.09988188743591309
43	302.43231296539307	fix_pre	0		120	41.0	2.5	/experiments/AOT/AOT_stimuli/rescaled_final/0193_fw.mp4	0.0	326.16964292526245	0.9999899864196777
43	303.0157630443573	pulse	0	t		41.0	2.5	/experiments/AOT/AOT_stimuli/rescaled_final/0193_fw.mp4	0.0	326.7530930042267	
43	303.43230295181274	movie	1		244	41.0	2.5	/experiments/AOT/AOT_stimuli/rescaled_final/0193_fw.mp4	0.0	327.16963291168213	2.5000240802764893
43	304.6157829761505	pulse	1	t		41.0	2.5	/experiments/AOT/AOT_stimuli/rescaled_final/0193_fw.mp4	0.0	328.3531129360199	
43	305.93232703208923	fix_post	2		12	41.0	2.5	/experiments/AOT/AOT_stimuli/rescaled_final/0193_fw.mp4	0.0	329.6696569919586	0.09997987747192383
44	306.03230690956116	fix_pre	0		120	42.0	2.5	blank	1.0	329.76963686943054	1.0000200271606445
44	306.2157928943634	pulse	0	t		42.0	2.5	blank	1.0	329.9531228542328	
44	307.0323269367218	movie	1		300	42.0	2.5	blank	1.0	330.7696568965912	2.4999561309814453
44	307.81574010849	pulse	1	t		42.0	2.5	blank	1.0	331.5530700683594	
44	309.4157130718231	pulse	1	t		42.0	2.5	blank	1.0	333.1530430316925	
44	309.53228306770325	fix_post	2		12	42.0	2.5	blank	1.0	333.26961302757263	0.10005903244018555
45	309.63234210014343	fix_pre	0		120	43.0	2.5	/experiments/AOT/AOT_stimuli/rescaled_final/0283_fw.mp4	0.0	333.3696720600128	0.9999418258666992
45	310.63228392601013	movie	1		244	43.0	2.5	/experiments/AOT/AOT_stimuli/rescaled_final/0283_fw.mp4	0.0	334.3696138858795	2.5000081062316895
45	311.0153880119324	pulse	1	t		43.0	2.5	/experiments/AOT/AOT_stimuli/rescaled_final/0283_fw.mp4	0.0	334.75271797180176	
45	312.6157751083374	pulse	1	t		43.0	2.5	/experiments/AOT/AOT_stimuli/rescaled_final/0283_fw.mp4	0.0	336.3531050682068	
45	313.1322920322418	fix_post	2		12	43.0	2.5	/experiments/AOT/AOT_stimuli/rescaled_final/0283_fw.mp4	0.0	336.8696219921112	0.10001301765441895
46	313.23230504989624	fix_pre	0		119	44.0	2.5	/experiments/AOT/AOT_stimuli/rescaled_final/0651_rv.mp4	0.0	336.9696350097656	0.9916219711303711
46	314.21577310562134	pulse	0	t		44.0	2.5	/experiments/AOT/AOT_stimuli/rescaled_final/0651_rv.mp4	0.0	337.9531030654907	
46	314.2239270210266	movie	1		244	44.0	2.5	/experiments/AOT/AOT_stimuli/rescaled_final/0651_rv.mp4	0.0	337.961256980896	2.5083720684051514
46	315.81696796417236	pulse	1	t		44.0	2.5	/experiments/AOT/AOT_stimuli/rescaled_final/0651_rv.mp4	0.0	339.55429792404175	
46	316.73229908943176	fix_post	2		12	44.0	2.5	/experiments/AOT/AOT_stimuli/rescaled_final/0651_rv.mp4	0.0	340.46962904930115	0.10006999969482422
47	316.8323690891266	fix_pre	0		120	45.0	2.5	/experiments/AOT/AOT_stimuli/rescaled_final/0567_rv.mp4	0.0	340.569699048996	0.9998779296875
47	317.4157600402832	pulse	0	t		45.0	2.5	/experiments/AOT/AOT_stimuli/rescaled_final/0567_rv.mp4	0.0	341.1530900001526	
47	317.8322470188141	movie	1		245	45.0	2.5	/experiments/AOT/AOT_stimuli/rescaled_final/0567_rv.mp4	0.0	341.5695769786835	2.4999210834503174
47	319.0158860683441	pulse	1	t		45.0	2.5	/experiments/AOT/AOT_stimuli/rescaled_final/0567_rv.mp4	0.0	342.7532160282135	
47	320.3321681022644	fix_post	2		12	45.0	2.5	/experiments/AOT/AOT_stimuli/rescaled_final/0567_rv.mp4	0.0	344.0694980621338	0.10013580322265625
48	320.43230390548706	fix_pre	0		120	46.0	2.5	/experiments/AOT/AOT_stimuli/rescaled_final/0566_fw.mp4	0.0	344.16963386535645	0.999906063079834
48	320.6157410144806	pulse	0	t		46.0	2.5	/experiments/AOT/AOT_stimuli/rescaled_final/0566_fw.mp4	0.0	344.35307097435	
48	321.4322099685669	movie	1		243	46.0	2.5	/experiments/AOT/AOT_stimuli/rescaled_final/0566_fw.mp4	0.0	345.1695399284363	2.500023126602173
48	322.21573400497437	pulse	1	t		46.0	2.5	/experiments/AOT/AOT_stimuli/rescaled_final/0566_fw.mp4	0.0	345.95306396484375	
48	323.81419706344604	pulse	1	t		46.0	2.5	/experiments/AOT/AOT_stimuli/rescaled_final/0566_fw.mp4	0.0	347.55152702331543	
48	323.93223309516907	fix_post	2		12	46.0	2.5	/experiments/AOT/AOT_stimuli/rescaled_final/0566_fw.mp4	0.0	347.66956305503845	0.09999203681945801
49	324.0322251319885	fix_pre	0		120	47.0	2.5	blank	1.0	347.7695550918579	1.000046968460083
49	325.0322721004486	movie	1		300	47.0	2.5	blank	1.0	348.769602060318	2.4999778270721436
49	325.41562700271606	pulse	1	t		47.0	2.5	blank	1.0	349.15295696258545	
49	327.0157220363617	pulse	1	t		47.0	2.5	blank	1.0	350.7530519962311	
49	327.53224992752075	fix_post	2		12	47.0	2.5	blank	1.0	351.26957988739014	0.09994697570800781
50	327.63219690322876	fix_pre	0		119	48.0	2.5	/experiments/AOT/AOT_stimuli/rescaled_final/0349_fw.mp4	0.0	351.36952686309814	0.9916880130767822
50	328.6157269477844	pulse	0	t		48.0	2.5	/experiments/AOT/AOT_stimuli/rescaled_final/0349_fw.mp4	0.0	352.3530569076538	
50	328.62388491630554	movie	1		243	48.0	2.5	/experiments/AOT/AOT_stimuli/rescaled_final/0349_fw.mp4	0.0	352.3612148761749	2.508347988128662
50	330.21568298339844	pulse	1	t		48.0	2.5	/experiments/AOT/AOT_stimuli/rescaled_final/0349_fw.mp4	0.0	353.9530129432678	
50	331.1322329044342	fix_post	2		12	48.0	2.5	/experiments/AOT/AOT_stimuli/rescaled_final/0349_fw.mp4	0.0	354.8695628643036	0.0999150276184082
51	331.2321479320526	fix_pre	0		120	49.0	2.5	/experiments/AOT/AOT_stimuli/rescaled_final/0310_rv.mp4	0.0	354.969477891922	1.0000360012054443
51	331.81563997268677	pulse	0	t		49.0	2.5	/experiments/AOT/AOT_stimuli/rescaled_final/0310_rv.mp4	0.0	355.55296993255615	
51	332.23218393325806	movie	1		245	49.0	2.5	/experiments/AOT/AOT_stimuli/rescaled_final/0310_rv.mp4	0.0	355.96951389312744	2.499577045440674
51	333.41571497917175	pulse	1	t		49.0	2.5	/experiments/AOT/AOT_stimuli/rescaled_final/0310_rv.mp4	0.0	357.15304493904114	
51	334.73176097869873	fix_post	2		12	49.0	2.5	/experiments/AOT/AOT_stimuli/rescaled_final/0310_rv.mp4	0.0	358.4690909385681	0.10052108764648438
52	334.8322820663452	fix_pre	0		120	50.0	2.5	/experiments/AOT/AOT_stimuli/rescaled_final/1323_rv.mp4	0.0	358.5696120262146	0.9999370574951172
52	335.0157549381256	pulse	0	t		50.0	2.5	/experiments/AOT/AOT_stimuli/rescaled_final/1323_rv.mp4	0.0	358.753084897995	
52	335.83221912384033	movie	1		244	50.0	2.5	/experiments/AOT/AOT_stimuli/rescaled_final/1323_rv.mp4	0.0	359.5695490837097	2.4999639987945557
52	336.6156270503998	pulse	1	t		50.0	2.5	/experiments/AOT/AOT_stimuli/rescaled_final/1323_rv.mp4	0.0	360.35295701026917	
52	338.2140939235687	pulse	1	t		50.0	2.5	/experiments/AOT/AOT_stimuli/rescaled_final/1323_rv.mp4	0.0	361.9514238834381	
52	338.3321831226349	fix_post	2		12	50.0	2.5	/experiments/AOT/AOT_stimuli/rescaled_final/1323_rv.mp4	0.0	362.0695130825043	0.09995293617248535
53	338.4321360588074	fix_pre	0		120	51.0	2.5	/experiments/AOT/AOT_stimuli/rescaled_final/0114_rv.mp4	0.0	362.16946601867676	1.0000369548797607
53	339.43217301368713	movie	1		243	51.0	2.5	/experiments/AOT/AOT_stimuli/rescaled_final/0114_rv.mp4	0.0	363.1695029735565	2.4999630451202393
53	339.8152639865875	pulse	1	t		51.0	2.5	/experiments/AOT/AOT_stimuli/rescaled_final/0114_rv.mp4	0.0	363.5525939464569	
53	341.415638923645	pulse	1	t		51.0	2.5	/experiments/AOT/AOT_stimuli/rescaled_final/0114_rv.mp4	0.0	365.1529688835144	
53	341.9321360588074	fix_post	2		12	51.0	2.5	/experiments/AOT/AOT_stimuli/rescaled_final/0114_rv.mp4	0.0	365.66946601867676	0.10005903244018555
54	342.03219509124756	fix_pre	0		119	52.0	2.5	/experiments/AOT/AOT_stimuli/rescaled_final/0310_fw.mp4	0.0	365.76952505111694	0.9916470050811768
54	343.0156469345093	pulse	0	t		52.0	2.5	/experiments/AOT/AOT_stimuli/rescaled_final/0310_fw.mp4	0.0	366.75297689437866	
54	343.02384209632874	movie	1		244	52.0	2.5	/experiments/AOT/AOT_stimuli/rescaled_final/0310_fw.mp4	0.0	366.7611720561981	2.50834584236145
54	344.61543011665344	pulse	1	t		52.0	2.5	/experiments/AOT/AOT_stimuli/rescaled_final/0310_fw.mp4	0.0	368.3527600765228	
54	345.5321879386902	fix_post	2		12	52.0	2.5	/experiments/AOT/AOT_stimuli/rescaled_final/0310_fw.mp4	0.0	369.26951789855957	0.0999910831451416
55	345.6321790218353	fix_pre	0		120	53.0	2.5	/experiments/AOT/AOT_stimuli/rescaled_final/1614_rv.mp4	0.0	369.3695089817047	0.9999480247497559
55	346.21568989753723	pulse	0	t		53.0	2.5	/experiments/AOT/AOT_stimuli/rescaled_final/1614_rv.mp4	0.0	369.9530198574066	
55	346.6321270465851	movie	1		245	53.0	2.5	/experiments/AOT/AOT_stimuli/rescaled_final/1614_rv.mp4	0.0	370.36945700645447	2.5000810623168945
55	347.8156759738922	pulse	1	t		53.0	2.5	/experiments/AOT/AOT_stimuli/rescaled_final/1614_rv.mp4	0.0	371.5530059337616	
55	349.132208108902	fix_post	2		12	53.0	2.5	/experiments/AOT/AOT_stimuli/rescaled_final/1614_rv.mp4	0.0	372.86953806877136	0.10000300407409668
56	349.2322111129761	fix_pre	0		120	54.0	2.5	/experiments/AOT/AOT_stimuli/rescaled_final/1864_fw.mp4	0.0	372.96954107284546	1.000201940536499
56	349.4157190322876	pulse	0	t		54.0	2.5	/experiments/AOT/AOT_stimuli/rescaled_final/1864_fw.mp4	0.0	373.153048992157	
56	350.2324130535126	movie	1		244	54.0	2.5	/experiments/AOT/AOT_stimuli/rescaled_final/1864_fw.mp4	0.0	373.96974301338196	2.499661922454834
56	351.0158910751343	pulse	1	t		54.0	2.5	/experiments/AOT/AOT_stimuli/rescaled_final/1864_fw.mp4	0.0	374.75322103500366	
56	352.6138710975647	pulse	1	t		54.0	2.5	/experiments/AOT/AOT_stimuli/rescaled_final/1864_fw.mp4	0.0	376.3512010574341	
56	352.7320749759674	fix_post	2		12	54.0	2.5	/experiments/AOT/AOT_stimuli/rescaled_final/1864_fw.mp4	0.0	376.4694049358368	0.1000370979309082
57	352.8321120738983	fix_pre	0		120	55.0	2.5	blank	1.0	376.5694420337677	0.9999969005584717
57	353.8321089744568	movie	1		300	55.0	2.5	blank	1.0	377.5694389343262	2.4999101161956787
57	354.21558809280396	pulse	1	t		55.0	2.5	blank	1.0	377.95291805267334	
57	355.8155720233917	pulse	1	t		55.0	2.5	blank	1.0	379.5529019832611	
57	356.33201909065247	fix_post	2		12	55.0	2.5	blank	1.0	380.06934905052185	0.10004281997680664
58	356.4320619106293	fix_pre	0		119	56.0	2.5	/experiments/AOT/AOT_stimuli/rescaled_final/0277_fw.mp4	0.0	380.16939187049866	0.9916601181030273
58	357.41552209854126	pulse	0	t		56.0	2.5	/experiments/AOT/AOT_stimuli/rescaled_final/0277_fw.mp4	0.0	381.15285205841064	
58	357.4237220287323	movie	1		246	56.0	2.5	/experiments/AOT/AOT_stimuli/rescaled_final/0277_fw.mp4	0.0	381.1610519886017	2.5083060264587402
58	359.01506090164185	pulse	1	t		56.0	2.5	/experiments/AOT/AOT_stimuli/rescaled_final/0277_fw.mp4	0.0	382.75239086151123	
58	359.93202805519104	fix_post	2		12	56.0	2.5	/experiments/AOT/AOT_stimuli/rescaled_final/0277_fw.mp4	0.0	383.6693580150604	0.09992194175720215
59	360.03194999694824	fix_pre	0		120	57.0	2.5	/experiments/AOT/AOT_stimuli/rescaled_final/0972_rv.mp4	0.0	383.7692799568176	1.000133991241455
59	360.6155459880829	pulse	0	t		57.0	2.5	/experiments/AOT/AOT_stimuli/rescaled_final/0972_rv.mp4	0.0	384.35287594795227	
59	361.0320839881897	movie	1		244	57.0	2.5	/experiments/AOT/AOT_stimuli/rescaled_final/0972_rv.mp4	0.0	384.7694139480591	2.4999101161956787
59	362.2155740261078	pulse	1	t		57.0	2.5	/experiments/AOT/AOT_stimuli/rescaled_final/0972_rv.mp4	0.0	385.9529039859772	
59	363.5319941043854	fix_post	2		12	57.0	2.5	/experiments/AOT/AOT_stimuli/rescaled_final/0972_rv.mp4	0.0	387.26932406425476	0.10005688667297363
60	363.63205099105835	fix_pre	0		120	58.0	2.5	/experiments/AOT/AOT_stimuli/rescaled_final/1004_fw.mp4	0.0	387.36938095092773	0.9999470710754395
60	363.815495967865	pulse	0	t		58.0	2.5	/experiments/AOT/AOT_stimuli/rescaled_final/1004_fw.mp4	0.0	387.5528259277344	
60	364.6319980621338	movie	1		247	58.0	2.5	/experiments/AOT/AOT_stimuli/rescaled_final/1004_fw.mp4	0.0	388.3693280220032	2.5000648498535156
60	365.4154510498047	pulse	1	t		58.0	2.5	/experiments/AOT/AOT_stimuli/rescaled_final/1004_fw.mp4	0.0	389.1527810096741	
60	367.01178097724915	pulse	1	t		58.0	2.5	/experiments/AOT/AOT_stimuli/rescaled_final/1004_fw.mp4	0.0	390.74911093711853	
60	367.1320629119873	fix_post	2		12	58.0	2.5	/experiments/AOT/AOT_stimuli/rescaled_final/1004_fw.mp4	0.0	390.8693928718567	0.09989714622497559
61	367.2319600582123	fix_pre	0		120	59.0	2.5	/experiments/AOT/AOT_stimuli/rescaled_final/0515_rv.mp4	0.0	390.96929001808167	1.0000739097595215
61	368.2320339679718	movie	1		247	59.0	2.5	/experiments/AOT/AOT_stimuli/rescaled_final/0515_rv.mp4	0.0	391.9693639278412	2.5000131130218506
61	368.61502408981323	pulse	1	t		59.0	2.5	/experiments/AOT/AOT_stimuli/rescaled_final/0515_rv.mp4	0.0	392.3523540496826	
61	370.21545791625977	pulse	1	t		59.0	2.5	/experiments/AOT/AOT_stimuli/rescaled_final/0515_rv.mp4	0.0	393.95278787612915	
61	370.73204708099365	fix_post	2		12	59.0	2.5	/experiments/AOT/AOT_stimuli/rescaled_final/0515_rv.mp4	0.0	394.46937704086304	0.0999758243560791
62	370.83202290534973	fix_pre	0		119	60.0	2.5	/experiments/AOT/AOT_stimuli/rescaled_final/0077_fw.mp4	0.0	394.5693528652191	0.9915580749511719
62	371.81533789634705	pulse	0	t		60.0	2.5	/experiments/AOT/AOT_stimuli/rescaled_final/0077_fw.mp4	0.0	395.55266785621643	
62	371.8235809803009	movie	1		244	60.0	2.5	/experiments/AOT/AOT_stimuli/rescaled_final/0077_fw.mp4	0.0	395.5609109401703	2.508358955383301
62	373.4150059223175	pulse	1	t		60.0	2.5	/experiments/AOT/AOT_stimuli/rescaled_final/0077_fw.mp4	0.0	397.1523358821869	
62	374.3319399356842	fix_post	2		12	60.0	2.5	/experiments/AOT/AOT_stimuli/rescaled_final/0077_fw.mp4	0.0	398.0692698955536	0.09998917579650879
63	374.4319291114807	fix_pre	0		120	61.0	2.5	blank	1.0	398.1692590713501	0.999957799911499
63	375.0154209136963	pulse	0	t		61.0	2.5	blank	1.0	398.7527508735657	
63	375.4318869113922	movie	1		300	61.0	2.5	blank	1.0	399.1692168712616	2.5000979900360107
63	376.6154661178589	pulse	1	t		61.0	2.5	blank	1.0	400.35279607772827	
63	377.9319849014282	fix_post	2		12	61.0	2.5	blank	1.0	401.6693148612976	0.09994912147521973
64	378.03193402290344	fix_pre	0		120	62.0	2.5	/experiments/AOT/AOT_stimuli/rescaled_final/1044_fw.mp4	0.0	401.7692639827728	0.9999420642852783
64	378.2154231071472	pulse	0	t		62.0	2.5	/experiments/AOT/AOT_stimuli/rescaled_final/1044_fw.mp4	0.0	401.9527530670166	
64	379.0318760871887	movie	1		244	62.0	2.5	/experiments/AOT/AOT_stimuli/rescaled_final/1044_fw.mp4	0.0	402.7692060470581	2.49995493888855
64	379.8154249191284	pulse	1	t		62.0	2.5	/experiments/AOT/AOT_stimuli/rescaled_final/1044_fw.mp4	0.0	403.5527548789978	
64	381.41483211517334	pulse	1	t		62.0	2.5	/experiments/AOT/AOT_stimuli/rescaled_final/1044_fw.mp4	0.0	405.1521620750427	
64	381.53183102607727	fix_post	2		12	62.0	2.5	/experiments/AOT/AOT_stimuli/rescaled_final/1044_fw.mp4	0.0	405.26916098594666	0.10005402565002441
65	381.6318850517273	fix_pre	0		120	63.0	2.5	/experiments/AOT/AOT_stimuli/rescaled_final/0598_fw.mp4	0.0	405.3692150115967	0.9999589920043945
65	382.6318440437317	movie	1		249	63.0	2.5	/experiments/AOT/AOT_stimuli/rescaled_final/0598_fw.mp4	0.0	406.3691740036011	2.5000760555267334
65	383.01631212234497	pulse	1	t		63.0	2.5	/experiments/AOT/AOT_stimuli/rescaled_final/0598_fw.mp4	0.0	406.75364208221436	
65	384.6154510974884	pulse	1	t		63.0	2.5	/experiments/AOT/AOT_stimuli/rescaled_final/0598_fw.mp4	0.0	408.3527810573578	
65	385.1319200992584	fix_post	2		12	63.0	2.5	/experiments/AOT/AOT_stimuli/rescaled_final/0598_fw.mp4	0.0	408.8692500591278	0.09998893737792969
66	385.23190903663635	fix_pre	0		119	64.0	2.5	/experiments/AOT/AOT_stimuli/rescaled_final/1079_rv.mp4	0.0	408.96923899650574	0.9916820526123047
66	386.2153799533844	pulse	0	t		64.0	2.5	/experiments/AOT/AOT_stimuli/rescaled_final/1079_rv.mp4	0.0	409.9527099132538	
66	386.22359108924866	movie	1		245	64.0	2.5	/experiments/AOT/AOT_stimuli/rescaled_final/1079_rv.mp4	0.0	409.96092104911804	2.5084068775177
66	387.8150019645691	pulse	1	t		64.0	2.5	/experiments/AOT/AOT_stimuli/rescaled_final/1079_rv.mp4	0.0	411.5523319244385	
66	388.73199796676636	fix_post	2		12	64.0	2.5	/experiments/AOT/AOT_stimuli/rescaled_final/1079_rv.mp4	0.0	412.46932792663574	0.09986400604248047
67	388.83186197280884	fix_pre	0		120	65.0	2.5	/experiments/AOT/AOT_stimuli/rescaled_final/0610_fw.mp4	0.0	412.5691919326782	1.0000619888305664
67	389.41541290283203	pulse	0	t		65.0	2.5	/experiments/AOT/AOT_stimuli/rescaled_final/0610_fw.mp4	0.0	413.1527428627014	
67	389.8319239616394	movie	1		245	65.0	2.5	/experiments/AOT/AOT_stimuli/rescaled_final/0610_fw.mp4	0.0	413.5692539215088	2.500012159347534
67	391.01547503471375	pulse	1	t		65.0	2.5	/experiments/AOT/AOT_stimuli/rescaled_final/0610_fw.mp4	0.0	414.75280499458313	
67	392.33193612098694	fix_post	2		12	65.0	2.5	/experiments/AOT/AOT_stimuli/rescaled_final/0610_fw.mp4	0.0	416.0692660808563	0.0999598503112793
68	392.4318959712982	fix_pre	0		120	66.0	2.5	/experiments/AOT/AOT_stimuli/rescaled_final/1244_fw.mp4	0.0	416.1692259311676	1.0000181198120117
68	392.6152820587158	pulse	0	t		66.0	2.5	/experiments/AOT/AOT_stimuli/rescaled_final/1244_fw.mp4	0.0	416.3526120185852	
68	393.43191409111023	movie	1		244	66.0	2.5	/experiments/AOT/AOT_stimuli/rescaled_final/1244_fw.mp4	0.0	417.1692440509796	2.4999988079071045
68	394.21533608436584	pulse	1	t		66.0	2.5	/experiments/AOT/AOT_stimuli/rescaled_final/1244_fw.mp4	0.0	417.95266604423523	
68	395.81387400627136	pulse	1	t		66.0	2.5	/experiments/AOT/AOT_stimuli/rescaled_final/1244_fw.mp4	0.0	419.55120396614075	
68	395.93191289901733	fix_post	2		12	66.0	2.5	/experiments/AOT/AOT_stimuli/rescaled_final/1244_fw.mp4	0.0	419.6692428588867	0.09990119934082031
69	396.03181409835815	fix_pre	0		120	67.0	2.5	/experiments/AOT/AOT_stimuli/rescaled_final/1283_fw.mp4	0.0	419.76914405822754	1.0001029968261719
69	397.0319170951843	movie	1		243	67.0	2.5	/experiments/AOT/AOT_stimuli/rescaled_final/1283_fw.mp4	0.0	420.7692470550537	2.4999148845672607
69	397.41509795188904	pulse	1	t		67.0	2.5	/experiments/AOT/AOT_stimuli/rescaled_final/1283_fw.mp4	0.0	421.1524279117584	
69	399.01536297798157	pulse	1	t		67.0	2.5	/experiments/AOT/AOT_stimuli/rescaled_final/1283_fw.mp4	0.0	422.75269293785095	
69	399.5318319797516	fix_post	2		12	67.0	2.5	/experiments/AOT/AOT_stimuli/rescaled_final/1283_fw.mp4	0.0	423.269161939621	0.10009002685546875
70	399.63192200660706	fix_pre	0		119	68.0	2.5	/experiments/AOT/AOT_stimuli/rescaled_final/1771_fw.mp4	0.0	423.36925196647644	0.9916610717773438
70	400.6154201030731	pulse	0	t		68.0	2.5	/experiments/AOT/AOT_stimuli/rescaled_final/1771_fw.mp4	0.0	424.3527500629425	
70	400.6235830783844	movie	1		245	68.0	2.5	/experiments/AOT/AOT_stimuli/rescaled_final/1771_fw.mp4	0.0	424.3609130382538	2.5083048343658447
70	402.2147710323334	pulse	1	t		68.0	2.5	/experiments/AOT/AOT_stimuli/rescaled_final/1771_fw.mp4	0.0	425.95210099220276	
70	403.13188791275024	fix_post	2		12	68.0	2.5	/experiments/AOT/AOT_stimuli/rescaled_final/1771_fw.mp4	0.0	426.86921787261963	0.09947609901428223
71	403.2313640117645	fix_pre	0		120	69.0	2.5	/experiments/AOT/AOT_stimuli/rescaled_final/0595_fw.mp4	0.0	426.9686939716339	1.0001239776611328
71	403.8149480819702	pulse	0	t		69.0	2.5	/experiments/AOT/AOT_stimuli/rescaled_final/0595_fw.mp4	0.0	427.5522780418396	
71	404.23148798942566	movie	1		243	69.0	2.5	/experiments/AOT/AOT_stimuli/rescaled_final/0595_fw.mp4	0.0	427.96881794929504	2.500195026397705
71	405.415461063385	pulse	1	t		69.0	2.5	/experiments/AOT/AOT_stimuli/rescaled_final/0595_fw.mp4	0.0	429.1527910232544	
71	406.73168301582336	fix_post	2		12	69.0	2.5	/experiments/AOT/AOT_stimuli/rescaled_final/0595_fw.mp4	0.0	430.46901297569275	0.10049605369567871
72	406.83217906951904	fix_pre	0		120	70.0	2.5	blank	1.0	430.5695090293884	0.9995889663696289
72	407.0153069496155	pulse	0	t		70.0	2.5	blank	1.0	430.75263690948486	
72	407.8317680358887	movie	1		300	70.0	2.5	blank	1.0	431.56909799575806	2.500014066696167
72	408.6153631210327	pulse	1	t		70.0	2.5	blank	1.0	432.3526930809021	
72	410.2152280807495	pulse	1	t		70.0	2.5	blank	1.0	433.9525580406189	
72	410.33178210258484	fix_post	2		12	70.0	2.5	blank	1.0	434.0691120624542	0.09994792938232422
73	410.43173003196716	fix_pre	0		120	71.0	2.5	/experiments/AOT/AOT_stimuli/rescaled_final/1909_fw.mp4	0.0	434.16905999183655	1.0000309944152832
73	411.43176102638245	movie	1		247	71.0	2.5	/experiments/AOT/AOT_stimuli/rescaled_final/1909_fw.mp4	0.0	435.16909098625183	2.500030040740967
73	411.8149950504303	pulse	1	t		71.0	2.5	/experiments/AOT/AOT_stimuli/rescaled_final/1909_fw.mp4	0.0	435.5523250102997	
73	413.41520595550537	pulse	1	t		71.0	2.5	/experiments/AOT/AOT_stimuli/rescaled_final/1909_fw.mp4	0.0	437.15253591537476	
73	413.9317910671234	fix_post	2		12	71.0	2.5	/experiments/AOT/AOT_stimuli/rescaled_final/1909_fw.mp4	0.0	437.6691210269928	0.10001993179321289
74	414.0318109989166	fix_pre	0		119	72.0	2.5	/experiments/AOT/AOT_stimuli/rescaled_final/2000_fw.mp4	0.0	437.769140958786	0.9916629791259766
74	415.01526403427124	pulse	0	t		72.0	2.5	/experiments/AOT/AOT_stimuli/rescaled_final/2000_fw.mp4	0.0	438.7525939941406	
74	415.0234739780426	movie	1		244	72.0	2.5	/experiments/AOT/AOT_stimuli/rescaled_final/2000_fw.mp4	0.0	438.760803937912	2.508296012878418
74	416.615602016449	pulse	1	t		72.0	2.5	/experiments/AOT/AOT_stimuli/rescaled_final/2000_fw.mp4	0.0	440.35293197631836	
74	417.531769990921	fix_post	2		12	72.0	2.5	/experiments/AOT/AOT_stimuli/rescaled_final/2000_fw.mp4	0.0	441.2690999507904	0.09996891021728516
75	417.6317389011383	fix_pre	0		120	73.0	2.5	/experiments/AOT/AOT_stimuli/rescaled_final/1334_rv.mp4	0.0	441.3690688610077	1.0000782012939453
75	418.2152440547943	pulse	0	t		73.0	2.5	/experiments/AOT/AOT_stimuli/rescaled_final/1334_rv.mp4	0.0	441.9525740146637	
75	418.63181710243225	movie	1		243	73.0	2.5	/experiments/AOT/AOT_stimuli/rescaled_final/1334_rv.mp4	0.0	442.36914706230164	2.4999518394470215
75	419.8153119087219	pulse	1	t		73.0	2.5	/experiments/AOT/AOT_stimuli/rescaled_final/1334_rv.mp4	0.0	443.5526418685913	
75	421.1317689418793	fix_post	2		12	73.0	2.5	/experiments/AOT/AOT_stimuli/rescaled_final/1334_rv.mp4	0.0	444.86909890174866	0.09993195533752441
76	421.2317008972168	fix_pre	0		120	74.0	2.5	/experiments/AOT/AOT_stimuli/rescaled_final/0891_fw.mp4	0.0	444.9690308570862	1.0000030994415283
76	421.4153039455414	pulse	0	t		74.0	2.5	/experiments/AOT/AOT_stimuli/rescaled_final/0891_fw.mp4	0.0	445.15263390541077	
76	422.2317039966583	movie	1		243	74.0	2.5	/experiments/AOT/AOT_stimuli/rescaled_final/0891_fw.mp4	0.0	445.9690339565277	2.5000290870666504
76	423.01526403427124	pulse	1	t		74.0	2.5	/experiments/AOT/AOT_stimuli/rescaled_final/0891_fw.mp4	0.0	446.7525939941406	
76	424.6137800216675	pulse	1	t		74.0	2.5	/experiments/AOT/AOT_stimuli/rescaled_final/0891_fw.mp4	0.0	448.35110998153687	
76	424.731733083725	fix_post	2		12	74.0	2.5	/experiments/AOT/AOT_stimuli/rescaled_final/0891_fw.mp4	0.0	448.46906304359436	0.09996294975280762
77	424.8316960334778	fix_pre	0		120	75.0	2.5	/experiments/AOT/AOT_stimuli/rescaled_final/1222_fw.mp4	0.0	448.56902599334717	1.0000178813934326
77	425.8317139148712	movie	1		243	75.0	2.5	/experiments/AOT/AOT_stimuli/rescaled_final/1222_fw.mp4	0.0	449.5690438747406	2.5000011920928955
77	426.21489095687866	pulse	1	t		75.0	2.5	/experiments/AOT/AOT_stimuli/rescaled_final/1222_fw.mp4	0.0	449.95222091674805	
77	427.81530690193176	pulse	1	t		75.0	2.5	/experiments/AOT/AOT_stimuli/rescaled_final/1222_fw.mp4	0.0	451.55263686180115	
77	428.3317151069641	fix_post	2		12	75.0	2.5	/experiments/AOT/AOT_stimuli/rescaled_final/1222_fw.mp4	0.0	452.0690450668335	0.09997701644897461
78	428.4316921234131	fix_pre	0		119	76.0	2.5	/experiments/AOT/AOT_stimuli/rescaled_final/1412_fw.mp4	0.0	452.16902208328247	0.9916908740997314
78	429.4151680469513	pulse	0	t		76.0	2.5	/experiments/AOT/AOT_stimuli/rescaled_final/1412_fw.mp4	0.0	453.1524980068207	
78	429.4233829975128	movie	1		244	76.0	2.5	/experiments/AOT/AOT_stimuli/rescaled_final/1412_fw.mp4	0.0	453.1607129573822	2.5083110332489014
78	431.0153429508209	pulse	1	t		76.0	2.5	/experiments/AOT/AOT_stimuli/rescaled_final/1412_fw.mp4	0.0	454.7526729106903	
78	431.9316940307617	fix_post	2		12	76.0	2.5	/experiments/AOT/AOT_stimuli/rescaled_final/1412_fw.mp4	0.0	455.6690239906311	0.09994292259216309
79	432.0316369533539	fix_pre	0		120	77.0	2.5	blank	1.0	455.76896691322327	1.0000250339508057
79	432.61513590812683	pulse	0	t		77.0	2.5	blank	1.0	456.3524658679962	
79	433.0316619873047	movie	1		300	77.0	2.5	blank	1.0	456.7689919471741	2.500009059906006
79	434.2150990962982	pulse	1	t		77.0	2.5	blank	1.0	457.9524290561676	
79	435.5316710472107	fix_post	2		12	77.0	2.5	blank	1.0	459.2690010070801	0.10002589225769043
80	435.6316969394684	fix_pre	0		120	78.0	2.5	/experiments/AOT/AOT_stimuli/rescaled_final/0198_fw.mp4	0.0	459.36902689933777	0.9999470710754395
80	435.8151650428772	pulse	0	t		78.0	2.5	/experiments/AOT/AOT_stimuli/rescaled_final/0198_fw.mp4	0.0	459.5524950027466	
80	436.6316440105438	movie	1		245	78.0	2.5	/experiments/AOT/AOT_stimuli/rescaled_final/0198_fw.mp4	0.0	460.3689739704132	2.5000009536743164
80	437.41521692276	pulse	1	t		78.0	2.5	/experiments/AOT/AOT_stimuli/rescaled_final/0198_fw.mp4	0.0	461.1525468826294	
80	439.0148780345917	pulse	1	t		78.0	2.5	/experiments/AOT/AOT_stimuli/rescaled_final/0198_fw.mp4	0.0	462.75220799446106	
80	439.13164496421814	fix_post	2		12	78.0	2.5	/experiments/AOT/AOT_stimuli/rescaled_final/0198_fw.mp4	0.0	462.8689749240875	0.09997200965881348
81	439.23161697387695	fix_pre	0		120	79.0	2.5	/experiments/AOT/AOT_stimuli/rescaled_final/0877_rv.mp4	0.0	462.96894693374634	1.000046968460083
81	440.23166394233704	movie	1		244	79.0	2.5	/experiments/AOT/AOT_stimuli/rescaled_final/0877_rv.mp4	0.0	463.9689939022064	2.4999871253967285
81	440.61492800712585	pulse	1	t		79.0	2.5	/experiments/AOT/AOT_stimuli/rescaled_final/0877_rv.mp4	0.0	464.35225796699524	
81	442.2151870727539	pulse	1	t		79.0	2.5	/experiments/AOT/AOT_stimuli/rescaled_final/0877_rv.mp4	0.0	465.9525170326233	
81	442.73165106773376	fix_post	2		12	79.0	2.5	/experiments/AOT/AOT_stimuli/rescaled_final/0877_rv.mp4	0.0	466.46898102760315	0.1000509262084961
82	442.83170199394226	fix_pre	0		119	80.0	2.5	/experiments/AOT/AOT_stimuli/rescaled_final/1242_rv.mp4	0.0	466.56903195381165	0.9916079044342041
82	443.81520795822144	pulse	0	t		80.0	2.5	/experiments/AOT/AOT_stimuli/rescaled_final/1242_rv.mp4	0.0	467.5525379180908	
82	443.82330989837646	movie	1		245	80.0	2.5	/experiments/AOT/AOT_stimuli/rescaled_final/1242_rv.mp4	0.0	467.56063985824585	2.508392095565796
82	445.41490602493286	pulse	1	t		80.0	2.5	/experiments/AOT/AOT_stimuli/rescaled_final/1242_rv.mp4	0.0	469.15223598480225	
82	446.33170199394226	fix_post	2		12	80.0	2.5	/experiments/AOT/AOT_stimuli/rescaled_final/1242_rv.mp4	0.0	470.06903195381165	0.09990096092224121
83	446.4316029548645	fix_pre	0		120	81.0	2.5	/experiments/AOT/AOT_stimuli/rescaled_final/0696_fw.mp4	0.0	470.1689329147339	1.0000929832458496
83	447.01513290405273	pulse	0	t		81.0	2.5	/experiments/AOT/AOT_stimuli/rescaled_final/0696_fw.mp4	0.0	470.7524628639221	
83	447.43169593811035	movie	1		243	81.0	2.5	/experiments/AOT/AOT_stimuli/rescaled_final/0696_fw.mp4	0.0	471.16902589797974	2.499974012374878
83	448.6151759624481	pulse	1	t		81.0	2.5	/experiments/AOT/AOT_stimuli/rescaled_final/0696_fw.mp4	0.0	472.3525059223175	
83	449.93166995048523	fix_post	2		12	81.0	2.5	/experiments/AOT/AOT_stimuli/rescaled_final/0696_fw.mp4	0.0	473.6689999103546	0.09984302520751953
84	450.03151297569275	fix_pre	0		120	82.0	2.5	/experiments/AOT/AOT_stimuli/rescaled_final/0739_fw.mp4	0.0	473.76884293556213	1.0001580715179443
84	450.2150900363922	pulse	0	t		82.0	2.5	/experiments/AOT/AOT_stimuli/rescaled_final/0739_fw.mp4	0.0	473.9524199962616	
84	451.0316710472107	movie	1		244	82.0	2.5	/experiments/AOT/AOT_stimuli/rescaled_final/0739_fw.mp4	0.0	474.7690010070801	2.499516010284424
84	451.81510305404663	pulse	1	t		82.0	2.5	/experiments/AOT/AOT_stimuli/rescaled_final/0739_fw.mp4	0.0	475.552433013916	
84	453.4135539531708	pulse	1	t		82.0	2.5	/experiments/AOT/AOT_stimuli/rescaled_final/0739_fw.mp4	0.0	477.15088391304016	
84	453.5311870574951	fix_post	2		12	82.0	2.5	/experiments/AOT/AOT_stimuli/rescaled_final/0739_fw.mp4	0.0	477.2685170173645	0.10041189193725586
85	453.6315989494324	fix_pre	0		120	83.0	2.5	blank	1.0	477.36892890930176	1.000089168548584
85	454.63168811798096	movie	1		300	83.0	2.5	blank	1.0	478.36901807785034	2.4999678134918213
85	455.0151410102844	pulse	1	t		83.0	2.5	blank	1.0	478.7524709701538	
85	456.6150870323181	pulse	1	t		83.0	2.5	blank	1.0	480.3524169921875	
85	457.1316559314728	fix_post	2		12	83.0	2.5	blank	1.0	480.86898589134216	0.09987711906433105
87	457.2315330505371	stim	0		1716					480.9688630104065	14.299905061721802
87	458.21522307395935	pulse	0	t						481.95255303382874	
87	459.8145899772644	pulse	0	t						483.5519199371338	
87	461.4147720336914	pulse	0	t						485.1521019935608	
87	463.0150511264801	pulse	0	t						486.7523810863495	
87	464.61499094963074	pulse	0	t						488.3523209095001	
87	466.21514797210693	pulse	0	t						489.9524779319763	
87	467.8148820400238	pulse	0	t						491.5522119998932	
87	469.41494393348694	pulse	0	t						493.1522738933563	
87	471.0150010585785	pulse	0	t						494.7523310184479	
