trial_nr	onset	event_type	phase	response	nr_frames	movie_index	movie_duration	movie_file	blank	onset_abs	duration
0	0.14992308616638184	stim	0		125					25.782572269439697	1.0416619777679443
0	1.1834001541137695	response	0	space						26.816049337387085	
1	1.1915850639343262	stim	0		4666					26.82423424720764	38.883240938186646
1	40.068488121032715	pulse	0	t						65.70113730430603	
1	40.07482600212097	stim	1		1717					65.70747518539429	14.308264017105103
1	41.666635036468506	pulse	1	t						67.29928421974182	
1	43.26661515235901	pulse	1	t						68.89926433563232	
1	44.86658716201782	pulse	1	t						70.49923634529114	
1	46.46663808822632	pulse	1	t						72.09928727149963	
1	48.06661319732666	pulse	1	t						73.69926238059998	
1	49.6665301322937	pulse	1	t						75.29917931556702	
1	51.26658606529236	pulse	1	t						76.89923524856567	
1	52.86654806137085	pulse	1	t						78.49919724464417	
2	54.383090019226074	fix_pre	0		11	0.0	2.5	/experiments/aot/R_S_3WAnGcPubBY_143.mp4	0.0	80.01573920249939	0.09171319007873535
2	54.46657419204712	pulse	0	t		0.0	2.5	/experiments/aot/R_S_3WAnGcPubBY_143.mp4	0.0	80.09922337532043	
2	54.47480320930481	movie	1		300	0.0	2.5	/experiments/aot/R_S_3WAnGcPubBY_143.mp4	0.0	80.10745239257812	2.508204936981201
2	56.06367611885071	pulse	1	t		0.0	2.5	/experiments/aot/R_S_3WAnGcPubBY_143.mp4	0.0	81.69632530212402	
2	56.98300814628601	fix_post	2		12	0.0	2.5	/experiments/aot/R_S_3WAnGcPubBY_143.mp4	0.0	82.61565732955933	0.10007691383361816
3	57.08308506011963	fix_pre	0		120	1.0	2.5	/experiments/aot/S_pexels-tima-miroshnichenko-8724308.mp4	0.0	82.71573424339294	0.9999079704284668
3	57.66654920578003	pulse	0	t		1.0	2.5	/experiments/aot/S_pexels-tima-miroshnichenko-8724308.mp4	0.0	83.29919838905334	
3	58.082993030548096	movie	1		160	1.0	2.5	/experiments/aot/S_pexels-tima-miroshnichenko-8724308.mp4	0.0	83.71564221382141	2.5000030994415283
3	59.265934228897095	pulse	1	t		1.0	2.5	/experiments/aot/S_pexels-tima-miroshnichenko-8724308.mp4	0.0	84.89858341217041	
3	60.582996129989624	fix_post	2		12	1.0	2.5	/experiments/aot/S_pexels-tima-miroshnichenko-8724308.mp4	0.0	86.21564531326294	0.10004305839538574
4	60.68303918838501	fix_pre	0		120	2.0	2.5	/experiments/aot/S_yt-BAQ3Xhm_PPE_23.mp4	0.0	86.31568837165833	0.9999890327453613
4	60.86651921272278	pulse	0	t		2.0	2.5	/experiments/aot/S_yt-BAQ3Xhm_PPE_23.mp4	0.0	86.4991683959961	
4	61.68302822113037	movie	1		300	2.0	2.5	/experiments/aot/S_yt-BAQ3Xhm_PPE_23.mp4	0.0	87.31567740440369	2.4994969367980957
4	62.46651101112366	pulse	1	t		2.0	2.5	/experiments/aot/S_yt-BAQ3Xhm_PPE_23.mp4	0.0	88.09916019439697	
4	64.06649804115295	pulse	1	t		2.0	2.5	/experiments/aot/S_yt-BAQ3Xhm_PPE_23.mp4	0.0	89.69914722442627	
4	64.18252515792847	fix_post	2		12	2.0	2.5	/experiments/aot/S_yt-BAQ3Xhm_PPE_23.mp4	0.0	89.81517434120178	0.10042500495910645
5	64.28295016288757	fix_pre	0		120	3.0	2.5	/experiments/aot/R_S_yt-7WYXuBHeorw_188.mp4	0.0	89.91559934616089	0.9996039867401123
5	65.28255414962769	movie	1		299	3.0	2.5	/experiments/aot/R_S_yt-7WYXuBHeorw_188.mp4	0.0	90.915203332901	2.500532865524292
5	65.66649103164673	pulse	1	t		3.0	2.5	/experiments/aot/R_S_yt-7WYXuBHeorw_188.mp4	0.0	91.29914021492004	
5	67.26649022102356	pulse	1	t		3.0	2.5	/experiments/aot/R_S_yt-7WYXuBHeorw_188.mp4	0.0	92.89913940429688	
5	67.78308701515198	fix_post	2		12	3.0	2.5	/experiments/aot/R_S_yt-7WYXuBHeorw_188.mp4	0.0	93.4157361984253	0.09991717338562012
6	67.8830041885376	fix_pre	0		119	4.0	2.5	/experiments/aot/S_yt-3E02UEHdoZ4_752.mp4	0.0	93.51565337181091	0.9916069507598877
6	68.86653113365173	pulse	0	t		4.0	2.5	/experiments/aot/S_yt-3E02UEHdoZ4_752.mp4	0.0	94.49918031692505	
6	68.87461113929749	movie	1		301	4.0	2.5	/experiments/aot/S_yt-3E02UEHdoZ4_752.mp4	0.0	94.5072603225708	2.508316993713379
6	70.46647620201111	pulse	1	t		4.0	2.5	/experiments/aot/S_yt-3E02UEHdoZ4_752.mp4	0.0	96.09912538528442	
6	71.38292813301086	fix_post	2		12	4.0	2.5	/experiments/aot/S_yt-3E02UEHdoZ4_752.mp4	0.0	97.01557731628418	0.10006904602050781
7	71.48299717903137	fix_pre	0		120	5.0	2.5	/experiments/aot/R_S_yt-uE9XoCLZlFo_1.mp4	0.0	97.11564636230469	0.9999039173126221
7	72.06653809547424	pulse	0	t		5.0	2.5	/experiments/aot/R_S_yt-uE9XoCLZlFo_1.mp4	0.0	97.69918727874756	
7	72.482901096344	movie	1		300	5.0	2.5	/experiments/aot/R_S_yt-uE9XoCLZlFo_1.mp4	0.0	98.11555027961731	2.4999239444732666
7	73.66601610183716	pulse	1	t		5.0	2.5	/experiments/aot/R_S_yt-uE9XoCLZlFo_1.mp4	0.0	99.29866528511047	
7	74.98282504081726	fix_post	2		12	5.0	2.5	/experiments/aot/R_S_yt-uE9XoCLZlFo_1.mp4	0.0	100.61547422409058	0.10042405128479004
8	75.08324909210205	fix_pre	0		120	6.0	2.5	/experiments/aot/S_yt-a0axt7n0GuQ_19.mp4	0.0	100.71589827537537	0.9998209476470947
8	75.26639223098755	pulse	0	t		6.0	2.5	/experiments/aot/S_yt-a0axt7n0GuQ_19.mp4	0.0	100.89904141426086	
8	76.08307003974915	movie	1		299	6.0	2.5	/experiments/aot/S_yt-a0axt7n0GuQ_19.mp4	0.0	101.71571922302246	2.4993951320648193
8	76.86641001701355	pulse	1	t		6.0	2.5	/experiments/aot/S_yt-a0axt7n0GuQ_19.mp4	0.0	102.49905920028687	
8	78.46638107299805	pulse	1	t		6.0	2.5	/experiments/aot/S_yt-a0axt7n0GuQ_19.mp4	0.0	104.09903025627136	
8	78.58246517181396	fix_post	2		12	6.0	2.5	/experiments/aot/S_yt-a0axt7n0GuQ_19.mp4	0.0	104.21511435508728	0.10044097900390625
9	78.68290615081787	fix_pre	0		120	7.0	2.5	blank	1.0	104.31555533409119	1.0000009536743164
9	79.68290710449219	movie	1		300	7.0	2.5	blank	1.0	105.3155562877655	2.500035047531128
9	80.06649613380432	pulse	1	t		7.0	2.5	blank	1.0	105.69914531707764	
9	81.66636919975281	pulse	1	t		7.0	2.5	blank	1.0	107.29901838302612	
9	82.18294215202332	fix_post	2		12	7.0	2.5	blank	1.0	107.81559133529663	0.0999610424041748
10	82.28290319442749	fix_pre	0		119	8.0	2.5	/experiments/aot/S_ILnEDG_aP1A_35.mp4	0.0	107.9155523777008	0.9916238784790039
10	83.2663562297821	pulse	0	t		8.0	2.5	/experiments/aot/S_ILnEDG_aP1A_35.mp4	0.0	108.89900541305542	
10	83.2745270729065	movie	1		301	8.0	2.5	/experiments/aot/S_ILnEDG_aP1A_35.mp4	0.0	108.90717625617981	2.5083460807800293
10	84.86195516586304	pulse	1	t		8.0	2.5	/experiments/aot/S_ILnEDG_aP1A_35.mp4	0.0	110.49460434913635	
10	85.78287315368652	fix_post	2		12	8.0	2.5	/experiments/aot/S_ILnEDG_aP1A_35.mp4	0.0	111.41552233695984	0.09994792938232422
11	85.88282108306885	fix_pre	0		120	9.0	2.5	/experiments/aot/R_S_yt-WhQMF3WM0Ig_29.mp4	0.0	111.51547026634216	1.0000579357147217
11	86.46637916564941	pulse	0	t		9.0	2.5	/experiments/aot/R_S_yt-WhQMF3WM0Ig_29.mp4	0.0	112.09902834892273	
11	86.88287901878357	movie	1		300	9.0	2.5	/experiments/aot/R_S_yt-WhQMF3WM0Ig_29.mp4	0.0	112.51552820205688	2.4999680519104004
11	88.0663812160492	pulse	1	t		9.0	2.5	/experiments/aot/R_S_yt-WhQMF3WM0Ig_29.mp4	0.0	113.69903039932251	
11	89.38284707069397	fix_post	2		12	9.0	2.5	/experiments/aot/R_S_yt-WhQMF3WM0Ig_29.mp4	0.0	115.01549625396729	0.10000014305114746
12	89.48284721374512	fix_pre	0		120	10.0	2.5	/experiments/aot/S_wc-ujHd_fPVcSlX_10.mp4	0.0	115.11549639701843	0.9999699592590332
12	89.66641020774841	pulse	0	t		10.0	2.5	/experiments/aot/S_wc-ujHd_fPVcSlX_10.mp4	0.0	115.29905939102173	
12	90.48281717300415	movie	1		159	10.0	2.5	/experiments/aot/S_wc-ujHd_fPVcSlX_10.mp4	0.0	116.11546635627747	2.499591827392578
12	91.26647019386292	pulse	1	t		10.0	2.5	/experiments/aot/S_wc-ujHd_fPVcSlX_10.mp4	0.0	116.89911937713623	
12	92.86631512641907	pulse	1	t		10.0	2.5	/experiments/aot/S_wc-ujHd_fPVcSlX_10.mp4	0.0	118.49896430969238	
12	92.98240900039673	fix_post	2		12	10.0	2.5	/experiments/aot/S_wc-ujHd_fPVcSlX_10.mp4	0.0	118.61505818367004	0.10037708282470703
13	93.08278608322144	fix_pre	0		120	11.0	2.5	/experiments/aot/R_S_yt-a0axt7n0GuQ_19.mp4	0.0	118.71543526649475	0.999614953994751
13	94.08240103721619	movie	1		300	11.0	2.5	/experiments/aot/R_S_yt-a0axt7n0GuQ_19.mp4	0.0	119.7150502204895	2.500012159347534
13	94.46627902984619	pulse	1	t		11.0	2.5	/experiments/aot/R_S_yt-a0axt7n0GuQ_19.mp4	0.0	120.0989282131195	
13	96.06638216972351	pulse	1	t		11.0	2.5	/experiments/aot/R_S_yt-a0axt7n0GuQ_19.mp4	0.0	121.69903135299683	
13	96.58241319656372	fix_post	2		12	11.0	2.5	/experiments/aot/R_S_yt-a0axt7n0GuQ_19.mp4	0.0	122.21506237983704	0.10039496421813965
14	96.68280816078186	fix_pre	0		119	12.0	2.5	/experiments/aot/S_yt-nYi_FfCjepk_74.mp4	0.0	122.31545734405518	0.991832971572876
14	97.66631603240967	pulse	0	t		12.0	2.5	/experiments/aot/S_yt-nYi_FfCjepk_74.mp4	0.0	123.29896521568298	
14	97.67464113235474	movie	1		301	12.0	2.5	/experiments/aot/S_yt-nYi_FfCjepk_74.mp4	0.0	123.30729031562805	2.507786989212036
14	99.2623062133789	pulse	1	t		12.0	2.5	/experiments/aot/S_yt-nYi_FfCjepk_74.mp4	0.0	124.89495539665222	
14	100.18242812156677	fix_post	2		12	12.0	2.5	/experiments/aot/S_yt-nYi_FfCjepk_74.mp4	0.0	125.81507730484009	0.10036206245422363
15	100.282790184021	fix_pre	0		120	13.0	2.5	blank	1.0	125.91543936729431	1.0000648498535156
15	100.86630821228027	pulse	0	t		13.0	2.5	blank	1.0	126.49895739555359	
15	101.28285503387451	movie	1		300	13.0	2.5	blank	1.0	126.91550421714783	2.4995291233062744
15	102.46626305580139	pulse	1	t		13.0	2.5	blank	1.0	128.0989122390747	
15	103.78238415718079	fix_post	2		12	13.0	2.5	blank	1.0	129.4150333404541	0.10036802291870117
16	103.88275218009949	fix_pre	0		120	14.0	2.5	/experiments/aot/S_pexels-rodnae-productions-5993671.mp4	0.0	129.5154013633728	0.9996719360351562
16	104.06626605987549	pulse	0	t		14.0	2.5	/experiments/aot/S_pexels-rodnae-productions-5993671.mp4	0.0	129.6989152431488	
16	104.88242411613464	movie	1		160	14.0	2.5	/experiments/aot/S_pexels-rodnae-productions-5993671.mp4	0.0	130.51507329940796	2.500312089920044
16	105.66635704040527	pulse	1	t		14.0	2.5	/experiments/aot/S_pexels-rodnae-productions-5993671.mp4	0.0	131.2990062236786	
16	107.26292705535889	pulse	1	t		14.0	2.5	/experiments/aot/S_pexels-rodnae-productions-5993671.mp4	0.0	132.8955762386322	
16	107.38273620605469	fix_post	2		12	14.0	2.5	/experiments/aot/S_pexels-rodnae-productions-5993671.mp4	0.0	133.015385389328	0.1001279354095459
17	107.48286414146423	fix_pre	0		120	15.0	2.5	/experiments/aot/S_pexels-vlada-karpovich-8044792.mp4	0.0	133.11551332473755	1.0000040531158447
17	108.48286819458008	movie	1		159	15.0	2.5	/experiments/aot/S_pexels-vlada-karpovich-8044792.mp4	0.0	134.1155173778534	2.4999139308929443
17	108.8660180568695	pulse	1	t		15.0	2.5	/experiments/aot/S_pexels-vlada-karpovich-8044792.mp4	0.0	134.49866724014282	
17	110.46594715118408	pulse	1	t		15.0	2.5	/experiments/aot/S_pexels-vlada-karpovich-8044792.mp4	0.0	136.0985963344574	
17	110.98278212547302	fix_post	2		12	15.0	2.5	/experiments/aot/S_pexels-vlada-karpovich-8044792.mp4	0.0	136.61543130874634	0.09988999366760254
18	111.08267211914062	fix_pre	0		119	16.0	2.5	/experiments/aot/S_yt-AbJBxqEYoMg_27.mp4	0.0	136.71532130241394	0.9917380809783936
18	112.06624817848206	pulse	0	t		16.0	2.5	/experiments/aot/S_yt-AbJBxqEYoMg_27.mp4	0.0	137.69889736175537	
18	112.07441020011902	movie	1		301	16.0	2.5	/experiments/aot/S_yt-AbJBxqEYoMg_27.mp4	0.0	137.70705938339233	2.5079119205474854
18	113.66229009628296	pulse	1	t		16.0	2.5	/experiments/aot/S_yt-AbJBxqEYoMg_27.mp4	0.0	139.29493927955627	
18	114.5823221206665	fix_post	2		12	16.0	2.5	/experiments/aot/S_yt-AbJBxqEYoMg_27.mp4	0.0	140.21497130393982	0.1004018783569336
19	114.68272399902344	fix_pre	0		120	17.0	2.5	/experiments/aot/R_S_Pexels_Videos_2795737.mp4	0.0	140.31537318229675	1.0000450611114502
19	115.26621413230896	pulse	0	t		17.0	2.5	/experiments/aot/R_S_Pexels_Videos_2795737.mp4	0.0	140.89886331558228	
19	115.68276906013489	movie	1		160	17.0	2.5	/experiments/aot/R_S_Pexels_Videos_2795737.mp4	0.0	141.3154182434082	2.49957013130188
19	116.86626720428467	pulse	1	t		17.0	2.5	/experiments/aot/R_S_Pexels_Videos_2795737.mp4	0.0	142.49891638755798	
19	118.18233919143677	fix_post	2		12	17.0	2.5	/experiments/aot/R_S_Pexels_Videos_2795737.mp4	0.0	143.81498837471008	0.10045981407165527
20	118.28279900550842	fix_pre	0		120	18.0	2.5	/experiments/aot/R_S_yt-Jo6PxivsTOg_247.mp4	0.0	143.91544818878174	0.9999639987945557
20	118.46616220474243	pulse	0	t		18.0	2.5	/experiments/aot/R_S_yt-Jo6PxivsTOg_247.mp4	0.0	144.09881138801575	
20	119.28276300430298	movie	1		300	18.0	2.5	/experiments/aot/R_S_yt-Jo6PxivsTOg_247.mp4	0.0	144.9154121875763	2.500033140182495
20	120.06609606742859	pulse	1	t		18.0	2.5	/experiments/aot/R_S_yt-Jo6PxivsTOg_247.mp4	0.0	145.6987452507019	
20	121.66627311706543	pulse	1	t		18.0	2.5	/experiments/aot/R_S_yt-Jo6PxivsTOg_247.mp4	0.0	147.29892230033875	
20	121.78279614448547	fix_post	2		12	18.0	2.5	/experiments/aot/R_S_yt-Jo6PxivsTOg_247.mp4	0.0	147.4154453277588	0.09990191459655762
21	121.88269805908203	fix_pre	0		120	19.0	2.5	/experiments/aot/R_S_yt-2OoHcgS8sss_7.mp4	0.0	147.51534724235535	1.0001051425933838
21	122.88280320167542	movie	1		299	19.0	2.5	/experiments/aot/R_S_yt-2OoHcgS8sss_7.mp4	0.0	148.51545238494873	2.500020980834961
21	123.26618719100952	pulse	1	t		19.0	2.5	/experiments/aot/R_S_yt-2OoHcgS8sss_7.mp4	0.0	148.89883637428284	
21	124.86617112159729	pulse	1	t		19.0	2.5	/experiments/aot/R_S_yt-2OoHcgS8sss_7.mp4	0.0	150.4988203048706	
21	125.38282418251038	fix_post	2		12	19.0	2.5	/experiments/aot/R_S_yt-2OoHcgS8sss_7.mp4	0.0	151.0154733657837	0.09997296333312988
22	125.4827971458435	fix_pre	0		119	20.0	2.5	/experiments/aot/S_yt-XF0fyyFEgWo_280.mp4	0.0	151.11544632911682	0.9916019439697266
22	126.46627521514893	pulse	0	t		20.0	2.5	/experiments/aot/S_yt-XF0fyyFEgWo_280.mp4	0.0	152.09892439842224	
22	126.47439908981323	movie	1		301	20.0	2.5	/experiments/aot/S_yt-XF0fyyFEgWo_280.mp4	0.0	152.10704827308655	2.5078909397125244
22	128.06620717048645	pulse	1	t		20.0	2.5	/experiments/aot/S_yt-XF0fyyFEgWo_280.mp4	0.0	153.69885635375977	
22	128.98229002952576	fix_post	2		12	20.0	2.5	/experiments/aot/S_yt-XF0fyyFEgWo_280.mp4	0.0	154.61493921279907	0.10008406639099121
23	129.08237409591675	fix_pre	0		120	21.0	2.5	blank	1.0	154.71502327919006	1.0007109642028809
23	129.66631507873535	pulse	0	t		21.0	2.5	blank	1.0	155.29896426200867	
23	130.08308506011963	movie	1		300	21.0	2.5	blank	1.0	155.71573424339294	2.4995789527893066
23	131.2661440372467	pulse	1	t		21.0	2.5	blank	1.0	156.89879322052002	
23	132.58266401290894	fix_post	2		12	21.0	2.5	blank	1.0	158.21531319618225	0.10004806518554688
24	132.68271207809448	fix_pre	0		120	22.0	2.5	/experiments/aot/R_S_yt-MEfljVFL0xw_375.mp4	0.0	158.3153612613678	0.9999251365661621
24	132.8662350177765	pulse	0	t		22.0	2.5	/experiments/aot/R_S_yt-MEfljVFL0xw_375.mp4	0.0	158.4988842010498	
24	133.68263721466064	movie	1		300	22.0	2.5	/experiments/aot/R_S_yt-MEfljVFL0xw_375.mp4	0.0	159.31528639793396	2.500098943710327
24	134.46612119674683	pulse	1	t		22.0	2.5	/experiments/aot/R_S_yt-MEfljVFL0xw_375.mp4	0.0	160.09877038002014	
24	136.06568217277527	pulse	1	t		22.0	2.5	/experiments/aot/R_S_yt-MEfljVFL0xw_375.mp4	0.0	161.69833135604858	
24	136.18273615837097	fix_post	2		12	22.0	2.5	/experiments/aot/R_S_yt-MEfljVFL0xw_375.mp4	0.0	161.8153853416443	0.09993386268615723
25	136.28267002105713	fix_pre	0		120	23.0	2.5	/experiments/aot/R_S_yt-isJga8ec5UM_32.mp4	0.0	161.91531920433044	0.9999260902404785
25	137.2825961112976	movie	1		300	23.0	2.5	/experiments/aot/R_S_yt-isJga8ec5UM_32.mp4	0.0	162.91524529457092	2.4996049404144287
25	137.66609811782837	pulse	1	t		23.0	2.5	/experiments/aot/R_S_yt-isJga8ec5UM_32.mp4	0.0	163.29874730110168	
25	139.26608514785767	pulse	1	t		23.0	2.5	/experiments/aot/R_S_yt-isJga8ec5UM_32.mp4	0.0	164.89873433113098	
25	139.78220105171204	fix_post	2		12	23.0	2.5	/experiments/aot/R_S_yt-isJga8ec5UM_32.mp4	0.0	165.41485023498535	0.10043501853942871
26	139.88263607025146	fix_pre	0		119	24.0	2.5	/experiments/aot/S_8amznWxLS04_212.mp4	0.0	165.51528525352478	0.9915981292724609
26	140.86610317230225	pulse	0	t		24.0	2.5	/experiments/aot/S_8amznWxLS04_212.mp4	0.0	166.49875235557556	
26	140.87423419952393	movie	1		301	24.0	2.5	/experiments/aot/S_8amznWxLS04_212.mp4	0.0	166.50688338279724	2.5079050064086914
26	142.4661102294922	pulse	1	t		24.0	2.5	/experiments/aot/S_8amznWxLS04_212.mp4	0.0	168.0987594127655	
26	143.38213920593262	fix_post	2		12	24.0	2.5	/experiments/aot/S_8amznWxLS04_212.mp4	0.0	169.01478838920593	0.10003495216369629
27	143.4821741580963	fix_pre	0		120	25.0	2.5	/experiments/aot/R_S_pexels-laker-5793000.mp4	0.0	169.11482334136963	1.000025987625122
27	144.0660982131958	pulse	0	t		25.0	2.5	/experiments/aot/R_S_pexels-laker-5793000.mp4	0.0	169.69874739646912	
27	144.48220014572144	movie	1		160	25.0	2.5	/experiments/aot/R_S_pexels-laker-5793000.mp4	0.0	170.11484932899475	2.499958038330078
27	145.6662290096283	pulse	1	t		25.0	2.5	/experiments/aot/R_S_pexels-laker-5793000.mp4	0.0	171.2988781929016	
27	146.9821581840515	fix_post	2		12	25.0	2.5	/experiments/aot/R_S_pexels-laker-5793000.mp4	0.0	172.61480736732483	0.10044503211975098
28	147.08260321617126	fix_pre	0		120	26.0	2.5	/experiments/aot/R_S_3WAnGcPubBY_143.mp4	0.0	172.71525239944458	1.0000360012054443
28	147.26613116264343	pulse	0	t		26.0	2.5	/experiments/aot/R_S_3WAnGcPubBY_143.mp4	0.0	172.89878034591675	
28	148.0826392173767	movie	1		299	26.0	2.5	/experiments/aot/R_S_3WAnGcPubBY_143.mp4	0.0	173.71528840065002	2.499966859817505
28	148.86610412597656	pulse	1	t		26.0	2.5	/experiments/aot/R_S_3WAnGcPubBY_143.mp4	0.0	174.49875330924988	
28	150.46602320671082	pulse	1	t		26.0	2.5	/experiments/aot/R_S_3WAnGcPubBY_143.mp4	0.0	176.09867238998413	
28	150.5826060771942	fix_post	2		12	26.0	2.5	/experiments/aot/R_S_3WAnGcPubBY_143.mp4	0.0	176.21525526046753	0.10001492500305176
29	150.68262100219727	fix_pre	0		120	27.0	2.5	/experiments/aot/S_ILSVRC2015_train_00415007.mp4	0.0	176.31527018547058	0.9999279975891113
29	151.68254899978638	movie	1		300	27.0	2.5	/experiments/aot/S_ILSVRC2015_train_00415007.mp4	0.0	177.3151981830597	2.4999442100524902
29	152.06612014770508	pulse	1	t		27.0	2.5	/experiments/aot/S_ILSVRC2015_train_00415007.mp4	0.0	177.6987693309784	
29	153.66603302955627	pulse	1	t		27.0	2.5	/experiments/aot/S_ILSVRC2015_train_00415007.mp4	0.0	179.2986822128296	
29	154.18249320983887	fix_post	2		12	27.0	2.5	/experiments/aot/S_ILSVRC2015_train_00415007.mp4	0.0	179.81514239311218	0.10016989707946777
30	154.28266310691833	fix_pre	0		119	28.0	2.5	blank	1.0	179.91531229019165	0.9915890693664551
30	155.2660231590271	pulse	0	t		28.0	2.5	blank	1.0	180.89867234230042	
30	155.2742521762848	movie	1		301	28.0	2.5	blank	1.0	180.9069013595581	2.5083649158477783
30	156.8659930229187	pulse	1	t		28.0	2.5	blank	1.0	182.49864220619202	
30	157.78261709213257	fix_post	2		12	28.0	2.5	blank	1.0	183.41526627540588	0.0999300479888916
31	157.88254714012146	fix_pre	0		120	29.0	2.5	/experiments/aot/R_S_comp_L007_C007_PS_v01_SDR_PS_20180925_SDR_2K_AVC.mp4	0.0	183.51519632339478	1.0000269412994385
31	158.4659960269928	pulse	0	t		29.0	2.5	/experiments/aot/R_S_comp_L007_C007_PS_v01_SDR_PS_20180925_SDR_2K_AVC.mp4	0.0	184.0986452102661	
31	158.8825740814209	movie	1		169	29.0	2.5	/experiments/aot/R_S_comp_L007_C007_PS_v01_SDR_PS_20180925_SDR_2K_AVC.mp4	0.0	184.5152232646942	2.4998531341552734
31	160.06602716445923	pulse	1	t		29.0	2.5	/experiments/aot/R_S_comp_L007_C007_PS_v01_SDR_PS_20180925_SDR_2K_AVC.mp4	0.0	185.69867634773254	
31	161.38242721557617	fix_post	2		12	29.0	2.5	/experiments/aot/R_S_comp_L007_C007_PS_v01_SDR_PS_20180925_SDR_2K_AVC.mp4	0.0	187.0150763988495	0.10011982917785645
32	161.48254704475403	fix_pre	0		120	30.0	2.5	/experiments/aot/R_S_yt-VfASxEzDrvc_145.mp4	0.0	187.11519622802734	0.9998619556427002
32	161.66619205474854	pulse	0	t		30.0	2.5	/experiments/aot/R_S_yt-VfASxEzDrvc_145.mp4	0.0	187.29884123802185	
32	162.48240900039673	movie	1		300	30.0	2.5	/experiments/aot/R_S_yt-VfASxEzDrvc_145.mp4	0.0	188.11505818367004	2.4996840953826904
32	163.26601314544678	pulse	1	t		30.0	2.5	/experiments/aot/R_S_yt-VfASxEzDrvc_145.mp4	0.0	188.8986623287201	
32	164.8660762310028	pulse	1	t		30.0	2.5	/experiments/aot/R_S_yt-VfASxEzDrvc_145.mp4	0.0	190.49872541427612	
32	164.98209309577942	fix_post	2		12	30.0	2.5	/experiments/aot/R_S_yt-VfASxEzDrvc_145.mp4	0.0	190.61474227905273	0.0999600887298584
33	165.08205318450928	fix_pre	0		120	31.0	2.5	/experiments/aot/S_ILSVRC2015_train_00756000.mp4	0.0	190.7147023677826	1.0004258155822754
33	166.08247900009155	movie	1		300	31.0	2.5	/experiments/aot/S_ILSVRC2015_train_00756000.mp4	0.0	191.71512818336487	2.499948024749756
33	166.46593308448792	pulse	1	t		31.0	2.5	/experiments/aot/S_ILSVRC2015_train_00756000.mp4	0.0	192.09858226776123	
33	168.0659580230713	pulse	1	t		31.0	2.5	/experiments/aot/S_ILSVRC2015_train_00756000.mp4	0.0	193.6986072063446	
33	168.5824270248413	fix_post	2		12	31.0	2.5	/experiments/aot/S_ILSVRC2015_train_00756000.mp4	0.0	194.21507620811462	0.10002303123474121
34	168.68245005607605	fix_pre	0		119	32.0	2.5	/experiments/aot/S_yt-ycfVJyrFgB4_15.mp4	0.0	194.31509923934937	0.9916620254516602
34	169.66591715812683	pulse	0	t		32.0	2.5	/experiments/aot/S_yt-ycfVJyrFgB4_15.mp4	0.0	195.29856634140015	
34	169.6741120815277	movie	1		301	32.0	2.5	/experiments/aot/S_yt-ycfVJyrFgB4_15.mp4	0.0	195.30676126480103	2.5079879760742188
34	171.2660071849823	pulse	1	t		32.0	2.5	/experiments/aot/S_yt-ycfVJyrFgB4_15.mp4	0.0	196.89865636825562	
34	172.18210005760193	fix_post	2		12	32.0	2.5	/experiments/aot/S_yt-ycfVJyrFgB4_15.mp4	0.0	197.81474924087524	0.10035014152526855
35	172.2824501991272	fix_pre	0		120	33.0	2.5	/experiments/aot/S_1y-EvnfGO9Y_70.mp4	0.0	197.9150993824005	0.999640941619873
35	172.86590909957886	pulse	0	t		33.0	2.5	/experiments/aot/S_1y-EvnfGO9Y_70.mp4	0.0	198.49855828285217	
35	173.28209114074707	movie	1		298	33.0	2.5	/experiments/aot/S_1y-EvnfGO9Y_70.mp4	0.0	198.91474032402039	2.500272035598755
35	174.4658980369568	pulse	1	t		33.0	2.5	/experiments/aot/S_1y-EvnfGO9Y_70.mp4	0.0	200.0985472202301	
35	175.78236317634583	fix_post	2		12	33.0	2.5	/experiments/aot/S_1y-EvnfGO9Y_70.mp4	0.0	201.41501235961914	0.10009193420410156
36	175.88245511054993	fix_pre	0		120	34.0	2.5	/experiments/aot/S_yt-3E02UEHdoZ4_752.mp4	0.0	201.51510429382324	0.9999630451202393
36	176.06598114967346	pulse	0	t		34.0	2.5	/experiments/aot/S_yt-3E02UEHdoZ4_752.mp4	0.0	201.69863033294678	
36	176.88241815567017	movie	1		300	34.0	2.5	/experiments/aot/S_yt-3E02UEHdoZ4_752.mp4	0.0	202.51506733894348	2.4999780654907227
36	177.66591501235962	pulse	1	t		34.0	2.5	/experiments/aot/S_yt-3E02UEHdoZ4_752.mp4	0.0	203.29856419563293	
36	179.26586413383484	pulse	1	t		34.0	2.5	/experiments/aot/S_yt-3E02UEHdoZ4_752.mp4	0.0	204.89851331710815	
36	179.3823962211609	fix_post	2		12	34.0	2.5	/experiments/aot/S_yt-3E02UEHdoZ4_752.mp4	0.0	205.0150454044342	0.09995079040527344
37	179.48234701156616	fix_pre	0		120	35.0	2.5	blank	1.0	205.11499619483948	1.0001060962677002
37	180.48245310783386	movie	1		300	35.0	2.5	blank	1.0	206.11510229110718	2.5000100135803223
37	180.86596417427063	pulse	1	t		35.0	2.5	blank	1.0	206.49861335754395	
37	182.46593523025513	pulse	1	t		35.0	2.5	blank	1.0	208.09858441352844	
37	182.98246312141418	fix_post	2		12	35.0	2.5	blank	1.0	208.6151123046875	0.10003089904785156
38	183.08249402046204	fix_pre	0		119	36.0	2.5	/experiments/aot/S_yt-wnQFgNEnHUI_109.mp4	0.0	208.71514320373535	0.991178035736084
38	184.06547713279724	pulse	0	t		36.0	2.5	/experiments/aot/S_yt-wnQFgNEnHUI_109.mp4	0.0	209.69812631607056	
38	184.07367205619812	movie	1		301	36.0	2.5	/experiments/aot/S_yt-wnQFgNEnHUI_109.mp4	0.0	209.70632123947144	2.5090019702911377
38	185.6662151813507	pulse	1	t		36.0	2.5	/experiments/aot/S_yt-wnQFgNEnHUI_109.mp4	0.0	211.29886436462402	
38	186.58267402648926	fix_post	2		12	36.0	2.5	/experiments/aot/S_yt-wnQFgNEnHUI_109.mp4	0.0	212.21532320976257	0.1000211238861084
39	186.68269515037537	fix_pre	0		120	37.0	2.5	/experiments/aot/R_S_Pexels_Videos_2791797.mp4	0.0	212.31534433364868	0.9997789859771729
39	187.26594305038452	pulse	0	t		37.0	2.5	/experiments/aot/R_S_Pexels_Videos_2791797.mp4	0.0	212.89859223365784	
39	187.68247413635254	movie	1		162	37.0	2.5	/experiments/aot/R_S_Pexels_Videos_2791797.mp4	0.0	213.31512331962585	2.499919891357422
39	188.86595511436462	pulse	1	t		37.0	2.5	/experiments/aot/R_S_Pexels_Videos_2791797.mp4	0.0	214.49860429763794	
39	190.18239402770996	fix_post	2		12	37.0	2.5	/experiments/aot/R_S_Pexels_Videos_2791797.mp4	0.0	215.81504321098328	0.09996914863586426
40	190.28236317634583	fix_pre	0		120	38.0	2.5	/experiments/aot/S_comp_DB_D001_C001_PSNK_v06_SDR_PS_20180824_SDR_2K_AVC.mp4	0.0	215.91501235961914	1.0000019073486328
40	190.46589612960815	pulse	0	t		38.0	2.5	/experiments/aot/S_comp_DB_D001_C001_PSNK_v06_SDR_PS_20180824_SDR_2K_AVC.mp4	0.0	216.09854531288147	
40	191.28236508369446	movie	1		165	38.0	2.5	/experiments/aot/S_comp_DB_D001_C001_PSNK_v06_SDR_PS_20180824_SDR_2K_AVC.mp4	0.0	216.91501426696777	2.500011920928955
40	192.0658311843872	pulse	1	t		38.0	2.5	/experiments/aot/S_comp_DB_D001_C001_PSNK_v06_SDR_PS_20180824_SDR_2K_AVC.mp4	0.0	217.69848036766052	
40	193.66586804389954	pulse	1	t		38.0	2.5	/experiments/aot/S_comp_DB_D001_C001_PSNK_v06_SDR_PS_20180824_SDR_2K_AVC.mp4	0.0	219.29851722717285	
40	193.7823770046234	fix_post	2		12	38.0	2.5	/experiments/aot/S_comp_DB_D001_C001_PSNK_v06_SDR_PS_20180824_SDR_2K_AVC.mp4	0.0	219.41502618789673	0.09992814064025879
41	193.88230514526367	fix_pre	0		120	39.0	2.5	/experiments/aot/R_S_yt-4rwBpRuHg-c_1308.mp4	0.0	219.514954328537	1.0000379085540771
41	194.88234305381775	movie	1		300	39.0	2.5	/experiments/aot/R_S_yt-4rwBpRuHg-c_1308.mp4	0.0	220.51499223709106	2.4999849796295166
41	195.26585412025452	pulse	1	t		39.0	2.5	/experiments/aot/R_S_yt-4rwBpRuHg-c_1308.mp4	0.0	220.89850330352783	
41	196.86589407920837	pulse	1	t		39.0	2.5	/experiments/aot/R_S_yt-4rwBpRuHg-c_1308.mp4	0.0	222.4985432624817	
41	197.38232803344727	fix_post	2		12	39.0	2.5	/experiments/aot/R_S_yt-4rwBpRuHg-c_1308.mp4	0.0	223.01497721672058	0.1000370979309082
42	197.48236513137817	fix_pre	0		119	40.0	2.5	/experiments/aot/S_yt-6mRpmfIvdew_1435.mp4	0.0	223.1150143146515	0.9916610717773438
42	198.46586513519287	pulse	0	t		40.0	2.5	/experiments/aot/S_yt-6mRpmfIvdew_1435.mp4	0.0	224.0985143184662	
42	198.47402620315552	movie	1		301	40.0	2.5	/experiments/aot/S_yt-6mRpmfIvdew_1435.mp4	0.0	224.10667538642883	2.508297920227051
42	200.06597113609314	pulse	1	t		40.0	2.5	/experiments/aot/S_yt-6mRpmfIvdew_1435.mp4	0.0	225.69862031936646	
42	200.98232412338257	fix_post	2		12	40.0	2.5	/experiments/aot/S_yt-6mRpmfIvdew_1435.mp4	0.0	226.61497330665588	0.09999608993530273
43	201.08232021331787	fix_pre	0		120	41.0	2.5	/experiments/aot/R_S_yt-9EnchawJ3pA_90.mp4	0.0	226.7149693965912	0.9999978542327881
43	201.66583108901978	pulse	0	t		41.0	2.5	/experiments/aot/R_S_yt-9EnchawJ3pA_90.mp4	0.0	227.2984802722931	
43	202.08231806755066	movie	1		300	41.0	2.5	/experiments/aot/R_S_yt-9EnchawJ3pA_90.mp4	0.0	227.71496725082397	2.4999589920043945
43	203.26585507392883	pulse	1	t		41.0	2.5	/experiments/aot/R_S_yt-9EnchawJ3pA_90.mp4	0.0	228.89850425720215	
43	204.58227705955505	fix_post	2		12	41.0	2.5	/experiments/aot/R_S_yt-9EnchawJ3pA_90.mp4	0.0	230.21492624282837	0.10012507438659668
44	204.68240213394165	fix_pre	0		120	42.0	2.5	blank	1.0	230.31505131721497	0.9998979568481445
44	204.86585402488708	pulse	0	t		42.0	2.5	blank	1.0	230.4985032081604	
44	205.6823000907898	movie	1		300	42.0	2.5	blank	1.0	231.3149492740631	2.4999539852142334
44	206.465754032135	pulse	1	t		42.0	2.5	blank	1.0	232.09840321540833	
44	208.06586623191833	pulse	1	t		42.0	2.5	blank	1.0	233.69851541519165	
44	208.18225407600403	fix_post	2		12	42.0	2.5	blank	1.0	233.81490325927734	0.09996199607849121
45	208.28221607208252	fix_pre	0		120	43.0	2.5	/experiments/aot/S_1y-EvnfGO9Y_70.mp4	0.0	233.91486525535583	0.9997720718383789
45	209.2819881439209	movie	1		299	43.0	2.5	/experiments/aot/S_1y-EvnfGO9Y_70.mp4	0.0	234.9146373271942	2.5002188682556152
45	209.66578221321106	pulse	1	t		43.0	2.5	/experiments/aot/S_1y-EvnfGO9Y_70.mp4	0.0	235.29843139648438	
45	211.26584601402283	pulse	1	t		43.0	2.5	/experiments/aot/S_1y-EvnfGO9Y_70.mp4	0.0	236.89849519729614	
45	211.7822070121765	fix_post	2		12	43.0	2.5	/experiments/aot/S_1y-EvnfGO9Y_70.mp4	0.0	237.41485619544983	0.10008502006530762
46	211.88229203224182	fix_pre	0		119	44.0	2.5	/experiments/aot/S_yt-isJga8ec5UM_32.mp4	0.0	237.51494121551514	0.9916620254516602
46	212.865807056427	pulse	0	t		44.0	2.5	/experiments/aot/S_yt-isJga8ec5UM_32.mp4	0.0	238.49845623970032	
46	212.87395405769348	movie	1		301	44.0	2.5	/experiments/aot/S_yt-isJga8ec5UM_32.mp4	0.0	238.5066032409668	2.5083200931549072
46	214.4657461643219	pulse	1	t		44.0	2.5	/experiments/aot/S_yt-isJga8ec5UM_32.mp4	0.0	240.09839534759521	
46	215.3822741508484	fix_post	2		12	44.0	2.5	/experiments/aot/S_yt-isJga8ec5UM_32.mp4	0.0	241.0149233341217	0.09990692138671875
47	215.4821810722351	fix_pre	0		120	45.0	2.5	/experiments/aot/S__6qAy77ODUI_175.mp4	0.0	241.11483025550842	1.00006103515625
47	216.06581807136536	pulse	0	t		45.0	2.5	/experiments/aot/S__6qAy77ODUI_175.mp4	0.0	241.69846725463867	
47	216.48224210739136	movie	1		300	45.0	2.5	/experiments/aot/S__6qAy77ODUI_175.mp4	0.0	242.11489129066467	2.5000240802764893
47	217.66570019721985	pulse	1	t		45.0	2.5	/experiments/aot/S__6qAy77ODUI_175.mp4	0.0	243.29834938049316	
47	218.98226618766785	fix_post	2		12	45.0	2.5	/experiments/aot/S__6qAy77ODUI_175.mp4	0.0	244.61491537094116	0.10001492500305176
48	219.0822811126709	fix_pre	0		120	46.0	2.5	/experiments/aot/R_S_yt-JVhfcpV7OaY_71.mp4	0.0	244.7149302959442	0.9999558925628662
48	219.26576900482178	pulse	0	t		46.0	2.5	/experiments/aot/R_S_yt-JVhfcpV7OaY_71.mp4	0.0	244.8984181880951	
48	220.08223700523376	movie	1		299	46.0	2.5	/experiments/aot/R_S_yt-JVhfcpV7OaY_71.mp4	0.0	245.71488618850708	2.49955415725708
48	220.86583805084229	pulse	1	t		46.0	2.5	/experiments/aot/R_S_yt-JVhfcpV7OaY_71.mp4	0.0	246.4984872341156	
48	222.46569800376892	pulse	1	t		46.0	2.5	/experiments/aot/R_S_yt-JVhfcpV7OaY_71.mp4	0.0	248.09834718704224	
48	222.58179116249084	fix_post	2		12	46.0	2.5	/experiments/aot/R_S_yt-JVhfcpV7OaY_71.mp4	0.0	248.21444034576416	0.1003718376159668
49	222.6821630001068	fix_pre	0		120	47.0	2.5	/experiments/aot/S_yt-cokedWwwYYs_136.mp4	0.0	248.31481218338013	1.0000410079956055
49	223.68220400810242	movie	1		300	47.0	2.5	/experiments/aot/S_yt-cokedWwwYYs_136.mp4	0.0	249.31485319137573	2.499671220779419
49	224.06572008132935	pulse	1	t		47.0	2.5	/experiments/aot/S_yt-cokedWwwYYs_136.mp4	0.0	249.69836926460266	
49	225.66590905189514	pulse	1	t		47.0	2.5	/experiments/aot/S_yt-cokedWwwYYs_136.mp4	0.0	251.29855823516846	
49	226.18187522888184	fix_post	2		12	47.0	2.5	/experiments/aot/S_yt-cokedWwwYYs_136.mp4	0.0	251.81452441215515	0.10030484199523926
50	226.28218007087708	fix_pre	0		119	48.0	2.5	blank	1.0	251.9148292541504	0.9917199611663818
50	227.2657060623169	pulse	0	t		48.0	2.5	blank	1.0	252.8983552455902	
50	227.27390003204346	movie	1		301	48.0	2.5	blank	1.0	252.90654921531677	2.507810115814209
50	228.8656520843506	pulse	1	t		48.0	2.5	blank	1.0	254.4983012676239	
50	229.78171014785767	fix_post	2		12	48.0	2.5	blank	1.0	255.41435933113098	0.1005239486694336
51	229.8822340965271	fix_pre	0		120	49.0	2.5	/experiments/aot/S_yt-_HuBzj8EPBc_62.mp4	0.0	255.51488327980042	0.9995269775390625
51	230.46568202972412	pulse	0	t		49.0	2.5	/experiments/aot/S_yt-_HuBzj8EPBc_62.mp4	0.0	256.09833121299744	
51	230.88176107406616	movie	1		300	49.0	2.5	/experiments/aot/S_yt-_HuBzj8EPBc_62.mp4	0.0	256.5144102573395	2.5003750324249268
51	232.0656521320343	pulse	1	t		49.0	2.5	/experiments/aot/S_yt-_HuBzj8EPBc_62.mp4	0.0	257.6983013153076	
51	233.3821361064911	fix_post	2		12	49.0	2.5	/experiments/aot/S_yt-_HuBzj8EPBc_62.mp4	0.0	259.0147852897644	0.09993600845336914
52	233.48207211494446	fix_pre	0		120	50.0	2.5	/experiments/aot/S_yt-Fm97IY0Z2LU_110.mp4	0.0	259.1147212982178	1.0000419616699219
52	233.66569900512695	pulse	0	t		50.0	2.5	/experiments/aot/S_yt-Fm97IY0Z2LU_110.mp4	0.0	259.29834818840027	
52	234.48211407661438	movie	1		300	50.0	2.5	/experiments/aot/S_yt-Fm97IY0Z2LU_110.mp4	0.0	260.1147632598877	2.4996190071105957
52	235.26562404632568	pulse	1	t		50.0	2.5	/experiments/aot/S_yt-Fm97IY0Z2LU_110.mp4	0.0	260.898273229599	
52	236.8655869960785	pulse	1	t		50.0	2.5	/experiments/aot/S_yt-Fm97IY0Z2LU_110.mp4	0.0	262.4982361793518	
52	236.98173308372498	fix_post	2		12	50.0	2.5	/experiments/aot/S_yt-Fm97IY0Z2LU_110.mp4	0.0	262.6143822669983	0.10044312477111816
53	237.0821762084961	fix_pre	0		120	51.0	2.5	/experiments/aot/S_video-7.mp4	0.0	262.7148253917694	0.9999768733978271
53	238.08215308189392	movie	1		164	51.0	2.5	/experiments/aot/S_video-7.mp4	0.0	263.71480226516724	2.4995899200439453
53	238.46566200256348	pulse	1	t		51.0	2.5	/experiments/aot/S_video-7.mp4	0.0	264.0983111858368	
53	240.06522607803345	pulse	1	t		51.0	2.5	/experiments/aot/S_video-7.mp4	0.0	265.69787526130676	
53	240.58174300193787	fix_post	2		12	51.0	2.5	/experiments/aot/S_video-7.mp4	0.0	266.2143921852112	0.09995222091674805
54	240.68169522285461	fix_pre	0		119	52.0	2.5	/experiments/aot/S_yt-2lnxIdOTxog_157.mp4	0.0	266.31434440612793	0.992264986038208
54	241.6657931804657	pulse	0	t		52.0	2.5	/experiments/aot/S_yt-2lnxIdOTxog_157.mp4	0.0	267.298442363739	
54	241.67396020889282	movie	1		301	52.0	2.5	/experiments/aot/S_yt-2lnxIdOTxog_157.mp4	0.0	267.30660939216614	2.508147954940796
54	243.26245617866516	pulse	1	t		52.0	2.5	/experiments/aot/S_yt-2lnxIdOTxog_157.mp4	0.0	268.8951053619385	
54	244.18210816383362	fix_post	2		12	52.0	2.5	/experiments/aot/S_yt-2lnxIdOTxog_157.mp4	0.0	269.81475734710693	0.10002684593200684
55	244.28213500976562	fix_pre	0		120	53.0	2.5	/experiments/aot/R_S_yt-4wjGeLyvfjY_223.mp4	0.0	269.91478419303894	0.9999911785125732
55	244.86560010910034	pulse	0	t		53.0	2.5	/experiments/aot/R_S_yt-4wjGeLyvfjY_223.mp4	0.0	270.49824929237366	
55	245.2821261882782	movie	1		300	53.0	2.5	/experiments/aot/R_S_yt-4wjGeLyvfjY_223.mp4	0.0	270.9147753715515	2.4999539852142334
55	246.46555519104004	pulse	1	t		53.0	2.5	/experiments/aot/R_S_yt-4wjGeLyvfjY_223.mp4	0.0	272.09820437431335	
55	247.78208017349243	fix_post	2		12	53.0	2.5	/experiments/aot/R_S_yt-4wjGeLyvfjY_223.mp4	0.0	273.41472935676575	0.09998488426208496
56	247.88206505775452	fix_pre	0		120	54.0	2.5	/experiments/aot/S_yt-ebzrQh5ErI4_3.mp4	0.0	273.51471424102783	0.9999790191650391
56	248.0655210018158	pulse	0	t		54.0	2.5	/experiments/aot/S_yt-ebzrQh5ErI4_3.mp4	0.0	273.6981701850891	
56	248.88204407691956	movie	1		300	54.0	2.5	/experiments/aot/S_yt-ebzrQh5ErI4_3.mp4	0.0	274.51469326019287	2.5000600814819336
56	249.6655101776123	pulse	1	t		54.0	2.5	/experiments/aot/S_yt-ebzrQh5ErI4_3.mp4	0.0	275.2981593608856	
56	251.26554608345032	pulse	1	t		54.0	2.5	/experiments/aot/S_yt-ebzrQh5ErI4_3.mp4	0.0	276.89819526672363	
56	251.3821041584015	fix_post	2		12	54.0	2.5	/experiments/aot/S_yt-ebzrQh5ErI4_3.mp4	0.0	277.0147533416748	0.09996986389160156
57	251.4820740222931	fix_pre	0		120	55.0	2.5	/experiments/aot/S_ILSVRC2015_train_00415007.mp4	0.0	277.1147232055664	0.9999551773071289
57	252.48202919960022	movie	1		300	55.0	2.5	/experiments/aot/S_ILSVRC2015_train_00415007.mp4	0.0	278.11467838287354	2.5000410079956055
57	252.86555314064026	pulse	1	t		55.0	2.5	/experiments/aot/S_ILSVRC2015_train_00415007.mp4	0.0	278.4982023239136	
57	254.46550822257996	pulse	1	t		55.0	2.5	/experiments/aot/S_ILSVRC2015_train_00415007.mp4	0.0	280.09815740585327	
57	254.98207020759583	fix_post	2		12	55.0	2.5	/experiments/aot/S_ILSVRC2015_train_00415007.mp4	0.0	280.61471939086914	0.10017991065979004
58	255.08225011825562	fix_pre	0		119	56.0	2.5	blank	1.0	280.71489930152893	0.9914801120758057
58	256.06554913520813	pulse	0	t		56.0	2.5	blank	1.0	281.69819831848145	
58	256.0737302303314	movie	1		301	56.0	2.5	blank	1.0	281.70637941360474	2.5082778930664062
58	257.66556000709534	pulse	1	t		56.0	2.5	blank	1.0	283.29820919036865	
58	258.5820081233978	fix_post	2		12	56.0	2.5	blank	1.0	284.21465730667114	0.10005593299865723
59	258.6820640563965	fix_pre	0		120	57.0	2.5	/experiments/aot/R_S_production_ID_3712945.mp4	0.0	284.3147132396698	0.999567985534668
59	259.2655131816864	pulse	0	t		57.0	2.5	/experiments/aot/R_S_production_ID_3712945.mp4	0.0	284.8981623649597	
59	259.68163204193115	movie	1		160	57.0	2.5	/experiments/aot/R_S_production_ID_3712945.mp4	0.0	285.31428122520447	2.500422954559326
59	260.86564207077026	pulse	1	t		57.0	2.5	/experiments/aot/R_S_production_ID_3712945.mp4	0.0	286.4982912540436	
59	262.1820549964905	fix_post	2		12	57.0	2.5	/experiments/aot/R_S_production_ID_3712945.mp4	0.0	287.8147041797638	0.10004305839538574
60	262.28209805488586	fix_pre	0		120	58.0	2.5	/experiments/aot/R_S_production_ID_4325591.mp4	0.0	287.9147472381592	0.9998781681060791
60	262.46549820899963	pulse	0	t		58.0	2.5	/experiments/aot/R_S_production_ID_4325591.mp4	0.0	288.09814739227295	
60	263.28197622299194	movie	1		166	58.0	2.5	/experiments/aot/R_S_production_ID_4325591.mp4	0.0	288.91462540626526	2.5000219345092773
60	264.0655040740967	pulse	1	t		58.0	2.5	/experiments/aot/R_S_production_ID_4325591.mp4	0.0	289.69815325737	
60	265.6656231880188	pulse	1	t		58.0	2.5	/experiments/aot/R_S_production_ID_4325591.mp4	0.0	291.2982723712921	
60	265.7819981575012	fix_post	2		12	58.0	2.5	/experiments/aot/R_S_production_ID_4325591.mp4	0.0	291.41464734077454	0.09996891021728516
61	265.8819670677185	fix_pre	0		120	59.0	2.5	/experiments/aot/R_S_yt-isJga8ec5UM_32.mp4	0.0	291.5146162509918	1.000143051147461
61	266.88211011886597	movie	1		300	59.0	2.5	/experiments/aot/R_S_yt-isJga8ec5UM_32.mp4	0.0	292.5147593021393	2.4999289512634277
61	267.2655141353607	pulse	1	t		59.0	2.5	/experiments/aot/R_S_yt-isJga8ec5UM_32.mp4	0.0	292.89816331863403	
61	268.8655171394348	pulse	1	t		59.0	2.5	/experiments/aot/R_S_yt-isJga8ec5UM_32.mp4	0.0	294.49816632270813	
61	269.3820390701294	fix_post	2		12	59.0	2.5	/experiments/aot/R_S_yt-isJga8ec5UM_32.mp4	0.0	295.0146882534027	0.09991812705993652
62	269.48195719718933	fix_pre	0		119	60.0	2.5	/experiments/aot/R_S_pexels-kindel-media-8165572.mp4	0.0	295.11460638046265	0.9916930198669434
62	270.465457201004	pulse	0	t		60.0	2.5	/experiments/aot/R_S_pexels-kindel-media-8165572.mp4	0.0	296.09810638427734	
62	270.4736502170563	movie	1		166	60.0	2.5	/experiments/aot/R_S_pexels-kindel-media-8165572.mp4	0.0	296.1062994003296	2.5082528591156006
62	272.06763315200806	pulse	1	t		60.0	2.5	/experiments/aot/R_S_pexels-kindel-media-8165572.mp4	0.0	297.7002823352814	
62	272.9819030761719	fix_post	2		12	60.0	2.5	/experiments/aot/R_S_pexels-kindel-media-8165572.mp4	0.0	298.6145522594452	0.10002708435058594
63	273.08193016052246	fix_pre	0		120	61.0	2.5	/experiments/aot/R_S_yt-LUIvP_NDWAs_45.mp4	0.0	298.7145793437958	0.9999430179595947
63	273.66548204421997	pulse	0	t		61.0	2.5	/experiments/aot/R_S_yt-LUIvP_NDWAs_45.mp4	0.0	299.2981312274933	
63	274.08187317848206	movie	1		300	61.0	2.5	/experiments/aot/R_S_yt-LUIvP_NDWAs_45.mp4	0.0	299.71452236175537	2.5000929832458496
63	275.2655441761017	pulse	1	t		61.0	2.5	/experiments/aot/R_S_yt-LUIvP_NDWAs_45.mp4	0.0	300.898193359375	
63	276.5819661617279	fix_post	2		12	61.0	2.5	/experiments/aot/R_S_yt-LUIvP_NDWAs_45.mp4	0.0	302.2146153450012	0.09958291053771973
64	276.6815490722656	fix_pre	0		120	62.0	2.5	blank	1.0	302.31419825553894	1.0003941059112549
64	276.8654980659485	pulse	0	t		62.0	2.5	blank	1.0	302.4981472492218	
64	277.6819431781769	movie	1		300	62.0	2.5	blank	1.0	303.3145923614502	2.5000009536743164
64	278.46550703048706	pulse	1	t		62.0	2.5	blank	1.0	304.0981562137604	
64	280.06553506851196	pulse	1	t		62.0	2.5	blank	1.0	305.6981842517853	
64	280.1819441318512	fix_post	2		12	62.0	2.5	blank	1.0	305.8145933151245	0.09999489784240723
65	280.2819390296936	fix_pre	0		120	63.0	2.5	/experiments/aot/S_yt-uWeU2s6JYyk_10.mp4	0.0	305.9145882129669	0.9996881484985352
65	281.28162717819214	movie	1		300	63.0	2.5	/experiments/aot/S_yt-uWeU2s6JYyk_10.mp4	0.0	306.91427636146545	2.500243902206421
65	281.6654062271118	pulse	1	t		63.0	2.5	/experiments/aot/S_yt-uWeU2s6JYyk_10.mp4	0.0	307.29805541038513	
65	283.2654981613159	pulse	1	t		63.0	2.5	/experiments/aot/S_yt-uWeU2s6JYyk_10.mp4	0.0	308.89814734458923	
65	283.78187108039856	fix_post	2		12	63.0	2.5	/experiments/aot/S_yt-uWeU2s6JYyk_10.mp4	0.0	309.4145202636719	0.10003995895385742
66	283.8819110393524	fix_pre	0		119	64.0	2.5	/experiments/aot/S_yt-KpOAdMtPGFs_17.mp4	0.0	309.51456022262573	0.9916360378265381
66	284.8655710220337	pulse	0	t		64.0	2.5	/experiments/aot/S_yt-KpOAdMtPGFs_17.mp4	0.0	310.498220205307	
66	284.87354707717896	movie	1		301	64.0	2.5	/experiments/aot/S_yt-KpOAdMtPGFs_17.mp4	0.0	310.50619626045227	2.5080440044403076
66	286.4654631614685	pulse	1	t		64.0	2.5	/experiments/aot/S_yt-KpOAdMtPGFs_17.mp4	0.0	312.0981123447418	
66	287.38159108161926	fix_post	2		12	64.0	2.5	/experiments/aot/S_yt-KpOAdMtPGFs_17.mp4	0.0	313.0142402648926	0.09989404678344727
67	287.4814851284027	fix_pre	0		120	65.0	2.5	/experiments/aot/S_yt-zh2yLr-o_8A_953.mp4	0.0	313.114134311676	1.0004749298095703
67	288.0654180049896	pulse	0	t		65.0	2.5	/experiments/aot/S_yt-zh2yLr-o_8A_953.mp4	0.0	313.69806718826294	
67	288.4819600582123	movie	1		300	65.0	2.5	/experiments/aot/S_yt-zh2yLr-o_8A_953.mp4	0.0	314.1146092414856	2.499880075454712
67	289.6654591560364	pulse	1	t		65.0	2.5	/experiments/aot/S_yt-zh2yLr-o_8A_953.mp4	0.0	315.2981083393097	
67	290.981840133667	fix_post	2		12	65.0	2.5	/experiments/aot/S_yt-zh2yLr-o_8A_953.mp4	0.0	316.6144893169403	0.10004186630249023
68	291.0818819999695	fix_pre	0		120	66.0	2.5	/experiments/aot/R_S_pexels-vlada-karpovich-8044792.mp4	0.0	316.7145311832428	1.0000791549682617
68	291.26539421081543	pulse	0	t		66.0	2.5	/experiments/aot/R_S_pexels-vlada-karpovich-8044792.mp4	0.0	316.89804339408875	
68	292.08196115493774	movie	1		161	66.0	2.5	/experiments/aot/R_S_pexels-vlada-karpovich-8044792.mp4	0.0	317.71461033821106	2.499547004699707
68	292.864865064621	pulse	1	t		66.0	2.5	/experiments/aot/R_S_pexels-vlada-karpovich-8044792.mp4	0.0	318.4975142478943	
68	294.4657711982727	pulse	1	t		66.0	2.5	/experiments/aot/R_S_pexels-vlada-karpovich-8044792.mp4	0.0	320.098420381546	
68	294.58150815963745	fix_post	2		12	66.0	2.5	/experiments/aot/R_S_pexels-vlada-karpovich-8044792.mp4	0.0	320.21415734291077	0.09995102882385254
69	294.6814591884613	fix_pre	0		120	67.0	2.5	/experiments/aot/S_yt-VjTiMtjdjTw_103.mp4	0.0	320.3141083717346	1.0005009174346924
69	295.681960105896	movie	1		300	67.0	2.5	/experiments/aot/S_yt-VjTiMtjdjTw_103.mp4	0.0	321.3146092891693	2.500157117843628
69	296.0648560523987	pulse	1	t		67.0	2.5	/experiments/aot/S_yt-VjTiMtjdjTw_103.mp4	0.0	321.697505235672	
69	297.6654460430145	pulse	1	t		67.0	2.5	/experiments/aot/S_yt-VjTiMtjdjTw_103.mp4	0.0	323.29809522628784	
69	298.1821172237396	fix_post	2		12	67.0	2.5	/experiments/aot/S_yt-VjTiMtjdjTw_103.mp4	0.0	323.81476640701294	0.10004997253417969
70	298.2821671962738	fix_pre	0		119	68.0	2.5	blank	1.0	323.9148163795471	0.9914870262145996
70	299.265337228775	pulse	0	t		68.0	2.5	blank	1.0	324.89798641204834	
70	299.2736542224884	movie	1		301	68.0	2.5	blank	1.0	324.9063034057617	2.508251905441284
70	300.86539006233215	pulse	1	t		68.0	2.5	blank	1.0	326.49803924560547	
70	301.7819061279297	fix_post	2		12	68.0	2.5	blank	1.0	327.414555311203	0.099945068359375
71	301.88185119628906	fix_pre	0		120	69.0	2.5	/experiments/aot/S_ILSVRC2015_train_00572001.mp4	0.0	327.5145003795624	0.9995980262756348
71	302.46527218818665	pulse	0	t		69.0	2.5	/experiments/aot/S_ILSVRC2015_train_00572001.mp4	0.0	328.09792137145996	
71	302.8814492225647	movie	1		300	69.0	2.5	/experiments/aot/S_ILSVRC2015_train_00572001.mp4	0.0	328.514098405838	2.4999959468841553
71	304.06520104408264	pulse	1	t		69.0	2.5	/experiments/aot/S_ILSVRC2015_train_00572001.mp4	0.0	329.69785022735596	
71	305.38144516944885	fix_post	2		12	69.0	2.5	/experiments/aot/S_ILSVRC2015_train_00572001.mp4	0.0	331.01409435272217	0.10033988952636719
72	305.4817850589752	fix_pre	0		120	70.0	2.5	/experiments/aot/R_S_Person_Going_Through_A_Bible.mp4	0.0	331.11443424224854	1.0000419616699219
72	305.66522216796875	pulse	0	t		70.0	2.5	/experiments/aot/R_S_Person_Going_Through_A_Bible.mp4	0.0	331.29787135124207	
72	306.48182702064514	movie	1		163	70.0	2.5	/experiments/aot/R_S_Person_Going_Through_A_Bible.mp4	0.0	332.11447620391846	2.499946117401123
72	307.2653601169586	pulse	1	t		70.0	2.5	/experiments/aot/R_S_Person_Going_Through_A_Bible.mp4	0.0	332.89800930023193	
72	308.8652491569519	pulse	1	t		70.0	2.5	/experiments/aot/R_S_Person_Going_Through_A_Bible.mp4	0.0	334.4978983402252	
72	308.98177313804626	fix_post	2		12	70.0	2.5	/experiments/aot/R_S_Person_Going_Through_A_Bible.mp4	0.0	334.6144223213196	0.09966397285461426
73	309.0814371109009	fix_pre	0		120	71.0	2.5	/experiments/aot/S_yt-_6j2NXrB-zE_28.mp4	0.0	334.7140862941742	1.0003459453582764
73	310.08178305625916	movie	1		300	71.0	2.5	/experiments/aot/S_yt-_6j2NXrB-zE_28.mp4	0.0	335.71443223953247	2.499606132507324
73	310.46527004241943	pulse	1	t		71.0	2.5	/experiments/aot/S_yt-_6j2NXrB-zE_28.mp4	0.0	336.09791922569275	
73	312.06522607803345	pulse	1	t		71.0	2.5	/experiments/aot/S_yt-_6j2NXrB-zE_28.mp4	0.0	337.69787526130676	
73	312.5813891887665	fix_post	2		12	71.0	2.5	/experiments/aot/S_yt-_6j2NXrB-zE_28.mp4	0.0	338.2140383720398	0.10032892227172852
74	312.6817181110382	fix_pre	0		119	72.0	2.5	/experiments/aot/S_comp_GL_G002_C002_PSNK_v03_SDR_PS_20180925_SDR_2K_AVC.mp4	0.0	338.3143672943115	0.9917120933532715
74	313.6652932167053	pulse	0	t		72.0	2.5	/experiments/aot/S_comp_GL_G002_C002_PSNK_v03_SDR_PS_20180925_SDR_2K_AVC.mp4	0.0	339.29794239997864	
74	313.6734302043915	movie	1		163	72.0	2.5	/experiments/aot/S_comp_GL_G002_C002_PSNK_v03_SDR_PS_20180925_SDR_2K_AVC.mp4	0.0	339.3060793876648	2.508347988128662
74	315.26524806022644	pulse	1	t		72.0	2.5	/experiments/aot/S_comp_GL_G002_C002_PSNK_v03_SDR_PS_20180925_SDR_2K_AVC.mp4	0.0	340.89789724349976	
74	316.18177819252014	fix_post	2		12	72.0	2.5	/experiments/aot/S_comp_GL_G002_C002_PSNK_v03_SDR_PS_20180925_SDR_2K_AVC.mp4	0.0	341.81442737579346	0.09999680519104004
75	316.2817749977112	fix_pre	0		120	73.0	2.5	/experiments/aot/S_yt-YeT4acsbqok_210.mp4	0.0	341.9144241809845	0.9999890327453613
75	316.86518716812134	pulse	0	t		73.0	2.5	/experiments/aot/S_yt-YeT4acsbqok_210.mp4	0.0	342.49783635139465	
75	317.28176403045654	movie	1		300	73.0	2.5	/experiments/aot/S_yt-YeT4acsbqok_210.mp4	0.0	342.91441321372986	2.499983072280884
75	318.46521401405334	pulse	1	t		73.0	2.5	/experiments/aot/S_yt-YeT4acsbqok_210.mp4	0.0	344.09786319732666	
75	319.7817471027374	fix_post	2		12	73.0	2.5	/experiments/aot/S_yt-YeT4acsbqok_210.mp4	0.0	345.41439628601074	0.09996604919433594
76	319.88171315193176	fix_pre	0		120	74.0	2.5	/experiments/aot/S_yt-lfDIg8kaXhA_169.mp4	0.0	345.5143623352051	1.0000810623168945
76	320.06522703170776	pulse	0	t		74.0	2.5	/experiments/aot/S_yt-lfDIg8kaXhA_169.mp4	0.0	345.6978762149811	
76	320.88179421424866	movie	1		300	74.0	2.5	/experiments/aot/S_yt-lfDIg8kaXhA_169.mp4	0.0	346.514443397522	2.4999449253082275
76	321.6652262210846	pulse	1	t		74.0	2.5	/experiments/aot/S_yt-lfDIg8kaXhA_169.mp4	0.0	347.2978754043579	
76	323.26521611213684	pulse	1	t		74.0	2.5	/experiments/aot/S_yt-lfDIg8kaXhA_169.mp4	0.0	348.89786529541016	
76	323.3817391395569	fix_post	2		12	74.0	2.5	/experiments/aot/S_yt-lfDIg8kaXhA_169.mp4	0.0	349.0143883228302	0.09960103034973145
77	323.4813401699066	fix_pre	0		120	75.0	2.5	blank	1.0	349.11398935317993	1.0004079341888428
77	324.48174810409546	movie	1		300	75.0	2.5	blank	1.0	350.1143972873688	2.4999430179595947
77	324.86520314216614	pulse	1	t		75.0	2.5	blank	1.0	350.49785232543945	
77	326.4651401042938	pulse	1	t		75.0	2.5	blank	1.0	352.09778928756714	
77	326.98169112205505	fix_post	2		12	75.0	2.5	blank	1.0	352.61434030532837	0.10002994537353516
78	327.0817210674286	fix_pre	0		119	76.0	2.5	/experiments/aot/S_bing-www_msn_com_en-us_video_news_tommy-lasorda-salutes-national-league-champs_vp-AAtLThQ_4.mp4	0.0	352.7143702507019	0.9916360378265381
78	328.0652561187744	pulse	0	t		76.0	2.5	/experiments/aot/S_bing-www_msn_com_en-us_video_news_tommy-lasorda-salutes-national-league-champs_vp-AAtLThQ_4.mp4	0.0	353.69790530204773	
78	328.0733571052551	movie	1		161	76.0	2.5	/experiments/aot/S_bing-www_msn_com_en-us_video_news_tommy-lasorda-salutes-national-league-champs_vp-AAtLThQ_4.mp4	0.0	353.70600628852844	2.507913112640381
78	329.66625022888184	pulse	1	t		76.0	2.5	/experiments/aot/S_bing-www_msn_com_en-us_video_news_tommy-lasorda-salutes-national-league-champs_vp-AAtLThQ_4.mp4	0.0	355.29889941215515	
78	330.5812702178955	fix_post	2		12	76.0	2.5	/experiments/aot/S_bing-www_msn_com_en-us_video_news_tommy-lasorda-salutes-national-league-champs_vp-AAtLThQ_4.mp4	0.0	356.2139194011688	0.1005408763885498
79	330.68181109428406	fix_pre	0		120	77.0	2.5	/experiments/aot/S_yt-JVhfcpV7OaY_71.mp4	0.0	356.3144602775574	0.9999630451202393
79	331.2652311325073	pulse	0	t		77.0	2.5	/experiments/aot/S_yt-JVhfcpV7OaY_71.mp4	0.0	356.89788031578064	
79	331.6817741394043	movie	1		300	77.0	2.5	/experiments/aot/S_yt-JVhfcpV7OaY_71.mp4	0.0	357.3144233226776	2.4994430541992188
79	332.8651921749115	pulse	1	t		77.0	2.5	/experiments/aot/S_yt-JVhfcpV7OaY_71.mp4	0.0	358.4978413581848	
79	334.1812171936035	fix_post	2		12	77.0	2.5	/experiments/aot/S_yt-JVhfcpV7OaY_71.mp4	0.0	359.81386637687683	0.10004281997680664
80	334.2812600135803	fix_pre	0		120	78.0	2.5	/experiments/aot/S_yt-sTBOjPxix5c_1072.mp4	0.0	359.91390919685364	0.9999861717224121
80	334.46518301963806	pulse	0	t		78.0	2.5	/experiments/aot/S_yt-sTBOjPxix5c_1072.mp4	0.0	360.0978322029114	
80	335.28124618530273	movie	1		300	78.0	2.5	/experiments/aot/S_yt-sTBOjPxix5c_1072.mp4	0.0	360.91389536857605	2.5003719329833984
80	336.06508708000183	pulse	1	t		78.0	2.5	/experiments/aot/S_yt-sTBOjPxix5c_1072.mp4	0.0	361.69773626327515	
80	337.66503620147705	pulse	1	t		78.0	2.5	/experiments/aot/S_yt-sTBOjPxix5c_1072.mp4	0.0	363.29768538475037	
80	337.78161811828613	fix_post	2		12	78.0	2.5	/experiments/aot/S_yt-sTBOjPxix5c_1072.mp4	0.0	363.41426730155945	0.10008502006530762
81	337.88170313835144	fix_pre	0		120	79.0	2.5	/experiments/aot/S_yt-2OoHcgS8sss_7.mp4	0.0	363.51435232162476	0.9998998641967773
81	338.8816030025482	movie	1		300	79.0	2.5	/experiments/aot/S_yt-2OoHcgS8sss_7.mp4	0.0	364.51425218582153	2.4999871253967285
81	339.26523900032043	pulse	1	t		79.0	2.5	/experiments/aot/S_yt-2OoHcgS8sss_7.mp4	0.0	364.89788818359375	
81	340.8652710914612	pulse	1	t		79.0	2.5	/experiments/aot/S_yt-2OoHcgS8sss_7.mp4	0.0	366.4979202747345	
81	341.38159012794495	fix_post	2		12	79.0	2.5	/experiments/aot/S_yt-2OoHcgS8sss_7.mp4	0.0	367.01423931121826	0.09999608993530273
82	341.48158621788025	fix_pre	0		119	80.0	2.5	/experiments/aot/R_S_yt-KM_SJx8CMGc_10.mp4	0.0	367.11423540115356	0.9917318820953369
82	342.46520614624023	pulse	0	t		80.0	2.5	/experiments/aot/R_S_yt-KM_SJx8CMGc_10.mp4	0.0	368.09785532951355	
82	342.4733180999756	movie	1		301	80.0	2.5	/experiments/aot/R_S_yt-KM_SJx8CMGc_10.mp4	0.0	368.1059672832489	2.508328914642334
82	344.06520318984985	pulse	1	t		80.0	2.5	/experiments/aot/R_S_yt-KM_SJx8CMGc_10.mp4	0.0	369.69785237312317	
82	344.9816470146179	fix_post	2		12	80.0	2.5	/experiments/aot/R_S_yt-KM_SJx8CMGc_10.mp4	0.0	370.61429619789124	0.10004019737243652
83	345.08168721199036	fix_pre	0		120	81.0	2.5	/experiments/aot/R_S_Person_Going_Through_A_Bible.mp4	0.0	370.7143363952637	1.0000088214874268
83	345.6652021408081	pulse	0	t		81.0	2.5	/experiments/aot/R_S_Person_Going_Through_A_Bible.mp4	0.0	371.2978513240814	
83	346.0816960334778	movie	1		163	81.0	2.5	/experiments/aot/R_S_Person_Going_Through_A_Bible.mp4	0.0	371.7143452167511	2.499994993209839
83	347.26535511016846	pulse	1	t		81.0	2.5	/experiments/aot/R_S_Person_Going_Through_A_Bible.mp4	0.0	372.8980042934418	
83	348.5816910266876	fix_post	2		12	81.0	2.5	/experiments/aot/R_S_Person_Going_Through_A_Bible.mp4	0.0	374.21434020996094	0.09952616691589355
84	348.6812171936035	fix_pre	0		120	82.0	2.5	/experiments/aot/R_S_yt-K-iCphzt_RE_17.mp4	0.0	374.31386637687683	0.9999690055847168
84	348.86514711380005	pulse	0	t		82.0	2.5	/experiments/aot/R_S_yt-K-iCphzt_RE_17.mp4	0.0	374.49779629707336	
84	349.68118619918823	movie	1		300	82.0	2.5	/experiments/aot/R_S_yt-K-iCphzt_RE_17.mp4	0.0	375.31383538246155	2.5004959106445312
84	350.46507120132446	pulse	1	t		82.0	2.5	/experiments/aot/R_S_yt-K-iCphzt_RE_17.mp4	0.0	376.0977203845978	
84	352.0649960041046	pulse	1	t		82.0	2.5	/experiments/aot/R_S_yt-K-iCphzt_RE_17.mp4	0.0	377.69764518737793	
84	352.18168210983276	fix_post	2		12	82.0	2.5	/experiments/aot/R_S_yt-K-iCphzt_RE_17.mp4	0.0	377.8143312931061	0.09957098960876465
85	352.2812530994415	fix_pre	0		120	83.0	2.5	blank	1.0	377.91390228271484	1.0001449584960938
85	353.2813980579376	movie	1		300	83.0	2.5	blank	1.0	378.91404724121094	2.500209093093872
85	353.6653060913086	pulse	1	t		83.0	2.5	blank	1.0	379.2979552745819	
85	355.2651882171631	pulse	1	t		83.0	2.5	blank	1.0	380.8978374004364	
85	355.7816071510315	fix_post	2		12	83.0	2.5	blank	1.0	381.4142563343048	0.10001993179321289
87	355.8816270828247	stim	0		1716					381.514276266098	14.299952030181885
87	356.86516308784485	pulse	0	t						382.49781227111816	
87	358.46512508392334	pulse	0	t						384.09777426719666	
87	360.06495809555054	pulse	0	t						385.69760727882385	
87	361.6651380062103	pulse	0	t						387.29778718948364	
87	363.26513600349426	pulse	0	t						388.8977851867676	
87	364.86489701271057	pulse	0	t						390.4975461959839	
87	366.46492409706116	pulse	0	t						392.0975732803345	
87	368.0649092197418	pulse	0	t						393.69755840301514	
87	369.6649811267853	pulse	0	t						395.2976303100586	
