trial_nr	onset	event_type	phase	response	nr_frames	movie_index	movie_duration	movie_file	blank	onset_abs	duration
0	0.16658711433410645	stim	0		74					16.700138807296753	0.616610050201416
0	0.7750849723815918	response	0	space						17.30863666534424	
1	0.7831971645355225	stim	0		3281					17.31674885749817	27.355486631393433
1	28.12906265258789	pulse	0	t						44.66261434555054	
1	28.138683795928955	stim	1		1715					44.6722354888916	14.300774335861206
1	29.713486671447754	pulse	1	t						46.2470383644104	
1	31.313236236572266	pulse	1	t						47.84678792953491	
1	32.913283348083496	pulse	1	t						49.44683504104614	
1	34.51349115371704	pulse	1	t						51.04704284667969	
1	36.11369252204895	pulse	1	t						52.6472442150116	
1	37.71394896507263	pulse	1	t						54.24750065803528	
1	39.31435513496399	pulse	1	t						55.847906827926636	
1	40.91448140144348	pulse	1	t						57.44803309440613	
2	42.43945813179016	fix_pre	0		10	0.0	2.5	/experiments/Knapen_AOT/AOT_stimuli/rescaled_final/0098_fw.mp4	0.0	58.97300982475281	0.10008478164672852
2	42.514758348464966	pulse	0	t		0.0	2.5	/experiments/Knapen_AOT/AOT_stimuli/rescaled_final/0098_fw.mp4	0.0	59.04831004142761	
2	42.53954291343689	movie	1		287	0.0	2.5	/experiments/Knapen_AOT/AOT_stimuli/rescaled_final/0098_fw.mp4	0.0	59.073094606399536	2.4920198917388916
2	44.113630533218384	pulse	1	t		0.0	2.5	/experiments/Knapen_AOT/AOT_stimuli/rescaled_final/0098_fw.mp4	0.0	60.64718222618103	
2	45.03156280517578	fix_post	2		12	0.0	2.5	/experiments/Knapen_AOT/AOT_stimuli/rescaled_final/0098_fw.mp4	0.0	61.56511449813843	0.09995627403259277
3	45.131519079208374	fix_pre	0		120	1.0	2.5	/experiments/Knapen_AOT/AOT_stimuli/rescaled_final/1894_rv.mp4	0.0	61.66507077217102	1.0085411071777344
3	45.715149879455566	pulse	0	t		1.0	2.5	/experiments/Knapen_AOT/AOT_stimuli/rescaled_final/1894_rv.mp4	0.0	62.24870157241821	
3	46.14006018638611	movie	1		292	1.0	2.5	/experiments/Knapen_AOT/AOT_stimuli/rescaled_final/1894_rv.mp4	0.0	62.673611879348755	2.49198317527771
3	47.31473112106323	pulse	1	t		1.0	2.5	/experiments/Knapen_AOT/AOT_stimuli/rescaled_final/1894_rv.mp4	0.0	63.84828281402588	
3	48.63204336166382	fix_post	2		12	1.0	2.5	/experiments/Knapen_AOT/AOT_stimuli/rescaled_final/1894_rv.mp4	0.0	65.16559505462646	0.10002613067626953
4	48.73206949234009	fix_pre	0		120	2.0	2.5	/experiments/Knapen_AOT/AOT_stimuli/rescaled_final/0361_fw.mp4	0.0	65.26562118530273	1.0084810256958008
4	48.91555905342102	pulse	0	t		2.0	2.5	/experiments/Knapen_AOT/AOT_stimuli/rescaled_final/0361_fw.mp4	0.0	65.44911074638367	
4	49.74055051803589	movie	1		293	2.0	2.5	/experiments/Knapen_AOT/AOT_stimuli/rescaled_final/0361_fw.mp4	0.0	66.27410221099854	2.492047071456909
4	50.51579260826111	pulse	1	t		2.0	2.5	/experiments/Knapen_AOT/AOT_stimuli/rescaled_final/0361_fw.mp4	0.0	67.04934430122375	
4	52.11329770088196	pulse	1	t		2.0	2.5	/experiments/Knapen_AOT/AOT_stimuli/rescaled_final/0361_fw.mp4	0.0	68.6468493938446	
4	52.2325975894928	fix_post	2		12	2.0	2.5	/experiments/Knapen_AOT/AOT_stimuli/rescaled_final/0361_fw.mp4	0.0	68.76614928245544	0.1000056266784668
5	52.332603216171265	fix_pre	0		120	3.0	2.5	/experiments/Knapen_AOT/AOT_stimuli/rescaled_final/0920_fw.mp4	0.0	68.86615490913391	1.0085182189941406
5	53.341121435165405	movie	1		293	3.0	2.5	/experiments/Knapen_AOT/AOT_stimuli/rescaled_final/0920_fw.mp4	0.0	69.87467312812805	2.4920430183410645
5	53.71629476547241	pulse	1	t		3.0	2.5	/experiments/Knapen_AOT/AOT_stimuli/rescaled_final/0920_fw.mp4	0.0	70.24984645843506	
5	55.31424570083618	pulse	1	t		3.0	2.5	/experiments/Knapen_AOT/AOT_stimuli/rescaled_final/0920_fw.mp4	0.0	71.84779739379883	
5	55.83316445350647	fix_post	2		12	3.0	2.5	/experiments/Knapen_AOT/AOT_stimuli/rescaled_final/0920_fw.mp4	0.0	72.36671614646912	0.09998774528503418
6	55.933152198791504	fix_pre	0		119	4.0	2.5	/experiments/Knapen_AOT/AOT_stimuli/rescaled_final/1929_fw.mp4	0.0	72.46670389175415	1.0001533031463623
6	56.91688537597656	pulse	0	t		4.0	2.5	/experiments/Knapen_AOT/AOT_stimuli/rescaled_final/1929_fw.mp4	0.0	73.45043706893921	
6	56.933305501937866	movie	1		282	4.0	2.5	/experiments/Knapen_AOT/AOT_stimuli/rescaled_final/1929_fw.mp4	0.0	73.46685719490051	2.5003745555877686
6	58.515870571136475	pulse	1	t		4.0	2.5	/experiments/Knapen_AOT/AOT_stimuli/rescaled_final/1929_fw.mp4	0.0	75.04942226409912	
6	59.433680057525635	fix_post	2		12	4.0	2.5	/experiments/Knapen_AOT/AOT_stimuli/rescaled_final/1929_fw.mp4	0.0	75.96723175048828	0.10002946853637695
7	59.53370952606201	fix_pre	0		120	5.0	2.5	/experiments/Knapen_AOT/AOT_stimuli/rescaled_final/1184_rv.mp4	0.0	76.06726121902466	1.008474349975586
7	60.11761927604675	pulse	0	t		5.0	2.5	/experiments/Knapen_AOT/AOT_stimuli/rescaled_final/1184_rv.mp4	0.0	76.6511709690094	
7	60.5421838760376	movie	1		285	5.0	2.5	/experiments/Knapen_AOT/AOT_stimuli/rescaled_final/1184_rv.mp4	0.0	77.07573556900024	2.4920408725738525
7	61.71627187728882	pulse	1	t		5.0	2.5	/experiments/Knapen_AOT/AOT_stimuli/rescaled_final/1184_rv.mp4	0.0	78.24982357025146	
7	63.03422474861145	fix_post	2		12	5.0	2.5	/experiments/Knapen_AOT/AOT_stimuli/rescaled_final/1184_rv.mp4	0.0	79.5677764415741	0.10001039505004883
8	63.1342351436615	fix_pre	0		120	6.0	2.5	blank	1.0	79.66778683662415	1.0001814365386963
8	63.31790828704834	pulse	0	t		6.0	2.5	blank	1.0	79.85145998001099	
8	64.1344165802002	movie	1		300	6.0	2.5	blank	1.0	80.66796827316284	2.5003457069396973
8	64.91805124282837	pulse	1	t		6.0	2.5	blank	1.0	81.45160293579102	
8	66.51831865310669	pulse	1	t		6.0	2.5	blank	1.0	83.05187034606934	
8	66.63476228713989	fix_post	2		12	6.0	2.5	blank	1.0	83.16831398010254	0.10004472732543945
9	66.73480701446533	fix_pre	0		120	7.0	2.5	/experiments/Knapen_AOT/AOT_stimuli/rescaled_final/0026_fw.mp4	0.0	83.26835870742798	1.0085136890411377
9	67.74332070350647	movie	1		278	7.0	2.5	/experiments/Knapen_AOT/AOT_stimuli/rescaled_final/0026_fw.mp4	0.0	84.27687239646912	2.49200177192688
9	68.11839604377747	pulse	1	t		7.0	2.5	/experiments/Knapen_AOT/AOT_stimuli/rescaled_final/0026_fw.mp4	0.0	84.65194773674011	
9	69.71679472923279	pulse	1	t		7.0	2.5	/experiments/Knapen_AOT/AOT_stimuli/rescaled_final/0026_fw.mp4	0.0	86.25034642219543	
9	70.23532247543335	fix_post	2		12	7.0	2.5	/experiments/Knapen_AOT/AOT_stimuli/rescaled_final/0026_fw.mp4	0.0	86.768874168396	0.09999585151672363
10	70.33531832695007	fix_pre	0		119	8.0	2.5	/experiments/Knapen_AOT/AOT_stimuli/rescaled_final/1747_rv.mp4	0.0	86.86887001991272	1.0001928806304932
10	71.31905961036682	pulse	0	t		8.0	2.5	/experiments/Knapen_AOT/AOT_stimuli/rescaled_final/1747_rv.mp4	0.0	87.85261130332947	
10	71.33551120758057	movie	1		286	8.0	2.5	/experiments/Knapen_AOT/AOT_stimuli/rescaled_final/1747_rv.mp4	0.0	87.86906290054321	2.500354528427124
10	72.91791343688965	pulse	1	t		8.0	2.5	/experiments/Knapen_AOT/AOT_stimuli/rescaled_final/1747_rv.mp4	0.0	89.4514651298523	
10	73.83586573600769	fix_post	2		12	8.0	2.5	/experiments/Knapen_AOT/AOT_stimuli/rescaled_final/1747_rv.mp4	0.0	90.36941742897034	0.10001778602600098
11	73.93588352203369	fix_pre	0		120	9.0	2.5	/experiments/Knapen_AOT/AOT_stimuli/rescaled_final/1876_rv.mp4	0.0	90.46943521499634	1.0085556507110596
11	74.51951169967651	pulse	0	t		9.0	2.5	/experiments/Knapen_AOT/AOT_stimuli/rescaled_final/1876_rv.mp4	0.0	91.05306339263916	
11	74.94443917274475	movie	1		269	9.0	2.5	/experiments/Knapen_AOT/AOT_stimuli/rescaled_final/1876_rv.mp4	0.0	91.4779908657074	2.4919822216033936
11	76.11994481086731	pulse	1	t		9.0	2.5	/experiments/Knapen_AOT/AOT_stimuli/rescaled_final/1876_rv.mp4	0.0	92.65349650382996	
11	77.43642139434814	fix_post	2		12	9.0	2.5	/experiments/Knapen_AOT/AOT_stimuli/rescaled_final/1876_rv.mp4	0.0	93.96997308731079	0.10001349449157715
12	77.53643488883972	fix_pre	0		120	10.0	2.5	/experiments/Knapen_AOT/AOT_stimuli/rescaled_final/1648_fw.mp4	0.0	94.06998658180237	1.0085597038269043
12	77.71997833251953	pulse	0	t		10.0	2.5	/experiments/Knapen_AOT/AOT_stimuli/rescaled_final/1648_fw.mp4	0.0	94.25353002548218	
12	78.54499459266663	movie	1		278	10.0	2.5	/experiments/Knapen_AOT/AOT_stimuli/rescaled_final/1648_fw.mp4	0.0	95.07854628562927	2.4919612407684326
12	79.3181984424591	pulse	1	t		10.0	2.5	/experiments/Knapen_AOT/AOT_stimuli/rescaled_final/1648_fw.mp4	0.0	95.85175013542175	
12	80.91890454292297	pulse	1	t		10.0	2.5	/experiments/Knapen_AOT/AOT_stimuli/rescaled_final/1648_fw.mp4	0.0	97.45245623588562	
12	81.03695583343506	fix_post	2		12	10.0	2.5	/experiments/Knapen_AOT/AOT_stimuli/rescaled_final/1648_fw.mp4	0.0	97.5705075263977	0.10002541542053223
13	81.13698124885559	fix_pre	0		120	11.0	2.5	/experiments/Knapen_AOT/AOT_stimuli/rescaled_final/0167_fw.mp4	0.0	97.67053294181824	1.008474588394165
13	82.14545583724976	movie	1		286	11.0	2.5	/experiments/Knapen_AOT/AOT_stimuli/rescaled_final/0167_fw.mp4	0.0	98.6790075302124	2.4920012950897217
13	82.52065706253052	pulse	1	t		11.0	2.5	/experiments/Knapen_AOT/AOT_stimuli/rescaled_final/0167_fw.mp4	0.0	99.05420875549316	
13	84.11874175071716	pulse	1	t		11.0	2.5	/experiments/Knapen_AOT/AOT_stimuli/rescaled_final/0167_fw.mp4	0.0	100.65229344367981	
13	84.63745713233948	fix_post	2		12	11.0	2.5	/experiments/Knapen_AOT/AOT_stimuli/rescaled_final/0167_fw.mp4	0.0	101.17100882530212	0.10002517700195312
14	84.73748230934143	fix_pre	0		119	12.0	2.5	blank	1.0	101.27103400230408	0.9918184280395508
14	85.7211697101593	pulse	0	t		12.0	2.5	blank	1.0	102.25472140312195	
14	85.72930073738098	movie	1		301	12.0	2.5	blank	1.0	102.26285243034363	2.508714199066162
14	87.31353902816772	pulse	1	t		12.0	2.5	blank	1.0	103.84709072113037	
14	88.23801493644714	fix_post	2		12	12.0	2.5	blank	1.0	104.77156662940979	0.09999322891235352
15	88.3380081653595	fix_pre	0		120	13.0	2.5	/experiments/Knapen_AOT/AOT_stimuli/rescaled_final/1640_fw.mp4	0.0	104.87155985832214	1.0085155963897705
15	88.9136438369751	pulse	0	t		13.0	2.5	/experiments/Knapen_AOT/AOT_stimuli/rescaled_final/1640_fw.mp4	0.0	105.44719552993774	
15	89.34652376174927	movie	1		288	13.0	2.5	/experiments/Knapen_AOT/AOT_stimuli/rescaled_final/1640_fw.mp4	0.0	105.88007545471191	2.492034435272217
15	90.51414895057678	pulse	1	t		13.0	2.5	/experiments/Knapen_AOT/AOT_stimuli/rescaled_final/1640_fw.mp4	0.0	107.04770064353943	
15	91.83855819702148	fix_post	2		12	13.0	2.5	/experiments/Knapen_AOT/AOT_stimuli/rescaled_final/1640_fw.mp4	0.0	108.37210988998413	0.10000753402709961
16	91.93856573104858	fix_pre	0		120	14.0	2.5	/experiments/Knapen_AOT/AOT_stimuli/rescaled_final/1062_fw.mp4	0.0	108.47211742401123	1.0085318088531494
16	92.11390733718872	pulse	0	t		14.0	2.5	/experiments/Knapen_AOT/AOT_stimuli/rescaled_final/1062_fw.mp4	0.0	108.64745903015137	
16	92.94709753990173	movie	1		274	14.0	2.5	/experiments/Knapen_AOT/AOT_stimuli/rescaled_final/1062_fw.mp4	0.0	109.48064923286438	2.492123603820801
16	93.71419334411621	pulse	1	t		14.0	2.5	/experiments/Knapen_AOT/AOT_stimuli/rescaled_final/1062_fw.mp4	0.0	110.24774503707886	
16	95.31432032585144	pulse	1	t		14.0	2.5	/experiments/Knapen_AOT/AOT_stimuli/rescaled_final/1062_fw.mp4	0.0	111.84787201881409	
16	95.43922114372253	fix_post	2		12	14.0	2.5	/experiments/Knapen_AOT/AOT_stimuli/rescaled_final/1062_fw.mp4	0.0	111.97277283668518	0.09988665580749512
17	95.53910779953003	fix_pre	0		120	15.0	2.5	/experiments/Knapen_AOT/AOT_stimuli/rescaled_final/2008_fw.mp4	0.0	112.07265949249268	1.0084948539733887
17	96.54760265350342	movie	1		285	15.0	2.5	/experiments/Knapen_AOT/AOT_stimuli/rescaled_final/2008_fw.mp4	0.0	113.08115434646606	2.4920051097869873
17	96.91460156440735	pulse	1	t		15.0	2.5	/experiments/Knapen_AOT/AOT_stimuli/rescaled_final/2008_fw.mp4	0.0	113.44815325737	
17	98.51509261131287	pulse	1	t		15.0	2.5	/experiments/Knapen_AOT/AOT_stimuli/rescaled_final/2008_fw.mp4	0.0	115.04864430427551	
17	99.0396077632904	fix_post	2		12	15.0	2.5	/experiments/Knapen_AOT/AOT_stimuli/rescaled_final/2008_fw.mp4	0.0	115.57315945625305	0.10002970695495605
18	99.13963747024536	fix_pre	0		118	16.0	2.5	/experiments/Knapen_AOT/AOT_stimuli/rescaled_final/1797_rv.mp4	0.0	115.67318916320801	0.9918379783630371
18	100.11507320404053	pulse	0	t		16.0	2.5	/experiments/Knapen_AOT/AOT_stimuli/rescaled_final/1797_rv.mp4	0.0	116.64862489700317	
18	100.1314754486084	movie	1		277	16.0	2.5	/experiments/Knapen_AOT/AOT_stimuli/rescaled_final/1797_rv.mp4	0.0	116.66502714157104	2.5003435611724854
18	101.71408891677856	pulse	1	t		16.0	2.5	/experiments/Knapen_AOT/AOT_stimuli/rescaled_final/1797_rv.mp4	0.0	118.24764060974121	
18	102.63181900978088	fix_post	2		12	16.0	2.5	/experiments/Knapen_AOT/AOT_stimuli/rescaled_final/1797_rv.mp4	0.0	119.16537070274353	0.1000676155090332
19	102.73188662528992	fix_pre	0		120	17.0	2.5	/experiments/Knapen_AOT/AOT_stimuli/rescaled_final/1088_fw.mp4	0.0	119.26543831825256	1.0085268020629883
19	103.31552910804749	pulse	0	t		17.0	2.5	/experiments/Knapen_AOT/AOT_stimuli/rescaled_final/1088_fw.mp4	0.0	119.84908080101013	
19	103.7404134273529	movie	1		280	17.0	2.5	/experiments/Knapen_AOT/AOT_stimuli/rescaled_final/1088_fw.mp4	0.0	120.27396512031555	2.491987705230713
19	104.91387867927551	pulse	1	t		17.0	2.5	/experiments/Knapen_AOT/AOT_stimuli/rescaled_final/1088_fw.mp4	0.0	121.44743037223816	
19	106.23240113258362	fix_post	2		12	17.0	2.5	/experiments/Knapen_AOT/AOT_stimuli/rescaled_final/1088_fw.mp4	0.0	122.76595282554626	0.10007166862487793
20	106.3324728012085	fix_pre	0		120	18.0	2.5	/experiments/Knapen_AOT/AOT_stimuli/rescaled_final/0854_fw.mp4	0.0	122.86602449417114	1.0084254741668701
20	106.51603746414185	pulse	0	t		18.0	2.5	/experiments/Knapen_AOT/AOT_stimuli/rescaled_final/0854_fw.mp4	0.0	123.04958915710449	
20	107.34089827537537	movie	1		289	18.0	2.5	/experiments/Knapen_AOT/AOT_stimuli/rescaled_final/0854_fw.mp4	0.0	123.87444996833801	2.4920544624328613
20	108.11460041999817	pulse	1	t		18.0	2.5	/experiments/Knapen_AOT/AOT_stimuli/rescaled_final/0854_fw.mp4	0.0	124.64815211296082	
20	109.71435260772705	pulse	1	t		18.0	2.5	/experiments/Knapen_AOT/AOT_stimuli/rescaled_final/0854_fw.mp4	0.0	126.2479043006897	
20	109.83295273780823	fix_post	2		12	18.0	2.5	/experiments/Knapen_AOT/AOT_stimuli/rescaled_final/0854_fw.mp4	0.0	126.36650443077087	0.09999966621398926
21	109.93295240402222	fix_pre	0		120	19.0	2.5	/experiments/Knapen_AOT/AOT_stimuli/rescaled_final/0663_rv.mp4	0.0	126.46650409698486	1.0084764957427979
21	110.94142889976501	movie	1		290	19.0	2.5	/experiments/Knapen_AOT/AOT_stimuli/rescaled_final/0663_rv.mp4	0.0	127.47498059272766	2.4920363426208496
21	111.314950466156	pulse	1	t		19.0	2.5	/experiments/Knapen_AOT/AOT_stimuli/rescaled_final/0663_rv.mp4	0.0	127.84850215911865	
21	112.91470694541931	pulse	1	t		19.0	2.5	/experiments/Knapen_AOT/AOT_stimuli/rescaled_final/0663_rv.mp4	0.0	129.44825863838196	
21	113.43346524238586	fix_post	2		12	19.0	2.5	/experiments/Knapen_AOT/AOT_stimuli/rescaled_final/0663_rv.mp4	0.0	129.9670169353485	0.10013413429260254
22	113.53359937667847	fix_pre	0		119	20.0	2.5	/experiments/Knapen_AOT/AOT_stimuli/rescaled_final/0785_rv.mp4	0.0	130.0671510696411	1.000020980834961
22	114.51724576950073	pulse	0	t		20.0	2.5	/experiments/Knapen_AOT/AOT_stimuli/rescaled_final/0785_rv.mp4	0.0	131.05079746246338	
22	114.53362035751343	movie	1		269	20.0	2.5	/experiments/Knapen_AOT/AOT_stimuli/rescaled_final/0785_rv.mp4	0.0	131.06717205047607	2.5003912448883057
22	116.11644649505615	pulse	1	t		20.0	2.5	/experiments/Knapen_AOT/AOT_stimuli/rescaled_final/0785_rv.mp4	0.0	132.6499981880188	
22	117.03401160240173	fix_post	2		12	20.0	2.5	/experiments/Knapen_AOT/AOT_stimuli/rescaled_final/0785_rv.mp4	0.0	133.56756329536438	0.10001254081726074
23	117.134024143219	fix_pre	0		120	21.0	2.5	blank	1.0	133.66757583618164	1.0001685619354248
23	117.71776723861694	pulse	0	t		21.0	2.5	blank	1.0	134.2513189315796	
23	118.13419270515442	movie	1		300	21.0	2.5	blank	1.0	134.66774439811707	2.5003671646118164
23	119.31795382499695	pulse	1	t		21.0	2.5	blank	1.0	135.8515055179596	
23	120.63455986976624	fix_post	2		12	21.0	2.5	blank	1.0	137.16811156272888	0.10000753402709961
24	120.73456740379333	fix_pre	0		120	22.0	2.5	/experiments/Knapen_AOT/AOT_stimuli/rescaled_final/1235_rv.mp4	0.0	137.26811909675598	1.008526086807251
24	120.91815829277039	pulse	0	t		22.0	2.5	/experiments/Knapen_AOT/AOT_stimuli/rescaled_final/1235_rv.mp4	0.0	137.45170998573303	
24	121.74309349060059	movie	1		286	22.0	2.5	/experiments/Knapen_AOT/AOT_stimuli/rescaled_final/1235_rv.mp4	0.0	138.27664518356323	2.4919960498809814
24	122.51662135124207	pulse	1	t		22.0	2.5	/experiments/Knapen_AOT/AOT_stimuli/rescaled_final/1235_rv.mp4	0.0	139.0501730442047	
24	124.11426115036011	pulse	1	t		22.0	2.5	/experiments/Knapen_AOT/AOT_stimuli/rescaled_final/1235_rv.mp4	0.0	140.64781284332275	
24	124.23508954048157	fix_post	2		12	22.0	2.5	/experiments/Knapen_AOT/AOT_stimuli/rescaled_final/1235_rv.mp4	0.0	140.7686412334442	0.1000220775604248
25	124.33511161804199	fix_pre	0		120	23.0	2.5	/experiments/Knapen_AOT/AOT_stimuli/rescaled_final/1385_fw.mp4	0.0	140.86866331100464	1.0002896785736084
25	125.3354012966156	movie	1		293	23.0	2.5	/experiments/Knapen_AOT/AOT_stimuli/rescaled_final/1385_fw.mp4	0.0	141.86895298957825	2.5002098083496094
25	125.7164089679718	pulse	1	t		23.0	2.5	/experiments/Knapen_AOT/AOT_stimuli/rescaled_final/1385_fw.mp4	0.0	142.24996066093445	
25	127.3180320262909	pulse	1	t		23.0	2.5	/experiments/Knapen_AOT/AOT_stimuli/rescaled_final/1385_fw.mp4	0.0	143.85158371925354	
25	127.83561110496521	fix_post	2		12	23.0	2.5	/experiments/Knapen_AOT/AOT_stimuli/rescaled_final/1385_fw.mp4	0.0	144.36916279792786	0.10001659393310547
26	127.93562769889832	fix_pre	0		119	24.0	2.5	/experiments/Knapen_AOT/AOT_stimuli/rescaled_final/1204_rv.mp4	0.0	144.46917939186096	1.000157117843628
26	128.9193093776703	pulse	0	t		24.0	2.5	/experiments/Knapen_AOT/AOT_stimuli/rescaled_final/1204_rv.mp4	0.0	145.45286107063293	
26	128.93578481674194	movie	1		296	24.0	2.5	/experiments/Knapen_AOT/AOT_stimuli/rescaled_final/1204_rv.mp4	0.0	145.4693365097046	2.5003769397735596
26	130.51577305793762	pulse	1	t		24.0	2.5	/experiments/Knapen_AOT/AOT_stimuli/rescaled_final/1204_rv.mp4	0.0	147.04932475090027	
26	131.4361617565155	fix_post	2		12	24.0	2.5	/experiments/Knapen_AOT/AOT_stimuli/rescaled_final/1204_rv.mp4	0.0	147.96971344947815	0.10008573532104492
27	131.53624749183655	fix_pre	0		120	25.0	2.5	/experiments/Knapen_AOT/AOT_stimuli/rescaled_final/0882_rv.mp4	0.0	148.0697991847992	1.0084145069122314
27	132.11980843544006	pulse	0	t		25.0	2.5	/experiments/Knapen_AOT/AOT_stimuli/rescaled_final/0882_rv.mp4	0.0	148.6533601284027	
27	132.54466199874878	movie	1		293	25.0	2.5	/experiments/Knapen_AOT/AOT_stimuli/rescaled_final/0882_rv.mp4	0.0	149.07821369171143	2.49202823638916
27	133.7175805568695	pulse	1	t		25.0	2.5	/experiments/Knapen_AOT/AOT_stimuli/rescaled_final/0882_rv.mp4	0.0	150.25113224983215	
27	135.03669023513794	fix_post	2		12	25.0	2.5	/experiments/Knapen_AOT/AOT_stimuli/rescaled_final/0882_rv.mp4	0.0	151.5702419281006	0.10003781318664551
28	135.13672804832458	fix_pre	0		120	26.0	2.5	blank	1.0	151.67027974128723	1.0001559257507324
28	135.32021141052246	pulse	0	t		26.0	2.5	blank	1.0	151.8537631034851	
28	136.13688397407532	movie	1		300	26.0	2.5	blank	1.0	152.67043566703796	2.5003726482391357
28	136.9206018447876	pulse	1	t		26.0	2.5	blank	1.0	153.45415353775024	
28	138.52090120315552	pulse	1	t		26.0	2.5	blank	1.0	155.05445289611816	
28	138.63725662231445	fix_post	2		12	26.0	2.5	blank	1.0	155.1708083152771	0.10003399848937988
29	138.73729062080383	fix_pre	0		120	27.0	2.5	/experiments/Knapen_AOT/AOT_stimuli/rescaled_final/1245_fw.mp4	0.0	155.27084231376648	1.0085926055908203
29	139.74588322639465	movie	1		281	27.0	2.5	/experiments/Knapen_AOT/AOT_stimuli/rescaled_final/1245_fw.mp4	0.0	156.2794349193573	2.491924524307251
29	140.11939930915833	pulse	1	t		27.0	2.5	/experiments/Knapen_AOT/AOT_stimuli/rescaled_final/1245_fw.mp4	0.0	156.65295100212097	
29	141.7193248271942	pulse	1	t		27.0	2.5	/experiments/Knapen_AOT/AOT_stimuli/rescaled_final/1245_fw.mp4	0.0	158.25287652015686	
29	142.2378077507019	fix_post	2		12	27.0	2.5	/experiments/Knapen_AOT/AOT_stimuli/rescaled_final/1245_fw.mp4	0.0	158.77135944366455	0.1000220775604248
30	142.33782982826233	fix_pre	0		119	28.0	2.5	/experiments/Knapen_AOT/AOT_stimuli/rescaled_final/1113_fw.mp4	0.0	158.87138152122498	1.0002059936523438
30	143.31430912017822	pulse	0	t		28.0	2.5	/experiments/Knapen_AOT/AOT_stimuli/rescaled_final/1113_fw.mp4	0.0	159.84786081314087	
30	143.33803582191467	movie	1		284	28.0	2.5	/experiments/Knapen_AOT/AOT_stimuli/rescaled_final/1113_fw.mp4	0.0	159.87158751487732	2.500317335128784
30	144.9203269481659	pulse	1	t		28.0	2.5	/experiments/Knapen_AOT/AOT_stimuli/rescaled_final/1113_fw.mp4	0.0	161.45387864112854	
30	145.83835315704346	fix_post	2		12	28.0	2.5	/experiments/Knapen_AOT/AOT_stimuli/rescaled_final/1113_fw.mp4	0.0	162.3719048500061	0.09999561309814453
31	145.9383487701416	fix_pre	0		120	29.0	2.5	/experiments/Knapen_AOT/AOT_stimuli/rescaled_final/1417_rv.mp4	0.0	162.47190046310425	1.0085339546203613
31	146.5140631198883	pulse	0	t		29.0	2.5	/experiments/Knapen_AOT/AOT_stimuli/rescaled_final/1417_rv.mp4	0.0	163.04761481285095	
31	146.94688272476196	movie	1		275	29.0	2.5	/experiments/Knapen_AOT/AOT_stimuli/rescaled_final/1417_rv.mp4	0.0	163.4804344177246	2.4919939041137695
31	148.1140751838684	pulse	1	t		29.0	2.5	/experiments/Knapen_AOT/AOT_stimuli/rescaled_final/1417_rv.mp4	0.0	164.64762687683105	
31	149.43887662887573	fix_post	2		12	29.0	2.5	/experiments/Knapen_AOT/AOT_stimuli/rescaled_final/1417_rv.mp4	0.0	165.97242832183838	0.10003089904785156
32	149.53890752792358	fix_pre	0		120	30.0	2.5	/experiments/Knapen_AOT/AOT_stimuli/rescaled_final/0785_fw.mp4	0.0	166.07245922088623	1.0085413455963135
32	149.71463298797607	pulse	0	t		30.0	2.5	/experiments/Knapen_AOT/AOT_stimuli/rescaled_final/0785_fw.mp4	0.0	166.24818468093872	
32	150.5474488735199	movie	1		285	30.0	2.5	/experiments/Knapen_AOT/AOT_stimuli/rescaled_final/0785_fw.mp4	0.0	167.08100056648254	2.492016315460205
32	151.3144233226776	pulse	1	t		30.0	2.5	/experiments/Knapen_AOT/AOT_stimuli/rescaled_final/0785_fw.mp4	0.0	167.84797501564026	
32	152.91400337219238	pulse	1	t		30.0	2.5	/experiments/Knapen_AOT/AOT_stimuli/rescaled_final/0785_fw.mp4	0.0	169.44755506515503	
32	153.0394651889801	fix_post	2		12	30.0	2.5	/experiments/Knapen_AOT/AOT_stimuli/rescaled_final/0785_fw.mp4	0.0	169.57301688194275	0.09997200965881348
33	153.13943719863892	fix_pre	0		120	31.0	2.5	/experiments/Knapen_AOT/AOT_stimuli/rescaled_final/2065_fw.mp4	0.0	169.67298889160156	1.0085186958312988
33	154.14795589447021	movie	1		278	31.0	2.5	/experiments/Knapen_AOT/AOT_stimuli/rescaled_final/2065_fw.mp4	0.0	170.68150758743286	2.4920918941497803
33	154.51513028144836	pulse	1	t		31.0	2.5	/experiments/Knapen_AOT/AOT_stimuli/rescaled_final/2065_fw.mp4	0.0	171.048681974411	
33	156.11514449119568	pulse	1	t		31.0	2.5	/experiments/Knapen_AOT/AOT_stimuli/rescaled_final/2065_fw.mp4	0.0	172.64869618415833	
33	156.64004778862	fix_post	2		12	31.0	2.5	/experiments/Knapen_AOT/AOT_stimuli/rescaled_final/2065_fw.mp4	0.0	173.17359948158264	0.09993863105773926
34	156.73998641967773	fix_pre	0		118	32.0	2.5	/experiments/Knapen_AOT/AOT_stimuli/rescaled_final/0864_fw.mp4	0.0	173.27353811264038	0.991828203201294
34	157.71533632278442	pulse	0	t		32.0	2.5	/experiments/Knapen_AOT/AOT_stimuli/rescaled_final/0864_fw.mp4	0.0	174.24888801574707	
34	157.73181462287903	movie	1		280	32.0	2.5	/experiments/Knapen_AOT/AOT_stimuli/rescaled_final/0864_fw.mp4	0.0	174.26536631584167	2.5003607273101807
34	159.31443524360657	pulse	1	t		32.0	2.5	/experiments/Knapen_AOT/AOT_stimuli/rescaled_final/0864_fw.mp4	0.0	175.8479869365692	
34	160.2321753501892	fix_post	2		12	32.0	2.5	/experiments/Knapen_AOT/AOT_stimuli/rescaled_final/0864_fw.mp4	0.0	176.76572704315186	0.10001182556152344
35	160.33218717575073	fix_pre	0		120	33.0	2.5	blank	1.0	176.86573886871338	1.0001423358917236
35	160.91582536697388	pulse	0	t		33.0	2.5	blank	1.0	177.44937705993652	
35	161.33232951164246	movie	1		300	33.0	2.5	blank	1.0	177.8658812046051	2.500433921813965
35	162.5161144733429	pulse	1	t		33.0	2.5	blank	1.0	179.04966616630554	
35	163.83276343345642	fix_post	2		12	33.0	2.5	blank	1.0	180.36631512641907	0.10010457038879395
36	163.93286800384521	fix_pre	0		120	34.0	2.5	/experiments/Knapen_AOT/AOT_stimuli/rescaled_final/1624_rv.mp4	0.0	180.46641969680786	1.008357048034668
36	164.11664628982544	pulse	0	t		34.0	2.5	/experiments/Knapen_AOT/AOT_stimuli/rescaled_final/1624_rv.mp4	0.0	180.6501979827881	
36	164.94122505187988	movie	1		278	34.0	2.5	/experiments/Knapen_AOT/AOT_stimuli/rescaled_final/1624_rv.mp4	0.0	181.47477674484253	2.492027997970581
36	165.7145335674286	pulse	1	t		34.0	2.5	/experiments/Knapen_AOT/AOT_stimuli/rescaled_final/1624_rv.mp4	0.0	182.24808526039124	
36	167.31482481956482	pulse	1	t		34.0	2.5	/experiments/Knapen_AOT/AOT_stimuli/rescaled_final/1624_rv.mp4	0.0	183.84837651252747	
36	167.43325304985046	fix_post	2		12	34.0	2.5	/experiments/Knapen_AOT/AOT_stimuli/rescaled_final/1624_rv.mp4	0.0	183.9668047428131	0.10001540184020996
37	167.53326845169067	fix_pre	0		120	35.0	2.5	/experiments/Knapen_AOT/AOT_stimuli/rescaled_final/1648_rv.mp4	0.0	184.06682014465332	1.0085012912750244
37	168.5417697429657	movie	1		286	35.0	2.5	/experiments/Knapen_AOT/AOT_stimuli/rescaled_final/1648_rv.mp4	0.0	185.07532143592834	2.492060422897339
37	168.91669392585754	pulse	1	t		35.0	2.5	/experiments/Knapen_AOT/AOT_stimuli/rescaled_final/1648_rv.mp4	0.0	185.4502456188202	
37	170.51548671722412	pulse	1	t		35.0	2.5	/experiments/Knapen_AOT/AOT_stimuli/rescaled_final/1648_rv.mp4	0.0	187.04903841018677	
37	171.03383016586304	fix_post	2		12	35.0	2.5	/experiments/Knapen_AOT/AOT_stimuli/rescaled_final/1648_rv.mp4	0.0	187.56738185882568	0.09997820854187012
38	171.1338083744049	fix_pre	0		119	36.0	2.5	/experiments/Knapen_AOT/AOT_stimuli/rescaled_final/2177_fw.mp4	0.0	187.66736006736755	1.0001800060272217
38	172.1176199913025	pulse	0	t		36.0	2.5	/experiments/Knapen_AOT/AOT_stimuli/rescaled_final/2177_fw.mp4	0.0	188.65117168426514	
38	172.13398838043213	movie	1		278	36.0	2.5	/experiments/Knapen_AOT/AOT_stimuli/rescaled_final/2177_fw.mp4	0.0	188.66754007339478	2.5003762245178223
38	173.71624398231506	pulse	1	t		36.0	2.5	/experiments/Knapen_AOT/AOT_stimuli/rescaled_final/2177_fw.mp4	0.0	190.2497956752777	
38	174.63436460494995	fix_post	2		12	36.0	2.5	/experiments/Knapen_AOT/AOT_stimuli/rescaled_final/2177_fw.mp4	0.0	191.1679162979126	0.10000038146972656
39	174.73436498641968	fix_pre	0		120	37.0	2.5	/experiments/Knapen_AOT/AOT_stimuli/rescaled_final/1344_rv.mp4	0.0	191.26791667938232	1.008516550064087
39	175.31803059577942	pulse	0	t		37.0	2.5	/experiments/Knapen_AOT/AOT_stimuli/rescaled_final/1344_rv.mp4	0.0	191.85158228874207	
39	175.74288153648376	movie	1		274	37.0	2.5	/experiments/Knapen_AOT/AOT_stimuli/rescaled_final/1344_rv.mp4	0.0	192.2764332294464	2.4920735359191895
39	176.91611123085022	pulse	1	t		37.0	2.5	/experiments/Knapen_AOT/AOT_stimuli/rescaled_final/1344_rv.mp4	0.0	193.44966292381287	
39	178.23495507240295	fix_post	2		12	37.0	2.5	/experiments/Knapen_AOT/AOT_stimuli/rescaled_final/1344_rv.mp4	0.0	194.7685067653656	0.0999445915222168
40	178.33489966392517	fix_pre	0		120	38.0	2.5	/experiments/Knapen_AOT/AOT_stimuli/rescaled_final/1003_fw.mp4	0.0	194.86845135688782	1.0084903240203857
40	178.5184817314148	pulse	0	t		38.0	2.5	/experiments/Knapen_AOT/AOT_stimuli/rescaled_final/1003_fw.mp4	0.0	195.05203342437744	
40	179.34338998794556	movie	1		271	38.0	2.5	/experiments/Knapen_AOT/AOT_stimuli/rescaled_final/1003_fw.mp4	0.0	195.8769416809082	2.4920363426208496
40	180.1167130470276	pulse	1	t		38.0	2.5	/experiments/Knapen_AOT/AOT_stimuli/rescaled_final/1003_fw.mp4	0.0	196.65026473999023	
40	181.71705079078674	pulse	1	t		38.0	2.5	/experiments/Knapen_AOT/AOT_stimuli/rescaled_final/1003_fw.mp4	0.0	198.2506024837494	
40	181.8354263305664	fix_post	2		12	38.0	2.5	/experiments/Knapen_AOT/AOT_stimuli/rescaled_final/1003_fw.mp4	0.0	198.36897802352905	0.10001564025878906
41	181.9354419708252	fix_pre	0		120	39.0	2.5	/experiments/Knapen_AOT/AOT_stimuli/rescaled_final/0920_fw.mp4	0.0	198.46899366378784	1.0085642337799072
41	182.9440062046051	movie	1		282	39.0	2.5	/experiments/Knapen_AOT/AOT_stimuli/rescaled_final/0920_fw.mp4	0.0	199.47755789756775	2.4919629096984863
41	183.31789588928223	pulse	1	t		39.0	2.5	/experiments/Knapen_AOT/AOT_stimuli/rescaled_final/0920_fw.mp4	0.0	199.85144758224487	
41	184.91738939285278	pulse	1	t		39.0	2.5	/experiments/Knapen_AOT/AOT_stimuli/rescaled_final/0920_fw.mp4	0.0	201.45094108581543	
41	185.4359691143036	fix_post	2		12	39.0	2.5	/experiments/Knapen_AOT/AOT_stimuli/rescaled_final/0920_fw.mp4	0.0	201.96952080726624	0.10001564025878906
42	185.53598475456238	fix_pre	0		119	40.0	2.5	/experiments/Knapen_AOT/AOT_stimuli/rescaled_final/1084_rv.mp4	0.0	202.06953644752502	1.0001704692840576
42	186.51972484588623	pulse	0	t		40.0	2.5	/experiments/Knapen_AOT/AOT_stimuli/rescaled_final/1084_rv.mp4	0.0	203.05327653884888	
42	186.53615522384644	movie	1		287	40.0	2.5	/experiments/Knapen_AOT/AOT_stimuli/rescaled_final/1084_rv.mp4	0.0	203.06970691680908	2.500502586364746
42	188.12100219726562	pulse	1	t		40.0	2.5	/experiments/Knapen_AOT/AOT_stimuli/rescaled_final/1084_rv.mp4	0.0	204.65455389022827	
42	189.03665781021118	fix_post	2		12	40.0	2.5	/experiments/Knapen_AOT/AOT_stimuli/rescaled_final/1084_rv.mp4	0.0	205.57020950317383	0.09986042976379395
43	189.13651823997498	fix_pre	0		120	41.0	2.5	blank	1.0	205.67006993293762	1.0001590251922607
43	189.7201623916626	pulse	0	t		41.0	2.5	blank	1.0	206.25371408462524	
43	190.13667726516724	movie	1		300	41.0	2.5	blank	1.0	206.67022895812988	2.5003576278686523
43	191.31359815597534	pulse	1	t		41.0	2.5	blank	1.0	207.847149848938	
43	192.6370348930359	fix_post	2		12	41.0	2.5	blank	1.0	209.17058658599854	0.1000370979309082
44	192.7370719909668	fix_pre	0		120	42.0	2.5	/experiments/Knapen_AOT/AOT_stimuli/rescaled_final/0707_fw.mp4	0.0	209.27062368392944	1.0085179805755615
44	192.92062187194824	pulse	0	t		42.0	2.5	/experiments/Knapen_AOT/AOT_stimuli/rescaled_final/0707_fw.mp4	0.0	209.4541735649109	
44	193.74558997154236	movie	1		281	42.0	2.5	/experiments/Knapen_AOT/AOT_stimuli/rescaled_final/0707_fw.mp4	0.0	210.279141664505	2.5003950595855713
44	194.51874470710754	pulse	1	t		42.0	2.5	/experiments/Knapen_AOT/AOT_stimuli/rescaled_final/0707_fw.mp4	0.0	211.0522964000702	
44	196.11939525604248	pulse	1	t		42.0	2.5	/experiments/Knapen_AOT/AOT_stimuli/rescaled_final/0707_fw.mp4	0.0	212.65294694900513	
44	196.24598503112793	fix_post	2		11	42.0	2.5	/experiments/Knapen_AOT/AOT_stimuli/rescaled_final/0707_fw.mp4	0.0	212.77953672409058	0.09159350395202637
45	196.33757853507996	fix_pre	0		120	43.0	2.5	/experiments/Knapen_AOT/AOT_stimuli/rescaled_final/0529_rv.mp4	0.0	212.8711302280426	1.0086510181427002
45	197.34622955322266	movie	1		274	43.0	2.5	/experiments/Knapen_AOT/AOT_stimuli/rescaled_final/0529_rv.mp4	0.0	213.8797812461853	2.4918975830078125
45	197.71975445747375	pulse	1	t		43.0	2.5	/experiments/Knapen_AOT/AOT_stimuli/rescaled_final/0529_rv.mp4	0.0	214.2533061504364	
45	199.31348276138306	pulse	1	t		43.0	2.5	/experiments/Knapen_AOT/AOT_stimuli/rescaled_final/0529_rv.mp4	0.0	215.8470344543457	
45	199.83812713623047	fix_post	2		12	43.0	2.5	/experiments/Knapen_AOT/AOT_stimuli/rescaled_final/0529_rv.mp4	0.0	216.37167882919312	0.10007214546203613
46	199.9381992816925	fix_pre	0		118	44.0	2.5	/experiments/Knapen_AOT/AOT_stimuli/rescaled_final/1677_fw.mp4	0.0	216.47175097465515	0.9917712211608887
46	200.91352677345276	pulse	0	t		44.0	2.5	/experiments/Knapen_AOT/AOT_stimuli/rescaled_final/1677_fw.mp4	0.0	217.4470784664154	
46	200.9299705028534	movie	1		293	44.0	2.5	/experiments/Knapen_AOT/AOT_stimuli/rescaled_final/1677_fw.mp4	0.0	217.46352219581604	2.5003674030303955
46	202.5137758255005	pulse	1	t		44.0	2.5	/experiments/Knapen_AOT/AOT_stimuli/rescaled_final/1677_fw.mp4	0.0	219.04732751846313	
46	203.4303379058838	fix_post	2		12	44.0	2.5	/experiments/Knapen_AOT/AOT_stimuli/rescaled_final/1677_fw.mp4	0.0	219.96388959884644	0.10002875328063965
47	203.53036665916443	fix_pre	0		120	45.0	2.5	/experiments/Knapen_AOT/AOT_stimuli/rescaled_final/0785_rv.mp4	0.0	220.06391835212708	1.0084900856018066
47	204.11400532722473	pulse	0	t		45.0	2.5	/experiments/Knapen_AOT/AOT_stimuli/rescaled_final/0785_rv.mp4	0.0	220.64755702018738	
47	204.53885674476624	movie	1		290	45.0	2.5	/experiments/Knapen_AOT/AOT_stimuli/rescaled_final/0785_rv.mp4	0.0	221.07240843772888	2.4920268058776855
47	205.71425580978394	pulse	1	t		45.0	2.5	/experiments/Knapen_AOT/AOT_stimuli/rescaled_final/0785_rv.mp4	0.0	222.24780750274658	
47	207.03088355064392	fix_post	2		12	45.0	2.5	/experiments/Knapen_AOT/AOT_stimuli/rescaled_final/0785_rv.mp4	0.0	223.56443524360657	0.0999917984008789
48	207.1308753490448	fix_pre	0		120	46.0	2.5	/experiments/Knapen_AOT/AOT_stimuli/rescaled_final/0854_rv.mp4	0.0	223.66442704200745	1.0085012912750244
48	207.31449937820435	pulse	0	t		46.0	2.5	/experiments/Knapen_AOT/AOT_stimuli/rescaled_final/0854_rv.mp4	0.0	223.848051071167	
48	208.13937664031982	movie	1		276	46.0	2.5	/experiments/Knapen_AOT/AOT_stimuli/rescaled_final/0854_rv.mp4	0.0	224.67292833328247	2.4920363426208496
48	208.91531896591187	pulse	1	t		46.0	2.5	/experiments/Knapen_AOT/AOT_stimuli/rescaled_final/0854_rv.mp4	0.0	225.4488706588745	
48	210.51497745513916	pulse	1	t		46.0	2.5	/experiments/Knapen_AOT/AOT_stimuli/rescaled_final/0854_rv.mp4	0.0	227.0485291481018	
48	210.63141298294067	fix_post	2		12	46.0	2.5	/experiments/Knapen_AOT/AOT_stimuli/rescaled_final/0854_rv.mp4	0.0	227.16496467590332	0.10004115104675293
49	210.73145413398743	fix_pre	0		120	47.0	2.5	blank	1.0	227.26500582695007	1.000145435333252
49	211.73159956932068	movie	1		300	47.0	2.5	blank	1.0	228.26515126228333	2.500375509262085
49	212.1151795387268	pulse	1	t		47.0	2.5	blank	1.0	228.64873123168945	
49	213.71541476249695	pulse	1	t		47.0	2.5	blank	1.0	230.2489664554596	
49	214.23197507858276	fix_post	2		12	47.0	2.5	blank	1.0	230.7655267715454	0.1000368595123291
50	214.3320119380951	fix_pre	0		119	48.0	2.5	/experiments/Knapen_AOT/AOT_stimuli/rescaled_final/0192_fw.mp4	0.0	230.86556363105774	1.000119924545288
50	215.31557989120483	pulse	0	t		48.0	2.5	/experiments/Knapen_AOT/AOT_stimuli/rescaled_final/0192_fw.mp4	0.0	231.84913158416748	
50	215.33213186264038	movie	1		281	48.0	2.5	/experiments/Knapen_AOT/AOT_stimuli/rescaled_final/0192_fw.mp4	0.0	231.86568355560303	2.500393867492676
50	216.91447710990906	pulse	1	t		48.0	2.5	/experiments/Knapen_AOT/AOT_stimuli/rescaled_final/0192_fw.mp4	0.0	233.4480288028717	
50	217.83252573013306	fix_post	2		8	48.0	2.5	/experiments/Knapen_AOT/AOT_stimuli/rescaled_final/0192_fw.mp4	0.0	234.3660774230957	0.20848488807678223
51	218.04101061820984	fix_pre	0		107	49.0	2.5	/experiments/Knapen_AOT/AOT_stimuli/rescaled_final/1843_rv.mp4	0.0	234.57456231117249	0.9000105857849121
51	218.51638340950012	pulse	0	t		49.0	2.5	/experiments/Knapen_AOT/AOT_stimuli/rescaled_final/1843_rv.mp4	0.0	235.04993510246277	
51	218.94102120399475	movie	1		269	49.0	2.5	/experiments/Knapen_AOT/AOT_stimuli/rescaled_final/1843_rv.mp4	0.0	235.4745728969574	2.4920670986175537
51	220.11504793167114	pulse	1	t		49.0	2.5	/experiments/Knapen_AOT/AOT_stimuli/rescaled_final/1843_rv.mp4	0.0	236.6485996246338	
51	221.4330883026123	fix_post	2		12	49.0	2.5	/experiments/Knapen_AOT/AOT_stimuli/rescaled_final/1843_rv.mp4	0.0	237.96663999557495	0.09999775886535645
52	221.53308606147766	fix_pre	0		120	50.0	2.5	/experiments/Knapen_AOT/AOT_stimuli/rescaled_final/1838_fw.mp4	0.0	238.0666377544403	1.008471965789795
52	221.716735124588	pulse	0	t		50.0	2.5	/experiments/Knapen_AOT/AOT_stimuli/rescaled_final/1838_fw.mp4	0.0	238.25028681755066	
52	222.54155802726746	movie	1		281	50.0	2.5	/experiments/Knapen_AOT/AOT_stimuli/rescaled_final/1838_fw.mp4	0.0	239.0751097202301	2.4921395778656006
52	223.31506323814392	pulse	1	t		50.0	2.5	/experiments/Knapen_AOT/AOT_stimuli/rescaled_final/1838_fw.mp4	0.0	239.84861493110657	
52	224.9156265258789	pulse	1	t		50.0	2.5	/experiments/Knapen_AOT/AOT_stimuli/rescaled_final/1838_fw.mp4	0.0	241.44917821884155	
52	225.03369760513306	fix_post	2		12	50.0	2.5	/experiments/Knapen_AOT/AOT_stimuli/rescaled_final/1838_fw.mp4	0.0	241.5672492980957	0.09995627403259277
53	225.13365387916565	fix_pre	0		120	51.0	2.5	/experiments/Knapen_AOT/AOT_stimuli/rescaled_final/0955_rv.mp4	0.0	241.6672055721283	1.0084350109100342
53	226.14208889007568	movie	1		276	51.0	2.5	/experiments/Knapen_AOT/AOT_stimuli/rescaled_final/0955_rv.mp4	0.0	242.67564058303833	2.4920408725738525
53	226.5175461769104	pulse	1	t		51.0	2.5	/experiments/Knapen_AOT/AOT_stimuli/rescaled_final/0955_rv.mp4	0.0	243.05109786987305	
53	228.11600136756897	pulse	1	t		51.0	2.5	/experiments/Knapen_AOT/AOT_stimuli/rescaled_final/0955_rv.mp4	0.0	244.64955306053162	
53	228.63412976264954	fix_post	2		12	51.0	2.5	/experiments/Knapen_AOT/AOT_stimuli/rescaled_final/0955_rv.mp4	0.0	245.16768145561218	0.100006103515625
54	228.73413586616516	fix_pre	0		119	52.0	2.5	/experiments/Knapen_AOT/AOT_stimuli/rescaled_final/0343_fw.mp4	0.0	245.2676875591278	1.0085947513580322
54	229.71783208847046	pulse	0	t		52.0	2.5	/experiments/Knapen_AOT/AOT_stimuli/rescaled_final/0343_fw.mp4	0.0	246.2513837814331	
54	229.7427306175232	movie	1		279	52.0	2.5	/experiments/Knapen_AOT/AOT_stimuli/rescaled_final/0343_fw.mp4	0.0	246.27628231048584	2.4919307231903076
54	231.31666803359985	pulse	1	t		52.0	2.5	/experiments/Knapen_AOT/AOT_stimuli/rescaled_final/0343_fw.mp4	0.0	247.8502197265625	
54	232.2346613407135	fix_post	2		12	52.0	2.5	/experiments/Knapen_AOT/AOT_stimuli/rescaled_final/0343_fw.mp4	0.0	248.76821303367615	0.10001254081726074
55	232.33467388153076	fix_pre	0		120	53.0	2.5	/experiments/Knapen_AOT/AOT_stimuli/rescaled_final/1628_rv.mp4	0.0	248.8682255744934	1.008516550064087
55	232.9184057712555	pulse	0	t		53.0	2.5	/experiments/Knapen_AOT/AOT_stimuli/rescaled_final/1628_rv.mp4	0.0	249.45195746421814	
55	233.34319043159485	movie	1		287	53.0	2.5	/experiments/Knapen_AOT/AOT_stimuli/rescaled_final/1628_rv.mp4	0.0	249.8767421245575	2.492002248764038
55	234.51674389839172	pulse	1	t		53.0	2.5	/experiments/Knapen_AOT/AOT_stimuli/rescaled_final/1628_rv.mp4	0.0	251.05029559135437	
55	235.8351926803589	fix_post	2		12	53.0	2.5	/experiments/Knapen_AOT/AOT_stimuli/rescaled_final/1628_rv.mp4	0.0	252.36874437332153	0.10002326965332031
56	235.9352159500122	fix_pre	0		120	54.0	2.5	/experiments/Knapen_AOT/AOT_stimuli/rescaled_final/1779_fw.mp4	0.0	252.46876764297485	1.0085132122039795
56	236.11881852149963	pulse	0	t		54.0	2.5	/experiments/Knapen_AOT/AOT_stimuli/rescaled_final/1779_fw.mp4	0.0	252.65237021446228	
56	236.9437291622162	movie	1		289	54.0	2.5	/experiments/Knapen_AOT/AOT_stimuli/rescaled_final/1779_fw.mp4	0.0	253.47728085517883	2.4920260906219482
56	237.7171437740326	pulse	1	t		54.0	2.5	/experiments/Knapen_AOT/AOT_stimuli/rescaled_final/1779_fw.mp4	0.0	254.25069546699524	
56	239.3173429965973	pulse	1	t		54.0	2.5	/experiments/Knapen_AOT/AOT_stimuli/rescaled_final/1779_fw.mp4	0.0	255.85089468955994	
56	239.43575525283813	fix_post	2		12	54.0	2.5	/experiments/Knapen_AOT/AOT_stimuli/rescaled_final/1779_fw.mp4	0.0	255.96930694580078	0.10031986236572266
57	239.53607511520386	fix_pre	0		120	55.0	2.5	/experiments/Knapen_AOT/AOT_stimuli/rescaled_final/0520_fw.mp4	0.0	256.0696268081665	1.008223533630371
57	240.54429864883423	movie	1		282	55.0	2.5	/experiments/Knapen_AOT/AOT_stimuli/rescaled_final/0520_fw.mp4	0.0	257.0778503417969	2.4919967651367188
57	240.9194712638855	pulse	1	t		55.0	2.5	/experiments/Knapen_AOT/AOT_stimuli/rescaled_final/0520_fw.mp4	0.0	257.45302295684814	
57	242.51788330078125	pulse	1	t		55.0	2.5	/experiments/Knapen_AOT/AOT_stimuli/rescaled_final/0520_fw.mp4	0.0	259.0514349937439	
57	243.03629541397095	fix_post	2		12	55.0	2.5	/experiments/Knapen_AOT/AOT_stimuli/rescaled_final/0520_fw.mp4	0.0	259.5698471069336	0.09998369216918945
58	243.13627910614014	fix_pre	0		119	56.0	2.5	blank	1.0	259.6698307991028	0.9918336868286133
58	244.11999583244324	pulse	0	t		56.0	2.5	blank	1.0	260.6535475254059	
58	244.12811279296875	movie	1		301	56.0	2.5	blank	1.0	260.6616644859314	2.508718967437744
58	245.72031021118164	pulse	1	t		56.0	2.5	blank	1.0	262.2538619041443	
58	246.6368317604065	fix_post	2		12	56.0	2.5	blank	1.0	263.17038345336914	0.1000833511352539
59	246.73691511154175	fix_pre	0		120	57.0	2.5	/experiments/Knapen_AOT/AOT_stimuli/rescaled_final/0134_rv.mp4	0.0	263.2704668045044	1.0084521770477295
59	247.32047390937805	pulse	0	t		57.0	2.5	/experiments/Knapen_AOT/AOT_stimuli/rescaled_final/0134_rv.mp4	0.0	263.8540256023407	
59	247.74536728858948	movie	1		284	57.0	2.5	/experiments/Knapen_AOT/AOT_stimuli/rescaled_final/0134_rv.mp4	0.0	264.2789189815521	2.491987466812134
59	248.91878485679626	pulse	1	t		57.0	2.5	/experiments/Knapen_AOT/AOT_stimuli/rescaled_final/0134_rv.mp4	0.0	265.4523365497589	
59	250.2373547554016	fix_post	2		12	57.0	2.5	/experiments/Knapen_AOT/AOT_stimuli/rescaled_final/0134_rv.mp4	0.0	266.77090644836426	0.10004544258117676
60	250.3374001979828	fix_pre	0		120	58.0	2.5	/experiments/Knapen_AOT/AOT_stimuli/rescaled_final/1747_rv.mp4	0.0	266.87095189094543	1.0085439682006836
60	250.51456379890442	pulse	0	t		58.0	2.5	/experiments/Knapen_AOT/AOT_stimuli/rescaled_final/1747_rv.mp4	0.0	267.04811549186707	
60	251.34594416618347	movie	1		269	58.0	2.5	/experiments/Knapen_AOT/AOT_stimuli/rescaled_final/1747_rv.mp4	0.0	267.8794958591461	2.491992950439453
60	252.11943221092224	pulse	1	t		58.0	2.5	/experiments/Knapen_AOT/AOT_stimuli/rescaled_final/1747_rv.mp4	0.0	268.6529839038849	
60	253.72167539596558	pulse	1	t		58.0	2.5	/experiments/Knapen_AOT/AOT_stimuli/rescaled_final/1747_rv.mp4	0.0	270.2552270889282	
60	253.83793711662292	fix_post	2		12	58.0	2.5	/experiments/Knapen_AOT/AOT_stimuli/rescaled_final/1747_rv.mp4	0.0	270.37148880958557	0.1000058650970459
61	253.93794298171997	fix_pre	0		120	59.0	2.5	/experiments/Knapen_AOT/AOT_stimuli/rescaled_final/0454_fw.mp4	0.0	270.4714946746826	1.0084855556488037
61	254.94642853736877	movie	1		276	59.0	2.5	/experiments/Knapen_AOT/AOT_stimuli/rescaled_final/0454_fw.mp4	0.0	271.4799802303314	2.492064952850342
61	255.31387042999268	pulse	1	t		59.0	2.5	/experiments/Knapen_AOT/AOT_stimuli/rescaled_final/0454_fw.mp4	0.0	271.8474221229553	
61	256.91387462615967	pulse	1	t		59.0	2.5	/experiments/Knapen_AOT/AOT_stimuli/rescaled_final/0454_fw.mp4	0.0	273.4474263191223	
61	257.4384934902191	fix_post	2		12	59.0	2.5	/experiments/Knapen_AOT/AOT_stimuli/rescaled_final/0454_fw.mp4	0.0	273.97204518318176	0.09997963905334473
62	257.53847312927246	fix_pre	0		118	60.0	2.5	/experiments/Knapen_AOT/AOT_stimuli/rescaled_final/1929_rv.mp4	0.0	274.0720248222351	0.9918308258056641
62	258.5139329433441	pulse	0	t		60.0	2.5	/experiments/Knapen_AOT/AOT_stimuli/rescaled_final/1929_rv.mp4	0.0	275.04748463630676	
62	258.5303039550781	movie	1		284	60.0	2.5	/experiments/Knapen_AOT/AOT_stimuli/rescaled_final/1929_rv.mp4	0.0	275.06385564804077	2.500391721725464
62	260.114137172699	pulse	1	t		60.0	2.5	/experiments/Knapen_AOT/AOT_stimuli/rescaled_final/1929_rv.mp4	0.0	276.6476888656616	
62	261.0306956768036	fix_post	2		12	60.0	2.5	/experiments/Knapen_AOT/AOT_stimuli/rescaled_final/1929_rv.mp4	0.0	277.56424736976624	0.10001230239868164
63	261.13070797920227	fix_pre	0		120	61.0	2.5	/experiments/Knapen_AOT/AOT_stimuli/rescaled_final/1849_rv.mp4	0.0	277.6642596721649	1.008575677871704
63	261.71434926986694	pulse	0	t		61.0	2.5	/experiments/Knapen_AOT/AOT_stimuli/rescaled_final/1849_rv.mp4	0.0	278.2479009628296	
63	262.139283657074	movie	1		279	61.0	2.5	/experiments/Knapen_AOT/AOT_stimuli/rescaled_final/1849_rv.mp4	0.0	278.6728353500366	2.49191951751709
63	263.31504106521606	pulse	1	t		61.0	2.5	/experiments/Knapen_AOT/AOT_stimuli/rescaled_final/1849_rv.mp4	0.0	279.8485927581787	
63	264.63120317459106	fix_post	2		12	61.0	2.5	/experiments/Knapen_AOT/AOT_stimuli/rescaled_final/1849_rv.mp4	0.0	281.1647548675537	0.1000816822052002
64	264.73128485679626	fix_pre	0		119	62.0	2.5	blank	1.0	281.2648365497589	1.00008225440979
64	264.9148507118225	pulse	0	t		62.0	2.5	blank	1.0	281.44840240478516	
64	265.73136711120605	movie	1		300	62.0	2.5	blank	1.0	282.2649188041687	2.5003769397735596
64	266.5150988101959	pulse	1	t		62.0	2.5	blank	1.0	283.04865050315857	
64	268.11525416374207	pulse	1	t		62.0	2.5	blank	1.0	284.6488058567047	
64	268.2317440509796	fix_post	2		12	62.0	2.5	blank	1.0	284.76529574394226	0.10007143020629883
65	268.3318154811859	fix_pre	0		120	63.0	2.5	/experiments/Knapen_AOT/AOT_stimuli/rescaled_final/1088_rv.mp4	0.0	284.86536717414856	1.0084545612335205
65	269.34027004241943	movie	1		286	63.0	2.5	/experiments/Knapen_AOT/AOT_stimuli/rescaled_final/1088_rv.mp4	0.0	285.8738217353821	2.4920194149017334
65	269.7154743671417	pulse	1	t		63.0	2.5	/experiments/Knapen_AOT/AOT_stimuli/rescaled_final/1088_rv.mp4	0.0	286.24902606010437	
65	271.31653571128845	pulse	1	t		63.0	2.5	/experiments/Knapen_AOT/AOT_stimuli/rescaled_final/1088_rv.mp4	0.0	287.8500874042511	
65	271.83228945732117	fix_post	2		12	63.0	2.5	/experiments/Knapen_AOT/AOT_stimuli/rescaled_final/1088_rv.mp4	0.0	288.3658411502838	0.10001468658447266
66	271.93230414390564	fix_pre	0		119	64.0	2.5	/experiments/Knapen_AOT/AOT_stimuli/rescaled_final/0923_rv.mp4	0.0	288.4658558368683	1.008568286895752
66	272.91621565818787	pulse	0	t		64.0	2.5	/experiments/Knapen_AOT/AOT_stimuli/rescaled_final/0923_rv.mp4	0.0	289.4497673511505	
66	272.9408724308014	movie	1		261	64.0	2.5	/experiments/Knapen_AOT/AOT_stimuli/rescaled_final/0923_rv.mp4	0.0	289.47442412376404	2.491961717605591
66	274.5148630142212	pulse	1	t		64.0	2.5	/experiments/Knapen_AOT/AOT_stimuli/rescaled_final/0923_rv.mp4	0.0	291.04841470718384	
66	275.432834148407	fix_post	2		12	64.0	2.5	/experiments/Knapen_AOT/AOT_stimuli/rescaled_final/0923_rv.mp4	0.0	291.96638584136963	0.10001802444458008
67	275.53285217285156	fix_pre	0		120	65.0	2.5	/experiments/Knapen_AOT/AOT_stimuli/rescaled_final/1003_rv.mp4	0.0	292.0664038658142	1.008500099182129
67	276.1165978908539	pulse	0	t		65.0	2.5	/experiments/Knapen_AOT/AOT_stimuli/rescaled_final/1003_rv.mp4	0.0	292.6501495838165	
67	276.5413522720337	movie	1		268	65.0	2.5	/experiments/Knapen_AOT/AOT_stimuli/rescaled_final/1003_rv.mp4	0.0	293.07490396499634	2.492018461227417
67	277.7168560028076	pulse	1	t		65.0	2.5	/experiments/Knapen_AOT/AOT_stimuli/rescaled_final/1003_rv.mp4	0.0	294.25040769577026	
67	279.0333707332611	fix_post	2		12	65.0	2.5	/experiments/Knapen_AOT/AOT_stimuli/rescaled_final/1003_rv.mp4	0.0	295.56692242622375	0.1000216007232666
68	279.1333923339844	fix_pre	0		120	66.0	2.5	/experiments/Knapen_AOT/AOT_stimuli/rescaled_final/1894_rv.mp4	0.0	295.666944026947	1.008575439453125
68	279.31704235076904	pulse	0	t		66.0	2.5	/experiments/Knapen_AOT/AOT_stimuli/rescaled_final/1894_rv.mp4	0.0	295.8505940437317	
68	280.1419677734375	movie	1		285	66.0	2.5	/experiments/Knapen_AOT/AOT_stimuli/rescaled_final/1894_rv.mp4	0.0	296.67551946640015	2.4919917583465576
68	280.91517090797424	pulse	1	t		66.0	2.5	/experiments/Knapen_AOT/AOT_stimuli/rescaled_final/1894_rv.mp4	0.0	297.4487226009369	
68	282.51551055908203	pulse	1	t		66.0	2.5	/experiments/Knapen_AOT/AOT_stimuli/rescaled_final/1894_rv.mp4	0.0	299.0490622520447	
68	282.63395953178406	fix_post	2		12	66.0	2.5	/experiments/Knapen_AOT/AOT_stimuli/rescaled_final/1894_rv.mp4	0.0	299.1675112247467	0.10002017021179199
69	282.73397970199585	fix_pre	0		120	67.0	2.5	/experiments/Knapen_AOT/AOT_stimuli/rescaled_final/1628_rv.mp4	0.0	299.2675313949585	1.0084569454193115
69	283.74243664741516	movie	1		260	67.0	2.5	/experiments/Knapen_AOT/AOT_stimuli/rescaled_final/1628_rv.mp4	0.0	300.2759883403778	2.492020606994629
69	284.11778807640076	pulse	1	t		67.0	2.5	/experiments/Knapen_AOT/AOT_stimuli/rescaled_final/1628_rv.mp4	0.0	300.6513397693634	
69	285.7161371707916	pulse	1	t		67.0	2.5	/experiments/Knapen_AOT/AOT_stimuli/rescaled_final/1628_rv.mp4	0.0	302.2496888637543	
69	286.2344572544098	fix_post	2		12	67.0	2.5	/experiments/Knapen_AOT/AOT_stimuli/rescaled_final/1628_rv.mp4	0.0	302.76800894737244	0.10003948211669922
70	286.3344967365265	fix_pre	0		119	68.0	2.5	/experiments/Knapen_AOT/AOT_stimuli/rescaled_final/2023_fw.mp4	0.0	302.86804842948914	1.000150442123413
70	287.3184037208557	pulse	0	t		68.0	2.5	/experiments/Knapen_AOT/AOT_stimuli/rescaled_final/2023_fw.mp4	0.0	303.85195541381836	
70	287.3346471786499	movie	1		283	68.0	2.5	/experiments/Knapen_AOT/AOT_stimuli/rescaled_final/2023_fw.mp4	0.0	303.86819887161255	2.5003676414489746
70	288.9171185493469	pulse	1	t		68.0	2.5	/experiments/Knapen_AOT/AOT_stimuli/rescaled_final/2023_fw.mp4	0.0	305.45067024230957	
70	289.8350148200989	fix_post	2		12	68.0	2.5	/experiments/Knapen_AOT/AOT_stimuli/rescaled_final/2023_fw.mp4	0.0	306.3685665130615	0.10000038146972656
71	289.9350152015686	fix_pre	0		120	69.0	2.5	blank	1.0	306.46856689453125	1.0001425743103027
71	290.51870036125183	pulse	0	t		69.0	2.5	blank	1.0	307.0522520542145	
71	290.9351577758789	movie	1		300	69.0	2.5	blank	1.0	307.46870946884155	2.500387668609619
71	292.11899042129517	pulse	1	t		69.0	2.5	blank	1.0	308.6525421142578	
71	293.4355454444885	fix_post	2		12	69.0	2.5	blank	1.0	309.9690971374512	0.10001945495605469
72	293.5355648994446	fix_pre	0		120	70.0	2.5	/experiments/Knapen_AOT/AOT_stimuli/rescaled_final/0362_rv.mp4	0.0	310.0691165924072	1.0086052417755127
72	293.7192072868347	pulse	0	t		70.0	2.5	/experiments/Knapen_AOT/AOT_stimuli/rescaled_final/0362_rv.mp4	0.0	310.25275897979736	
72	294.5441701412201	movie	1		264	70.0	2.5	/experiments/Knapen_AOT/AOT_stimuli/rescaled_final/0362_rv.mp4	0.0	311.07772183418274	2.4919040203094482
72	295.317831993103	pulse	1	t		70.0	2.5	/experiments/Knapen_AOT/AOT_stimuli/rescaled_final/0362_rv.mp4	0.0	311.8513836860657	
72	296.9175889492035	pulse	1	t		70.0	2.5	/experiments/Knapen_AOT/AOT_stimuli/rescaled_final/0362_rv.mp4	0.0	313.45114064216614	
72	297.03607416152954	fix_post	2		12	70.0	2.5	/experiments/Knapen_AOT/AOT_stimuli/rescaled_final/0362_rv.mp4	0.0	313.5696258544922	0.10004019737243652
73	297.136114358902	fix_pre	0		120	71.0	2.5	/experiments/Knapen_AOT/AOT_stimuli/rescaled_final/1591_fw.mp4	0.0	313.6696660518646	1.0084481239318848
73	298.14456248283386	movie	1		276	71.0	2.5	/experiments/Knapen_AOT/AOT_stimuli/rescaled_final/1591_fw.mp4	0.0	314.6781141757965	2.4920716285705566
73	298.5182089805603	pulse	1	t		71.0	2.5	/experiments/Knapen_AOT/AOT_stimuli/rescaled_final/1591_fw.mp4	0.0	315.05176067352295	
73	300.1182007789612	pulse	1	t		71.0	2.5	/experiments/Knapen_AOT/AOT_stimuli/rescaled_final/1591_fw.mp4	0.0	316.6517524719238	
73	300.6366341114044	fix_post	2		12	71.0	2.5	/experiments/Knapen_AOT/AOT_stimuli/rescaled_final/1591_fw.mp4	0.0	317.17018580436707	0.0999901294708252
74	300.73662424087524	fix_pre	0		119	72.0	2.5	/experiments/Knapen_AOT/AOT_stimuli/rescaled_final/1991_rv.mp4	0.0	317.2701759338379	1.008603811264038
74	301.72044038772583	pulse	0	t		72.0	2.5	/experiments/Knapen_AOT/AOT_stimuli/rescaled_final/1991_rv.mp4	0.0	318.2539920806885	
74	301.7452280521393	movie	1		286	72.0	2.5	/experiments/Knapen_AOT/AOT_stimuli/rescaled_final/1991_rv.mp4	0.0	318.27877974510193	2.49192214012146
74	303.3198010921478	pulse	1	t		72.0	2.5	/experiments/Knapen_AOT/AOT_stimuli/rescaled_final/1991_rv.mp4	0.0	319.8533527851105	
74	304.23715019226074	fix_post	2		12	72.0	2.5	/experiments/Knapen_AOT/AOT_stimuli/rescaled_final/1991_rv.mp4	0.0	320.7707018852234	0.10002660751342773
75	304.33717679977417	fix_pre	0		120	73.0	2.5	/experiments/Knapen_AOT/AOT_stimuli/rescaled_final/1276_rv.mp4	0.0	320.8707284927368	1.0084686279296875
75	304.9209451675415	pulse	0	t		73.0	2.5	/experiments/Knapen_AOT/AOT_stimuli/rescaled_final/1276_rv.mp4	0.0	321.45449686050415	
75	305.34564542770386	movie	1		267	73.0	2.5	/experiments/Knapen_AOT/AOT_stimuli/rescaled_final/1276_rv.mp4	0.0	321.8791971206665	2.492055654525757
75	306.51952290534973	pulse	1	t		73.0	2.5	/experiments/Knapen_AOT/AOT_stimuli/rescaled_final/1276_rv.mp4	0.0	323.0530745983124	
75	307.8377010822296	fix_post	2		12	73.0	2.5	/experiments/Knapen_AOT/AOT_stimuli/rescaled_final/1276_rv.mp4	0.0	324.37125277519226	0.10009336471557617
76	307.9377944469452	fix_pre	0		120	74.0	2.5	/experiments/Knapen_AOT/AOT_stimuli/rescaled_final/0973_fw.mp4	0.0	324.47134613990784	1.0084137916564941
76	308.1212954521179	pulse	0	t		74.0	2.5	/experiments/Knapen_AOT/AOT_stimuli/rescaled_final/0973_fw.mp4	0.0	324.65484714508057	
76	308.9462082386017	movie	1		275	74.0	2.5	/experiments/Knapen_AOT/AOT_stimuli/rescaled_final/0973_fw.mp4	0.0	325.47975993156433	2.492063045501709
76	309.7198796272278	pulse	1	t		74.0	2.5	/experiments/Knapen_AOT/AOT_stimuli/rescaled_final/0973_fw.mp4	0.0	326.25343132019043	
76	311.31997895240784	pulse	1	t		74.0	2.5	/experiments/Knapen_AOT/AOT_stimuli/rescaled_final/0973_fw.mp4	0.0	327.8535306453705	
76	311.4382712841034	fix_post	2		12	74.0	2.5	/experiments/Knapen_AOT/AOT_stimuli/rescaled_final/0973_fw.mp4	0.0	327.97182297706604	0.10019135475158691
77	311.538462638855	fix_pre	0		120	75.0	2.5	/experiments/Knapen_AOT/AOT_stimuli/rescaled_final/0799_rv.mp4	0.0	328.0720143318176	1.0083107948303223
77	312.5467734336853	movie	1		281	75.0	2.5	/experiments/Knapen_AOT/AOT_stimuli/rescaled_final/0799_rv.mp4	0.0	329.08032512664795	2.492112874984741
77	312.92047691345215	pulse	1	t		75.0	2.5	/experiments/Knapen_AOT/AOT_stimuli/rescaled_final/0799_rv.mp4	0.0	329.4540286064148	
77	314.52069306373596	pulse	1	t		75.0	2.5	/experiments/Knapen_AOT/AOT_stimuli/rescaled_final/0799_rv.mp4	0.0	331.0542447566986	
77	315.03888630867004	fix_post	2		12	75.0	2.5	/experiments/Knapen_AOT/AOT_stimuli/rescaled_final/0799_rv.mp4	0.0	331.5724380016327	0.09994840621948242
78	315.1388347148895	fix_pre	0		118	76.0	2.5	/experiments/Knapen_AOT/AOT_stimuli/rescaled_final/0690_rv.mp4	0.0	331.6723864078522	0.9919195175170898
78	316.11433959007263	pulse	0	t		76.0	2.5	/experiments/Knapen_AOT/AOT_stimuli/rescaled_final/0690_rv.mp4	0.0	332.6478912830353	
78	316.1307542324066	movie	1		278	76.0	2.5	/experiments/Knapen_AOT/AOT_stimuli/rescaled_final/0690_rv.mp4	0.0	332.66430592536926	2.5002455711364746
78	317.71568036079407	pulse	1	t		76.0	2.5	/experiments/Knapen_AOT/AOT_stimuli/rescaled_final/0690_rv.mp4	0.0	334.2492320537567	
78	318.6309998035431	fix_post	2		12	76.0	2.5	/experiments/Knapen_AOT/AOT_stimuli/rescaled_final/0690_rv.mp4	0.0	335.16455149650574	0.10000419616699219
79	318.7310039997101	fix_pre	0		120	77.0	2.5	blank	1.0	335.26455569267273	1.0001444816589355
79	319.3146846294403	pulse	0	t		77.0	2.5	blank	1.0	335.84823632240295	
79	319.731148481369	movie	1		300	77.0	2.5	blank	1.0	336.26470017433167	2.5003905296325684
79	320.9150218963623	pulse	1	t		77.0	2.5	blank	1.0	337.44857358932495	
79	322.2315390110016	fix_post	2		12	77.0	2.5	blank	1.0	338.76509070396423	0.10000085830688477
80	322.3315398693085	fix_pre	0		120	78.0	2.5	/experiments/Knapen_AOT/AOT_stimuli/rescaled_final/1204_rv.mp4	0.0	338.8650915622711	1.0084819793701172
80	322.51520347595215	pulse	0	t		78.0	2.5	/experiments/Knapen_AOT/AOT_stimuli/rescaled_final/1204_rv.mp4	0.0	339.0487551689148	
80	323.3400218486786	movie	1		278	78.0	2.5	/experiments/Knapen_AOT/AOT_stimuli/rescaled_final/1204_rv.mp4	0.0	339.87357354164124	2.492208242416382
80	324.1154420375824	pulse	1	t		78.0	2.5	/experiments/Knapen_AOT/AOT_stimuli/rescaled_final/1204_rv.mp4	0.0	340.64899373054504	
80	325.7155692577362	pulse	1	t		78.0	2.5	/experiments/Knapen_AOT/AOT_stimuli/rescaled_final/1204_rv.mp4	0.0	342.24912095069885	
80	325.83223009109497	fix_post	2		12	78.0	2.5	/experiments/Knapen_AOT/AOT_stimuli/rescaled_final/1204_rv.mp4	0.0	342.3657817840576	0.09985947608947754
81	325.93208956718445	fix_pre	0		120	79.0	2.5	/experiments/Knapen_AOT/AOT_stimuli/rescaled_final/1213_fw.mp4	0.0	342.4656412601471	1.0084733963012695
81	326.9405629634857	movie	1		277	79.0	2.5	/experiments/Knapen_AOT/AOT_stimuli/rescaled_final/1213_fw.mp4	0.0	343.47411465644836	2.492034673690796
81	327.31504106521606	pulse	1	t		79.0	2.5	/experiments/Knapen_AOT/AOT_stimuli/rescaled_final/1213_fw.mp4	0.0	343.8485927581787	
81	328.91554737091064	pulse	1	t		79.0	2.5	/experiments/Knapen_AOT/AOT_stimuli/rescaled_final/1213_fw.mp4	0.0	345.4490990638733	
81	329.4325976371765	fix_post	2		12	79.0	2.5	/experiments/Knapen_AOT/AOT_stimuli/rescaled_final/1213_fw.mp4	0.0	345.96614933013916	0.10011792182922363
82	329.53271555900574	fix_pre	0		119	80.0	2.5	/experiments/Knapen_AOT/AOT_stimuli/rescaled_final/0619_fw.mp4	0.0	346.0662672519684	1.008420467376709
82	330.5164096355438	pulse	0	t		80.0	2.5	/experiments/Knapen_AOT/AOT_stimuli/rescaled_final/0619_fw.mp4	0.0	347.04996132850647	
82	330.54113602638245	movie	1		270	80.0	2.5	/experiments/Knapen_AOT/AOT_stimuli/rescaled_final/0619_fw.mp4	0.0	347.0746877193451	2.492058038711548
82	332.1153976917267	pulse	1	t		80.0	2.5	/experiments/Knapen_AOT/AOT_stimuli/rescaled_final/0619_fw.mp4	0.0	348.64894938468933	
82	333.033194065094	fix_post	2		12	80.0	2.5	/experiments/Knapen_AOT/AOT_stimuli/rescaled_final/0619_fw.mp4	0.0	349.56674575805664	0.09996390342712402
83	333.1331579685211	fix_pre	0		120	81.0	2.5	/experiments/Knapen_AOT/AOT_stimuli/rescaled_final/0316_rv.mp4	0.0	349.66670966148376	1.0085206031799316
83	333.7168867588043	pulse	0	t		81.0	2.5	/experiments/Knapen_AOT/AOT_stimuli/rescaled_final/0316_rv.mp4	0.0	350.25043845176697	
83	334.14167857170105	movie	1		286	81.0	2.5	/experiments/Knapen_AOT/AOT_stimuli/rescaled_final/0316_rv.mp4	0.0	350.6752302646637	2.4920198917388916
83	335.31600403785706	pulse	1	t		81.0	2.5	/experiments/Knapen_AOT/AOT_stimuli/rescaled_final/0316_rv.mp4	0.0	351.8495557308197	
83	336.63369846343994	fix_post	2		12	81.0	2.5	/experiments/Knapen_AOT/AOT_stimuli/rescaled_final/0316_rv.mp4	0.0	353.1672501564026	0.10001444816589355
84	336.73371291160583	fix_pre	0		120	82.0	2.5	blank	1.0	353.2672646045685	1.0001590251922607
84	336.9173345565796	pulse	0	t		82.0	2.5	blank	1.0	353.45088624954224	
84	337.7338719367981	movie	1		300	82.0	2.5	blank	1.0	354.26742362976074	2.5003912448883057
84	338.51768469810486	pulse	1	t		82.0	2.5	blank	1.0	355.0512363910675	
84	340.1177854537964	pulse	1	t		82.0	2.5	blank	1.0	356.65133714675903	
84	340.2342631816864	fix_post	2		12	82.0	2.5	blank	1.0	356.76781487464905	0.10000181198120117
85	340.3342649936676	fix_pre	0		120	83.0	2.5	/experiments/Knapen_AOT/AOT_stimuli/rescaled_final/0323_rv.mp4	0.0	356.86781668663025	1.0085210800170898
85	341.3427860736847	movie	1		266	83.0	2.5	/experiments/Knapen_AOT/AOT_stimuli/rescaled_final/0323_rv.mp4	0.0	357.87633776664734	2.4919798374176025
85	341.7166175842285	pulse	1	t		83.0	2.5	/experiments/Knapen_AOT/AOT_stimuli/rescaled_final/0323_rv.mp4	0.0	358.25016927719116	
85	343.31604290008545	pulse	1	t		83.0	2.5	/experiments/Knapen_AOT/AOT_stimuli/rescaled_final/0323_rv.mp4	0.0	359.8495945930481	
85	343.8347659111023	fix_post	2		12	83.0	2.5	/experiments/Knapen_AOT/AOT_stimuli/rescaled_final/0323_rv.mp4	0.0	360.36831760406494	0.10001659393310547
87	343.9347825050354	stim	0		1715					360.46833419799805	14.293817281723022
87	344.91851472854614	pulse	0	t						361.4520664215088	
87	346.51870560646057	pulse	0	t						363.0522572994232	
87	348.1190617084503	pulse	0	t						364.65261340141296	
87	349.7192759513855	pulse	0	t						366.25282764434814	
87	351.319539308548	pulse	0	t						367.8530910015106	
87	352.91967129707336	pulse	0	t						369.453222990036	
87	354.5202100276947	pulse	0	t						371.05376172065735	
87	356.1201572418213	pulse	0	t						372.65370893478394	
87	357.72051310539246	pulse	0	t						374.2540647983551	
