trial_nr	onset	event_type	phase	response	nr_frames	movie_index	movie_duration	movie_file	blank	onset_abs	duration
0	0.16652655601501465	stim	0		1					17.350759983062744	0.008205413818359375
0	0.12411165237426758	response	0	space						17.308345079421997	
1	0.17473196983337402	stim	0		4657					17.358965396881104	38.82328677177429
1	38.98790526390076	pulse	0	t						56.172138690948486	
1	38.998018741607666	stim	1		1715					56.182252168655396	14.301377534866333
1	40.58106303215027	pulse	1	t						57.765296459198	
1	42.181201219558716	pulse	1	t						59.365434646606445	
1	43.781548738479614	pulse	1	t						60.965782165527344	
1	45.38169503211975	pulse	1	t						62.56592845916748	
1	46.9820556640625	pulse	1	t						64.16628909111023	
1	48.582189083099365	pulse	1	t						65.7664225101471	
1	50.182467460632324	pulse	1	t						67.36670088768005	
1	51.78270077705383	pulse	1	t						68.96693420410156	
2	53.299396276474	fix_pre	0		11	0.0	2.5	/experiments/knapen_AOT/AOT_stimuli/rescaled_final/1589_rv.mp4	0.0	70.48362970352173	0.10839581489562988
2	53.382959604263306	pulse	0	t		0.0	2.5	/experiments/knapen_AOT/AOT_stimuli/rescaled_final/1589_rv.mp4	0.0	70.56719303131104	
2	53.40779209136963	movie	1		279	0.0	2.5	/experiments/knapen_AOT/AOT_stimuli/rescaled_final/1589_rv.mp4	0.0	70.59202551841736	2.492044448852539
2	54.98154902458191	pulse	1	t		0.0	2.5	/experiments/knapen_AOT/AOT_stimuli/rescaled_final/1589_rv.mp4	0.0	72.16578245162964	
2	55.89983654022217	fix_post	2		12	0.0	2.5	/experiments/knapen_AOT/AOT_stimuli/rescaled_final/1589_rv.mp4	0.0	73.0840699672699	0.09998679161071777
3	55.999823331832886	fix_pre	0		120	1.0	2.5	/experiments/knapen_AOT/AOT_stimuli/rescaled_final/0054_rv.mp4	0.0	73.18405675888062	1.00850248336792
3	56.583438873291016	pulse	0	t		1.0	2.5	/experiments/knapen_AOT/AOT_stimuli/rescaled_final/0054_rv.mp4	0.0	73.76767230033875	
3	57.008325815200806	movie	1		269	1.0	2.5	/experiments/knapen_AOT/AOT_stimuli/rescaled_final/0054_rv.mp4	0.0	74.19255924224854	2.492039203643799
3	58.181618452072144	pulse	1	t		1.0	2.5	/experiments/knapen_AOT/AOT_stimuli/rescaled_final/0054_rv.mp4	0.0	75.36585187911987	
3	59.500365018844604	fix_post	2		12	1.0	2.5	/experiments/knapen_AOT/AOT_stimuli/rescaled_final/0054_rv.mp4	0.0	76.68459844589233	0.10009932518005371
4	59.60046434402466	fix_pre	0		120	2.0	2.5	/experiments/knapen_AOT/AOT_stimuli/rescaled_final/0071_rv.mp4	0.0	76.78469777107239	1.0083916187286377
4	59.78389811515808	pulse	0	t		2.0	2.5	/experiments/knapen_AOT/AOT_stimuli/rescaled_final/0071_rv.mp4	0.0	76.96813154220581	
4	60.608855962753296	movie	1		285	2.0	2.5	/experiments/knapen_AOT/AOT_stimuli/rescaled_final/0071_rv.mp4	0.0	77.79308938980103	2.492001533508301
4	61.38215637207031	pulse	1	t		2.0	2.5	/experiments/knapen_AOT/AOT_stimuli/rescaled_final/0071_rv.mp4	0.0	78.56638979911804	
4	62.98250436782837	pulse	1	t		2.0	2.5	/experiments/knapen_AOT/AOT_stimuli/rescaled_final/0071_rv.mp4	0.0	80.1667377948761	
4	63.1008574962616	fix_post	2		12	2.0	2.5	/experiments/knapen_AOT/AOT_stimuli/rescaled_final/0071_rv.mp4	0.0	80.28509092330933	0.10002851486206055
5	63.20088601112366	fix_pre	0		120	3.0	2.5	/experiments/knapen_AOT/AOT_stimuli/rescaled_final/0024_rv.mp4	0.0	80.38511943817139	1.008575677871704
5	64.20946168899536	movie	1		283	3.0	2.5	/experiments/knapen_AOT/AOT_stimuli/rescaled_final/0024_rv.mp4	0.0	81.39369511604309	2.4919397830963135
5	64.58300566673279	pulse	1	t		3.0	2.5	/experiments/knapen_AOT/AOT_stimuli/rescaled_final/0024_rv.mp4	0.0	81.76723909378052	
5	66.18373942375183	pulse	1	t		3.0	2.5	/experiments/knapen_AOT/AOT_stimuli/rescaled_final/0024_rv.mp4	0.0	83.36797285079956	
5	66.70140147209167	fix_post	2		12	3.0	2.5	/experiments/knapen_AOT/AOT_stimuli/rescaled_final/0024_rv.mp4	0.0	83.8856348991394	0.10001730918884277
6	66.80141878128052	fix_pre	0		119	4.0	2.5	/experiments/knapen_AOT/AOT_stimuli/rescaled_final/0090_rv.mp4	0.0	83.98565220832825	1.0001397132873535
6	67.78517031669617	pulse	0	t		4.0	2.5	/experiments/knapen_AOT/AOT_stimuli/rescaled_final/0090_rv.mp4	0.0	84.9694037437439	
6	67.80155849456787	movie	1		276	4.0	2.5	/experiments/knapen_AOT/AOT_stimuli/rescaled_final/0090_rv.mp4	0.0	84.9857919216156	2.5004069805145264
6	69.38477301597595	pulse	1	t		4.0	2.5	/experiments/knapen_AOT/AOT_stimuli/rescaled_final/0090_rv.mp4	0.0	86.56900644302368	
6	70.3019654750824	fix_post	2		12	4.0	2.5	/experiments/knapen_AOT/AOT_stimuli/rescaled_final/0090_rv.mp4	0.0	87.48619890213013	0.1000206470489502
7	70.40198612213135	fix_pre	0		120	5.0	2.5	/experiments/knapen_AOT/AOT_stimuli/rescaled_final/0971_rv.mp4	0.0	87.58621954917908	1.008474588394165
7	70.97760915756226	pulse	0	t		5.0	2.5	/experiments/knapen_AOT/AOT_stimuli/rescaled_final/0971_rv.mp4	0.0	88.16184258460999	
7	71.41046071052551	movie	1		278	5.0	2.5	/experiments/knapen_AOT/AOT_stimuli/rescaled_final/0971_rv.mp4	0.0	88.59469413757324	2.492017984390259
7	72.57765436172485	pulse	1	t		5.0	2.5	/experiments/knapen_AOT/AOT_stimuli/rescaled_final/0971_rv.mp4	0.0	89.76188778877258	
7	73.90247869491577	fix_post	2		12	5.0	2.5	/experiments/knapen_AOT/AOT_stimuli/rescaled_final/0971_rv.mp4	0.0	91.0867121219635	0.10016632080078125
8	74.00264501571655	fix_pre	0		120	6.0	2.5	/experiments/knapen_AOT/AOT_stimuli/rescaled_final/1948_fw.mp4	0.0	91.18687844276428	1.008317232131958
8	74.17774605751038	pulse	0	t		6.0	2.5	/experiments/knapen_AOT/AOT_stimuli/rescaled_final/1948_fw.mp4	0.0	91.3619794845581	
8	75.01096224784851	movie	1		280	6.0	2.5	/experiments/knapen_AOT/AOT_stimuli/rescaled_final/1948_fw.mp4	0.0	92.19519567489624	2.49208402633667
8	75.77800941467285	pulse	1	t		6.0	2.5	/experiments/knapen_AOT/AOT_stimuli/rescaled_final/1948_fw.mp4	0.0	92.96224284172058	
8	77.3785753250122	pulse	1	t		6.0	2.5	/experiments/knapen_AOT/AOT_stimuli/rescaled_final/1948_fw.mp4	0.0	94.56280875205994	
8	77.50304627418518	fix_post	2		12	6.0	2.5	/experiments/knapen_AOT/AOT_stimuli/rescaled_final/1948_fw.mp4	0.0	94.68727970123291	0.1000368595123291
9	77.60308313369751	fix_pre	0		120	7.0	2.5	blank	1.0	94.78731656074524	1.0001018047332764
9	78.60318493843079	movie	1		300	7.0	2.5	blank	1.0	95.78741836547852	2.5003724098205566
9	78.97866916656494	pulse	1	t		7.0	2.5	blank	1.0	96.16290259361267	
9	80.57873868942261	pulse	1	t		7.0	2.5	blank	1.0	97.76297211647034	
9	81.10355734825134	fix_post	2		12	7.0	2.5	blank	1.0	98.28779077529907	0.10006284713745117
10	81.2036201953888	fix_pre	0		118	8.0	2.5	/experiments/knapen_AOT/AOT_stimuli/rescaled_final/0835_fw.mp4	0.0	98.38785362243652	0.9917879104614258
10	82.17894387245178	pulse	0	t		8.0	2.5	/experiments/knapen_AOT/AOT_stimuli/rescaled_final/0835_fw.mp4	0.0	99.36317729949951	
10	82.19540810585022	movie	1		285	8.0	2.5	/experiments/knapen_AOT/AOT_stimuli/rescaled_final/0835_fw.mp4	0.0	99.37964153289795	2.5003585815429688
10	83.77948474884033	pulse	1	t		8.0	2.5	/experiments/knapen_AOT/AOT_stimuli/rescaled_final/0835_fw.mp4	0.0	100.96371817588806	
10	84.69576668739319	fix_post	2		12	8.0	2.5	/experiments/knapen_AOT/AOT_stimuli/rescaled_final/0835_fw.mp4	0.0	101.88000011444092	0.10005664825439453
11	84.79582333564758	fix_pre	0		120	9.0	2.5	/experiments/knapen_AOT/AOT_stimuli/rescaled_final/0908_fw.mp4	0.0	101.98005676269531	1.0085906982421875
11	85.37944722175598	pulse	0	t		9.0	2.5	/experiments/knapen_AOT/AOT_stimuli/rescaled_final/0908_fw.mp4	0.0	102.56368064880371	
11	85.80441403388977	movie	1		278	9.0	2.5	/experiments/knapen_AOT/AOT_stimuli/rescaled_final/0908_fw.mp4	0.0	102.9886474609375	2.49198579788208
11	86.98004698753357	pulse	1	t		9.0	2.5	/experiments/knapen_AOT/AOT_stimuli/rescaled_final/0908_fw.mp4	0.0	104.1642804145813	
11	88.29639983177185	fix_post	2		12	9.0	2.5	/experiments/knapen_AOT/AOT_stimuli/rescaled_final/0908_fw.mp4	0.0	105.48063325881958	0.09998774528503418
12	88.39638757705688	fix_pre	0		120	10.0	2.5	/experiments/knapen_AOT/AOT_stimuli/rescaled_final/2013_rv.mp4	0.0	105.58062100410461	1.0084912776947021
12	88.57989978790283	pulse	0	t		10.0	2.5	/experiments/knapen_AOT/AOT_stimuli/rescaled_final/2013_rv.mp4	0.0	105.76413321495056	
12	89.40487885475159	movie	1		275	10.0	2.5	/experiments/knapen_AOT/AOT_stimuli/rescaled_final/2013_rv.mp4	0.0	106.58911228179932	2.4919724464416504
12	90.17785215377808	pulse	1	t		10.0	2.5	/experiments/knapen_AOT/AOT_stimuli/rescaled_final/2013_rv.mp4	0.0	107.3620855808258	
12	91.78112435340881	pulse	1	t		10.0	2.5	/experiments/knapen_AOT/AOT_stimuli/rescaled_final/2013_rv.mp4	0.0	108.96535778045654	
12	91.89685130119324	fix_post	2		12	10.0	2.5	/experiments/knapen_AOT/AOT_stimuli/rescaled_final/2013_rv.mp4	0.0	109.08108472824097	0.10004973411560059
13	91.99690103530884	fix_pre	0		120	11.0	2.5	/experiments/knapen_AOT/AOT_stimuli/rescaled_final/1496_rv.mp4	0.0	109.18113446235657	1.0084776878356934
13	93.00537872314453	movie	1		278	11.0	2.5	/experiments/knapen_AOT/AOT_stimuli/rescaled_final/1496_rv.mp4	0.0	110.18961215019226	2.4920156002044678
13	93.3789849281311	pulse	1	t		11.0	2.5	/experiments/knapen_AOT/AOT_stimuli/rescaled_final/1496_rv.mp4	0.0	110.56321835517883	
13	94.97863292694092	pulse	1	t		11.0	2.5	/experiments/knapen_AOT/AOT_stimuli/rescaled_final/1496_rv.mp4	0.0	112.16286635398865	
13	95.497394323349	fix_post	2		12	11.0	2.5	/experiments/knapen_AOT/AOT_stimuli/rescaled_final/1496_rv.mp4	0.0	112.68162775039673	0.10003852844238281
14	95.59743285179138	fix_pre	0		119	12.0	2.5	blank	1.0	112.78166627883911	0.9917919635772705
14	96.58113288879395	pulse	0	t		12.0	2.5	blank	1.0	113.76536631584167	
14	96.58922481536865	movie	1		301	12.0	2.5	blank	1.0	113.77345824241638	2.5087172985076904
14	98.18139863014221	pulse	1	t		12.0	2.5	blank	1.0	115.36563205718994	
14	99.09794211387634	fix_post	2		12	12.0	2.5	blank	1.0	116.28217554092407	0.1000204086303711
15	99.19796252250671	fix_pre	0		120	13.0	2.5	/experiments/knapen_AOT/AOT_stimuli/rescaled_final/0451_fw.mp4	0.0	116.38219594955444	1.008504867553711
15	99.78157114982605	pulse	0	t		13.0	2.5	/experiments/knapen_AOT/AOT_stimuli/rescaled_final/0451_fw.mp4	0.0	116.96580457687378	
15	100.20646739006042	movie	1		270	13.0	2.5	/experiments/knapen_AOT/AOT_stimuli/rescaled_final/0451_fw.mp4	0.0	117.39070081710815	2.4920237064361572
15	101.38010144233704	pulse	1	t		13.0	2.5	/experiments/knapen_AOT/AOT_stimuli/rescaled_final/0451_fw.mp4	0.0	118.56433486938477	
15	102.69849109649658	fix_post	2		12	13.0	2.5	/experiments/knapen_AOT/AOT_stimuli/rescaled_final/0451_fw.mp4	0.0	119.88272452354431	0.1000068187713623
16	102.79849791526794	fix_pre	0		120	14.0	2.5	/experiments/knapen_AOT/AOT_stimuli/rescaled_final/1105_fw.mp4	0.0	119.98273134231567	1.0085108280181885
16	102.98215842247009	pulse	0	t		14.0	2.5	/experiments/knapen_AOT/AOT_stimuli/rescaled_final/1105_fw.mp4	0.0	120.16639184951782	
16	103.80700874328613	movie	1		266	14.0	2.5	/experiments/knapen_AOT/AOT_stimuli/rescaled_final/1105_fw.mp4	0.0	120.99124217033386	2.492009162902832
16	104.58091044425964	pulse	1	t		14.0	2.5	/experiments/knapen_AOT/AOT_stimuli/rescaled_final/1105_fw.mp4	0.0	121.76514387130737	
16	106.18037390708923	pulse	1	t		14.0	2.5	/experiments/knapen_AOT/AOT_stimuli/rescaled_final/1105_fw.mp4	0.0	123.36460733413696	
16	106.29901790618896	fix_post	2		12	14.0	2.5	/experiments/knapen_AOT/AOT_stimuli/rescaled_final/1105_fw.mp4	0.0	123.4832513332367	0.10001659393310547
17	106.39903450012207	fix_pre	0		120	15.0	2.5	/experiments/knapen_AOT/AOT_stimuli/rescaled_final/0537_rv.mp4	0.0	123.5832679271698	1.008533239364624
17	107.4075677394867	movie	1		273	15.0	2.5	/experiments/knapen_AOT/AOT_stimuli/rescaled_final/0537_rv.mp4	0.0	124.59180116653442	2.4922399520874023
17	107.78144955635071	pulse	1	t		15.0	2.5	/experiments/knapen_AOT/AOT_stimuli/rescaled_final/0537_rv.mp4	0.0	124.96568298339844	
17	109.38276267051697	pulse	1	t		15.0	2.5	/experiments/knapen_AOT/AOT_stimuli/rescaled_final/0537_rv.mp4	0.0	126.5669960975647	
17	109.8998076915741	fix_post	2		12	15.0	2.5	/experiments/knapen_AOT/AOT_stimuli/rescaled_final/0537_rv.mp4	0.0	127.08404111862183	0.09976887702941895
18	109.99957656860352	fix_pre	0		119	16.0	2.5	/experiments/knapen_AOT/AOT_stimuli/rescaled_final/0526_fw.mp4	0.0	127.18380999565125	1.0001890659332275
18	110.9833345413208	pulse	0	t		16.0	2.5	/experiments/knapen_AOT/AOT_stimuli/rescaled_final/0526_fw.mp4	0.0	128.16756796836853	
18	110.99976563453674	movie	1		271	16.0	2.5	/experiments/knapen_AOT/AOT_stimuli/rescaled_final/0526_fw.mp4	0.0	128.18399906158447	2.5088329315185547
18	112.58252358436584	pulse	1	t		16.0	2.5	/experiments/knapen_AOT/AOT_stimuli/rescaled_final/0526_fw.mp4	0.0	129.76675701141357	
18	113.5085985660553	fix_post	2		11	16.0	2.5	/experiments/knapen_AOT/AOT_stimuli/rescaled_final/0526_fw.mp4	0.0	130.69283199310303	0.09154844284057617
19	113.60014700889587	fix_pre	0		120	17.0	2.5	/experiments/knapen_AOT/AOT_stimuli/rescaled_final/0179_fw.mp4	0.0	130.7843804359436	1.0084714889526367
19	114.18379735946655	pulse	0	t		17.0	2.5	/experiments/knapen_AOT/AOT_stimuli/rescaled_final/0179_fw.mp4	0.0	131.36803078651428	
19	114.60861849784851	movie	1		271	17.0	2.5	/experiments/knapen_AOT/AOT_stimuli/rescaled_final/0179_fw.mp4	0.0	131.79285192489624	2.4921021461486816
19	115.78193354606628	pulse	1	t		17.0	2.5	/experiments/knapen_AOT/AOT_stimuli/rescaled_final/0179_fw.mp4	0.0	132.966166973114	
19	117.10072064399719	fix_post	2		12	17.0	2.5	/experiments/knapen_AOT/AOT_stimuli/rescaled_final/0179_fw.mp4	0.0	134.28495407104492	0.09996438026428223
20	117.20068502426147	fix_pre	0		120	18.0	2.5	/experiments/knapen_AOT/AOT_stimuli/rescaled_final/0238_rv.mp4	0.0	134.3849184513092	1.0084919929504395
20	117.38437056541443	pulse	0	t		18.0	2.5	/experiments/knapen_AOT/AOT_stimuli/rescaled_final/0238_rv.mp4	0.0	134.56860399246216	
20	118.20917701721191	movie	1		279	18.0	2.5	/experiments/knapen_AOT/AOT_stimuli/rescaled_final/0238_rv.mp4	0.0	135.39341044425964	2.492013931274414
20	118.98279237747192	pulse	1	t		18.0	2.5	/experiments/knapen_AOT/AOT_stimuli/rescaled_final/0238_rv.mp4	0.0	136.16702580451965	
20	120.58269810676575	pulse	1	t		18.0	2.5	/experiments/knapen_AOT/AOT_stimuli/rescaled_final/0238_rv.mp4	0.0	137.76693153381348	
20	120.70119094848633	fix_post	2		12	18.0	2.5	/experiments/knapen_AOT/AOT_stimuli/rescaled_final/0238_rv.mp4	0.0	137.88542437553406	0.10016727447509766
21	120.80135822296143	fix_pre	0		120	19.0	2.5	/experiments/knapen_AOT/AOT_stimuli/rescaled_final/0971_fw.mp4	0.0	137.98559165000916	1.0083272457122803
21	121.8096854686737	movie	1		267	19.0	2.5	/experiments/knapen_AOT/AOT_stimuli/rescaled_final/0971_fw.mp4	0.0	138.99391889572144	2.492135524749756
21	122.18555569648743	pulse	1	t		19.0	2.5	/experiments/knapen_AOT/AOT_stimuli/rescaled_final/0971_fw.mp4	0.0	139.36978912353516	
21	123.7834198474884	pulse	1	t		19.0	2.5	/experiments/knapen_AOT/AOT_stimuli/rescaled_final/0971_fw.mp4	0.0	140.96765327453613	
21	124.30182099342346	fix_post	2		12	19.0	2.5	/experiments/knapen_AOT/AOT_stimuli/rescaled_final/0971_fw.mp4	0.0	141.4860544204712	0.10000157356262207
22	124.40182256698608	fix_pre	0		119	20.0	2.5	/experiments/knapen_AOT/AOT_stimuli/rescaled_final/1524_rv.mp4	0.0	141.5860559940338	1.0002188682556152
22	125.3854513168335	pulse	0	t		20.0	2.5	/experiments/knapen_AOT/AOT_stimuli/rescaled_final/1524_rv.mp4	0.0	142.56968474388123	
22	125.4020414352417	movie	1		278	20.0	2.5	/experiments/knapen_AOT/AOT_stimuli/rescaled_final/1524_rv.mp4	0.0	142.58627486228943	2.500319004058838
22	126.98432302474976	pulse	1	t		20.0	2.5	/experiments/knapen_AOT/AOT_stimuli/rescaled_final/1524_rv.mp4	0.0	144.16855645179749	
22	127.90236043930054	fix_post	2		12	20.0	2.5	/experiments/knapen_AOT/AOT_stimuli/rescaled_final/1524_rv.mp4	0.0	145.08659386634827	0.09997987747192383
23	128.00234031677246	fix_pre	0		120	21.0	2.5	blank	1.0	145.1865737438202	1.0001096725463867
23	128.57798027992249	pulse	0	t		21.0	2.5	blank	1.0	145.76221370697021	
23	129.00244998931885	movie	1		300	21.0	2.5	blank	1.0	146.18668341636658	2.500455141067505
23	130.17797565460205	pulse	1	t		21.0	2.5	blank	1.0	147.36220908164978	
23	131.50290513038635	fix_post	2		12	21.0	2.5	blank	1.0	148.68713855743408	0.09994959831237793
24	131.60285472869873	fix_pre	0		120	22.0	2.5	/experiments/knapen_AOT/AOT_stimuli/rescaled_final/0822_rv.mp4	0.0	148.78708815574646	1.0084996223449707
24	131.7782199382782	pulse	0	t		22.0	2.5	/experiments/knapen_AOT/AOT_stimuli/rescaled_final/0822_rv.mp4	0.0	148.96245336532593	
24	132.6113543510437	movie	1		261	22.0	2.5	/experiments/knapen_AOT/AOT_stimuli/rescaled_final/0822_rv.mp4	0.0	149.79558777809143	2.4920144081115723
24	133.37833189964294	pulse	1	t		22.0	2.5	/experiments/knapen_AOT/AOT_stimuli/rescaled_final/0822_rv.mp4	0.0	150.56256532669067	
24	134.9785556793213	pulse	1	t		22.0	2.5	/experiments/knapen_AOT/AOT_stimuli/rescaled_final/0822_rv.mp4	0.0	152.16278910636902	
24	135.10336875915527	fix_post	2		12	22.0	2.5	/experiments/knapen_AOT/AOT_stimuli/rescaled_final/0822_rv.mp4	0.0	152.287602186203	0.10012602806091309
25	135.2034947872162	fix_pre	0		120	23.0	2.5	/experiments/knapen_AOT/AOT_stimuli/rescaled_final/2013_fw.mp4	0.0	152.38772821426392	1.0084011554718018
25	136.211895942688	movie	1		266	23.0	2.5	/experiments/knapen_AOT/AOT_stimuli/rescaled_final/2013_fw.mp4	0.0	153.39612936973572	2.4920623302459717
25	136.57879400253296	pulse	1	t		23.0	2.5	/experiments/knapen_AOT/AOT_stimuli/rescaled_final/2013_fw.mp4	0.0	153.7630274295807	
25	138.17814779281616	pulse	1	t		23.0	2.5	/experiments/knapen_AOT/AOT_stimuli/rescaled_final/2013_fw.mp4	0.0	155.3623812198639	
25	138.70395827293396	fix_post	2		12	23.0	2.5	/experiments/knapen_AOT/AOT_stimuli/rescaled_final/2013_fw.mp4	0.0	155.8881916999817	0.10005474090576172
26	138.80401301383972	fix_pre	0		118	24.0	2.5	/experiments/knapen_AOT/AOT_stimuli/rescaled_final/0768_rv.mp4	0.0	155.98824644088745	0.991736888885498
26	139.7793002128601	pulse	0	t		24.0	2.5	/experiments/knapen_AOT/AOT_stimuli/rescaled_final/0768_rv.mp4	0.0	156.96353363990784	
26	139.79574990272522	movie	1		278	24.0	2.5	/experiments/knapen_AOT/AOT_stimuli/rescaled_final/0768_rv.mp4	0.0	156.97998332977295	2.500340461730957
26	141.3795518875122	pulse	1	t		24.0	2.5	/experiments/knapen_AOT/AOT_stimuli/rescaled_final/0768_rv.mp4	0.0	158.56378531455994	
26	142.29609036445618	fix_post	2		12	24.0	2.5	/experiments/knapen_AOT/AOT_stimuli/rescaled_final/0768_rv.mp4	0.0	159.4803237915039	0.10002589225769043
27	142.39611625671387	fix_pre	0		120	25.0	2.5	/experiments/knapen_AOT/AOT_stimuli/rescaled_final/0718_fw.mp4	0.0	159.5803496837616	1.0085639953613281
27	142.97978448867798	pulse	0	t		25.0	2.5	/experiments/knapen_AOT/AOT_stimuli/rescaled_final/0718_fw.mp4	0.0	160.1640179157257	
27	143.4046802520752	movie	1		273	25.0	2.5	/experiments/knapen_AOT/AOT_stimuli/rescaled_final/0718_fw.mp4	0.0	160.58891367912292	2.492001533508301
27	144.5784296989441	pulse	1	t		25.0	2.5	/experiments/knapen_AOT/AOT_stimuli/rescaled_final/0718_fw.mp4	0.0	161.76266312599182	
27	145.8966817855835	fix_post	2		12	25.0	2.5	/experiments/knapen_AOT/AOT_stimuli/rescaled_final/0718_fw.mp4	0.0	163.08091521263123	0.10001730918884277
28	145.99669909477234	fix_pre	0		120	26.0	2.5	blank	1.0	163.18093252182007	1.0001163482666016
28	146.18041038513184	pulse	0	t		26.0	2.5	blank	1.0	163.36464381217957	
28	146.99681544303894	movie	1		300	26.0	2.5	blank	1.0	164.18104887008667	2.5004043579101562
28	147.78055000305176	pulse	1	t		26.0	2.5	blank	1.0	164.9647834300995	
28	149.3808228969574	pulse	1	t		26.0	2.5	blank	1.0	166.56505632400513	
28	149.4972198009491	fix_post	2		12	26.0	2.5	blank	1.0	166.68145322799683	0.10004782676696777
29	149.59726762771606	fix_pre	0		120	27.0	2.5	/experiments/knapen_AOT/AOT_stimuli/rescaled_final/1808_rv.mp4	0.0	166.7815010547638	1.0084731578826904
29	150.60574078559875	movie	1		279	27.0	2.5	/experiments/knapen_AOT/AOT_stimuli/rescaled_final/1808_rv.mp4	0.0	167.78997421264648	2.492004632949829
29	150.97974228858948	pulse	1	t		27.0	2.5	/experiments/knapen_AOT/AOT_stimuli/rescaled_final/1808_rv.mp4	0.0	168.1639757156372	
29	152.57889199256897	pulse	1	t		27.0	2.5	/experiments/knapen_AOT/AOT_stimuli/rescaled_final/1808_rv.mp4	0.0	169.7631254196167	
29	153.09774541854858	fix_post	2		12	27.0	2.5	/experiments/knapen_AOT/AOT_stimuli/rescaled_final/1808_rv.mp4	0.0	170.2819788455963	0.10001707077026367
30	153.19776248931885	fix_pre	0		119	28.0	2.5	/experiments/knapen_AOT/AOT_stimuli/rescaled_final/1918_fw.mp4	0.0	170.38199591636658	1.0001745223999023
30	154.18145298957825	pulse	0	t		28.0	2.5	/experiments/knapen_AOT/AOT_stimuli/rescaled_final/1918_fw.mp4	0.0	171.36568641662598	
30	154.19793701171875	movie	1		273	28.0	2.5	/experiments/knapen_AOT/AOT_stimuli/rescaled_final/1918_fw.mp4	0.0	171.38217043876648	2.5003881454467773
30	155.78095531463623	pulse	1	t		28.0	2.5	/experiments/knapen_AOT/AOT_stimuli/rescaled_final/1918_fw.mp4	0.0	172.96518874168396	
30	156.69832515716553	fix_post	2		12	28.0	2.5	/experiments/knapen_AOT/AOT_stimuli/rescaled_final/1918_fw.mp4	0.0	173.88255858421326	0.10000205039978027
31	156.7983272075653	fix_pre	0		120	29.0	2.5	/experiments/knapen_AOT/AOT_stimuli/rescaled_final/0537_rv.mp4	0.0	173.98256063461304	1.0085396766662598
31	157.38201379776	pulse	0	t		29.0	2.5	/experiments/knapen_AOT/AOT_stimuli/rescaled_final/0537_rv.mp4	0.0	174.56624722480774	
31	157.80686688423157	movie	1		287	29.0	2.5	/experiments/knapen_AOT/AOT_stimuli/rescaled_final/0537_rv.mp4	0.0	174.9911003112793	2.4919679164886475
31	158.98096895217896	pulse	1	t		29.0	2.5	/experiments/knapen_AOT/AOT_stimuli/rescaled_final/0537_rv.mp4	0.0	176.16520237922668	
31	160.29883480072021	fix_post	2		12	29.0	2.5	/experiments/knapen_AOT/AOT_stimuli/rescaled_final/0537_rv.mp4	0.0	177.48306822776794	0.1000204086303711
32	160.3988552093506	fix_pre	0		120	30.0	2.5	/experiments/knapen_AOT/AOT_stimuli/rescaled_final/0748_fw.mp4	0.0	177.58308863639832	1.0085234642028809
32	160.5824954509735	pulse	0	t		30.0	2.5	/experiments/knapen_AOT/AOT_stimuli/rescaled_final/0748_fw.mp4	0.0	177.76672887802124	
32	161.40737867355347	movie	1		288	30.0	2.5	/experiments/knapen_AOT/AOT_stimuli/rescaled_final/0748_fw.mp4	0.0	178.5916121006012	2.4920313358306885
32	162.1803858280182	pulse	1	t		30.0	2.5	/experiments/knapen_AOT/AOT_stimuli/rescaled_final/0748_fw.mp4	0.0	179.36461925506592	
32	163.78125071525574	pulse	1	t		30.0	2.5	/experiments/knapen_AOT/AOT_stimuli/rescaled_final/0748_fw.mp4	0.0	180.96548414230347	
32	163.89941000938416	fix_post	2		12	30.0	2.5	/experiments/knapen_AOT/AOT_stimuli/rescaled_final/0748_fw.mp4	0.0	181.08364343643188	0.09999322891235352
33	163.9994032382965	fix_pre	0		120	31.0	2.5	/experiments/knapen_AOT/AOT_stimuli/rescaled_final/1999_rv.mp4	0.0	181.18363666534424	1.0085184574127197
33	165.00792169570923	movie	1		284	31.0	2.5	/experiments/knapen_AOT/AOT_stimuli/rescaled_final/1999_rv.mp4	0.0	182.19215512275696	2.492006778717041
33	165.38128876686096	pulse	1	t		31.0	2.5	/experiments/knapen_AOT/AOT_stimuli/rescaled_final/1999_rv.mp4	0.0	182.5655221939087	
33	166.98348808288574	pulse	1	t		31.0	2.5	/experiments/knapen_AOT/AOT_stimuli/rescaled_final/1999_rv.mp4	0.0	184.16772150993347	
33	167.49992847442627	fix_post	2		12	31.0	2.5	/experiments/knapen_AOT/AOT_stimuli/rescaled_final/1999_rv.mp4	0.0	184.684161901474	0.10005021095275879
34	167.59997868537903	fix_pre	0		119	32.0	2.5	/experiments/knapen_AOT/AOT_stimuli/rescaled_final/0391_fw.mp4	0.0	184.78421211242676	1.000126600265503
34	168.58357691764832	pulse	0	t		32.0	2.5	/experiments/knapen_AOT/AOT_stimuli/rescaled_final/0391_fw.mp4	0.0	185.76781034469604	
34	168.60010528564453	movie	1		270	32.0	2.5	/experiments/knapen_AOT/AOT_stimuli/rescaled_final/0391_fw.mp4	0.0	185.78433871269226	2.500370740890503
34	170.18271493911743	pulse	1	t		32.0	2.5	/experiments/knapen_AOT/AOT_stimuli/rescaled_final/0391_fw.mp4	0.0	187.36694836616516	
34	171.10047602653503	fix_post	2		12	32.0	2.5	/experiments/knapen_AOT/AOT_stimuli/rescaled_final/0391_fw.mp4	0.0	188.28470945358276	0.10010695457458496
35	171.20058298110962	fix_pre	0		120	33.0	2.5	/experiments/knapen_AOT/AOT_stimuli/rescaled_final/0064_rv.mp4	0.0	188.38481640815735	1.0084338188171387
35	171.78416109085083	pulse	0	t		33.0	2.5	/experiments/knapen_AOT/AOT_stimuli/rescaled_final/0064_rv.mp4	0.0	188.96839451789856	
35	172.20901679992676	movie	1		280	33.0	2.5	/experiments/knapen_AOT/AOT_stimuli/rescaled_final/0064_rv.mp4	0.0	189.3932502269745	2.4920332431793213
35	173.38415813446045	pulse	1	t		33.0	2.5	/experiments/knapen_AOT/AOT_stimuli/rescaled_final/0064_rv.mp4	0.0	190.56839156150818	
35	174.70105004310608	fix_post	2		12	33.0	2.5	/experiments/knapen_AOT/AOT_stimuli/rescaled_final/0064_rv.mp4	0.0	191.8852834701538	0.10006093978881836
36	174.8011109828949	fix_pre	0		120	34.0	2.5	blank	1.0	191.98534440994263	1.00010085105896
36	174.98466300964355	pulse	0	t		34.0	2.5	blank	1.0	192.16889643669128	
36	175.80121183395386	movie	1		300	34.0	2.5	blank	1.0	192.9854452610016	2.5003602504730225
36	176.58482956886292	pulse	1	t		34.0	2.5	blank	1.0	193.76906299591064	
36	178.18506693840027	pulse	1	t		34.0	2.5	blank	1.0	195.369300365448	
36	178.30157208442688	fix_post	2		12	34.0	2.5	blank	1.0	195.4858055114746	0.10007429122924805
37	178.40164637565613	fix_pre	0		120	35.0	2.5	/experiments/knapen_AOT/AOT_stimuli/rescaled_final/1013_fw.mp4	0.0	195.58587980270386	1.0084774494171143
37	179.41012382507324	movie	1		270	35.0	2.5	/experiments/knapen_AOT/AOT_stimuli/rescaled_final/1013_fw.mp4	0.0	196.59435725212097	2.491969585418701
37	179.7852807044983	pulse	1	t		35.0	2.5	/experiments/knapen_AOT/AOT_stimuli/rescaled_final/1013_fw.mp4	0.0	196.96951413154602	
37	181.37738943099976	pulse	1	t		35.0	2.5	/experiments/knapen_AOT/AOT_stimuli/rescaled_final/1013_fw.mp4	0.0	198.56162285804749	
37	181.90209341049194	fix_post	2		12	35.0	2.5	/experiments/knapen_AOT/AOT_stimuli/rescaled_final/1013_fw.mp4	0.0	199.08632683753967	0.10003662109375
38	182.0021300315857	fix_pre	0		118	36.0	2.5	/experiments/knapen_AOT/AOT_stimuli/rescaled_final/0312_rv.mp4	0.0	199.18636345863342	0.9918620586395264
38	182.97762441635132	pulse	0	t		36.0	2.5	/experiments/knapen_AOT/AOT_stimuli/rescaled_final/0312_rv.mp4	0.0	200.16185784339905	
38	182.99399209022522	movie	1		277	36.0	2.5	/experiments/knapen_AOT/AOT_stimuli/rescaled_final/0312_rv.mp4	0.0	200.17822551727295	2.500364065170288
38	184.5777769088745	pulse	1	t		36.0	2.5	/experiments/knapen_AOT/AOT_stimuli/rescaled_final/0312_rv.mp4	0.0	201.76201033592224	
38	185.4943561553955	fix_post	2		12	36.0	2.5	/experiments/knapen_AOT/AOT_stimuli/rescaled_final/0312_rv.mp4	0.0	202.67858958244324	0.10007572174072266
39	185.59443187713623	fix_pre	0		120	37.0	2.5	/experiments/knapen_AOT/AOT_stimuli/rescaled_final/1673_rv.mp4	0.0	202.77866530418396	1.008413553237915
39	186.17800092697144	pulse	0	t		37.0	2.5	/experiments/knapen_AOT/AOT_stimuli/rescaled_final/1673_rv.mp4	0.0	203.36223435401917	
39	186.60284543037415	movie	1		286	37.0	2.5	/experiments/knapen_AOT/AOT_stimuli/rescaled_final/1673_rv.mp4	0.0	203.78707885742188	2.4920384883880615
39	187.7782187461853	pulse	1	t		37.0	2.5	/experiments/knapen_AOT/AOT_stimuli/rescaled_final/1673_rv.mp4	0.0	204.96245217323303	
39	189.0948839187622	fix_post	2		12	37.0	2.5	/experiments/knapen_AOT/AOT_stimuli/rescaled_final/1673_rv.mp4	0.0	206.27911734580994	0.10004472732543945
40	189.19492864608765	fix_pre	0		120	38.0	2.5	/experiments/knapen_AOT/AOT_stimuli/rescaled_final/0286_fw.mp4	0.0	206.37916207313538	1.0084950923919678
40	189.37851333618164	pulse	0	t		38.0	2.5	/experiments/knapen_AOT/AOT_stimuli/rescaled_final/0286_fw.mp4	0.0	206.56274676322937	
40	190.20342373847961	movie	1		267	38.0	2.5	/experiments/knapen_AOT/AOT_stimuli/rescaled_final/0286_fw.mp4	0.0	207.38765716552734	2.492002010345459
40	190.97870063781738	pulse	1	t		38.0	2.5	/experiments/knapen_AOT/AOT_stimuli/rescaled_final/0286_fw.mp4	0.0	208.1629340648651	
40	192.57865142822266	pulse	1	t		38.0	2.5	/experiments/knapen_AOT/AOT_stimuli/rescaled_final/0286_fw.mp4	0.0	209.76288485527039	
40	192.69542574882507	fix_post	2		12	38.0	2.5	/experiments/knapen_AOT/AOT_stimuli/rescaled_final/0286_fw.mp4	0.0	209.8796591758728	0.1000518798828125
41	192.79547762870789	fix_pre	0		120	39.0	2.5	/experiments/knapen_AOT/AOT_stimuli/rescaled_final/0074_rv.mp4	0.0	209.97971105575562	1.00844407081604
41	193.80392169952393	movie	1		275	39.0	2.5	/experiments/knapen_AOT/AOT_stimuli/rescaled_final/0074_rv.mp4	0.0	210.98815512657166	2.492069959640503
41	194.1780571937561	pulse	1	t		39.0	2.5	/experiments/knapen_AOT/AOT_stimuli/rescaled_final/0074_rv.mp4	0.0	211.36229062080383	
41	195.77762460708618	pulse	1	t		39.0	2.5	/experiments/knapen_AOT/AOT_stimuli/rescaled_final/0074_rv.mp4	0.0	212.9618580341339	
41	196.29599165916443	fix_post	2		12	39.0	2.5	/experiments/knapen_AOT/AOT_stimuli/rescaled_final/0074_rv.mp4	0.0	213.48022508621216	0.09999227523803711
42	196.39598393440247	fix_pre	0		119	40.0	2.5	/experiments/knapen_AOT/AOT_stimuli/rescaled_final/1689_fw.mp4	0.0	213.5802173614502	1.0001718997955322
42	197.37971949577332	pulse	0	t		40.0	2.5	/experiments/knapen_AOT/AOT_stimuli/rescaled_final/1689_fw.mp4	0.0	214.56395292282104	
42	197.396155834198	movie	1		282	40.0	2.5	/experiments/knapen_AOT/AOT_stimuli/rescaled_final/1689_fw.mp4	0.0	214.58038926124573	2.5003652572631836
42	198.97809505462646	pulse	1	t		40.0	2.5	/experiments/knapen_AOT/AOT_stimuli/rescaled_final/1689_fw.mp4	0.0	216.1623284816742	
42	199.89652109146118	fix_post	2		12	40.0	2.5	/experiments/knapen_AOT/AOT_stimuli/rescaled_final/1689_fw.mp4	0.0	217.0807545185089	0.10000181198120117
43	199.99652290344238	fix_pre	0		120	41.0	2.5	/experiments/knapen_AOT/AOT_stimuli/rescaled_final/0971_fw.mp4	0.0	217.1807563304901	1.0084869861602783
43	200.58019399642944	pulse	0	t		41.0	2.5	/experiments/knapen_AOT/AOT_stimuli/rescaled_final/0971_fw.mp4	0.0	217.76442742347717	
43	201.00500988960266	movie	1		257	41.0	2.5	/experiments/knapen_AOT/AOT_stimuli/rescaled_final/0971_fw.mp4	0.0	218.1892433166504	2.492067575454712
43	202.17856550216675	pulse	1	t		41.0	2.5	/experiments/knapen_AOT/AOT_stimuli/rescaled_final/0971_fw.mp4	0.0	219.36279892921448	
43	203.49707746505737	fix_post	2		12	41.0	2.5	/experiments/knapen_AOT/AOT_stimuli/rescaled_final/0971_fw.mp4	0.0	220.6813108921051	0.09997129440307617
44	203.59704875946045	fix_pre	0		120	42.0	2.5	blank	1.0	220.78128218650818	1.0001580715179443
44	203.7806260585785	pulse	0	t		42.0	2.5	blank	1.0	220.96485948562622	
44	204.5972068309784	movie	1		300	42.0	2.5	blank	1.0	221.78144025802612	2.500364303588867
44	205.38088512420654	pulse	1	t		42.0	2.5	blank	1.0	222.56511855125427	
44	206.9810769557953	pulse	1	t		42.0	2.5	blank	1.0	224.16531038284302	
44	207.09757113456726	fix_post	2		12	42.0	2.5	blank	1.0	224.281804561615	0.10003519058227539
45	207.19760632514954	fix_pre	0		120	43.0	2.5	/experiments/knapen_AOT/AOT_stimuli/rescaled_final/0675_fw.mp4	0.0	224.38183975219727	1.0085253715515137
45	208.20613169670105	movie	1		261	43.0	2.5	/experiments/knapen_AOT/AOT_stimuli/rescaled_final/0675_fw.mp4	0.0	225.39036512374878	2.492000102996826
45	208.58167099952698	pulse	1	t		43.0	2.5	/experiments/knapen_AOT/AOT_stimuli/rescaled_final/0675_fw.mp4	0.0	225.7659044265747	
45	210.18135952949524	pulse	1	t		43.0	2.5	/experiments/knapen_AOT/AOT_stimuli/rescaled_final/0675_fw.mp4	0.0	227.36559295654297	
45	210.69813179969788	fix_post	2		12	43.0	2.5	/experiments/knapen_AOT/AOT_stimuli/rescaled_final/0675_fw.mp4	0.0	227.8823652267456	0.10002827644348145
46	210.79816007614136	fix_pre	0		119	44.0	2.5	/experiments/knapen_AOT/AOT_stimuli/rescaled_final/1209_rv.mp4	0.0	227.9823935031891	1.000234842300415
46	211.7821319103241	pulse	0	t		44.0	2.5	/experiments/knapen_AOT/AOT_stimuli/rescaled_final/1209_rv.mp4	0.0	228.96636533737183	
46	211.79839491844177	movie	1		278	44.0	2.5	/experiments/knapen_AOT/AOT_stimuli/rescaled_final/1209_rv.mp4	0.0	228.9826283454895	2.5004239082336426
46	213.38174033164978	pulse	1	t		44.0	2.5	/experiments/knapen_AOT/AOT_stimuli/rescaled_final/1209_rv.mp4	0.0	230.5659737586975	
46	214.29881882667542	fix_post	2		12	44.0	2.5	/experiments/knapen_AOT/AOT_stimuli/rescaled_final/1209_rv.mp4	0.0	231.48305225372314	0.09987115859985352
47	214.39868998527527	fix_pre	0		120	45.0	2.5	/experiments/knapen_AOT/AOT_stimuli/rescaled_final/2013_rv.mp4	0.0	231.582923412323	1.0085208415985107
47	214.98236680030823	pulse	0	t		45.0	2.5	/experiments/knapen_AOT/AOT_stimuli/rescaled_final/2013_rv.mp4	0.0	232.16660022735596	
47	215.40721082687378	movie	1		269	45.0	2.5	/experiments/knapen_AOT/AOT_stimuli/rescaled_final/2013_rv.mp4	0.0	232.5914442539215	2.492044687271118
47	216.5810387134552	pulse	1	t		45.0	2.5	/experiments/knapen_AOT/AOT_stimuli/rescaled_final/2013_rv.mp4	0.0	233.76527214050293	
47	217.8992555141449	fix_post	2		12	45.0	2.5	/experiments/knapen_AOT/AOT_stimuli/rescaled_final/2013_rv.mp4	0.0	235.08348894119263	0.10000848770141602
48	217.9992640018463	fix_pre	0		120	46.0	2.5	/experiments/knapen_AOT/AOT_stimuli/rescaled_final/1975_fw.mp4	0.0	235.18349742889404	1.0084929466247559
48	218.18284153938293	pulse	0	t		46.0	2.5	/experiments/knapen_AOT/AOT_stimuli/rescaled_final/1975_fw.mp4	0.0	235.36707496643066	
48	219.00775694847107	movie	1		257	46.0	2.5	/experiments/knapen_AOT/AOT_stimuli/rescaled_final/1975_fw.mp4	0.0	236.1919903755188	2.492006540298462
48	219.78110909461975	pulse	1	t		46.0	2.5	/experiments/knapen_AOT/AOT_stimuli/rescaled_final/1975_fw.mp4	0.0	236.96534252166748	
48	221.3813533782959	pulse	1	t		46.0	2.5	/experiments/knapen_AOT/AOT_stimuli/rescaled_final/1975_fw.mp4	0.0	238.56558680534363	
48	221.49976348876953	fix_post	2		12	46.0	2.5	/experiments/knapen_AOT/AOT_stimuli/rescaled_final/1975_fw.mp4	0.0	238.68399691581726	0.10006356239318848
49	221.59982705116272	fix_pre	0		120	47.0	2.5	blank	1.0	238.78406047821045	1.0000910758972168
49	222.59991812705994	movie	1		300	47.0	2.5	blank	1.0	239.78415155410767	2.500386953353882
49	222.98358726501465	pulse	1	t		47.0	2.5	blank	1.0	240.16782069206238	
49	224.58380103111267	pulse	1	t		47.0	2.5	blank	1.0	241.7680344581604	
49	225.10030508041382	fix_post	2		12	47.0	2.5	blank	1.0	242.28453850746155	0.10003519058227539
50	225.2003402709961	fix_pre	0		119	48.0	2.5	/experiments/knapen_AOT/AOT_stimuli/rescaled_final/1828_fw.mp4	0.0	242.38457369804382	1.0001561641693115
50	226.18399214744568	pulse	0	t		48.0	2.5	/experiments/knapen_AOT/AOT_stimuli/rescaled_final/1828_fw.mp4	0.0	243.3682255744934	
50	226.2004964351654	movie	1		282	48.0	2.5	/experiments/knapen_AOT/AOT_stimuli/rescaled_final/1828_fw.mp4	0.0	243.38472986221313	2.5003464221954346
50	227.78259110450745	pulse	1	t		48.0	2.5	/experiments/knapen_AOT/AOT_stimuli/rescaled_final/1828_fw.mp4	0.0	244.96682453155518	
50	228.70084285736084	fix_post	2		12	48.0	2.5	/experiments/knapen_AOT/AOT_stimuli/rescaled_final/1828_fw.mp4	0.0	245.88507628440857	0.10004329681396484
51	228.8008861541748	fix_pre	0		120	49.0	2.5	/experiments/knapen_AOT/AOT_stimuli/rescaled_final/0291_fw.mp4	0.0	245.98511958122253	1.0084764957427979
51	229.38466835021973	pulse	0	t		49.0	2.5	/experiments/knapen_AOT/AOT_stimuli/rescaled_final/0291_fw.mp4	0.0	246.56890177726746	
51	229.8093626499176	movie	1		278	49.0	2.5	/experiments/knapen_AOT/AOT_stimuli/rescaled_final/0291_fw.mp4	0.0	246.99359607696533	2.492051839828491
51	230.98319911956787	pulse	1	t		49.0	2.5	/experiments/knapen_AOT/AOT_stimuli/rescaled_final/0291_fw.mp4	0.0	248.1674325466156	
51	232.3014144897461	fix_post	2		12	49.0	2.5	/experiments/knapen_AOT/AOT_stimuli/rescaled_final/0291_fw.mp4	0.0	249.48564791679382	0.10000061988830566
52	232.4014151096344	fix_pre	0		120	50.0	2.5	/experiments/knapen_AOT/AOT_stimuli/rescaled_final/0982_rv.mp4	0.0	249.58564853668213	1.0085091590881348
52	232.58503580093384	pulse	0	t		50.0	2.5	/experiments/knapen_AOT/AOT_stimuli/rescaled_final/0982_rv.mp4	0.0	249.76926922798157	
52	233.40992426872253	movie	1		290	50.0	2.5	/experiments/knapen_AOT/AOT_stimuli/rescaled_final/0982_rv.mp4	0.0	250.59415769577026	2.492020845413208
52	234.18299627304077	pulse	1	t		50.0	2.5	/experiments/knapen_AOT/AOT_stimuli/rescaled_final/0982_rv.mp4	0.0	251.3672297000885	
52	235.78342866897583	pulse	1	t		50.0	2.5	/experiments/knapen_AOT/AOT_stimuli/rescaled_final/0982_rv.mp4	0.0	252.96766209602356	
52	235.90194511413574	fix_post	2		12	50.0	2.5	/experiments/knapen_AOT/AOT_stimuli/rescaled_final/0982_rv.mp4	0.0	253.08617854118347	0.10003232955932617
53	236.00197744369507	fix_pre	0		120	51.0	2.5	/experiments/knapen_AOT/AOT_stimuli/rescaled_final/0341_rv.mp4	0.0	253.1862108707428	1.0085103511810303
53	237.0104877948761	movie	1		280	51.0	2.5	/experiments/knapen_AOT/AOT_stimuli/rescaled_final/0341_rv.mp4	0.0	254.19472122192383	2.492009401321411
53	237.38414430618286	pulse	1	t		51.0	2.5	/experiments/knapen_AOT/AOT_stimuli/rescaled_final/0341_rv.mp4	0.0	254.5683777332306	
53	238.97788095474243	pulse	1	t		51.0	2.5	/experiments/knapen_AOT/AOT_stimuli/rescaled_final/0341_rv.mp4	0.0	256.16211438179016	
53	239.5024971961975	fix_post	2		12	51.0	2.5	/experiments/knapen_AOT/AOT_stimuli/rescaled_final/0341_rv.mp4	0.0	256.68673062324524	0.10001134872436523
54	239.60250854492188	fix_pre	0		118	52.0	2.5	/experiments/knapen_AOT/AOT_stimuli/rescaled_final/0602_fw.mp4	0.0	256.7867419719696	1.0002193450927734
54	240.57823514938354	pulse	0	t		52.0	2.5	/experiments/knapen_AOT/AOT_stimuli/rescaled_final/0602_fw.mp4	0.0	257.7624685764313	
54	240.60272789001465	movie	1		273	52.0	2.5	/experiments/knapen_AOT/AOT_stimuli/rescaled_final/0602_fw.mp4	0.0	257.7869613170624	2.492082357406616
54	242.17818593978882	pulse	1	t		52.0	2.5	/experiments/knapen_AOT/AOT_stimuli/rescaled_final/0602_fw.mp4	0.0	259.36241936683655	
54	243.09481024742126	fix_post	2		12	52.0	2.5	/experiments/knapen_AOT/AOT_stimuli/rescaled_final/0602_fw.mp4	0.0	260.279043674469	0.09991216659545898
55	243.19472241401672	fix_pre	0		120	53.0	2.5	/experiments/knapen_AOT/AOT_stimuli/rescaled_final/0753_fw.mp4	0.0	260.37895584106445	1.0085279941558838
55	243.7784125804901	pulse	0	t		53.0	2.5	/experiments/knapen_AOT/AOT_stimuli/rescaled_final/0753_fw.mp4	0.0	260.96264600753784	
55	244.2032504081726	movie	1		273	53.0	2.5	/experiments/knapen_AOT/AOT_stimuli/rescaled_final/0753_fw.mp4	0.0	261.38748383522034	2.4920654296875
55	245.37848711013794	pulse	1	t		53.0	2.5	/experiments/knapen_AOT/AOT_stimuli/rescaled_final/0753_fw.mp4	0.0	262.56272053718567	
55	246.6953158378601	fix_post	2		12	53.0	2.5	/experiments/knapen_AOT/AOT_stimuli/rescaled_final/0753_fw.mp4	0.0	263.87954926490784	0.0999755859375
56	246.7952914237976	fix_pre	0		120	54.0	2.5	blank	1.0	263.97952485084534	1.0001211166381836
56	246.97891116142273	pulse	0	t		54.0	2.5	blank	1.0	264.16314458847046	
56	247.7954125404358	movie	1		300	54.0	2.5	blank	1.0	264.9796459674835	2.500375270843506
56	248.57913827896118	pulse	1	t		54.0	2.5	blank	1.0	265.7633717060089	
56	250.17933821678162	pulse	1	t		54.0	2.5	blank	1.0	267.36357164382935	
56	250.2957878112793	fix_post	2		12	54.0	2.5	blank	1.0	267.480021238327	0.10001087188720703
57	250.3957986831665	fix_pre	0		120	55.0	2.5	/experiments/knapen_AOT/AOT_stimuli/rescaled_final/1129_rv.mp4	0.0	267.58003211021423	1.0084857940673828
57	251.4042844772339	movie	1		286	55.0	2.5	/experiments/knapen_AOT/AOT_stimuli/rescaled_final/1129_rv.mp4	0.0	268.5885179042816	2.4921038150787354
57	251.7795672416687	pulse	1	t		55.0	2.5	/experiments/knapen_AOT/AOT_stimuli/rescaled_final/1129_rv.mp4	0.0	268.96380066871643	
57	253.37979769706726	pulse	1	t		55.0	2.5	/experiments/knapen_AOT/AOT_stimuli/rescaled_final/1129_rv.mp4	0.0	270.564031124115	
57	253.89638829231262	fix_post	2		12	55.0	2.5	/experiments/knapen_AOT/AOT_stimuli/rescaled_final/1129_rv.mp4	0.0	271.08062171936035	0.09998106956481934
58	253.99636936187744	fix_pre	0		119	56.0	2.5	/experiments/knapen_AOT/AOT_stimuli/rescaled_final/0271_rv.mp4	0.0	271.18060278892517	1.000138282775879
58	254.9800159931183	pulse	0	t		56.0	2.5	/experiments/knapen_AOT/AOT_stimuli/rescaled_final/0271_rv.mp4	0.0	272.164249420166	
58	254.99650764465332	movie	1		275	56.0	2.5	/experiments/knapen_AOT/AOT_stimuli/rescaled_final/0271_rv.mp4	0.0	272.18074107170105	2.5004332065582275
58	256.57878971099854	pulse	1	t		56.0	2.5	/experiments/knapen_AOT/AOT_stimuli/rescaled_final/0271_rv.mp4	0.0	273.76302313804626	
58	257.49694085121155	fix_post	2		12	56.0	2.5	/experiments/knapen_AOT/AOT_stimuli/rescaled_final/0271_rv.mp4	0.0	274.6811742782593	0.09996318817138672
59	257.59690403938293	fix_pre	0		120	57.0	2.5	/experiments/knapen_AOT/AOT_stimuli/rescaled_final/1076_rv.mp4	0.0	274.78113746643066	1.008516550064087
59	258.18055844306946	pulse	0	t		57.0	2.5	/experiments/knapen_AOT/AOT_stimuli/rescaled_final/1076_rv.mp4	0.0	275.3647918701172	
59	258.605420589447	movie	1		281	57.0	2.5	/experiments/knapen_AOT/AOT_stimuli/rescaled_final/1076_rv.mp4	0.0	275.78965401649475	2.4920613765716553
59	259.77922677993774	pulse	1	t		57.0	2.5	/experiments/knapen_AOT/AOT_stimuli/rescaled_final/1076_rv.mp4	0.0	276.9634602069855	
59	261.0974819660187	fix_post	2		12	57.0	2.5	/experiments/knapen_AOT/AOT_stimuli/rescaled_final/1076_rv.mp4	0.0	278.2817153930664	0.09996676445007324
60	261.19744873046875	fix_pre	0		120	58.0	2.5	/experiments/knapen_AOT/AOT_stimuli/rescaled_final/1085_fw.mp4	0.0	278.3816821575165	1.0084865093231201
60	261.3811457157135	pulse	0	t		58.0	2.5	/experiments/knapen_AOT/AOT_stimuli/rescaled_final/1085_fw.mp4	0.0	278.56537914276123	
60	262.20593523979187	movie	1		280	58.0	2.5	/experiments/knapen_AOT/AOT_stimuli/rescaled_final/1085_fw.mp4	0.0	279.3901686668396	2.4920167922973633
60	262.9794490337372	pulse	1	t		58.0	2.5	/experiments/knapen_AOT/AOT_stimuli/rescaled_final/1085_fw.mp4	0.0	280.1636824607849	
60	264.5793287754059	pulse	1	t		58.0	2.5	/experiments/knapen_AOT/AOT_stimuli/rescaled_final/1085_fw.mp4	0.0	281.7635622024536	
60	264.69795203208923	fix_post	2		12	58.0	2.5	/experiments/knapen_AOT/AOT_stimuli/rescaled_final/1085_fw.mp4	0.0	281.88218545913696	0.10001921653747559
61	264.7979712486267	fix_pre	0		120	59.0	2.5	/experiments/knapen_AOT/AOT_stimuli/rescaled_final/1428_rv.mp4	0.0	281.98220467567444	1.0085268020629883
61	265.8064980506897	movie	1		280	59.0	2.5	/experiments/knapen_AOT/AOT_stimuli/rescaled_final/1428_rv.mp4	0.0	282.9907314777374	2.492009401321411
61	266.181387424469	pulse	1	t		59.0	2.5	/experiments/knapen_AOT/AOT_stimuli/rescaled_final/1428_rv.mp4	0.0	283.3656208515167	
61	267.78025126457214	pulse	1	t		59.0	2.5	/experiments/knapen_AOT/AOT_stimuli/rescaled_final/1428_rv.mp4	0.0	284.9644846916199	
61	268.2985074520111	fix_post	2		12	59.0	2.5	/experiments/knapen_AOT/AOT_stimuli/rescaled_final/1428_rv.mp4	0.0	285.48274087905884	0.10005664825439453
62	268.3985641002655	fix_pre	0		119	60.0	2.5	/experiments/knapen_AOT/AOT_stimuli/rescaled_final/2075_fw.mp4	0.0	285.58279752731323	1.0002450942993164
62	269.3823890686035	pulse	0	t		60.0	2.5	/experiments/knapen_AOT/AOT_stimuli/rescaled_final/2075_fw.mp4	0.0	286.56662249565125	
62	269.3988091945648	movie	1		293	60.0	2.5	/experiments/knapen_AOT/AOT_stimuli/rescaled_final/2075_fw.mp4	0.0	286.58304262161255	2.500239372253418
62	270.9806697368622	pulse	1	t		60.0	2.5	/experiments/knapen_AOT/AOT_stimuli/rescaled_final/2075_fw.mp4	0.0	288.1649031639099	
62	271.89904856681824	fix_post	2		12	60.0	2.5	/experiments/knapen_AOT/AOT_stimuli/rescaled_final/2075_fw.mp4	0.0	289.08328199386597	0.10003447532653809
63	271.9990830421448	fix_pre	0		120	61.0	2.5	/experiments/knapen_AOT/AOT_stimuli/rescaled_final/0744_fw.mp4	0.0	289.1833164691925	1.008476734161377
63	272.5826926231384	pulse	0	t		61.0	2.5	/experiments/knapen_AOT/AOT_stimuli/rescaled_final/0744_fw.mp4	0.0	289.76692605018616	
63	273.00755977630615	movie	1		279	61.0	2.5	/experiments/knapen_AOT/AOT_stimuli/rescaled_final/0744_fw.mp4	0.0	290.1917932033539	2.492027997970581
63	274.1830310821533	pulse	1	t		61.0	2.5	/experiments/knapen_AOT/AOT_stimuli/rescaled_final/0744_fw.mp4	0.0	291.36726450920105	
63	275.49958777427673	fix_post	2		12	61.0	2.5	/experiments/knapen_AOT/AOT_stimuli/rescaled_final/0744_fw.mp4	0.0	292.68382120132446	0.10002279281616211
64	275.5996105670929	fix_pre	0		120	62.0	2.5	blank	1.0	292.7838439941406	1.0001604557037354
64	275.78324007987976	pulse	0	t		62.0	2.5	blank	1.0	292.9674735069275	
64	276.59977102279663	movie	1		300	62.0	2.5	blank	1.0	293.78400444984436	2.500365972518921
64	277.38341093063354	pulse	1	t		62.0	2.5	blank	1.0	294.5676443576813	
64	278.9836919307709	pulse	1	t		62.0	2.5	blank	1.0	296.1679253578186	
64	279.10013699531555	fix_post	2		12	62.0	2.5	blank	1.0	296.2843704223633	0.10004806518554688
65	279.2001850605011	fix_pre	0		120	63.0	2.5	/experiments/knapen_AOT/AOT_stimuli/rescaled_final/1624_fw.mp4	0.0	296.3844184875488	1.0085022449493408
65	280.20868730545044	movie	1		265	63.0	2.5	/experiments/knapen_AOT/AOT_stimuli/rescaled_final/1624_fw.mp4	0.0	297.39292073249817	2.492002248764038
65	280.583637714386	pulse	1	t		63.0	2.5	/experiments/knapen_AOT/AOT_stimuli/rescaled_final/1624_fw.mp4	0.0	297.7678711414337	
65	282.18219566345215	pulse	1	t		63.0	2.5	/experiments/knapen_AOT/AOT_stimuli/rescaled_final/1624_fw.mp4	0.0	299.3664290904999	
65	282.7006895542145	fix_post	2		12	63.0	2.5	/experiments/knapen_AOT/AOT_stimuli/rescaled_final/1624_fw.mp4	0.0	299.8849229812622	0.10001039505004883
66	282.8006999492645	fix_pre	0		119	64.0	2.5	/experiments/knapen_AOT/AOT_stimuli/rescaled_final/0202_fw.mp4	0.0	299.98493337631226	1.000201940536499
66	283.78441548347473	pulse	0	t		64.0	2.5	/experiments/knapen_AOT/AOT_stimuli/rescaled_final/0202_fw.mp4	0.0	300.96864891052246	
66	283.800901889801	movie	1		273	64.0	2.5	/experiments/knapen_AOT/AOT_stimuli/rescaled_final/0202_fw.mp4	0.0	300.98513531684875	2.5003201961517334
66	285.38304710388184	pulse	1	t		64.0	2.5	/experiments/knapen_AOT/AOT_stimuli/rescaled_final/0202_fw.mp4	0.0	302.56728053092957	
66	286.30122208595276	fix_post	2		12	64.0	2.5	/experiments/knapen_AOT/AOT_stimuli/rescaled_final/0202_fw.mp4	0.0	303.4854555130005	0.10003352165222168
67	286.401255607605	fix_pre	0		120	65.0	2.5	/experiments/knapen_AOT/AOT_stimuli/rescaled_final/1272_fw.mp4	0.0	303.5854890346527	1.0084967613220215
67	286.98490476608276	pulse	0	t		65.0	2.5	/experiments/knapen_AOT/AOT_stimuli/rescaled_final/1272_fw.mp4	0.0	304.1691381931305	
67	287.409752368927	movie	1		281	65.0	2.5	/experiments/knapen_AOT/AOT_stimuli/rescaled_final/1272_fw.mp4	0.0	304.59398579597473	2.4920542240142822
67	288.58334517478943	pulse	1	t		65.0	2.5	/experiments/knapen_AOT/AOT_stimuli/rescaled_final/1272_fw.mp4	0.0	305.76757860183716	
67	289.9018065929413	fix_post	2		12	65.0	2.5	/experiments/knapen_AOT/AOT_stimuli/rescaled_final/1272_fw.mp4	0.0	307.086040019989	0.10006260871887207
68	290.00186920166016	fix_pre	0		120	66.0	2.5	/experiments/knapen_AOT/AOT_stimuli/rescaled_final/1659_fw.mp4	0.0	307.1861026287079	1.0084443092346191
68	290.1854956150055	pulse	0	t		66.0	2.5	/experiments/knapen_AOT/AOT_stimuli/rescaled_final/1659_fw.mp4	0.0	307.3697290420532	
68	291.0103135108948	movie	1		283	66.0	2.5	/experiments/knapen_AOT/AOT_stimuli/rescaled_final/1659_fw.mp4	0.0	308.1945469379425	2.492023229598999
68	291.78399538993835	pulse	1	t		66.0	2.5	/experiments/knapen_AOT/AOT_stimuli/rescaled_final/1659_fw.mp4	0.0	308.9682288169861	
68	293.3841164112091	pulse	1	t		66.0	2.5	/experiments/knapen_AOT/AOT_stimuli/rescaled_final/1659_fw.mp4	0.0	310.56834983825684	
68	293.5023367404938	fix_post	2		12	66.0	2.5	/experiments/knapen_AOT/AOT_stimuli/rescaled_final/1659_fw.mp4	0.0	310.6865701675415	0.09999394416809082
69	293.60233068466187	fix_pre	0		120	67.0	2.5	/experiments/knapen_AOT/AOT_stimuli/rescaled_final/1496_fw.mp4	0.0	310.7865641117096	1.0085148811340332
69	294.6108455657959	movie	1		276	67.0	2.5	/experiments/knapen_AOT/AOT_stimuli/rescaled_final/1496_fw.mp4	0.0	311.7950789928436	2.4920356273651123
69	294.9845600128174	pulse	1	t		67.0	2.5	/experiments/knapen_AOT/AOT_stimuli/rescaled_final/1496_fw.mp4	0.0	312.1687934398651	
69	296.57862091064453	pulse	1	t		67.0	2.5	/experiments/knapen_AOT/AOT_stimuli/rescaled_final/1496_fw.mp4	0.0	313.76285433769226	
69	297.102881193161	fix_post	2		12	67.0	2.5	/experiments/knapen_AOT/AOT_stimuli/rescaled_final/1496_fw.mp4	0.0	314.28711462020874	0.10002350807189941
70	297.2029047012329	fix_pre	0		118	68.0	2.5	blank	1.0	314.38713812828064	0.9835669994354248
70	298.17842411994934	pulse	0	t		68.0	2.5	blank	1.0	315.36265754699707	
70	298.18647170066833	movie	1		301	68.0	2.5	blank	1.0	315.37070512771606	2.5085999965667725
70	299.7784960269928	pulse	1	t		68.0	2.5	blank	1.0	316.9627294540405	
70	300.6950716972351	fix_post	2		12	68.0	2.5	blank	1.0	317.87930512428284	0.1000208854675293
71	300.79509258270264	fix_pre	0		120	69.0	2.5	/experiments/knapen_AOT/AOT_stimuli/rescaled_final/0024_fw.mp4	0.0	317.97932600975037	1.0084893703460693
71	301.37876415252686	pulse	0	t		69.0	2.5	/experiments/knapen_AOT/AOT_stimuli/rescaled_final/0024_fw.mp4	0.0	318.5629975795746	
71	301.8035819530487	movie	1		283	69.0	2.5	/experiments/knapen_AOT/AOT_stimuli/rescaled_final/0024_fw.mp4	0.0	318.98781538009644	2.4920506477355957
71	302.9790005683899	pulse	1	t		69.0	2.5	/experiments/knapen_AOT/AOT_stimuli/rescaled_final/0024_fw.mp4	0.0	320.1632339954376	
71	304.2956326007843	fix_post	2		12	69.0	2.5	/experiments/knapen_AOT/AOT_stimuli/rescaled_final/0024_fw.mp4	0.0	321.47986602783203	0.10003423690795898
72	304.39566683769226	fix_pre	0		120	70.0	2.5	/experiments/knapen_AOT/AOT_stimuli/rescaled_final/0258_fw.mp4	0.0	321.57990026474	1.0084669589996338
72	304.5792148113251	pulse	0	t		70.0	2.5	/experiments/knapen_AOT/AOT_stimuli/rescaled_final/0258_fw.mp4	0.0	321.7634482383728	
72	305.4041337966919	movie	1		286	70.0	2.5	/experiments/knapen_AOT/AOT_stimuli/rescaled_final/0258_fw.mp4	0.0	322.5883672237396	2.492018222808838
72	306.1797606945038	pulse	1	t		70.0	2.5	/experiments/knapen_AOT/AOT_stimuli/rescaled_final/0258_fw.mp4	0.0	323.3639941215515	
72	307.77965354919434	pulse	1	t		70.0	2.5	/experiments/knapen_AOT/AOT_stimuli/rescaled_final/0258_fw.mp4	0.0	324.96388697624207	
72	307.89615201950073	fix_post	2		12	70.0	2.5	/experiments/knapen_AOT/AOT_stimuli/rescaled_final/0258_fw.mp4	0.0	325.08038544654846	0.10007095336914062
73	307.9962229728699	fix_pre	0		120	71.0	2.5	/experiments/knapen_AOT/AOT_stimuli/rescaled_final/0506_rv.mp4	0.0	325.1804563999176	1.0084819793701172
73	309.00470495224	movie	1		268	71.0	2.5	/experiments/knapen_AOT/AOT_stimuli/rescaled_final/0506_rv.mp4	0.0	326.1889383792877	2.4919791221618652
73	309.380331993103	pulse	1	t		71.0	2.5	/experiments/knapen_AOT/AOT_stimuli/rescaled_final/0506_rv.mp4	0.0	326.56456542015076	
73	310.9804084300995	pulse	1	t		71.0	2.5	/experiments/knapen_AOT/AOT_stimuli/rescaled_final/0506_rv.mp4	0.0	328.1646418571472	
73	311.49668407440186	fix_post	2		12	71.0	2.5	/experiments/knapen_AOT/AOT_stimuli/rescaled_final/0506_rv.mp4	0.0	328.6809175014496	0.1000521183013916
74	311.59673619270325	fix_pre	0		119	72.0	2.5	/experiments/knapen_AOT/AOT_stimuli/rescaled_final/0822_fw.mp4	0.0	328.780969619751	1.0001957416534424
74	312.5806655883789	pulse	0	t		72.0	2.5	/experiments/knapen_AOT/AOT_stimuli/rescaled_final/0822_fw.mp4	0.0	329.76489901542664	
74	312.5969319343567	movie	1		275	72.0	2.5	/experiments/knapen_AOT/AOT_stimuli/rescaled_final/0822_fw.mp4	0.0	329.7811653614044	2.5003347396850586
74	314.1795995235443	pulse	1	t		72.0	2.5	/experiments/knapen_AOT/AOT_stimuli/rescaled_final/0822_fw.mp4	0.0	331.36383295059204	
74	315.09726667404175	fix_post	2		12	72.0	2.5	/experiments/knapen_AOT/AOT_stimuli/rescaled_final/0822_fw.mp4	0.0	332.2815001010895	0.10003924369812012
75	315.19730591773987	fix_pre	0		120	73.0	2.5	/experiments/knapen_AOT/AOT_stimuli/rescaled_final/1085_rv.mp4	0.0	332.3815393447876	1.008500337600708
75	315.7809011936188	pulse	0	t		73.0	2.5	/experiments/knapen_AOT/AOT_stimuli/rescaled_final/1085_rv.mp4	0.0	332.9651346206665	
75	316.2058062553406	movie	1		279	73.0	2.5	/experiments/knapen_AOT/AOT_stimuli/rescaled_final/1085_rv.mp4	0.0	333.3900396823883	2.4919991493225098
75	317.3795211315155	pulse	1	t		73.0	2.5	/experiments/knapen_AOT/AOT_stimuli/rescaled_final/1085_rv.mp4	0.0	334.56375455856323	
75	318.6978054046631	fix_post	2		12	73.0	2.5	/experiments/knapen_AOT/AOT_stimuli/rescaled_final/1085_rv.mp4	0.0	335.8820388317108	0.10001349449157715
76	318.79781889915466	fix_pre	0		120	74.0	2.5	/experiments/knapen_AOT/AOT_stimuli/rescaled_final/2177_rv.mp4	0.0	335.9820523262024	1.008535623550415
76	318.98138976097107	pulse	0	t		74.0	2.5	/experiments/knapen_AOT/AOT_stimuli/rescaled_final/2177_rv.mp4	0.0	336.1656231880188	
76	319.8063545227051	movie	1		268	74.0	2.5	/experiments/knapen_AOT/AOT_stimuli/rescaled_final/2177_rv.mp4	0.0	336.9905879497528	2.492011547088623
76	320.5798180103302	pulse	1	t		74.0	2.5	/experiments/knapen_AOT/AOT_stimuli/rescaled_final/2177_rv.mp4	0.0	337.76405143737793	
76	322.18003129959106	pulse	1	t		74.0	2.5	/experiments/knapen_AOT/AOT_stimuli/rescaled_final/2177_rv.mp4	0.0	339.3642647266388	
76	322.2983660697937	fix_post	2		12	74.0	2.5	/experiments/knapen_AOT/AOT_stimuli/rescaled_final/2177_rv.mp4	0.0	339.48259949684143	0.09995198249816895
77	322.39831805229187	fix_pre	0		120	75.0	2.5	/experiments/knapen_AOT/AOT_stimuli/rescaled_final/0181_rv.mp4	0.0	339.5825514793396	1.008634328842163
77	323.40695238113403	movie	1		269	75.0	2.5	/experiments/knapen_AOT/AOT_stimuli/rescaled_final/0181_rv.mp4	0.0	340.59118580818176	2.4919233322143555
77	323.78147649765015	pulse	1	t		75.0	2.5	/experiments/knapen_AOT/AOT_stimuli/rescaled_final/0181_rv.mp4	0.0	340.9657099246979	
77	325.3808171749115	pulse	1	t		75.0	2.5	/experiments/knapen_AOT/AOT_stimuli/rescaled_final/0181_rv.mp4	0.0	342.56505060195923	
77	325.8988757133484	fix_post	2		12	75.0	2.5	/experiments/knapen_AOT/AOT_stimuli/rescaled_final/0181_rv.mp4	0.0	343.0831091403961	0.10004997253417969
78	325.99892568588257	fix_pre	0		119	76.0	2.5	/experiments/knapen_AOT/AOT_stimuli/rescaled_final/0822_fw.mp4	0.0	343.1831591129303	1.0001370906829834
78	326.9825859069824	pulse	0	t		76.0	2.5	/experiments/knapen_AOT/AOT_stimuli/rescaled_final/0822_fw.mp4	0.0	344.16681933403015	
78	326.99906277656555	movie	1		274	76.0	2.5	/experiments/knapen_AOT/AOT_stimuli/rescaled_final/0822_fw.mp4	0.0	344.1832962036133	2.5003864765167236
78	328.58147740364075	pulse	1	t		76.0	2.5	/experiments/knapen_AOT/AOT_stimuli/rescaled_final/0822_fw.mp4	0.0	345.7657108306885	
78	329.4994492530823	fix_post	2		12	76.0	2.5	/experiments/knapen_AOT/AOT_stimuli/rescaled_final/0822_fw.mp4	0.0	346.68368268013	0.09997749328613281
79	329.5994267463684	fix_pre	0		120	77.0	2.5	blank	1.0	346.78366017341614	1.0001680850982666
79	330.1831524372101	pulse	0	t		77.0	2.5	blank	1.0	347.3673858642578	
79	330.5995948314667	movie	1		300	77.0	2.5	blank	1.0	347.7838282585144	2.500368595123291
79	331.7834665775299	pulse	1	t		77.0	2.5	blank	1.0	348.96770000457764	
79	333.09996342658997	fix_post	2		12	77.0	2.5	blank	1.0	350.2841968536377	0.10000753402709961
80	333.19997096061707	fix_pre	0		120	78.0	2.5	/experiments/knapen_AOT/AOT_stimuli/rescaled_final/0291_fw.mp4	0.0	350.3842043876648	1.0085327625274658
80	333.38380217552185	pulse	0	t		78.0	2.5	/experiments/knapen_AOT/AOT_stimuli/rescaled_final/0291_fw.mp4	0.0	350.5680356025696	
80	334.20850372314453	movie	1		277	78.0	2.5	/experiments/knapen_AOT/AOT_stimuli/rescaled_final/0291_fw.mp4	0.0	351.39273715019226	2.492266893386841
80	334.9818389415741	pulse	1	t		78.0	2.5	/experiments/knapen_AOT/AOT_stimuli/rescaled_final/0291_fw.mp4	0.0	352.1660723686218	
80	336.582524061203	pulse	1	t		78.0	2.5	/experiments/knapen_AOT/AOT_stimuli/rescaled_final/0291_fw.mp4	0.0	353.76675748825073	
80	336.7007706165314	fix_post	2		12	78.0	2.5	/experiments/knapen_AOT/AOT_stimuli/rescaled_final/0291_fw.mp4	0.0	353.8850040435791	0.0998077392578125
81	336.8005783557892	fix_pre	0		120	79.0	2.5	/experiments/knapen_AOT/AOT_stimuli/rescaled_final/0921_rv.mp4	0.0	353.9848117828369	1.008470058441162
81	337.80904841423035	movie	1		275	79.0	2.5	/experiments/knapen_AOT/AOT_stimuli/rescaled_final/0921_rv.mp4	0.0	354.9932818412781	2.492008924484253
81	338.183123588562	pulse	1	t		79.0	2.5	/experiments/knapen_AOT/AOT_stimuli/rescaled_final/0921_rv.mp4	0.0	355.36735701560974	
81	339.78288435935974	pulse	1	t		79.0	2.5	/experiments/knapen_AOT/AOT_stimuli/rescaled_final/0921_rv.mp4	0.0	356.96711778640747	
81	340.3010573387146	fix_post	2		12	79.0	2.5	/experiments/knapen_AOT/AOT_stimuli/rescaled_final/0921_rv.mp4	0.0	357.48529076576233	0.10001444816589355
82	340.4010717868805	fix_pre	0		119	80.0	2.5	/experiments/knapen_AOT/AOT_stimuli/rescaled_final/1186_rv.mp4	0.0	357.5853052139282	1.000145673751831
82	341.384788274765	pulse	0	t		80.0	2.5	/experiments/knapen_AOT/AOT_stimuli/rescaled_final/1186_rv.mp4	0.0	358.56902170181274	
82	341.4012174606323	movie	1		267	80.0	2.5	/experiments/knapen_AOT/AOT_stimuli/rescaled_final/1186_rv.mp4	0.0	358.58545088768005	2.500408411026001
82	342.9841637611389	pulse	1	t		80.0	2.5	/experiments/knapen_AOT/AOT_stimuli/rescaled_final/1186_rv.mp4	0.0	360.16839718818665	
82	343.9016258716583	fix_post	2		12	80.0	2.5	/experiments/knapen_AOT/AOT_stimuli/rescaled_final/1186_rv.mp4	0.0	361.08585929870605	0.09998822212219238
83	344.0016140937805	fix_pre	0		120	81.0	2.5	/experiments/knapen_AOT/AOT_stimuli/rescaled_final/1302_fw.mp4	0.0	361.18584752082825	1.00850510597229
83	344.5853235721588	pulse	0	t		81.0	2.5	/experiments/knapen_AOT/AOT_stimuli/rescaled_final/1302_fw.mp4	0.0	361.76955699920654	
83	345.0101191997528	movie	1		284	81.0	2.5	/experiments/knapen_AOT/AOT_stimuli/rescaled_final/1302_fw.mp4	0.0	362.19435262680054	2.4920341968536377
83	346.1844425201416	pulse	1	t		81.0	2.5	/experiments/knapen_AOT/AOT_stimuli/rescaled_final/1302_fw.mp4	0.0	363.36867594718933	
83	347.50215339660645	fix_post	2		12	81.0	2.5	/experiments/knapen_AOT/AOT_stimuli/rescaled_final/1302_fw.mp4	0.0	364.6863868236542	0.10001277923583984
84	347.6021661758423	fix_pre	0		120	82.0	2.5	blank	1.0	364.78639960289	1.0001952648162842
84	347.7857391834259	pulse	0	t		82.0	2.5	blank	1.0	364.96997261047363	
84	348.60236144065857	movie	1		300	82.0	2.5	blank	1.0	365.7865948677063	2.5003256797790527
84	349.38611674308777	pulse	1	t		82.0	2.5	blank	1.0	366.5703501701355	
84	350.97869634628296	pulse	1	t		82.0	2.5	blank	1.0	368.1629297733307	
84	351.1026871204376	fix_post	2		12	82.0	2.5	blank	1.0	368.28692054748535	0.10004854202270508
85	351.2027356624603	fix_pre	0		120	83.0	2.5	/experiments/knapen_AOT/AOT_stimuli/rescaled_final/0775_rv.mp4	0.0	368.38696908950806	1.0085043907165527
85	352.2112400531769	movie	1		264	83.0	2.5	/experiments/knapen_AOT/AOT_stimuli/rescaled_final/0775_rv.mp4	0.0	369.3954734802246	2.4921576976776123
85	352.57820296287537	pulse	1	t		83.0	2.5	/experiments/knapen_AOT/AOT_stimuli/rescaled_final/0775_rv.mp4	0.0	369.7624363899231	
85	354.17882204055786	pulse	1	t		83.0	2.5	/experiments/knapen_AOT/AOT_stimuli/rescaled_final/0775_rv.mp4	0.0	371.3630554676056	
85	354.7033977508545	fix_post	2		12	83.0	2.5	/experiments/knapen_AOT/AOT_stimuli/rescaled_final/0775_rv.mp4	0.0	371.8876311779022	0.12493014335632324
87	354.8283278942108	stim	0		1712					372.01256132125854	14.268772602081299
87	355.7786543369293	pulse	0	t						372.96288776397705	
87	357.37902545928955	pulse	0	t						374.5632588863373	
87	358.979252576828	pulse	0	t						376.16348600387573	
87	360.5793535709381	pulse	0	t						377.76358699798584	
87	362.18000054359436	pulse	0	t						379.3642339706421	
87	363.77982926368713	pulse	0	t						380.96406269073486	
87	365.3800666332245	pulse	0	t						382.5643000602722	
87	366.9804265499115	pulse	0	t						384.16465997695923	
87	368.5805950164795	pulse	0	t						385.7648284435272	
