trial_nr	onset	event_type	phase	response	nr_frames	movie_index	movie_duration	movie_file	blank	onset_abs	duration
0	0.14159846305847168	stim	0		330					33.358120918273926	2.7503745555877686
0	2.8838133811950684	response	0	space						36.10033583641052	
1	2.8919730186462402	stim	0		3471					36.108495473861694	28.942021369934082
1	31.819716930389404	pulse	0	t						65.03623938560486	
1	31.833994388580322	stim	1		1714					65.05051684379578	14.297759056091309
1	33.4135160446167	pulse	1	t						66.63003849983215	
1	35.013601779937744	pulse	1	t						68.2301242351532	
1	36.61382842063904	pulse	1	t						69.83035087585449	
1	38.214327335357666	pulse	1	t						71.43084979057312	
1	39.81431031227112	pulse	1	t						73.03083276748657	
1	41.414551734924316	pulse	1	t						74.63107419013977	
1	43.01481580734253	pulse	1	t						76.23133826255798	
1	44.61502742767334	pulse	1	t						77.8315498828888	
2	46.13175344467163	fix_pre	0		11	0.0	2.5	/experiments/Knapen_AOT/AOT_stimuli/rescaled_final/1196_rv.mp4	0.0	79.34827589988708	0.1083519458770752
2	46.215341091156006	pulse	0	t		0.0	2.5	/experiments/Knapen_AOT/AOT_stimuli/rescaled_final/1196_rv.mp4	0.0	79.43186354637146	
2	46.240105390548706	movie	1		283	0.0	2.5	/experiments/Knapen_AOT/AOT_stimuli/rescaled_final/1196_rv.mp4	0.0	79.45662784576416	2.492027521133423
2	47.814016819000244	pulse	1	t		0.0	2.5	/experiments/Knapen_AOT/AOT_stimuli/rescaled_final/1196_rv.mp4	0.0	81.0305392742157	
2	48.73213291168213	fix_post	2		12	0.0	2.5	/experiments/Knapen_AOT/AOT_stimuli/rescaled_final/1196_rv.mp4	0.0	81.94865536689758	0.10003280639648438
3	48.83216571807861	fix_pre	0		120	1.0	2.5	/experiments/Knapen_AOT/AOT_stimuli/rescaled_final/1128_fw.mp4	0.0	82.04868817329407	1.0084948539733887
3	49.41581177711487	pulse	0	t		1.0	2.5	/experiments/Knapen_AOT/AOT_stimuli/rescaled_final/1128_fw.mp4	0.0	82.63233423233032	
3	49.840660572052	movie	1		292	1.0	2.5	/experiments/Knapen_AOT/AOT_stimuli/rescaled_final/1128_fw.mp4	0.0	83.05718302726746	2.492166757583618
3	51.01471972465515	pulse	1	t		1.0	2.5	/experiments/Knapen_AOT/AOT_stimuli/rescaled_final/1128_fw.mp4	0.0	84.2312421798706	
3	52.33282732963562	fix_post	2		12	1.0	2.5	/experiments/Knapen_AOT/AOT_stimuli/rescaled_final/1128_fw.mp4	0.0	85.54934978485107	0.09987974166870117
4	52.43270707130432	fix_pre	0		120	2.0	2.5	/experiments/Knapen_AOT/AOT_stimuli/rescaled_final/0215_rv.mp4	0.0	85.64922952651978	1.0085442066192627
4	52.61623573303223	pulse	0	t		2.0	2.5	/experiments/Knapen_AOT/AOT_stimuli/rescaled_final/0215_rv.mp4	0.0	85.83275818824768	
4	53.441251277923584	movie	1		292	2.0	2.5	/experiments/Knapen_AOT/AOT_stimuli/rescaled_final/0215_rv.mp4	0.0	86.65777373313904	2.4919607639312744
4	54.21443033218384	pulse	1	t		2.0	2.5	/experiments/Knapen_AOT/AOT_stimuli/rescaled_final/0215_rv.mp4	0.0	87.43095278739929	
4	55.81449270248413	pulse	1	t		2.0	2.5	/experiments/Knapen_AOT/AOT_stimuli/rescaled_final/0215_rv.mp4	0.0	89.03101515769958	
4	55.93321204185486	fix_post	2		12	2.0	2.5	/experiments/Knapen_AOT/AOT_stimuli/rescaled_final/0215_rv.mp4	0.0	89.14973449707031	0.1000967025756836
5	56.03330874443054	fix_pre	0		120	3.0	2.5	/experiments/Knapen_AOT/AOT_stimuli/rescaled_final/1163_rv.mp4	0.0	89.249831199646	1.008469581604004
5	57.041778326034546	movie	1		291	3.0	2.5	/experiments/Knapen_AOT/AOT_stimuli/rescaled_final/1163_rv.mp4	0.0	90.25830078125	2.492110252380371
5	57.408944606781006	pulse	1	t		3.0	2.5	/experiments/Knapen_AOT/AOT_stimuli/rescaled_final/1163_rv.mp4	0.0	90.62546706199646	
5	59.0090765953064	pulse	1	t		3.0	2.5	/experiments/Knapen_AOT/AOT_stimuli/rescaled_final/1163_rv.mp4	0.0	92.22559905052185	
5	59.53388857841492	fix_post	2		12	3.0	2.5	/experiments/Knapen_AOT/AOT_stimuli/rescaled_final/1163_rv.mp4	0.0	92.75041103363037	0.09998703002929688
6	59.633875608444214	fix_pre	0		118	4.0	2.5	/experiments/Knapen_AOT/AOT_stimuli/rescaled_final/0273_rv.mp4	0.0	92.85039806365967	0.991748571395874
6	60.609196186065674	pulse	0	t		4.0	2.5	/experiments/Knapen_AOT/AOT_stimuli/rescaled_final/0273_rv.mp4	0.0	93.82571864128113	
6	60.62562417984009	movie	1		288	4.0	2.5	/experiments/Knapen_AOT/AOT_stimuli/rescaled_final/0273_rv.mp4	0.0	93.84214663505554	2.500326633453369
6	62.209487199783325	pulse	1	t		4.0	2.5	/experiments/Knapen_AOT/AOT_stimuli/rescaled_final/0273_rv.mp4	0.0	95.42600965499878	
6	63.12595081329346	fix_post	2		12	4.0	2.5	/experiments/Knapen_AOT/AOT_stimuli/rescaled_final/0273_rv.mp4	0.0	96.34247326850891	0.10012173652648926
7	63.226072549819946	fix_pre	0		120	5.0	2.5	blank	1.0	96.4425950050354	1.0000662803649902
7	63.80970311164856	pulse	0	t		5.0	2.5	blank	1.0	97.02622556686401	
7	64.22613883018494	movie	1		300	5.0	2.5	blank	1.0	97.44266128540039	2.500361204147339
7	65.40988421440125	pulse	1	t		5.0	2.5	blank	1.0	98.6264066696167	
7	66.72650003433228	fix_post	2		12	5.0	2.5	blank	1.0	99.94302248954773	0.10006308555603027
8	66.8265631198883	fix_pre	0		120	6.0	2.5	/experiments/Knapen_AOT/AOT_stimuli/rescaled_final/2146_fw.mp4	0.0	100.04308557510376	1.0084788799285889
8	67.01011610031128	pulse	0	t		6.0	2.5	/experiments/Knapen_AOT/AOT_stimuli/rescaled_final/2146_fw.mp4	0.0	100.22663855552673	
8	67.8350419998169	movie	1		290	6.0	2.5	/experiments/Knapen_AOT/AOT_stimuli/rescaled_final/2146_fw.mp4	0.0	101.05156445503235	2.4919941425323486
8	68.61045551300049	pulse	1	t		6.0	2.5	/experiments/Knapen_AOT/AOT_stimuli/rescaled_final/2146_fw.mp4	0.0	101.82697796821594	
8	70.21052193641663	pulse	1	t		6.0	2.5	/experiments/Knapen_AOT/AOT_stimuli/rescaled_final/2146_fw.mp4	0.0	103.42704439163208	
8	70.32703614234924	fix_post	2		12	6.0	2.5	/experiments/Knapen_AOT/AOT_stimuli/rescaled_final/2146_fw.mp4	0.0	103.5435585975647	0.10003542900085449
9	70.4270715713501	fix_pre	0		120	7.0	2.5	/experiments/Knapen_AOT/AOT_stimuli/rescaled_final/2152_fw.mp4	0.0	103.64359402656555	1.0085387229919434
9	71.43561029434204	movie	1		283	7.0	2.5	/experiments/Knapen_AOT/AOT_stimuli/rescaled_final/2152_fw.mp4	0.0	104.6521327495575	2.4920036792755127
9	71.80924987792969	pulse	1	t		7.0	2.5	/experiments/Knapen_AOT/AOT_stimuli/rescaled_final/2152_fw.mp4	0.0	105.02577233314514	
9	73.41103529930115	pulse	1	t		7.0	2.5	/experiments/Knapen_AOT/AOT_stimuli/rescaled_final/2152_fw.mp4	0.0	106.6275577545166	
9	73.92761397361755	fix_post	2		12	7.0	2.5	/experiments/Knapen_AOT/AOT_stimuli/rescaled_final/2152_fw.mp4	0.0	107.14413642883301	0.10003805160522461
10	74.02765202522278	fix_pre	0		119	8.0	2.5	/experiments/Knapen_AOT/AOT_stimuli/rescaled_final/1561_fw.mp4	0.0	107.24417448043823	1.0001018047332764
10	75.01141953468323	pulse	0	t		8.0	2.5	/experiments/Knapen_AOT/AOT_stimuli/rescaled_final/1561_fw.mp4	0.0	108.22794198989868	
10	75.02775382995605	movie	1		292	8.0	2.5	/experiments/Knapen_AOT/AOT_stimuli/rescaled_final/1561_fw.mp4	0.0	108.24427628517151	2.500357151031494
10	76.60999202728271	pulse	1	t		8.0	2.5	/experiments/Knapen_AOT/AOT_stimuli/rescaled_final/1561_fw.mp4	0.0	109.82651448249817	
10	77.52811098098755	fix_post	2		12	8.0	2.5	/experiments/Knapen_AOT/AOT_stimuli/rescaled_final/1561_fw.mp4	0.0	110.744633436203	0.10007953643798828
11	77.62819051742554	fix_pre	0		120	9.0	2.5	/experiments/Knapen_AOT/AOT_stimuli/rescaled_final/0823_fw.mp4	0.0	110.84471297264099	1.0085301399230957
11	78.21222639083862	pulse	0	t		9.0	2.5	/experiments/Knapen_AOT/AOT_stimuli/rescaled_final/0823_fw.mp4	0.0	111.42874884605408	
11	78.63672065734863	movie	1		288	9.0	2.5	/experiments/Knapen_AOT/AOT_stimuli/rescaled_final/0823_fw.mp4	0.0	111.85324311256409	2.4920384883880615
11	79.81043577194214	pulse	1	t		9.0	2.5	/experiments/Knapen_AOT/AOT_stimuli/rescaled_final/0823_fw.mp4	0.0	113.02695822715759	
11	81.1287591457367	fix_post	2		12	9.0	2.5	/experiments/Knapen_AOT/AOT_stimuli/rescaled_final/0823_fw.mp4	0.0	114.34528160095215	0.09997081756591797
12	81.22872996330261	fix_pre	0		120	10.0	2.5	/experiments/Knapen_AOT/AOT_stimuli/rescaled_final/0964_fw.mp4	0.0	114.44525241851807	1.0084407329559326
12	81.41222500801086	pulse	0	t		10.0	2.5	/experiments/Knapen_AOT/AOT_stimuli/rescaled_final/0964_fw.mp4	0.0	114.62874746322632	
12	82.23717069625854	movie	1		292	10.0	2.5	/experiments/Knapen_AOT/AOT_stimuli/rescaled_final/0964_fw.mp4	0.0	115.453693151474	2.4920268058776855
12	83.01090669631958	pulse	1	t		10.0	2.5	/experiments/Knapen_AOT/AOT_stimuli/rescaled_final/0964_fw.mp4	0.0	116.22742915153503	
12	84.61066150665283	pulse	1	t		10.0	2.5	/experiments/Knapen_AOT/AOT_stimuli/rescaled_final/0964_fw.mp4	0.0	117.82718396186829	
12	84.72919750213623	fix_post	2		12	10.0	2.5	/experiments/Knapen_AOT/AOT_stimuli/rescaled_final/0964_fw.mp4	0.0	117.94571995735168	0.10003829002380371
13	84.82923579216003	fix_pre	0		120	11.0	2.5	/experiments/Knapen_AOT/AOT_stimuli/rescaled_final/0464_fw.mp4	0.0	118.04575824737549	1.0084984302520752
13	85.83773422241211	movie	1		287	11.0	2.5	/experiments/Knapen_AOT/AOT_stimuli/rescaled_final/0464_fw.mp4	0.0	119.05425667762756	2.4920120239257812
13	86.21167469024658	pulse	1	t		11.0	2.5	/experiments/Knapen_AOT/AOT_stimuli/rescaled_final/0464_fw.mp4	0.0	119.42819714546204	
13	87.81127214431763	pulse	1	t		11.0	2.5	/experiments/Knapen_AOT/AOT_stimuli/rescaled_final/0464_fw.mp4	0.0	121.02779459953308	
13	88.32974624633789	fix_post	2		12	11.0	2.5	/experiments/Knapen_AOT/AOT_stimuli/rescaled_final/0464_fw.mp4	0.0	121.54626870155334	0.10003066062927246
14	88.42977690696716	fix_pre	0		119	12.0	2.5	/experiments/Knapen_AOT/AOT_stimuli/rescaled_final/2005_fw.mp4	0.0	121.64629936218262	1.0001394748687744
14	89.41345238685608	pulse	0	t		12.0	2.5	/experiments/Knapen_AOT/AOT_stimuli/rescaled_final/2005_fw.mp4	0.0	122.62997484207153	
14	89.42991638183594	movie	1		292	12.0	2.5	/experiments/Knapen_AOT/AOT_stimuli/rescaled_final/2005_fw.mp4	0.0	122.64643883705139	2.5003628730773926
14	91.01220536231995	pulse	1	t		12.0	2.5	/experiments/Knapen_AOT/AOT_stimuli/rescaled_final/2005_fw.mp4	0.0	124.2287278175354	
14	91.93027925491333	fix_post	2		12	12.0	2.5	/experiments/Knapen_AOT/AOT_stimuli/rescaled_final/2005_fw.mp4	0.0	125.14680171012878	0.1000661849975586
15	92.03034543991089	fix_pre	0		120	13.0	2.5	/experiments/Knapen_AOT/AOT_stimuli/rescaled_final/1520_fw.mp4	0.0	125.24686789512634	1.0084552764892578
15	92.61395287513733	pulse	0	t		13.0	2.5	/experiments/Knapen_AOT/AOT_stimuli/rescaled_final/1520_fw.mp4	0.0	125.83047533035278	
15	93.03880071640015	movie	1		283	13.0	2.5	/experiments/Knapen_AOT/AOT_stimuli/rescaled_final/1520_fw.mp4	0.0	126.2553231716156	2.49204421043396
15	94.21285629272461	pulse	1	t		13.0	2.5	/experiments/Knapen_AOT/AOT_stimuli/rescaled_final/1520_fw.mp4	0.0	127.42937874794006	
15	95.5308449268341	fix_post	2		12	13.0	2.5	/experiments/Knapen_AOT/AOT_stimuli/rescaled_final/1520_fw.mp4	0.0	128.74736738204956	0.10001015663146973
16	95.63085508346558	fix_pre	0		120	14.0	2.5	blank	1.0	128.84737753868103	1.0001509189605713
16	95.81439590454102	pulse	0	t		14.0	2.5	blank	1.0	129.03091835975647	
16	96.63100600242615	movie	1		300	14.0	2.5	blank	1.0	129.8475284576416	2.500349760055542
16	97.41462779045105	pulse	1	t		14.0	2.5	blank	1.0	130.6311502456665	
16	99.01502871513367	pulse	1	t		14.0	2.5	blank	1.0	132.23155117034912	
16	99.13135576248169	fix_post	2		12	14.0	2.5	blank	1.0	132.34787821769714	0.10003399848937988
17	99.23138976097107	fix_pre	0		120	15.0	2.5	/experiments/Knapen_AOT/AOT_stimuli/rescaled_final/0840_rv.mp4	0.0	132.44791221618652	1.0086069107055664
17	100.23999667167664	movie	1		284	15.0	2.5	/experiments/Knapen_AOT/AOT_stimuli/rescaled_final/0840_rv.mp4	0.0	133.4565191268921	2.4919121265411377
17	100.61371970176697	pulse	1	t		15.0	2.5	/experiments/Knapen_AOT/AOT_stimuli/rescaled_final/0840_rv.mp4	0.0	133.83024215698242	
17	102.21343851089478	pulse	1	t		15.0	2.5	/experiments/Knapen_AOT/AOT_stimuli/rescaled_final/0840_rv.mp4	0.0	135.42996096611023	
17	102.73190879821777	fix_post	2		12	15.0	2.5	/experiments/Knapen_AOT/AOT_stimuli/rescaled_final/0840_rv.mp4	0.0	135.94843125343323	0.10011053085327148
18	102.83201932907104	fix_pre	0		119	16.0	2.5	/experiments/Knapen_AOT/AOT_stimuli/rescaled_final/0870_fw.mp4	0.0	136.0485417842865	1.0000944137573242
18	103.8157958984375	pulse	0	t		16.0	2.5	/experiments/Knapen_AOT/AOT_stimuli/rescaled_final/0870_fw.mp4	0.0	137.03231835365295	
18	103.83211374282837	movie	1		289	16.0	2.5	/experiments/Knapen_AOT/AOT_stimuli/rescaled_final/0870_fw.mp4	0.0	137.04863619804382	2.5003604888916016
18	105.41454482078552	pulse	1	t		16.0	2.5	/experiments/Knapen_AOT/AOT_stimuli/rescaled_final/0870_fw.mp4	0.0	138.63106727600098	
18	106.33247423171997	fix_post	2		12	16.0	2.5	/experiments/Knapen_AOT/AOT_stimuli/rescaled_final/0870_fw.mp4	0.0	139.54899668693542	0.10001778602600098
19	106.43249201774597	fix_pre	0		120	17.0	2.5	/experiments/Knapen_AOT/AOT_stimuli/rescaled_final/0964_fw.mp4	0.0	139.64901447296143	1.0084998607635498
19	107.00828170776367	pulse	0	t		17.0	2.5	/experiments/Knapen_AOT/AOT_stimuli/rescaled_final/0964_fw.mp4	0.0	140.22480416297913	
19	107.44099187850952	movie	1		284	17.0	2.5	/experiments/Knapen_AOT/AOT_stimuli/rescaled_final/0964_fw.mp4	0.0	140.65751433372498	2.4920005798339844
19	108.60830688476562	pulse	1	t		17.0	2.5	/experiments/Knapen_AOT/AOT_stimuli/rescaled_final/0964_fw.mp4	0.0	141.82482933998108	
19	109.9329924583435	fix_post	2		12	17.0	2.5	/experiments/Knapen_AOT/AOT_stimuli/rescaled_final/0964_fw.mp4	0.0	143.14951491355896	0.10011720657348633
20	110.03310966491699	fix_pre	0		120	18.0	2.5	/experiments/Knapen_AOT/AOT_stimuli/rescaled_final/0987_rv.mp4	0.0	143.24963212013245	1.0084173679351807
20	110.20831608772278	pulse	0	t		18.0	2.5	/experiments/Knapen_AOT/AOT_stimuli/rescaled_final/0987_rv.mp4	0.0	143.42483854293823	
20	111.04152703285217	movie	1		293	18.0	2.5	/experiments/Knapen_AOT/AOT_stimuli/rescaled_final/0987_rv.mp4	0.0	144.25804948806763	2.4919934272766113
20	111.80854821205139	pulse	1	t		18.0	2.5	/experiments/Knapen_AOT/AOT_stimuli/rescaled_final/0987_rv.mp4	0.0	145.02507066726685	
20	113.40871810913086	pulse	1	t		18.0	2.5	/experiments/Knapen_AOT/AOT_stimuli/rescaled_final/0987_rv.mp4	0.0	146.6252405643463	
20	113.53352046012878	fix_post	2		12	18.0	2.5	/experiments/Knapen_AOT/AOT_stimuli/rescaled_final/0987_rv.mp4	0.0	146.75004291534424	0.10008025169372559
21	113.63360071182251	fix_pre	0		120	19.0	2.5	/experiments/Knapen_AOT/AOT_stimuli/rescaled_final/2111_rv.mp4	0.0	146.85012316703796	1.008471965789795
21	114.6420726776123	movie	1		289	19.0	2.5	/experiments/Knapen_AOT/AOT_stimuli/rescaled_final/2111_rv.mp4	0.0	147.85859513282776	2.492074489593506
21	115.00902223587036	pulse	1	t		19.0	2.5	/experiments/Knapen_AOT/AOT_stimuli/rescaled_final/2111_rv.mp4	0.0	148.22554469108582	
21	116.6092369556427	pulse	1	t		19.0	2.5	/experiments/Knapen_AOT/AOT_stimuli/rescaled_final/2111_rv.mp4	0.0	149.82575941085815	
21	117.13414716720581	fix_post	2		12	19.0	2.5	/experiments/Knapen_AOT/AOT_stimuli/rescaled_final/2111_rv.mp4	0.0	150.35066962242126	0.0999460220336914
22	117.2340931892395	fix_pre	0		118	20.0	2.5	blank	1.0	150.45061564445496	0.9834637641906738
22	118.20947933197021	pulse	0	t		20.0	2.5	blank	1.0	151.42600178718567	
22	118.21755695343018	movie	1		301	20.0	2.5	blank	1.0	151.43407940864563	2.508718252182007
22	119.80967211723328	pulse	1	t		20.0	2.5	blank	1.0	153.02619457244873	
22	120.72627520561218	fix_post	2		12	20.0	2.5	blank	1.0	153.94279766082764	0.10007977485656738
23	120.82635498046875	fix_pre	0		120	21.0	2.5	/experiments/Knapen_AOT/AOT_stimuli/rescaled_final/1424_fw.mp4	0.0	154.0428774356842	1.008467197418213
23	121.41003251075745	pulse	0	t		21.0	2.5	/experiments/Knapen_AOT/AOT_stimuli/rescaled_final/1424_fw.mp4	0.0	154.6265549659729	
23	121.83482217788696	movie	1		284	21.0	2.5	/experiments/Knapen_AOT/AOT_stimuli/rescaled_final/1424_fw.mp4	0.0	155.05134463310242	2.492035150527954
23	123.00835728645325	pulse	1	t		21.0	2.5	/experiments/Knapen_AOT/AOT_stimuli/rescaled_final/1424_fw.mp4	0.0	156.2248797416687	
23	124.32685732841492	fix_post	2		12	21.0	2.5	/experiments/Knapen_AOT/AOT_stimuli/rescaled_final/1424_fw.mp4	0.0	157.54337978363037	0.09998536109924316
24	124.42684268951416	fix_pre	0		120	22.0	2.5	/experiments/Knapen_AOT/AOT_stimuli/rescaled_final/1482_fw.mp4	0.0	157.64336514472961	1.0084483623504639
24	124.61043405532837	pulse	0	t		22.0	2.5	/experiments/Knapen_AOT/AOT_stimuli/rescaled_final/1482_fw.mp4	0.0	157.82695651054382	
24	125.43529105186462	movie	1		292	22.0	2.5	/experiments/Knapen_AOT/AOT_stimuli/rescaled_final/1482_fw.mp4	0.0	158.65181350708008	2.4921083450317383
24	126.2092776298523	pulse	1	t		22.0	2.5	/experiments/Knapen_AOT/AOT_stimuli/rescaled_final/1482_fw.mp4	0.0	159.42580008506775	
24	127.80940341949463	pulse	1	t		22.0	2.5	/experiments/Knapen_AOT/AOT_stimuli/rescaled_final/1482_fw.mp4	0.0	161.02592587471008	
24	127.92739939689636	fix_post	2		12	22.0	2.5	/experiments/Knapen_AOT/AOT_stimuli/rescaled_final/1482_fw.mp4	0.0	161.14392185211182	0.09993696212768555
25	128.02733635902405	fix_pre	0		120	23.0	2.5	/experiments/Knapen_AOT/AOT_stimuli/rescaled_final/1326_fw.mp4	0.0	161.2438588142395	1.0085246562957764
25	129.03586101531982	movie	1		286	23.0	2.5	/experiments/Knapen_AOT/AOT_stimuli/rescaled_final/1326_fw.mp4	0.0	162.25238347053528	2.4920296669006348
25	129.40938639640808	pulse	1	t		23.0	2.5	/experiments/Knapen_AOT/AOT_stimuli/rescaled_final/1326_fw.mp4	0.0	162.62590885162354	
25	131.00932431221008	pulse	1	t		23.0	2.5	/experiments/Knapen_AOT/AOT_stimuli/rescaled_final/1326_fw.mp4	0.0	164.22584676742554	
25	131.52789068222046	fix_post	2		12	23.0	2.5	/experiments/Knapen_AOT/AOT_stimuli/rescaled_final/1326_fw.mp4	0.0	164.7444131374359	0.10010004043579102
26	131.62799072265625	fix_pre	0		119	24.0	2.5	/experiments/Knapen_AOT/AOT_stimuli/rescaled_final/0130_fw.mp4	0.0	164.8445131778717	1.0001170635223389
26	132.6117660999298	pulse	0	t		24.0	2.5	/experiments/Knapen_AOT/AOT_stimuli/rescaled_final/0130_fw.mp4	0.0	165.82828855514526	
26	132.6281077861786	movie	1		285	24.0	2.5	/experiments/Knapen_AOT/AOT_stimuli/rescaled_final/0130_fw.mp4	0.0	165.84463024139404	2.500339984893799
26	134.21016907691956	pulse	1	t		24.0	2.5	/experiments/Knapen_AOT/AOT_stimuli/rescaled_final/0130_fw.mp4	0.0	167.426691532135	
26	135.1284477710724	fix_post	2		12	24.0	2.5	/experiments/Knapen_AOT/AOT_stimuli/rescaled_final/0130_fw.mp4	0.0	168.34497022628784	0.09999608993530273
27	135.2284438610077	fix_pre	0		120	25.0	2.5	/experiments/Knapen_AOT/AOT_stimuli/rescaled_final/0152_fw.mp4	0.0	168.44496631622314	1.008483648300171
27	135.8121862411499	pulse	0	t		25.0	2.5	/experiments/Knapen_AOT/AOT_stimuli/rescaled_final/0152_fw.mp4	0.0	169.02870869636536	
27	136.23692750930786	movie	1		285	25.0	2.5	/experiments/Knapen_AOT/AOT_stimuli/rescaled_final/0152_fw.mp4	0.0	169.45344996452332	2.49204683303833
27	137.41075539588928	pulse	1	t		25.0	2.5	/experiments/Knapen_AOT/AOT_stimuli/rescaled_final/0152_fw.mp4	0.0	170.62727785110474	
27	138.7289743423462	fix_post	2		12	25.0	2.5	/experiments/Knapen_AOT/AOT_stimuli/rescaled_final/0152_fw.mp4	0.0	171.94549679756165	0.10011911392211914
28	138.8290934562683	fix_pre	0		120	26.0	2.5	/experiments/Knapen_AOT/AOT_stimuli/rescaled_final/0607_rv.mp4	0.0	172.04561591148376	1.0084493160247803
28	139.0128333568573	pulse	0	t		26.0	2.5	/experiments/Knapen_AOT/AOT_stimuli/rescaled_final/0607_rv.mp4	0.0	172.22935581207275	
28	139.8375427722931	movie	1		278	26.0	2.5	/experiments/Knapen_AOT/AOT_stimuli/rescaled_final/0607_rv.mp4	0.0	173.05406522750854	2.4919676780700684
28	140.61088848114014	pulse	1	t		26.0	2.5	/experiments/Knapen_AOT/AOT_stimuli/rescaled_final/0607_rv.mp4	0.0	173.8274109363556	
28	142.21085286140442	pulse	1	t		26.0	2.5	/experiments/Knapen_AOT/AOT_stimuli/rescaled_final/0607_rv.mp4	0.0	175.42737531661987	
28	142.32951045036316	fix_post	2		12	26.0	2.5	/experiments/Knapen_AOT/AOT_stimuli/rescaled_final/0607_rv.mp4	0.0	175.5460329055786	0.10012030601501465
29	142.42963075637817	fix_pre	0		120	27.0	2.5	blank	1.0	175.64615321159363	1.0000782012939453
29	143.42970895767212	movie	1		300	27.0	2.5	blank	1.0	176.64623141288757	2.5003552436828613
29	143.81333661079407	pulse	1	t		27.0	2.5	blank	1.0	177.02985906600952	
29	145.4135057926178	pulse	1	t		27.0	2.5	blank	1.0	178.63002824783325	
29	145.93006420135498	fix_post	2		12	27.0	2.5	blank	1.0	179.14658665657043	0.10001659393310547
30	146.0300807952881	fix_pre	0		119	28.0	2.5	/experiments/Knapen_AOT/AOT_stimuli/rescaled_final/0303_fw.mp4	0.0	179.24660325050354	1.0001325607299805
30	147.01392340660095	pulse	0	t		28.0	2.5	/experiments/Knapen_AOT/AOT_stimuli/rescaled_final/0303_fw.mp4	0.0	180.2304458618164	
30	147.03021335601807	movie	1		287	28.0	2.5	/experiments/Knapen_AOT/AOT_stimuli/rescaled_final/0303_fw.mp4	0.0	180.24673581123352	2.5003929138183594
30	148.61281204223633	pulse	1	t		28.0	2.5	/experiments/Knapen_AOT/AOT_stimuli/rescaled_final/0303_fw.mp4	0.0	181.82933449745178	
30	149.53060626983643	fix_post	2		12	28.0	2.5	/experiments/Knapen_AOT/AOT_stimuli/rescaled_final/0303_fw.mp4	0.0	182.74712872505188	0.10025763511657715
31	149.630863904953	fix_pre	0		120	29.0	2.5	/experiments/Knapen_AOT/AOT_stimuli/rescaled_final/0152_rv.mp4	0.0	182.84738636016846	1.0083308219909668
31	150.21429705619812	pulse	0	t		29.0	2.5	/experiments/Knapen_AOT/AOT_stimuli/rescaled_final/0152_rv.mp4	0.0	183.43081951141357	
31	150.63919472694397	movie	1		287	29.0	2.5	/experiments/Knapen_AOT/AOT_stimuli/rescaled_final/0152_rv.mp4	0.0	183.85571718215942	2.491975784301758
31	151.8130223751068	pulse	1	t		29.0	2.5	/experiments/Knapen_AOT/AOT_stimuli/rescaled_final/0152_rv.mp4	0.0	185.02954483032227	
31	153.13117051124573	fix_post	2		12	29.0	2.5	/experiments/Knapen_AOT/AOT_stimuli/rescaled_final/0152_rv.mp4	0.0	186.34769296646118	0.10000300407409668
32	153.23117351531982	fix_pre	0		120	30.0	2.5	/experiments/Knapen_AOT/AOT_stimuli/rescaled_final/0607_fw.mp4	0.0	186.44769597053528	1.0085399150848389
32	153.4146864414215	pulse	0	t		30.0	2.5	/experiments/Knapen_AOT/AOT_stimuli/rescaled_final/0607_fw.mp4	0.0	186.63120889663696	
32	154.23971343040466	movie	1		285	30.0	2.5	/experiments/Knapen_AOT/AOT_stimuli/rescaled_final/0607_fw.mp4	0.0	187.45623588562012	2.4919888973236084
32	155.0131003856659	pulse	1	t		30.0	2.5	/experiments/Knapen_AOT/AOT_stimuli/rescaled_final/0607_fw.mp4	0.0	188.22962284088135	
32	156.6134533882141	pulse	1	t		30.0	2.5	/experiments/Knapen_AOT/AOT_stimuli/rescaled_final/0607_fw.mp4	0.0	189.82997584342957	
32	156.73170232772827	fix_post	2		12	30.0	2.5	/experiments/Knapen_AOT/AOT_stimuli/rescaled_final/0607_fw.mp4	0.0	189.94822478294373	0.10005021095275879
33	156.83175253868103	fix_pre	0		120	31.0	2.5	/experiments/Knapen_AOT/AOT_stimuli/rescaled_final/0624_fw.mp4	0.0	190.04827499389648	1.00844144821167
33	157.8401939868927	movie	1		290	31.0	2.5	/experiments/Knapen_AOT/AOT_stimuli/rescaled_final/0624_fw.mp4	0.0	191.05671644210815	2.4920175075531006
33	158.21410012245178	pulse	1	t		31.0	2.5	/experiments/Knapen_AOT/AOT_stimuli/rescaled_final/0624_fw.mp4	0.0	191.43062257766724	
33	159.81398963928223	pulse	1	t		31.0	2.5	/experiments/Knapen_AOT/AOT_stimuli/rescaled_final/0624_fw.mp4	0.0	193.03051209449768	
33	160.3322114944458	fix_post	2		12	31.0	2.5	/experiments/Knapen_AOT/AOT_stimuli/rescaled_final/0624_fw.mp4	0.0	193.54873394966125	0.10005402565002441
34	160.43226552009583	fix_pre	0		119	32.0	2.5	/experiments/Knapen_AOT/AOT_stimuli/rescaled_final/0032_rv.mp4	0.0	193.64878797531128	1.000159502029419
34	161.41622614860535	pulse	0	t		32.0	2.5	/experiments/Knapen_AOT/AOT_stimuli/rescaled_final/0032_rv.mp4	0.0	194.6327486038208	
34	161.43242502212524	movie	1		289	32.0	2.5	/experiments/Knapen_AOT/AOT_stimuli/rescaled_final/0032_rv.mp4	0.0	194.6489474773407	2.5003268718719482
34	163.01446151733398	pulse	1	t		32.0	2.5	/experiments/Knapen_AOT/AOT_stimuli/rescaled_final/0032_rv.mp4	0.0	196.23098397254944	
34	163.9327518939972	fix_post	2		12	32.0	2.5	/experiments/Knapen_AOT/AOT_stimuli/rescaled_final/0032_rv.mp4	0.0	197.14927434921265	0.10008382797241211
35	164.0328357219696	fix_pre	0		120	33.0	2.5	/experiments/Knapen_AOT/AOT_stimuli/rescaled_final/1163_fw.mp4	0.0	197.24935817718506	1.0084257125854492
35	164.60855531692505	pulse	0	t		33.0	2.5	/experiments/Knapen_AOT/AOT_stimuli/rescaled_final/1163_fw.mp4	0.0	197.8250777721405	
35	165.04126143455505	movie	1		284	33.0	2.5	/experiments/Knapen_AOT/AOT_stimuli/rescaled_final/1163_fw.mp4	0.0	198.2577838897705	2.4921112060546875
35	166.215585231781	pulse	1	t		33.0	2.5	/experiments/Knapen_AOT/AOT_stimuli/rescaled_final/1163_fw.mp4	0.0	199.43210768699646	
35	167.53337264060974	fix_post	2		12	33.0	2.5	/experiments/Knapen_AOT/AOT_stimuli/rescaled_final/1163_fw.mp4	0.0	200.7498950958252	0.09993982315063477
36	167.63331246376038	fix_pre	0		120	34.0	2.5	blank	1.0	200.84983491897583	1.0001533031463623
36	167.8087968826294	pulse	0	t		34.0	2.5	blank	1.0	201.02531933784485	
36	168.63346576690674	movie	1		300	34.0	2.5	blank	1.0	201.8499882221222	2.500361204147339
36	169.40884470939636	pulse	1	t		34.0	2.5	blank	1.0	202.62536716461182	
36	171.00906229019165	pulse	1	t		34.0	2.5	blank	1.0	204.2255847454071	
36	171.13382697105408	fix_post	2		12	34.0	2.5	blank	1.0	204.35034942626953	0.10008454322814941
37	171.23391151428223	fix_pre	0		120	35.0	2.5	/experiments/Knapen_AOT/AOT_stimuli/rescaled_final/0718_rv.mp4	0.0	204.45043396949768	1.0084631443023682
37	172.2423746585846	movie	1		283	35.0	2.5	/experiments/Knapen_AOT/AOT_stimuli/rescaled_final/0718_rv.mp4	0.0	205.45889711380005	2.492029905319214
37	172.60941624641418	pulse	1	t		35.0	2.5	/experiments/Knapen_AOT/AOT_stimuli/rescaled_final/0718_rv.mp4	0.0	205.82593870162964	
37	174.20950365066528	pulse	1	t		35.0	2.5	/experiments/Knapen_AOT/AOT_stimuli/rescaled_final/0718_rv.mp4	0.0	207.42602610588074	
37	174.7344045639038	fix_post	2		12	35.0	2.5	/experiments/Knapen_AOT/AOT_stimuli/rescaled_final/0718_rv.mp4	0.0	207.95092701911926	0.10000061988830566
38	174.83440518379211	fix_pre	0		118	36.0	2.5	/experiments/Knapen_AOT/AOT_stimuli/rescaled_final/0788_fw.mp4	0.0	208.05092763900757	0.9917933940887451
38	175.80983066558838	pulse	0	t		36.0	2.5	/experiments/Knapen_AOT/AOT_stimuli/rescaled_final/0788_fw.mp4	0.0	209.02635312080383	
38	175.82619857788086	movie	1		290	36.0	2.5	/experiments/Knapen_AOT/AOT_stimuli/rescaled_final/0788_fw.mp4	0.0	209.0427210330963	2.5003914833068848
38	177.40897035598755	pulse	1	t		36.0	2.5	/experiments/Knapen_AOT/AOT_stimuli/rescaled_final/0788_fw.mp4	0.0	210.625492811203	
38	178.32659006118774	fix_post	2		12	36.0	2.5	/experiments/Knapen_AOT/AOT_stimuli/rescaled_final/0788_fw.mp4	0.0	211.5431125164032	0.10007190704345703
39	178.4266619682312	fix_pre	0		120	37.0	2.5	/experiments/Knapen_AOT/AOT_stimuli/rescaled_final/1386_fw.mp4	0.0	211.64318442344666	1.0084459781646729
39	179.01023650169373	pulse	0	t		37.0	2.5	/experiments/Knapen_AOT/AOT_stimuli/rescaled_final/1386_fw.mp4	0.0	212.22675895690918	
39	179.43510794639587	movie	1		288	37.0	2.5	/experiments/Knapen_AOT/AOT_stimuli/rescaled_final/1386_fw.mp4	0.0	212.65163040161133	2.4920895099639893
39	180.60921955108643	pulse	1	t		37.0	2.5	/experiments/Knapen_AOT/AOT_stimuli/rescaled_final/1386_fw.mp4	0.0	213.82574200630188	
39	181.92719745635986	fix_post	2		12	37.0	2.5	/experiments/Knapen_AOT/AOT_stimuli/rescaled_final/1386_fw.mp4	0.0	215.14371991157532	0.0999746322631836
40	182.02717208862305	fix_pre	0		120	38.0	2.5	/experiments/Knapen_AOT/AOT_stimuli/rescaled_final/1077_fw.mp4	0.0	215.2436945438385	1.0084812641143799
40	182.21068811416626	pulse	0	t		38.0	2.5	/experiments/Knapen_AOT/AOT_stimuli/rescaled_final/1077_fw.mp4	0.0	215.4272105693817	
40	183.03565335273743	movie	1		292	38.0	2.5	/experiments/Knapen_AOT/AOT_stimuli/rescaled_final/1077_fw.mp4	0.0	216.25217580795288	2.492007255554199
40	183.80942606925964	pulse	1	t		38.0	2.5	/experiments/Knapen_AOT/AOT_stimuli/rescaled_final/1077_fw.mp4	0.0	217.0259485244751	
40	185.40958619117737	pulse	1	t		38.0	2.5	/experiments/Knapen_AOT/AOT_stimuli/rescaled_final/1077_fw.mp4	0.0	218.62610864639282	
40	185.52766060829163	fix_post	2		12	38.0	2.5	/experiments/Knapen_AOT/AOT_stimuli/rescaled_final/1077_fw.mp4	0.0	218.74418306350708	0.10006403923034668
41	185.62772464752197	fix_pre	0		120	39.0	2.5	/experiments/Knapen_AOT/AOT_stimuli/rescaled_final/1257_fw.mp4	0.0	218.84424710273743	1.0084502696990967
41	186.63617491722107	movie	1		282	39.0	2.5	/experiments/Knapen_AOT/AOT_stimuli/rescaled_final/1257_fw.mp4	0.0	219.85269737243652	2.492206573486328
41	187.01005458831787	pulse	1	t		39.0	2.5	/experiments/Knapen_AOT/AOT_stimuli/rescaled_final/1257_fw.mp4	0.0	220.22657704353333	
41	188.609965801239	pulse	1	t		39.0	2.5	/experiments/Knapen_AOT/AOT_stimuli/rescaled_final/1257_fw.mp4	0.0	221.82648825645447	
41	189.1283814907074	fix_post	2		12	39.0	2.5	/experiments/Knapen_AOT/AOT_stimuli/rescaled_final/1257_fw.mp4	0.0	222.34490394592285	0.09992361068725586
42	189.22830510139465	fix_pre	0		119	40.0	2.5	/experiments/Knapen_AOT/AOT_stimuli/rescaled_final/1579_fw.mp4	0.0	222.4448275566101	1.0000576972961426
42	190.21230554580688	pulse	0	t		40.0	2.5	/experiments/Knapen_AOT/AOT_stimuli/rescaled_final/1579_fw.mp4	0.0	223.42882800102234	
42	190.2283627986908	movie	1		283	40.0	2.5	/experiments/Knapen_AOT/AOT_stimuli/rescaled_final/1579_fw.mp4	0.0	223.44488525390625	2.5003838539123535
42	191.8111069202423	pulse	1	t		40.0	2.5	/experiments/Knapen_AOT/AOT_stimuli/rescaled_final/1579_fw.mp4	0.0	225.02762937545776	
42	192.72874665260315	fix_post	2		12	40.0	2.5	/experiments/Knapen_AOT/AOT_stimuli/rescaled_final/1579_fw.mp4	0.0	225.9452691078186	0.10001921653747559
43	192.82876586914062	fix_pre	0		120	41.0	2.5	blank	1.0	226.04528832435608	1.0002362728118896
43	193.41244053840637	pulse	0	t		41.0	2.5	blank	1.0	226.62896299362183	
43	193.82900214195251	movie	1		300	41.0	2.5	blank	1.0	227.04552459716797	2.500290870666504
43	195.0127079486847	pulse	1	t		41.0	2.5	blank	1.0	228.22923040390015	
43	196.32929301261902	fix_post	2		12	41.0	2.5	blank	1.0	229.54581546783447	0.10002374649047852
44	196.4293167591095	fix_pre	0		120	42.0	2.5	/experiments/Knapen_AOT/AOT_stimuli/rescaled_final/0189_rv.mp4	0.0	229.64583921432495	1.008507490158081
44	196.61299872398376	pulse	0	t		42.0	2.5	/experiments/Knapen_AOT/AOT_stimuli/rescaled_final/0189_rv.mp4	0.0	229.82952117919922	
44	197.43782424926758	movie	1		288	42.0	2.5	/experiments/Knapen_AOT/AOT_stimuli/rescaled_final/0189_rv.mp4	0.0	230.65434670448303	2.4920055866241455
44	198.211660861969	pulse	1	t		42.0	2.5	/experiments/Knapen_AOT/AOT_stimuli/rescaled_final/0189_rv.mp4	0.0	231.42818331718445	
44	199.81357550621033	pulse	1	t		42.0	2.5	/experiments/Knapen_AOT/AOT_stimuli/rescaled_final/0189_rv.mp4	0.0	233.03009796142578	
44	199.92982983589172	fix_post	2		12	42.0	2.5	/experiments/Knapen_AOT/AOT_stimuli/rescaled_final/0189_rv.mp4	0.0	233.14635229110718	0.1000819206237793
45	200.0299117565155	fix_pre	0		120	43.0	2.5	/experiments/Knapen_AOT/AOT_stimuli/rescaled_final/1289_rv.mp4	0.0	233.24643421173096	1.0084447860717773
45	201.03835654258728	movie	1		275	43.0	2.5	/experiments/Knapen_AOT/AOT_stimuli/rescaled_final/1289_rv.mp4	0.0	234.25487899780273	2.492032527923584
45	201.41240167617798	pulse	1	t		43.0	2.5	/experiments/Knapen_AOT/AOT_stimuli/rescaled_final/1289_rv.mp4	0.0	234.62892413139343	
45	203.01189279556274	pulse	1	t		43.0	2.5	/experiments/Knapen_AOT/AOT_stimuli/rescaled_final/1289_rv.mp4	0.0	236.2284152507782	
45	203.53038907051086	fix_post	2		12	43.0	2.5	/experiments/Knapen_AOT/AOT_stimuli/rescaled_final/1289_rv.mp4	0.0	236.74691152572632	0.10001254081726074
46	203.63040161132812	fix_pre	0		119	44.0	2.5	/experiments/Knapen_AOT/AOT_stimuli/rescaled_final/1015_fw.mp4	0.0	236.84692406654358	1.00014066696167
46	204.61430835723877	pulse	0	t		44.0	2.5	/experiments/Knapen_AOT/AOT_stimuli/rescaled_final/1015_fw.mp4	0.0	237.83083081245422	
46	204.6305422782898	movie	1		289	44.0	2.5	/experiments/Knapen_AOT/AOT_stimuli/rescaled_final/1015_fw.mp4	0.0	237.84706473350525	2.500377655029297
46	206.21307730674744	pulse	1	t		44.0	2.5	/experiments/Knapen_AOT/AOT_stimuli/rescaled_final/1015_fw.mp4	0.0	239.4295997619629	
46	207.1309199333191	fix_post	2		12	44.0	2.5	/experiments/Knapen_AOT/AOT_stimuli/rescaled_final/1015_fw.mp4	0.0	240.34744238853455	0.1000969409942627
47	207.23101687431335	fix_pre	0		120	45.0	2.5	/experiments/Knapen_AOT/AOT_stimuli/rescaled_final/1594_fw.mp4	0.0	240.4475393295288	1.0084173679351807
47	207.8147487640381	pulse	0	t		45.0	2.5	/experiments/Knapen_AOT/AOT_stimuli/rescaled_final/1594_fw.mp4	0.0	241.03127121925354	
47	208.23943424224854	movie	1		283	45.0	2.5	/experiments/Knapen_AOT/AOT_stimuli/rescaled_final/1594_fw.mp4	0.0	241.455956697464	2.4920125007629395
47	209.41309213638306	pulse	1	t		45.0	2.5	/experiments/Knapen_AOT/AOT_stimuli/rescaled_final/1594_fw.mp4	0.0	242.6296145915985	
47	210.73144674301147	fix_post	2		12	45.0	2.5	/experiments/Knapen_AOT/AOT_stimuli/rescaled_final/1594_fw.mp4	0.0	243.94796919822693	0.10005426406860352
48	210.83150100708008	fix_pre	0		120	46.0	2.5	/experiments/Knapen_AOT/AOT_stimuli/rescaled_final/1169_fw.mp4	0.0	244.04802346229553	1.0085303783416748
48	211.0151174068451	pulse	0	t		46.0	2.5	/experiments/Knapen_AOT/AOT_stimuli/rescaled_final/1169_fw.mp4	0.0	244.23163986206055	
48	211.84003138542175	movie	1		291	46.0	2.5	/experiments/Knapen_AOT/AOT_stimuli/rescaled_final/1169_fw.mp4	0.0	245.0565538406372	2.4919638633728027
48	212.61383724212646	pulse	1	t		46.0	2.5	/experiments/Knapen_AOT/AOT_stimuli/rescaled_final/1169_fw.mp4	0.0	245.83035969734192	
48	214.21328830718994	pulse	1	t		46.0	2.5	/experiments/Knapen_AOT/AOT_stimuli/rescaled_final/1169_fw.mp4	0.0	247.4298107624054	
48	214.33199524879456	fix_post	2		12	46.0	2.5	/experiments/Knapen_AOT/AOT_stimuli/rescaled_final/1169_fw.mp4	0.0	247.54851770401	0.10001397132873535
49	214.4320092201233	fix_pre	0		120	47.0	2.5	/experiments/Knapen_AOT/AOT_stimuli/rescaled_final/1072_rv.mp4	0.0	247.64853167533875	1.0084784030914307
49	215.44048762321472	movie	1		277	47.0	2.5	/experiments/Knapen_AOT/AOT_stimuli/rescaled_final/1072_rv.mp4	0.0	248.65701007843018	2.4920454025268555
49	215.81507062911987	pulse	1	t		47.0	2.5	/experiments/Knapen_AOT/AOT_stimuli/rescaled_final/1072_rv.mp4	0.0	249.03159308433533	
49	217.41425251960754	pulse	1	t		47.0	2.5	/experiments/Knapen_AOT/AOT_stimuli/rescaled_final/1072_rv.mp4	0.0	250.630774974823	
49	217.93253302574158	fix_post	2		12	47.0	2.5	/experiments/Knapen_AOT/AOT_stimuli/rescaled_final/1072_rv.mp4	0.0	251.14905548095703	0.1001894474029541
50	218.03272247314453	fix_pre	0		119	48.0	2.5	blank	1.0	251.24924492835999	0.9916582107543945
50	219.01637935638428	pulse	0	t		48.0	2.5	blank	1.0	252.23290181159973	
50	219.02438068389893	movie	1		301	48.0	2.5	blank	1.0	252.24090313911438	2.508688449859619
50	220.60909295082092	pulse	1	t		48.0	2.5	blank	1.0	253.82561540603638	
50	221.53306913375854	fix_post	2		12	48.0	2.5	blank	1.0	254.749591588974	0.10016107559204102
51	221.6332302093506	fix_pre	0		120	49.0	2.5	/experiments/Knapen_AOT/AOT_stimuli/rescaled_final/1013_rv.mp4	0.0	254.84975266456604	1.008371114730835
51	222.21692848205566	pulse	0	t		49.0	2.5	/experiments/Knapen_AOT/AOT_stimuli/rescaled_final/1013_rv.mp4	0.0	255.43345093727112	
51	222.64160132408142	movie	1		282	49.0	2.5	/experiments/Knapen_AOT/AOT_stimuli/rescaled_final/1013_rv.mp4	0.0	255.85812377929688	2.4920148849487305
51	223.81565976142883	pulse	1	t		49.0	2.5	/experiments/Knapen_AOT/AOT_stimuli/rescaled_final/1013_rv.mp4	0.0	257.0321822166443	
51	225.13361620903015	fix_post	2		12	49.0	2.5	/experiments/Knapen_AOT/AOT_stimuli/rescaled_final/1013_rv.mp4	0.0	258.3501386642456	0.1000511646270752
52	225.23366737365723	fix_pre	0		120	50.0	2.5	/experiments/Knapen_AOT/AOT_stimuli/rescaled_final/0032_fw.mp4	0.0	258.4501898288727	1.008471965789795
52	225.40932393074036	pulse	0	t		50.0	2.5	/experiments/Knapen_AOT/AOT_stimuli/rescaled_final/0032_fw.mp4	0.0	258.6258463859558	
52	226.24213933944702	movie	1		281	50.0	2.5	/experiments/Knapen_AOT/AOT_stimuli/rescaled_final/0032_fw.mp4	0.0	259.4586617946625	2.4920177459716797
52	227.00913214683533	pulse	1	t		50.0	2.5	/experiments/Knapen_AOT/AOT_stimuli/rescaled_final/0032_fw.mp4	0.0	260.2256546020508	
52	228.60964584350586	pulse	1	t		50.0	2.5	/experiments/Knapen_AOT/AOT_stimuli/rescaled_final/0032_fw.mp4	0.0	261.8261682987213	
52	228.7341570854187	fix_post	2		12	50.0	2.5	/experiments/Knapen_AOT/AOT_stimuli/rescaled_final/0032_fw.mp4	0.0	261.95067954063416	0.10002517700195312
53	228.83418226242065	fix_pre	0		120	51.0	2.5	/experiments/Knapen_AOT/AOT_stimuli/rescaled_final/1534_rv.mp4	0.0	262.0507047176361	1.0085399150848389
53	229.8427221775055	movie	1		286	51.0	2.5	/experiments/Knapen_AOT/AOT_stimuli/rescaled_final/1534_rv.mp4	0.0	263.05924463272095	2.4919755458831787
53	230.20987915992737	pulse	1	t		51.0	2.5	/experiments/Knapen_AOT/AOT_stimuli/rescaled_final/1534_rv.mp4	0.0	263.4264016151428	
53	231.8098304271698	pulse	1	t		51.0	2.5	/experiments/Knapen_AOT/AOT_stimuli/rescaled_final/1534_rv.mp4	0.0	265.02635288238525	
53	232.33469772338867	fix_post	2		12	51.0	2.5	/experiments/Knapen_AOT/AOT_stimuli/rescaled_final/1534_rv.mp4	0.0	265.5512201786041	0.10005331039428711
54	232.43475103378296	fix_pre	0		118	52.0	2.5	/experiments/Knapen_AOT/AOT_stimuli/rescaled_final/1019_rv.mp4	0.0	265.6512734889984	0.9918255805969238
54	233.41015791893005	pulse	0	t		52.0	2.5	/experiments/Knapen_AOT/AOT_stimuli/rescaled_final/1019_rv.mp4	0.0	266.6266803741455	
54	233.42657661437988	movie	1		286	52.0	2.5	/experiments/Knapen_AOT/AOT_stimuli/rescaled_final/1019_rv.mp4	0.0	266.64309906959534	2.5003461837768555
54	235.01032209396362	pulse	1	t		52.0	2.5	/experiments/Knapen_AOT/AOT_stimuli/rescaled_final/1019_rv.mp4	0.0	268.2268445491791	
54	235.92692279815674	fix_post	2		12	52.0	2.5	/experiments/Knapen_AOT/AOT_stimuli/rescaled_final/1019_rv.mp4	0.0	269.1434452533722	0.10006070137023926
55	236.02698349952698	fix_pre	0		120	53.0	2.5	/experiments/Knapen_AOT/AOT_stimuli/rescaled_final/0293_rv.mp4	0.0	269.24350595474243	1.0084342956542969
55	236.6106572151184	pulse	0	t		53.0	2.5	/experiments/Knapen_AOT/AOT_stimuli/rescaled_final/0293_rv.mp4	0.0	269.82717967033386	
55	237.03541779518127	movie	1		284	53.0	2.5	/experiments/Knapen_AOT/AOT_stimuli/rescaled_final/0293_rv.mp4	0.0	270.25194025039673	2.49206280708313
55	238.20960521697998	pulse	1	t		53.0	2.5	/experiments/Knapen_AOT/AOT_stimuli/rescaled_final/0293_rv.mp4	0.0	271.42612767219543	
55	239.5274806022644	fix_post	2		12	53.0	2.5	/experiments/Knapen_AOT/AOT_stimuli/rescaled_final/0293_rv.mp4	0.0	272.74400305747986	0.1000518798828125
56	239.62753248214722	fix_pre	0		120	54.0	2.5	/experiments/Knapen_AOT/AOT_stimuli/rescaled_final/1072_fw.mp4	0.0	272.84405493736267	1.0084726810455322
56	239.81109833717346	pulse	0	t		54.0	2.5	/experiments/Knapen_AOT/AOT_stimuli/rescaled_final/1072_fw.mp4	0.0	273.0276207923889	
56	240.63600516319275	movie	1		279	54.0	2.5	/experiments/Knapen_AOT/AOT_stimuli/rescaled_final/1072_fw.mp4	0.0	273.8525276184082	2.4920592308044434
56	241.40965008735657	pulse	1	t		54.0	2.5	/experiments/Knapen_AOT/AOT_stimuli/rescaled_final/1072_fw.mp4	0.0	274.626172542572	
56	243.0094816684723	pulse	1	t		54.0	2.5	/experiments/Knapen_AOT/AOT_stimuli/rescaled_final/1072_fw.mp4	0.0	276.22600412368774	
56	243.1280643939972	fix_post	2		12	54.0	2.5	/experiments/Knapen_AOT/AOT_stimuli/rescaled_final/1072_fw.mp4	0.0	276.34458684921265	0.09995007514953613
57	243.22801446914673	fix_pre	0		120	55.0	2.5	blank	1.0	276.4445369243622	1.0001394748687744
57	244.2281539440155	movie	1		300	55.0	2.5	blank	1.0	277.44467639923096	2.5003678798675537
57	244.61175298690796	pulse	1	t		55.0	2.5	blank	1.0	277.8282754421234	
57	246.2120521068573	pulse	1	t		55.0	2.5	blank	1.0	279.42857456207275	
57	246.72852182388306	fix_post	2		12	55.0	2.5	blank	1.0	279.9450442790985	0.10008573532104492
58	246.8286075592041	fix_pre	0		119	56.0	2.5	/experiments/Knapen_AOT/AOT_stimuli/rescaled_final/0900_fw.mp4	0.0	280.04513001441956	1.0084853172302246
58	247.81233477592468	pulse	0	t		56.0	2.5	/experiments/Knapen_AOT/AOT_stimuli/rescaled_final/0900_fw.mp4	0.0	281.02885723114014	
58	247.83709287643433	movie	1		279	56.0	2.5	/experiments/Knapen_AOT/AOT_stimuli/rescaled_final/0900_fw.mp4	0.0	281.0536153316498	2.4920003414154053
58	249.41161632537842	pulse	1	t		56.0	2.5	/experiments/Knapen_AOT/AOT_stimuli/rescaled_final/0900_fw.mp4	0.0	282.6281387805939	
58	250.32909321784973	fix_post	2		12	56.0	2.5	/experiments/Knapen_AOT/AOT_stimuli/rescaled_final/0900_fw.mp4	0.0	283.5456156730652	0.09998893737792969
59	250.42908215522766	fix_pre	0		120	57.0	2.5	/experiments/Knapen_AOT/AOT_stimuli/rescaled_final/1178_fw.mp4	0.0	283.6456046104431	1.0085108280181885
59	251.01288414001465	pulse	0	t		57.0	2.5	/experiments/Knapen_AOT/AOT_stimuli/rescaled_final/1178_fw.mp4	0.0	284.2294065952301	
59	251.43759298324585	movie	1		285	57.0	2.5	/experiments/Knapen_AOT/AOT_stimuli/rescaled_final/1178_fw.mp4	0.0	284.6541154384613	2.4920029640197754
59	252.613210439682	pulse	1	t		57.0	2.5	/experiments/Knapen_AOT/AOT_stimuli/rescaled_final/1178_fw.mp4	0.0	285.82973289489746	
59	253.92959594726562	fix_post	2		12	57.0	2.5	/experiments/Knapen_AOT/AOT_stimuli/rescaled_final/1178_fw.mp4	0.0	287.1461184024811	0.10009884834289551
60	254.02969479560852	fix_pre	0		120	58.0	2.5	/experiments/Knapen_AOT/AOT_stimuli/rescaled_final/0987_fw.mp4	0.0	287.246217250824	1.008434772491455
60	254.2132270336151	pulse	0	t		58.0	2.5	/experiments/Knapen_AOT/AOT_stimuli/rescaled_final/0987_fw.mp4	0.0	287.42974948883057	
60	255.03812956809998	movie	1		291	58.0	2.5	/experiments/Knapen_AOT/AOT_stimuli/rescaled_final/0987_fw.mp4	0.0	288.25465202331543	2.4920308589935303
60	255.81237077713013	pulse	1	t		58.0	2.5	/experiments/Knapen_AOT/AOT_stimuli/rescaled_final/0987_fw.mp4	0.0	289.0288932323456	
60	257.4120829105377	pulse	1	t		58.0	2.5	/experiments/Knapen_AOT/AOT_stimuli/rescaled_final/0987_fw.mp4	0.0	290.6286053657532	
60	257.5301604270935	fix_post	2		12	58.0	2.5	/experiments/Knapen_AOT/AOT_stimuli/rescaled_final/0987_fw.mp4	0.0	290.74668288230896	0.10010910034179688
61	257.6302695274353	fix_pre	0		120	59.0	2.5	/experiments/Knapen_AOT/AOT_stimuli/rescaled_final/0542_fw.mp4	0.0	290.84679198265076	1.0084419250488281
61	258.63871145248413	movie	1		269	59.0	2.5	/experiments/Knapen_AOT/AOT_stimuli/rescaled_final/0542_fw.mp4	0.0	291.8552339076996	2.4920828342437744
61	259.0131001472473	pulse	1	t		59.0	2.5	/experiments/Knapen_AOT/AOT_stimuli/rescaled_final/0542_fw.mp4	0.0	292.22962260246277	
61	260.61252784729004	pulse	1	t		59.0	2.5	/experiments/Knapen_AOT/AOT_stimuli/rescaled_final/0542_fw.mp4	0.0	293.8290503025055	
61	261.1307942867279	fix_post	2		12	59.0	2.5	/experiments/Knapen_AOT/AOT_stimuli/rescaled_final/0542_fw.mp4	0.0	294.34731674194336	0.09996318817138672
62	261.2307574748993	fix_pre	0		119	60.0	2.5	/experiments/Knapen_AOT/AOT_stimuli/rescaled_final/0147_fw.mp4	0.0	294.44727993011475	1.0002257823944092
62	262.21457505226135	pulse	0	t		60.0	2.5	/experiments/Knapen_AOT/AOT_stimuli/rescaled_final/0147_fw.mp4	0.0	295.4310975074768	
62	262.2309832572937	movie	1		287	60.0	2.5	/experiments/Knapen_AOT/AOT_stimuli/rescaled_final/0147_fw.mp4	0.0	295.44750571250916	2.5002574920654297
62	263.81311798095703	pulse	1	t		60.0	2.5	/experiments/Knapen_AOT/AOT_stimuli/rescaled_final/0147_fw.mp4	0.0	297.0296404361725	
62	264.73124074935913	fix_post	2		12	60.0	2.5	/experiments/Knapen_AOT/AOT_stimuli/rescaled_final/0147_fw.mp4	0.0	297.9477632045746	0.10005950927734375
63	264.8313002586365	fix_pre	0		120	61.0	2.5	/experiments/Knapen_AOT/AOT_stimuli/rescaled_final/1777_fw.mp4	0.0	298.04782271385193	1.008443832397461
63	265.414986371994	pulse	0	t		61.0	2.5	/experiments/Knapen_AOT/AOT_stimuli/rescaled_final/1777_fw.mp4	0.0	298.6315088272095	
63	265.83974409103394	movie	1		280	61.0	2.5	/experiments/Knapen_AOT/AOT_stimuli/rescaled_final/1777_fw.mp4	0.0	299.0562665462494	2.4920260906219482
63	267.0136845111847	pulse	1	t		61.0	2.5	/experiments/Knapen_AOT/AOT_stimuli/rescaled_final/1777_fw.mp4	0.0	300.23020696640015	
63	268.3317701816559	fix_post	2		12	61.0	2.5	/experiments/Knapen_AOT/AOT_stimuli/rescaled_final/1777_fw.mp4	0.0	301.54829263687134	0.10007619857788086
64	268.43184638023376	fix_pre	0		120	62.0	2.5	/experiments/Knapen_AOT/AOT_stimuli/rescaled_final/1349_fw.mp4	0.0	301.6483688354492	1.008498191833496
64	268.61546206474304	pulse	0	t		62.0	2.5	/experiments/Knapen_AOT/AOT_stimuli/rescaled_final/1349_fw.mp4	0.0	301.8319845199585	
64	269.44034457206726	movie	1		289	62.0	2.5	/experiments/Knapen_AOT/AOT_stimuli/rescaled_final/1349_fw.mp4	0.0	302.6568670272827	2.4920170307159424
64	270.21388125419617	pulse	1	t		62.0	2.5	/experiments/Knapen_AOT/AOT_stimuli/rescaled_final/1349_fw.mp4	0.0	303.4304037094116	
64	271.81424498558044	pulse	1	t		62.0	2.5	/experiments/Knapen_AOT/AOT_stimuli/rescaled_final/1349_fw.mp4	0.0	305.0307674407959	
64	271.9323616027832	fix_post	2		12	62.0	2.5	/experiments/Knapen_AOT/AOT_stimuli/rescaled_final/1349_fw.mp4	0.0	305.14888405799866	0.10001397132873535
65	272.03237557411194	fix_pre	0		120	63.0	2.5	blank	1.0	305.2488980293274	1.0001237392425537
65	273.0324993133545	movie	1		300	63.0	2.5	blank	1.0	306.24902176856995	2.5003628730773926
65	273.41611433029175	pulse	1	t		63.0	2.5	blank	1.0	306.6326367855072	
65	275.00866866111755	pulse	1	t		63.0	2.5	blank	1.0	308.225191116333	
65	275.5328621864319	fix_post	2		12	63.0	2.5	blank	1.0	308.74938464164734	0.10002803802490234
66	275.6328902244568	fix_pre	0		118	64.0	2.5	/experiments/Knapen_AOT/AOT_stimuli/rescaled_final/1410_fw.mp4	0.0	308.84941267967224	0.9918074607849121
66	276.6085386276245	pulse	0	t		64.0	2.5	/experiments/Knapen_AOT/AOT_stimuli/rescaled_final/1410_fw.mp4	0.0	309.82506108283997	
66	276.6246976852417	movie	1		287	64.0	2.5	/experiments/Knapen_AOT/AOT_stimuli/rescaled_final/1410_fw.mp4	0.0	309.84122014045715	2.500384569168091
66	278.2089602947235	pulse	1	t		64.0	2.5	/experiments/Knapen_AOT/AOT_stimuli/rescaled_final/1410_fw.mp4	0.0	311.42548274993896	
66	279.1250822544098	fix_post	2		12	64.0	2.5	/experiments/Knapen_AOT/AOT_stimuli/rescaled_final/1410_fw.mp4	0.0	312.34160470962524	0.10006999969482422
67	279.2251522541046	fix_pre	0		120	65.0	2.5	/experiments/Knapen_AOT/AOT_stimuli/rescaled_final/0518_rv.mp4	0.0	312.44167470932007	1.0084211826324463
67	279.808744430542	pulse	0	t		65.0	2.5	/experiments/Knapen_AOT/AOT_stimuli/rescaled_final/0518_rv.mp4	0.0	313.02526688575745	
67	280.23357343673706	movie	1		276	65.0	2.5	/experiments/Knapen_AOT/AOT_stimuli/rescaled_final/0518_rv.mp4	0.0	313.4500958919525	2.4921047687530518
67	281.4089992046356	pulse	1	t		65.0	2.5	/experiments/Knapen_AOT/AOT_stimuli/rescaled_final/0518_rv.mp4	0.0	314.6255216598511	
67	282.7256782054901	fix_post	2		12	65.0	2.5	/experiments/Knapen_AOT/AOT_stimuli/rescaled_final/0518_rv.mp4	0.0	315.94220066070557	0.09996318817138672
68	282.8256413936615	fix_pre	0		120	66.0	2.5	/experiments/Knapen_AOT/AOT_stimuli/rescaled_final/1086_fw.mp4	0.0	316.04216384887695	1.0085198879241943
68	283.0091977119446	pulse	0	t		66.0	2.5	/experiments/Knapen_AOT/AOT_stimuli/rescaled_final/1086_fw.mp4	0.0	316.22572016716003	
68	283.8341612815857	movie	1		288	66.0	2.5	/experiments/Knapen_AOT/AOT_stimuli/rescaled_final/1086_fw.mp4	0.0	317.05068373680115	2.49206280708313
68	284.60949754714966	pulse	1	t		66.0	2.5	/experiments/Knapen_AOT/AOT_stimuli/rescaled_final/1086_fw.mp4	0.0	317.8260200023651	
68	286.2096619606018	pulse	1	t		66.0	2.5	/experiments/Knapen_AOT/AOT_stimuli/rescaled_final/1086_fw.mp4	0.0	319.42618441581726	
68	286.3262240886688	fix_post	2		12	66.0	2.5	/experiments/Knapen_AOT/AOT_stimuli/rescaled_final/1086_fw.mp4	0.0	319.5427465438843	0.0999605655670166
69	286.42618465423584	fix_pre	0		120	67.0	2.5	/experiments/Knapen_AOT/AOT_stimuli/rescaled_final/1407_rv.mp4	0.0	319.6427071094513	1.0085327625274658
69	287.4347174167633	movie	1		260	67.0	2.5	/experiments/Knapen_AOT/AOT_stimuli/rescaled_final/1407_rv.mp4	0.0	320.65123987197876	2.49202823638916
69	287.81033277511597	pulse	1	t		67.0	2.5	/experiments/Knapen_AOT/AOT_stimuli/rescaled_final/1407_rv.mp4	0.0	321.0268552303314	
69	289.4091753959656	pulse	1	t		67.0	2.5	/experiments/Knapen_AOT/AOT_stimuli/rescaled_final/1407_rv.mp4	0.0	322.62569785118103	
69	289.92674565315247	fix_post	2		12	67.0	2.5	/experiments/Knapen_AOT/AOT_stimuli/rescaled_final/1407_rv.mp4	0.0	323.1432681083679	0.09998512268066406
70	290.02673077583313	fix_pre	0		119	68.0	2.5	/experiments/Knapen_AOT/AOT_stimuli/rescaled_final/0630_rv.mp4	0.0	323.2432532310486	1.000154733657837
70	291.01049065589905	pulse	0	t		68.0	2.5	/experiments/Knapen_AOT/AOT_stimuli/rescaled_final/0630_rv.mp4	0.0	324.2270131111145	
70	291.02688550949097	movie	1		291	68.0	2.5	/experiments/Knapen_AOT/AOT_stimuli/rescaled_final/0630_rv.mp4	0.0	324.2434079647064	2.500370979309082
70	292.609032869339	pulse	1	t		68.0	2.5	/experiments/Knapen_AOT/AOT_stimuli/rescaled_final/0630_rv.mp4	0.0	325.82555532455444	
70	293.52725648880005	fix_post	2		12	68.0	2.5	/experiments/Knapen_AOT/AOT_stimuli/rescaled_final/0630_rv.mp4	0.0	326.7437789440155	0.10008454322814941
71	293.6273410320282	fix_pre	0		120	69.0	2.5	blank	1.0	326.84386348724365	1.0000813007354736
71	294.21087670326233	pulse	0	t		69.0	2.5	blank	1.0	327.4273991584778	
71	294.6274223327637	movie	1		300	69.0	2.5	blank	1.0	327.8439447879791	2.5003445148468018
71	295.8113160133362	pulse	1	t		69.0	2.5	blank	1.0	329.02783846855164	
71	297.1277668476105	fix_post	2		12	69.0	2.5	blank	1.0	330.3442893028259	0.1000204086303711
72	297.22778725624084	fix_pre	0		120	70.0	2.5	/experiments/Knapen_AOT/AOT_stimuli/rescaled_final/1441_rv.mp4	0.0	330.4443097114563	1.0085382461547852
72	297.4115078449249	pulse	0	t		70.0	2.5	/experiments/Knapen_AOT/AOT_stimuli/rescaled_final/1441_rv.mp4	0.0	330.6280303001404	
72	298.23632550239563	movie	1		278	70.0	2.5	/experiments/Knapen_AOT/AOT_stimuli/rescaled_final/1441_rv.mp4	0.0	331.4528479576111	2.492029905319214
72	299.0097506046295	pulse	1	t		70.0	2.5	/experiments/Knapen_AOT/AOT_stimuli/rescaled_final/1441_rv.mp4	0.0	332.22627305984497	
72	300.6119258403778	pulse	1	t		70.0	2.5	/experiments/Knapen_AOT/AOT_stimuli/rescaled_final/1441_rv.mp4	0.0	333.82844829559326	
72	300.72835540771484	fix_post	2		12	70.0	2.5	/experiments/Knapen_AOT/AOT_stimuli/rescaled_final/1441_rv.mp4	0.0	333.9448778629303	0.10002708435058594
73	300.82838249206543	fix_pre	0		120	71.0	2.5	/experiments/Knapen_AOT/AOT_stimuli/rescaled_final/1672_rv.mp4	0.0	334.0449049472809	1.008469820022583
73	301.836852312088	movie	1		273	71.0	2.5	/experiments/Knapen_AOT/AOT_stimuli/rescaled_final/1672_rv.mp4	0.0	335.05337476730347	2.492030143737793
73	302.2106294631958	pulse	1	t		71.0	2.5	/experiments/Knapen_AOT/AOT_stimuli/rescaled_final/1672_rv.mp4	0.0	335.42715191841125	
73	303.810795545578	pulse	1	t		71.0	2.5	/experiments/Knapen_AOT/AOT_stimuli/rescaled_final/1672_rv.mp4	0.0	337.02731800079346	
73	304.3288824558258	fix_post	2		12	71.0	2.5	/experiments/Knapen_AOT/AOT_stimuli/rescaled_final/1672_rv.mp4	0.0	337.54540491104126	0.09994983673095703
74	304.42883229255676	fix_pre	0		119	72.0	2.5	/experiments/Knapen_AOT/AOT_stimuli/rescaled_final/1070_rv.mp4	0.0	337.6453547477722	1.0003418922424316
74	305.4126789569855	pulse	0	t		72.0	2.5	/experiments/Knapen_AOT/AOT_stimuli/rescaled_final/1070_rv.mp4	0.0	338.6292014122009	
74	305.4291741847992	movie	1		275	72.0	2.5	/experiments/Knapen_AOT/AOT_stimuli/rescaled_final/1070_rv.mp4	0.0	338.64569664001465	2.5085811614990234
74	307.01146483421326	pulse	1	t		72.0	2.5	/experiments/Knapen_AOT/AOT_stimuli/rescaled_final/1070_rv.mp4	0.0	340.2279872894287	
74	307.9377553462982	fix_post	2		11	72.0	2.5	/experiments/Knapen_AOT/AOT_stimuli/rescaled_final/1070_rv.mp4	0.0	341.1542778015137	0.09169936180114746
75	308.02945470809937	fix_pre	0		120	73.0	2.5	/experiments/Knapen_AOT/AOT_stimuli/rescaled_final/1104_fw.mp4	0.0	341.2459771633148	1.008502721786499
75	308.61306595802307	pulse	0	t		73.0	2.5	/experiments/Knapen_AOT/AOT_stimuli/rescaled_final/1104_fw.mp4	0.0	341.8295884132385	
75	309.03795742988586	movie	1		283	73.0	2.5	/experiments/Knapen_AOT/AOT_stimuli/rescaled_final/1104_fw.mp4	0.0	342.2544798851013	2.492088794708252
75	310.21196937561035	pulse	1	t		73.0	2.5	/experiments/Knapen_AOT/AOT_stimuli/rescaled_final/1104_fw.mp4	0.0	343.4284918308258	
75	311.5300462245941	fix_post	2		12	73.0	2.5	/experiments/Knapen_AOT/AOT_stimuli/rescaled_final/1104_fw.mp4	0.0	344.74656867980957	0.09995007514953613
76	311.62999629974365	fix_pre	0		120	74.0	2.5	/experiments/Knapen_AOT/AOT_stimuli/rescaled_final/1621_rv.mp4	0.0	344.8465187549591	1.0085115432739258
76	311.81353735923767	pulse	0	t		74.0	2.5	/experiments/Knapen_AOT/AOT_stimuli/rescaled_final/1621_rv.mp4	0.0	345.0300598144531	
76	312.6385078430176	movie	1		282	74.0	2.5	/experiments/Knapen_AOT/AOT_stimuli/rescaled_final/1621_rv.mp4	0.0	345.85503029823303	2.4920785427093506
76	313.4119288921356	pulse	1	t		74.0	2.5	/experiments/Knapen_AOT/AOT_stimuli/rescaled_final/1621_rv.mp4	0.0	346.6284513473511	
76	315.01265597343445	pulse	1	t		74.0	2.5	/experiments/Knapen_AOT/AOT_stimuli/rescaled_final/1621_rv.mp4	0.0	348.2291784286499	
76	315.13058638572693	fix_post	2		12	74.0	2.5	/experiments/Knapen_AOT/AOT_stimuli/rescaled_final/1621_rv.mp4	0.0	348.3471088409424	0.09992241859436035
77	315.2305088043213	fix_pre	0		120	75.0	2.5	/experiments/Knapen_AOT/AOT_stimuli/rescaled_final/0493_rv.mp4	0.0	348.44703125953674	1.0085170269012451
77	316.23902583122253	movie	1		280	75.0	2.5	/experiments/Knapen_AOT/AOT_stimuli/rescaled_final/0493_rv.mp4	0.0	349.455548286438	2.492020606994629
77	316.61381125450134	pulse	1	t		75.0	2.5	/experiments/Knapen_AOT/AOT_stimuli/rescaled_final/0493_rv.mp4	0.0	349.8303337097168	
77	318.2131612300873	pulse	1	t		75.0	2.5	/experiments/Knapen_AOT/AOT_stimuli/rescaled_final/0493_rv.mp4	0.0	351.42968368530273	
77	318.73104643821716	fix_post	2		12	75.0	2.5	/experiments/Knapen_AOT/AOT_stimuli/rescaled_final/0493_rv.mp4	0.0	351.9475688934326	0.09999489784240723
78	318.83104133605957	fix_pre	0		119	76.0	2.5	blank	1.0	352.047563791275	0.9918022155761719
78	319.8147954940796	pulse	0	t		76.0	2.5	blank	1.0	353.03131794929504	
78	319.82284355163574	movie	1		301	76.0	2.5	blank	1.0	353.0393660068512	2.508777141571045
78	321.4150595664978	pulse	1	t		76.0	2.5	blank	1.0	354.63158202171326	
78	322.3316206932068	fix_post	2		12	76.0	2.5	blank	1.0	355.54814314842224	0.10001897811889648
79	322.4316396713257	fix_pre	0		120	77.0	2.5	/experiments/Knapen_AOT/AOT_stimuli/rescaled_final/0215_fw.mp4	0.0	355.64816212654114	1.0084724426269531
79	323.0152986049652	pulse	0	t		77.0	2.5	/experiments/Knapen_AOT/AOT_stimuli/rescaled_final/0215_fw.mp4	0.0	356.23182106018066	
79	323.44011211395264	movie	1		275	77.0	2.5	/experiments/Knapen_AOT/AOT_stimuli/rescaled_final/0215_fw.mp4	0.0	356.6566345691681	2.491997718811035
79	324.6135308742523	pulse	1	t		77.0	2.5	/experiments/Knapen_AOT/AOT_stimuli/rescaled_final/0215_fw.mp4	0.0	357.8300533294678	
79	325.9321098327637	fix_post	2		12	77.0	2.5	/experiments/Knapen_AOT/AOT_stimuli/rescaled_final/0215_fw.mp4	0.0	359.1486322879791	0.10008454322814941
80	326.0321943759918	fix_pre	0		120	78.0	2.5	/experiments/Knapen_AOT/AOT_stimuli/rescaled_final/2118_rv.mp4	0.0	359.2487168312073	1.0085129737854004
80	326.2157332897186	pulse	0	t		78.0	2.5	/experiments/Knapen_AOT/AOT_stimuli/rescaled_final/2118_rv.mp4	0.0	359.4322557449341	
80	327.0407073497772	movie	1		285	78.0	2.5	/experiments/Knapen_AOT/AOT_stimuli/rescaled_final/2118_rv.mp4	0.0	360.2572298049927	2.492006301879883
80	327.81401777267456	pulse	1	t		78.0	2.5	/experiments/Knapen_AOT/AOT_stimuli/rescaled_final/2118_rv.mp4	0.0	361.03054022789	
80	329.41398072242737	pulse	1	t		78.0	2.5	/experiments/Knapen_AOT/AOT_stimuli/rescaled_final/2118_rv.mp4	0.0	362.6305031776428	
80	329.5327136516571	fix_post	2		12	78.0	2.5	/experiments/Knapen_AOT/AOT_stimuli/rescaled_final/2118_rv.mp4	0.0	362.74923610687256	0.10003256797790527
81	329.632746219635	fix_pre	0		120	79.0	2.5	/experiments/Knapen_AOT/AOT_stimuli/rescaled_final/1821_fw.mp4	0.0	362.84926867485046	1.0084757804870605
81	330.64122200012207	movie	1		270	79.0	2.5	/experiments/Knapen_AOT/AOT_stimuli/rescaled_final/1821_fw.mp4	0.0	363.8577444553375	2.492265224456787
81	331.0153148174286	pulse	1	t		79.0	2.5	/experiments/Knapen_AOT/AOT_stimuli/rescaled_final/1821_fw.mp4	0.0	364.23183727264404	
81	332.61630272865295	pulse	1	t		79.0	2.5	/experiments/Knapen_AOT/AOT_stimuli/rescaled_final/1821_fw.mp4	0.0	365.8328251838684	
81	333.13348722457886	fix_post	2		12	79.0	2.5	/experiments/Knapen_AOT/AOT_stimuli/rescaled_final/1821_fw.mp4	0.0	366.3500096797943	0.09978985786437988
82	333.23327708244324	fix_pre	0		119	80.0	2.5	/experiments/Knapen_AOT/AOT_stimuli/rescaled_final/0254_rv.mp4	0.0	366.4497995376587	1.0001330375671387
82	334.20905804634094	pulse	0	t		80.0	2.5	/experiments/Knapen_AOT/AOT_stimuli/rescaled_final/0254_rv.mp4	0.0	367.4255805015564	
82	334.2334101200104	movie	1		284	80.0	2.5	/experiments/Knapen_AOT/AOT_stimuli/rescaled_final/0254_rv.mp4	0.0	367.44993257522583	2.500375747680664
82	335.8090810775757	pulse	1	t		80.0	2.5	/experiments/Knapen_AOT/AOT_stimuli/rescaled_final/0254_rv.mp4	0.0	369.02560353279114	
82	336.73378586769104	fix_post	2		12	80.0	2.5	/experiments/Knapen_AOT/AOT_stimuli/rescaled_final/0254_rv.mp4	0.0	369.9503083229065	0.10001850128173828
83	336.8338043689728	fix_pre	0		120	81.0	2.5	/experiments/Knapen_AOT/AOT_stimuli/rescaled_final/0542_fw.mp4	0.0	370.05032682418823	1.0084972381591797
83	337.4090750217438	pulse	0	t		81.0	2.5	/experiments/Knapen_AOT/AOT_stimuli/rescaled_final/0542_fw.mp4	0.0	370.62559747695923	
83	337.84230160713196	movie	1		287	81.0	2.5	/experiments/Knapen_AOT/AOT_stimuli/rescaled_final/0542_fw.mp4	0.0	371.0588240623474	2.49215030670166
83	339.00951385498047	pulse	1	t		81.0	2.5	/experiments/Knapen_AOT/AOT_stimuli/rescaled_final/0542_fw.mp4	0.0	372.2260363101959	
83	340.3344519138336	fix_post	2		12	81.0	2.5	/experiments/Knapen_AOT/AOT_stimuli/rescaled_final/0542_fw.mp4	0.0	373.5509743690491	0.09988832473754883
84	340.43434023857117	fix_pre	0		120	82.0	2.5	/experiments/Knapen_AOT/AOT_stimuli/rescaled_final/0819_fw.mp4	0.0	373.6508626937866	1.0084962844848633
84	340.60968255996704	pulse	0	t		82.0	2.5	/experiments/Knapen_AOT/AOT_stimuli/rescaled_final/0819_fw.mp4	0.0	373.8262050151825	
84	341.44283652305603	movie	1		283	82.0	2.5	/experiments/Knapen_AOT/AOT_stimuli/rescaled_final/0819_fw.mp4	0.0	374.6593589782715	2.492006301879883
84	342.20984649658203	pulse	1	t		82.0	2.5	/experiments/Knapen_AOT/AOT_stimuli/rescaled_final/0819_fw.mp4	0.0	375.4263689517975	
84	343.81015396118164	pulse	1	t		82.0	2.5	/experiments/Knapen_AOT/AOT_stimuli/rescaled_final/0819_fw.mp4	0.0	377.0266764163971	
84	343.9348428249359	fix_post	2		12	82.0	2.5	/experiments/Knapen_AOT/AOT_stimuli/rescaled_final/0819_fw.mp4	0.0	377.15136528015137	0.10005021095275879
85	344.0348930358887	fix_pre	0		120	83.0	2.5	blank	1.0	377.2514154911041	1.0001440048217773
85	345.03503704071045	movie	1		300	83.0	2.5	blank	1.0	378.2515594959259	2.5003507137298584
85	345.41028451919556	pulse	1	t		83.0	2.5	blank	1.0	378.626806974411	
85	347.0105369091034	pulse	1	t		83.0	2.5	blank	1.0	380.22705936431885	
85	347.5353877544403	fix_post	2		12	83.0	2.5	blank	1.0	380.75191020965576	0.11670088768005371
87	347.65208864212036	stim	0		1713					380.8686110973358	14.277155876159668
87	348.61129450798035	pulse	0	t						381.8278169631958	
87	350.21114110946655	pulse	0	t						383.427663564682	
87	351.81126523017883	pulse	0	t						385.0277876853943	
87	353.41151332855225	pulse	0	t						386.6280357837677	
87	355.01173973083496	pulse	0	t						388.2282621860504	
87	356.6120183467865	pulse	0	t						389.82854080200195	
87	358.2122004032135	pulse	0	t						391.42872285842896	
87	359.8124599456787	pulse	0	t						393.02898240089417	
87	361.41280150413513	pulse	0	t						394.6293239593506	
