trial_nr	onset	event_type	phase	response	nr_frames	movie_index	movie_duration	movie_file	blank	onset_abs	duration
0	0.13313841819763184	stim	0		16					17.13185715675354	0.1332547664642334
0	0.2582559585571289	response	0	space						17.256974697113037	
1	0.26639318466186523	stim	0		4644					17.265111923217773	38.71517086029053
1	38.972289085388184	pulse	0	t						55.97100782394409	
1	38.98156404495239	stim	1		1715					55.9802827835083	14.30113673210144
1	40.56456184387207	pulse	1	t						57.56328058242798	
1	42.16462469100952	pulse	1	t						59.16334342956543	
1	43.76484680175781	pulse	1	t						60.76356554031372	
1	45.36508274078369	pulse	1	t						62.3638014793396	
1	46.96546196937561	pulse	1	t						63.96418070793152	
1	48.565512895584106	pulse	1	t						65.56423163414001	
1	50.165722131729126	pulse	1	t						67.16444087028503	
1	51.766316175460815	pulse	1	t						68.76503491401672	
2	53.28270077705383	fix_pre	0		11	0.0	2.5	/experiments/Knapen_AOT/AOT_stimuli/rescaled_final/1675_fw.mp4	0.0	70.28141951560974	0.11685466766357422
2	53.36656618118286	pulse	0	t		0.0	2.5	/experiments/Knapen_AOT/AOT_stimuli/rescaled_final/1675_fw.mp4	0.0	70.36528491973877	
2	53.39955544471741	movie	1		289	0.0	2.5	/experiments/Knapen_AOT/AOT_stimuli/rescaled_final/1675_fw.mp4	0.0	70.39827418327332	2.4835691452026367
2	54.965253591537476	pulse	1	t		0.0	2.5	/experiments/Knapen_AOT/AOT_stimuli/rescaled_final/1675_fw.mp4	0.0	71.96397233009338	
2	55.883124589920044	fix_post	2		12	0.0	2.5	/experiments/Knapen_AOT/AOT_stimuli/rescaled_final/1675_fw.mp4	0.0	72.88184332847595	0.10001444816589355
3	55.98313903808594	fix_pre	0		120	1.0	2.5	/experiments/Knapen_AOT/AOT_stimuli/rescaled_final/1088_rv.mp4	0.0	72.98185777664185	1.0084717273712158
3	56.56666374206543	pulse	0	t		1.0	2.5	/experiments/Knapen_AOT/AOT_stimuli/rescaled_final/1088_rv.mp4	0.0	73.56538248062134	
3	56.99161076545715	movie	1		291	1.0	2.5	/experiments/Knapen_AOT/AOT_stimuli/rescaled_final/1088_rv.mp4	0.0	73.99032950401306	2.4920239448547363
3	58.165255546569824	pulse	1	t		1.0	2.5	/experiments/Knapen_AOT/AOT_stimuli/rescaled_final/1088_rv.mp4	0.0	75.16397428512573	
3	59.48363471031189	fix_post	2		12	1.0	2.5	/experiments/Knapen_AOT/AOT_stimuli/rescaled_final/1088_rv.mp4	0.0	76.4823534488678	0.10001397132873535
4	59.583648681640625	fix_pre	0		120	2.0	2.5	/experiments/Knapen_AOT/AOT_stimuli/rescaled_final/0247_fw.mp4	0.0	76.58236742019653	1.0085434913635254
4	59.76726055145264	pulse	0	t		2.0	2.5	/experiments/Knapen_AOT/AOT_stimuli/rescaled_final/0247_fw.mp4	0.0	76.76597929000854	
4	60.59219217300415	movie	1		285	2.0	2.5	/experiments/Knapen_AOT/AOT_stimuli/rescaled_final/0247_fw.mp4	0.0	77.59091091156006	2.492017984390259
4	61.36533308029175	pulse	1	t		2.0	2.5	/experiments/Knapen_AOT/AOT_stimuli/rescaled_final/0247_fw.mp4	0.0	78.36405181884766	
4	62.96691060066223	pulse	1	t		2.0	2.5	/experiments/Knapen_AOT/AOT_stimuli/rescaled_final/0247_fw.mp4	0.0	79.96562933921814	
4	63.08421015739441	fix_post	2		12	2.0	2.5	/experiments/Knapen_AOT/AOT_stimuli/rescaled_final/0247_fw.mp4	0.0	80.08292889595032	0.10001873970031738
5	63.18422889709473	fix_pre	0		120	3.0	2.5	/experiments/Knapen_AOT/AOT_stimuli/rescaled_final/1830_rv.mp4	0.0	80.18294763565063	1.0084459781646729
5	64.1926748752594	movie	1		282	3.0	2.5	/experiments/Knapen_AOT/AOT_stimuli/rescaled_final/1830_rv.mp4	0.0	81.19139361381531	2.4920685291290283
5	64.5660548210144	pulse	1	t		3.0	2.5	/experiments/Knapen_AOT/AOT_stimuli/rescaled_final/1830_rv.mp4	0.0	81.56477355957031	
5	66.16612267494202	pulse	1	t		3.0	2.5	/experiments/Knapen_AOT/AOT_stimuli/rescaled_final/1830_rv.mp4	0.0	83.16484141349792	
5	66.68474340438843	fix_post	2		12	3.0	2.5	/experiments/Knapen_AOT/AOT_stimuli/rescaled_final/1830_rv.mp4	0.0	83.68346214294434	0.09999299049377441
6	66.7847363948822	fix_pre	0		119	4.0	2.5	/experiments/Knapen_AOT/AOT_stimuli/rescaled_final/0540_rv.mp4	0.0	83.78345513343811	1.0001823902130127
6	67.76874899864197	pulse	0	t		4.0	2.5	/experiments/Knapen_AOT/AOT_stimuli/rescaled_final/0540_rv.mp4	0.0	84.76746773719788	
6	67.78491878509521	movie	1		294	4.0	2.5	/experiments/Knapen_AOT/AOT_stimuli/rescaled_final/0540_rv.mp4	0.0	84.78363752365112	2.5003318786621094
6	69.36730861663818	pulse	1	t		4.0	2.5	/experiments/Knapen_AOT/AOT_stimuli/rescaled_final/0540_rv.mp4	0.0	86.36602735519409	
6	70.28525066375732	fix_post	2		12	4.0	2.5	/experiments/Knapen_AOT/AOT_stimuli/rescaled_final/0540_rv.mp4	0.0	87.28396940231323	0.10001420974731445
7	70.38526487350464	fix_pre	0		120	5.0	2.5	blank	1.0	87.38398361206055	1.0001604557037354
7	70.96892976760864	pulse	0	t		5.0	2.5	blank	1.0	87.96764850616455	
7	71.38542532920837	movie	1		300	5.0	2.5	blank	1.0	88.38414406776428	2.5003604888916016
7	72.56913423538208	pulse	1	t		5.0	2.5	blank	1.0	89.56785297393799	
7	73.88578581809998	fix_post	2		12	5.0	2.5	blank	1.0	90.88450455665588	0.1000213623046875
8	73.98580718040466	fix_pre	0		120	6.0	2.5	/experiments/Knapen_AOT/AOT_stimuli/rescaled_final/0143_fw.mp4	0.0	90.98452591896057	1.0084941387176514
8	74.16148328781128	pulse	0	t		6.0	2.5	/experiments/Knapen_AOT/AOT_stimuli/rescaled_final/0143_fw.mp4	0.0	91.16020202636719	
8	74.99430131912231	movie	1		273	6.0	2.5	/experiments/Knapen_AOT/AOT_stimuli/rescaled_final/0143_fw.mp4	0.0	91.99302005767822	2.492094039916992
8	75.76149201393127	pulse	1	t		6.0	2.5	/experiments/Knapen_AOT/AOT_stimuli/rescaled_final/0143_fw.mp4	0.0	92.76021075248718	
8	77.36155605316162	pulse	1	t		6.0	2.5	/experiments/Knapen_AOT/AOT_stimuli/rescaled_final/0143_fw.mp4	0.0	94.36027479171753	
8	77.4863953590393	fix_post	2		12	6.0	2.5	/experiments/Knapen_AOT/AOT_stimuli/rescaled_final/0143_fw.mp4	0.0	94.48511409759521	0.09995579719543457
9	77.58635115623474	fix_pre	0		120	7.0	2.5	/experiments/Knapen_AOT/AOT_stimuli/rescaled_final/1224_rv.mp4	0.0	94.58506989479065	1.0085117816925049
9	78.59486293792725	movie	1		270	7.0	2.5	/experiments/Knapen_AOT/AOT_stimuli/rescaled_final/1224_rv.mp4	0.0	95.59358167648315	2.492021083831787
9	78.96178317070007	pulse	1	t		7.0	2.5	/experiments/Knapen_AOT/AOT_stimuli/rescaled_final/1224_rv.mp4	0.0	95.96050190925598	
9	80.56152415275574	pulse	1	t		7.0	2.5	/experiments/Knapen_AOT/AOT_stimuli/rescaled_final/1224_rv.mp4	0.0	97.56024289131165	
9	81.08688402175903	fix_post	2		12	7.0	2.5	/experiments/Knapen_AOT/AOT_stimuli/rescaled_final/1224_rv.mp4	0.0	98.08560276031494	0.10000920295715332
10	81.18689322471619	fix_pre	0		118	8.0	2.5	/experiments/Knapen_AOT/AOT_stimuli/rescaled_final/0221_fw.mp4	0.0	98.1856119632721	0.9918437004089355
10	82.16232061386108	pulse	0	t		8.0	2.5	/experiments/Knapen_AOT/AOT_stimuli/rescaled_final/0221_fw.mp4	0.0	99.16103935241699	
10	82.17873692512512	movie	1		270	8.0	2.5	/experiments/Knapen_AOT/AOT_stimuli/rescaled_final/0221_fw.mp4	0.0	99.17745566368103	2.5003509521484375
10	83.76182889938354	pulse	1	t		8.0	2.5	/experiments/Knapen_AOT/AOT_stimuli/rescaled_final/0221_fw.mp4	0.0	100.76054763793945	
10	84.67908787727356	fix_post	2		12	8.0	2.5	/experiments/Knapen_AOT/AOT_stimuli/rescaled_final/0221_fw.mp4	0.0	101.67780661582947	0.10002589225769043
11	84.77911376953125	fix_pre	0		120	9.0	2.5	/experiments/Knapen_AOT/AOT_stimuli/rescaled_final/0907_fw.mp4	0.0	101.77783250808716	1.0085809230804443
11	85.36284494400024	pulse	0	t		9.0	2.5	/experiments/Knapen_AOT/AOT_stimuli/rescaled_final/0907_fw.mp4	0.0	102.36156368255615	
11	85.7876946926117	movie	1		286	9.0	2.5	/experiments/Knapen_AOT/AOT_stimuli/rescaled_final/0907_fw.mp4	0.0	102.7864134311676	2.4919679164886475
11	86.96308183670044	pulse	1	t		9.0	2.5	/experiments/Knapen_AOT/AOT_stimuli/rescaled_final/0907_fw.mp4	0.0	103.96180057525635	
11	88.27966260910034	fix_post	2		12	9.0	2.5	/experiments/Knapen_AOT/AOT_stimuli/rescaled_final/0907_fw.mp4	0.0	105.27838134765625	0.09997320175170898
12	88.37963581085205	fix_pre	0		120	10.0	2.5	/experiments/Knapen_AOT/AOT_stimuli/rescaled_final/0660_fw.mp4	0.0	105.37835454940796	1.0085206031799316
12	88.56320667266846	pulse	0	t		10.0	2.5	/experiments/Knapen_AOT/AOT_stimuli/rescaled_final/0660_fw.mp4	0.0	105.56192541122437	
12	89.38815641403198	movie	1		279	10.0	2.5	/experiments/Knapen_AOT/AOT_stimuli/rescaled_final/0660_fw.mp4	0.0	106.38687515258789	2.4920294284820557
12	90.16254925727844	pulse	1	t		10.0	2.5	/experiments/Knapen_AOT/AOT_stimuli/rescaled_final/0660_fw.mp4	0.0	107.16126799583435	
12	91.76231169700623	pulse	1	t		10.0	2.5	/experiments/Knapen_AOT/AOT_stimuli/rescaled_final/0660_fw.mp4	0.0	108.76103043556213	
12	91.88018584251404	fix_post	2		12	10.0	2.5	/experiments/Knapen_AOT/AOT_stimuli/rescaled_final/0660_fw.mp4	0.0	108.87890458106995	0.10014486312866211
13	91.9803307056427	fix_pre	0		120	11.0	2.5	/experiments/Knapen_AOT/AOT_stimuli/rescaled_final/0780_fw.mp4	0.0	108.97904944419861	1.0083723068237305
13	92.98870301246643	movie	1		277	11.0	2.5	/experiments/Knapen_AOT/AOT_stimuli/rescaled_final/0780_fw.mp4	0.0	109.98742175102234	2.492030382156372
13	93.36214137077332	pulse	1	t		11.0	2.5	/experiments/Knapen_AOT/AOT_stimuli/rescaled_final/0780_fw.mp4	0.0	110.36086010932922	
13	94.96200442314148	pulse	1	t		11.0	2.5	/experiments/Knapen_AOT/AOT_stimuli/rescaled_final/0780_fw.mp4	0.0	111.96072316169739	
13	95.4807333946228	fix_post	2		12	11.0	2.5	/experiments/Knapen_AOT/AOT_stimuli/rescaled_final/0780_fw.mp4	0.0	112.47945213317871	0.09999537467956543
14	95.58072876930237	fix_pre	0		119	12.0	2.5	blank	1.0	112.57944750785828	0.9917914867401123
14	96.5643892288208	pulse	0	t		12.0	2.5	blank	1.0	113.56310796737671	
14	96.57252025604248	movie	1		301	12.0	2.5	blank	1.0	113.57123899459839	2.5087223052978516
14	98.16463351249695	pulse	1	t		12.0	2.5	blank	1.0	115.16335225105286	
14	99.08124256134033	fix_post	2		12	12.0	2.5	blank	1.0	116.07996129989624	0.10003304481506348
15	99.1812756061554	fix_pre	0		120	13.0	2.5	/experiments/Knapen_AOT/AOT_stimuli/rescaled_final/0607_rv.mp4	0.0	116.1799943447113	1.0084822177886963
15	99.76487112045288	pulse	0	t		13.0	2.5	/experiments/Knapen_AOT/AOT_stimuli/rescaled_final/0607_rv.mp4	0.0	116.76358985900879	
15	100.18975782394409	movie	1		279	13.0	2.5	/experiments/Knapen_AOT/AOT_stimuli/rescaled_final/0607_rv.mp4	0.0	117.1884765625	2.492032289505005
15	101.36339592933655	pulse	1	t		13.0	2.5	/experiments/Knapen_AOT/AOT_stimuli/rescaled_final/0607_rv.mp4	0.0	118.36211466789246	
15	102.6817901134491	fix_post	2		12	13.0	2.5	/experiments/Knapen_AOT/AOT_stimuli/rescaled_final/0607_rv.mp4	0.0	119.680508852005	0.10002827644348145
16	102.78181838989258	fix_pre	0		120	14.0	2.5	/experiments/Knapen_AOT/AOT_stimuli/rescaled_final/0828_fw.mp4	0.0	119.78053712844849	1.0085351467132568
16	102.9653730392456	pulse	0	t		14.0	2.5	/experiments/Knapen_AOT/AOT_stimuli/rescaled_final/0828_fw.mp4	0.0	119.96409177780151	
16	103.79035353660583	movie	1		286	14.0	2.5	/experiments/Knapen_AOT/AOT_stimuli/rescaled_final/0828_fw.mp4	0.0	120.78907227516174	2.491997718811035
16	104.56367182731628	pulse	1	t		14.0	2.5	/experiments/Knapen_AOT/AOT_stimuli/rescaled_final/0828_fw.mp4	0.0	121.56239056587219	
16	106.16390204429626	pulse	1	t		14.0	2.5	/experiments/Knapen_AOT/AOT_stimuli/rescaled_final/0828_fw.mp4	0.0	123.16262078285217	
16	106.28235125541687	fix_post	2		12	14.0	2.5	/experiments/Knapen_AOT/AOT_stimuli/rescaled_final/0828_fw.mp4	0.0	123.28106999397278	0.10000729560852051
17	106.38235855102539	fix_pre	0		120	15.0	2.5	/experiments/Knapen_AOT/AOT_stimuli/rescaled_final/0924_fw.mp4	0.0	123.3810772895813	1.00852370262146
17	107.39088225364685	movie	1		284	15.0	2.5	/experiments/Knapen_AOT/AOT_stimuli/rescaled_final/0924_fw.mp4	0.0	124.38960099220276	2.4920167922973633
17	107.7647385597229	pulse	1	t		15.0	2.5	/experiments/Knapen_AOT/AOT_stimuli/rescaled_final/0924_fw.mp4	0.0	124.76345729827881	
17	109.36569690704346	pulse	1	t		15.0	2.5	/experiments/Knapen_AOT/AOT_stimuli/rescaled_final/0924_fw.mp4	0.0	126.36441564559937	
17	109.88289904594421	fix_post	2		12	15.0	2.5	/experiments/Knapen_AOT/AOT_stimuli/rescaled_final/0924_fw.mp4	0.0	126.88161778450012	0.10001301765441895
18	109.98291206359863	fix_pre	0		119	16.0	2.5	/experiments/Knapen_AOT/AOT_stimuli/rescaled_final/1564_rv.mp4	0.0	126.98163080215454	1.0001204013824463
18	110.96653985977173	pulse	0	t		16.0	2.5	/experiments/Knapen_AOT/AOT_stimuli/rescaled_final/1564_rv.mp4	0.0	127.96525859832764	
18	110.98303246498108	movie	1		282	16.0	2.5	/experiments/Knapen_AOT/AOT_stimuli/rescaled_final/1564_rv.mp4	0.0	127.98175120353699	2.500379800796509
18	112.56526207923889	pulse	1	t		16.0	2.5	/experiments/Knapen_AOT/AOT_stimuli/rescaled_final/1564_rv.mp4	0.0	129.5639808177948	
18	113.48341226577759	fix_post	2		12	16.0	2.5	/experiments/Knapen_AOT/AOT_stimuli/rescaled_final/1564_rv.mp4	0.0	130.4821310043335	0.10001015663146973
19	113.58342242240906	fix_pre	0		120	17.0	2.5	/experiments/Knapen_AOT/AOT_stimuli/rescaled_final/0911_rv.mp4	0.0	130.58214116096497	1.0084941387176514
19	114.1670413017273	pulse	0	t		17.0	2.5	/experiments/Knapen_AOT/AOT_stimuli/rescaled_final/0911_rv.mp4	0.0	131.1657600402832	
19	114.59191656112671	movie	1		289	17.0	2.5	/experiments/Knapen_AOT/AOT_stimuli/rescaled_final/0911_rv.mp4	0.0	131.59063529968262	2.492039918899536
19	115.76536774635315	pulse	1	t		17.0	2.5	/experiments/Knapen_AOT/AOT_stimuli/rescaled_final/0911_rv.mp4	0.0	132.76408648490906	
19	117.08395648002625	fix_post	2		12	17.0	2.5	/experiments/Knapen_AOT/AOT_stimuli/rescaled_final/0911_rv.mp4	0.0	134.08267521858215	0.10003399848937988
20	117.18399047851562	fix_pre	0		120	18.0	2.5	/experiments/Knapen_AOT/AOT_stimuli/rescaled_final/1628_fw.mp4	0.0	134.18270921707153	1.0084943771362305
20	117.36753702163696	pulse	0	t		18.0	2.5	/experiments/Knapen_AOT/AOT_stimuli/rescaled_final/1628_fw.mp4	0.0	134.36625576019287	
20	118.19248485565186	movie	1		281	18.0	2.5	/experiments/Knapen_AOT/AOT_stimuli/rescaled_final/1628_fw.mp4	0.0	135.19120359420776	2.491999626159668
20	118.96566104888916	pulse	1	t		18.0	2.5	/experiments/Knapen_AOT/AOT_stimuli/rescaled_final/1628_fw.mp4	0.0	135.96437978744507	
20	120.56612491607666	pulse	1	t		18.0	2.5	/experiments/Knapen_AOT/AOT_stimuli/rescaled_final/1628_fw.mp4	0.0	137.56484365463257	
20	120.68448448181152	fix_post	2		12	18.0	2.5	/experiments/Knapen_AOT/AOT_stimuli/rescaled_final/1628_fw.mp4	0.0	137.68320322036743	0.1000356674194336
21	120.78452014923096	fix_pre	0		120	19.0	2.5	/experiments/Knapen_AOT/AOT_stimuli/rescaled_final/1773_fw.mp4	0.0	137.78323888778687	1.0084967613220215
21	121.79301691055298	movie	1		276	19.0	2.5	/experiments/Knapen_AOT/AOT_stimuli/rescaled_final/1773_fw.mp4	0.0	138.7917356491089	2.492018938064575
21	122.16677761077881	pulse	1	t		19.0	2.5	/experiments/Knapen_AOT/AOT_stimuli/rescaled_final/1773_fw.mp4	0.0	139.16549634933472	
21	123.76864719390869	pulse	1	t		19.0	2.5	/experiments/Knapen_AOT/AOT_stimuli/rescaled_final/1773_fw.mp4	0.0	140.7673659324646	
21	124.28503584861755	fix_post	2		12	19.0	2.5	/experiments/Knapen_AOT/AOT_stimuli/rescaled_final/1773_fw.mp4	0.0	141.28375458717346	0.10004472732543945
22	124.385080575943	fix_pre	0		119	20.0	2.5	blank	1.0	141.3837993144989	0.9919366836547852
22	125.36872887611389	pulse	0	t		20.0	2.5	blank	1.0	142.3674476146698	
22	125.37701725959778	movie	1		301	20.0	2.5	blank	1.0	142.3757359981537	2.5085580348968506
22	126.962073802948	pulse	1	t		20.0	2.5	blank	1.0	143.9607925415039	
22	127.88557529449463	fix_post	2		12	20.0	2.5	blank	1.0	144.88429403305054	0.10004615783691406
23	127.98562145233154	fix_pre	0		120	21.0	2.5	/experiments/Knapen_AOT/AOT_stimuli/rescaled_final/1817_fw.mp4	0.0	144.98434019088745	1.0085349082946777
23	128.5694031715393	pulse	0	t		21.0	2.5	/experiments/Knapen_AOT/AOT_stimuli/rescaled_final/1817_fw.mp4	0.0	145.56812191009521	
23	128.99415636062622	movie	1		283	21.0	2.5	/experiments/Knapen_AOT/AOT_stimuli/rescaled_final/1817_fw.mp4	0.0	145.99287509918213	2.491997480392456
23	130.1675353050232	pulse	1	t		21.0	2.5	/experiments/Knapen_AOT/AOT_stimuli/rescaled_final/1817_fw.mp4	0.0	147.1662540435791	
23	131.48615384101868	fix_post	2		12	21.0	2.5	/experiments/Knapen_AOT/AOT_stimuli/rescaled_final/1817_fw.mp4	0.0	148.48487257957458	0.09999632835388184
24	131.58615016937256	fix_pre	0		120	22.0	2.5	/experiments/Knapen_AOT/AOT_stimuli/rescaled_final/0894_rv.mp4	0.0	148.58486890792847	1.0084950923919678
24	131.76208353042603	pulse	0	t		22.0	2.5	/experiments/Knapen_AOT/AOT_stimuli/rescaled_final/0894_rv.mp4	0.0	148.76080226898193	
24	132.59464526176453	movie	1		279	22.0	2.5	/experiments/Knapen_AOT/AOT_stimuli/rescaled_final/0894_rv.mp4	0.0	149.59336400032043	2.492037057876587
24	133.36188864707947	pulse	1	t		22.0	2.5	/experiments/Knapen_AOT/AOT_stimuli/rescaled_final/0894_rv.mp4	0.0	150.36060738563538	
24	134.961989402771	pulse	1	t		22.0	2.5	/experiments/Knapen_AOT/AOT_stimuli/rescaled_final/0894_rv.mp4	0.0	151.9607081413269	
24	135.0866823196411	fix_post	2		12	22.0	2.5	/experiments/Knapen_AOT/AOT_stimuli/rescaled_final/0894_rv.mp4	0.0	152.08540105819702	0.09998822212219238
25	135.1866705417633	fix_pre	0		120	23.0	2.5	/experiments/Knapen_AOT/AOT_stimuli/rescaled_final/0437_rv.mp4	0.0	152.1853892803192	1.0085885524749756
25	136.19525909423828	movie	1		282	23.0	2.5	/experiments/Knapen_AOT/AOT_stimuli/rescaled_final/0437_rv.mp4	0.0	153.1939778327942	2.4919679164886475
25	136.56247210502625	pulse	1	t		23.0	2.5	/experiments/Knapen_AOT/AOT_stimuli/rescaled_final/0437_rv.mp4	0.0	153.56119084358215	
25	138.16232442855835	pulse	1	t		23.0	2.5	/experiments/Knapen_AOT/AOT_stimuli/rescaled_final/0437_rv.mp4	0.0	155.16104316711426	
25	138.68722701072693	fix_post	2		12	23.0	2.5	/experiments/Knapen_AOT/AOT_stimuli/rescaled_final/0437_rv.mp4	0.0	155.68594574928284	0.09999203681945801
26	138.7872190475464	fix_pre	0		118	24.0	2.5	/experiments/Knapen_AOT/AOT_stimuli/rescaled_final/0606_fw.mp4	0.0	155.7859377861023	0.9918498992919922
26	139.76262736320496	pulse	0	t		24.0	2.5	/experiments/Knapen_AOT/AOT_stimuli/rescaled_final/0606_fw.mp4	0.0	156.76134610176086	
26	139.77906894683838	movie	1		287	24.0	2.5	/experiments/Knapen_AOT/AOT_stimuli/rescaled_final/0606_fw.mp4	0.0	156.7777876853943	2.500391960144043
26	141.36186504364014	pulse	1	t		24.0	2.5	/experiments/Knapen_AOT/AOT_stimuli/rescaled_final/0606_fw.mp4	0.0	158.36058378219604	
26	142.27946090698242	fix_post	2		12	24.0	2.5	/experiments/Knapen_AOT/AOT_stimuli/rescaled_final/0606_fw.mp4	0.0	159.27817964553833	0.10000085830688477
27	142.3794617652893	fix_pre	0		120	25.0	2.5	/experiments/Knapen_AOT/AOT_stimuli/rescaled_final/1679_fw.mp4	0.0	159.37818050384521	1.0084795951843262
27	142.96303939819336	pulse	0	t		25.0	2.5	/experiments/Knapen_AOT/AOT_stimuli/rescaled_final/1679_fw.mp4	0.0	159.96175813674927	
27	143.38794136047363	movie	1		268	25.0	2.5	/experiments/Knapen_AOT/AOT_stimuli/rescaled_final/1679_fw.mp4	0.0	160.38666009902954	2.491999626159668
27	144.56177711486816	pulse	1	t		25.0	2.5	/experiments/Knapen_AOT/AOT_stimuli/rescaled_final/1679_fw.mp4	0.0	161.56049585342407	
27	145.8799409866333	fix_post	2		12	25.0	2.5	/experiments/Knapen_AOT/AOT_stimuli/rescaled_final/1679_fw.mp4	0.0	162.8786597251892	0.10001492500305176
28	145.97995591163635	fix_pre	0		120	26.0	2.5	/experiments/Knapen_AOT/AOT_stimuli/rescaled_final/0894_fw.mp4	0.0	162.97867465019226	1.0085136890411377
28	146.16355419158936	pulse	0	t		26.0	2.5	/experiments/Knapen_AOT/AOT_stimuli/rescaled_final/0894_fw.mp4	0.0	163.16227293014526	
28	146.9884696006775	movie	1		282	26.0	2.5	/experiments/Knapen_AOT/AOT_stimuli/rescaled_final/0894_fw.mp4	0.0	163.9871883392334	2.4920618534088135
28	147.76211810112	pulse	1	t		26.0	2.5	/experiments/Knapen_AOT/AOT_stimuli/rescaled_final/0894_fw.mp4	0.0	164.7608368396759	
28	149.36229181289673	pulse	1	t		26.0	2.5	/experiments/Knapen_AOT/AOT_stimuli/rescaled_final/0894_fw.mp4	0.0	166.36101055145264	
28	149.4805314540863	fix_post	2		12	26.0	2.5	/experiments/Knapen_AOT/AOT_stimuli/rescaled_final/0894_fw.mp4	0.0	166.4792501926422	0.10002613067626953
29	149.58055758476257	fix_pre	0		120	27.0	2.5	/experiments/Knapen_AOT/AOT_stimuli/rescaled_final/1736_fw.mp4	0.0	166.57927632331848	1.0084590911865234
29	150.5890166759491	movie	1		272	27.0	2.5	/experiments/Knapen_AOT/AOT_stimuli/rescaled_final/1736_fw.mp4	0.0	167.587735414505	2.492013931274414
29	150.96437549591064	pulse	1	t		27.0	2.5	/experiments/Knapen_AOT/AOT_stimuli/rescaled_final/1736_fw.mp4	0.0	167.96309423446655	
29	152.56267976760864	pulse	1	t		27.0	2.5	/experiments/Knapen_AOT/AOT_stimuli/rescaled_final/1736_fw.mp4	0.0	169.56139850616455	
29	153.0810306072235	fix_post	2		12	27.0	2.5	/experiments/Knapen_AOT/AOT_stimuli/rescaled_final/1736_fw.mp4	0.0	170.07974934577942	0.10002684593200684
30	153.18105745315552	fix_pre	0		119	28.0	2.5	blank	1.0	170.17977619171143	0.9917893409729004
30	154.16507506370544	pulse	0	t		28.0	2.5	blank	1.0	171.16379380226135	
30	154.17284679412842	movie	1		301	28.0	2.5	blank	1.0	171.17156553268433	2.5088019371032715
30	155.76498889923096	pulse	1	t		28.0	2.5	blank	1.0	172.76370763778687	
30	156.6816487312317	fix_post	2		12	28.0	2.5	blank	1.0	173.6803674697876	0.09998202323913574
31	156.78163075447083	fix_pre	0		120	29.0	2.5	/experiments/Knapen_AOT/AOT_stimuli/rescaled_final/0437_rv.mp4	0.0	173.78034949302673	1.008594274520874
31	157.36524534225464	pulse	0	t		29.0	2.5	/experiments/Knapen_AOT/AOT_stimuli/rescaled_final/0437_rv.mp4	0.0	174.36396408081055	
31	157.7902250289917	movie	1		276	29.0	2.5	/experiments/Knapen_AOT/AOT_stimuli/rescaled_final/0437_rv.mp4	0.0	174.7889437675476	2.491896390914917
31	158.96385598182678	pulse	1	t		29.0	2.5	/experiments/Knapen_AOT/AOT_stimuli/rescaled_final/0437_rv.mp4	0.0	175.9625747203827	
31	160.28212141990662	fix_post	2		12	29.0	2.5	/experiments/Knapen_AOT/AOT_stimuli/rescaled_final/0437_rv.mp4	0.0	177.28084015846252	0.10008430480957031
32	160.3822057247162	fix_pre	0		120	30.0	2.5	/experiments/Knapen_AOT/AOT_stimuli/rescaled_final/0247_rv.mp4	0.0	177.3809244632721	1.0084989070892334
32	160.56573867797852	pulse	0	t		30.0	2.5	/experiments/Knapen_AOT/AOT_stimuli/rescaled_final/0247_rv.mp4	0.0	177.56445741653442	
32	161.39070463180542	movie	1		280	30.0	2.5	/experiments/Knapen_AOT/AOT_stimuli/rescaled_final/0247_rv.mp4	0.0	178.38942337036133	2.4919960498809814
32	162.16396021842957	pulse	1	t		30.0	2.5	/experiments/Knapen_AOT/AOT_stimuli/rescaled_final/0247_rv.mp4	0.0	179.16267895698547	
32	163.76430678367615	pulse	1	t		30.0	2.5	/experiments/Knapen_AOT/AOT_stimuli/rescaled_final/0247_rv.mp4	0.0	180.76302552223206	
32	163.8827006816864	fix_post	2		12	30.0	2.5	/experiments/Knapen_AOT/AOT_stimuli/rescaled_final/0247_rv.mp4	0.0	180.8814194202423	0.10007834434509277
33	163.9827790260315	fix_pre	0		120	31.0	2.5	/experiments/Knapen_AOT/AOT_stimuli/rescaled_final/0139_fw.mp4	0.0	180.9814977645874	1.008430004119873
33	164.99120903015137	movie	1		289	31.0	2.5	/experiments/Knapen_AOT/AOT_stimuli/rescaled_final/0139_fw.mp4	0.0	181.98992776870728	2.491986036300659
33	165.36481142044067	pulse	1	t		31.0	2.5	/experiments/Knapen_AOT/AOT_stimuli/rescaled_final/0139_fw.mp4	0.0	182.36353015899658	
33	166.96518969535828	pulse	1	t		31.0	2.5	/experiments/Knapen_AOT/AOT_stimuli/rescaled_final/0139_fw.mp4	0.0	183.96390843391418	
33	167.48319506645203	fix_post	2		12	31.0	2.5	/experiments/Knapen_AOT/AOT_stimuli/rescaled_final/0139_fw.mp4	0.0	184.48191380500793	0.10000038146972656
34	167.58319544792175	fix_pre	0		119	32.0	2.5	/experiments/Knapen_AOT/AOT_stimuli/rescaled_final/1314_rv.mp4	0.0	184.58191418647766	1.0001707077026367
34	168.5670130252838	pulse	0	t		32.0	2.5	/experiments/Knapen_AOT/AOT_stimuli/rescaled_final/1314_rv.mp4	0.0	185.56573176383972	
34	168.5833661556244	movie	1		276	32.0	2.5	/experiments/Knapen_AOT/AOT_stimuli/rescaled_final/1314_rv.mp4	0.0	185.5820848941803	2.500446319580078
34	170.16558957099915	pulse	1	t		32.0	2.5	/experiments/Knapen_AOT/AOT_stimuli/rescaled_final/1314_rv.mp4	0.0	187.16430830955505	
34	171.08381247520447	fix_post	2		12	32.0	2.5	/experiments/Knapen_AOT/AOT_stimuli/rescaled_final/1314_rv.mp4	0.0	188.08253121376038	0.10001993179321289
35	171.18383240699768	fix_pre	0		120	33.0	2.5	/experiments/Knapen_AOT/AOT_stimuli/rescaled_final/0153_fw.mp4	0.0	188.1825511455536	1.008392572402954
35	171.76741528511047	pulse	0	t		33.0	2.5	/experiments/Knapen_AOT/AOT_stimuli/rescaled_final/0153_fw.mp4	0.0	188.76613402366638	
35	172.19222497940063	movie	1		275	33.0	2.5	/experiments/Knapen_AOT/AOT_stimuli/rescaled_final/0153_fw.mp4	0.0	189.19094371795654	2.492041826248169
35	173.36643862724304	pulse	1	t		33.0	2.5	/experiments/Knapen_AOT/AOT_stimuli/rescaled_final/0153_fw.mp4	0.0	190.36515736579895	
35	174.6842668056488	fix_post	2		12	33.0	2.5	/experiments/Knapen_AOT/AOT_stimuli/rescaled_final/0153_fw.mp4	0.0	191.6829855442047	0.1000223159790039
36	174.7842891216278	fix_pre	0		120	34.0	2.5	blank	1.0	191.78300786018372	1.0001661777496338
36	174.96794176101685	pulse	0	t		34.0	2.5	blank	1.0	191.96666049957275	
36	175.78445529937744	movie	1		300	34.0	2.5	blank	1.0	192.78317403793335	2.5004069805145264
36	176.56814050674438	pulse	1	t		34.0	2.5	blank	1.0	193.5668592453003	
36	178.1683394908905	pulse	1	t		34.0	2.5	blank	1.0	195.1670582294464	
36	178.28486227989197	fix_post	2		12	34.0	2.5	blank	1.0	195.28358101844788	0.10007309913635254
37	178.38493537902832	fix_pre	0		120	35.0	2.5	/experiments/Knapen_AOT/AOT_stimuli/rescaled_final/0443_rv.mp4	0.0	195.38365411758423	1.0084259510040283
37	179.39336133003235	movie	1		276	35.0	2.5	/experiments/Knapen_AOT/AOT_stimuli/rescaled_final/0443_rv.mp4	0.0	196.39208006858826	2.492002487182617
37	179.76737880706787	pulse	1	t		35.0	2.5	/experiments/Knapen_AOT/AOT_stimuli/rescaled_final/0443_rv.mp4	0.0	196.76609754562378	
37	181.36736941337585	pulse	1	t		35.0	2.5	/experiments/Knapen_AOT/AOT_stimuli/rescaled_final/0443_rv.mp4	0.0	198.36608815193176	
37	181.88536381721497	fix_post	2		12	35.0	2.5	/experiments/Knapen_AOT/AOT_stimuli/rescaled_final/0443_rv.mp4	0.0	198.88408255577087	0.10001063346862793
38	181.9853744506836	fix_pre	0		119	36.0	2.5	/experiments/Knapen_AOT/AOT_stimuli/rescaled_final/0365_fw.mp4	0.0	198.9840931892395	1.0001897811889648
38	182.96127581596375	pulse	0	t		36.0	2.5	/experiments/Knapen_AOT/AOT_stimuli/rescaled_final/0365_fw.mp4	0.0	199.95999455451965	
38	182.98556423187256	movie	1		287	36.0	2.5	/experiments/Knapen_AOT/AOT_stimuli/rescaled_final/0365_fw.mp4	0.0	199.98428297042847	2.500399351119995
38	184.56157755851746	pulse	1	t		36.0	2.5	/experiments/Knapen_AOT/AOT_stimuli/rescaled_final/0365_fw.mp4	0.0	201.56029629707336	
38	185.48596358299255	fix_post	2		12	36.0	2.5	/experiments/Knapen_AOT/AOT_stimuli/rescaled_final/0365_fw.mp4	0.0	202.48468232154846	0.10001087188720703
39	185.58597445487976	fix_pre	0		120	37.0	2.5	/experiments/Knapen_AOT/AOT_stimuli/rescaled_final/0353_rv.mp4	0.0	202.58469319343567	1.0084269046783447
39	186.16132831573486	pulse	0	t		37.0	2.5	/experiments/Knapen_AOT/AOT_stimuli/rescaled_final/0353_rv.mp4	0.0	203.16004705429077	
39	186.5944013595581	movie	1		282	37.0	2.5	/experiments/Knapen_AOT/AOT_stimuli/rescaled_final/0353_rv.mp4	0.0	203.593120098114	2.4920384883880615
39	187.77002787590027	pulse	1	t		37.0	2.5	/experiments/Knapen_AOT/AOT_stimuli/rescaled_final/0353_rv.mp4	0.0	204.76874661445618	
39	189.08643984794617	fix_post	2		12	37.0	2.5	/experiments/Knapen_AOT/AOT_stimuli/rescaled_final/0353_rv.mp4	0.0	206.08515858650208	0.10005044937133789
40	189.1864902973175	fix_pre	0		120	38.0	2.5	/experiments/Knapen_AOT/AOT_stimuli/rescaled_final/0285_rv.mp4	0.0	206.1852090358734	1.0084929466247559
40	189.36188125610352	pulse	0	t		38.0	2.5	/experiments/Knapen_AOT/AOT_stimuli/rescaled_final/0285_rv.mp4	0.0	206.36059999465942	
40	190.19498324394226	movie	1		290	38.0	2.5	/experiments/Knapen_AOT/AOT_stimuli/rescaled_final/0285_rv.mp4	0.0	207.19370198249817	2.4920852184295654
40	190.96191573143005	pulse	1	t		38.0	2.5	/experiments/Knapen_AOT/AOT_stimuli/rescaled_final/0285_rv.mp4	0.0	207.96063446998596	
40	192.56221628189087	pulse	1	t		38.0	2.5	/experiments/Knapen_AOT/AOT_stimuli/rescaled_final/0285_rv.mp4	0.0	209.56093502044678	
40	192.68706846237183	fix_post	2		12	38.0	2.5	/experiments/Knapen_AOT/AOT_stimuli/rescaled_final/0285_rv.mp4	0.0	209.68578720092773	0.09996199607849121
41	192.78703045845032	fix_pre	0		120	39.0	2.5	/experiments/Knapen_AOT/AOT_stimuli/rescaled_final/1178_rv.mp4	0.0	209.78574919700623	1.00844407081604
41	193.79547452926636	movie	1		276	39.0	2.5	/experiments/Knapen_AOT/AOT_stimuli/rescaled_final/1178_rv.mp4	0.0	210.79419326782227	2.492041826248169
41	194.16127753257751	pulse	1	t		39.0	2.5	/experiments/Knapen_AOT/AOT_stimuli/rescaled_final/1178_rv.mp4	0.0	211.15999627113342	
41	195.7626588344574	pulse	1	t		39.0	2.5	/experiments/Knapen_AOT/AOT_stimuli/rescaled_final/1178_rv.mp4	0.0	212.7613775730133	
41	196.28751635551453	fix_post	2		12	39.0	2.5	/experiments/Knapen_AOT/AOT_stimuli/rescaled_final/1178_rv.mp4	0.0	213.28623509407043	0.10002756118774414
42	196.38754391670227	fix_pre	0		118	40.0	2.5	/experiments/Knapen_AOT/AOT_stimuli/rescaled_final/0812_fw.mp4	0.0	213.38626265525818	0.9918668270111084
42	197.3631935119629	pulse	0	t		40.0	2.5	/experiments/Knapen_AOT/AOT_stimuli/rescaled_final/0812_fw.mp4	0.0	214.3619122505188	
42	197.37941074371338	movie	1		286	40.0	2.5	/experiments/Knapen_AOT/AOT_stimuli/rescaled_final/0812_fw.mp4	0.0	214.3781294822693	2.5003132820129395
42	198.96168756484985	pulse	1	t		40.0	2.5	/experiments/Knapen_AOT/AOT_stimuli/rescaled_final/0812_fw.mp4	0.0	215.96040630340576	
42	199.87972402572632	fix_post	2		12	40.0	2.5	/experiments/Knapen_AOT/AOT_stimuli/rescaled_final/0812_fw.mp4	0.0	216.87844276428223	0.10002470016479492
43	199.9797487258911	fix_pre	0		120	41.0	2.5	/experiments/Knapen_AOT/AOT_stimuli/rescaled_final/1742_fw.mp4	0.0	216.97846746444702	1.008507251739502
43	200.5634126663208	pulse	0	t		41.0	2.5	/experiments/Knapen_AOT/AOT_stimuli/rescaled_final/1742_fw.mp4	0.0	217.5621314048767	
43	200.98825597763062	movie	1		293	41.0	2.5	/experiments/Knapen_AOT/AOT_stimuli/rescaled_final/1742_fw.mp4	0.0	217.98697471618652	2.4920542240142822
43	202.16234612464905	pulse	1	t		41.0	2.5	/experiments/Knapen_AOT/AOT_stimuli/rescaled_final/1742_fw.mp4	0.0	219.16106486320496	
43	203.4803102016449	fix_post	2		12	41.0	2.5	/experiments/Knapen_AOT/AOT_stimuli/rescaled_final/1742_fw.mp4	0.0	220.4790289402008	0.1000053882598877
44	203.58031558990479	fix_pre	0		120	42.0	2.5	blank	1.0	220.5790343284607	1.0001285076141357
44	203.76408052444458	pulse	0	t		42.0	2.5	blank	1.0	220.7627992630005	
44	204.58044409751892	movie	1		300	42.0	2.5	blank	1.0	221.57916283607483	2.500373363494873
44	205.3642807006836	pulse	1	t		42.0	2.5	blank	1.0	222.3629994392395	
44	206.96432971954346	pulse	1	t		42.0	2.5	blank	1.0	223.96304845809937	
44	207.0808174610138	fix_post	2		12	42.0	2.5	blank	1.0	224.0795361995697	0.1000065803527832
45	207.18082404136658	fix_pre	0		120	43.0	2.5	/experiments/Knapen_AOT/AOT_stimuli/rescaled_final/0230_rv.mp4	0.0	224.17954277992249	1.0085091590881348
45	208.1893332004547	movie	1		270	43.0	2.5	/experiments/Knapen_AOT/AOT_stimuli/rescaled_final/0230_rv.mp4	0.0	225.18805193901062	2.492011547088623
45	208.56298804283142	pulse	1	t		43.0	2.5	/experiments/Knapen_AOT/AOT_stimuli/rescaled_final/0230_rv.mp4	0.0	225.56170678138733	
45	210.16266083717346	pulse	1	t		43.0	2.5	/experiments/Knapen_AOT/AOT_stimuli/rescaled_final/0230_rv.mp4	0.0	227.16137957572937	
45	210.68134474754333	fix_post	2		12	43.0	2.5	/experiments/Knapen_AOT/AOT_stimuli/rescaled_final/0230_rv.mp4	0.0	227.68006348609924	0.10005426406860352
46	210.78139901161194	fix_pre	0		119	44.0	2.5	/experiments/Knapen_AOT/AOT_stimuli/rescaled_final/0227_rv.mp4	0.0	227.78011775016785	1.0085015296936035
46	211.7651789188385	pulse	0	t		44.0	2.5	/experiments/Knapen_AOT/AOT_stimuli/rescaled_final/0227_rv.mp4	0.0	228.7638976573944	
46	211.78990054130554	movie	1		281	44.0	2.5	/experiments/Knapen_AOT/AOT_stimuli/rescaled_final/0227_rv.mp4	0.0	228.78861927986145	2.491997480392456
46	213.36404967308044	pulse	1	t		44.0	2.5	/experiments/Knapen_AOT/AOT_stimuli/rescaled_final/0227_rv.mp4	0.0	230.36276841163635	
46	214.281898021698	fix_post	2		12	44.0	2.5	/experiments/Knapen_AOT/AOT_stimuli/rescaled_final/0227_rv.mp4	0.0	231.2806167602539	0.10000252723693848
47	214.38190054893494	fix_pre	0		120	45.0	2.5	/experiments/Knapen_AOT/AOT_stimuli/rescaled_final/0639_rv.mp4	0.0	231.38061928749084	1.0085253715515137
47	214.96557450294495	pulse	0	t		45.0	2.5	/experiments/Knapen_AOT/AOT_stimuli/rescaled_final/0639_rv.mp4	0.0	231.96429324150085	
47	215.39042592048645	movie	1		289	45.0	2.5	/experiments/Knapen_AOT/AOT_stimuli/rescaled_final/0639_rv.mp4	0.0	232.38914465904236	2.4919989109039307
47	216.56406617164612	pulse	1	t		45.0	2.5	/experiments/Knapen_AOT/AOT_stimuli/rescaled_final/0639_rv.mp4	0.0	233.56278491020203	
47	217.88242483139038	fix_post	2		12	45.0	2.5	/experiments/Knapen_AOT/AOT_stimuli/rescaled_final/0639_rv.mp4	0.0	234.8811435699463	0.10001969337463379
48	217.98244452476501	fix_pre	0		104	46.0	2.5	/experiments/Knapen_AOT/AOT_stimuli/rescaled_final/0284_fw.mp4	0.0	234.98116326332092	1.0085172653198242
48	218.16601967811584	pulse	0	t		46.0	2.5	/experiments/Knapen_AOT/AOT_stimuli/rescaled_final/0284_fw.mp4	0.0	235.16473841667175	
48	218.99096179008484	movie	1		284	46.0	2.5	/experiments/Knapen_AOT/AOT_stimuli/rescaled_final/0284_fw.mp4	0.0	235.98968052864075	2.4920122623443604
48	219.76442980766296	pulse	1	t		46.0	2.5	/experiments/Knapen_AOT/AOT_stimuli/rescaled_final/0284_fw.mp4	0.0	236.76314854621887	
48	221.36461687088013	pulse	1	t		46.0	2.5	/experiments/Knapen_AOT/AOT_stimuli/rescaled_final/0284_fw.mp4	0.0	238.36333560943604	
48	221.4829740524292	fix_post	2		12	46.0	2.5	/experiments/Knapen_AOT/AOT_stimuli/rescaled_final/0284_fw.mp4	0.0	238.4816927909851	0.10001540184020996
49	221.5829894542694	fix_pre	0		120	47.0	2.5	blank	1.0	238.58170819282532	1.0001599788665771
49	222.583149433136	movie	1		300	47.0	2.5	blank	1.0	239.5818681716919	2.500351905822754
49	222.9667410850525	pulse	1	t		47.0	2.5	blank	1.0	239.9654598236084	
49	224.56720447540283	pulse	1	t		47.0	2.5	blank	1.0	241.56592321395874	
49	225.08350133895874	fix_post	2		12	47.0	2.5	blank	1.0	242.08222007751465	0.1000356674194336
50	225.18353700637817	fix_pre	0		119	48.0	2.5	/experiments/Knapen_AOT/AOT_stimuli/rescaled_final/0246_rv.mp4	0.0	242.18225574493408	1.0002102851867676
50	226.1678810119629	pulse	0	t		48.0	2.5	/experiments/Knapen_AOT/AOT_stimuli/rescaled_final/0246_rv.mp4	0.0	243.1665997505188	
50	226.18374729156494	movie	1		275	48.0	2.5	/experiments/Knapen_AOT/AOT_stimuli/rescaled_final/0246_rv.mp4	0.0	243.18246603012085	2.50032114982605
50	227.76612496376038	pulse	1	t		48.0	2.5	/experiments/Knapen_AOT/AOT_stimuli/rescaled_final/0246_rv.mp4	0.0	244.76484370231628	
50	228.684068441391	fix_post	2		12	48.0	2.5	/experiments/Knapen_AOT/AOT_stimuli/rescaled_final/0246_rv.mp4	0.0	245.6827871799469	0.10003066062927246
51	228.78409910202026	fix_pre	0		120	49.0	2.5	/experiments/Knapen_AOT/AOT_stimuli/rescaled_final/2148_rv.mp4	0.0	245.78281784057617	1.0084764957427979
51	229.3677942752838	pulse	0	t		49.0	2.5	/experiments/Knapen_AOT/AOT_stimuli/rescaled_final/2148_rv.mp4	0.0	246.36651301383972	
51	229.79257559776306	movie	1		281	49.0	2.5	/experiments/Knapen_AOT/AOT_stimuli/rescaled_final/2148_rv.mp4	0.0	246.79129433631897	2.4920175075531006
51	230.96695184707642	pulse	1	t		49.0	2.5	/experiments/Knapen_AOT/AOT_stimuli/rescaled_final/2148_rv.mp4	0.0	247.96567058563232	
51	232.28459310531616	fix_post	2		12	49.0	2.5	/experiments/Knapen_AOT/AOT_stimuli/rescaled_final/2148_rv.mp4	0.0	249.28331184387207	0.10005307197570801
52	232.38464617729187	fix_pre	0		120	50.0	2.5	/experiments/Knapen_AOT/AOT_stimuli/rescaled_final/2040_fw.mp4	0.0	249.38336491584778	1.0084757804870605
52	232.56845426559448	pulse	0	t		50.0	2.5	/experiments/Knapen_AOT/AOT_stimuli/rescaled_final/2040_fw.mp4	0.0	249.5671730041504	
52	233.39312195777893	movie	1		277	50.0	2.5	/experiments/Knapen_AOT/AOT_stimuli/rescaled_final/2040_fw.mp4	0.0	250.39184069633484	2.4920427799224854
52	234.1685972213745	pulse	1	t		50.0	2.5	/experiments/Knapen_AOT/AOT_stimuli/rescaled_final/2040_fw.mp4	0.0	251.16731595993042	
52	235.76671743392944	pulse	1	t		50.0	2.5	/experiments/Knapen_AOT/AOT_stimuli/rescaled_final/2040_fw.mp4	0.0	252.76543617248535	
52	235.88516473770142	fix_post	2		12	50.0	2.5	/experiments/Knapen_AOT/AOT_stimuli/rescaled_final/2040_fw.mp4	0.0	252.88388347625732	0.1000056266784668
53	235.98517036437988	fix_pre	0		120	51.0	2.5	/experiments/Knapen_AOT/AOT_stimuli/rescaled_final/1892_rv.mp4	0.0	252.9838891029358	1.0084683895111084
53	236.993638753891	movie	1		265	51.0	2.5	/experiments/Knapen_AOT/AOT_stimuli/rescaled_final/1892_rv.mp4	0.0	253.9923574924469	2.49206280708313
53	237.3681402206421	pulse	1	t		51.0	2.5	/experiments/Knapen_AOT/AOT_stimuli/rescaled_final/1892_rv.mp4	0.0	254.366858959198	
53	238.96707201004028	pulse	1	t		51.0	2.5	/experiments/Knapen_AOT/AOT_stimuli/rescaled_final/1892_rv.mp4	0.0	255.9657907485962	
53	239.48570156097412	fix_post	2		12	51.0	2.5	/experiments/Knapen_AOT/AOT_stimuli/rescaled_final/1892_rv.mp4	0.0	256.48442029953003	0.09998941421508789
54	239.5856909751892	fix_pre	0		119	52.0	2.5	/experiments/Knapen_AOT/AOT_stimuli/rescaled_final/1329_fw.mp4	0.0	256.5844097137451	1.0002219676971436
54	240.56253719329834	pulse	0	t		52.0	2.5	/experiments/Knapen_AOT/AOT_stimuli/rescaled_final/1329_fw.mp4	0.0	257.56125593185425	
54	240.58591294288635	movie	1		278	52.0	2.5	/experiments/Knapen_AOT/AOT_stimuli/rescaled_final/1329_fw.mp4	0.0	257.58463168144226	2.5086617469787598
54	242.16848039627075	pulse	1	t		52.0	2.5	/experiments/Knapen_AOT/AOT_stimuli/rescaled_final/1329_fw.mp4	0.0	259.16719913482666	
54	243.0945746898651	fix_post	2		11	52.0	2.5	/experiments/Knapen_AOT/AOT_stimuli/rescaled_final/1329_fw.mp4	0.0	260.093293428421	0.09167265892028809
55	243.1862473487854	fix_pre	0		120	53.0	2.5	/experiments/Knapen_AOT/AOT_stimuli/rescaled_final/1564_fw.mp4	0.0	260.1849660873413	1.008476972579956
55	243.76182961463928	pulse	0	t		53.0	2.5	/experiments/Knapen_AOT/AOT_stimuli/rescaled_final/1564_fw.mp4	0.0	260.7605483531952	
55	244.19472432136536	movie	1		279	53.0	2.5	/experiments/Knapen_AOT/AOT_stimuli/rescaled_final/1564_fw.mp4	0.0	261.19344305992126	2.4921493530273438
55	245.36224913597107	pulse	1	t		53.0	2.5	/experiments/Knapen_AOT/AOT_stimuli/rescaled_final/1564_fw.mp4	0.0	262.360967874527	
55	246.6868736743927	fix_post	2		12	53.0	2.5	/experiments/Knapen_AOT/AOT_stimuli/rescaled_final/1564_fw.mp4	0.0	263.6855924129486	0.09990286827087402
56	246.78677654266357	fix_pre	0		120	54.0	2.5	/experiments/Knapen_AOT/AOT_stimuli/rescaled_final/0664_rv.mp4	0.0	263.7854952812195	1.0084850788116455
56	246.96194338798523	pulse	0	t		54.0	2.5	/experiments/Knapen_AOT/AOT_stimuli/rescaled_final/0664_rv.mp4	0.0	263.96066212654114	
56	247.79526162147522	movie	1		278	54.0	2.5	/experiments/Knapen_AOT/AOT_stimuli/rescaled_final/0664_rv.mp4	0.0	264.7939803600311	2.492133140563965
56	248.5622434616089	pulse	1	t		54.0	2.5	/experiments/Knapen_AOT/AOT_stimuli/rescaled_final/0664_rv.mp4	0.0	265.5609622001648	
56	250.16258144378662	pulse	1	t		54.0	2.5	/experiments/Knapen_AOT/AOT_stimuli/rescaled_final/0664_rv.mp4	0.0	267.16130018234253	
56	250.28739476203918	fix_post	2		12	54.0	2.5	/experiments/Knapen_AOT/AOT_stimuli/rescaled_final/0664_rv.mp4	0.0	267.2861135005951	0.09994125366210938
57	250.3873360157013	fix_pre	0		120	55.0	2.5	/experiments/Knapen_AOT/AOT_stimuli/rescaled_final/0809_fw.mp4	0.0	267.3860547542572	1.0085022449493408
57	251.39583826065063	movie	1		274	55.0	2.5	/experiments/Knapen_AOT/AOT_stimuli/rescaled_final/0809_fw.mp4	0.0	268.39455699920654	2.49200701713562
57	251.7628676891327	pulse	1	t		55.0	2.5	/experiments/Knapen_AOT/AOT_stimuli/rescaled_final/0809_fw.mp4	0.0	268.7615864276886	
57	253.36315298080444	pulse	1	t		55.0	2.5	/experiments/Knapen_AOT/AOT_stimuli/rescaled_final/0809_fw.mp4	0.0	270.36187171936035	
57	253.88784527778625	fix_post	2		12	55.0	2.5	/experiments/Knapen_AOT/AOT_stimuli/rescaled_final/0809_fw.mp4	0.0	270.88656401634216	0.10000801086425781
58	253.9878532886505	fix_pre	0		118	56.0	2.5	blank	1.0	270.9865720272064	0.9834690093994141
58	254.96325850486755	pulse	0	t		56.0	2.5	blank	1.0	271.96197724342346	
58	254.97132229804993	movie	1		301	56.0	2.5	blank	1.0	271.97004103660583	2.508730411529541
58	256.5634696483612	pulse	1	t		56.0	2.5	blank	1.0	273.5621883869171	
58	257.48005270957947	fix_post	2		12	56.0	2.5	blank	1.0	274.4787714481354	0.10015344619750977
59	257.580206155777	fix_pre	0		120	57.0	2.5	/experiments/Knapen_AOT/AOT_stimuli/rescaled_final/0293_fw.mp4	0.0	274.5789248943329	1.0084035396575928
59	258.1637005805969	pulse	0	t		57.0	2.5	/experiments/Knapen_AOT/AOT_stimuli/rescaled_final/0293_fw.mp4	0.0	275.16241931915283	
59	258.58860969543457	movie	1		280	57.0	2.5	/experiments/Knapen_AOT/AOT_stimuli/rescaled_final/0293_fw.mp4	0.0	275.5873284339905	2.492016077041626
59	259.76228523254395	pulse	1	t		57.0	2.5	/experiments/Knapen_AOT/AOT_stimuli/rescaled_final/0293_fw.mp4	0.0	276.76100397109985	
59	261.0806257724762	fix_post	2		12	57.0	2.5	/experiments/Knapen_AOT/AOT_stimuli/rescaled_final/0293_fw.mp4	0.0	278.0793445110321	0.10005426406860352
60	261.1806800365448	fix_pre	0		120	58.0	2.5	/experiments/Knapen_AOT/AOT_stimuli/rescaled_final/1445_fw.mp4	0.0	278.1793987751007	1.0084564685821533
60	261.3642301559448	pulse	0	t		58.0	2.5	/experiments/Knapen_AOT/AOT_stimuli/rescaled_final/1445_fw.mp4	0.0	278.36294889450073	
60	262.18913650512695	movie	1		281	58.0	2.5	/experiments/Knapen_AOT/AOT_stimuli/rescaled_final/1445_fw.mp4	0.0	279.18785524368286	2.49200439453125
60	262.9645552635193	pulse	1	t		58.0	2.5	/experiments/Knapen_AOT/AOT_stimuli/rescaled_final/1445_fw.mp4	0.0	279.9632740020752	
60	264.5626337528229	pulse	1	t		58.0	2.5	/experiments/Knapen_AOT/AOT_stimuli/rescaled_final/1445_fw.mp4	0.0	281.5613524913788	
60	264.6811408996582	fix_post	2		12	58.0	2.5	/experiments/Knapen_AOT/AOT_stimuli/rescaled_final/1445_fw.mp4	0.0	281.6798596382141	0.10008788108825684
61	264.78122878074646	fix_pre	0		120	59.0	2.5	/experiments/Knapen_AOT/AOT_stimuli/rescaled_final/0634_rv.mp4	0.0	281.77994751930237	1.0084049701690674
61	265.7896337509155	movie	1		269	59.0	2.5	/experiments/Knapen_AOT/AOT_stimuli/rescaled_final/0634_rv.mp4	0.0	282.78835248947144	2.492053985595703
61	266.1640021800995	pulse	1	t		59.0	2.5	/experiments/Knapen_AOT/AOT_stimuli/rescaled_final/0634_rv.mp4	0.0	283.1627209186554	
61	267.7631459236145	pulse	1	t		59.0	2.5	/experiments/Knapen_AOT/AOT_stimuli/rescaled_final/0634_rv.mp4	0.0	284.7618646621704	
61	268.28168773651123	fix_post	2		12	59.0	2.5	/experiments/Knapen_AOT/AOT_stimuli/rescaled_final/0634_rv.mp4	0.0	285.28040647506714	0.10006451606750488
62	268.38175225257874	fix_pre	0		119	60.0	2.5	/experiments/Knapen_AOT/AOT_stimuli/rescaled_final/0969_rv.mp4	0.0	285.38047099113464	1.0001366138458252
62	269.3653702735901	pulse	0	t		60.0	2.5	/experiments/Knapen_AOT/AOT_stimuli/rescaled_final/0969_rv.mp4	0.0	286.364089012146	
62	269.38188886642456	movie	1		271	60.0	2.5	/experiments/Knapen_AOT/AOT_stimuli/rescaled_final/0969_rv.mp4	0.0	286.38060760498047	2.5003116130828857
62	270.9656503200531	pulse	1	t		60.0	2.5	/experiments/Knapen_AOT/AOT_stimuli/rescaled_final/0969_rv.mp4	0.0	287.964369058609	
62	271.88220047950745	fix_post	2		12	60.0	2.5	/experiments/Knapen_AOT/AOT_stimuli/rescaled_final/0969_rv.mp4	0.0	288.88091921806335	0.10001850128173828
63	271.9822189807892	fix_pre	0		120	61.0	2.5	/experiments/Knapen_AOT/AOT_stimuli/rescaled_final/1062_fw.mp4	0.0	288.9809377193451	1.0085246562957764
63	272.5660049915314	pulse	0	t		61.0	2.5	/experiments/Knapen_AOT/AOT_stimuli/rescaled_final/1062_fw.mp4	0.0	289.5647237300873	
63	272.99074363708496	movie	1		284	61.0	2.5	/experiments/Knapen_AOT/AOT_stimuli/rescaled_final/1062_fw.mp4	0.0	289.98946237564087	2.4920156002044678
63	274.1642212867737	pulse	1	t		61.0	2.5	/experiments/Knapen_AOT/AOT_stimuli/rescaled_final/1062_fw.mp4	0.0	291.1629400253296	
63	275.48275923728943	fix_post	2		12	61.0	2.5	/experiments/Knapen_AOT/AOT_stimuli/rescaled_final/1062_fw.mp4	0.0	292.48147797584534	0.100006103515625
64	275.58276534080505	fix_pre	0		120	62.0	2.5	blank	1.0	292.58148407936096	1.0001397132873535
64	275.76640486717224	pulse	0	t		62.0	2.5	blank	1.0	292.76512360572815	
64	276.5829050540924	movie	1		300	62.0	2.5	blank	1.0	293.5816237926483	2.50050950050354
64	277.3666498661041	pulse	1	t		62.0	2.5	blank	1.0	294.36536860466003	
64	278.9668462276459	pulse	1	t		62.0	2.5	blank	1.0	295.9655649662018	
64	279.08341455459595	fix_post	2		12	62.0	2.5	blank	1.0	296.08213329315186	0.09989762306213379
65	279.1833121776581	fix_pre	0		120	63.0	2.5	/experiments/Knapen_AOT/AOT_stimuli/rescaled_final/1332_fw.mp4	0.0	296.182030916214	1.0084776878356934
65	280.1917898654938	movie	1		284	63.0	2.5	/experiments/Knapen_AOT/AOT_stimuli/rescaled_final/1332_fw.mp4	0.0	297.1905086040497	2.4920504093170166
65	280.56562399864197	pulse	1	t		63.0	2.5	/experiments/Knapen_AOT/AOT_stimuli/rescaled_final/1332_fw.mp4	0.0	297.5643427371979	
65	282.1654541492462	pulse	1	t		63.0	2.5	/experiments/Knapen_AOT/AOT_stimuli/rescaled_final/1332_fw.mp4	0.0	299.1641728878021	
65	282.6838402748108	fix_post	2		12	63.0	2.5	/experiments/Knapen_AOT/AOT_stimuli/rescaled_final/1332_fw.mp4	0.0	299.6825590133667	0.10007667541503906
66	282.78391695022583	fix_pre	0		119	64.0	2.5	/experiments/Knapen_AOT/AOT_stimuli/rescaled_final/0809_rv.mp4	0.0	299.78263568878174	1.0001463890075684
66	283.76754093170166	pulse	0	t		64.0	2.5	/experiments/Knapen_AOT/AOT_stimuli/rescaled_final/0809_rv.mp4	0.0	300.76625967025757	
66	283.7840633392334	movie	1		261	64.0	2.5	/experiments/Knapen_AOT/AOT_stimuli/rescaled_final/0809_rv.mp4	0.0	300.7827820777893	2.5003011226654053
66	285.3670389652252	pulse	1	t		64.0	2.5	/experiments/Knapen_AOT/AOT_stimuli/rescaled_final/0809_rv.mp4	0.0	302.3657577037811	
66	286.2843644618988	fix_post	2		12	64.0	2.5	/experiments/Knapen_AOT/AOT_stimuli/rescaled_final/0809_rv.mp4	0.0	303.2830832004547	0.10012006759643555
67	286.38448452949524	fix_pre	0		120	65.0	2.5	/experiments/Knapen_AOT/AOT_stimuli/rescaled_final/1613_rv.mp4	0.0	303.38320326805115	1.0084173679351807
67	286.968279838562	pulse	0	t		65.0	2.5	/experiments/Knapen_AOT/AOT_stimuli/rescaled_final/1613_rv.mp4	0.0	303.9669985771179	
67	287.3929018974304	movie	1		275	65.0	2.5	/experiments/Knapen_AOT/AOT_stimuli/rescaled_final/1613_rv.mp4	0.0	304.3916206359863	2.4919967651367188
67	288.56850242614746	pulse	1	t		65.0	2.5	/experiments/Knapen_AOT/AOT_stimuli/rescaled_final/1613_rv.mp4	0.0	305.56722116470337	
67	289.88489866256714	fix_post	2		12	65.0	2.5	/experiments/Knapen_AOT/AOT_stimuli/rescaled_final/1613_rv.mp4	0.0	306.88361740112305	0.10002565383911133
68	289.98492431640625	fix_pre	0		120	66.0	2.5	/experiments/Knapen_AOT/AOT_stimuli/rescaled_final/1425_rv.mp4	0.0	306.98364305496216	1.008436918258667
68	290.16277408599854	pulse	0	t		66.0	2.5	/experiments/Knapen_AOT/AOT_stimuli/rescaled_final/1425_rv.mp4	0.0	307.16149282455444	
68	290.9933612346649	movie	1		277	66.0	2.5	/experiments/Knapen_AOT/AOT_stimuli/rescaled_final/1425_rv.mp4	0.0	307.9920799732208	2.4920926094055176
68	291.7667808532715	pulse	1	t		66.0	2.5	/experiments/Knapen_AOT/AOT_stimuli/rescaled_final/1425_rv.mp4	0.0	308.7654995918274	
68	293.367529630661	pulse	1	t		66.0	2.5	/experiments/Knapen_AOT/AOT_stimuli/rescaled_final/1425_rv.mp4	0.0	310.3662483692169	
68	293.48545384407043	fix_post	2		12	66.0	2.5	/experiments/Knapen_AOT/AOT_stimuli/rescaled_final/1425_rv.mp4	0.0	310.48417258262634	0.10001254081726074
69	293.5854663848877	fix_pre	0		120	67.0	2.5	/experiments/Knapen_AOT/AOT_stimuli/rescaled_final/0059_fw.mp4	0.0	310.5841851234436	1.0085906982421875
69	294.5940570831299	movie	1		260	67.0	2.5	/experiments/Knapen_AOT/AOT_stimuli/rescaled_final/0059_fw.mp4	0.0	311.5927758216858	2.4919614791870117
69	294.96733498573303	pulse	1	t		67.0	2.5	/experiments/Knapen_AOT/AOT_stimuli/rescaled_final/0059_fw.mp4	0.0	311.96605372428894	
69	296.5679340362549	pulse	1	t		67.0	2.5	/experiments/Knapen_AOT/AOT_stimuli/rescaled_final/0059_fw.mp4	0.0	313.5666527748108	
69	297.0860185623169	fix_post	2		12	67.0	2.5	/experiments/Knapen_AOT/AOT_stimuli/rescaled_final/0059_fw.mp4	0.0	314.0847373008728	0.10005402565002441
70	297.1860725879669	fix_pre	0		119	68.0	2.5	/experiments/Knapen_AOT/AOT_stimuli/rescaled_final/1120_fw.mp4	0.0	314.1847913265228	1.000079870223999
70	298.16315960884094	pulse	0	t		68.0	2.5	/experiments/Knapen_AOT/AOT_stimuli/rescaled_final/1120_fw.mp4	0.0	315.16187834739685	
70	298.1861524581909	movie	1		289	68.0	2.5	/experiments/Knapen_AOT/AOT_stimuli/rescaled_final/1120_fw.mp4	0.0	315.1848711967468	2.5003862380981445
70	299.7689836025238	pulse	1	t		68.0	2.5	/experiments/Knapen_AOT/AOT_stimuli/rescaled_final/1120_fw.mp4	0.0	316.7677023410797	
70	300.68653869628906	fix_post	2		12	68.0	2.5	/experiments/Knapen_AOT/AOT_stimuli/rescaled_final/1120_fw.mp4	0.0	317.68525743484497	0.10001873970031738
71	300.7865574359894	fix_pre	0		120	69.0	2.5	/experiments/Knapen_AOT/AOT_stimuli/rescaled_final/1736_rv.mp4	0.0	317.7852761745453	1.0085968971252441
71	301.3621380329132	pulse	0	t		69.0	2.5	/experiments/Knapen_AOT/AOT_stimuli/rescaled_final/1736_rv.mp4	0.0	318.3608567714691	
71	301.7951543331146	movie	1		271	69.0	2.5	/experiments/Knapen_AOT/AOT_stimuli/rescaled_final/1736_rv.mp4	0.0	318.79387307167053	2.4919488430023193
71	302.9621455669403	pulse	1	t		69.0	2.5	/experiments/Knapen_AOT/AOT_stimuli/rescaled_final/1736_rv.mp4	0.0	319.9608643054962	
71	304.28710317611694	fix_post	2		12	69.0	2.5	/experiments/Knapen_AOT/AOT_stimuli/rescaled_final/1736_rv.mp4	0.0	321.28582191467285	0.10001635551452637
72	304.38711953163147	fix_pre	0		120	70.0	2.5	blank	1.0	321.3858382701874	1.0001301765441895
72	304.56239581108093	pulse	0	t		70.0	2.5	blank	1.0	321.56111454963684	
72	305.38724970817566	movie	1		300	70.0	2.5	blank	1.0	322.38596844673157	2.500384569168091
72	306.16271710395813	pulse	1	t		70.0	2.5	blank	1.0	323.16143584251404	
72	307.76286149024963	pulse	1	t		70.0	2.5	blank	1.0	324.76158022880554	
72	307.88763427734375	fix_post	2		12	70.0	2.5	blank	1.0	324.88635301589966	0.10001611709594727
73	307.9876503944397	fix_pre	0		120	71.0	2.5	/experiments/Knapen_AOT/AOT_stimuli/rescaled_final/2134_rv.mp4	0.0	324.9863691329956	1.008500576019287
73	308.996150970459	movie	1		267	71.0	2.5	/experiments/Knapen_AOT/AOT_stimuli/rescaled_final/2134_rv.mp4	0.0	325.9948697090149	2.4921369552612305
73	309.36306262016296	pulse	1	t		71.0	2.5	/experiments/Knapen_AOT/AOT_stimuli/rescaled_final/2134_rv.mp4	0.0	326.3617813587189	
73	310.9613947868347	pulse	1	t		71.0	2.5	/experiments/Knapen_AOT/AOT_stimuli/rescaled_final/2134_rv.mp4	0.0	327.9601135253906	
73	311.4882879257202	fix_post	2		12	71.0	2.5	/experiments/Knapen_AOT/AOT_stimuli/rescaled_final/2134_rv.mp4	0.0	328.4870066642761	0.09992480278015137
74	311.58821272850037	fix_pre	0		118	72.0	2.5	/experiments/Knapen_AOT/AOT_stimuli/rescaled_final/0969_rv.mp4	0.0	328.5869314670563	0.9917948246002197
74	312.56360054016113	pulse	0	t		72.0	2.5	/experiments/Knapen_AOT/AOT_stimuli/rescaled_final/0969_rv.mp4	0.0	329.56231927871704	
74	312.5800075531006	movie	1		281	72.0	2.5	/experiments/Knapen_AOT/AOT_stimuli/rescaled_final/0969_rv.mp4	0.0	329.5787262916565	2.5003628730773926
74	314.162385225296	pulse	1	t		72.0	2.5	/experiments/Knapen_AOT/AOT_stimuli/rescaled_final/0969_rv.mp4	0.0	331.16110396385193	
74	315.080370426178	fix_post	2		12	72.0	2.5	/experiments/Knapen_AOT/AOT_stimuli/rescaled_final/0969_rv.mp4	0.0	332.0790891647339	0.10005593299865723
75	315.18042635917664	fix_pre	0		120	73.0	2.5	/experiments/Knapen_AOT/AOT_stimuli/rescaled_final/0810_rv.mp4	0.0	332.17914509773254	1.0084483623504639
75	315.76409554481506	pulse	0	t		73.0	2.5	/experiments/Knapen_AOT/AOT_stimuli/rescaled_final/0810_rv.mp4	0.0	332.762814283371	
75	316.1888747215271	movie	1		281	73.0	2.5	/experiments/Knapen_AOT/AOT_stimuli/rescaled_final/0810_rv.mp4	0.0	333.187593460083	2.4920313358306885
75	317.3627769947052	pulse	1	t		73.0	2.5	/experiments/Knapen_AOT/AOT_stimuli/rescaled_final/0810_rv.mp4	0.0	334.3614957332611	
75	318.6809060573578	fix_post	2		12	73.0	2.5	/experiments/Knapen_AOT/AOT_stimuli/rescaled_final/0810_rv.mp4	0.0	335.6796247959137	0.10003352165222168
76	318.78093957901	fix_pre	0		120	74.0	2.5	/experiments/Knapen_AOT/AOT_stimuli/rescaled_final/0705_fw.mp4	0.0	335.7796583175659	1.008500099182129
76	318.96450090408325	pulse	0	t		74.0	2.5	/experiments/Knapen_AOT/AOT_stimuli/rescaled_final/0705_fw.mp4	0.0	335.96321964263916	
76	319.78943967819214	movie	1		279	74.0	2.5	/experiments/Knapen_AOT/AOT_stimuli/rescaled_final/0705_fw.mp4	0.0	336.78815841674805	2.492006540298462
76	320.56307768821716	pulse	1	t		74.0	2.5	/experiments/Knapen_AOT/AOT_stimuli/rescaled_final/0705_fw.mp4	0.0	337.56179642677307	
76	322.16322112083435	pulse	1	t		74.0	2.5	/experiments/Knapen_AOT/AOT_stimuli/rescaled_final/0705_fw.mp4	0.0	339.16193985939026	
76	322.2814462184906	fix_post	2		12	74.0	2.5	/experiments/Knapen_AOT/AOT_stimuli/rescaled_final/0705_fw.mp4	0.0	339.2801649570465	0.10002303123474121
77	322.38146924972534	fix_pre	0		120	75.0	2.5	blank	1.0	339.38018798828125	1.0001540184020996
77	323.38162326812744	movie	1		300	75.0	2.5	blank	1.0	340.38034200668335	2.500349998474121
77	323.76521468162537	pulse	1	t		75.0	2.5	blank	1.0	340.7639334201813	
77	325.3656349182129	pulse	1	t		75.0	2.5	blank	1.0	342.3643536567688	
77	325.88197326660156	fix_post	2		12	75.0	2.5	blank	1.0	342.88069200515747	0.10011124610900879
78	325.98208451271057	fix_pre	0		119	76.0	2.5	/experiments/Knapen_AOT/AOT_stimuli/rescaled_final/0059_rv.mp4	0.0	342.9808032512665	1.0000922679901123
78	326.9658088684082	pulse	0	t		76.0	2.5	/experiments/Knapen_AOT/AOT_stimuli/rescaled_final/0059_rv.mp4	0.0	343.9645276069641	
78	326.9821767807007	movie	1		252	76.0	2.5	/experiments/Knapen_AOT/AOT_stimuli/rescaled_final/0059_rv.mp4	0.0	343.9808955192566	2.5003509521484375
78	328.5660741329193	pulse	1	t		76.0	2.5	/experiments/Knapen_AOT/AOT_stimuli/rescaled_final/0059_rv.mp4	0.0	345.5647928714752	
78	329.4825277328491	fix_post	2		12	76.0	2.5	/experiments/Knapen_AOT/AOT_stimuli/rescaled_final/0059_rv.mp4	0.0	346.48124647140503	0.10005807876586914
79	329.582585811615	fix_pre	0		120	77.0	2.5	/experiments/Knapen_AOT/AOT_stimuli/rescaled_final/0252_fw.mp4	0.0	346.5813045501709	1.008476734161377
79	330.16642570495605	pulse	0	t		77.0	2.5	/experiments/Knapen_AOT/AOT_stimuli/rescaled_final/0252_fw.mp4	0.0	347.16514444351196	
79	330.59106254577637	movie	1		263	77.0	2.5	/experiments/Knapen_AOT/AOT_stimuli/rescaled_final/0252_fw.mp4	0.0	347.5897812843323	2.492004156112671
79	331.76664304733276	pulse	1	t		77.0	2.5	/experiments/Knapen_AOT/AOT_stimuli/rescaled_final/0252_fw.mp4	0.0	348.7653617858887	
79	333.08306670188904	fix_post	2		12	77.0	2.5	/experiments/Knapen_AOT/AOT_stimuli/rescaled_final/0252_fw.mp4	0.0	350.08178544044495	0.10007548332214355
80	333.1831421852112	fix_pre	0		120	78.0	2.5	/experiments/Knapen_AOT/AOT_stimuli/rescaled_final/1445_rv.mp4	0.0	350.1818609237671	1.0084586143493652
80	333.36662769317627	pulse	0	t		78.0	2.5	/experiments/Knapen_AOT/AOT_stimuli/rescaled_final/1445_rv.mp4	0.0	350.3653464317322	
80	334.19160079956055	movie	1		264	78.0	2.5	/experiments/Knapen_AOT/AOT_stimuli/rescaled_final/1445_rv.mp4	0.0	351.19031953811646	2.491999864578247
80	334.96540546417236	pulse	1	t		78.0	2.5	/experiments/Knapen_AOT/AOT_stimuli/rescaled_final/1445_rv.mp4	0.0	351.96412420272827	
80	336.5653154850006	pulse	1	t		78.0	2.5	/experiments/Knapen_AOT/AOT_stimuli/rescaled_final/1445_rv.mp4	0.0	353.5640342235565	
80	336.6836006641388	fix_post	2		12	78.0	2.5	/experiments/Knapen_AOT/AOT_stimuli/rescaled_final/1445_rv.mp4	0.0	353.6823194026947	0.10001540184020996
81	336.783616065979	fix_pre	0		120	79.0	2.5	/experiments/Knapen_AOT/AOT_stimuli/rescaled_final/1584_fw.mp4	0.0	353.7823348045349	1.0085349082946777
81	337.7921509742737	movie	1		273	79.0	2.5	/experiments/Knapen_AOT/AOT_stimuli/rescaled_final/1584_fw.mp4	0.0	354.7908697128296	2.492070198059082
81	338.16674184799194	pulse	1	t		79.0	2.5	/experiments/Knapen_AOT/AOT_stimuli/rescaled_final/1584_fw.mp4	0.0	355.16546058654785	
81	339.76571249961853	pulse	1	t		79.0	2.5	/experiments/Knapen_AOT/AOT_stimuli/rescaled_final/1584_fw.mp4	0.0	356.76443123817444	
81	340.28422117233276	fix_post	2		12	79.0	2.5	/experiments/Knapen_AOT/AOT_stimuli/rescaled_final/1584_fw.mp4	0.0	357.2829399108887	0.10007357597351074
82	340.3842947483063	fix_pre	0		119	80.0	2.5	/experiments/Knapen_AOT/AOT_stimuli/rescaled_final/1709_rv.mp4	0.0	357.3830134868622	1.0000262260437012
82	341.3678386211395	pulse	0	t		80.0	2.5	/experiments/Knapen_AOT/AOT_stimuli/rescaled_final/1709_rv.mp4	0.0	358.36655735969543	
82	341.38432097435	movie	1		272	80.0	2.5	/experiments/Knapen_AOT/AOT_stimuli/rescaled_final/1709_rv.mp4	0.0	358.3830397129059	2.500406503677368
82	342.96730303764343	pulse	1	t		80.0	2.5	/experiments/Knapen_AOT/AOT_stimuli/rescaled_final/1709_rv.mp4	0.0	359.96602177619934	
82	343.88472747802734	fix_post	2		12	80.0	2.5	/experiments/Knapen_AOT/AOT_stimuli/rescaled_final/1709_rv.mp4	0.0	360.88344621658325	0.10005378723144531
83	343.9847812652588	fix_pre	0		120	81.0	2.5	/experiments/Knapen_AOT/AOT_stimuli/rescaled_final/0106_rv.mp4	0.0	360.9835000038147	1.0084805488586426
83	344.56862592697144	pulse	0	t		81.0	2.5	/experiments/Knapen_AOT/AOT_stimuli/rescaled_final/0106_rv.mp4	0.0	361.56734466552734	
83	344.99326181411743	movie	1		279	81.0	2.5	/experiments/Knapen_AOT/AOT_stimuli/rescaled_final/0106_rv.mp4	0.0	361.99198055267334	2.4919655323028564
83	346.1689884662628	pulse	1	t		81.0	2.5	/experiments/Knapen_AOT/AOT_stimuli/rescaled_final/0106_rv.mp4	0.0	363.1677072048187	
83	347.4852273464203	fix_post	2		12	81.0	2.5	/experiments/Knapen_AOT/AOT_stimuli/rescaled_final/0106_rv.mp4	0.0	364.4839460849762	0.10001397132873535
84	347.585241317749	fix_pre	0		120	82.0	2.5	blank	1.0	364.58396005630493	1.0001533031463623
84	347.768972158432	pulse	0	t		82.0	2.5	blank	1.0	364.7676908969879	
84	348.5853946208954	movie	1		300	82.0	2.5	blank	1.0	365.5841133594513	2.500382900238037
84	349.36190032958984	pulse	1	t		82.0	2.5	blank	1.0	366.36061906814575	
84	350.96138215065	pulse	1	t		82.0	2.5	blank	1.0	367.96010088920593	
84	351.0857775211334	fix_post	2		12	82.0	2.5	blank	1.0	368.08449625968933	0.10003829002380371
85	351.1858158111572	fix_pre	0		120	83.0	2.5	/experiments/Knapen_AOT/AOT_stimuli/rescaled_final/2170_rv.mp4	0.0	368.18453454971313	1.0084447860717773
85	352.194260597229	movie	1		269	83.0	2.5	/experiments/Knapen_AOT/AOT_stimuli/rescaled_final/2170_rv.mp4	0.0	369.1929793357849	2.4920592308044434
85	352.5621807575226	pulse	1	t		83.0	2.5	/experiments/Knapen_AOT/AOT_stimuli/rescaled_final/2170_rv.mp4	0.0	369.5608994960785	
85	354.16192173957825	pulse	1	t		83.0	2.5	/experiments/Knapen_AOT/AOT_stimuli/rescaled_final/2170_rv.mp4	0.0	371.16064047813416	
85	354.68631982803345	fix_post	2		12	83.0	2.5	/experiments/Knapen_AOT/AOT_stimuli/rescaled_final/2170_rv.mp4	0.0	371.68503856658936	0.10001921653747559
87	354.7863390445709	stim	0		1716					371.78505778312683	14.302133560180664
87	355.76173424720764	pulse	0	t						372.76045298576355	
87	357.362735748291	pulse	0	t						374.3614544868469	
87	358.96254229545593	pulse	0	t						375.96126103401184	
87	360.5625433921814	pulse	0	t						377.5612621307373	
87	362.16268372535706	pulse	0	t						379.16140246391296	
87	363.7628984451294	pulse	0	t						380.7616171836853	
87	365.3632552623749	pulse	0	t						382.3619740009308	
87	366.9634084701538	pulse	0	t						383.9621272087097	
87	368.5639798641205	pulse	0	t						385.5626986026764	
