trial_nr	onset	event_type	phase	response	nr_frames	movie_index	movie_duration	movie_file	blank	onset_abs	duration
0	0.15804719924926758	stim	0		2					17.26968550682068	0.016658544540405273
0	0.16658782958984375	response	0	space						17.278226137161255	
1	0.17470574378967285	stim	0		4801					17.286344051361084	40.02692747116089
1	40.18658137321472	pulse	0	t						57.29821968078613	
1	40.20163321495056	stim	1		1714					57.31327152252197	14.297877311706543
1	41.78113031387329	pulse	1	t						58.8927686214447	
1	43.381489753723145	pulse	1	t						60.493128061294556	
1	44.981648683547974	pulse	1	t						62.093286991119385	
1	46.58190059661865	pulse	1	t						63.69353890419006	
1	48.182077407836914	pulse	1	t						65.29371571540833	
1	49.78231167793274	pulse	1	t						66.89394998550415	
1	51.382575273513794	pulse	1	t						68.4942135810852	
1	52.98277759552002	pulse	1	t						70.09441590309143	
2	54.499510526657104	fix_pre	0		11	0.0	2.5	/experiments/Knapen_AOT/AOT_stimuli/rescaled_final/0959_rv.mp4	0.0	71.61114883422852	0.1083993911743164
2	54.58310031890869	pulse	0	t		0.0	2.5	/experiments/Knapen_AOT/AOT_stimuli/rescaled_final/0959_rv.mp4	0.0	71.6947386264801	
2	54.60790991783142	movie	1		286	0.0	2.5	/experiments/Knapen_AOT/AOT_stimuli/rescaled_final/0959_rv.mp4	0.0	71.71954822540283	2.4919638633728027
2	56.18167519569397	pulse	1	t		0.0	2.5	/experiments/Knapen_AOT/AOT_stimuli/rescaled_final/0959_rv.mp4	0.0	73.29331350326538	
2	57.099873781204224	fix_post	2		12	0.0	2.5	/experiments/Knapen_AOT/AOT_stimuli/rescaled_final/0959_rv.mp4	0.0	74.21151208877563	0.1000216007232666
3	57.19989538192749	fix_pre	0		120	1.0	2.5	/experiments/Knapen_AOT/AOT_stimuli/rescaled_final/1338_fw.mp4	0.0	74.3115336894989	1.0084919929504395
3	57.783528089523315	pulse	0	t		1.0	2.5	/experiments/Knapen_AOT/AOT_stimuli/rescaled_final/1338_fw.mp4	0.0	74.89516639709473	
3	58.20838737487793	movie	1		288	1.0	2.5	/experiments/Knapen_AOT/AOT_stimuli/rescaled_final/1338_fw.mp4	0.0	75.32002568244934	2.492042303085327
3	59.38155722618103	pulse	1	t		1.0	2.5	/experiments/Knapen_AOT/AOT_stimuli/rescaled_final/1338_fw.mp4	0.0	76.49319553375244	
3	60.70042967796326	fix_post	2		12	1.0	2.5	/experiments/Knapen_AOT/AOT_stimuli/rescaled_final/1338_fw.mp4	0.0	77.81206798553467	0.10007452964782715
4	60.800504207611084	fix_pre	0		120	2.0	2.5	/experiments/Knapen_AOT/AOT_stimuli/rescaled_final/0333_fw.mp4	0.0	77.9121425151825	1.008446216583252
4	60.98402142524719	pulse	0	t		2.0	2.5	/experiments/Knapen_AOT/AOT_stimuli/rescaled_final/0333_fw.mp4	0.0	78.0956597328186	
4	61.808950424194336	movie	1		290	2.0	2.5	/experiments/Knapen_AOT/AOT_stimuli/rescaled_final/0333_fw.mp4	0.0	78.92058873176575	2.4920101165771484
4	62.58218765258789	pulse	1	t		2.0	2.5	/experiments/Knapen_AOT/AOT_stimuli/rescaled_final/0333_fw.mp4	0.0	79.6938259601593	
4	64.18248105049133	pulse	1	t		2.0	2.5	/experiments/Knapen_AOT/AOT_stimuli/rescaled_final/0333_fw.mp4	0.0	81.29411935806274	
4	64.30096054077148	fix_post	2		12	2.0	2.5	/experiments/Knapen_AOT/AOT_stimuli/rescaled_final/0333_fw.mp4	0.0	81.4125988483429	0.10010218620300293
5	64.40106272697449	fix_pre	0		120	3.0	2.5	/experiments/Knapen_AOT/AOT_stimuli/rescaled_final/1438_rv.mp4	0.0	81.5127010345459	1.0084202289581299
5	65.40948295593262	movie	1		281	3.0	2.5	/experiments/Knapen_AOT/AOT_stimuli/rescaled_final/1438_rv.mp4	0.0	82.52112126350403	2.4920265674591064
5	65.78300261497498	pulse	1	t		3.0	2.5	/experiments/Knapen_AOT/AOT_stimuli/rescaled_final/1438_rv.mp4	0.0	82.89464092254639	
5	67.3829562664032	pulse	1	t		3.0	2.5	/experiments/Knapen_AOT/AOT_stimuli/rescaled_final/1438_rv.mp4	0.0	84.49459457397461	
5	67.90150952339172	fix_post	2		12	3.0	2.5	/experiments/Knapen_AOT/AOT_stimuli/rescaled_final/1438_rv.mp4	0.0	85.01314783096313	0.10000753402709961
6	68.00151705741882	fix_pre	0		119	4.0	2.5	/experiments/Knapen_AOT/AOT_stimuli/rescaled_final/0109_fw.mp4	0.0	85.11315536499023	1.000194787979126
6	68.98520970344543	pulse	0	t		4.0	2.5	/experiments/Knapen_AOT/AOT_stimuli/rescaled_final/0109_fw.mp4	0.0	86.09684801101685	
6	69.00171184539795	movie	1		286	4.0	2.5	/experiments/Knapen_AOT/AOT_stimuli/rescaled_final/0109_fw.mp4	0.0	86.11335015296936	2.500314235687256
6	70.58402490615845	pulse	1	t		4.0	2.5	/experiments/Knapen_AOT/AOT_stimuli/rescaled_final/0109_fw.mp4	0.0	87.69566321372986	
6	71.5020260810852	fix_post	2		12	4.0	2.5	/experiments/Knapen_AOT/AOT_stimuli/rescaled_final/0109_fw.mp4	0.0	88.61366438865662	0.09998893737792969
7	71.60201501846313	fix_pre	0		120	5.0	2.5	/experiments/Knapen_AOT/AOT_stimuli/rescaled_final/1146_fw.mp4	0.0	88.71365332603455	1.0085604190826416
7	72.1856050491333	pulse	0	t		5.0	2.5	/experiments/Knapen_AOT/AOT_stimuli/rescaled_final/1146_fw.mp4	0.0	89.29724335670471	
7	72.61057543754578	movie	1		296	5.0	2.5	/experiments/Knapen_AOT/AOT_stimuli/rescaled_final/1146_fw.mp4	0.0	89.72221374511719	2.4920034408569336
7	73.78159260749817	pulse	1	t		5.0	2.5	/experiments/Knapen_AOT/AOT_stimuli/rescaled_final/1146_fw.mp4	0.0	90.89323091506958	
7	75.10257887840271	fix_post	2		12	5.0	2.5	/experiments/Knapen_AOT/AOT_stimuli/rescaled_final/1146_fw.mp4	0.0	92.21421718597412	0.10003137588500977
8	75.20261025428772	fix_pre	0		120	6.0	2.5	/experiments/Knapen_AOT/AOT_stimuli/rescaled_final/2064_rv.mp4	0.0	92.31424856185913	1.0084848403930664
8	75.38608264923096	pulse	0	t		6.0	2.5	/experiments/Knapen_AOT/AOT_stimuli/rescaled_final/2064_rv.mp4	0.0	92.49772095680237	
8	76.21109509468079	movie	1		297	6.0	2.5	/experiments/Knapen_AOT/AOT_stimuli/rescaled_final/2064_rv.mp4	0.0	93.3227334022522	2.492011070251465
8	76.98525953292847	pulse	1	t		6.0	2.5	/experiments/Knapen_AOT/AOT_stimuli/rescaled_final/2064_rv.mp4	0.0	94.09689784049988	
8	78.58395624160767	pulse	1	t		6.0	2.5	/experiments/Knapen_AOT/AOT_stimuli/rescaled_final/2064_rv.mp4	0.0	95.69559454917908	
8	78.70310616493225	fix_post	2		12	6.0	2.5	/experiments/Knapen_AOT/AOT_stimuli/rescaled_final/2064_rv.mp4	0.0	95.81474447250366	0.1000216007232666
9	78.80312776565552	fix_pre	0		120	7.0	2.5	blank	1.0	95.91476607322693	1.000157356262207
9	79.80328512191772	movie	1		300	7.0	2.5	blank	1.0	96.91492342948914	2.500413179397583
9	80.18682074546814	pulse	1	t		7.0	2.5	blank	1.0	97.29845905303955	
9	81.78713870048523	pulse	1	t		7.0	2.5	blank	1.0	98.89877700805664	
9	82.30369830131531	fix_post	2		12	7.0	2.5	blank	1.0	99.41533660888672	0.09999871253967285
10	82.40369701385498	fix_pre	0		119	8.0	2.5	/experiments/Knapen_AOT/AOT_stimuli/rescaled_final/1102_rv.mp4	0.0	99.51533532142639	1.0001254081726074
10	83.38734769821167	pulse	0	t		8.0	2.5	/experiments/Knapen_AOT/AOT_stimuli/rescaled_final/1102_rv.mp4	0.0	100.49898600578308	
10	83.40382242202759	movie	1		290	8.0	2.5	/experiments/Knapen_AOT/AOT_stimuli/rescaled_final/1102_rv.mp4	0.0	100.515460729599	2.5004279613494873
10	84.98611307144165	pulse	1	t		8.0	2.5	/experiments/Knapen_AOT/AOT_stimuli/rescaled_final/1102_rv.mp4	0.0	102.09775137901306	
10	85.90425038337708	fix_post	2		12	8.0	2.5	/experiments/Knapen_AOT/AOT_stimuli/rescaled_final/1102_rv.mp4	0.0	103.01588869094849	0.10002374649047852
11	86.00427412986755	fix_pre	0		120	9.0	2.5	/experiments/Knapen_AOT/AOT_stimuli/rescaled_final/1416_rv.mp4	0.0	103.11591243743896	1.008465051651001
11	86.58796405792236	pulse	0	t		9.0	2.5	/experiments/Knapen_AOT/AOT_stimuli/rescaled_final/1416_rv.mp4	0.0	103.69960236549377	
11	87.01273918151855	movie	1		281	9.0	2.5	/experiments/Knapen_AOT/AOT_stimuli/rescaled_final/1416_rv.mp4	0.0	104.12437748908997	2.4921584129333496
11	88.1863956451416	pulse	1	t		9.0	2.5	/experiments/Knapen_AOT/AOT_stimuli/rescaled_final/1416_rv.mp4	0.0	105.29803395271301	
11	89.5048975944519	fix_post	2		12	9.0	2.5	/experiments/Knapen_AOT/AOT_stimuli/rescaled_final/1416_rv.mp4	0.0	106.61653590202332	0.09993100166320801
12	89.60482859611511	fix_pre	0		120	10.0	2.5	/experiments/Knapen_AOT/AOT_stimuli/rescaled_final/0161_rv.mp4	0.0	106.71646690368652	1.0084292888641357
12	89.78176760673523	pulse	0	t		10.0	2.5	/experiments/Knapen_AOT/AOT_stimuli/rescaled_final/0161_rv.mp4	0.0	106.89340591430664	
12	90.61325788497925	movie	1		277	10.0	2.5	/experiments/Knapen_AOT/AOT_stimuli/rescaled_final/0161_rv.mp4	0.0	107.72489619255066	2.492044448852539
12	91.3864893913269	pulse	1	t		10.0	2.5	/experiments/Knapen_AOT/AOT_stimuli/rescaled_final/0161_rv.mp4	0.0	108.49812769889832	
12	92.98706984519958	pulse	1	t		10.0	2.5	/experiments/Knapen_AOT/AOT_stimuli/rescaled_final/0161_rv.mp4	0.0	110.098708152771	
12	93.10530233383179	fix_post	2		12	10.0	2.5	/experiments/Knapen_AOT/AOT_stimuli/rescaled_final/0161_rv.mp4	0.0	110.2169406414032	0.10001206398010254
13	93.20531439781189	fix_pre	0		120	11.0	2.5	/experiments/Knapen_AOT/AOT_stimuli/rescaled_final/0152_fw.mp4	0.0	110.3169527053833	1.0085368156433105
13	94.2138512134552	movie	1		280	11.0	2.5	/experiments/Knapen_AOT/AOT_stimuli/rescaled_final/0152_fw.mp4	0.0	111.32548952102661	2.4921464920043945
13	94.58106184005737	pulse	1	t		11.0	2.5	/experiments/Knapen_AOT/AOT_stimuli/rescaled_final/0152_fw.mp4	0.0	111.69270014762878	
13	96.18097972869873	pulse	1	t		11.0	2.5	/experiments/Knapen_AOT/AOT_stimuli/rescaled_final/0152_fw.mp4	0.0	113.29261803627014	
13	96.7059977054596	fix_post	2		12	11.0	2.5	/experiments/Knapen_AOT/AOT_stimuli/rescaled_final/0152_fw.mp4	0.0	113.817636013031	0.09992337226867676
14	96.80592107772827	fix_pre	0		118	12.0	2.5	/experiments/Knapen_AOT/AOT_stimuli/rescaled_final/1080_fw.mp4	0.0	113.91755938529968	0.9918217658996582
14	97.78126120567322	pulse	0	t		12.0	2.5	/experiments/Knapen_AOT/AOT_stimuli/rescaled_final/1080_fw.mp4	0.0	114.89289951324463	
14	97.79774284362793	movie	1		279	12.0	2.5	/experiments/Knapen_AOT/AOT_stimuli/rescaled_final/1080_fw.mp4	0.0	114.90938115119934	2.5003042221069336
14	99.38152503967285	pulse	1	t		12.0	2.5	/experiments/Knapen_AOT/AOT_stimuli/rescaled_final/1080_fw.mp4	0.0	116.49316334724426	
14	100.29804706573486	fix_post	2		12	12.0	2.5	/experiments/Knapen_AOT/AOT_stimuli/rescaled_final/1080_fw.mp4	0.0	117.40968537330627	0.1000068187713623
15	100.39805388450623	fix_pre	0		120	13.0	2.5	blank	1.0	117.50969219207764	1.0001516342163086
15	100.98174262046814	pulse	0	t		13.0	2.5	blank	1.0	118.09338092803955	
15	101.39820551872253	movie	1		300	13.0	2.5	blank	1.0	118.50984382629395	2.500363826751709
15	102.58199834823608	pulse	1	t		13.0	2.5	blank	1.0	119.6936366558075	
15	103.89856934547424	fix_post	2		12	13.0	2.5	blank	1.0	121.01020765304565	0.10002565383911133
16	103.99859499931335	fix_pre	0		120	14.0	2.5	/experiments/Knapen_AOT/AOT_stimuli/rescaled_final/1131_rv.mp4	0.0	121.11023330688477	1.0085117816925049
16	104.18213415145874	pulse	0	t		14.0	2.5	/experiments/Knapen_AOT/AOT_stimuli/rescaled_final/1131_rv.mp4	0.0	121.29377245903015	
16	105.00710678100586	movie	1		276	14.0	2.5	/experiments/Knapen_AOT/AOT_stimuli/rescaled_final/1131_rv.mp4	0.0	122.11874508857727	2.4920153617858887
16	105.78241682052612	pulse	1	t		14.0	2.5	/experiments/Knapen_AOT/AOT_stimuli/rescaled_final/1131_rv.mp4	0.0	122.89405512809753	
16	107.38058805465698	pulse	1	t		14.0	2.5	/experiments/Knapen_AOT/AOT_stimuli/rescaled_final/1131_rv.mp4	0.0	124.4922263622284	
16	107.49912214279175	fix_post	2		12	14.0	2.5	/experiments/Knapen_AOT/AOT_stimuli/rescaled_final/1131_rv.mp4	0.0	124.61076045036316	0.10001850128173828
17	107.59914064407349	fix_pre	0		120	15.0	2.5	/experiments/Knapen_AOT/AOT_stimuli/rescaled_final/0747_fw.mp4	0.0	124.7107789516449	1.0085113048553467
17	108.60765194892883	movie	1		278	15.0	2.5	/experiments/Knapen_AOT/AOT_stimuli/rescaled_final/0747_fw.mp4	0.0	125.71929025650024	2.4920291900634766
17	108.98149633407593	pulse	1	t		15.0	2.5	/experiments/Knapen_AOT/AOT_stimuli/rescaled_final/0747_fw.mp4	0.0	126.09313464164734	
17	110.58185291290283	pulse	1	t		15.0	2.5	/experiments/Knapen_AOT/AOT_stimuli/rescaled_final/0747_fw.mp4	0.0	127.69349122047424	
17	111.09968113899231	fix_post	2		12	15.0	2.5	/experiments/Knapen_AOT/AOT_stimuli/rescaled_final/0747_fw.mp4	0.0	128.21131944656372	0.10014486312866211
18	111.19982600212097	fix_pre	0		119	16.0	2.5	/experiments/Knapen_AOT/AOT_stimuli/rescaled_final/0709_rv.mp4	0.0	128.31146430969238	1.0000581741333008
18	112.1836769580841	pulse	0	t		16.0	2.5	/experiments/Knapen_AOT/AOT_stimuli/rescaled_final/0709_rv.mp4	0.0	129.29531526565552	
18	112.19988417625427	movie	1		286	16.0	2.5	/experiments/Knapen_AOT/AOT_stimuli/rescaled_final/0709_rv.mp4	0.0	129.31152248382568	2.5003111362457275
18	113.78366088867188	pulse	1	t		16.0	2.5	/experiments/Knapen_AOT/AOT_stimuli/rescaled_final/0709_rv.mp4	0.0	130.8952991962433	
18	114.7001953125	fix_post	2		12	16.0	2.5	/experiments/Knapen_AOT/AOT_stimuli/rescaled_final/0709_rv.mp4	0.0	131.8118336200714	0.10005497932434082
19	114.80025029182434	fix_pre	0		120	17.0	2.5	/experiments/Knapen_AOT/AOT_stimuli/rescaled_final/1518_fw.mp4	0.0	131.91188859939575	1.0084691047668457
19	115.38382863998413	pulse	0	t		17.0	2.5	/experiments/Knapen_AOT/AOT_stimuli/rescaled_final/1518_fw.mp4	0.0	132.49546694755554	
19	115.80871939659119	movie	1		281	17.0	2.5	/experiments/Knapen_AOT/AOT_stimuli/rescaled_final/1518_fw.mp4	0.0	132.9203577041626	2.4921305179595947
19	116.98240804672241	pulse	1	t		17.0	2.5	/experiments/Knapen_AOT/AOT_stimuli/rescaled_final/1518_fw.mp4	0.0	134.09404635429382	
19	118.30084991455078	fix_post	2		12	17.0	2.5	/experiments/Knapen_AOT/AOT_stimuli/rescaled_final/1518_fw.mp4	0.0	135.4124882221222	0.0999305248260498
20	118.40078043937683	fix_pre	0		120	18.0	2.5	/experiments/Knapen_AOT/AOT_stimuli/rescaled_final/2020_fw.mp4	0.0	135.51241874694824	1.0085699558258057
20	118.58431649208069	pulse	0	t		18.0	2.5	/experiments/Knapen_AOT/AOT_stimuli/rescaled_final/2020_fw.mp4	0.0	135.6959547996521	
20	119.40935039520264	movie	1		275	18.0	2.5	/experiments/Knapen_AOT/AOT_stimuli/rescaled_final/2020_fw.mp4	0.0	136.52098870277405	2.491940975189209
20	120.18417119979858	pulse	1	t		18.0	2.5	/experiments/Knapen_AOT/AOT_stimuli/rescaled_final/2020_fw.mp4	0.0	137.29580950737	
20	121.78268337249756	pulse	1	t		18.0	2.5	/experiments/Knapen_AOT/AOT_stimuli/rescaled_final/2020_fw.mp4	0.0	138.89432168006897	
20	121.90129137039185	fix_post	2		12	18.0	2.5	/experiments/Knapen_AOT/AOT_stimuli/rescaled_final/2020_fw.mp4	0.0	139.01292967796326	0.10007262229919434
21	122.00136399269104	fix_pre	0		120	19.0	2.5	/experiments/Knapen_AOT/AOT_stimuli/rescaled_final/0848_fw.mp4	0.0	139.11300230026245	1.008420467376709
21	123.00978446006775	movie	1		283	19.0	2.5	/experiments/Knapen_AOT/AOT_stimuli/rescaled_final/0848_fw.mp4	0.0	140.12142276763916	2.492051601409912
21	123.38519716262817	pulse	1	t		19.0	2.5	/experiments/Knapen_AOT/AOT_stimuli/rescaled_final/0848_fw.mp4	0.0	140.49683547019958	
21	124.98309230804443	pulse	1	t		19.0	2.5	/experiments/Knapen_AOT/AOT_stimuli/rescaled_final/0848_fw.mp4	0.0	142.09473061561584	
21	125.50183606147766	fix_post	2		12	19.0	2.5	/experiments/Knapen_AOT/AOT_stimuli/rescaled_final/0848_fw.mp4	0.0	142.61347436904907	0.10000491142272949
22	125.60184097290039	fix_pre	0		119	20.0	2.5	/experiments/Knapen_AOT/AOT_stimuli/rescaled_final/1799_rv.mp4	0.0	142.7134792804718	1.000169277191162
22	126.58572196960449	pulse	0	t		20.0	2.5	/experiments/Knapen_AOT/AOT_stimuli/rescaled_final/1799_rv.mp4	0.0	143.6973602771759	
22	126.60201025009155	movie	1		270	20.0	2.5	/experiments/Knapen_AOT/AOT_stimuli/rescaled_final/1799_rv.mp4	0.0	143.71364855766296	2.500356674194336
22	128.18399596214294	pulse	1	t		20.0	2.5	/experiments/Knapen_AOT/AOT_stimuli/rescaled_final/1799_rv.mp4	0.0	145.29563426971436	
22	129.1023669242859	fix_post	2		12	20.0	2.5	/experiments/Knapen_AOT/AOT_stimuli/rescaled_final/1799_rv.mp4	0.0	146.2140052318573	0.10003185272216797
23	129.20239877700806	fix_pre	0		120	21.0	2.5	blank	1.0	146.31403708457947	1.0001330375671387
23	129.78613758087158	pulse	0	t		21.0	2.5	blank	1.0	146.897775888443	
23	130.2025318145752	movie	1		300	21.0	2.5	blank	1.0	147.3141701221466	2.500453472137451
23	131.38676524162292	pulse	1	t		21.0	2.5	blank	1.0	148.49840354919434	
23	132.70298528671265	fix_post	2		12	21.0	2.5	blank	1.0	149.81462359428406	0.09998703002929688
24	132.80297231674194	fix_pre	0		120	22.0	2.5	/experiments/Knapen_AOT/AOT_stimuli/rescaled_final/1665_rv.mp4	0.0	149.91461062431335	1.0084521770477295
24	132.98656296730042	pulse	0	t		22.0	2.5	/experiments/Knapen_AOT/AOT_stimuli/rescaled_final/1665_rv.mp4	0.0	150.09820127487183	
24	133.81142449378967	movie	1		278	22.0	2.5	/experiments/Knapen_AOT/AOT_stimuli/rescaled_final/1665_rv.mp4	0.0	150.92306280136108	2.492015838623047
24	134.5844361782074	pulse	1	t		22.0	2.5	/experiments/Knapen_AOT/AOT_stimuli/rescaled_final/1665_rv.mp4	0.0	151.6960744857788	
24	136.18516969680786	pulse	1	t		22.0	2.5	/experiments/Knapen_AOT/AOT_stimuli/rescaled_final/1665_rv.mp4	0.0	153.29680800437927	
24	136.30344033241272	fix_post	2		12	22.0	2.5	/experiments/Knapen_AOT/AOT_stimuli/rescaled_final/1665_rv.mp4	0.0	153.41507863998413	0.1000220775604248
25	136.40346240997314	fix_pre	0		120	23.0	2.5	/experiments/Knapen_AOT/AOT_stimuli/rescaled_final/1708_rv.mp4	0.0	153.51510071754456	1.0085868835449219
25	137.41204929351807	movie	1		268	23.0	2.5	/experiments/Knapen_AOT/AOT_stimuli/rescaled_final/1708_rv.mp4	0.0	154.52368760108948	2.4919726848602295
25	137.7801558971405	pulse	1	t		23.0	2.5	/experiments/Knapen_AOT/AOT_stimuli/rescaled_final/1708_rv.mp4	0.0	154.8917942047119	
25	139.38566994667053	pulse	1	t		23.0	2.5	/experiments/Knapen_AOT/AOT_stimuli/rescaled_final/1708_rv.mp4	0.0	156.49730825424194	
25	139.9040219783783	fix_post	2		12	23.0	2.5	/experiments/Knapen_AOT/AOT_stimuli/rescaled_final/1708_rv.mp4	0.0	157.0156602859497	0.09998631477355957
26	140.00400829315186	fix_pre	0		119	24.0	2.5	/experiments/Knapen_AOT/AOT_stimuli/rescaled_final/0913_rv.mp4	0.0	157.11564660072327	1.0085697174072266
26	140.98776745796204	pulse	0	t		24.0	2.5	/experiments/Knapen_AOT/AOT_stimuli/rescaled_final/0913_rv.mp4	0.0	158.09940576553345	
26	141.01257801055908	movie	1		281	24.0	2.5	/experiments/Knapen_AOT/AOT_stimuli/rescaled_final/0913_rv.mp4	0.0	158.1242163181305	2.4919986724853516
26	142.5866174697876	pulse	1	t		24.0	2.5	/experiments/Knapen_AOT/AOT_stimuli/rescaled_final/0913_rv.mp4	0.0	159.698255777359	
26	143.50457668304443	fix_post	2		12	24.0	2.5	/experiments/Knapen_AOT/AOT_stimuli/rescaled_final/0913_rv.mp4	0.0	160.61621499061584	0.09998679161071777
27	143.60456347465515	fix_pre	0		120	25.0	2.5	/experiments/Knapen_AOT/AOT_stimuli/rescaled_final/0715_rv.mp4	0.0	160.71620178222656	1.0084922313690186
27	144.18067693710327	pulse	0	t		25.0	2.5	/experiments/Knapen_AOT/AOT_stimuli/rescaled_final/0715_rv.mp4	0.0	161.29231524467468	
27	144.61305570602417	movie	1		294	25.0	2.5	/experiments/Knapen_AOT/AOT_stimuli/rescaled_final/0715_rv.mp4	0.0	161.72469401359558	2.492023468017578
27	145.78067541122437	pulse	1	t		25.0	2.5	/experiments/Knapen_AOT/AOT_stimuli/rescaled_final/0715_rv.mp4	0.0	162.89231371879578	
27	147.10507917404175	fix_post	2		12	25.0	2.5	/experiments/Knapen_AOT/AOT_stimuli/rescaled_final/0715_rv.mp4	0.0	164.21671748161316	0.10000824928283691
28	147.20508742332458	fix_pre	0		120	26.0	2.5	/experiments/Knapen_AOT/AOT_stimuli/rescaled_final/1438_rv.mp4	0.0	164.316725730896	1.0085055828094482
28	147.38032174110413	pulse	0	t		26.0	2.5	/experiments/Knapen_AOT/AOT_stimuli/rescaled_final/1438_rv.mp4	0.0	164.49196004867554	
28	148.21359300613403	movie	1		276	26.0	2.5	/experiments/Knapen_AOT/AOT_stimuli/rescaled_final/1438_rv.mp4	0.0	165.32523131370544	2.4920501708984375
28	148.980562210083	pulse	1	t		26.0	2.5	/experiments/Knapen_AOT/AOT_stimuli/rescaled_final/1438_rv.mp4	0.0	166.09220051765442	
28	150.58094143867493	pulse	1	t		26.0	2.5	/experiments/Knapen_AOT/AOT_stimuli/rescaled_final/1438_rv.mp4	0.0	167.69257974624634	
28	150.70564317703247	fix_post	2		12	26.0	2.5	/experiments/Knapen_AOT/AOT_stimuli/rescaled_final/1438_rv.mp4	0.0	167.81728148460388	0.10010528564453125
29	150.805748462677	fix_pre	0		120	27.0	2.5	/experiments/Knapen_AOT/AOT_stimuli/rescaled_final/0899_fw.mp4	0.0	167.9173867702484	1.0083928108215332
29	151.81414127349854	movie	1		290	27.0	2.5	/experiments/Knapen_AOT/AOT_stimuli/rescaled_final/0899_fw.mp4	0.0	168.92577958106995	2.4920716285705566
29	152.18144464492798	pulse	1	t		27.0	2.5	/experiments/Knapen_AOT/AOT_stimuli/rescaled_final/0899_fw.mp4	0.0	169.2930829524994	
29	153.78129696846008	pulse	1	t		27.0	2.5	/experiments/Knapen_AOT/AOT_stimuli/rescaled_final/0899_fw.mp4	0.0	170.8929352760315	
29	154.3062129020691	fix_post	2		12	27.0	2.5	/experiments/Knapen_AOT/AOT_stimuli/rescaled_final/0899_fw.mp4	0.0	171.4178512096405	0.09996294975280762
30	154.4061758518219	fix_pre	0		118	28.0	2.5	blank	1.0	171.5178141593933	0.9835102558135986
30	155.38158440589905	pulse	0	t		28.0	2.5	blank	1.0	172.49322271347046	
30	155.3896861076355	movie	1		301	28.0	2.5	blank	1.0	172.5013244152069	2.50869083404541
30	156.98186326026917	pulse	1	t		28.0	2.5	blank	1.0	174.09350156784058	
30	157.8983769416809	fix_post	2		12	28.0	2.5	blank	1.0	175.01001524925232	0.10001540184020996
31	157.99839234352112	fix_pre	0		120	29.0	2.5	/experiments/Knapen_AOT/AOT_stimuli/rescaled_final/2071_rv.mp4	0.0	175.11003065109253	1.0084989070892334
31	158.58199977874756	pulse	0	t		29.0	2.5	/experiments/Knapen_AOT/AOT_stimuli/rescaled_final/2071_rv.mp4	0.0	175.69363808631897	
31	159.00689125061035	movie	1		285	29.0	2.5	/experiments/Knapen_AOT/AOT_stimuli/rescaled_final/2071_rv.mp4	0.0	176.11852955818176	2.4920237064361572
31	160.18030905723572	pulse	1	t		29.0	2.5	/experiments/Knapen_AOT/AOT_stimuli/rescaled_final/2071_rv.mp4	0.0	177.29194736480713	
31	161.4989149570465	fix_post	2		12	29.0	2.5	/experiments/Knapen_AOT/AOT_stimuli/rescaled_final/2071_rv.mp4	0.0	178.61055326461792	0.10008907318115234
32	161.59900403022766	fix_pre	0		120	30.0	2.5	/experiments/Knapen_AOT/AOT_stimuli/rescaled_final/1318_fw.mp4	0.0	178.71064233779907	1.0084304809570312
32	161.78249764442444	pulse	0	t		30.0	2.5	/experiments/Knapen_AOT/AOT_stimuli/rescaled_final/1318_fw.mp4	0.0	178.89413595199585	
32	162.6074345111847	movie	1		288	30.0	2.5	/experiments/Knapen_AOT/AOT_stimuli/rescaled_final/1318_fw.mp4	0.0	179.7190728187561	2.4920623302459717
32	163.3827624320984	pulse	1	t		30.0	2.5	/experiments/Knapen_AOT/AOT_stimuli/rescaled_final/1318_fw.mp4	0.0	180.4944007396698	
32	164.9808955192566	pulse	1	t		30.0	2.5	/experiments/Knapen_AOT/AOT_stimuli/rescaled_final/1318_fw.mp4	0.0	182.092533826828	
32	165.09949684143066	fix_post	2		12	30.0	2.5	/experiments/Knapen_AOT/AOT_stimuli/rescaled_final/1318_fw.mp4	0.0	182.21113514900208	0.10005545616149902
33	165.19955229759216	fix_pre	0		120	31.0	2.5	/experiments/Knapen_AOT/AOT_stimuli/rescaled_final/1665_fw.mp4	0.0	182.31119060516357	1.0084266662597656
33	166.20797896385193	movie	1		276	31.0	2.5	/experiments/Knapen_AOT/AOT_stimuli/rescaled_final/1665_fw.mp4	0.0	183.31961727142334	2.492058753967285
33	166.58170819282532	pulse	1	t		31.0	2.5	/experiments/Knapen_AOT/AOT_stimuli/rescaled_final/1665_fw.mp4	0.0	183.69334650039673	
33	168.18154311180115	pulse	1	t		31.0	2.5	/experiments/Knapen_AOT/AOT_stimuli/rescaled_final/1665_fw.mp4	0.0	185.29318141937256	
33	168.7000377178192	fix_post	2		12	31.0	2.5	/experiments/Knapen_AOT/AOT_stimuli/rescaled_final/1665_fw.mp4	0.0	185.81167602539062	0.09996461868286133
34	168.80000233650208	fix_pre	0		119	32.0	2.5	/experiments/Knapen_AOT/AOT_stimuli/rescaled_final/1009_rv.mp4	0.0	185.9116406440735	1.0085301399230957
34	169.78375101089478	pulse	0	t		32.0	2.5	/experiments/Knapen_AOT/AOT_stimuli/rescaled_final/1009_rv.mp4	0.0	186.8953893184662	
34	169.80853247642517	movie	1		286	32.0	2.5	/experiments/Knapen_AOT/AOT_stimuli/rescaled_final/1009_rv.mp4	0.0	186.92017078399658	2.4920156002044678
34	171.38258337974548	pulse	1	t		32.0	2.5	/experiments/Knapen_AOT/AOT_stimuli/rescaled_final/1009_rv.mp4	0.0	188.4942216873169	
34	172.30054807662964	fix_post	2		12	32.0	2.5	/experiments/Knapen_AOT/AOT_stimuli/rescaled_final/1009_rv.mp4	0.0	189.41218638420105	0.10005617141723633
35	172.40060424804688	fix_pre	0		120	33.0	2.5	/experiments/Knapen_AOT/AOT_stimuli/rescaled_final/0549_fw.mp4	0.0	189.5122425556183	1.0084452629089355
35	172.9841775894165	pulse	0	t		33.0	2.5	/experiments/Knapen_AOT/AOT_stimuli/rescaled_final/0549_fw.mp4	0.0	190.09581589698792	
35	173.4090495109558	movie	1		285	33.0	2.5	/experiments/Knapen_AOT/AOT_stimuli/rescaled_final/0549_fw.mp4	0.0	190.52068781852722	2.4920191764831543
35	174.58276629447937	pulse	1	t		33.0	2.5	/experiments/Knapen_AOT/AOT_stimuli/rescaled_final/0549_fw.mp4	0.0	191.69440460205078	
35	175.90106868743896	fix_post	2		12	33.0	2.5	/experiments/Knapen_AOT/AOT_stimuli/rescaled_final/0549_fw.mp4	0.0	193.01270699501038	0.10003256797790527
36	176.00110125541687	fix_pre	0		120	34.0	2.5	/experiments/Knapen_AOT/AOT_stimuli/rescaled_final/0468_rv.mp4	0.0	193.11273956298828	1.0085103511810303
36	176.18469214439392	pulse	0	t		34.0	2.5	/experiments/Knapen_AOT/AOT_stimuli/rescaled_final/0468_rv.mp4	0.0	193.29633045196533	
36	177.0096116065979	movie	1		274	34.0	2.5	/experiments/Knapen_AOT/AOT_stimuli/rescaled_final/0468_rv.mp4	0.0	194.1212499141693	2.49204683303833
36	177.78272414207458	pulse	1	t		34.0	2.5	/experiments/Knapen_AOT/AOT_stimuli/rescaled_final/0468_rv.mp4	0.0	194.894362449646	
36	179.38334965705872	pulse	1	t		34.0	2.5	/experiments/Knapen_AOT/AOT_stimuli/rescaled_final/0468_rv.mp4	0.0	196.49498796463013	
36	179.50165843963623	fix_post	2		12	34.0	2.5	/experiments/Knapen_AOT/AOT_stimuli/rescaled_final/0468_rv.mp4	0.0	196.61329674720764	0.09998965263366699
37	179.6016480922699	fix_pre	0		120	35.0	2.5	blank	1.0	196.7132863998413	1.0001780986785889
37	180.6018261909485	movie	1		300	35.0	2.5	blank	1.0	197.7134644985199	2.5003268718719482
37	180.98536562919617	pulse	1	t		35.0	2.5	blank	1.0	198.09700393676758	
37	182.5856065750122	pulse	1	t		35.0	2.5	blank	1.0	199.69724488258362	
37	183.10215306282043	fix_post	2		12	35.0	2.5	blank	1.0	200.21379137039185	0.1000375747680664
38	183.2021906375885	fix_pre	0		119	36.0	2.5	/experiments/Knapen_AOT/AOT_stimuli/rescaled_final/1914_fw.mp4	0.0	200.3138289451599	1.0001485347747803
38	184.18605136871338	pulse	0	t		36.0	2.5	/experiments/Knapen_AOT/AOT_stimuli/rescaled_final/1914_fw.mp4	0.0	201.2976896762848	
38	184.20233917236328	movie	1		282	36.0	2.5	/experiments/Knapen_AOT/AOT_stimuli/rescaled_final/1914_fw.mp4	0.0	201.3139774799347	2.5003864765167236
38	185.78462743759155	pulse	1	t		36.0	2.5	/experiments/Knapen_AOT/AOT_stimuli/rescaled_final/1914_fw.mp4	0.0	202.89626574516296	
38	186.70272564888	fix_post	2		12	36.0	2.5	/experiments/Knapen_AOT/AOT_stimuli/rescaled_final/1914_fw.mp4	0.0	203.81436395645142	0.09999728202819824
39	186.8027229309082	fix_pre	0		120	37.0	2.5	/experiments/Knapen_AOT/AOT_stimuli/rescaled_final/0152_rv.mp4	0.0	203.91436123847961	1.008467674255371
39	187.38635849952698	pulse	0	t		37.0	2.5	/experiments/Knapen_AOT/AOT_stimuli/rescaled_final/0152_rv.mp4	0.0	204.4979968070984	
39	187.81119060516357	movie	1		280	37.0	2.5	/experiments/Knapen_AOT/AOT_stimuli/rescaled_final/0152_rv.mp4	0.0	204.92282891273499	2.4920294284820557
39	188.9850091934204	pulse	1	t		37.0	2.5	/experiments/Knapen_AOT/AOT_stimuli/rescaled_final/0152_rv.mp4	0.0	206.09664750099182	
39	190.30322003364563	fix_post	2		12	37.0	2.5	/experiments/Knapen_AOT/AOT_stimuli/rescaled_final/0152_rv.mp4	0.0	207.41485834121704	0.10003447532653809
40	190.40325450897217	fix_pre	0		120	38.0	2.5	/experiments/Knapen_AOT/AOT_stimuli/rescaled_final/0728_fw.mp4	0.0	207.51489281654358	1.008547306060791
40	190.5869104862213	pulse	0	t		38.0	2.5	/experiments/Knapen_AOT/AOT_stimuli/rescaled_final/0728_fw.mp4	0.0	207.69854879379272	
40	191.41180181503296	movie	1		283	38.0	2.5	/experiments/Knapen_AOT/AOT_stimuli/rescaled_final/0728_fw.mp4	0.0	208.52344012260437	2.4919850826263428
40	192.18571043014526	pulse	1	t		38.0	2.5	/experiments/Knapen_AOT/AOT_stimuli/rescaled_final/0728_fw.mp4	0.0	209.29734873771667	
40	193.7854437828064	pulse	1	t		38.0	2.5	/experiments/Knapen_AOT/AOT_stimuli/rescaled_final/0728_fw.mp4	0.0	210.8970820903778	
40	193.9037868976593	fix_post	2		12	38.0	2.5	/experiments/Knapen_AOT/AOT_stimuli/rescaled_final/0728_fw.mp4	0.0	211.0154252052307	0.10006856918334961
41	194.00385546684265	fix_pre	0		120	39.0	2.5	/experiments/Knapen_AOT/AOT_stimuli/rescaled_final/0549_rv.mp4	0.0	211.11549377441406	1.0084450244903564
41	195.012300491333	movie	1		272	39.0	2.5	/experiments/Knapen_AOT/AOT_stimuli/rescaled_final/0549_rv.mp4	0.0	212.12393879890442	2.4920384883880615
41	195.3871624469757	pulse	1	t		39.0	2.5	/experiments/Knapen_AOT/AOT_stimuli/rescaled_final/0549_rv.mp4	0.0	212.49880075454712	
41	196.9859004020691	pulse	1	t		39.0	2.5	/experiments/Knapen_AOT/AOT_stimuli/rescaled_final/0549_rv.mp4	0.0	214.0975387096405	
41	197.50433897972107	fix_post	2		12	39.0	2.5	/experiments/Knapen_AOT/AOT_stimuli/rescaled_final/0549_rv.mp4	0.0	214.61597728729248	0.0999906063079834
42	197.60432958602905	fix_pre	0		119	40.0	2.5	blank	1.0	214.71596789360046	0.9918220043182373
42	198.58803820610046	pulse	0	t		40.0	2.5	blank	1.0	215.69967651367188	
42	198.5961515903473	movie	1		301	40.0	2.5	blank	1.0	215.7077898979187	2.5087292194366455
42	200.18133521080017	pulse	1	t		40.0	2.5	blank	1.0	217.29297351837158	
42	201.10488080978394	fix_post	2		12	40.0	2.5	blank	1.0	218.21651911735535	0.10001206398010254
43	201.20489287376404	fix_pre	0		120	41.0	2.5	/experiments/Knapen_AOT/AOT_stimuli/rescaled_final/1092_rv.mp4	0.0	218.31653118133545	1.0085151195526123
43	201.78065943717957	pulse	0	t		41.0	2.5	/experiments/Knapen_AOT/AOT_stimuli/rescaled_final/1092_rv.mp4	0.0	218.89229774475098	
43	202.21340799331665	movie	1		283	41.0	2.5	/experiments/Knapen_AOT/AOT_stimuli/rescaled_final/1092_rv.mp4	0.0	219.32504630088806	2.492121934890747
43	203.38082814216614	pulse	1	t		41.0	2.5	/experiments/Knapen_AOT/AOT_stimuli/rescaled_final/1092_rv.mp4	0.0	220.49246644973755	
43	204.7055299282074	fix_post	2		12	41.0	2.5	/experiments/Knapen_AOT/AOT_stimuli/rescaled_final/1092_rv.mp4	0.0	221.8171682357788	0.09989213943481445
44	204.8054220676422	fix_pre	0		120	42.0	2.5	/experiments/Knapen_AOT/AOT_stimuli/rescaled_final/1146_rv.mp4	0.0	221.91706037521362	1.0084984302520752
44	204.98073816299438	pulse	0	t		42.0	2.5	/experiments/Knapen_AOT/AOT_stimuli/rescaled_final/1146_rv.mp4	0.0	222.0923764705658	
44	205.8139204978943	movie	1		289	42.0	2.5	/experiments/Knapen_AOT/AOT_stimuli/rescaled_final/1146_rv.mp4	0.0	222.9255588054657	2.4920296669006348
44	206.5809247493744	pulse	1	t		42.0	2.5	/experiments/Knapen_AOT/AOT_stimuli/rescaled_final/1146_rv.mp4	0.0	223.6925630569458	
44	208.18143892288208	pulse	1	t		42.0	2.5	/experiments/Knapen_AOT/AOT_stimuli/rescaled_final/1146_rv.mp4	0.0	225.2930772304535	
44	208.30595016479492	fix_post	2		12	42.0	2.5	/experiments/Knapen_AOT/AOT_stimuli/rescaled_final/1146_rv.mp4	0.0	225.41758847236633	0.10001683235168457
45	208.4059669971466	fix_pre	0		120	43.0	2.5	/experiments/Knapen_AOT/AOT_stimuli/rescaled_final/0150_fw.mp4	0.0	225.51760530471802	1.0085139274597168
45	209.41448092460632	movie	1		268	43.0	2.5	/experiments/Knapen_AOT/AOT_stimuli/rescaled_final/0150_fw.mp4	0.0	226.52611923217773	2.492002248764038
45	209.7812466621399	pulse	1	t		43.0	2.5	/experiments/Knapen_AOT/AOT_stimuli/rescaled_final/0150_fw.mp4	0.0	226.8928849697113	
45	211.3816442489624	pulse	1	t		43.0	2.5	/experiments/Knapen_AOT/AOT_stimuli/rescaled_final/0150_fw.mp4	0.0	228.4932825565338	
45	211.90648317337036	fix_post	2		12	43.0	2.5	/experiments/Knapen_AOT/AOT_stimuli/rescaled_final/0150_fw.mp4	0.0	229.01812148094177	0.10004401206970215
46	212.00652718544006	fix_pre	0		118	44.0	2.5	/experiments/Knapen_AOT/AOT_stimuli/rescaled_final/0747_rv.mp4	0.0	229.11816549301147	0.9917900562286377
46	212.9818844795227	pulse	0	t		44.0	2.5	/experiments/Knapen_AOT/AOT_stimuli/rescaled_final/0747_rv.mp4	0.0	230.09352278709412	
46	212.9983172416687	movie	1		289	44.0	2.5	/experiments/Knapen_AOT/AOT_stimuli/rescaled_final/0747_rv.mp4	0.0	230.1099555492401	2.500548839569092
46	214.58212614059448	pulse	1	t		44.0	2.5	/experiments/Knapen_AOT/AOT_stimuli/rescaled_final/0747_rv.mp4	0.0	231.6937644481659	
46	215.4988660812378	fix_post	2		12	44.0	2.5	/experiments/Knapen_AOT/AOT_stimuli/rescaled_final/0747_rv.mp4	0.0	232.6105043888092	0.1000220775604248
47	215.59888815879822	fix_pre	0		120	45.0	2.5	/experiments/Knapen_AOT/AOT_stimuli/rescaled_final/1911_rv.mp4	0.0	232.71052646636963	1.0082979202270508
47	216.18246126174927	pulse	0	t		45.0	2.5	/experiments/Knapen_AOT/AOT_stimuli/rescaled_final/1911_rv.mp4	0.0	233.29409956932068	
47	216.60718607902527	movie	1		255	45.0	2.5	/experiments/Knapen_AOT/AOT_stimuli/rescaled_final/1911_rv.mp4	0.0	233.71882438659668	2.492109537124634
47	217.7828676700592	pulse	1	t		45.0	2.5	/experiments/Knapen_AOT/AOT_stimuli/rescaled_final/1911_rv.mp4	0.0	234.89450597763062	
47	219.0992956161499	fix_post	2		12	45.0	2.5	/experiments/Knapen_AOT/AOT_stimuli/rescaled_final/1911_rv.mp4	0.0	236.2109339237213	0.09999799728393555
48	219.19929361343384	fix_pre	0		120	46.0	2.5	/experiments/Knapen_AOT/AOT_stimuli/rescaled_final/0150_fw.mp4	0.0	236.31093192100525	1.0084609985351562
48	219.38285756111145	pulse	0	t		46.0	2.5	/experiments/Knapen_AOT/AOT_stimuli/rescaled_final/0150_fw.mp4	0.0	236.49449586868286	
48	220.207754611969	movie	1		270	46.0	2.5	/experiments/Knapen_AOT/AOT_stimuli/rescaled_final/0150_fw.mp4	0.0	237.3193929195404	2.492032527923584
48	220.98103380203247	pulse	1	t		46.0	2.5	/experiments/Knapen_AOT/AOT_stimuli/rescaled_final/0150_fw.mp4	0.0	238.09267210960388	
48	222.5811722278595	pulse	1	t		46.0	2.5	/experiments/Knapen_AOT/AOT_stimuli/rescaled_final/0150_fw.mp4	0.0	239.6928105354309	
48	222.69978713989258	fix_post	2		12	46.0	2.5	/experiments/Knapen_AOT/AOT_stimuli/rescaled_final/0150_fw.mp4	0.0	239.811425447464	0.10001015663146973
49	222.79979729652405	fix_pre	0		120	47.0	2.5	/experiments/Knapen_AOT/AOT_stimuli/rescaled_final/0549_rv.mp4	0.0	239.91143560409546	1.0085721015930176
49	223.80836939811707	movie	1		261	47.0	2.5	/experiments/Knapen_AOT/AOT_stimuli/rescaled_final/0549_rv.mp4	0.0	240.92000770568848	2.492000102996826
49	224.1823229789734	pulse	1	t		47.0	2.5	/experiments/Knapen_AOT/AOT_stimuli/rescaled_final/0549_rv.mp4	0.0	241.2939612865448	
49	225.78178095817566	pulse	1	t		47.0	2.5	/experiments/Knapen_AOT/AOT_stimuli/rescaled_final/0549_rv.mp4	0.0	242.89341926574707	
49	226.3003695011139	fix_post	2		12	47.0	2.5	/experiments/Knapen_AOT/AOT_stimuli/rescaled_final/0549_rv.mp4	0.0	243.4120078086853	0.10005545616149902
50	226.4004249572754	fix_pre	0		119	48.0	2.5	blank	1.0	243.5120632648468	0.9917209148406982
50	227.38413858413696	pulse	0	t		48.0	2.5	blank	1.0	244.49577689170837	
50	227.3921458721161	movie	1		301	48.0	2.5	blank	1.0	244.5037841796875	2.5087053775787354
50	228.98432755470276	pulse	1	t		48.0	2.5	blank	1.0	246.09596586227417	
50	229.90085124969482	fix_post	2		12	48.0	2.5	blank	1.0	247.01248955726624	0.10004210472106934
51	230.0008933544159	fix_pre	0		120	49.0	2.5	/experiments/Knapen_AOT/AOT_stimuli/rescaled_final/2003_rv.mp4	0.0	247.1125316619873	1.0084848403930664
51	230.5845365524292	pulse	0	t		49.0	2.5	/experiments/Knapen_AOT/AOT_stimuli/rescaled_final/2003_rv.mp4	0.0	247.6961748600006	
51	231.00937819480896	movie	1		265	49.0	2.5	/experiments/Knapen_AOT/AOT_stimuli/rescaled_final/2003_rv.mp4	0.0	248.12101650238037	2.4920706748962402
51	232.18325448036194	pulse	1	t		49.0	2.5	/experiments/Knapen_AOT/AOT_stimuli/rescaled_final/2003_rv.mp4	0.0	249.29489278793335	
51	233.5014488697052	fix_post	2		12	49.0	2.5	/experiments/Knapen_AOT/AOT_stimuli/rescaled_final/2003_rv.mp4	0.0	250.6130871772766	0.10007858276367188
52	233.60152745246887	fix_pre	0		120	50.0	2.5	/experiments/Knapen_AOT/AOT_stimuli/rescaled_final/1494_fw.mp4	0.0	250.71316576004028	1.0083720684051514
52	233.7849678993225	pulse	0	t		50.0	2.5	/experiments/Knapen_AOT/AOT_stimuli/rescaled_final/1494_fw.mp4	0.0	250.89660620689392	
52	234.60989952087402	movie	1		282	50.0	2.5	/experiments/Knapen_AOT/AOT_stimuli/rescaled_final/1494_fw.mp4	0.0	251.72153782844543	2.4920754432678223
52	235.38307690620422	pulse	1	t		50.0	2.5	/experiments/Knapen_AOT/AOT_stimuli/rescaled_final/1494_fw.mp4	0.0	252.49471521377563	
52	236.98348784446716	pulse	1	t		50.0	2.5	/experiments/Knapen_AOT/AOT_stimuli/rescaled_final/1494_fw.mp4	0.0	254.09512615203857	
52	237.10197496414185	fix_post	2		12	50.0	2.5	/experiments/Knapen_AOT/AOT_stimuli/rescaled_final/1494_fw.mp4	0.0	254.21361327171326	0.09997701644897461
53	237.20195198059082	fix_pre	0		120	51.0	2.5	/experiments/Knapen_AOT/AOT_stimuli/rescaled_final/0087_fw.mp4	0.0	254.31359028816223	1.0085492134094238
53	238.21050119400024	movie	1		277	51.0	2.5	/experiments/Knapen_AOT/AOT_stimuli/rescaled_final/0087_fw.mp4	0.0	255.32213950157166	2.492074966430664
53	238.5845205783844	pulse	1	t		51.0	2.5	/experiments/Knapen_AOT/AOT_stimuli/rescaled_final/0087_fw.mp4	0.0	255.6961588859558	
53	240.1838035583496	pulse	1	t		51.0	2.5	/experiments/Knapen_AOT/AOT_stimuli/rescaled_final/0087_fw.mp4	0.0	257.295441865921	
53	240.7025761604309	fix_post	2		12	51.0	2.5	/experiments/Knapen_AOT/AOT_stimuli/rescaled_final/0087_fw.mp4	0.0	257.8142144680023	0.0999600887298584
54	240.80253624916077	fix_pre	0		119	52.0	2.5	/experiments/Knapen_AOT/AOT_stimuli/rescaled_final/0851_fw.mp4	0.0	257.9141745567322	1.0001060962677002
54	241.78634023666382	pulse	0	t		52.0	2.5	/experiments/Knapen_AOT/AOT_stimuli/rescaled_final/0851_fw.mp4	0.0	258.89797854423523	
54	241.80264234542847	movie	1		276	52.0	2.5	/experiments/Knapen_AOT/AOT_stimuli/rescaled_final/0851_fw.mp4	0.0	258.9142806529999	2.5003812313079834
54	243.3854033946991	pulse	1	t		52.0	2.5	/experiments/Knapen_AOT/AOT_stimuli/rescaled_final/0851_fw.mp4	0.0	260.4970417022705	
54	244.30302357673645	fix_post	2		12	52.0	2.5	/experiments/Knapen_AOT/AOT_stimuli/rescaled_final/0851_fw.mp4	0.0	261.41466188430786	0.10008645057678223
55	244.40311002731323	fix_pre	0		120	53.0	2.5	/experiments/Knapen_AOT/AOT_stimuli/rescaled_final/0484_fw.mp4	0.0	261.51474833488464	1.0084657669067383
55	244.9867241382599	pulse	0	t		53.0	2.5	/experiments/Knapen_AOT/AOT_stimuli/rescaled_final/0484_fw.mp4	0.0	262.0983624458313	
55	245.41157579421997	movie	1		278	53.0	2.5	/experiments/Knapen_AOT/AOT_stimuli/rescaled_final/0484_fw.mp4	0.0	262.5232141017914	2.491992950439453
55	246.5851926803589	pulse	1	t		53.0	2.5	/experiments/Knapen_AOT/AOT_stimuli/rescaled_final/0484_fw.mp4	0.0	263.6968309879303	
55	247.90356874465942	fix_post	2		12	53.0	2.5	/experiments/Knapen_AOT/AOT_stimuli/rescaled_final/0484_fw.mp4	0.0	265.01520705223083	0.10014057159423828
56	248.00370931625366	fix_pre	0		120	54.0	2.5	blank	1.0	265.1153476238251	1.0000574588775635
56	248.18717217445374	pulse	0	t		54.0	2.5	blank	1.0	265.29881048202515	
56	249.00376677513123	movie	1		300	54.0	2.5	blank	1.0	266.11540508270264	2.5003302097320557
56	249.7874162197113	pulse	1	t		54.0	2.5	blank	1.0	266.8990545272827	
56	251.38770174980164	pulse	1	t		54.0	2.5	blank	1.0	268.49934005737305	
56	251.50409698486328	fix_post	2		12	54.0	2.5	blank	1.0	268.6157352924347	0.10008502006530762
57	251.6041820049286	fix_pre	0		120	55.0	2.5	/experiments/Knapen_AOT/AOT_stimuli/rescaled_final/1102_fw.mp4	0.0	268.7158203125	1.008420705795288
57	252.61260271072388	movie	1		285	55.0	2.5	/experiments/Knapen_AOT/AOT_stimuli/rescaled_final/1102_fw.mp4	0.0	269.7242410182953	2.4921321868896484
57	252.98682475090027	pulse	1	t		55.0	2.5	/experiments/Knapen_AOT/AOT_stimuli/rescaled_final/1102_fw.mp4	0.0	270.0984630584717	
57	254.58827924728394	pulse	1	t		55.0	2.5	/experiments/Knapen_AOT/AOT_stimuli/rescaled_final/1102_fw.mp4	0.0	271.69991755485535	
57	255.10473489761353	fix_post	2		12	55.0	2.5	/experiments/Knapen_AOT/AOT_stimuli/rescaled_final/1102_fw.mp4	0.0	272.21637320518494	0.09991669654846191
58	255.204651594162	fix_pre	0		119	56.0	2.5	/experiments/Knapen_AOT/AOT_stimuli/rescaled_final/0817_fw.mp4	0.0	272.3162899017334	1.008634090423584
58	256.1884067058563	pulse	0	t		56.0	2.5	/experiments/Knapen_AOT/AOT_stimuli/rescaled_final/0817_fw.mp4	0.0	273.30004501342773	
58	256.21328568458557	movie	1		278	56.0	2.5	/experiments/Knapen_AOT/AOT_stimuli/rescaled_final/0817_fw.mp4	0.0	273.324923992157	2.491943120956421
58	257.7888071537018	pulse	1	t		56.0	2.5	/experiments/Knapen_AOT/AOT_stimuli/rescaled_final/0817_fw.mp4	0.0	274.9004454612732	
58	258.705228805542	fix_post	2		12	56.0	2.5	/experiments/Knapen_AOT/AOT_stimuli/rescaled_final/0817_fw.mp4	0.0	275.8168671131134	0.09996962547302246
59	258.805198431015	fix_pre	0		120	57.0	2.5	/experiments/Knapen_AOT/AOT_stimuli/rescaled_final/1360_fw.mp4	0.0	275.9168367385864	1.0085015296936035
59	259.3824620246887	pulse	0	t		57.0	2.5	/experiments/Knapen_AOT/AOT_stimuli/rescaled_final/1360_fw.mp4	0.0	276.49410033226013	
59	259.8136999607086	movie	1		282	57.0	2.5	/experiments/Knapen_AOT/AOT_stimuli/rescaled_final/1360_fw.mp4	0.0	276.92533826828003	2.4920406341552734
59	260.9872944355011	pulse	1	t		57.0	2.5	/experiments/Knapen_AOT/AOT_stimuli/rescaled_final/1360_fw.mp4	0.0	278.0989327430725	
59	262.3057405948639	fix_post	2		12	57.0	2.5	/experiments/Knapen_AOT/AOT_stimuli/rescaled_final/1360_fw.mp4	0.0	279.4173789024353	0.10010504722595215
60	262.40584564208984	fix_pre	0		120	58.0	2.5	/experiments/Knapen_AOT/AOT_stimuli/rescaled_final/1520_fw.mp4	0.0	279.51748394966125	1.0085084438323975
60	262.5814335346222	pulse	0	t		58.0	2.5	/experiments/Knapen_AOT/AOT_stimuli/rescaled_final/1520_fw.mp4	0.0	279.6930718421936	
60	263.41435408592224	movie	1		284	58.0	2.5	/experiments/Knapen_AOT/AOT_stimuli/rescaled_final/1520_fw.mp4	0.0	280.52599239349365	2.491905689239502
60	264.181517124176	pulse	1	t		58.0	2.5	/experiments/Knapen_AOT/AOT_stimuli/rescaled_final/1520_fw.mp4	0.0	281.29315543174744	
60	265.7814404964447	pulse	1	t		58.0	2.5	/experiments/Knapen_AOT/AOT_stimuli/rescaled_final/1520_fw.mp4	0.0	282.8930788040161	
60	265.90625977516174	fix_post	2		12	58.0	2.5	/experiments/Knapen_AOT/AOT_stimuli/rescaled_final/1520_fw.mp4	0.0	283.01789808273315	0.1000220775604248
61	266.00628185272217	fix_pre	0		120	59.0	2.5	/experiments/Knapen_AOT/AOT_stimuli/rescaled_final/0751_fw.mp4	0.0	283.1179201602936	1.0085742473602295
61	267.0148561000824	movie	1		275	59.0	2.5	/experiments/Knapen_AOT/AOT_stimuli/rescaled_final/0751_fw.mp4	0.0	284.1264944076538	2.4919633865356445
61	267.381778717041	pulse	1	t		59.0	2.5	/experiments/Knapen_AOT/AOT_stimuli/rescaled_final/0751_fw.mp4	0.0	284.4934170246124	
61	268.9825699329376	pulse	1	t		59.0	2.5	/experiments/Knapen_AOT/AOT_stimuli/rescaled_final/0751_fw.mp4	0.0	286.09420824050903	
61	269.50681948661804	fix_post	2		12	59.0	2.5	/experiments/Knapen_AOT/AOT_stimuli/rescaled_final/0751_fw.mp4	0.0	286.61845779418945	0.10007381439208984
62	269.60689330101013	fix_pre	0		118	60.0	2.5	/experiments/Knapen_AOT/AOT_stimuli/rescaled_final/2071_fw.mp4	0.0	286.71853160858154	0.9917857646942139
62	270.58245372772217	pulse	0	t		60.0	2.5	/experiments/Knapen_AOT/AOT_stimuli/rescaled_final/2071_fw.mp4	0.0	287.6940920352936	
62	270.59867906570435	movie	1		278	60.0	2.5	/experiments/Knapen_AOT/AOT_stimuli/rescaled_final/2071_fw.mp4	0.0	287.71031737327576	2.5003316402435303
62	272.18252205848694	pulse	1	t		60.0	2.5	/experiments/Knapen_AOT/AOT_stimuli/rescaled_final/2071_fw.mp4	0.0	289.29416036605835	
62	273.0990107059479	fix_post	2		12	60.0	2.5	/experiments/Knapen_AOT/AOT_stimuli/rescaled_final/2071_fw.mp4	0.0	290.2106490135193	0.10002017021179199
63	273.19903087615967	fix_pre	0		120	61.0	2.5	/experiments/Knapen_AOT/AOT_stimuli/rescaled_final/2117_fw.mp4	0.0	290.3106691837311	1.0085248947143555
63	273.7826759815216	pulse	0	t		61.0	2.5	/experiments/Knapen_AOT/AOT_stimuli/rescaled_final/2117_fw.mp4	0.0	290.894314289093	
63	274.207555770874	movie	1		278	61.0	2.5	/experiments/Knapen_AOT/AOT_stimuli/rescaled_final/2117_fw.mp4	0.0	291.31919407844543	2.4921252727508545
63	275.38129353523254	pulse	1	t		61.0	2.5	/experiments/Knapen_AOT/AOT_stimuli/rescaled_final/2117_fw.mp4	0.0	292.49293184280396	
63	276.6996810436249	fix_post	2		12	61.0	2.5	/experiments/Knapen_AOT/AOT_stimuli/rescaled_final/2117_fw.mp4	0.0	293.8113193511963	0.09988546371459961
64	276.7995665073395	fix_pre	0		120	62.0	2.5	blank	1.0	293.9112048149109	1.0001790523529053
64	276.9832203388214	pulse	0	t		62.0	2.5	blank	1.0	294.0948586463928	
64	277.7997455596924	movie	1		300	62.0	2.5	blank	1.0	294.9113838672638	2.500335454940796
64	278.58364820480347	pulse	1	t		62.0	2.5	blank	1.0	295.6952865123749	
64	280.18367075920105	pulse	1	t		62.0	2.5	blank	1.0	297.29530906677246	
64	280.3000810146332	fix_post	2		12	62.0	2.5	blank	1.0	297.4117193222046	0.10012936592102051
65	280.4002103805542	fix_pre	0		120	63.0	2.5	/experiments/Knapen_AOT/AOT_stimuli/rescaled_final/1579_fw.mp4	0.0	297.5118486881256	1.008512020111084
65	281.4087224006653	movie	1		278	63.0	2.5	/experiments/Knapen_AOT/AOT_stimuli/rescaled_final/1579_fw.mp4	0.0	298.5203607082367	2.492002010345459
65	281.7819323539734	pulse	1	t		63.0	2.5	/experiments/Knapen_AOT/AOT_stimuli/rescaled_final/1579_fw.mp4	0.0	298.8935706615448	
65	283.3833022117615	pulse	1	t		63.0	2.5	/experiments/Knapen_AOT/AOT_stimuli/rescaled_final/1579_fw.mp4	0.0	300.4949405193329	
65	283.90072441101074	fix_post	2		12	63.0	2.5	/experiments/Knapen_AOT/AOT_stimuli/rescaled_final/1579_fw.mp4	0.0	301.01236271858215	0.0999751091003418
66	284.0006995201111	fix_pre	0		119	64.0	2.5	/experiments/Knapen_AOT/AOT_stimuli/rescaled_final/1170_rv.mp4	0.0	301.1123378276825	1.0085837841033936
66	284.98433327674866	pulse	0	t		64.0	2.5	/experiments/Knapen_AOT/AOT_stimuli/rescaled_final/1170_rv.mp4	0.0	302.09597158432007	
66	285.0092833042145	movie	1		261	64.0	2.5	/experiments/Knapen_AOT/AOT_stimuli/rescaled_final/1170_rv.mp4	0.0	302.1209216117859	2.4918923377990723
66	286.5853316783905	pulse	1	t		64.0	2.5	/experiments/Knapen_AOT/AOT_stimuli/rescaled_final/1170_rv.mp4	0.0	303.6969699859619	
66	287.50117564201355	fix_post	2		12	64.0	2.5	/experiments/Knapen_AOT/AOT_stimuli/rescaled_final/1170_rv.mp4	0.0	304.61281394958496	0.10003948211669922
67	287.60121512413025	fix_pre	0		120	65.0	2.5	/experiments/Knapen_AOT/AOT_stimuli/rescaled_final/1318_rv.mp4	0.0	304.71285343170166	1.0084850788116455
67	288.18480944633484	pulse	0	t		65.0	2.5	/experiments/Knapen_AOT/AOT_stimuli/rescaled_final/1318_rv.mp4	0.0	305.29644775390625	
67	288.6097002029419	movie	1		279	65.0	2.5	/experiments/Knapen_AOT/AOT_stimuli/rescaled_final/1318_rv.mp4	0.0	305.7213385105133	2.4920458793640137
67	289.7831349372864	pulse	1	t		65.0	2.5	/experiments/Knapen_AOT/AOT_stimuli/rescaled_final/1318_rv.mp4	0.0	306.8947732448578	
67	291.1017460823059	fix_post	2		12	65.0	2.5	/experiments/Knapen_AOT/AOT_stimuli/rescaled_final/1318_rv.mp4	0.0	308.2133843898773	0.09995055198669434
68	291.2016966342926	fix_pre	0		120	66.0	2.5	/experiments/Knapen_AOT/AOT_stimuli/rescaled_final/0087_rv.mp4	0.0	308.313334941864	1.0085508823394775
68	291.3853602409363	pulse	0	t		66.0	2.5	/experiments/Knapen_AOT/AOT_stimuli/rescaled_final/0087_rv.mp4	0.0	308.4969985485077	
68	292.2102475166321	movie	1		264	66.0	2.5	/experiments/Knapen_AOT/AOT_stimuli/rescaled_final/0087_rv.mp4	0.0	309.3218858242035	2.4920668601989746
68	292.9833240509033	pulse	1	t		66.0	2.5	/experiments/Knapen_AOT/AOT_stimuli/rescaled_final/0087_rv.mp4	0.0	310.09496235847473	
68	294.5845687389374	pulse	1	t		66.0	2.5	/experiments/Knapen_AOT/AOT_stimuli/rescaled_final/0087_rv.mp4	0.0	311.6962070465088	
68	294.70231437683105	fix_post	2		12	66.0	2.5	/experiments/Knapen_AOT/AOT_stimuli/rescaled_final/0087_rv.mp4	0.0	311.81395268440247	0.09995770454406738
69	294.8022720813751	fix_pre	0		120	67.0	2.5	/experiments/Knapen_AOT/AOT_stimuli/rescaled_final/0085_fw.mp4	0.0	311.91391038894653	1.0085680484771729
69	295.8108401298523	movie	1		276	67.0	2.5	/experiments/Knapen_AOT/AOT_stimuli/rescaled_final/0085_fw.mp4	0.0	312.9224784374237	2.491960287094116
69	296.18519616127014	pulse	1	t		67.0	2.5	/experiments/Knapen_AOT/AOT_stimuli/rescaled_final/0085_fw.mp4	0.0	313.29683446884155	
69	297.78476190567017	pulse	1	t		67.0	2.5	/experiments/Knapen_AOT/AOT_stimuli/rescaled_final/0085_fw.mp4	0.0	314.8964002132416	
69	298.3028004169464	fix_post	2		12	67.0	2.5	/experiments/Knapen_AOT/AOT_stimuli/rescaled_final/0085_fw.mp4	0.0	315.4144387245178	0.10001921653747559
70	298.4028196334839	fix_pre	0		119	68.0	2.5	/experiments/Knapen_AOT/AOT_stimuli/rescaled_final/1660_fw.mp4	0.0	315.5144579410553	1.008533239364624
70	299.3865656852722	pulse	0	t		68.0	2.5	/experiments/Knapen_AOT/AOT_stimuli/rescaled_final/1660_fw.mp4	0.0	316.4982039928436	
70	299.4113528728485	movie	1		268	68.0	2.5	/experiments/Knapen_AOT/AOT_stimuli/rescaled_final/1660_fw.mp4	0.0	316.5229911804199	2.4919872283935547
70	300.98533034324646	pulse	1	t		68.0	2.5	/experiments/Knapen_AOT/AOT_stimuli/rescaled_final/1660_fw.mp4	0.0	318.09696865081787	
70	301.90334010124207	fix_post	2		11	68.0	2.5	/experiments/Knapen_AOT/AOT_stimuli/rescaled_final/1660_fw.mp4	0.0	319.0149784088135	0.10002493858337402
71	302.00336503982544	fix_pre	0		120	69.0	2.5	/experiments/Knapen_AOT/AOT_stimuli/rescaled_final/1044_rv.mp4	0.0	319.11500334739685	1.0085468292236328
71	302.58697986602783	pulse	0	t		69.0	2.5	/experiments/Knapen_AOT/AOT_stimuli/rescaled_final/1044_rv.mp4	0.0	319.69861817359924	
71	303.0119118690491	movie	1		279	69.0	2.5	/experiments/Knapen_AOT/AOT_stimuli/rescaled_final/1044_rv.mp4	0.0	320.1235501766205	2.491973638534546
71	304.1858003139496	pulse	1	t		69.0	2.5	/experiments/Knapen_AOT/AOT_stimuli/rescaled_final/1044_rv.mp4	0.0	321.297438621521	
71	305.5038855075836	fix_post	2		12	69.0	2.5	/experiments/Knapen_AOT/AOT_stimuli/rescaled_final/1044_rv.mp4	0.0	322.61552381515503	0.10002636909484863
72	305.60391187667847	fix_pre	0		120	70.0	2.5	blank	1.0	322.7155501842499	1.0001733303070068
72	305.7878336906433	pulse	0	t		70.0	2.5	blank	1.0	322.8994719982147	
72	306.6040852069855	movie	1		300	70.0	2.5	blank	1.0	323.7157235145569	2.500316619873047
72	307.38782835006714	pulse	1	t		70.0	2.5	blank	1.0	324.49946665763855	
72	308.9880063533783	pulse	1	t		70.0	2.5	blank	1.0	326.0996446609497	
72	309.1044018268585	fix_post	2		12	70.0	2.5	blank	1.0	326.21604013442993	0.10005402565002441
73	309.20445585250854	fix_pre	0		120	71.0	2.5	/experiments/Knapen_AOT/AOT_stimuli/rescaled_final/1799_fw.mp4	0.0	326.31609416007996	1.0084798336029053
73	310.21293568611145	movie	1		265	71.0	2.5	/experiments/Knapen_AOT/AOT_stimuli/rescaled_final/1799_fw.mp4	0.0	327.32457399368286	2.4920296669006348
73	310.5884749889374	pulse	1	t		71.0	2.5	/experiments/Knapen_AOT/AOT_stimuli/rescaled_final/1799_fw.mp4	0.0	327.7001132965088	
73	312.18628883361816	pulse	1	t		71.0	2.5	/experiments/Knapen_AOT/AOT_stimuli/rescaled_final/1799_fw.mp4	0.0	329.2979271411896	
73	312.7049653530121	fix_post	2		12	71.0	2.5	/experiments/Knapen_AOT/AOT_stimuli/rescaled_final/1799_fw.mp4	0.0	329.8166036605835	0.10002517700195312
74	312.80499053001404	fix_pre	0		118	72.0	2.5	/experiments/Knapen_AOT/AOT_stimuli/rescaled_final/0455_rv.mp4	0.0	329.91662883758545	1.0002470016479492
74	313.78087854385376	pulse	0	t		72.0	2.5	/experiments/Knapen_AOT/AOT_stimuli/rescaled_final/0455_rv.mp4	0.0	330.89251685142517	
74	313.805237531662	movie	1		275	72.0	2.5	/experiments/Knapen_AOT/AOT_stimuli/rescaled_final/0455_rv.mp4	0.0	330.9168758392334	2.49196457862854
74	315.38062715530396	pulse	1	t		72.0	2.5	/experiments/Knapen_AOT/AOT_stimuli/rescaled_final/0455_rv.mp4	0.0	332.49226546287537	
74	316.2972021102905	fix_post	2		12	72.0	2.5	/experiments/Knapen_AOT/AOT_stimuli/rescaled_final/0455_rv.mp4	0.0	333.40884041786194	0.1000363826751709
75	316.3972384929657	fix_pre	0		120	73.0	2.5	/experiments/Knapen_AOT/AOT_stimuli/rescaled_final/0715_fw.mp4	0.0	333.5088768005371	1.0084867477416992
75	316.9809045791626	pulse	0	t		73.0	2.5	/experiments/Knapen_AOT/AOT_stimuli/rescaled_final/0715_fw.mp4	0.0	334.092542886734	
75	317.4057252407074	movie	1		269	73.0	2.5	/experiments/Knapen_AOT/AOT_stimuli/rescaled_final/0715_fw.mp4	0.0	334.5173635482788	2.4919934272766113
75	318.5815169811249	pulse	1	t		73.0	2.5	/experiments/Knapen_AOT/AOT_stimuli/rescaled_final/0715_fw.mp4	0.0	335.6931552886963	
75	319.897718667984	fix_post	2		12	73.0	2.5	/experiments/Knapen_AOT/AOT_stimuli/rescaled_final/0715_fw.mp4	0.0	337.0093569755554	0.10003423690795898
76	319.99775290489197	fix_pre	0		120	74.0	2.5	/experiments/Knapen_AOT/AOT_stimuli/rescaled_final/1903_fw.mp4	0.0	337.1093912124634	1.0085101127624512
76	320.1813380718231	pulse	0	t		74.0	2.5	/experiments/Knapen_AOT/AOT_stimuli/rescaled_final/1903_fw.mp4	0.0	337.29297637939453	
76	321.0062630176544	movie	1		289	74.0	2.5	/experiments/Knapen_AOT/AOT_stimuli/rescaled_final/1903_fw.mp4	0.0	338.11790132522583	2.4919822216033936
76	321.7815799713135	pulse	1	t		74.0	2.5	/experiments/Knapen_AOT/AOT_stimuli/rescaled_final/1903_fw.mp4	0.0	338.8932182788849	
76	323.38176584243774	pulse	1	t		74.0	2.5	/experiments/Knapen_AOT/AOT_stimuli/rescaled_final/1903_fw.mp4	0.0	340.49340415000916	
76	323.4982452392578	fix_post	2		12	74.0	2.5	/experiments/Knapen_AOT/AOT_stimuli/rescaled_final/1903_fw.mp4	0.0	340.6098835468292	0.10003447532653809
77	323.59827971458435	fix_pre	0		120	75.0	2.5	/experiments/Knapen_AOT/AOT_stimuli/rescaled_final/0807_rv.mp4	0.0	340.70991802215576	1.0085234642028809
77	324.60680317878723	movie	1		277	75.0	2.5	/experiments/Knapen_AOT/AOT_stimuli/rescaled_final/0807_rv.mp4	0.0	341.71844148635864	2.492027521133423
77	324.9805324077606	pulse	1	t		75.0	2.5	/experiments/Knapen_AOT/AOT_stimuli/rescaled_final/0807_rv.mp4	0.0	342.09217071533203	
77	326.5806984901428	pulse	1	t		75.0	2.5	/experiments/Knapen_AOT/AOT_stimuli/rescaled_final/0807_rv.mp4	0.0	343.69233679771423	
77	327.09883069992065	fix_post	2		12	75.0	2.5	/experiments/Knapen_AOT/AOT_stimuli/rescaled_final/0807_rv.mp4	0.0	344.21046900749207	0.09998321533203125
78	327.1988139152527	fix_pre	0		119	76.0	2.5	/experiments/Knapen_AOT/AOT_stimuli/rescaled_final/0771_rv.mp4	0.0	344.3104522228241	1.008561611175537
78	328.18257880210876	pulse	0	t		76.0	2.5	/experiments/Knapen_AOT/AOT_stimuli/rescaled_final/0771_rv.mp4	0.0	345.2942171096802	
78	328.2073755264282	movie	1		286	76.0	2.5	/experiments/Knapen_AOT/AOT_stimuli/rescaled_final/0771_rv.mp4	0.0	345.31901383399963	2.491978645324707
78	329.7812457084656	pulse	1	t		76.0	2.5	/experiments/Knapen_AOT/AOT_stimuli/rescaled_final/0771_rv.mp4	0.0	346.892884016037	
78	330.69935417175293	fix_post	2		12	76.0	2.5	/experiments/Knapen_AOT/AOT_stimuli/rescaled_final/0771_rv.mp4	0.0	347.81099247932434	0.10000014305114746
79	330.7993543148041	fix_pre	0		120	77.0	2.5	blank	1.0	347.9109926223755	1.0001676082611084
79	331.3830580711365	pulse	0	t		77.0	2.5	blank	1.0	348.4946963787079	
79	331.7995219230652	movie	1		300	77.0	2.5	blank	1.0	348.9111602306366	2.500378370285034
79	332.9831955432892	pulse	1	t		77.0	2.5	blank	1.0	350.0948338508606	
79	334.2999002933502	fix_post	2		12	77.0	2.5	blank	1.0	351.41153860092163	0.10005617141723633
80	334.39995646476746	fix_pre	0		120	78.0	2.5	/experiments/Knapen_AOT/AOT_stimuli/rescaled_final/2125_fw.mp4	0.0	351.51159477233887	1.0084800720214844
80	334.5834650993347	pulse	0	t		78.0	2.5	/experiments/Knapen_AOT/AOT_stimuli/rescaled_final/2125_fw.mp4	0.0	351.6951034069061	
80	335.40843653678894	movie	1		266	78.0	2.5	/experiments/Knapen_AOT/AOT_stimuli/rescaled_final/2125_fw.mp4	0.0	352.52007484436035	2.492029905319214
80	336.18217372894287	pulse	1	t		78.0	2.5	/experiments/Knapen_AOT/AOT_stimuli/rescaled_final/2125_fw.mp4	0.0	353.2938120365143	
80	337.78265166282654	pulse	1	t		78.0	2.5	/experiments/Knapen_AOT/AOT_stimuli/rescaled_final/2125_fw.mp4	0.0	354.89428997039795	
80	337.90046644210815	fix_post	2		12	78.0	2.5	/experiments/Knapen_AOT/AOT_stimuli/rescaled_final/2125_fw.mp4	0.0	355.01210474967957	0.09997129440307617
81	338.00043773651123	fix_pre	0		120	79.0	2.5	/experiments/Knapen_AOT/AOT_stimuli/rescaled_final/1031_rv.mp4	0.0	355.11207604408264	1.008587121963501
81	339.00902485847473	movie	1		267	79.0	2.5	/experiments/Knapen_AOT/AOT_stimuli/rescaled_final/1031_rv.mp4	0.0	356.12066316604614	2.491969347000122
81	339.38252878189087	pulse	1	t		79.0	2.5	/experiments/Knapen_AOT/AOT_stimuli/rescaled_final/1031_rv.mp4	0.0	356.4941670894623	
81	340.982750415802	pulse	1	t		79.0	2.5	/experiments/Knapen_AOT/AOT_stimuli/rescaled_final/1031_rv.mp4	0.0	358.0943887233734	
81	341.50099420547485	fix_post	2		12	79.0	2.5	/experiments/Knapen_AOT/AOT_stimuli/rescaled_final/1031_rv.mp4	0.0	358.61263251304626	0.1000065803527832
82	341.60100078582764	fix_pre	0		119	80.0	2.5	/experiments/Knapen_AOT/AOT_stimuli/rescaled_final/1024_fw.mp4	0.0	358.71263909339905	1.00016188621521
82	342.5847170352936	pulse	0	t		80.0	2.5	/experiments/Knapen_AOT/AOT_stimuli/rescaled_final/1024_fw.mp4	0.0	359.696355342865	
82	342.60116267204285	movie	1		275	80.0	2.5	/experiments/Knapen_AOT/AOT_stimuli/rescaled_final/1024_fw.mp4	0.0	359.71280097961426	2.500389337539673
82	344.18358612060547	pulse	1	t		80.0	2.5	/experiments/Knapen_AOT/AOT_stimuli/rescaled_final/1024_fw.mp4	0.0	361.2952244281769	
82	345.1015520095825	fix_post	2		12	80.0	2.5	/experiments/Knapen_AOT/AOT_stimuli/rescaled_final/1024_fw.mp4	0.0	362.21319031715393	0.09996914863586426
83	345.2015211582184	fix_pre	0		120	81.0	2.5	/experiments/Knapen_AOT/AOT_stimuli/rescaled_final/0455_rv.mp4	0.0	362.3131594657898	1.0084691047668457
83	345.7860150337219	pulse	0	t		81.0	2.5	/experiments/Knapen_AOT/AOT_stimuli/rescaled_final/0455_rv.mp4	0.0	362.89765334129333	
83	346.20999026298523	movie	1		275	81.0	2.5	/experiments/Knapen_AOT/AOT_stimuli/rescaled_final/0455_rv.mp4	0.0	363.32162857055664	2.492053270339966
83	347.3839557170868	pulse	1	t		81.0	2.5	/experiments/Knapen_AOT/AOT_stimuli/rescaled_final/0455_rv.mp4	0.0	364.4955940246582	
83	348.7020435333252	fix_post	2		12	81.0	2.5	/experiments/Knapen_AOT/AOT_stimuli/rescaled_final/0455_rv.mp4	0.0	365.8136818408966	0.10003423690795898
84	348.80207777023315	fix_pre	0		119	82.0	2.5	/experiments/Knapen_AOT/AOT_stimuli/rescaled_final/0749_rv.mp4	0.0	365.91371607780457	1.0085151195526123
84	348.98569440841675	pulse	0	t		82.0	2.5	/experiments/Knapen_AOT/AOT_stimuli/rescaled_final/0749_rv.mp4	0.0	366.09733271598816	
84	349.81059288978577	movie	1		277	82.0	2.5	/experiments/Knapen_AOT/AOT_stimuli/rescaled_final/0749_rv.mp4	0.0	366.9222311973572	2.4920263290405273
84	350.584593296051	pulse	1	t		82.0	2.5	/experiments/Knapen_AOT/AOT_stimuli/rescaled_final/0749_rv.mp4	0.0	367.69623160362244	
84	352.18441677093506	pulse	1	t		82.0	2.5	/experiments/Knapen_AOT/AOT_stimuli/rescaled_final/0749_rv.mp4	0.0	369.29605507850647	
84	352.3026192188263	fix_post	2		12	82.0	2.5	/experiments/Knapen_AOT/AOT_stimuli/rescaled_final/0749_rv.mp4	0.0	369.4142575263977	0.09997010231018066
85	352.4025893211365	fix_pre	0		120	83.0	2.5	blank	1.0	369.5142276287079	1.0003788471221924
85	353.40296816825867	movie	1		300	83.0	2.5	blank	1.0	370.5146064758301	2.5001742839813232
85	353.786376953125	pulse	1	t		83.0	2.5	blank	1.0	370.8980152606964	
85	355.3865830898285	pulse	1	t		83.0	2.5	blank	1.0	372.4982213973999	
85	355.90314245224	fix_post	2		12	83.0	2.5	blank	1.0	373.0147807598114	0.09999799728393555
87	356.0031404495239	stim	0		1715					373.11477875709534	14.293835401535034
87	356.98703122138977	pulse	0	t						374.0986695289612	
87	358.58704018592834	pulse	0	t						375.69867849349976	
87	360.1873016357422	pulse	0	t						377.2989399433136	
87	361.78760409355164	pulse	0	t						378.89924240112305	
87	363.387898683548	pulse	0	t						380.4995369911194	
87	364.9810383319855	pulse	0	t						382.0926766395569	
87	366.5883719921112	pulse	0	t						383.7000102996826	
87	368.1809415817261	pulse	0	t						385.2925798892975	
87	369.78130865097046	pulse	0	t						386.89294695854187	
