trial_nr	onset	event_type	phase	response	nr_frames	movie_index	movie_duration	movie_file	blank	onset_abs	duration
0	0.033551332977367565	stim	0		270					13.073138541978551	2.2764377090206835
0	2.3005657919857185	response	0	space						15.340153000986902	
1	2.309989041998051	stim	0		568					15.349576250999235	4.730852165987017
1	7.037752582982648	pulse	0	t						20.07733979198383	
1	7.040841207985068	stim	1		1716					20.08042841698625	14.311383833992295
2	21.352225041977363	fix_pre	0		115	0.0	2.5	/Users/shufanzhang/Documents/PhD/Arrow_of_time/arrow_of_time/stimuli_flat/R_S_yt-AbJBxqEYoMg_27.mp4	0.0	34.391812250978546	0.9652533330081496
2	22.30503720798879	pulse	0	t		0.0	2.5	/Users/shufanzhang/Documents/PhD/Arrow_of_time/arrow_of_time/stimuli_flat/R_S_yt-AbJBxqEYoMg_27.mp4	0.0	35.34462441698997	
2	22.317478374985512	movie	1		302	0.0	2.5	/Users/shufanzhang/Documents/PhD/Arrow_of_time/arrow_of_time/stimuli_flat/R_S_yt-AbJBxqEYoMg_27.mp4	0.0	35.357065583986696	2.504788207996171
2	24.822266582981683	fix_post	2		12	0.0	2.5	/Users/shufanzhang/Documents/PhD/Arrow_of_time/arrow_of_time/stimuli_flat/R_S_yt-AbJBxqEYoMg_27.mp4	0.0	37.86185379198287	0.10422512501827441
3	24.926491707999958	fix_pre	0		119	1.0	2.5	/Users/shufanzhang/Documents/PhD/Arrow_of_time/arrow_of_time/stimuli_flat/R_S_yt-GjFQxAklviE_25.mp4	0.0	37.96607891700114	0.989261833979981
3	25.91575354197994	movie	1		301	1.0	2.5	/Users/shufanzhang/Documents/PhD/Arrow_of_time/arrow_of_time/stimuli_flat/R_S_yt-GjFQxAklviE_25.mp4	0.0	38.95534075098112	2.5086189580033533
3	28.424372499983292	fix_post	2		11	1.0	2.5	/Users/shufanzhang/Documents/PhD/Arrow_of_time/arrow_of_time/stimuli_flat/R_S_yt-GjFQxAklviE_25.mp4	0.0	41.463959708984476	0.09008962500956841
4	28.51446212499286	fix_pre	0		120	2.0	2.5	/Users/shufanzhang/Documents/PhD/Arrow_of_time/arrow_of_time/stimuli_flat/S_pexels-kindel-media-8165572.mp4	0.0	41.554049333994044	1.007454125006916
4	29.521916249999776	movie	1		297	2.0	2.5	/Users/shufanzhang/Documents/PhD/Arrow_of_time/arrow_of_time/stimuli_flat/S_pexels-kindel-media-8165572.mp4	0.0	42.56150345900096	2.500912582996534
4	32.02282883299631	fix_post	2		12	2.0	2.5	/Users/shufanzhang/Documents/PhD/Arrow_of_time/arrow_of_time/stimuli_flat/S_pexels-kindel-media-8165572.mp4	0.0	45.062416041997494	0.1041797089856118
5	32.12700854198192	fix_pre	0		119	3.0	2.5	/Users/shufanzhang/Documents/PhD/Arrow_of_time/arrow_of_time/stimuli_flat/S_IrGYVLkWeQs_9.mp4	0.0	45.166595750983106	0.9913650410016999
5	33.11837358298362	movie	1		301	3.0	2.5	/Users/shufanzhang/Documents/PhD/Arrow_of_time/arrow_of_time/stimuli_flat/S_IrGYVLkWeQs_9.mp4	0.0	46.157960791984806	2.506580292014405
5	35.62495387499803	fix_post	2		11	3.0	2.5	/Users/shufanzhang/Documents/PhD/Arrow_of_time/arrow_of_time/stimuli_flat/S_IrGYVLkWeQs_9.mp4	0.0	48.66454108399921	0.09275512499152683
6	35.717708999989554	fix_pre	0		311	4.0	2.5	/Users/shufanzhang/Documents/PhD/Arrow_of_time/arrow_of_time/stimuli_flat/R_S_yt-uSHBdUi8_V0_24.mp4	0.0	48.75729620899074	2.597364582994487
6	38.30570479200105	pulse	0	t		4.0	2.5	/Users/shufanzhang/Documents/PhD/Arrow_of_time/arrow_of_time/stimuli_flat/R_S_yt-uSHBdUi8_V0_24.mp4	0.0	51.345292001002235	
6	38.31507358298404	movie	1		302	4.0	2.5	/Users/shufanzhang/Documents/PhD/Arrow_of_time/arrow_of_time/stimuli_flat/R_S_yt-uSHBdUi8_V0_24.mp4	0.0	51.354660791985225	2.5084480840014294
6	40.82352166698547	fix_post	2		11	4.0	2.5	/Users/shufanzhang/Documents/PhD/Arrow_of_time/arrow_of_time/stimuli_flat/R_S_yt-uSHBdUi8_V0_24.mp4	0.0	53.863108875986654	0.08996954100439325
7	40.913491207989864	fix_pre	0		120	5.0	2.5	/Users/shufanzhang/Documents/PhD/Arrow_of_time/arrow_of_time/stimuli_flat/S_yt-dO0OuozAgt0_225.mp4	0.0	53.95307841699105	1.0010445840016473
7	41.91453579199151	movie	1		300	5.0	2.5	/Users/shufanzhang/Documents/PhD/Arrow_of_time/arrow_of_time/stimuli_flat/S_yt-dO0OuozAgt0_225.mp4	0.0	54.954123000992695	2.521203250013059
7	44.43573904200457	fix_post	2		10	5.0	2.5	/Users/shufanzhang/Documents/PhD/Arrow_of_time/arrow_of_time/stimuli_flat/S_yt-dO0OuozAgt0_225.mp4	0.0	57.475326251005754	0.08574895799392834
8	44.5214879999985	fix_pre	0		120	6.0	2.5	blank	1.0	57.56107520899968	0.9987396670039743
8	45.52022766700247	movie	1		300	6.0	2.5	blank	1.0	58.55981487600366	2.497898040979635
8	46.714321916981135	pulse	1	t		6.0	2.5	blank	1.0	59.75390912598232	
8	48.01812570798211	fix_post	2		12	6.0	2.5	blank	1.0	61.05771291698329	0.10651166702155024
9	48.12463737500366	fix_pre	0		120	7.0	2.5	/Users/shufanzhang/Documents/PhD/Arrow_of_time/arrow_of_time/stimuli_flat/R_S_pexels-laker-5793000.mp4	0.0	61.16422458400484	0.9993819169758353
9	49.124019291979494	movie	1		298	7.0	2.5	/Users/shufanzhang/Documents/PhD/Arrow_of_time/arrow_of_time/stimuli_flat/R_S_pexels-laker-5793000.mp4	0.0	62.16360650098068	2.489422666025348
9	51.61344195800484	fix_post	2		12	7.0	2.5	/Users/shufanzhang/Documents/PhD/Arrow_of_time/arrow_of_time/stimuli_flat/R_S_pexels-laker-5793000.mp4	0.0	64.65302916700603	0.10190595898893662
10	51.71534791699378	fix_pre	0		245	8.0	2.5	/Users/shufanzhang/Documents/PhD/Arrow_of_time/arrow_of_time/stimuli_flat/R_S_pexels-tima-miroshnichenko-8724308.mp4	0.0	64.75493512599496	2.0512642079847865
10	53.75837674998911	pulse	0	t		8.0	2.5	/Users/shufanzhang/Documents/PhD/Arrow_of_time/arrow_of_time/stimuli_flat/R_S_pexels-tima-miroshnichenko-8724308.mp4	0.0	66.7979639589903	
10	53.766612124978565	movie	1		300	8.0	2.5	/Users/shufanzhang/Documents/PhD/Arrow_of_time/arrow_of_time/stimuli_flat/R_S_pexels-tima-miroshnichenko-8724308.mp4	0.0	66.80619933397975	2.5105297080008313
10	56.277141832979396	fix_post	2		11	8.0	2.5	/Users/shufanzhang/Documents/PhD/Arrow_of_time/arrow_of_time/stimuli_flat/R_S_pexels-tima-miroshnichenko-8724308.mp4	0.0	69.31672904198058	0.08980408401112072
11	56.36694591699052	fix_pre	0		121	9.0	2.5	/Users/shufanzhang/Documents/PhD/Arrow_of_time/arrow_of_time/stimuli_flat/S_yt-K_gHa2x2OQA_319.mp4	0.0	69.4065331259917	1.0112653330143075
11	57.378211250004824	movie	1		300	9.0	2.5	/Users/shufanzhang/Documents/PhD/Arrow_of_time/arrow_of_time/stimuli_flat/S_yt-K_gHa2x2OQA_319.mp4	0.0	70.41779845900601	2.4963706249836832
11	59.87458187498851	fix_post	2		11	9.0	2.5	/Users/shufanzhang/Documents/PhD/Arrow_of_time/arrow_of_time/stimuli_flat/S_yt-K_gHa2x2OQA_319.mp4	0.0	72.91416908398969	0.08977833300014026
12	59.96436020798865	fix_pre	0		120	10.0	2.5	/Users/shufanzhang/Documents/PhD/Arrow_of_time/arrow_of_time/stimuli_flat/S_pexels-mikhail-nilov-8410084.mp4	0.0	73.00394741698983	1.0068010420072824
12	60.97116124999593	movie	1		299	10.0	2.5	/Users/shufanzhang/Documents/PhD/Arrow_of_time/arrow_of_time/stimuli_flat/S_pexels-mikhail-nilov-8410084.mp4	0.0	74.01074845899711	2.506319042004179
12	61.11328649998177	pulse	1	t		10.0	2.5	/Users/shufanzhang/Documents/PhD/Arrow_of_time/arrow_of_time/stimuli_flat/S_pexels-mikhail-nilov-8410084.mp4	0.0	74.15287370898295	
12	63.47748029200011	fix_post	2		11	10.0	2.5	/Users/shufanzhang/Documents/PhD/Arrow_of_time/arrow_of_time/stimuli_flat/S_pexels-mikhail-nilov-8410084.mp4	0.0	76.51706750100129	0.08792162500321865
13	63.56540191700333	fix_pre	0		121	11.0	2.5	/Users/shufanzhang/Documents/PhD/Arrow_of_time/arrow_of_time/stimuli_flat/S_yt-Jo6PxivsTOg_247.mp4	0.0	76.60498912600451	1.012347082985798
13	64.57774899998913	movie	1		300	11.0	2.5	/Users/shufanzhang/Documents/PhD/Arrow_of_time/arrow_of_time/stimuli_flat/S_yt-Jo6PxivsTOg_247.mp4	0.0	77.61733620899031	2.4957742080150638
13	67.07352320800419	fix_post	2		12	11.0	2.5	/Users/shufanzhang/Documents/PhD/Arrow_of_time/arrow_of_time/stimuli_flat/S_yt-Jo6PxivsTOg_247.mp4	0.0	80.11311041700537	0.10544558399124071
14	67.17896879199543	fix_pre	0		242	12.0	2.5	/Users/shufanzhang/Documents/PhD/Arrow_of_time/arrow_of_time/stimuli_flat/S_yt-F3hhts3bwWg_25.mp4	0.0	80.21855600099661	2.0144347499881405
14	69.17556854197755	pulse	0	t		12.0	2.5	/Users/shufanzhang/Documents/PhD/Arrow_of_time/arrow_of_time/stimuli_flat/S_yt-F3hhts3bwWg_25.mp4	0.0	82.21515575097874	
14	69.19340354198357	movie	1		301	12.0	2.5	/Users/shufanzhang/Documents/PhD/Arrow_of_time/arrow_of_time/stimuli_flat/S_yt-F3hhts3bwWg_25.mp4	0.0	82.23299075098475	2.505433415994048
14	71.69883695797762	fix_post	2		12	12.0	2.5	/Users/shufanzhang/Documents/PhD/Arrow_of_time/arrow_of_time/stimuli_flat/S_yt-F3hhts3bwWg_25.mp4	0.0	84.7384241669788	0.10553116700612009
15	71.80436812498374	fix_pre	0		120	13.0	2.5	/Users/shufanzhang/Documents/PhD/Arrow_of_time/arrow_of_time/stimuli_flat/R_S_yt-6aqg1P9YqR8_38.mp4	0.0	84.84395533398492	0.9999002919939812
15	72.80426841697772	movie	1		300	13.0	2.5	/Users/shufanzhang/Documents/PhD/Arrow_of_time/arrow_of_time/stimuli_flat/R_S_yt-6aqg1P9YqR8_38.mp4	0.0	85.8438556259789	2.4938563750183675
15	75.29812479199609	fix_post	2		12	13.0	2.5	/Users/shufanzhang/Documents/PhD/Arrow_of_time/arrow_of_time/stimuli_flat/R_S_yt-6aqg1P9YqR8_38.mp4	0.0	88.33771200099727	0.1041327909915708
16	75.40225758298766	fix_pre	0		120	14.0	2.5	blank	1.0	88.44184479198884	1.0022605000121985
16	76.40451808299986	movie	1		300	14.0	2.5	blank	1.0	89.44410529200104	2.499009624996688
16	78.74942874998669	pulse	1	t		14.0	2.5	blank	1.0	91.78901595898787	
16	78.90352770799655	fix_post	2		12	14.0	2.5	blank	1.0	91.94311491699773	0.09598020900739357
17	78.99950791700394	fix_pre	0		120	15.0	2.5	/Users/shufanzhang/Documents/PhD/Arrow_of_time/arrow_of_time/stimuli_flat/R_S_yt-BAQ3Xhm_PPE_23.mp4	0.0	92.03909512600512	1.0035688749921974
17	80.00307679199614	movie	1		300	15.0	2.5	/Users/shufanzhang/Documents/PhD/Arrow_of_time/arrow_of_time/stimuli_flat/R_S_yt-BAQ3Xhm_PPE_23.mp4	0.0	93.04266400099732	2.501767915993696
17	82.50484470798983	fix_post	2		12	15.0	2.5	/Users/shufanzhang/Documents/PhD/Arrow_of_time/arrow_of_time/stimuli_flat/R_S_yt-BAQ3Xhm_PPE_23.mp4	0.0	95.54443191699102	0.09221958401030861
18	82.59706429200014	fix_pre	0		317	16.0	2.5	/Users/shufanzhang/Documents/PhD/Arrow_of_time/arrow_of_time/stimuli_flat/R_S_yt-sPhtPyQM00c_106.mp4	0.0	95.63665150100132	2.644434457994066
18	85.23171941700275	pulse	0	t		16.0	2.5	/Users/shufanzhang/Documents/PhD/Arrow_of_time/arrow_of_time/stimuli_flat/R_S_yt-sPhtPyQM00c_106.mp4	0.0	98.27130662600393	
18	85.24149874999421	movie	1		301	16.0	2.5	/Users/shufanzhang/Documents/PhD/Arrow_of_time/arrow_of_time/stimuli_flat/R_S_yt-sPhtPyQM00c_106.mp4	0.0	98.28108595899539	2.5061474579852074
18	87.74764620797941	fix_post	2		12	16.0	2.5	/Users/shufanzhang/Documents/PhD/Arrow_of_time/arrow_of_time/stimuli_flat/R_S_yt-sPhtPyQM00c_106.mp4	0.0	100.7872334169806	0.1046576670196373
19	87.85230387499905	fix_pre	0		120	17.0	2.5	/Users/shufanzhang/Documents/PhD/Arrow_of_time/arrow_of_time/stimuli_flat/S_yt-mL3MuCfKtdY_79.mp4	0.0	100.89189108400024	1.00188304198673
19	88.42638016698766	pulse	0	t		17.0	2.5	/Users/shufanzhang/Documents/PhD/Arrow_of_time/arrow_of_time/stimuli_flat/S_yt-mL3MuCfKtdY_79.mp4	0.0	101.46596737598884	
19	88.85418691698578	movie	1		300	17.0	2.5	/Users/shufanzhang/Documents/PhD/Arrow_of_time/arrow_of_time/stimuli_flat/S_yt-mL3MuCfKtdY_79.mp4	0.0	101.89377412598697	2.493534125009319
19	91.3477210419951	fix_post	2		12	17.0	2.5	/Users/shufanzhang/Documents/PhD/Arrow_of_time/arrow_of_time/stimuli_flat/S_yt-mL3MuCfKtdY_79.mp4	0.0	104.38730825099628	0.1038916659890674
20	91.45161270798417	fix_pre	0		119	18.0	2.5	/Users/shufanzhang/Documents/PhD/Arrow_of_time/arrow_of_time/stimuli_flat/S_yt-qurTr1BJMec_244.mp4	0.0	104.49119991698535	0.9903861670172773
20	92.44199887500145	movie	1		301	18.0	2.5	/Users/shufanzhang/Documents/PhD/Arrow_of_time/arrow_of_time/stimuli_flat/S_yt-qurTr1BJMec_244.mp4	0.0	105.48158608400263	2.504601583001204
20	94.94660045800265	fix_post	2		12	18.0	2.5	/Users/shufanzhang/Documents/PhD/Arrow_of_time/arrow_of_time/stimuli_flat/S_yt-qurTr1BJMec_244.mp4	0.0	107.98618766700383	0.10322229197481647
21	95.04982274997747	fix_pre	0		119	19.0	2.5	blank	1.0	108.08940995897865	0.9941165420168545
21	96.04393929199432	movie	1		301	19.0	2.5	blank	1.0	109.0835265009955	2.5052866250043735
21	97.55121224999311	pulse	1	t		19.0	2.5	blank	1.0	110.5907994589943	
21	98.23120345798088	pulse	1	t		19.0	2.5	blank	1.0	111.27079066698207	
21	98.5492259169987	fix_post	2		11	19.0	2.5	blank	1.0	111.58881312599988	0.09256470800028183
22	98.64179062499898	fix_pre	0		54	20.0	2.5	/Users/shufanzhang/Documents/PhD/Arrow_of_time/arrow_of_time/stimuli_flat/R_S_ILSVRC2015_train_00165009.mp4	0.0	111.68137783400016	0.4496558749815449
22	99.07582308299607	pulse	0	t		20.0	2.5	/Users/shufanzhang/Documents/PhD/Arrow_of_time/arrow_of_time/stimuli_flat/R_S_ILSVRC2015_train_00165009.mp4	0.0	112.11541029199725	
22	99.09144649998052	movie	1		300	20.0	2.5	/Users/shufanzhang/Documents/PhD/Arrow_of_time/arrow_of_time/stimuli_flat/R_S_ILSVRC2015_train_00165009.mp4	0.0	112.1310337089817	2.49844395800028
22	101.5898904579808	fix_post	2		13	20.0	2.5	/Users/shufanzhang/Documents/PhD/Arrow_of_time/arrow_of_time/stimuli_flat/R_S_ILSVRC2015_train_00165009.mp4	0.0	114.62947766698198	0.10776862502098083
23	101.69765908300178	fix_pre	0		120	21.0	2.5	/Users/shufanzhang/Documents/PhD/Arrow_of_time/arrow_of_time/stimuli_flat/S_yt-kINZMjys3O4_112.mp4	0.0	114.73724629200296	1.004603124980349
23	102.1816338749777	pulse	0	t		21.0	2.5	/Users/shufanzhang/Documents/PhD/Arrow_of_time/arrow_of_time/stimuli_flat/S_yt-kINZMjys3O4_112.mp4	0.0	115.22122108397889	
23	102.70226220798213	movie	1		300	21.0	2.5	/Users/shufanzhang/Documents/PhD/Arrow_of_time/arrow_of_time/stimuli_flat/S_yt-kINZMjys3O4_112.mp4	0.0	115.74184941698331	2.499853334011277
23	105.20211554199341	fix_post	2		11	21.0	2.5	/Users/shufanzhang/Documents/PhD/Arrow_of_time/arrow_of_time/stimuli_flat/S_yt-kINZMjys3O4_112.mp4	0.0	118.24170275099459	0.08949145799851976
24	105.29160699999193	fix_pre	0		121	22.0	2.5	/Users/shufanzhang/Documents/PhD/Arrow_of_time/arrow_of_time/stimuli_flat/R_S_yt-0xzYSBvVfYM_197.mp4	0.0	118.33119420899311	1.0114854169951286
24	106.30309241698706	movie	1		299	22.0	2.5	/Users/shufanzhang/Documents/PhD/Arrow_of_time/arrow_of_time/stimuli_flat/R_S_yt-0xzYSBvVfYM_197.mp4	0.0	119.34267962598824	2.488295791001292
24	107.21452370798215	pulse	1	t		22.0	2.5	/Users/shufanzhang/Documents/PhD/Arrow_of_time/arrow_of_time/stimuli_flat/R_S_yt-0xzYSBvVfYM_197.mp4	0.0	120.25411091698334	
24	108.79138820798835	fix_post	2		13	22.0	2.5	/Users/shufanzhang/Documents/PhD/Arrow_of_time/arrow_of_time/stimuli_flat/R_S_yt-0xzYSBvVfYM_197.mp4	0.0	121.83097541698953	0.10604770900681615
25	108.89743591699516	fix_pre	0		120	23.0	2.5	/Users/shufanzhang/Documents/PhD/Arrow_of_time/arrow_of_time/stimuli_flat/S_yt-EAMpitsjbbA_153.mp4	0.0	121.93702312599635	1.0050001659838017
25	109.90243608297897	movie	1		300	23.0	2.5	/Users/shufanzhang/Documents/PhD/Arrow_of_time/arrow_of_time/stimuli_flat/S_yt-EAMpitsjbbA_153.mp4	0.0	122.94202329198015	2.494249334005872
25	112.39668541698484	fix_post	2		12	23.0	2.5	/Users/shufanzhang/Documents/PhD/Arrow_of_time/arrow_of_time/stimuli_flat/S_yt-EAMpitsjbbA_153.mp4	0.0	125.43627262598602	0.10095325001748279
26	112.49763866700232	fix_pre	0		410	24.0	2.5	/Users/shufanzhang/Documents/PhD/Arrow_of_time/arrow_of_time/stimuli_flat/S_yt-eF5J5Kjt6oY_23.mp4	0.0	125.5372258760035	3.4254223329771776
26	115.91444845800288	pulse	0	t		24.0	2.5	/Users/shufanzhang/Documents/PhD/Arrow_of_time/arrow_of_time/stimuli_flat/S_yt-eF5J5Kjt6oY_23.mp4	0.0	128.95403566700406	
26	115.9230609999795	movie	1		301	24.0	2.5	/Users/shufanzhang/Documents/PhD/Arrow_of_time/arrow_of_time/stimuli_flat/S_yt-eF5J5Kjt6oY_23.mp4	0.0	128.96264820898068	2.4973582079983316
26	118.42041920797783	fix_post	2		12	24.0	2.5	/Users/shufanzhang/Documents/PhD/Arrow_of_time/arrow_of_time/stimuli_flat/S_yt-eF5J5Kjt6oY_23.mp4	0.0	131.460006416979	0.10353612501057796
27	118.52395533298841	fix_pre	0		121	25.0	2.5	/Users/shufanzhang/Documents/PhD/Arrow_of_time/arrow_of_time/stimuli_flat/R_S_ILSVRC2015_train_00559000.mp4	0.0	131.5635425419896	1.0083255000063218
27	119.53228083299473	movie	1		299	25.0	2.5	/Users/shufanzhang/Documents/PhD/Arrow_of_time/arrow_of_time/stimuli_flat/R_S_ILSVRC2015_train_00559000.mp4	0.0	132.5718680419959	2.4915850840043277
27	122.02386591699906	fix_post	2		13	25.0	2.5	/Users/shufanzhang/Documents/PhD/Arrow_of_time/arrow_of_time/stimuli_flat/R_S_ILSVRC2015_train_00559000.mp4	0.0	135.06345312600024	0.10796666599344462
28	122.1318325829925	fix_pre	0		119	26.0	2.5	/Users/shufanzhang/Documents/PhD/Arrow_of_time/arrow_of_time/stimuli_flat/R_S_Pexels_Videos_2791797.mp4	0.0	135.17141979199369	0.9920810420007911
28	123.12391362499329	movie	1		300	26.0	2.5	/Users/shufanzhang/Documents/PhD/Arrow_of_time/arrow_of_time/stimuli_flat/R_S_Pexels_Videos_2791797.mp4	0.0	136.16350083399448	2.5081068750005215
28	125.63202049999381	fix_post	2		11	26.0	2.5	/Users/shufanzhang/Documents/PhD/Arrow_of_time/arrow_of_time/stimuli_flat/R_S_Pexels_Videos_2791797.mp4	0.0	138.671607708995	0.09044850000645965
29	125.72246900000027	fix_pre	0		121	27.0	2.5	blank	1.0	138.76205620900146	1.01094016697607
29	126.73340916697634	movie	1		299	27.0	2.5	blank	1.0	139.77299637597753	2.4905931660032365
29	128.3073475830024	pulse	1	t		27.0	2.5	blank	1.0	141.3469347920036	
29	129.22400233297958	fix_post	2		13	27.0	2.5	blank	1.0	142.26358954198076	0.10708316700765863
30	129.33108549998724	fix_pre	0		92	28.0	2.5	/Users/shufanzhang/Documents/PhD/Arrow_of_time/arrow_of_time/stimuli_flat/S_ILSVRC2015_train_00369000.mp4	0.0	142.37067270898842	0.7728190420020837
30	130.09294183299062	pulse	0	t		28.0	2.5	/Users/shufanzhang/Documents/PhD/Arrow_of_time/arrow_of_time/stimuli_flat/S_ILSVRC2015_train_00369000.mp4	0.0	143.1325290419918	
30	130.10390454198932	movie	1		301	28.0	2.5	/Users/shufanzhang/Documents/PhD/Arrow_of_time/arrow_of_time/stimuli_flat/S_ILSVRC2015_train_00369000.mp4	0.0	143.1434917509905	2.502782916009892
30	132.60668745799921	fix_post	2		12	28.0	2.5	/Users/shufanzhang/Documents/PhD/Arrow_of_time/arrow_of_time/stimuli_flat/S_ILSVRC2015_train_00369000.mp4	0.0	145.6462746670004	0.1040039999934379
31	132.71069145799265	fix_pre	0		120	29.0	2.5	/Users/shufanzhang/Documents/PhD/Arrow_of_time/arrow_of_time/stimuli_flat/S_yt-2lnxIdOTxog_157.mp4	0.0	145.75027866699384	0.9958744590112474
31	133.7065659170039	movie	1		300	29.0	2.5	/Users/shufanzhang/Documents/PhD/Arrow_of_time/arrow_of_time/stimuli_flat/S_yt-2lnxIdOTxog_157.mp4	0.0	146.74615312600508	2.498133165994659
31	136.20469908299856	fix_post	2		12	29.0	2.5	/Users/shufanzhang/Documents/PhD/Arrow_of_time/arrow_of_time/stimuli_flat/S_yt-2lnxIdOTxog_157.mp4	0.0	149.24428629199974	0.10377316697849892
32	136.30847224997706	fix_pre	0		120	30.0	2.5	/Users/shufanzhang/Documents/PhD/Arrow_of_time/arrow_of_time/stimuli_flat/R_S_ILSVRC2015_train_00417000.mp4	0.0	149.34805945897824	0.9976523750228807
32	137.30612462499994	movie	1		301	30.0	2.5	/Users/shufanzhang/Documents/PhD/Arrow_of_time/arrow_of_time/stimuli_flat/R_S_ILSVRC2015_train_00417000.mp4	0.0	150.34571183400112	2.508019125001738
32	139.81414375000168	fix_post	2		11	30.0	2.5	/Users/shufanzhang/Documents/PhD/Arrow_of_time/arrow_of_time/stimuli_flat/R_S_ILSVRC2015_train_00417000.mp4	0.0	152.85373095900286	0.0920263750012964
33	139.90617012500297	fix_pre	0		121	31.0	2.5	/Users/shufanzhang/Documents/PhD/Arrow_of_time/arrow_of_time/stimuli_flat/S_yt--5ls65Ue1RA_52.mp4	0.0	152.94575733400416	1.0107119169842917
33	140.91688204198726	movie	1		299	31.0	2.5	/Users/shufanzhang/Documents/PhD/Arrow_of_time/arrow_of_time/stimuli_flat/S_yt--5ls65Ue1RA_52.mp4	0.0	153.95646925098845	2.4901995830005035
33	143.40708162498777	fix_post	2		13	31.0	2.5	/Users/shufanzhang/Documents/PhD/Arrow_of_time/arrow_of_time/stimuli_flat/S_yt--5ls65Ue1RA_52.mp4	0.0	156.44666883398895	0.10710383299738169
34	143.51418545798515	fix_pre	0		424	32.0	2.5	/Users/shufanzhang/Documents/PhD/Arrow_of_time/arrow_of_time/stimuli_flat/R_S_yt-RlHmMGUjT9E_130.mp4	0.0	156.55377266698633	3.5419253339932766
34	147.04777449998073	pulse	0	t		32.0	2.5	/Users/shufanzhang/Documents/PhD/Arrow_of_time/arrow_of_time/stimuli_flat/R_S_yt-RlHmMGUjT9E_130.mp4	0.0	160.08736170898192	
34	147.05611079197843	movie	1		302	32.0	2.5	/Users/shufanzhang/Documents/PhD/Arrow_of_time/arrow_of_time/stimuli_flat/R_S_yt-RlHmMGUjT9E_130.mp4	0.0	160.0956980009796	2.508367291011382
34	149.5644780829898	fix_post	2		11	32.0	2.5	/Users/shufanzhang/Documents/PhD/Arrow_of_time/arrow_of_time/stimuli_flat/R_S_yt-RlHmMGUjT9E_130.mp4	0.0	162.604065291991	0.09043833400937729
35	149.65491641699919	fix_pre	0		121	33.0	2.5	/Users/shufanzhang/Documents/PhD/Arrow_of_time/arrow_of_time/stimuli_flat/R_S_ILSVRC2015_train_00165012.mp4	0.0	162.69450362600037	1.0129741659911815
35	150.33422608298133	pulse	0	t		33.0	2.5	/Users/shufanzhang/Documents/PhD/Arrow_of_time/arrow_of_time/stimuli_flat/R_S_ILSVRC2015_train_00165012.mp4	0.0	163.37381329198251	
35	150.66789058299037	movie	1		299	33.0	2.5	/Users/shufanzhang/Documents/PhD/Arrow_of_time/arrow_of_time/stimuli_flat/R_S_ILSVRC2015_train_00165012.mp4	0.0	163.70747779199155	2.4885439169884194
35	153.1564344999788	fix_post	2		13	33.0	2.5	/Users/shufanzhang/Documents/PhD/Arrow_of_time/arrow_of_time/stimuli_flat/R_S_ILSVRC2015_train_00165012.mp4	0.0	166.19602170897997	0.10995441701379605
36	153.26638891699258	fix_pre	0		120	34.0	2.5	blank	1.0	166.30597612599377	0.9993957499973476
36	154.26578466698993	movie	1		299	34.0	2.5	blank	1.0	167.3053718759911	2.4903152080078144
36	155.43783316700137	pulse	1	t		34.0	2.5	blank	1.0	168.47742037600256	
36	156.75609987499774	fix_post	2		12	34.0	2.5	blank	1.0	169.79568708399893	0.10453279200010002
37	156.86063266699784	fix_pre	0		121	35.0	2.5	/Users/shufanzhang/Documents/PhD/Arrow_of_time/arrow_of_time/stimuli_flat/R_S_comp_DB_D002_C003_PSNK_v04_SDR_PS_20180914_SDR_2K_AVC.mp4	0.0	169.90021987599903	1.0087523330003023
37	157.86938499999815	movie	1		298	35.0	2.5	/Users/shufanzhang/Documents/PhD/Arrow_of_time/arrow_of_time/stimuli_flat/R_S_comp_DB_D002_C003_PSNK_v04_SDR_PS_20180914_SDR_2K_AVC.mp4	0.0	170.90897220899933	2.4947170829982497
37	157.97232895798516	pulse	1	t		35.0	2.5	/Users/shufanzhang/Documents/PhD/Arrow_of_time/arrow_of_time/stimuli_flat/R_S_comp_DB_D002_C003_PSNK_v04_SDR_PS_20180914_SDR_2K_AVC.mp4	0.0	171.01191616698634	
37	160.3641020829964	fix_post	2		12	35.0	2.5	/Users/shufanzhang/Documents/PhD/Arrow_of_time/arrow_of_time/stimuli_flat/R_S_comp_DB_D002_C003_PSNK_v04_SDR_PS_20180914_SDR_2K_AVC.mp4	0.0	173.40368929199758	0.1026398749963846
38	160.46674195799278	fix_pre	0		302	36.0	2.5	/Users/shufanzhang/Documents/PhD/Arrow_of_time/arrow_of_time/stimuli_flat/R_S_yt-kINZMjys3O4_112.mp4	0.0	173.50632916699396	2.514932124991901
38	162.96938224998303	pulse	0	t		36.0	2.5	/Users/shufanzhang/Documents/PhD/Arrow_of_time/arrow_of_time/stimuli_flat/R_S_yt-kINZMjys3O4_112.mp4	0.0	176.0089694589842	
38	162.98167408298468	movie	1		300	36.0	2.5	/Users/shufanzhang/Documents/PhD/Arrow_of_time/arrow_of_time/stimuli_flat/R_S_yt-kINZMjys3O4_112.mp4	0.0	176.02126129198587	2.5002238750166725
38	165.48189795800135	fix_post	2		13	36.0	2.5	/Users/shufanzhang/Documents/PhD/Arrow_of_time/arrow_of_time/stimuli_flat/R_S_yt-kINZMjys3O4_112.mp4	0.0	178.52148516700254	0.1073182919935789
39	165.58921624999493	fix_pre	0		119	37.0	2.5	/Users/shufanzhang/Documents/PhD/Arrow_of_time/arrow_of_time/stimuli_flat/R_S_yt-EuyfT0PuOoQ_91.mp4	0.0	178.62880345899612	0.9930049579998013
39	166.58222120799473	movie	1		300	37.0	2.5	/Users/shufanzhang/Documents/PhD/Arrow_of_time/arrow_of_time/stimuli_flat/R_S_yt-EuyfT0PuOoQ_91.mp4	0.0	179.62180841699592	2.498249958996894
39	169.08047116699163	fix_post	2		12	37.0	2.5	/Users/shufanzhang/Documents/PhD/Arrow_of_time/arrow_of_time/stimuli_flat/R_S_yt-EuyfT0PuOoQ_91.mp4	0.0	182.1200583759928	0.10358383299899288
40	169.18405499999062	fix_pre	0		121	38.0	2.5	/Users/shufanzhang/Documents/PhD/Arrow_of_time/arrow_of_time/stimuli_flat/S_yt-4rwBpRuHg-c_1308.mp4	0.0	182.2236422089918	1.005943041993305
40	170.18999804198393	movie	1		299	38.0	2.5	/Users/shufanzhang/Documents/PhD/Arrow_of_time/arrow_of_time/stimuli_flat/S_yt-4rwBpRuHg-c_1308.mp4	0.0	183.2295852509851	2.4926403750141617
40	172.6826384169981	fix_post	2		13	38.0	2.5	/Users/shufanzhang/Documents/PhD/Arrow_of_time/arrow_of_time/stimuli_flat/S_yt-4rwBpRuHg-c_1308.mp4	0.0	185.72222562599927	0.10634891598601826
41	172.7889873329841	fix_pre	0		120	39.0	2.5	/Users/shufanzhang/Documents/PhD/Arrow_of_time/arrow_of_time/stimuli_flat/R_S_yt-cjndulbUtRc_51.mp4	0.0	185.8285745419853	1.0062387920042966
41	173.7952261249884	movie	1		299	39.0	2.5	/Users/shufanzhang/Documents/PhD/Arrow_of_time/arrow_of_time/stimuli_flat/R_S_yt-cjndulbUtRc_51.mp4	0.0	186.8348133339896	2.4873163329903036
41	176.2825424579787	fix_post	2		13	39.0	2.5	/Users/shufanzhang/Documents/PhD/Arrow_of_time/arrow_of_time/stimuli_flat/R_S_yt-cjndulbUtRc_51.mp4	0.0	189.3221296669799	0.10777579201385379
42	176.39031824999256	fix_pre	0		515	40.0	2.5	/Users/shufanzhang/Documents/PhD/Arrow_of_time/arrow_of_time/stimuli_flat/R_S_yt-wnQFgNEnHUI_109.mp4	0.0	189.42990545899374	4.304572583001573
42	180.6863142499933	pulse	0	t		40.0	2.5	/Users/shufanzhang/Documents/PhD/Arrow_of_time/arrow_of_time/stimuli_flat/R_S_yt-wnQFgNEnHUI_109.mp4	0.0	193.72590145899449	
42	180.69489083299413	movie	1		302	40.0	2.5	/Users/shufanzhang/Documents/PhD/Arrow_of_time/arrow_of_time/stimuli_flat/R_S_yt-wnQFgNEnHUI_109.mp4	0.0	193.73447804199532	2.502874875004636
42	183.19776570799877	fix_post	2		12	40.0	2.5	/Users/shufanzhang/Documents/PhD/Arrow_of_time/arrow_of_time/stimuli_flat/R_S_yt-wnQFgNEnHUI_109.mp4	0.0	196.23735291699995	0.10506349999923259
43	183.302829207998	fix_pre	0		120	41.0	2.5	/Users/shufanzhang/Documents/PhD/Arrow_of_time/arrow_of_time/stimuli_flat/R_S_yt-j3Sk8ZnAiEA_32.mp4	0.0	196.34241641699919	0.9979417090071365
43	184.30077091700514	movie	1		300	41.0	2.5	/Users/shufanzhang/Documents/PhD/Arrow_of_time/arrow_of_time/stimuli_flat/R_S_yt-j3Sk8ZnAiEA_32.mp4	0.0	197.34035812600632	2.5000029999937396
43	186.80077391699888	fix_post	2		12	41.0	2.5	/Users/shufanzhang/Documents/PhD/Arrow_of_time/arrow_of_time/stimuli_flat/R_S_yt-j3Sk8ZnAiEA_32.mp4	0.0	199.84036112600006	0.10252887499518692
44	186.90330279199407	fix_pre	0		121	42.0	2.5	blank	1.0	199.94289000099525	1.002052708005067
44	187.90535549999913	movie	1		300	42.0	2.5	blank	1.0	200.94494270900032	2.500554166996153
44	190.15375583298737	pulse	1	t		42.0	2.5	blank	1.0	203.19334304198856	
44	190.40590966699529	fix_post	2		11	42.0	2.5	blank	1.0	203.44549687599647	0.09141324998927303
45	190.49732291698456	fix_pre	0		120	43.0	2.5	/Users/shufanzhang/Documents/PhD/Arrow_of_time/arrow_of_time/stimuli_flat/S_yt-7W50lcw5FCo_37.mp4	0.0	203.53691012598574	1.003124208014924
45	191.50044712499948	movie	1		300	43.0	2.5	/Users/shufanzhang/Documents/PhD/Arrow_of_time/arrow_of_time/stimuli_flat/S_yt-7W50lcw5FCo_37.mp4	0.0	204.54003433400067	2.502222207986051
45	194.00266933298553	fix_post	2		12	43.0	2.5	/Users/shufanzhang/Documents/PhD/Arrow_of_time/arrow_of_time/stimuli_flat/S_yt-7W50lcw5FCo_37.mp4	0.0	207.04225654198672	0.1032827089948114
46	194.10595204198034	fix_pre	0		1015	44.0	2.5	/Users/shufanzhang/Documents/PhD/Arrow_of_time/arrow_of_time/stimuli_flat/S_yt-Bx2kLEUuN0E_456.mp4	0.0	207.14553925098153	8.451141916011693
46	202.54990949999774	pulse	0	t		44.0	2.5	/Users/shufanzhang/Documents/PhD/Arrow_of_time/arrow_of_time/stimuli_flat/S_yt-Bx2kLEUuN0E_456.mp4	0.0	215.58949670899892	
46	202.55709395799204	movie	1		195	44.0	2.5	/Users/shufanzhang/Documents/PhD/Arrow_of_time/arrow_of_time/stimuli_flat/S_yt-Bx2kLEUuN0E_456.mp4	0.0	215.59668116699322	1.6293112919956911
