trial_nr	onset	event_type	phase	response	nr_frames	movie_index	movie_duration	movie_file	blank	onset_abs	duration
0	0.15816998481750488	stim	0		192					33.94075155258179	1.6000568866729736
0	1.750124216079712	response	0	space						35.532705783843994	
1	1.7582268714904785	stim	0		5319					35.54080843925476	44.3406708240509
1	46.088653802871704	pulse	0	t						79.87123537063599	
1	46.09889769554138	stim	1		1715					79.88147926330566	14.301476955413818
1	47.682024240493774	pulse	1	t						81.46460580825806	
1	49.282371044158936	pulse	1	t						83.06495261192322	
1	50.88243079185486	pulse	1	t						84.66501235961914	
1	52.48271036148071	pulse	1	t						86.265291929245	
1	54.08293032646179	pulse	1	t						87.86551189422607	
1	55.683194160461426	pulse	1	t						89.46577572822571	
1	57.283512353897095	pulse	1	t						91.06609392166138	
1	58.88367176055908	pulse	1	t						92.66625332832336	
2	60.4003746509552	fix_pre	0		11	0.0	2.5	/experiments/Knapen_AOT/AOT_stimuli/rescaled_final/0221_fw.mp4	0.0	94.18295621871948	0.10838985443115234
2	60.48399519920349	pulse	0	t		0.0	2.5	/experiments/Knapen_AOT/AOT_stimuli/rescaled_final/0221_fw.mp4	0.0	94.26657676696777	
2	60.50876450538635	movie	1		275	0.0	2.5	/experiments/Knapen_AOT/AOT_stimuli/rescaled_final/0221_fw.mp4	0.0	94.29134607315063	2.4921200275421143
2	62.0848445892334	pulse	1	t		0.0	2.5	/experiments/Knapen_AOT/AOT_stimuli/rescaled_final/0221_fw.mp4	0.0	95.86742615699768	
2	63.00088453292847	fix_post	2		12	0.0	2.5	/experiments/Knapen_AOT/AOT_stimuli/rescaled_final/0221_fw.mp4	0.0	96.78346610069275	0.09997034072875977
3	63.10085487365723	fix_pre	0		120	1.0	2.5	/experiments/Knapen_AOT/AOT_stimuli/rescaled_final/0234_rv.mp4	0.0	96.88343644142151	1.008432149887085
3	63.68440079689026	pulse	0	t		1.0	2.5	/experiments/Knapen_AOT/AOT_stimuli/rescaled_final/0234_rv.mp4	0.0	97.46698236465454	
3	64.10928702354431	movie	1		270	1.0	2.5	/experiments/Knapen_AOT/AOT_stimuli/rescaled_final/0234_rv.mp4	0.0	97.8918685913086	2.492048978805542
3	65.28474831581116	pulse	1	t		1.0	2.5	/experiments/Knapen_AOT/AOT_stimuli/rescaled_final/0234_rv.mp4	0.0	99.06732988357544	
3	66.60133600234985	fix_post	2		12	1.0	2.5	/experiments/Knapen_AOT/AOT_stimuli/rescaled_final/0234_rv.mp4	0.0	100.38391757011414	0.09998035430908203
4	66.70131635665894	fix_pre	0		120	2.0	2.5	/experiments/Knapen_AOT/AOT_stimuli/rescaled_final/1110_rv.mp4	0.0	100.48389792442322	1.0084784030914307
4	66.88492059707642	pulse	0	t		2.0	2.5	/experiments/Knapen_AOT/AOT_stimuli/rescaled_final/1110_rv.mp4	0.0	100.6675021648407	
4	67.70979475975037	movie	1		277	2.0	2.5	/experiments/Knapen_AOT/AOT_stimuli/rescaled_final/1110_rv.mp4	0.0	101.49237632751465	2.4920310974121094
4	68.48406052589417	pulse	1	t		2.0	2.5	/experiments/Knapen_AOT/AOT_stimuli/rescaled_final/1110_rv.mp4	0.0	102.26664209365845	
4	70.08366346359253	pulse	1	t		2.0	2.5	/experiments/Knapen_AOT/AOT_stimuli/rescaled_final/1110_rv.mp4	0.0	103.86624503135681	
4	70.20182585716248	fix_post	2		12	2.0	2.5	/experiments/Knapen_AOT/AOT_stimuli/rescaled_final/1110_rv.mp4	0.0	103.98440742492676	0.1000223159790039
5	70.30184817314148	fix_pre	0		120	3.0	2.5	/experiments/Knapen_AOT/AOT_stimuli/rescaled_final/0289_fw.mp4	0.0	104.08442974090576	1.0085151195526123
5	71.31036329269409	movie	1		278	3.0	2.5	/experiments/Knapen_AOT/AOT_stimuli/rescaled_final/0289_fw.mp4	0.0	105.09294486045837	2.492000102996826
5	71.68348217010498	pulse	1	t		3.0	2.5	/experiments/Knapen_AOT/AOT_stimuli/rescaled_final/0289_fw.mp4	0.0	105.46606373786926	
5	73.28388357162476	pulse	1	t		3.0	2.5	/experiments/Knapen_AOT/AOT_stimuli/rescaled_final/0289_fw.mp4	0.0	107.06646513938904	
5	73.80236339569092	fix_post	2		12	3.0	2.5	/experiments/Knapen_AOT/AOT_stimuli/rescaled_final/0289_fw.mp4	0.0	107.5849449634552	0.1000363826751709
6	73.90239977836609	fix_pre	0		119	4.0	2.5	/experiments/Knapen_AOT/AOT_stimuli/rescaled_final/1221_fw.mp4	0.0	107.68498134613037	1.0002119541168213
6	74.8792564868927	pulse	0	t		4.0	2.5	/experiments/Knapen_AOT/AOT_stimuli/rescaled_final/1221_fw.mp4	0.0	108.66183805465698	
6	74.90261173248291	movie	1		278	4.0	2.5	/experiments/Knapen_AOT/AOT_stimuli/rescaled_final/1221_fw.mp4	0.0	108.68519330024719	2.500669002532959
6	76.48503112792969	pulse	1	t		4.0	2.5	/experiments/Knapen_AOT/AOT_stimuli/rescaled_final/1221_fw.mp4	0.0	110.26761269569397	
6	77.40328073501587	fix_post	2		12	4.0	2.5	/experiments/Knapen_AOT/AOT_stimuli/rescaled_final/1221_fw.mp4	0.0	111.18586230278015	0.09970736503601074
7	77.50298810005188	fix_pre	0		120	5.0	2.5	blank	1.0	111.28556966781616	1.0001111030578613
7	78.07853579521179	pulse	0	t		5.0	2.5	blank	1.0	111.86111736297607	
7	78.50309920310974	movie	1		300	5.0	2.5	blank	1.0	112.28568077087402	2.5003819465637207
7	79.67851710319519	pulse	1	t		5.0	2.5	blank	1.0	113.46109867095947	
7	81.00348114967346	fix_post	2		12	5.0	2.5	blank	1.0	114.78606271743774	0.1000516414642334
8	81.1035327911377	fix_pre	0		120	6.0	2.5	/experiments/Knapen_AOT/AOT_stimuli/rescaled_final/0063_rv.mp4	0.0	114.88611435890198	1.0084328651428223
8	81.27875185012817	pulse	0	t		6.0	2.5	/experiments/Knapen_AOT/AOT_stimuli/rescaled_final/0063_rv.mp4	0.0	115.06133341789246	
8	82.11196565628052	movie	1		287	6.0	2.5	/experiments/Knapen_AOT/AOT_stimuli/rescaled_final/0063_rv.mp4	0.0	115.8945472240448	2.4920287132263184
8	82.87939667701721	pulse	1	t		6.0	2.5	/experiments/Knapen_AOT/AOT_stimuli/rescaled_final/0063_rv.mp4	0.0	116.6619782447815	
8	84.47925138473511	pulse	1	t		6.0	2.5	/experiments/Knapen_AOT/AOT_stimuli/rescaled_final/0063_rv.mp4	0.0	118.26183295249939	
8	84.60399436950684	fix_post	2		12	6.0	2.5	/experiments/Knapen_AOT/AOT_stimuli/rescaled_final/0063_rv.mp4	0.0	118.38657593727112	0.10019516944885254
9	84.70418953895569	fix_pre	0		120	7.0	2.5	/experiments/Knapen_AOT/AOT_stimuli/rescaled_final/1870_rv.mp4	0.0	118.48677110671997	1.0083153247833252
9	85.71250486373901	movie	1		284	7.0	2.5	/experiments/Knapen_AOT/AOT_stimuli/rescaled_final/1870_rv.mp4	0.0	119.4950864315033	2.4920685291290283
9	86.07945775985718	pulse	1	t		7.0	2.5	/experiments/Knapen_AOT/AOT_stimuli/rescaled_final/1870_rv.mp4	0.0	119.86203932762146	
9	87.67970395088196	pulse	1	t		7.0	2.5	/experiments/Knapen_AOT/AOT_stimuli/rescaled_final/1870_rv.mp4	0.0	121.46228551864624	
9	88.20457339286804	fix_post	2		12	7.0	2.5	/experiments/Knapen_AOT/AOT_stimuli/rescaled_final/1870_rv.mp4	0.0	121.98715496063232	0.10006594657897949
10	88.30463933944702	fix_pre	0		118	8.0	2.5	/experiments/Knapen_AOT/AOT_stimuli/rescaled_final/1393_fw.mp4	0.0	122.0872209072113	0.991732120513916
10	89.27991890907288	pulse	0	t		8.0	2.5	/experiments/Knapen_AOT/AOT_stimuli/rescaled_final/1393_fw.mp4	0.0	123.06250047683716	
10	89.29637145996094	movie	1		290	8.0	2.5	/experiments/Knapen_AOT/AOT_stimuli/rescaled_final/1393_fw.mp4	0.0	123.07895302772522	2.500369071960449
10	90.87862539291382	pulse	1	t		8.0	2.5	/experiments/Knapen_AOT/AOT_stimuli/rescaled_final/1393_fw.mp4	0.0	124.6612069606781	
10	91.79674053192139	fix_post	2		12	8.0	2.5	/experiments/Knapen_AOT/AOT_stimuli/rescaled_final/1393_fw.mp4	0.0	125.57932209968567	0.10008907318115234
11	91.89682960510254	fix_pre	0		120	9.0	2.5	/experiments/Knapen_AOT/AOT_stimuli/rescaled_final/1592_fw.mp4	0.0	125.67941117286682	1.008500099182129
11	92.48054623603821	pulse	0	t		9.0	2.5	/experiments/Knapen_AOT/AOT_stimuli/rescaled_final/1592_fw.mp4	0.0	126.26312780380249	
11	92.90532970428467	movie	1		272	9.0	2.5	/experiments/Knapen_AOT/AOT_stimuli/rescaled_final/1592_fw.mp4	0.0	126.68791127204895	2.491955280303955
11	94.07883620262146	pulse	1	t		9.0	2.5	/experiments/Knapen_AOT/AOT_stimuli/rescaled_final/1592_fw.mp4	0.0	127.86141777038574	
11	95.39728498458862	fix_post	2		12	9.0	2.5	/experiments/Knapen_AOT/AOT_stimuli/rescaled_final/1592_fw.mp4	0.0	129.1798665523529	0.1000208854675293
12	95.49730587005615	fix_pre	0		120	10.0	2.5	/experiments/Knapen_AOT/AOT_stimuli/rescaled_final/2022_fw.mp4	0.0	129.27988743782043	1.0084900856018066
12	95.6808910369873	pulse	0	t		10.0	2.5	/experiments/Knapen_AOT/AOT_stimuli/rescaled_final/2022_fw.mp4	0.0	129.4634726047516	
12	96.50579595565796	movie	1		288	10.0	2.5	/experiments/Knapen_AOT/AOT_stimuli/rescaled_final/2022_fw.mp4	0.0	130.28837752342224	2.4920859336853027
12	97.27902317047119	pulse	1	t		10.0	2.5	/experiments/Knapen_AOT/AOT_stimuli/rescaled_final/2022_fw.mp4	0.0	131.06160473823547	
12	98.87919092178345	pulse	1	t		10.0	2.5	/experiments/Knapen_AOT/AOT_stimuli/rescaled_final/2022_fw.mp4	0.0	132.66177248954773	
12	98.99788188934326	fix_post	2		12	10.0	2.5	/experiments/Knapen_AOT/AOT_stimuli/rescaled_final/2022_fw.mp4	0.0	132.78046345710754	0.10003781318664551
13	99.09791970252991	fix_pre	0		120	11.0	2.5	/experiments/Knapen_AOT/AOT_stimuli/rescaled_final/2134_rv.mp4	0.0	132.8805012702942	1.008411169052124
13	100.10633087158203	movie	1		280	11.0	2.5	/experiments/Knapen_AOT/AOT_stimuli/rescaled_final/2134_rv.mp4	0.0	133.8889124393463	2.4920291900634766
13	100.48047375679016	pulse	1	t		11.0	2.5	/experiments/Knapen_AOT/AOT_stimuli/rescaled_final/2134_rv.mp4	0.0	134.26305532455444	
13	102.07996010780334	pulse	1	t		11.0	2.5	/experiments/Knapen_AOT/AOT_stimuli/rescaled_final/2134_rv.mp4	0.0	135.86254167556763	
13	102.59836006164551	fix_post	2		12	11.0	2.5	/experiments/Knapen_AOT/AOT_stimuli/rescaled_final/2134_rv.mp4	0.0	136.3809416294098	0.1000218391418457
14	102.69838190078735	fix_pre	0		119	12.0	2.5	blank	1.0	136.48096346855164	0.9919266700744629
14	103.68206882476807	pulse	0	t		12.0	2.5	blank	1.0	137.46465039253235	
14	103.69030857086182	movie	1		301	12.0	2.5	blank	1.0	137.4728901386261	2.508575439453125
14	105.28242707252502	pulse	1	t		12.0	2.5	blank	1.0	139.0650086402893	
14	106.19888401031494	fix_post	2		12	12.0	2.5	blank	1.0	139.98146557807922	0.10010123252868652
15	106.29898524284363	fix_pre	0		120	13.0	2.5	/experiments/Knapen_AOT/AOT_stimuli/rescaled_final/0640_fw.mp4	0.0	140.0815668106079	1.0084378719329834
15	106.88255286216736	pulse	0	t		13.0	2.5	/experiments/Knapen_AOT/AOT_stimuli/rescaled_final/0640_fw.mp4	0.0	140.66513442993164	
15	107.30742311477661	movie	1		272	13.0	2.5	/experiments/Knapen_AOT/AOT_stimuli/rescaled_final/0640_fw.mp4	0.0	141.0900046825409	2.4920732975006104
15	108.48090124130249	pulse	1	t		13.0	2.5	/experiments/Knapen_AOT/AOT_stimuli/rescaled_final/0640_fw.mp4	0.0	142.26348280906677	
15	109.79949641227722	fix_post	2		12	13.0	2.5	/experiments/Knapen_AOT/AOT_stimuli/rescaled_final/0640_fw.mp4	0.0	143.5820779800415	0.09995913505554199
16	109.89945554733276	fix_pre	0		120	14.0	2.5	/experiments/Knapen_AOT/AOT_stimuli/rescaled_final/1679_fw.mp4	0.0	143.68203711509705	1.0084919929504395
16	110.08306860923767	pulse	0	t		14.0	2.5	/experiments/Knapen_AOT/AOT_stimuli/rescaled_final/1679_fw.mp4	0.0	143.86565017700195	
16	110.9079475402832	movie	1		278	14.0	2.5	/experiments/Knapen_AOT/AOT_stimuli/rescaled_final/1679_fw.mp4	0.0	144.69052910804749	2.4921107292175293
16	111.68342971801758	pulse	1	t		14.0	2.5	/experiments/Knapen_AOT/AOT_stimuli/rescaled_final/1679_fw.mp4	0.0	145.46601128578186	
16	113.28173065185547	pulse	1	t		14.0	2.5	/experiments/Knapen_AOT/AOT_stimuli/rescaled_final/1679_fw.mp4	0.0	147.06431221961975	
16	113.40005826950073	fix_post	2		12	14.0	2.5	/experiments/Knapen_AOT/AOT_stimuli/rescaled_final/1679_fw.mp4	0.0	147.18263983726501	0.1000056266784668
17	113.5000638961792	fix_pre	0		120	15.0	2.5	/experiments/Knapen_AOT/AOT_stimuli/rescaled_final/1691_fw.mp4	0.0	147.28264546394348	1.008538007736206
17	114.5086019039154	movie	1		284	15.0	2.5	/experiments/Knapen_AOT/AOT_stimuli/rescaled_final/1691_fw.mp4	0.0	148.2911834716797	2.49192214012146
17	114.88188314437866	pulse	1	t		15.0	2.5	/experiments/Knapen_AOT/AOT_stimuli/rescaled_final/1691_fw.mp4	0.0	148.66446471214294	
17	116.48211526870728	pulse	1	t		15.0	2.5	/experiments/Knapen_AOT/AOT_stimuli/rescaled_final/1691_fw.mp4	0.0	150.26469683647156	
17	117.00052404403687	fix_post	2		12	15.0	2.5	/experiments/Knapen_AOT/AOT_stimuli/rescaled_final/1691_fw.mp4	0.0	150.78310561180115	0.10003852844238281
18	117.10056257247925	fix_pre	0		119	16.0	2.5	/experiments/Knapen_AOT/AOT_stimuli/rescaled_final/0906_rv.mp4	0.0	150.88314414024353	1.0003042221069336
18	118.08458185195923	pulse	0	t		16.0	2.5	/experiments/Knapen_AOT/AOT_stimuli/rescaled_final/0906_rv.mp4	0.0	151.8671634197235	
18	118.10086679458618	movie	1		281	16.0	2.5	/experiments/Knapen_AOT/AOT_stimuli/rescaled_final/0906_rv.mp4	0.0	151.88344836235046	2.5002212524414062
18	119.68434953689575	pulse	1	t		16.0	2.5	/experiments/Knapen_AOT/AOT_stimuli/rescaled_final/0906_rv.mp4	0.0	153.46693110466003	
18	120.60108804702759	fix_post	2		12	16.0	2.5	/experiments/Knapen_AOT/AOT_stimuli/rescaled_final/0906_rv.mp4	0.0	154.38366961479187	0.1000058650970459
19	120.70109391212463	fix_pre	0		120	17.0	2.5	/experiments/Knapen_AOT/AOT_stimuli/rescaled_final/1840_rv.mp4	0.0	154.48367547988892	1.0084888935089111
19	121.2847261428833	pulse	0	t		17.0	2.5	/experiments/Knapen_AOT/AOT_stimuli/rescaled_final/1840_rv.mp4	0.0	155.06730771064758	
19	121.70958280563354	movie	1		275	17.0	2.5	/experiments/Knapen_AOT/AOT_stimuli/rescaled_final/1840_rv.mp4	0.0	155.49216437339783	2.492025375366211
19	122.88352513313293	pulse	1	t		17.0	2.5	/experiments/Knapen_AOT/AOT_stimuli/rescaled_final/1840_rv.mp4	0.0	156.66610670089722	
19	124.20160818099976	fix_post	2		12	17.0	2.5	/experiments/Knapen_AOT/AOT_stimuli/rescaled_final/1840_rv.mp4	0.0	157.98418974876404	0.1000218391418457
20	124.3016300201416	fix_pre	0		120	18.0	2.5	/experiments/Knapen_AOT/AOT_stimuli/rescaled_final/1766_fw.mp4	0.0	158.08421158790588	1.0084986686706543
20	124.48536491394043	pulse	0	t		18.0	2.5	/experiments/Knapen_AOT/AOT_stimuli/rescaled_final/1766_fw.mp4	0.0	158.2679464817047	
20	125.31012868881226	movie	1		282	18.0	2.5	/experiments/Knapen_AOT/AOT_stimuli/rescaled_final/1766_fw.mp4	0.0	159.09271025657654	2.492133855819702
20	126.0854709148407	pulse	1	t		18.0	2.5	/experiments/Knapen_AOT/AOT_stimuli/rescaled_final/1766_fw.mp4	0.0	159.86805248260498	
20	127.68424940109253	pulse	1	t		18.0	2.5	/experiments/Knapen_AOT/AOT_stimuli/rescaled_final/1766_fw.mp4	0.0	161.4668309688568	
20	127.80226254463196	fix_post	2		12	18.0	2.5	/experiments/Knapen_AOT/AOT_stimuli/rescaled_final/1766_fw.mp4	0.0	161.58484411239624	0.10013222694396973
21	127.90239477157593	fix_pre	0		120	19.0	2.5	/experiments/Knapen_AOT/AOT_stimuli/rescaled_final/1466_rv.mp4	0.0	161.6849763393402	1.008258581161499
21	128.91065335273743	movie	1		282	19.0	2.5	/experiments/Knapen_AOT/AOT_stimuli/rescaled_final/1466_rv.mp4	0.0	162.6932349205017	2.492037773132324
21	129.27821397781372	pulse	1	t		19.0	2.5	/experiments/Knapen_AOT/AOT_stimuli/rescaled_final/1466_rv.mp4	0.0	163.060795545578	
21	130.87775707244873	pulse	1	t		19.0	2.5	/experiments/Knapen_AOT/AOT_stimuli/rescaled_final/1466_rv.mp4	0.0	164.660338640213	
21	131.40269112586975	fix_post	2		12	19.0	2.5	/experiments/Knapen_AOT/AOT_stimuli/rescaled_final/1466_rv.mp4	0.0	165.18527269363403	0.10001993179321289
22	131.50271105766296	fix_pre	0		118	20.0	2.5	blank	1.0	165.28529262542725	0.9834780693054199
22	132.47813940048218	pulse	0	t		20.0	2.5	blank	1.0	166.26072096824646	
22	132.48618912696838	movie	1		301	20.0	2.5	blank	1.0	166.26877069473267	2.5087034702301025
22	134.07836484909058	pulse	1	t		20.0	2.5	blank	1.0	167.86094641685486	
22	134.9948925971985	fix_post	2		12	20.0	2.5	blank	1.0	168.77747416496277	0.10003352165222168
23	135.0949261188507	fix_pre	0		120	21.0	2.5	/experiments/Knapen_AOT/AOT_stimuli/rescaled_final/2090_fw.mp4	0.0	168.877507686615	1.0085780620574951
23	135.67855095863342	pulse	0	t		21.0	2.5	/experiments/Knapen_AOT/AOT_stimuli/rescaled_final/2090_fw.mp4	0.0	169.4611325263977	
23	136.1035041809082	movie	1		279	21.0	2.5	/experiments/Knapen_AOT/AOT_stimuli/rescaled_final/2090_fw.mp4	0.0	169.88608574867249	2.4919285774230957
23	137.2788166999817	pulse	1	t		21.0	2.5	/experiments/Knapen_AOT/AOT_stimuli/rescaled_final/2090_fw.mp4	0.0	171.06139826774597	
23	138.5954327583313	fix_post	2		12	21.0	2.5	/experiments/Knapen_AOT/AOT_stimuli/rescaled_final/2090_fw.mp4	0.0	172.37801432609558	0.10006284713745117
24	138.69549560546875	fix_pre	0		120	22.0	2.5	/experiments/Knapen_AOT/AOT_stimuli/rescaled_final/1465_rv.mp4	0.0	172.47807717323303	1.008509635925293
24	138.87906122207642	pulse	0	t		22.0	2.5	/experiments/Knapen_AOT/AOT_stimuli/rescaled_final/1465_rv.mp4	0.0	172.6616427898407	
24	139.70400524139404	movie	1		287	22.0	2.5	/experiments/Knapen_AOT/AOT_stimuli/rescaled_final/1465_rv.mp4	0.0	173.48658680915833	2.500373363494873
24	140.47925114631653	pulse	1	t		22.0	2.5	/experiments/Knapen_AOT/AOT_stimuli/rescaled_final/1465_rv.mp4	0.0	174.2618327140808	
24	142.07874011993408	pulse	1	t		22.0	2.5	/experiments/Knapen_AOT/AOT_stimuli/rescaled_final/1465_rv.mp4	0.0	175.86132168769836	
24	142.20437860488892	fix_post	2		11	22.0	2.5	/experiments/Knapen_AOT/AOT_stimuli/rescaled_final/1465_rv.mp4	0.0	175.9869601726532	0.0916142463684082
25	142.29599285125732	fix_pre	0		120	23.0	2.5	/experiments/Knapen_AOT/AOT_stimuli/rescaled_final/1960_rv.mp4	0.0	176.0785744190216	1.008521318435669
25	143.304514169693	movie	1		270	23.0	2.5	/experiments/Knapen_AOT/AOT_stimuli/rescaled_final/1960_rv.mp4	0.0	177.08709573745728	2.4920055866241455
25	143.6783308982849	pulse	1	t		23.0	2.5	/experiments/Knapen_AOT/AOT_stimuli/rescaled_final/1960_rv.mp4	0.0	177.4609124660492	
25	145.27818846702576	pulse	1	t		23.0	2.5	/experiments/Knapen_AOT/AOT_stimuli/rescaled_final/1960_rv.mp4	0.0	179.06077003479004	
25	145.79651975631714	fix_post	2		12	23.0	2.5	/experiments/Knapen_AOT/AOT_stimuli/rescaled_final/1960_rv.mp4	0.0	179.57910132408142	0.1000204086303711
26	145.8965401649475	fix_pre	0		119	24.0	2.5	/experiments/Knapen_AOT/AOT_stimuli/rescaled_final/1375_rv.mp4	0.0	179.6791217327118	1.0001540184020996
26	146.8802433013916	pulse	0	t		24.0	2.5	/experiments/Knapen_AOT/AOT_stimuli/rescaled_final/1375_rv.mp4	0.0	180.66282486915588	
26	146.8966941833496	movie	1		277	24.0	2.5	/experiments/Knapen_AOT/AOT_stimuli/rescaled_final/1375_rv.mp4	0.0	180.6792757511139	2.500429153442383
26	148.479163646698	pulse	1	t		24.0	2.5	/experiments/Knapen_AOT/AOT_stimuli/rescaled_final/1375_rv.mp4	0.0	182.26174521446228	
26	149.397123336792	fix_post	2		12	24.0	2.5	/experiments/Knapen_AOT/AOT_stimuli/rescaled_final/1375_rv.mp4	0.0	183.17970490455627	0.09996342658996582
27	149.49708676338196	fix_pre	0		120	25.0	2.5	/experiments/Knapen_AOT/AOT_stimuli/rescaled_final/0550_fw.mp4	0.0	183.27966833114624	1.008521318435669
27	150.0807318687439	pulse	0	t		25.0	2.5	/experiments/Knapen_AOT/AOT_stimuli/rescaled_final/0550_fw.mp4	0.0	183.86331343650818	
27	150.50560808181763	movie	1		274	25.0	2.5	/experiments/Knapen_AOT/AOT_stimuli/rescaled_final/0550_fw.mp4	0.0	184.2881896495819	2.492004156112671
27	151.6813461780548	pulse	1	t		25.0	2.5	/experiments/Knapen_AOT/AOT_stimuli/rescaled_final/0550_fw.mp4	0.0	185.4639277458191	
27	152.9976122379303	fix_post	2		12	25.0	2.5	/experiments/Knapen_AOT/AOT_stimuli/rescaled_final/0550_fw.mp4	0.0	186.78019380569458	0.10001635551452637
28	153.09762859344482	fix_pre	0		120	26.0	2.5	/experiments/Knapen_AOT/AOT_stimuli/rescaled_final/0628_fw.mp4	0.0	186.8802101612091	1.008531093597412
28	153.28120756149292	pulse	0	t		26.0	2.5	/experiments/Knapen_AOT/AOT_stimuli/rescaled_final/0628_fw.mp4	0.0	187.0637891292572	
28	154.10615968704224	movie	1		289	26.0	2.5	/experiments/Knapen_AOT/AOT_stimuli/rescaled_final/0628_fw.mp4	0.0	187.88874125480652	2.4920029640197754
28	154.879536151886	pulse	1	t		26.0	2.5	/experiments/Knapen_AOT/AOT_stimuli/rescaled_final/0628_fw.mp4	0.0	188.66211771965027	
28	156.47976994514465	pulse	1	t		26.0	2.5	/experiments/Knapen_AOT/AOT_stimuli/rescaled_final/0628_fw.mp4	0.0	190.26235151290894	
28	156.598162651062	fix_post	2		12	26.0	2.5	/experiments/Knapen_AOT/AOT_stimuli/rescaled_final/0628_fw.mp4	0.0	190.3807442188263	0.10001087188720703
29	156.69817352294922	fix_pre	0		120	27.0	2.5	/experiments/Knapen_AOT/AOT_stimuli/rescaled_final/1533_fw.mp4	0.0	190.4807550907135	1.0084741115570068
29	157.70664763450623	movie	1		276	27.0	2.5	/experiments/Knapen_AOT/AOT_stimuli/rescaled_final/1533_fw.mp4	0.0	191.4892292022705	2.4920427799224854
29	158.080308675766	pulse	1	t		27.0	2.5	/experiments/Knapen_AOT/AOT_stimuli/rescaled_final/1533_fw.mp4	0.0	191.86289024353027	
29	159.6799337863922	pulse	1	t		27.0	2.5	/experiments/Knapen_AOT/AOT_stimuli/rescaled_final/1533_fw.mp4	0.0	193.4625153541565	
29	160.1986904144287	fix_post	2		12	27.0	2.5	/experiments/Knapen_AOT/AOT_stimuli/rescaled_final/1533_fw.mp4	0.0	193.981271982193	0.10001254081726074
30	160.29870295524597	fix_pre	0		119	28.0	2.5	blank	1.0	194.08128452301025	0.9918608665466309
30	161.28284001350403	pulse	0	t		28.0	2.5	blank	1.0	195.0654215812683	
30	161.2905638217926	movie	1		301	28.0	2.5	blank	1.0	195.07314538955688	2.5086748600006104
30	162.88263607025146	pulse	1	t		28.0	2.5	blank	1.0	196.66521763801575	
30	163.7992386817932	fix_post	2		12	28.0	2.5	blank	1.0	197.5818202495575	0.10019540786743164
31	163.89943408966064	fix_pre	0		120	29.0	2.5	/experiments/Knapen_AOT/AOT_stimuli/rescaled_final/0575_fw.mp4	0.0	197.68201565742493	1.0083224773406982
31	164.4828860759735	pulse	0	t		29.0	2.5	/experiments/Knapen_AOT/AOT_stimuli/rescaled_final/0575_fw.mp4	0.0	198.2654676437378	
31	164.90775656700134	movie	1		281	29.0	2.5	/experiments/Knapen_AOT/AOT_stimuli/rescaled_final/0575_fw.mp4	0.0	198.69033813476562	2.492008686065674
31	166.08133673667908	pulse	1	t		29.0	2.5	/experiments/Knapen_AOT/AOT_stimuli/rescaled_final/0575_fw.mp4	0.0	199.86391830444336	
31	167.39976525306702	fix_post	2		12	29.0	2.5	/experiments/Knapen_AOT/AOT_stimuli/rescaled_final/0575_fw.mp4	0.0	201.1823468208313	0.10003256797790527
32	167.49979782104492	fix_pre	0		120	30.0	2.5	/experiments/Knapen_AOT/AOT_stimuli/rescaled_final/1290_fw.mp4	0.0	201.2823793888092	1.008500099182129
32	167.68343806266785	pulse	0	t		30.0	2.5	/experiments/Knapen_AOT/AOT_stimuli/rescaled_final/1290_fw.mp4	0.0	201.46601963043213	
32	168.50829792022705	movie	1		278	30.0	2.5	/experiments/Knapen_AOT/AOT_stimuli/rescaled_final/1290_fw.mp4	0.0	202.29087948799133	2.4920120239257812
32	169.28166317939758	pulse	1	t		30.0	2.5	/experiments/Knapen_AOT/AOT_stimuli/rescaled_final/1290_fw.mp4	0.0	203.06424474716187	
32	170.88188910484314	pulse	1	t		30.0	2.5	/experiments/Knapen_AOT/AOT_stimuli/rescaled_final/1290_fw.mp4	0.0	204.66447067260742	
32	171.00030994415283	fix_post	2		12	30.0	2.5	/experiments/Knapen_AOT/AOT_stimuli/rescaled_final/1290_fw.mp4	0.0	204.78289151191711	0.10001945495605469
33	171.1003293991089	fix_pre	0		120	31.0	2.5	/experiments/Knapen_AOT/AOT_stimuli/rescaled_final/0660_rv.mp4	0.0	204.88291096687317	1.0084919929504395
33	172.10882139205933	movie	1		277	31.0	2.5	/experiments/Knapen_AOT/AOT_stimuli/rescaled_final/0660_rv.mp4	0.0	205.8914029598236	2.4920389652252197
33	172.48293900489807	pulse	1	t		31.0	2.5	/experiments/Knapen_AOT/AOT_stimuli/rescaled_final/0660_rv.mp4	0.0	206.26552057266235	
33	174.0828583240509	pulse	1	t		31.0	2.5	/experiments/Knapen_AOT/AOT_stimuli/rescaled_final/0660_rv.mp4	0.0	207.86543989181519	
33	174.60086035728455	fix_post	2		12	31.0	2.5	/experiments/Knapen_AOT/AOT_stimuli/rescaled_final/0660_rv.mp4	0.0	208.38344192504883	0.10001397132873535
34	174.70087432861328	fix_pre	0		119	32.0	2.5	/experiments/Knapen_AOT/AOT_stimuli/rescaled_final/0969_rv.mp4	0.0	208.48345589637756	1.0002782344818115
34	175.6845908164978	pulse	0	t		32.0	2.5	/experiments/Knapen_AOT/AOT_stimuli/rescaled_final/0969_rv.mp4	0.0	209.46717238426208	
34	175.7011525630951	movie	1		283	32.0	2.5	/experiments/Knapen_AOT/AOT_stimuli/rescaled_final/0969_rv.mp4	0.0	209.48373413085938	2.5002551078796387
34	177.2835054397583	pulse	1	t		32.0	2.5	/experiments/Knapen_AOT/AOT_stimuli/rescaled_final/0969_rv.mp4	0.0	211.06608700752258	
34	178.20140767097473	fix_post	2		12	32.0	2.5	/experiments/Knapen_AOT/AOT_stimuli/rescaled_final/0969_rv.mp4	0.0	211.983989238739	0.10001707077026367
35	178.301424741745	fix_pre	0		120	33.0	2.5	/experiments/Knapen_AOT/AOT_stimuli/rescaled_final/1838_rv.mp4	0.0	212.08400630950928	1.008531093597412
35	178.8850564956665	pulse	0	t		33.0	2.5	/experiments/Knapen_AOT/AOT_stimuli/rescaled_final/1838_rv.mp4	0.0	212.6676380634308	
35	179.3099558353424	movie	1		270	33.0	2.5	/experiments/Knapen_AOT/AOT_stimuli/rescaled_final/1838_rv.mp4	0.0	213.0925374031067	2.491968870162964
35	180.48653984069824	pulse	1	t		33.0	2.5	/experiments/Knapen_AOT/AOT_stimuli/rescaled_final/1838_rv.mp4	0.0	214.26912140846252	
35	181.80192470550537	fix_post	2		12	33.0	2.5	/experiments/Knapen_AOT/AOT_stimuli/rescaled_final/1838_rv.mp4	0.0	215.58450627326965	0.10004496574401855
36	181.9019696712494	fix_pre	0		120	34.0	2.5	blank	1.0	215.68455123901367	1.0001282691955566
36	182.08559894561768	pulse	0	t		34.0	2.5	blank	1.0	215.86818051338196	
36	182.90209794044495	movie	1		300	34.0	2.5	blank	1.0	216.68467950820923	2.5003740787506104
36	183.68575644493103	pulse	1	t		34.0	2.5	blank	1.0	217.4683380126953	
36	185.27855467796326	pulse	1	t		34.0	2.5	blank	1.0	219.06113624572754	
36	185.40247201919556	fix_post	2		12	34.0	2.5	blank	1.0	219.18505358695984	0.09999918937683105
37	185.5024712085724	fix_pre	0		120	35.0	2.5	/experiments/Knapen_AOT/AOT_stimuli/rescaled_final/1356_rv.mp4	0.0	219.28505277633667	1.0085744857788086
37	186.5110456943512	movie	1		280	35.0	2.5	/experiments/Knapen_AOT/AOT_stimuli/rescaled_final/1356_rv.mp4	0.0	220.29362726211548	2.4919774532318115
37	186.87836146354675	pulse	1	t		35.0	2.5	/experiments/Knapen_AOT/AOT_stimuli/rescaled_final/1356_rv.mp4	0.0	220.66094303131104	
37	188.4784393310547	pulse	1	t		35.0	2.5	/experiments/Knapen_AOT/AOT_stimuli/rescaled_final/1356_rv.mp4	0.0	222.26102089881897	
37	189.003023147583	fix_post	2		12	35.0	2.5	/experiments/Knapen_AOT/AOT_stimuli/rescaled_final/1356_rv.mp4	0.0	222.7856047153473	0.10001516342163086
38	189.10303831100464	fix_pre	0		118	36.0	2.5	/experiments/Knapen_AOT/AOT_stimuli/rescaled_final/1448_fw.mp4	0.0	222.88561987876892	0.9918010234832764
38	190.07848572731018	pulse	0	t		36.0	2.5	/experiments/Knapen_AOT/AOT_stimuli/rescaled_final/1448_fw.mp4	0.0	223.86106729507446	
38	190.09483933448792	movie	1		286	36.0	2.5	/experiments/Knapen_AOT/AOT_stimuli/rescaled_final/1448_fw.mp4	0.0	223.8774209022522	2.5004210472106934
38	191.67871117591858	pulse	1	t		36.0	2.5	/experiments/Knapen_AOT/AOT_stimuli/rescaled_final/1448_fw.mp4	0.0	225.46129274368286	
38	192.5952603816986	fix_post	2		12	36.0	2.5	/experiments/Knapen_AOT/AOT_stimuli/rescaled_final/1448_fw.mp4	0.0	226.3778419494629	0.10007929801940918
39	192.69533967971802	fix_pre	0		120	37.0	2.5	/experiments/Knapen_AOT/AOT_stimuli/rescaled_final/0957_rv.mp4	0.0	226.4779212474823	1.0084052085876465
39	193.27893161773682	pulse	0	t		37.0	2.5	/experiments/Knapen_AOT/AOT_stimuli/rescaled_final/0957_rv.mp4	0.0	227.0615131855011	
39	193.70374488830566	movie	1		288	37.0	2.5	/experiments/Knapen_AOT/AOT_stimuli/rescaled_final/0957_rv.mp4	0.0	227.48632645606995	2.49202823638916
39	194.87915349006653	pulse	1	t		37.0	2.5	/experiments/Knapen_AOT/AOT_stimuli/rescaled_final/0957_rv.mp4	0.0	228.6617350578308	
39	196.19577312469482	fix_post	2		12	37.0	2.5	/experiments/Knapen_AOT/AOT_stimuli/rescaled_final/0957_rv.mp4	0.0	229.9783546924591	0.10005521774291992
40	196.29582834243774	fix_pre	0		120	38.0	2.5	/experiments/Knapen_AOT/AOT_stimuli/rescaled_final/1328_fw.mp4	0.0	230.07840991020203	1.008472204208374
40	196.47947812080383	pulse	0	t		38.0	2.5	/experiments/Knapen_AOT/AOT_stimuli/rescaled_final/1328_fw.mp4	0.0	230.26205968856812	
40	197.30430054664612	movie	1		277	38.0	2.5	/experiments/Knapen_AOT/AOT_stimuli/rescaled_final/1328_fw.mp4	0.0	231.0868821144104	2.4920034408569336
40	198.0796046257019	pulse	1	t		38.0	2.5	/experiments/Knapen_AOT/AOT_stimuli/rescaled_final/1328_fw.mp4	0.0	231.8621861934662	
40	199.6798951625824	pulse	1	t		38.0	2.5	/experiments/Knapen_AOT/AOT_stimuli/rescaled_final/1328_fw.mp4	0.0	233.46247673034668	
40	199.79630398750305	fix_post	2		12	38.0	2.5	/experiments/Knapen_AOT/AOT_stimuli/rescaled_final/1328_fw.mp4	0.0	233.57888555526733	0.10003042221069336
41	199.89633440971375	fix_pre	0		120	39.0	2.5	/experiments/Knapen_AOT/AOT_stimuli/rescaled_final/1946_fw.mp4	0.0	233.67891597747803	1.0085535049438477
41	200.9048879146576	movie	1		280	39.0	2.5	/experiments/Knapen_AOT/AOT_stimuli/rescaled_final/1946_fw.mp4	0.0	234.68746948242188	2.491978883743286
41	201.28035807609558	pulse	1	t		39.0	2.5	/experiments/Knapen_AOT/AOT_stimuli/rescaled_final/1946_fw.mp4	0.0	235.06293964385986	
41	202.87834882736206	pulse	1	t		39.0	2.5	/experiments/Knapen_AOT/AOT_stimuli/rescaled_final/1946_fw.mp4	0.0	236.66093039512634	
41	203.39686679840088	fix_post	2		12	39.0	2.5	/experiments/Knapen_AOT/AOT_stimuli/rescaled_final/1946_fw.mp4	0.0	237.17944836616516	0.1000065803527832
42	203.49687337875366	fix_pre	0		119	40.0	2.5	/experiments/Knapen_AOT/AOT_stimuli/rescaled_final/1679_rv.mp4	0.0	237.27945494651794	1.0001540184020996
42	204.4808051586151	pulse	0	t		40.0	2.5	/experiments/Knapen_AOT/AOT_stimuli/rescaled_final/1679_rv.mp4	0.0	238.2633867263794	
42	204.49702739715576	movie	1		282	40.0	2.5	/experiments/Knapen_AOT/AOT_stimuli/rescaled_final/1679_rv.mp4	0.0	238.27960896492004	2.5003604888916016
42	206.07937622070312	pulse	1	t		40.0	2.5	/experiments/Knapen_AOT/AOT_stimuli/rescaled_final/1679_rv.mp4	0.0	239.8619577884674	
42	206.99738788604736	fix_post	2		12	40.0	2.5	/experiments/Knapen_AOT/AOT_stimuli/rescaled_final/1679_rv.mp4	0.0	240.77996945381165	0.10007739067077637
43	207.09746527671814	fix_pre	0		120	41.0	2.5	/experiments/Knapen_AOT/AOT_stimuli/rescaled_final/0778_fw.mp4	0.0	240.88004684448242	1.0084524154663086
43	207.6810495853424	pulse	0	t		41.0	2.5	/experiments/Knapen_AOT/AOT_stimuli/rescaled_final/0778_fw.mp4	0.0	241.4636311531067	
43	208.10591769218445	movie	1		290	41.0	2.5	/experiments/Knapen_AOT/AOT_stimuli/rescaled_final/0778_fw.mp4	0.0	241.88849925994873	2.4919960498809814
43	209.27943110466003	pulse	1	t		41.0	2.5	/experiments/Knapen_AOT/AOT_stimuli/rescaled_final/0778_fw.mp4	0.0	243.06201267242432	
43	210.59791374206543	fix_post	2		12	41.0	2.5	/experiments/Knapen_AOT/AOT_stimuli/rescaled_final/0778_fw.mp4	0.0	244.3804953098297	0.10004234313964844
44	210.69795608520508	fix_pre	0		120	42.0	2.5	blank	1.0	244.48053765296936	1.0001626014709473
44	210.88154935836792	pulse	0	t		42.0	2.5	blank	1.0	244.6641309261322	
44	211.69811868667603	movie	1		300	42.0	2.5	blank	1.0	245.4807002544403	2.5003554821014404
44	212.4817852973938	pulse	1	t		42.0	2.5	blank	1.0	246.26436686515808	
44	214.08218240737915	pulse	1	t		42.0	2.5	blank	1.0	247.86476397514343	
44	214.19847416877747	fix_post	2		12	42.0	2.5	blank	1.0	247.98105573654175	0.10002470016479492
45	214.29849886894226	fix_pre	0		120	43.0	2.5	/experiments/Knapen_AOT/AOT_stimuli/rescaled_final/0466_fw.mp4	0.0	248.08108043670654	1.0085065364837646
45	215.30700540542603	movie	1		280	43.0	2.5	/experiments/Knapen_AOT/AOT_stimuli/rescaled_final/0466_fw.mp4	0.0	249.0895869731903	2.4920196533203125
45	215.6809787750244	pulse	1	t		43.0	2.5	/experiments/Knapen_AOT/AOT_stimuli/rescaled_final/0466_fw.mp4	0.0	249.4635603427887	
45	217.28103947639465	pulse	1	t		43.0	2.5	/experiments/Knapen_AOT/AOT_stimuli/rescaled_final/0466_fw.mp4	0.0	251.06362104415894	
45	217.79902505874634	fix_post	2		12	43.0	2.5	/experiments/Knapen_AOT/AOT_stimuli/rescaled_final/0466_fw.mp4	0.0	251.58160662651062	0.09999585151672363
46	217.89902091026306	fix_pre	0		103	44.0	2.5	/experiments/Knapen_AOT/AOT_stimuli/rescaled_final/0428_fw.mp4	0.0	251.68160247802734	1.0086021423339844
46	218.88282418251038	pulse	0	t		44.0	2.5	/experiments/Knapen_AOT/AOT_stimuli/rescaled_final/0428_fw.mp4	0.0	252.66540575027466	
46	218.90762305259705	movie	1		281	44.0	2.5	/experiments/Knapen_AOT/AOT_stimuli/rescaled_final/0428_fw.mp4	0.0	252.69020462036133	2.4919703006744385
46	220.48194193840027	pulse	1	t		44.0	2.5	/experiments/Knapen_AOT/AOT_stimuli/rescaled_final/0428_fw.mp4	0.0	254.26452350616455	
46	221.39959335327148	fix_post	2		12	44.0	2.5	/experiments/Knapen_AOT/AOT_stimuli/rescaled_final/0428_fw.mp4	0.0	255.18217492103577	0.1001894474029541
47	221.49978280067444	fix_pre	0		120	45.0	2.5	/experiments/Knapen_AOT/AOT_stimuli/rescaled_final/1501_rv.mp4	0.0	255.28236436843872	1.0083632469177246
47	222.0832657814026	pulse	0	t		45.0	2.5	/experiments/Knapen_AOT/AOT_stimuli/rescaled_final/1501_rv.mp4	0.0	255.86584734916687	
47	222.50814604759216	movie	1		285	45.0	2.5	/experiments/Knapen_AOT/AOT_stimuli/rescaled_final/1501_rv.mp4	0.0	256.29072761535645	2.491976261138916
47	223.68196511268616	pulse	1	t		45.0	2.5	/experiments/Knapen_AOT/AOT_stimuli/rescaled_final/1501_rv.mp4	0.0	257.46454668045044	
47	225.00012230873108	fix_post	2		12	45.0	2.5	/experiments/Knapen_AOT/AOT_stimuli/rescaled_final/1501_rv.mp4	0.0	258.78270387649536	0.09998178482055664
48	225.10010409355164	fix_pre	0		120	46.0	2.5	/experiments/Knapen_AOT/AOT_stimuli/rescaled_final/1227_rv.mp4	0.0	258.8826856613159	1.0084939002990723
48	225.28367066383362	pulse	0	t		46.0	2.5	/experiments/Knapen_AOT/AOT_stimuli/rescaled_final/1227_rv.mp4	0.0	259.0662522315979	
48	226.1085979938507	movie	1		287	46.0	2.5	/experiments/Knapen_AOT/AOT_stimuli/rescaled_final/1227_rv.mp4	0.0	259.891179561615	2.4920365810394287
48	226.88208150863647	pulse	1	t		46.0	2.5	/experiments/Knapen_AOT/AOT_stimuli/rescaled_final/1227_rv.mp4	0.0	260.66466307640076	
48	228.48214483261108	pulse	1	t		46.0	2.5	/experiments/Knapen_AOT/AOT_stimuli/rescaled_final/1227_rv.mp4	0.0	262.26472640037537	
48	228.60063457489014	fix_post	2		12	46.0	2.5	/experiments/Knapen_AOT/AOT_stimuli/rescaled_final/1227_rv.mp4	0.0	262.3832161426544	0.10002255439758301
49	228.70065712928772	fix_pre	0		120	47.0	2.5	blank	1.0	262.483238697052	1.00018310546875
49	229.70084023475647	movie	1		300	47.0	2.5	blank	1.0	263.48342180252075	2.5003697872161865
49	230.08455300331116	pulse	1	t		47.0	2.5	blank	1.0	263.86713457107544	
49	231.6847083568573	pulse	1	t		47.0	2.5	blank	1.0	265.4672899246216	
49	232.20121002197266	fix_post	2		12	47.0	2.5	blank	1.0	265.98379158973694	0.10015749931335449
50	232.301367521286	fix_pre	0		119	48.0	2.5	/experiments/Knapen_AOT/AOT_stimuli/rescaled_final/0325_fw.mp4	0.0	266.0839490890503	1.000157117843628
50	233.28513932228088	pulse	0	t		48.0	2.5	/experiments/Knapen_AOT/AOT_stimuli/rescaled_final/0325_fw.mp4	0.0	267.06772089004517	
50	233.30152463912964	movie	1		285	48.0	2.5	/experiments/Knapen_AOT/AOT_stimuli/rescaled_final/0325_fw.mp4	0.0	267.0841062068939	2.500213146209717
50	234.8835048675537	pulse	1	t		48.0	2.5	/experiments/Knapen_AOT/AOT_stimuli/rescaled_final/0325_fw.mp4	0.0	268.666086435318	
50	235.80173778533936	fix_post	2		12	48.0	2.5	/experiments/Knapen_AOT/AOT_stimuli/rescaled_final/0325_fw.mp4	0.0	269.58431935310364	0.10001683235168457
51	235.90175461769104	fix_pre	0		120	49.0	2.5	/experiments/Knapen_AOT/AOT_stimuli/rescaled_final/0838_rv.mp4	0.0	269.6843361854553	1.00850248336792
51	236.48541617393494	pulse	0	t		49.0	2.5	/experiments/Knapen_AOT/AOT_stimuli/rescaled_final/0838_rv.mp4	0.0	270.2679977416992	
51	236.91025710105896	movie	1		273	49.0	2.5	/experiments/Knapen_AOT/AOT_stimuli/rescaled_final/0838_rv.mp4	0.0	270.69283866882324	2.4920108318328857
51	238.08562421798706	pulse	1	t		49.0	2.5	/experiments/Knapen_AOT/AOT_stimuli/rescaled_final/0838_rv.mp4	0.0	271.86820578575134	
51	239.40226793289185	fix_post	2		12	49.0	2.5	/experiments/Knapen_AOT/AOT_stimuli/rescaled_final/0838_rv.mp4	0.0	273.1848495006561	0.10003447532653809
52	239.50230240821838	fix_pre	0		120	50.0	2.5	/experiments/Knapen_AOT/AOT_stimuli/rescaled_final/2077_fw.mp4	0.0	273.28488397598267	1.0084517002105713
52	239.68603205680847	pulse	0	t		50.0	2.5	/experiments/Knapen_AOT/AOT_stimuli/rescaled_final/2077_fw.mp4	0.0	273.46861362457275	
52	240.51075410842896	movie	1		289	50.0	2.5	/experiments/Knapen_AOT/AOT_stimuli/rescaled_final/2077_fw.mp4	0.0	274.29333567619324	2.492051362991333
52	241.2844274044037	pulse	1	t		50.0	2.5	/experiments/Knapen_AOT/AOT_stimuli/rescaled_final/2077_fw.mp4	0.0	275.06700897216797	
52	242.88454508781433	pulse	1	t		50.0	2.5	/experiments/Knapen_AOT/AOT_stimuli/rescaled_final/2077_fw.mp4	0.0	276.6671266555786	
52	243.0028054714203	fix_post	2		12	50.0	2.5	/experiments/Knapen_AOT/AOT_stimuli/rescaled_final/2077_fw.mp4	0.0	276.78538703918457	0.10002589225769043
53	243.10283136367798	fix_pre	0		120	51.0	2.5	/experiments/Knapen_AOT/AOT_stimuli/rescaled_final/0157_fw.mp4	0.0	276.88541293144226	1.008474349975586
53	244.11130571365356	movie	1		281	51.0	2.5	/experiments/Knapen_AOT/AOT_stimuli/rescaled_final/0157_fw.mp4	0.0	277.89388728141785	2.4920389652252197
53	244.4850676059723	pulse	1	t		51.0	2.5	/experiments/Knapen_AOT/AOT_stimuli/rescaled_final/0157_fw.mp4	0.0	278.2676491737366	
53	246.07899236679077	pulse	1	t		51.0	2.5	/experiments/Knapen_AOT/AOT_stimuli/rescaled_final/0157_fw.mp4	0.0	279.86157393455505	
53	246.60334467887878	fix_post	2		12	51.0	2.5	/experiments/Knapen_AOT/AOT_stimuli/rescaled_final/0157_fw.mp4	0.0	280.38592624664307	0.10005950927734375
54	246.70340418815613	fix_pre	0		118	52.0	2.5	/experiments/Knapen_AOT/AOT_stimuli/rescaled_final/1374_rv.mp4	0.0	280.4859857559204	0.9918231964111328
54	247.67927074432373	pulse	0	t		52.0	2.5	/experiments/Knapen_AOT/AOT_stimuli/rescaled_final/1374_rv.mp4	0.0	281.461852312088	
54	247.69522738456726	movie	1		282	52.0	2.5	/experiments/Knapen_AOT/AOT_stimuli/rescaled_final/1374_rv.mp4	0.0	281.47780895233154	2.500338554382324
54	249.27935981750488	pulse	1	t		52.0	2.5	/experiments/Knapen_AOT/AOT_stimuli/rescaled_final/1374_rv.mp4	0.0	283.06194138526917	
54	250.19556593894958	fix_post	2		12	52.0	2.5	/experiments/Knapen_AOT/AOT_stimuli/rescaled_final/1374_rv.mp4	0.0	283.97814750671387	0.10000419616699219
55	250.29557013511658	fix_pre	0		120	53.0	2.5	/experiments/Knapen_AOT/AOT_stimuli/rescaled_final/0128_fw.mp4	0.0	284.07815170288086	1.0084941387176514
55	250.8792531490326	pulse	0	t		53.0	2.5	/experiments/Knapen_AOT/AOT_stimuli/rescaled_final/0128_fw.mp4	0.0	284.6618347167969	
55	251.30406427383423	movie	1		283	53.0	2.5	/experiments/Knapen_AOT/AOT_stimuli/rescaled_final/0128_fw.mp4	0.0	285.0866458415985	2.492033004760742
55	252.47950053215027	pulse	1	t		53.0	2.5	/experiments/Knapen_AOT/AOT_stimuli/rescaled_final/0128_fw.mp4	0.0	286.26208209991455	
55	253.79609727859497	fix_post	2		12	53.0	2.5	/experiments/Knapen_AOT/AOT_stimuli/rescaled_final/0128_fw.mp4	0.0	287.57867884635925	0.1000216007232666
56	253.89611887931824	fix_pre	0		120	54.0	2.5	/experiments/Knapen_AOT/AOT_stimuli/rescaled_final/2046_rv.mp4	0.0	287.6787004470825	1.0084946155548096
56	254.07975506782532	pulse	0	t		54.0	2.5	/experiments/Knapen_AOT/AOT_stimuli/rescaled_final/2046_rv.mp4	0.0	287.8623366355896	
56	254.90461349487305	movie	1		278	54.0	2.5	/experiments/Knapen_AOT/AOT_stimuli/rescaled_final/2046_rv.mp4	0.0	288.68719506263733	2.492058753967285
56	255.6799817085266	pulse	1	t		54.0	2.5	/experiments/Knapen_AOT/AOT_stimuli/rescaled_final/2046_rv.mp4	0.0	289.4625632762909	
56	257.2786498069763	pulse	1	t		54.0	2.5	/experiments/Knapen_AOT/AOT_stimuli/rescaled_final/2046_rv.mp4	0.0	291.0612313747406	
56	257.39667224884033	fix_post	2		12	54.0	2.5	/experiments/Knapen_AOT/AOT_stimuli/rescaled_final/2046_rv.mp4	0.0	291.1792538166046	0.09997868537902832
57	257.49665093421936	fix_pre	0		120	55.0	2.5	/experiments/Knapen_AOT/AOT_stimuli/rescaled_final/1374_rv.mp4	0.0	291.27923250198364	1.0085368156433105
57	258.50518774986267	movie	1		274	55.0	2.5	/experiments/Knapen_AOT/AOT_stimuli/rescaled_final/1374_rv.mp4	0.0	292.28776931762695	2.492018461227417
57	258.8793320655823	pulse	1	t		55.0	2.5	/experiments/Knapen_AOT/AOT_stimuli/rescaled_final/1374_rv.mp4	0.0	292.66191363334656	
57	260.47988748550415	pulse	1	t		55.0	2.5	/experiments/Knapen_AOT/AOT_stimuli/rescaled_final/1374_rv.mp4	0.0	294.26246905326843	
57	260.9972062110901	fix_post	2		12	55.0	2.5	/experiments/Knapen_AOT/AOT_stimuli/rescaled_final/1374_rv.mp4	0.0	294.77978777885437	0.10000228881835938
58	261.09720849990845	fix_pre	0		119	56.0	2.5	blank	1.0	294.87979006767273	0.9917585849761963
58	262.0808780193329	pulse	0	t		56.0	2.5	blank	1.0	295.86345958709717	
58	262.08896708488464	movie	1		301	56.0	2.5	blank	1.0	295.8715486526489	2.5087647438049316
58	263.68109607696533	pulse	1	t		56.0	2.5	blank	1.0	297.4636776447296	
58	264.5977318286896	fix_post	2		12	56.0	2.5	blank	1.0	298.38031339645386	0.10000824928283691
59	264.6977400779724	fix_pre	0		120	57.0	2.5	/experiments/Knapen_AOT/AOT_stimuli/rescaled_final/1897_rv.mp4	0.0	298.4803216457367	1.0084946155548096
59	265.2813444137573	pulse	0	t		57.0	2.5	/experiments/Knapen_AOT/AOT_stimuli/rescaled_final/1897_rv.mp4	0.0	299.0639259815216	
59	265.7062346935272	movie	1		280	57.0	2.5	/experiments/Knapen_AOT/AOT_stimuli/rescaled_final/1897_rv.mp4	0.0	299.4888162612915	2.4920566082000732
59	266.88029408454895	pulse	1	t		57.0	2.5	/experiments/Knapen_AOT/AOT_stimuli/rescaled_final/1897_rv.mp4	0.0	300.66287565231323	
59	268.1982913017273	fix_post	2		11	57.0	2.5	/experiments/Knapen_AOT/AOT_stimuli/rescaled_final/1897_rv.mp4	0.0	301.9808728694916	0.1000058650970459
60	268.29829716682434	fix_pre	0		120	58.0	2.5	/experiments/Knapen_AOT/AOT_stimuli/rescaled_final/1106_fw.mp4	0.0	302.0808787345886	1.0084621906280518
60	268.4818665981293	pulse	0	t		58.0	2.5	/experiments/Knapen_AOT/AOT_stimuli/rescaled_final/1106_fw.mp4	0.0	302.26444816589355	
60	269.3067593574524	movie	1		283	58.0	2.5	/experiments/Knapen_AOT/AOT_stimuli/rescaled_final/1106_fw.mp4	0.0	303.0893409252167	2.492063522338867
60	270.080283164978	pulse	1	t		58.0	2.5	/experiments/Knapen_AOT/AOT_stimuli/rescaled_final/1106_fw.mp4	0.0	303.8628647327423	
60	271.68074774742126	pulse	1	t		58.0	2.5	/experiments/Knapen_AOT/AOT_stimuli/rescaled_final/1106_fw.mp4	0.0	305.46332931518555	
60	271.79882287979126	fix_post	2		12	58.0	2.5	/experiments/Knapen_AOT/AOT_stimuli/rescaled_final/1106_fw.mp4	0.0	305.58140444755554	0.09999632835388184
61	271.89881920814514	fix_pre	0		120	59.0	2.5	/experiments/Knapen_AOT/AOT_stimuli/rescaled_final/0157_rv.mp4	0.0	305.6814007759094	1.0084998607635498
61	272.9073190689087	movie	1		269	59.0	2.5	/experiments/Knapen_AOT/AOT_stimuli/rescaled_final/0157_rv.mp4	0.0	306.689900636673	2.492018222808838
61	273.2811357975006	pulse	1	t		59.0	2.5	/experiments/Knapen_AOT/AOT_stimuli/rescaled_final/0157_rv.mp4	0.0	307.0637173652649	
61	274.8812313079834	pulse	1	t		59.0	2.5	/experiments/Knapen_AOT/AOT_stimuli/rescaled_final/0157_rv.mp4	0.0	308.6638128757477	
61	275.39933729171753	fix_post	2		12	59.0	2.5	/experiments/Knapen_AOT/AOT_stimuli/rescaled_final/0157_rv.mp4	0.0	309.1819188594818	0.10011076927185059
62	275.4994480609894	fix_pre	0		119	60.0	2.5	/experiments/Knapen_AOT/AOT_stimuli/rescaled_final/0819_rv.mp4	0.0	309.28202962875366	1.0085721015930176
62	276.48315930366516	pulse	0	t		60.0	2.5	/experiments/Knapen_AOT/AOT_stimuli/rescaled_final/0819_rv.mp4	0.0	310.26574087142944	
62	276.5080201625824	movie	1		278	60.0	2.5	/experiments/Knapen_AOT/AOT_stimuli/rescaled_final/0819_rv.mp4	0.0	310.2906017303467	2.491866111755371
62	278.08218598365784	pulse	1	t		60.0	2.5	/experiments/Knapen_AOT/AOT_stimuli/rescaled_final/0819_rv.mp4	0.0	311.8647675514221	
62	278.99988627433777	fix_post	2		12	60.0	2.5	/experiments/Knapen_AOT/AOT_stimuli/rescaled_final/0819_rv.mp4	0.0	312.78246784210205	0.10003113746643066
63	279.0999174118042	fix_pre	0		120	61.0	2.5	/experiments/Knapen_AOT/AOT_stimuli/rescaled_final/0779_rv.mp4	0.0	312.8824989795685	1.0084741115570068
63	279.68351554870605	pulse	0	t		61.0	2.5	/experiments/Knapen_AOT/AOT_stimuli/rescaled_final/0779_rv.mp4	0.0	313.46609711647034	
63	280.1083915233612	movie	1		284	61.0	2.5	/experiments/Knapen_AOT/AOT_stimuli/rescaled_final/0779_rv.mp4	0.0	313.8909730911255	2.492023229598999
63	281.2820653915405	pulse	1	t		61.0	2.5	/experiments/Knapen_AOT/AOT_stimuli/rescaled_final/0779_rv.mp4	0.0	315.0646469593048	
63	282.6004147529602	fix_post	2		12	61.0	2.5	/experiments/Knapen_AOT/AOT_stimuli/rescaled_final/0779_rv.mp4	0.0	316.3829963207245	0.10001540184020996
64	282.7004301548004	fix_pre	0		120	62.0	2.5	/experiments/Knapen_AOT/AOT_stimuli/rescaled_final/0831_rv.mp4	0.0	316.4830117225647	1.0084989070892334
64	282.88412833213806	pulse	0	t		62.0	2.5	/experiments/Knapen_AOT/AOT_stimuli/rescaled_final/0831_rv.mp4	0.0	316.66670989990234	
64	283.70892906188965	movie	1		279	62.0	2.5	/experiments/Knapen_AOT/AOT_stimuli/rescaled_final/0831_rv.mp4	0.0	317.49151062965393	2.492048501968384
64	284.48219561576843	pulse	1	t		62.0	2.5	/experiments/Knapen_AOT/AOT_stimuli/rescaled_final/0831_rv.mp4	0.0	318.2647771835327	
64	286.08294677734375	pulse	1	t		62.0	2.5	/experiments/Knapen_AOT/AOT_stimuli/rescaled_final/0831_rv.mp4	0.0	319.86552834510803	
64	286.20097756385803	fix_post	2		12	62.0	2.5	/experiments/Knapen_AOT/AOT_stimuli/rescaled_final/0831_rv.mp4	0.0	319.9835591316223	0.1000223159790039
65	286.30099987983704	fix_pre	0		120	63.0	2.5	blank	1.0	320.0835814476013	1.0001602172851562
65	287.3011600971222	movie	1		300	63.0	2.5	blank	1.0	321.0837416648865	2.500333070755005
65	287.68471574783325	pulse	1	t		63.0	2.5	blank	1.0	321.46729731559753	
65	289.28496980667114	pulse	1	t		63.0	2.5	blank	1.0	323.0675513744354	
65	289.8014931678772	fix_post	2		12	63.0	2.5	blank	1.0	323.5840747356415	0.10004186630249023
66	289.9015350341797	fix_pre	0		119	64.0	2.5	/experiments/Knapen_AOT/AOT_stimuli/rescaled_final/1221_rv.mp4	0.0	323.68411660194397	1.0085060596466064
66	290.8853919506073	pulse	0	t		64.0	2.5	/experiments/Knapen_AOT/AOT_stimuli/rescaled_final/1221_rv.mp4	0.0	324.6679735183716	
66	290.9100410938263	movie	1		275	64.0	2.5	/experiments/Knapen_AOT/AOT_stimuli/rescaled_final/1221_rv.mp4	0.0	324.6926226615906	2.492027997970581
66	292.4859688282013	pulse	1	t		64.0	2.5	/experiments/Knapen_AOT/AOT_stimuli/rescaled_final/1221_rv.mp4	0.0	326.2685503959656	
66	293.4020690917969	fix_post	2		12	64.0	2.5	/experiments/Knapen_AOT/AOT_stimuli/rescaled_final/1221_rv.mp4	0.0	327.18465065956116	0.1000821590423584
67	293.50215125083923	fix_pre	0		120	65.0	2.5	/experiments/Knapen_AOT/AOT_stimuli/rescaled_final/0245_rv.mp4	0.0	327.2847328186035	1.008410930633545
67	294.08569383621216	pulse	0	t		65.0	2.5	/experiments/Knapen_AOT/AOT_stimuli/rescaled_final/0245_rv.mp4	0.0	327.86827540397644	
67	294.5105621814728	movie	1		277	65.0	2.5	/experiments/Knapen_AOT/AOT_stimuli/rescaled_final/0245_rv.mp4	0.0	328.29314374923706	2.492053508758545
67	295.68571758270264	pulse	1	t		65.0	2.5	/experiments/Knapen_AOT/AOT_stimuli/rescaled_final/0245_rv.mp4	0.0	329.4682991504669	
67	297.0026156902313	fix_post	2		12	65.0	2.5	/experiments/Knapen_AOT/AOT_stimuli/rescaled_final/0245_rv.mp4	0.0	330.7851972579956	0.09998869895935059
68	297.1026043891907	fix_pre	0		120	66.0	2.5	/experiments/Knapen_AOT/AOT_stimuli/rescaled_final/0504_fw.mp4	0.0	330.88518595695496	1.0085277557373047
68	297.2791202068329	pulse	0	t		66.0	2.5	/experiments/Knapen_AOT/AOT_stimuli/rescaled_final/0504_fw.mp4	0.0	331.06170177459717	
68	298.111132144928	movie	1		284	66.0	2.5	/experiments/Knapen_AOT/AOT_stimuli/rescaled_final/0504_fw.mp4	0.0	331.89371371269226	2.492018699645996
68	298.8781497478485	pulse	1	t		66.0	2.5	/experiments/Knapen_AOT/AOT_stimuli/rescaled_final/0504_fw.mp4	0.0	332.6607313156128	
68	300.4780876636505	pulse	1	t		66.0	2.5	/experiments/Knapen_AOT/AOT_stimuli/rescaled_final/0504_fw.mp4	0.0	334.2606692314148	
68	300.603150844574	fix_post	2		12	66.0	2.5	/experiments/Knapen_AOT/AOT_stimuli/rescaled_final/0504_fw.mp4	0.0	334.38573241233826	0.10002470016479492
69	300.70317554473877	fix_pre	0		120	67.0	2.5	/experiments/Knapen_AOT/AOT_stimuli/rescaled_final/1784_rv.mp4	0.0	334.48575711250305	1.008457899093628
69	301.7116334438324	movie	1		267	67.0	2.5	/experiments/Knapen_AOT/AOT_stimuli/rescaled_final/1784_rv.mp4	0.0	335.4942150115967	2.4920809268951416
69	302.07811665534973	pulse	1	t		67.0	2.5	/experiments/Knapen_AOT/AOT_stimuli/rescaled_final/1784_rv.mp4	0.0	335.860698223114	
69	303.67879605293274	pulse	1	t		67.0	2.5	/experiments/Knapen_AOT/AOT_stimuli/rescaled_final/1784_rv.mp4	0.0	337.461377620697	
69	304.20371437072754	fix_post	2		12	67.0	2.5	/experiments/Knapen_AOT/AOT_stimuli/rescaled_final/1784_rv.mp4	0.0	337.9862959384918	0.09999442100524902
70	304.3037087917328	fix_pre	0		118	68.0	2.5	/experiments/Knapen_AOT/AOT_stimuli/rescaled_final/1585_rv.mp4	0.0	338.08629035949707	0.9918217658996582
70	305.279203414917	pulse	0	t		68.0	2.5	/experiments/Knapen_AOT/AOT_stimuli/rescaled_final/1585_rv.mp4	0.0	339.0617849826813	
70	305.29553055763245	movie	1		278	68.0	2.5	/experiments/Knapen_AOT/AOT_stimuli/rescaled_final/1585_rv.mp4	0.0	339.07811212539673	2.500349283218384
70	306.8784339427948	pulse	1	t		68.0	2.5	/experiments/Knapen_AOT/AOT_stimuli/rescaled_final/1585_rv.mp4	0.0	340.6610155105591	
70	307.79587984085083	fix_post	2		12	68.0	2.5	/experiments/Knapen_AOT/AOT_stimuli/rescaled_final/1585_rv.mp4	0.0	341.5784614086151	0.10001468658447266
71	307.8958945274353	fix_pre	0		120	69.0	2.5	/experiments/Knapen_AOT/AOT_stimuli/rescaled_final/1735_rv.mp4	0.0	341.6784760951996	1.0084524154663086
71	308.4797194004059	pulse	0	t		69.0	2.5	/experiments/Knapen_AOT/AOT_stimuli/rescaled_final/1735_rv.mp4	0.0	342.26230096817017	
71	308.9043469429016	movie	1		276	69.0	2.5	/experiments/Knapen_AOT/AOT_stimuli/rescaled_final/1735_rv.mp4	0.0	342.6869285106659	2.4921019077301025
71	310.0782287120819	pulse	1	t		69.0	2.5	/experiments/Knapen_AOT/AOT_stimuli/rescaled_final/1735_rv.mp4	0.0	343.8608102798462	
71	311.3964488506317	fix_post	2		12	69.0	2.5	/experiments/Knapen_AOT/AOT_stimuli/rescaled_final/1735_rv.mp4	0.0	345.179030418396	0.10001564025878906
72	311.4964644908905	fix_pre	0		120	70.0	2.5	blank	1.0	345.2790460586548	1.0001235008239746
72	311.68004608154297	pulse	0	t		70.0	2.5	blank	1.0	345.46262764930725	
72	312.4965879917145	movie	1		300	70.0	2.5	blank	1.0	346.27916955947876	2.5003983974456787
72	313.2802641391754	pulse	1	t		70.0	2.5	blank	1.0	347.0628457069397	
72	314.88046765327454	pulse	1	t		70.0	2.5	blank	1.0	348.6630492210388	
72	314.99698638916016	fix_post	2		12	70.0	2.5	blank	1.0	348.77956795692444	0.09999966621398926
73	315.09698605537415	fix_pre	0		120	71.0	2.5	/experiments/Knapen_AOT/AOT_stimuli/rescaled_final/0938_rv.mp4	0.0	348.8795676231384	1.0085170269012451
73	316.1055030822754	movie	1		275	71.0	2.5	/experiments/Knapen_AOT/AOT_stimuli/rescaled_final/0938_rv.mp4	0.0	349.8880846500397	2.4920084476470947
73	316.4809510707855	pulse	1	t		71.0	2.5	/experiments/Knapen_AOT/AOT_stimuli/rescaled_final/0938_rv.mp4	0.0	350.2635326385498	
73	318.0792520046234	pulse	1	t		71.0	2.5	/experiments/Knapen_AOT/AOT_stimuli/rescaled_final/0938_rv.mp4	0.0	351.8618335723877	
73	318.5975115299225	fix_post	2		12	71.0	2.5	/experiments/Knapen_AOT/AOT_stimuli/rescaled_final/0938_rv.mp4	0.0	352.38009309768677	0.10001730918884277
74	318.6975288391113	fix_pre	0		119	72.0	2.5	/experiments/Knapen_AOT/AOT_stimuli/rescaled_final/2060_rv.mp4	0.0	352.4801104068756	1.008514165878296
74	319.6813426017761	pulse	0	t		72.0	2.5	/experiments/Knapen_AOT/AOT_stimuli/rescaled_final/2060_rv.mp4	0.0	353.4639241695404	
74	319.7060430049896	movie	1		288	72.0	2.5	/experiments/Knapen_AOT/AOT_stimuli/rescaled_final/2060_rv.mp4	0.0	353.4886245727539	2.4920125007629395
74	321.28045892715454	pulse	1	t		72.0	2.5	/experiments/Knapen_AOT/AOT_stimuli/rescaled_final/2060_rv.mp4	0.0	355.0630404949188	
74	322.19805550575256	fix_post	2		12	72.0	2.5	/experiments/Knapen_AOT/AOT_stimuli/rescaled_final/2060_rv.mp4	0.0	355.98063707351685	0.10000467300415039
75	322.2980601787567	fix_pre	0		120	73.0	2.5	/experiments/Knapen_AOT/AOT_stimuli/rescaled_final/0368_rv.mp4	0.0	356.080641746521	1.0085067749023438
75	322.8818542957306	pulse	0	t		73.0	2.5	/experiments/Knapen_AOT/AOT_stimuli/rescaled_final/0368_rv.mp4	0.0	356.6644358634949	
75	323.30656695365906	movie	1		271	73.0	2.5	/experiments/Knapen_AOT/AOT_stimuli/rescaled_final/0368_rv.mp4	0.0	357.08914852142334	2.4920389652252197
75	324.4812355041504	pulse	1	t		73.0	2.5	/experiments/Knapen_AOT/AOT_stimuli/rescaled_final/0368_rv.mp4	0.0	358.2638170719147	
75	325.7986059188843	fix_post	2		12	73.0	2.5	/experiments/Knapen_AOT/AOT_stimuli/rescaled_final/0368_rv.mp4	0.0	359.58118748664856	0.10006999969482422
76	325.8986759185791	fix_pre	0		120	74.0	2.5	/experiments/Knapen_AOT/AOT_stimuli/rescaled_final/0620_fw.mp4	0.0	359.6812574863434	1.0084195137023926
76	326.0821723937988	pulse	0	t		74.0	2.5	/experiments/Knapen_AOT/AOT_stimuli/rescaled_final/0620_fw.mp4	0.0	359.8647539615631	
76	326.9070954322815	movie	1		274	74.0	2.5	/experiments/Knapen_AOT/AOT_stimuli/rescaled_final/0620_fw.mp4	0.0	360.6896770000458	2.4920384883880615
76	327.68055057525635	pulse	1	t		74.0	2.5	/experiments/Knapen_AOT/AOT_stimuli/rescaled_final/0620_fw.mp4	0.0	361.46313214302063	
76	329.28054690361023	pulse	1	t		74.0	2.5	/experiments/Knapen_AOT/AOT_stimuli/rescaled_final/0620_fw.mp4	0.0	363.0631284713745	
76	329.39913392066956	fix_post	2		12	74.0	2.5	/experiments/Knapen_AOT/AOT_stimuli/rescaled_final/0620_fw.mp4	0.0	363.18171548843384	0.10001611709594727
77	329.4991500377655	fix_pre	0		120	75.0	2.5	/experiments/Knapen_AOT/AOT_stimuli/rescaled_final/0708_fw.mp4	0.0	363.2817316055298	1.0085783004760742
77	330.5077283382416	movie	1		288	75.0	2.5	/experiments/Knapen_AOT/AOT_stimuli/rescaled_final/0708_fw.mp4	0.0	364.29030990600586	2.4919419288635254
77	330.88149762153625	pulse	1	t		75.0	2.5	/experiments/Knapen_AOT/AOT_stimuli/rescaled_final/0708_fw.mp4	0.0	364.66407918930054	
77	332.4816334247589	pulse	1	t		75.0	2.5	/experiments/Knapen_AOT/AOT_stimuli/rescaled_final/0708_fw.mp4	0.0	366.2642149925232	
77	332.9996702671051	fix_post	2		12	75.0	2.5	/experiments/Knapen_AOT/AOT_stimuli/rescaled_final/0708_fw.mp4	0.0	366.7822518348694	0.10005831718444824
78	333.09972858428955	fix_pre	0		119	76.0	2.5	/experiments/Knapen_AOT/AOT_stimuli/rescaled_final/1210_rv.mp4	0.0	366.88231015205383	1.000274419784546
78	334.08346343040466	pulse	0	t		76.0	2.5	/experiments/Knapen_AOT/AOT_stimuli/rescaled_final/1210_rv.mp4	0.0	367.86604499816895	
78	334.1000030040741	movie	1		265	76.0	2.5	/experiments/Knapen_AOT/AOT_stimuli/rescaled_final/1210_rv.mp4	0.0	367.8825845718384	2.5002079010009766
78	335.6823539733887	pulse	1	t		76.0	2.5	/experiments/Knapen_AOT/AOT_stimuli/rescaled_final/1210_rv.mp4	0.0	369.46493554115295	
78	336.6002109050751	fix_post	2		12	76.0	2.5	/experiments/Knapen_AOT/AOT_stimuli/rescaled_final/1210_rv.mp4	0.0	370.38279247283936	0.10009503364562988
79	336.7003059387207	fix_pre	0		120	77.0	2.5	blank	1.0	370.482887506485	1.0001335144042969
79	337.2839286327362	pulse	0	t		77.0	2.5	blank	1.0	371.0665102005005	
79	337.700439453125	movie	1		300	77.0	2.5	blank	1.0	371.4830210208893	2.5003087520599365
79	338.884153842926	pulse	1	t		77.0	2.5	blank	1.0	372.6667354106903	
79	340.20074820518494	fix_post	2		12	77.0	2.5	blank	1.0	373.9833297729492	0.10001945495605469
80	340.300767660141	fix_pre	0		120	78.0	2.5	/experiments/Knapen_AOT/AOT_stimuli/rescaled_final/0138_fw.mp4	0.0	374.0833492279053	1.0085132122039795
80	340.4844205379486	pulse	0	t		78.0	2.5	/experiments/Knapen_AOT/AOT_stimuli/rescaled_final/0138_fw.mp4	0.0	374.2670021057129	
80	341.30928087234497	movie	1		276	78.0	2.5	/experiments/Knapen_AOT/AOT_stimuli/rescaled_final/0138_fw.mp4	0.0	375.09186244010925	2.492021322250366
80	342.0829517841339	pulse	1	t		78.0	2.5	/experiments/Knapen_AOT/AOT_stimuli/rescaled_final/0138_fw.mp4	0.0	375.8655333518982	
80	343.68287110328674	pulse	1	t		78.0	2.5	/experiments/Knapen_AOT/AOT_stimuli/rescaled_final/0138_fw.mp4	0.0	377.465452671051	
80	343.80130219459534	fix_post	2		12	78.0	2.5	/experiments/Knapen_AOT/AOT_stimuli/rescaled_final/0138_fw.mp4	0.0	377.5838837623596	0.10000920295715332
81	343.9013113975525	fix_pre	0		120	79.0	2.5	/experiments/Knapen_AOT/AOT_stimuli/rescaled_final/2072_rv.mp4	0.0	377.6838929653168	1.0084905624389648
81	344.90980195999146	movie	1		278	79.0	2.5	/experiments/Knapen_AOT/AOT_stimuli/rescaled_final/2072_rv.mp4	0.0	378.69238352775574	2.4920432567596436
81	345.28406620025635	pulse	1	t		79.0	2.5	/experiments/Knapen_AOT/AOT_stimuli/rescaled_final/2072_rv.mp4	0.0	379.06664776802063	
81	346.8835434913635	pulse	1	t		79.0	2.5	/experiments/Knapen_AOT/AOT_stimuli/rescaled_final/2072_rv.mp4	0.0	380.6661250591278	
81	347.4018452167511	fix_post	2		12	79.0	2.5	/experiments/Knapen_AOT/AOT_stimuli/rescaled_final/2072_rv.mp4	0.0	381.1844267845154	0.10001683235168457
82	347.5018620491028	fix_pre	0		119	80.0	2.5	/experiments/Knapen_AOT/AOT_stimuli/rescaled_final/0907_fw.mp4	0.0	381.28444361686707	1.008516788482666
82	348.4856536388397	pulse	0	t		80.0	2.5	/experiments/Knapen_AOT/AOT_stimuli/rescaled_final/0907_fw.mp4	0.0	382.268235206604	
82	348.51037883758545	movie	1		281	80.0	2.5	/experiments/Knapen_AOT/AOT_stimuli/rescaled_final/0907_fw.mp4	0.0	382.29296040534973	2.4919965267181396
82	350.08437633514404	pulse	1	t		80.0	2.5	/experiments/Knapen_AOT/AOT_stimuli/rescaled_final/0907_fw.mp4	0.0	383.8669579029083	
82	351.0023753643036	fix_post	2		12	80.0	2.5	/experiments/Knapen_AOT/AOT_stimuli/rescaled_final/0907_fw.mp4	0.0	384.78495693206787	0.10002708435058594
83	351.1024024486542	fix_pre	0		120	81.0	2.5	/experiments/Knapen_AOT/AOT_stimuli/rescaled_final/0938_fw.mp4	0.0	384.88498401641846	1.0085186958312988
83	351.68594908714294	pulse	0	t		81.0	2.5	/experiments/Knapen_AOT/AOT_stimuli/rescaled_final/0938_fw.mp4	0.0	385.4685306549072	
83	352.1109211444855	movie	1		260	81.0	2.5	/experiments/Knapen_AOT/AOT_stimuli/rescaled_final/0938_fw.mp4	0.0	385.89350271224976	2.4919955730438232
83	353.284471988678	pulse	1	t		81.0	2.5	/experiments/Knapen_AOT/AOT_stimuli/rescaled_final/0938_fw.mp4	0.0	387.06705355644226	
83	354.6029167175293	fix_post	2		12	81.0	2.5	/experiments/Knapen_AOT/AOT_stimuli/rescaled_final/0938_fw.mp4	0.0	388.3854982852936	0.10002899169921875
84	354.7029457092285	fix_pre	0		120	82.0	2.5	blank	1.0	388.4855272769928	1.0001709461212158
84	354.8785147666931	pulse	0	t		82.0	2.5	blank	1.0	388.6610963344574	
84	355.70311665534973	movie	1		300	82.0	2.5	blank	1.0	389.485698223114	2.500352144241333
84	356.4785063266754	pulse	1	t		82.0	2.5	blank	1.0	390.2610878944397	
84	358.07860469818115	pulse	1	t		82.0	2.5	blank	1.0	391.86118626594543	
84	358.20346879959106	fix_post	2		12	82.0	2.5	blank	1.0	391.98605036735535	0.1000053882598877
85	358.30347418785095	fix_pre	0		120	83.0	2.5	/experiments/Knapen_AOT/AOT_stimuli/rescaled_final/1592_fw.mp4	0.0	392.08605575561523	1.0086007118225098
85	359.31207489967346	movie	1		271	83.0	2.5	/experiments/Knapen_AOT/AOT_stimuli/rescaled_final/1592_fw.mp4	0.0	393.09465646743774	2.491936683654785
85	359.6790409088135	pulse	1	t		83.0	2.5	/experiments/Knapen_AOT/AOT_stimuli/rescaled_final/1592_fw.mp4	0.0	393.46162247657776	
85	361.27924251556396	pulse	1	t		83.0	2.5	/experiments/Knapen_AOT/AOT_stimuli/rescaled_final/1592_fw.mp4	0.0	395.06182408332825	
85	361.80401158332825	fix_post	2		12	83.0	2.5	/experiments/Knapen_AOT/AOT_stimuli/rescaled_final/1592_fw.mp4	0.0	395.58659315109253	0.10000801086425781
87	361.9040195941925	stim	0		1716					395.6866011619568	14.30215573310852
87	362.87946486473083	pulse	0	t						396.6620464324951	
87	364.47966051101685	pulse	0	t						398.2622420787811	
87	366.0797998905182	pulse	0	t						399.86238145828247	
87	367.6804549694061	pulse	0	t						401.4630365371704	
87	369.2803933620453	pulse	0	t						403.06297492980957	
87	370.88078904151917	pulse	0	t						404.66337060928345	
87	372.4810063838959	pulse	0	t						406.26358795166016	
87	374.0813777446747	pulse	0	t						407.86395931243896	
87	375.6815769672394	pulse	0	t						409.46415853500366	
