trial_nr	onset	event_type	phase	response	nr_frames	movie_index	movie_duration	movie_file	blank	onset_abs	duration
0	0.1999220848083496	stim	0		123					31.258976936340332	1.0249788761138916
0	1.2169270515441895	response	0	space						32.27598190307617	
1	1.2249009609222412	stim	0		4747					32.283955812454224	39.57519602775574
1	40.78988313674927	pulse	0	t						71.84893798828125	
1	40.80009698867798	stim	1		1715					71.85915184020996	14.29955506324768
1	42.38118815422058	pulse	1	t						73.44024300575256	
1	43.981605052948	pulse	1	t						75.04065990447998	
1	45.58182096481323	pulse	1	t						76.64087581634521	
1	47.1820650100708	pulse	1	t						78.24111986160278	
1	48.78219699859619	pulse	1	t						79.84125185012817	
1	50.38236999511719	pulse	1	t						81.44142484664917	
1	51.98272109031677	pulse	1	t						83.04177594184875	
1	53.58295202255249	pulse	1	t						84.64200687408447	
2	55.09965205192566	fix_pre	0		11	0.0	2.5	/experiments/knapen_AOT/AOT_stimuli/rescaled_final/0395_fw.mp4	0.0	86.15870690345764	0.10015606880187988
2	55.18315410614014	pulse	0	t		0.0	2.5	/experiments/knapen_AOT/AOT_stimuli/rescaled_final/0395_fw.mp4	0.0	86.24220895767212	
2	55.19980812072754	movie	1		243	0.0	2.5	/experiments/knapen_AOT/AOT_stimuli/rescaled_final/0395_fw.mp4	0.0	86.25886297225952	2.500303030014038
2	56.7839629650116	pulse	1	t		0.0	2.5	/experiments/knapen_AOT/AOT_stimuli/rescaled_final/0395_fw.mp4	0.0	87.84301781654358	
2	57.70011115074158	fix_post	2		12	0.0	2.5	/experiments/knapen_AOT/AOT_stimuli/rescaled_final/0395_fw.mp4	0.0	88.75916600227356	0.09989690780639648
3	57.800008058547974	fix_pre	0		120	1.0	2.5	/experiments/knapen_AOT/AOT_stimuli/rescaled_final/0490_fw.mp4	0.0	88.85906291007996	1.0001769065856934
3	58.38367700576782	pulse	0	t		1.0	2.5	/experiments/knapen_AOT/AOT_stimuli/rescaled_final/0490_fw.mp4	0.0	89.4427318572998	
3	58.80018496513367	movie	1		245	1.0	2.5	/experiments/knapen_AOT/AOT_stimuli/rescaled_final/0490_fw.mp4	0.0	89.85923981666565	2.50032901763916
3	59.984095096588135	pulse	1	t		1.0	2.5	/experiments/knapen_AOT/AOT_stimuli/rescaled_final/0490_fw.mp4	0.0	91.04314994812012	
3	61.30051398277283	fix_post	2		12	1.0	2.5	/experiments/knapen_AOT/AOT_stimuli/rescaled_final/0490_fw.mp4	0.0	92.35956883430481	0.10002899169921875
4	61.400542974472046	fix_pre	0		120	2.0	2.5	/experiments/knapen_AOT/AOT_stimuli/rescaled_final/0655_rv.mp4	0.0	92.45959782600403	1.0001440048217773
4	61.58416795730591	pulse	0	t		2.0	2.5	/experiments/knapen_AOT/AOT_stimuli/rescaled_final/0655_rv.mp4	0.0	92.64322280883789	
4	62.40068697929382	movie	1		245	2.0	2.5	/experiments/knapen_AOT/AOT_stimuli/rescaled_final/0655_rv.mp4	0.0	93.4597418308258	2.5004501342773438
4	63.184349060058594	pulse	1	t		2.0	2.5	/experiments/knapen_AOT/AOT_stimuli/rescaled_final/0655_rv.mp4	0.0	94.24340391159058	
4	64.78226709365845	pulse	1	t		2.0	2.5	/experiments/knapen_AOT/AOT_stimuli/rescaled_final/0655_rv.mp4	0.0	95.84132194519043	
4	64.90113711357117	fix_post	2		12	2.0	2.5	/experiments/knapen_AOT/AOT_stimuli/rescaled_final/0655_rv.mp4	0.0	95.96019196510315	0.0999610424041748
5	65.00109815597534	fix_pre	0		120	3.0	2.5	/experiments/knapen_AOT/AOT_stimuli/rescaled_final/1476_rv.mp4	0.0	96.06015300750732	1.000152826309204
5	66.00125098228455	movie	1		245	3.0	2.5	/experiments/knapen_AOT/AOT_stimuli/rescaled_final/1476_rv.mp4	0.0	97.06030583381653	2.492115020751953
5	66.38646101951599	pulse	1	t		3.0	2.5	/experiments/knapen_AOT/AOT_stimuli/rescaled_final/1476_rv.mp4	0.0	97.44551587104797	
5	67.98510408401489	pulse	1	t		3.0	2.5	/experiments/knapen_AOT/AOT_stimuli/rescaled_final/1476_rv.mp4	0.0	99.04415893554688	
5	68.4933660030365	fix_post	2		12	3.0	2.5	/experiments/knapen_AOT/AOT_stimuli/rescaled_final/1476_rv.mp4	0.0	99.55242085456848	0.09990906715393066
6	68.59327507019043	fix_pre	0		120	4.0	2.5	/experiments/knapen_AOT/AOT_stimuli/rescaled_final/1222_rv.mp4	0.0	99.65232992172241	1.0001800060272217
6	69.5852861404419	pulse	0	t		4.0	2.5	/experiments/knapen_AOT/AOT_stimuli/rescaled_final/1222_rv.mp4	0.0	100.64434099197388	
6	69.59345507621765	movie	1		245	4.0	2.5	/experiments/knapen_AOT/AOT_stimuli/rescaled_final/1222_rv.mp4	0.0	100.65250992774963	2.508668899536133
6	71.18703198432922	pulse	1	t		4.0	2.5	/experiments/knapen_AOT/AOT_stimuli/rescaled_final/1222_rv.mp4	0.0	102.2460868358612	
6	72.10212397575378	fix_post	2		12	4.0	2.5	/experiments/knapen_AOT/AOT_stimuli/rescaled_final/1222_rv.mp4	0.0	103.16117882728577	0.10005807876586914
7	72.20218205451965	fix_pre	0		120	5.0	2.5	/experiments/knapen_AOT/AOT_stimuli/rescaled_final/1251_fw.mp4	0.0	103.26123690605164	1.0001420974731445
7	72.78589510917664	pulse	0	t		5.0	2.5	/experiments/knapen_AOT/AOT_stimuli/rescaled_final/1251_fw.mp4	0.0	103.84494996070862	
7	73.2023241519928	movie	1		244	5.0	2.5	/experiments/knapen_AOT/AOT_stimuli/rescaled_final/1251_fw.mp4	0.0	104.26137900352478	2.5004618167877197
7	74.38622713088989	pulse	1	t		5.0	2.5	/experiments/knapen_AOT/AOT_stimuli/rescaled_final/1251_fw.mp4	0.0	105.44528198242188	
7	75.70278596878052	fix_post	2		9	5.0	2.5	/experiments/knapen_AOT/AOT_stimuli/rescaled_final/1251_fw.mp4	0.0	106.7618408203125	0.09992814064025879
8	75.80271410942078	fix_pre	0		120	6.0	2.5	blank	1.0	106.86176896095276	1.0001678466796875
8	75.98630809783936	pulse	0	t		6.0	2.5	blank	1.0	107.04536294937134	
8	76.80288195610046	movie	1		300	6.0	2.5	blank	1.0	107.86193680763245	2.500352144241333
8	77.57908701896667	pulse	1	t		6.0	2.5	blank	1.0	108.63814187049866	
8	79.17913699150085	pulse	1	t		6.0	2.5	blank	1.0	110.23819184303284	
8	79.3032341003418	fix_post	2		12	6.0	2.5	blank	1.0	110.36228895187378	0.10006308555603027
9	79.40329718589783	fix_pre	0		119	7.0	2.5	/experiments/knapen_AOT/AOT_stimuli/rescaled_final/0107_fw.mp4	0.0	110.46235203742981	0.9917459487915039
9	80.39504313468933	movie	1		245	7.0	2.5	/experiments/knapen_AOT/AOT_stimuli/rescaled_final/0107_fw.mp4	0.0	111.45409798622131	2.500563859939575
9	80.77916812896729	pulse	1	t		7.0	2.5	/experiments/knapen_AOT/AOT_stimuli/rescaled_final/0107_fw.mp4	0.0	111.83822298049927	
9	82.37996411323547	pulse	1	t		7.0	2.5	/experiments/knapen_AOT/AOT_stimuli/rescaled_final/0107_fw.mp4	0.0	113.43901896476746	
9	82.8956069946289	fix_post	2		12	7.0	2.5	/experiments/knapen_AOT/AOT_stimuli/rescaled_final/0107_fw.mp4	0.0	113.95466184616089	0.09985804557800293
10	82.99546504020691	fix_pre	0		120	8.0	2.5	/experiments/knapen_AOT/AOT_stimuli/rescaled_final/0521_rv.mp4	0.0	114.05451989173889	1.000148057937622
10	83.97992396354675	pulse	0	t		8.0	2.5	/experiments/knapen_AOT/AOT_stimuli/rescaled_final/0521_rv.mp4	0.0	115.03897881507874	
10	83.99561309814453	movie	1		246	8.0	2.5	/experiments/knapen_AOT/AOT_stimuli/rescaled_final/0521_rv.mp4	0.0	115.05466794967651	2.50881290435791
10	85.57937812805176	pulse	1	t		8.0	2.5	/experiments/knapen_AOT/AOT_stimuli/rescaled_final/0521_rv.mp4	0.0	116.63843297958374	
10	86.50442600250244	fix_post	2		12	8.0	2.5	/experiments/knapen_AOT/AOT_stimuli/rescaled_final/0521_rv.mp4	0.0	117.56348085403442	0.09992814064025879
11	86.6043541431427	fix_pre	0		120	9.0	2.5	/experiments/knapen_AOT/AOT_stimuli/rescaled_final/1398_fw.mp4	0.0	117.66340899467468	1.0001568794250488
11	87.17953395843506	pulse	0	t		9.0	2.5	/experiments/knapen_AOT/AOT_stimuli/rescaled_final/1398_fw.mp4	0.0	118.23858880996704	
11	87.60451102256775	movie	1		245	9.0	2.5	/experiments/knapen_AOT/AOT_stimuli/rescaled_final/1398_fw.mp4	0.0	118.66356587409973	2.500314950942993
11	88.78067517280579	pulse	1	t		9.0	2.5	/experiments/knapen_AOT/AOT_stimuli/rescaled_final/1398_fw.mp4	0.0	119.83973002433777	
11	90.10482597351074	fix_post	2		12	9.0	2.5	/experiments/knapen_AOT/AOT_stimuli/rescaled_final/1398_fw.mp4	0.0	121.16388082504272	0.10002708435058594
12	90.20485305786133	fix_pre	0		120	10.0	2.5	/experiments/knapen_AOT/AOT_stimuli/rescaled_final/1120_rv.mp4	0.0	121.26390790939331	1.0001630783081055
12	90.3800950050354	pulse	0	t		10.0	2.5	/experiments/knapen_AOT/AOT_stimuli/rescaled_final/1120_rv.mp4	0.0	121.43914985656738	
12	91.20501613616943	movie	1		244	10.0	2.5	/experiments/knapen_AOT/AOT_stimuli/rescaled_final/1120_rv.mp4	0.0	122.26407098770142	2.4920098781585693
12	91.98030400276184	pulse	1	t		10.0	2.5	/experiments/knapen_AOT/AOT_stimuli/rescaled_final/1120_rv.mp4	0.0	123.03935885429382	
12	93.58067417144775	pulse	1	t		10.0	2.5	/experiments/knapen_AOT/AOT_stimuli/rescaled_final/1120_rv.mp4	0.0	124.63972902297974	
12	93.697026014328	fix_post	2		13	10.0	2.5	/experiments/knapen_AOT/AOT_stimuli/rescaled_final/1120_rv.mp4	0.0	124.75608086585999	0.1083381175994873
13	93.80536413192749	fix_pre	0		119	11.0	2.5	/experiments/knapen_AOT/AOT_stimuli/rescaled_final/0905_fw.mp4	0.0	124.86441898345947	0.9918169975280762
13	94.79718112945557	movie	1		248	11.0	2.5	/experiments/knapen_AOT/AOT_stimuli/rescaled_final/0905_fw.mp4	0.0	125.85623598098755	2.5004148483276367
13	95.18190407752991	pulse	1	t		11.0	2.5	/experiments/knapen_AOT/AOT_stimuli/rescaled_final/0905_fw.mp4	0.0	126.24095892906189	
13	96.78104901313782	pulse	1	t		11.0	2.5	/experiments/knapen_AOT/AOT_stimuli/rescaled_final/0905_fw.mp4	0.0	127.8401038646698	
13	97.2975959777832	fix_post	2		12	11.0	2.5	/experiments/knapen_AOT/AOT_stimuli/rescaled_final/0905_fw.mp4	0.0	128.35665082931519	0.09998607635498047
14	97.39758205413818	fix_pre	0		119	12.0	2.5	blank	1.0	128.45663690567017	0.991858959197998
14	98.38130402565002	pulse	0	t		12.0	2.5	blank	1.0	129.440358877182	
14	98.38944101333618	movie	1		301	12.0	2.5	blank	1.0	129.44849586486816	2.508690118789673
14	99.98157715797424	pulse	1	t		12.0	2.5	blank	1.0	131.04063200950623	
14	100.89813113212585	fix_post	2		12	12.0	2.5	blank	1.0	131.95718598365784	0.10000491142272949
15	100.99813604354858	fix_pre	0		120	13.0	2.5	/experiments/knapen_AOT/AOT_stimuli/rescaled_final/1123_fw.mp4	0.0	132.05719089508057	1.0001459121704102
15	101.58178114891052	pulse	0	t		13.0	2.5	/experiments/knapen_AOT/AOT_stimuli/rescaled_final/1123_fw.mp4	0.0	132.6408360004425	
15	101.998281955719	movie	1		247	13.0	2.5	/experiments/knapen_AOT/AOT_stimuli/rescaled_final/1123_fw.mp4	0.0	133.05733680725098	2.50039005279541
15	103.18207907676697	pulse	1	t		13.0	2.5	/experiments/knapen_AOT/AOT_stimuli/rescaled_final/1123_fw.mp4	0.0	134.24113392829895	
15	104.4986720085144	fix_post	2		12	13.0	2.5	/experiments/knapen_AOT/AOT_stimuli/rescaled_final/1123_fw.mp4	0.0	135.5577268600464	0.09999895095825195
16	104.59867095947266	fix_pre	0		120	14.0	2.5	/experiments/knapen_AOT/AOT_stimuli/rescaled_final/2152_fw.mp4	0.0	135.65772581100464	1.0001661777496338
16	104.78226518630981	pulse	0	t		14.0	2.5	/experiments/knapen_AOT/AOT_stimuli/rescaled_final/2152_fw.mp4	0.0	135.8413200378418	
16	105.59883713722229	movie	1		244	14.0	2.5	/experiments/knapen_AOT/AOT_stimuli/rescaled_final/2152_fw.mp4	0.0	136.65789198875427	2.5003550052642822
16	106.3826060295105	pulse	1	t		14.0	2.5	/experiments/knapen_AOT/AOT_stimuli/rescaled_final/2152_fw.mp4	0.0	137.44166088104248	
16	107.98289918899536	pulse	1	t		14.0	2.5	/experiments/knapen_AOT/AOT_stimuli/rescaled_final/2152_fw.mp4	0.0	139.04195404052734	
16	108.09919214248657	fix_post	2		12	14.0	2.5	/experiments/knapen_AOT/AOT_stimuli/rescaled_final/2152_fw.mp4	0.0	139.15824699401855	0.1000218391418457
17	108.19921398162842	fix_pre	0		120	15.0	2.5	/experiments/knapen_AOT/AOT_stimuli/rescaled_final/1883_rv.mp4	0.0	139.2582688331604	1.0001871585845947
17	109.19940114021301	movie	1		245	15.0	2.5	/experiments/knapen_AOT/AOT_stimuli/rescaled_final/1883_rv.mp4	0.0	140.258455991745	2.492110013961792
17	109.5873031616211	pulse	1	t		15.0	2.5	/experiments/knapen_AOT/AOT_stimuli/rescaled_final/1883_rv.mp4	0.0	140.64635801315308	
17	111.18316316604614	pulse	1	t		15.0	2.5	/experiments/knapen_AOT/AOT_stimuli/rescaled_final/1883_rv.mp4	0.0	142.24221801757812	
17	111.6915111541748	fix_post	2		12	15.0	2.5	/experiments/knapen_AOT/AOT_stimuli/rescaled_final/1883_rv.mp4	0.0	142.7505660057068	0.09993386268615723
18	111.79144501686096	fix_pre	0		120	16.0	2.5	/experiments/knapen_AOT/AOT_stimuli/rescaled_final/0614_fw.mp4	0.0	142.85049986839294	1.0001261234283447
18	112.7833960056305	pulse	0	t		16.0	2.5	/experiments/knapen_AOT/AOT_stimuli/rescaled_final/0614_fw.mp4	0.0	143.84245085716248	
18	112.7915711402893	movie	1		247	16.0	2.5	/experiments/knapen_AOT/AOT_stimuli/rescaled_final/0614_fw.mp4	0.0	143.8506259918213	2.5088508129119873
18	114.3881561756134	pulse	1	t		16.0	2.5	/experiments/knapen_AOT/AOT_stimuli/rescaled_final/0614_fw.mp4	0.0	145.44721102714539	
18	115.3004219532013	fix_post	2		12	16.0	2.5	/experiments/knapen_AOT/AOT_stimuli/rescaled_final/0614_fw.mp4	0.0	146.35947680473328	0.09987115859985352
19	115.40029311180115	fix_pre	0		120	17.0	2.5	/experiments/knapen_AOT/AOT_stimuli/rescaled_final/0715_fw.mp4	0.0	146.45934796333313	1.0001800060272217
19	115.98396611213684	pulse	0	t		17.0	2.5	/experiments/knapen_AOT/AOT_stimuli/rescaled_final/0715_fw.mp4	0.0	147.04302096366882	
19	116.40047311782837	movie	1		244	17.0	2.5	/experiments/knapen_AOT/AOT_stimuli/rescaled_final/0715_fw.mp4	0.0	147.45952796936035	2.500458002090454
19	117.58423209190369	pulse	1	t		17.0	2.5	/experiments/knapen_AOT/AOT_stimuli/rescaled_final/0715_fw.mp4	0.0	148.64328694343567	
19	118.90093111991882	fix_post	2		12	17.0	2.5	/experiments/knapen_AOT/AOT_stimuli/rescaled_final/0715_fw.mp4	0.0	149.9599859714508	0.09990406036376953
20	119.00083518028259	fix_pre	0		120	18.0	2.5	/experiments/knapen_AOT/AOT_stimuli/rescaled_final/1694_rv.mp4	0.0	150.05989003181458	1.000182867050171
20	119.18435597419739	pulse	0	t		18.0	2.5	/experiments/knapen_AOT/AOT_stimuli/rescaled_final/1694_rv.mp4	0.0	150.24341082572937	
20	120.00101804733276	movie	1		243	18.0	2.5	/experiments/knapen_AOT/AOT_stimuli/rescaled_final/1694_rv.mp4	0.0	151.06007289886475	2.500291109085083
20	120.7848060131073	pulse	1	t		18.0	2.5	/experiments/knapen_AOT/AOT_stimuli/rescaled_final/1694_rv.mp4	0.0	151.84386086463928	
20	122.38485598564148	pulse	1	t		18.0	2.5	/experiments/knapen_AOT/AOT_stimuli/rescaled_final/1694_rv.mp4	0.0	153.44391083717346	
20	122.50130915641785	fix_post	2		12	18.0	2.5	/experiments/knapen_AOT/AOT_stimuli/rescaled_final/1694_rv.mp4	0.0	153.56036400794983	0.10006189346313477
21	122.60137104988098	fix_pre	0		120	19.0	2.5	/experiments/knapen_AOT/AOT_stimuli/rescaled_final/0968_fw.mp4	0.0	153.66042590141296	1.0001459121704102
21	123.60151696205139	movie	1		243	19.0	2.5	/experiments/knapen_AOT/AOT_stimuli/rescaled_final/0968_fw.mp4	0.0	154.66057181358337	2.4920411109924316
21	123.98554301261902	pulse	1	t		19.0	2.5	/experiments/knapen_AOT/AOT_stimuli/rescaled_final/0968_fw.mp4	0.0	155.044597864151	
21	125.58544301986694	pulse	1	t		19.0	2.5	/experiments/knapen_AOT/AOT_stimuli/rescaled_final/0968_fw.mp4	0.0	156.64449787139893	
21	126.09355807304382	fix_post	2		12	19.0	2.5	/experiments/knapen_AOT/AOT_stimuli/rescaled_final/0968_fw.mp4	0.0	157.1526129245758	0.10004901885986328
22	126.19360709190369	fix_pre	0		120	20.0	2.5	/experiments/knapen_AOT/AOT_stimuli/rescaled_final/0052_fw.mp4	0.0	157.25266194343567	1.0001370906829834
22	127.18568515777588	pulse	0	t		20.0	2.5	/experiments/knapen_AOT/AOT_stimuli/rescaled_final/0052_fw.mp4	0.0	158.24474000930786	
22	127.19374418258667	movie	1		247	20.0	2.5	/experiments/knapen_AOT/AOT_stimuli/rescaled_final/0052_fw.mp4	0.0	158.25279903411865	2.508774995803833
22	128.78622102737427	pulse	1	t		20.0	2.5	/experiments/knapen_AOT/AOT_stimuli/rescaled_final/0052_fw.mp4	0.0	159.84527587890625	
22	129.7025191783905	fix_post	2		12	20.0	2.5	/experiments/knapen_AOT/AOT_stimuli/rescaled_final/0052_fw.mp4	0.0	160.76157402992249	0.09989094734191895
23	129.80241012573242	fix_pre	0		120	21.0	2.5	blank	1.0	160.8614649772644	1.000187873840332
23	130.3860969543457	pulse	0	t		21.0	2.5	blank	1.0	161.44515180587769	
23	130.80259799957275	movie	1		300	21.0	2.5	blank	1.0	161.86165285110474	2.5003931522369385
23	131.9788670539856	pulse	1	t		21.0	2.5	blank	1.0	163.03792190551758	
23	133.3029911518097	fix_post	2		12	21.0	2.5	blank	1.0	164.36204600334167	0.09999394416809082
24	133.40298509597778	fix_pre	0		120	22.0	2.5	/experiments/knapen_AOT/AOT_stimuli/rescaled_final/0256_fw.mp4	0.0	164.46203994750977	1.0001299381256104
24	133.57897901535034	pulse	0	t		22.0	2.5	/experiments/knapen_AOT/AOT_stimuli/rescaled_final/0256_fw.mp4	0.0	164.63803386688232	
24	134.4031150341034	movie	1		244	22.0	2.5	/experiments/knapen_AOT/AOT_stimuli/rescaled_final/0256_fw.mp4	0.0	165.46216988563538	2.500515937805176
24	135.17946910858154	pulse	1	t		22.0	2.5	/experiments/knapen_AOT/AOT_stimuli/rescaled_final/0256_fw.mp4	0.0	166.23852396011353	
24	136.7868161201477	pulse	1	t		22.0	2.5	/experiments/knapen_AOT/AOT_stimuli/rescaled_final/0256_fw.mp4	0.0	167.8458709716797	
24	136.90363097190857	fix_post	2		12	22.0	2.5	/experiments/knapen_AOT/AOT_stimuli/rescaled_final/0256_fw.mp4	0.0	167.96268582344055	0.0998690128326416
25	137.0034999847412	fix_pre	0		120	23.0	2.5	/experiments/knapen_AOT/AOT_stimuli/rescaled_final/1833_fw.mp4	0.0	168.0625548362732	1.0002150535583496
25	138.00371503829956	movie	1		243	23.0	2.5	/experiments/knapen_AOT/AOT_stimuli/rescaled_final/1833_fw.mp4	0.0	169.06276988983154	2.4920079708099365
25	138.37900304794312	pulse	1	t		23.0	2.5	/experiments/knapen_AOT/AOT_stimuli/rescaled_final/1833_fw.mp4	0.0	169.4380578994751	
25	139.9791820049286	pulse	1	t		23.0	2.5	/experiments/knapen_AOT/AOT_stimuli/rescaled_final/1833_fw.mp4	0.0	171.03823685646057	
25	140.4957230091095	fix_post	2		12	23.0	2.5	/experiments/knapen_AOT/AOT_stimuli/rescaled_final/1833_fw.mp4	0.0	171.55477786064148	0.10001802444458008
26	140.59574103355408	fix_pre	0		116	24.0	2.5	/experiments/knapen_AOT/AOT_stimuli/rescaled_final/0794_rv.mp4	0.0	171.65479588508606	0.9918069839477539
26	141.57939910888672	pulse	0	t		24.0	2.5	/experiments/knapen_AOT/AOT_stimuli/rescaled_final/0794_rv.mp4	0.0	172.6384539604187	
26	141.58754801750183	movie	1		248	24.0	2.5	/experiments/knapen_AOT/AOT_stimuli/rescaled_final/0794_rv.mp4	0.0	172.6466028690338	2.508815050125122
26	143.1802670955658	pulse	1	t		24.0	2.5	/experiments/knapen_AOT/AOT_stimuli/rescaled_final/0794_rv.mp4	0.0	174.23932194709778	
26	144.09636306762695	fix_post	2		12	24.0	2.5	/experiments/knapen_AOT/AOT_stimuli/rescaled_final/0794_rv.mp4	0.0	175.15541791915894	0.09989500045776367
27	144.19625806808472	fix_pre	0		120	25.0	2.5	/experiments/knapen_AOT/AOT_stimuli/rescaled_final/1176_rv.mp4	0.0	175.2553129196167	1.0001730918884277
27	144.78002905845642	pulse	0	t		25.0	2.5	/experiments/knapen_AOT/AOT_stimuli/rescaled_final/1176_rv.mp4	0.0	175.8390839099884	
27	145.19643115997314	movie	1		246	25.0	2.5	/experiments/knapen_AOT/AOT_stimuli/rescaled_final/1176_rv.mp4	0.0	176.25548601150513	2.500363826751709
27	146.3802580833435	pulse	1	t		25.0	2.5	/experiments/knapen_AOT/AOT_stimuli/rescaled_final/1176_rv.mp4	0.0	177.4393129348755	
27	147.69679498672485	fix_post	2		12	25.0	2.5	/experiments/knapen_AOT/AOT_stimuli/rescaled_final/1176_rv.mp4	0.0	178.75584983825684	0.1000361442565918
28	147.79683113098145	fix_pre	0		120	26.0	2.5	/experiments/knapen_AOT/AOT_stimuli/rescaled_final/1904_fw.mp4	0.0	178.85588598251343	1.0001168251037598
28	147.98032999038696	pulse	0	t		26.0	2.5	/experiments/knapen_AOT/AOT_stimuli/rescaled_final/1904_fw.mp4	0.0	179.03938484191895	
28	148.7969479560852	movie	1		247	26.0	2.5	/experiments/knapen_AOT/AOT_stimuli/rescaled_final/1904_fw.mp4	0.0	179.8560028076172	2.5003960132598877
28	149.58060002326965	pulse	1	t		26.0	2.5	/experiments/knapen_AOT/AOT_stimuli/rescaled_final/1904_fw.mp4	0.0	180.63965487480164	
28	151.1810450553894	pulse	1	t		26.0	2.5	/experiments/knapen_AOT/AOT_stimuli/rescaled_final/1904_fw.mp4	0.0	182.2400999069214	
28	151.2973439693451	fix_post	2		12	26.0	2.5	/experiments/knapen_AOT/AOT_stimuli/rescaled_final/1904_fw.mp4	0.0	182.35639882087708	0.09999704360961914
29	151.3973410129547	fix_pre	0		119	27.0	2.5	blank	1.0	182.4563958644867	0.9918360710144043
29	152.38917708396912	movie	1		300	27.0	2.5	blank	1.0	183.4482319355011	2.5003960132598877
29	152.78114104270935	pulse	1	t		27.0	2.5	blank	1.0	183.84019589424133	
29	154.3812391757965	pulse	1	t		27.0	2.5	blank	1.0	185.4402940273285	
29	154.889573097229	fix_post	2		12	27.0	2.5	blank	1.0	185.948627948761	0.09996700286865234
30	154.98954010009766	fix_pre	0		120	28.0	2.5	/experiments/knapen_AOT/AOT_stimuli/rescaled_final/1222_fw.mp4	0.0	186.04859495162964	1.0001749992370605
30	155.98156714439392	pulse	0	t		28.0	2.5	/experiments/knapen_AOT/AOT_stimuli/rescaled_final/1222_fw.mp4	0.0	187.0406219959259	
30	155.98971509933472	movie	1		248	28.0	2.5	/experiments/knapen_AOT/AOT_stimuli/rescaled_final/1222_fw.mp4	0.0	187.0487699508667	2.508707046508789
30	157.58600997924805	pulse	1	t		28.0	2.5	/experiments/knapen_AOT/AOT_stimuli/rescaled_final/1222_fw.mp4	0.0	188.64506483078003	
30	158.4984221458435	fix_post	2		12	28.0	2.5	/experiments/knapen_AOT/AOT_stimuli/rescaled_final/1222_fw.mp4	0.0	189.5574769973755	0.09997892379760742
31	158.5984010696411	fix_pre	0		120	29.0	2.5	/experiments/knapen_AOT/AOT_stimuli/rescaled_final/0846_rv.mp4	0.0	189.6574559211731	1.00022292137146
31	159.1821689605713	pulse	0	t		29.0	2.5	/experiments/knapen_AOT/AOT_stimuli/rescaled_final/0846_rv.mp4	0.0	190.24122381210327	
31	159.59862399101257	movie	1		248	29.0	2.5	/experiments/knapen_AOT/AOT_stimuli/rescaled_final/0846_rv.mp4	0.0	190.65767884254456	2.5002880096435547
31	160.78235697746277	pulse	1	t		29.0	2.5	/experiments/knapen_AOT/AOT_stimuli/rescaled_final/0846_rv.mp4	0.0	191.84141182899475	
31	162.09891200065613	fix_post	2		12	29.0	2.5	/experiments/knapen_AOT/AOT_stimuli/rescaled_final/0846_rv.mp4	0.0	193.1579668521881	0.10009002685546875
32	162.1990020275116	fix_pre	0		120	30.0	2.5	/experiments/knapen_AOT/AOT_stimuli/rescaled_final/1861_rv.mp4	0.0	193.25805687904358	1.0001170635223389
32	162.38253116607666	pulse	0	t		30.0	2.5	/experiments/knapen_AOT/AOT_stimuli/rescaled_final/1861_rv.mp4	0.0	193.44158601760864	
32	163.19911909103394	movie	1		247	30.0	2.5	/experiments/knapen_AOT/AOT_stimuli/rescaled_final/1861_rv.mp4	0.0	194.25817394256592	2.5003609657287598
32	163.98284697532654	pulse	1	t		30.0	2.5	/experiments/knapen_AOT/AOT_stimuli/rescaled_final/1861_rv.mp4	0.0	195.04190182685852	
32	165.58328795433044	pulse	1	t		30.0	2.5	/experiments/knapen_AOT/AOT_stimuli/rescaled_final/1861_rv.mp4	0.0	196.64234280586243	
32	165.6994800567627	fix_post	2		12	30.0	2.5	/experiments/knapen_AOT/AOT_stimuli/rescaled_final/1861_rv.mp4	0.0	196.75853490829468	0.09998798370361328
33	165.7994680404663	fix_pre	0		120	31.0	2.5	/experiments/knapen_AOT/AOT_stimuli/rescaled_final/0601_fw.mp4	0.0	196.8585228919983	1.000196933746338
33	166.79966497421265	movie	1		247	31.0	2.5	/experiments/knapen_AOT/AOT_stimuli/rescaled_final/0601_fw.mp4	0.0	197.85871982574463	2.4920132160186768
33	167.18430495262146	pulse	1	t		31.0	2.5	/experiments/knapen_AOT/AOT_stimuli/rescaled_final/0601_fw.mp4	0.0	198.24335980415344	
33	168.78348016738892	pulse	1	t		31.0	2.5	/experiments/knapen_AOT/AOT_stimuli/rescaled_final/0601_fw.mp4	0.0	199.8425350189209	
33	169.29167819023132	fix_post	2		12	31.0	2.5	/experiments/knapen_AOT/AOT_stimuli/rescaled_final/0601_fw.mp4	0.0	200.3507330417633	0.10001897811889648
34	169.39169716835022	fix_pre	0		120	32.0	2.5	/experiments/knapen_AOT/AOT_stimuli/rescaled_final/0747_rv.mp4	0.0	200.4507520198822	1.00016188621521
34	170.38382601737976	pulse	0	t		32.0	2.5	/experiments/knapen_AOT/AOT_stimuli/rescaled_final/0747_rv.mp4	0.0	201.44288086891174	
34	170.39185905456543	movie	1		247	32.0	2.5	/experiments/knapen_AOT/AOT_stimuli/rescaled_final/0747_rv.mp4	0.0	201.4509139060974	2.508704900741577
34	171.9852650165558	pulse	1	t		32.0	2.5	/experiments/knapen_AOT/AOT_stimuli/rescaled_final/0747_rv.mp4	0.0	203.04431986808777	
34	172.900563955307	fix_post	2		12	32.0	2.5	/experiments/knapen_AOT/AOT_stimuli/rescaled_final/0747_rv.mp4	0.0	203.959618806839	0.10001206398010254
35	173.0005760192871	fix_pre	0		120	33.0	2.5	/experiments/knapen_AOT/AOT_stimuli/rescaled_final/0052_rv.mp4	0.0	204.0596308708191	1.000136137008667
35	173.58422112464905	pulse	0	t		33.0	2.5	/experiments/knapen_AOT/AOT_stimuli/rescaled_final/0052_rv.mp4	0.0	204.64327597618103	
35	174.00071215629578	movie	1		247	33.0	2.5	/experiments/knapen_AOT/AOT_stimuli/rescaled_final/0052_rv.mp4	0.0	205.05976700782776	2.5003960132598877
35	175.18454813957214	pulse	1	t		33.0	2.5	/experiments/knapen_AOT/AOT_stimuli/rescaled_final/0052_rv.mp4	0.0	206.24360299110413	
35	176.50110816955566	fix_post	2		12	33.0	2.5	/experiments/knapen_AOT/AOT_stimuli/rescaled_final/0052_rv.mp4	0.0	207.56016302108765	0.10000085830688477
36	176.60110902786255	fix_pre	0		120	34.0	2.5	/experiments/knapen_AOT/AOT_stimuli/rescaled_final/0286_fw.mp4	0.0	207.66016387939453	1.0001630783081055
36	176.78464007377625	pulse	0	t		34.0	2.5	/experiments/knapen_AOT/AOT_stimuli/rescaled_final/0286_fw.mp4	0.0	207.84369492530823	
36	177.60127210617065	movie	1		245	34.0	2.5	/experiments/knapen_AOT/AOT_stimuli/rescaled_final/0286_fw.mp4	0.0	208.66032695770264	2.5003390312194824
36	178.38501715660095	pulse	1	t		34.0	2.5	/experiments/knapen_AOT/AOT_stimuli/rescaled_final/0286_fw.mp4	0.0	209.44407200813293	
36	179.98519611358643	pulse	1	t		34.0	2.5	/experiments/knapen_AOT/AOT_stimuli/rescaled_final/0286_fw.mp4	0.0	211.0442509651184	
36	180.10161113739014	fix_post	2		12	34.0	2.5	/experiments/knapen_AOT/AOT_stimuli/rescaled_final/0286_fw.mp4	0.0	211.16066598892212	0.10006594657897949
37	180.20167708396912	fix_pre	0		120	35.0	2.5	blank	1.0	211.2607319355011	1.0001070499420166
37	181.20178413391113	movie	1		299	35.0	2.5	blank	1.0	212.26083898544312	2.492043972015381
37	181.5853841304779	pulse	1	t		35.0	2.5	blank	1.0	212.6444389820099	
37	183.18564295768738	pulse	1	t		35.0	2.5	blank	1.0	214.24469780921936	
37	183.6938281059265	fix_post	2		12	35.0	2.5	blank	1.0	214.7528829574585	0.10001087188720703
38	183.79383897781372	fix_pre	0		120	36.0	2.5	/experiments/knapen_AOT/AOT_stimuli/rescaled_final/0757_fw.mp4	0.0	214.8528938293457	1.0001940727233887
38	184.78592109680176	pulse	0	t		36.0	2.5	/experiments/knapen_AOT/AOT_stimuli/rescaled_final/0757_fw.mp4	0.0	215.84497594833374	
38	184.7940330505371	movie	1		250	36.0	2.5	/experiments/knapen_AOT/AOT_stimuli/rescaled_final/0757_fw.mp4	0.0	215.8530879020691	2.5087060928344727
38	186.3867690563202	pulse	1	t		36.0	2.5	/experiments/knapen_AOT/AOT_stimuli/rescaled_final/0757_fw.mp4	0.0	217.44582390785217	
38	187.30273914337158	fix_post	2		12	36.0	2.5	/experiments/knapen_AOT/AOT_stimuli/rescaled_final/0757_fw.mp4	0.0	218.36179399490356	0.10001802444458008
39	187.40275716781616	fix_pre	0		120	37.0	2.5	/experiments/knapen_AOT/AOT_stimuli/rescaled_final/0490_rv.mp4	0.0	218.46181201934814	1.0001208782196045
39	187.97883796691895	pulse	0	t		37.0	2.5	/experiments/knapen_AOT/AOT_stimuli/rescaled_final/0490_rv.mp4	0.0	219.03789281845093	
39	188.40287804603577	movie	1		246	37.0	2.5	/experiments/knapen_AOT/AOT_stimuli/rescaled_final/0490_rv.mp4	0.0	219.46193289756775	2.5003321170806885
39	189.58305096626282	pulse	1	t		37.0	2.5	/experiments/knapen_AOT/AOT_stimuli/rescaled_final/0490_rv.mp4	0.0	220.6421058177948	
39	190.90321016311646	fix_post	2		12	37.0	2.5	/experiments/knapen_AOT/AOT_stimuli/rescaled_final/0490_rv.mp4	0.0	221.96226501464844	0.10004782676696777
40	191.00325798988342	fix_pre	0		120	38.0	2.5	/experiments/knapen_AOT/AOT_stimuli/rescaled_final/1206_rv.mp4	0.0	222.0623128414154	1.0001850128173828
40	191.17851614952087	pulse	0	t		38.0	2.5	/experiments/knapen_AOT/AOT_stimuli/rescaled_final/1206_rv.mp4	0.0	222.23757100105286	
40	192.0034430027008	movie	1		247	38.0	2.5	/experiments/knapen_AOT/AOT_stimuli/rescaled_final/1206_rv.mp4	0.0	223.0624978542328	2.500365972518921
40	192.77872395515442	pulse	1	t		38.0	2.5	/experiments/knapen_AOT/AOT_stimuli/rescaled_final/1206_rv.mp4	0.0	223.8377788066864	
40	194.3790500164032	pulse	1	t		38.0	2.5	/experiments/knapen_AOT/AOT_stimuli/rescaled_final/1206_rv.mp4	0.0	225.43810486793518	
40	194.50380897521973	fix_post	2		12	38.0	2.5	/experiments/knapen_AOT/AOT_stimuli/rescaled_final/1206_rv.mp4	0.0	225.5628638267517	0.09995818138122559
41	194.60376715660095	fix_pre	0		120	39.0	2.5	/experiments/knapen_AOT/AOT_stimuli/rescaled_final/0786_fw.mp4	0.0	225.66282200813293	1.0001800060272217
41	195.60394716262817	movie	1		246	39.0	2.5	/experiments/knapen_AOT/AOT_stimuli/rescaled_final/0786_fw.mp4	0.0	226.66300201416016	2.4920098781585693
41	195.97919702529907	pulse	1	t		39.0	2.5	/experiments/knapen_AOT/AOT_stimuli/rescaled_final/0786_fw.mp4	0.0	227.03825187683105	
41	197.57953596115112	pulse	1	t		39.0	2.5	/experiments/knapen_AOT/AOT_stimuli/rescaled_final/0786_fw.mp4	0.0	228.6385908126831	
41	198.09595704078674	fix_post	2		12	39.0	2.5	/experiments/knapen_AOT/AOT_stimuli/rescaled_final/0786_fw.mp4	0.0	229.15501189231873	0.10004591941833496
42	198.19600296020508	fix_pre	0		119	40.0	2.5	blank	1.0	229.25505781173706	0.9918951988220215
42	199.17975616455078	pulse	0	t		40.0	2.5	blank	1.0	230.23881101608276	
42	199.1878981590271	movie	1		301	40.0	2.5	blank	1.0	230.24695301055908	2.5086560249328613
42	200.77992606163025	pulse	1	t		40.0	2.5	blank	1.0	231.83898091316223	
42	201.69655418395996	fix_post	2		12	40.0	2.5	blank	1.0	232.75560903549194	0.10002279281616211
43	201.79657697677612	fix_pre	0		120	41.0	2.5	/experiments/knapen_AOT/AOT_stimuli/rescaled_final/1395_fw.mp4	0.0	232.8556318283081	1.0001142024993896
43	202.3801691532135	pulse	0	t		41.0	2.5	/experiments/knapen_AOT/AOT_stimuli/rescaled_final/1395_fw.mp4	0.0	233.43922400474548	
43	202.7966911792755	movie	1		245	41.0	2.5	/experiments/knapen_AOT/AOT_stimuli/rescaled_final/1395_fw.mp4	0.0	233.8557460308075	2.500415802001953
43	203.9804811477661	pulse	1	t		41.0	2.5	/experiments/knapen_AOT/AOT_stimuli/rescaled_final/1395_fw.mp4	0.0	235.0395359992981	
43	205.29710698127747	fix_post	2		12	41.0	2.5	/experiments/knapen_AOT/AOT_stimuli/rescaled_final/1395_fw.mp4	0.0	236.35616183280945	0.09995508193969727
44	205.39706206321716	fix_pre	0		120	42.0	2.5	/experiments/knapen_AOT/AOT_stimuli/rescaled_final/0170_rv.mp4	0.0	236.45611691474915	1.0002150535583496
44	205.58069396018982	pulse	0	t		42.0	2.5	/experiments/knapen_AOT/AOT_stimuli/rescaled_final/0170_rv.mp4	0.0	236.6397488117218	
44	206.3972771167755	movie	1		248	42.0	2.5	/experiments/knapen_AOT/AOT_stimuli/rescaled_final/0170_rv.mp4	0.0	237.4563319683075	2.5003108978271484
44	207.1809241771698	pulse	1	t		42.0	2.5	/experiments/knapen_AOT/AOT_stimuli/rescaled_final/0170_rv.mp4	0.0	238.23997902870178	
44	208.78112316131592	pulse	1	t		42.0	2.5	/experiments/knapen_AOT/AOT_stimuli/rescaled_final/0170_rv.mp4	0.0	239.8401780128479	
44	208.89758801460266	fix_post	2		12	42.0	2.5	/experiments/knapen_AOT/AOT_stimuli/rescaled_final/0170_rv.mp4	0.0	239.95664286613464	0.1000521183013916
45	208.99764013290405	fix_pre	0		120	43.0	2.5	/experiments/knapen_AOT/AOT_stimuli/rescaled_final/0575_fw.mp4	0.0	240.05669498443604	1.0001070499420166
45	209.99774718284607	movie	1		246	43.0	2.5	/experiments/knapen_AOT/AOT_stimuli/rescaled_final/0575_fw.mp4	0.0	241.05680203437805	2.4920918941497803
45	210.3825089931488	pulse	1	t		43.0	2.5	/experiments/knapen_AOT/AOT_stimuli/rescaled_final/0575_fw.mp4	0.0	241.4415638446808	
45	211.98172807693481	pulse	1	t		43.0	2.5	/experiments/knapen_AOT/AOT_stimuli/rescaled_final/0575_fw.mp4	0.0	243.0407829284668	
45	212.48983907699585	fix_post	2		12	43.0	2.5	/experiments/knapen_AOT/AOT_stimuli/rescaled_final/0575_fw.mp4	0.0	243.54889392852783	0.09999704360961914
46	212.58983612060547	fix_pre	0		120	44.0	2.5	/experiments/knapen_AOT/AOT_stimuli/rescaled_final/0479_fw.mp4	0.0	243.64889097213745	1.000135898590088
46	213.58193802833557	pulse	0	t		44.0	2.5	/experiments/knapen_AOT/AOT_stimuli/rescaled_final/0479_fw.mp4	0.0	244.64099287986755	
46	213.58997201919556	movie	1		248	44.0	2.5	/experiments/knapen_AOT/AOT_stimuli/rescaled_final/0479_fw.mp4	0.0	244.64902687072754	2.508784055709839
46	215.1828601360321	pulse	1	t		44.0	2.5	/experiments/knapen_AOT/AOT_stimuli/rescaled_final/0479_fw.mp4	0.0	246.2419149875641	
46	216.0987560749054	fix_post	2		12	44.0	2.5	/experiments/knapen_AOT/AOT_stimuli/rescaled_final/0479_fw.mp4	0.0	247.15781092643738	0.0999460220336914
47	216.1987020969391	fix_pre	0		120	45.0	2.5	/experiments/knapen_AOT/AOT_stimuli/rescaled_final/0905_rv.mp4	0.0	247.25775694847107	1.0003139972686768
47	216.78230214118958	pulse	0	t		45.0	2.5	/experiments/knapen_AOT/AOT_stimuli/rescaled_final/0905_rv.mp4	0.0	247.84135699272156	
47	217.19901609420776	movie	1		250	45.0	2.5	/experiments/knapen_AOT/AOT_stimuli/rescaled_final/0905_rv.mp4	0.0	248.25807094573975	2.5003390312194824
47	218.3826470375061	pulse	1	t		45.0	2.5	/experiments/knapen_AOT/AOT_stimuli/rescaled_final/0905_rv.mp4	0.0	249.4417018890381	
47	219.69935512542725	fix_post	2		12	45.0	2.5	/experiments/knapen_AOT/AOT_stimuli/rescaled_final/0905_rv.mp4	0.0	250.75840997695923	0.09989500045776367
48	219.799250125885	fix_pre	0		120	46.0	2.5	/experiments/knapen_AOT/AOT_stimuli/rescaled_final/0617_rv.mp4	0.0	250.858304977417	1.0001418590545654
48	219.98291611671448	pulse	0	t		46.0	2.5	/experiments/knapen_AOT/AOT_stimuli/rescaled_final/0617_rv.mp4	0.0	251.04197096824646	
48	220.79939198493958	movie	1		248	46.0	2.5	/experiments/knapen_AOT/AOT_stimuli/rescaled_final/0617_rv.mp4	0.0	251.85844683647156	2.500361204147339
48	221.5830681324005	pulse	1	t		46.0	2.5	/experiments/knapen_AOT/AOT_stimuli/rescaled_final/0617_rv.mp4	0.0	252.6421229839325	
48	223.18326210975647	pulse	1	t		46.0	2.5	/experiments/knapen_AOT/AOT_stimuli/rescaled_final/0617_rv.mp4	0.0	254.24231696128845	
48	223.2997531890869	fix_post	2		12	46.0	2.5	/experiments/knapen_AOT/AOT_stimuli/rescaled_final/0617_rv.mp4	0.0	254.3588080406189	0.10005879402160645
49	223.39981198310852	fix_pre	0		120	47.0	2.5	blank	1.0	254.4588668346405	1.0001301765441895
49	224.3999421596527	movie	1		299	47.0	2.5	blank	1.0	255.4589970111847	2.492039918899536
49	224.78360414505005	pulse	1	t		47.0	2.5	blank	1.0	255.84265899658203	
49	226.38387799263	pulse	1	t		47.0	2.5	blank	1.0	257.442932844162	
49	226.89198207855225	fix_post	2		12	47.0	2.5	blank	1.0	257.95103693008423	0.10000205039978027
50	226.99198412895203	fix_pre	0		120	48.0	2.5	/experiments/knapen_AOT/AOT_stimuli/rescaled_final/0973_rv.mp4	0.0	258.051038980484	1.0001380443572998
50	227.98406100273132	pulse	0	t		48.0	2.5	/experiments/knapen_AOT/AOT_stimuli/rescaled_final/0973_rv.mp4	0.0	259.0431158542633	
50	227.99212217330933	movie	1		247	48.0	2.5	/experiments/knapen_AOT/AOT_stimuli/rescaled_final/0973_rv.mp4	0.0	259.0511770248413	2.5087459087371826
50	229.58899211883545	pulse	1	t		48.0	2.5	/experiments/knapen_AOT/AOT_stimuli/rescaled_final/0973_rv.mp4	0.0	260.64804697036743	
50	230.5008680820465	fix_post	2		12	48.0	2.5	/experiments/knapen_AOT/AOT_stimuli/rescaled_final/0973_rv.mp4	0.0	261.5599229335785	0.09996294975280762
51	230.60083103179932	fix_pre	0		120	49.0	2.5	/experiments/knapen_AOT/AOT_stimuli/rescaled_final/0492_fw.mp4	0.0	261.6598858833313	1.0001559257507324
51	231.18443417549133	pulse	0	t		49.0	2.5	/experiments/knapen_AOT/AOT_stimuli/rescaled_final/0492_fw.mp4	0.0	262.2434890270233	
51	231.60098695755005	movie	1		246	49.0	2.5	/experiments/knapen_AOT/AOT_stimuli/rescaled_final/0492_fw.mp4	0.0	262.66004180908203	2.5004730224609375
51	232.78496599197388	pulse	1	t		49.0	2.5	/experiments/knapen_AOT/AOT_stimuli/rescaled_final/0492_fw.mp4	0.0	263.84402084350586	
51	234.101459980011	fix_post	2		12	49.0	2.5	/experiments/knapen_AOT/AOT_stimuli/rescaled_final/0492_fw.mp4	0.0	265.16051483154297	0.09987211227416992
52	234.20133209228516	fix_pre	0		120	50.0	2.5	/experiments/knapen_AOT/AOT_stimuli/rescaled_final/0934_rv.mp4	0.0	265.26038694381714	1.0002529621124268
52	234.38504195213318	pulse	0	t		50.0	2.5	/experiments/knapen_AOT/AOT_stimuli/rescaled_final/0934_rv.mp4	0.0	265.44409680366516	
52	235.20158505439758	movie	1		246	50.0	2.5	/experiments/knapen_AOT/AOT_stimuli/rescaled_final/0934_rv.mp4	0.0	266.26063990592957	2.5003249645233154
52	235.98535418510437	pulse	1	t		50.0	2.5	/experiments/knapen_AOT/AOT_stimuli/rescaled_final/0934_rv.mp4	0.0	267.04440903663635	
52	237.5855700969696	pulse	1	t		50.0	2.5	/experiments/knapen_AOT/AOT_stimuli/rescaled_final/0934_rv.mp4	0.0	268.6446249485016	
52	237.7019100189209	fix_post	2		12	50.0	2.5	/experiments/knapen_AOT/AOT_stimuli/rescaled_final/0934_rv.mp4	0.0	268.7609648704529	0.10004210472106934
53	237.80195212364197	fix_pre	0		120	51.0	2.5	/experiments/knapen_AOT/AOT_stimuli/rescaled_final/1534_rv.mp4	0.0	268.86100697517395	1.0000920295715332
53	238.8020441532135	movie	1		245	51.0	2.5	/experiments/knapen_AOT/AOT_stimuli/rescaled_final/1534_rv.mp4	0.0	269.8610990047455	2.4920918941497803
53	239.18608903884888	pulse	1	t		51.0	2.5	/experiments/knapen_AOT/AOT_stimuli/rescaled_final/1534_rv.mp4	0.0	270.24514389038086	
53	240.7860050201416	pulse	1	t		51.0	2.5	/experiments/knapen_AOT/AOT_stimuli/rescaled_final/1534_rv.mp4	0.0	271.8450598716736	
53	241.29413604736328	fix_post	2		12	51.0	2.5	/experiments/knapen_AOT/AOT_stimuli/rescaled_final/1534_rv.mp4	0.0	272.35319089889526	0.09993290901184082
54	241.39406895637512	fix_pre	0		120	52.0	2.5	/experiments/knapen_AOT/AOT_stimuli/rescaled_final/2100_fw.mp4	0.0	272.4531238079071	1.0002050399780273
54	242.38622617721558	pulse	0	t		52.0	2.5	/experiments/knapen_AOT/AOT_stimuli/rescaled_final/2100_fw.mp4	0.0	273.44528102874756	
54	242.39427399635315	movie	1		249	52.0	2.5	/experiments/knapen_AOT/AOT_stimuli/rescaled_final/2100_fw.mp4	0.0	273.45332884788513	2.5087380409240723
54	243.98748111724854	pulse	1	t		52.0	2.5	/experiments/knapen_AOT/AOT_stimuli/rescaled_final/2100_fw.mp4	0.0	275.0465359687805	
54	244.90301203727722	fix_post	2		12	52.0	2.5	/experiments/knapen_AOT/AOT_stimuli/rescaled_final/2100_fw.mp4	0.0	275.9620668888092	0.10001397132873535
55	245.00302600860596	fix_pre	0		120	53.0	2.5	/experiments/knapen_AOT/AOT_stimuli/rescaled_final/2117_rv.mp4	0.0	276.06208086013794	1.0001301765441895
55	245.57907605171204	pulse	0	t		53.0	2.5	/experiments/knapen_AOT/AOT_stimuli/rescaled_final/2117_rv.mp4	0.0	276.638130903244	
55	246.00315618515015	movie	1		249	53.0	2.5	/experiments/knapen_AOT/AOT_stimuli/rescaled_final/2117_rv.mp4	0.0	277.06221103668213	2.5003459453582764
55	247.17966508865356	pulse	1	t		53.0	2.5	/experiments/knapen_AOT/AOT_stimuli/rescaled_final/2117_rv.mp4	0.0	278.23871994018555	
55	248.50350213050842	fix_post	2		12	53.0	2.5	/experiments/knapen_AOT/AOT_stimuli/rescaled_final/2117_rv.mp4	0.0	279.5625569820404	0.10009288787841797
56	248.60359501838684	fix_pre	0		120	54.0	2.5	/experiments/knapen_AOT/AOT_stimuli/rescaled_final/0143_rv.mp4	0.0	279.6626498699188	1.0000829696655273
56	248.7797131538391	pulse	0	t		54.0	2.5	/experiments/knapen_AOT/AOT_stimuli/rescaled_final/0143_rv.mp4	0.0	279.8387680053711	
56	249.60367798805237	movie	1		247	54.0	2.5	/experiments/knapen_AOT/AOT_stimuli/rescaled_final/0143_rv.mp4	0.0	280.66273283958435	2.5003631114959717
56	250.37999415397644	pulse	1	t		54.0	2.5	/experiments/knapen_AOT/AOT_stimuli/rescaled_final/0143_rv.mp4	0.0	281.4390490055084	
56	251.9800009727478	pulse	1	t		54.0	2.5	/experiments/knapen_AOT/AOT_stimuli/rescaled_final/0143_rv.mp4	0.0	283.0390558242798	
56	252.10404109954834	fix_post	2		12	54.0	2.5	/experiments/knapen_AOT/AOT_stimuli/rescaled_final/0143_rv.mp4	0.0	283.1630959510803	0.10004901885986328
57	252.2040901184082	fix_pre	0		120	55.0	2.5	/experiments/knapen_AOT/AOT_stimuli/rescaled_final/0738_rv.mp4	0.0	283.2631449699402	1.0001590251922607
57	253.20424914360046	movie	1		246	55.0	2.5	/experiments/knapen_AOT/AOT_stimuli/rescaled_final/0738_rv.mp4	0.0	284.26330399513245	2.4919939041137695
57	253.57950115203857	pulse	1	t		55.0	2.5	/experiments/knapen_AOT/AOT_stimuli/rescaled_final/0738_rv.mp4	0.0	284.63855600357056	
57	255.17975115776062	pulse	1	t		55.0	2.5	/experiments/knapen_AOT/AOT_stimuli/rescaled_final/0738_rv.mp4	0.0	286.2388060092926	
57	255.69624304771423	fix_post	2		12	55.0	2.5	/experiments/knapen_AOT/AOT_stimuli/rescaled_final/0738_rv.mp4	0.0	286.7552978992462	0.10001206398010254
58	255.79625511169434	fix_pre	0		119	56.0	2.5	blank	1.0	286.8553099632263	0.9918520450592041
58	256.7799491882324	pulse	0	t		56.0	2.5	blank	1.0	287.8390040397644	
58	256.78810715675354	movie	1		301	56.0	2.5	blank	1.0	287.8471620082855	2.508711814880371
58	258.3802421092987	pulse	1	t		56.0	2.5	blank	1.0	289.4392969608307	
58	259.2968189716339	fix_post	2		12	56.0	2.5	blank	1.0	290.3558738231659	0.10008716583251953
59	259.39690613746643	fix_pre	0		120	57.0	2.5	/experiments/knapen_AOT/AOT_stimuli/rescaled_final/0617_fw.mp4	0.0	290.4559609889984	1.0000648498535156
59	259.9804780483246	pulse	0	t		57.0	2.5	/experiments/knapen_AOT/AOT_stimuli/rescaled_final/0617_fw.mp4	0.0	291.03953289985657	
59	260.39697098731995	movie	1		246	57.0	2.5	/experiments/knapen_AOT/AOT_stimuli/rescaled_final/0617_fw.mp4	0.0	291.45602583885193	2.5003390312194824
59	261.5807681083679	pulse	1	t		57.0	2.5	/experiments/knapen_AOT/AOT_stimuli/rescaled_final/0617_fw.mp4	0.0	292.6398229598999	
59	262.89731001853943	fix_post	2		12	57.0	2.5	/experiments/knapen_AOT/AOT_stimuli/rescaled_final/0617_fw.mp4	0.0	293.9563648700714	0.10004115104675293
60	262.9973511695862	fix_pre	0		120	58.0	2.5	/experiments/knapen_AOT/AOT_stimuli/rescaled_final/0447_fw.mp4	0.0	294.05640602111816	1.000126838684082
60	263.180899143219	pulse	0	t		58.0	2.5	/experiments/knapen_AOT/AOT_stimuli/rescaled_final/0447_fw.mp4	0.0	294.239953994751	
60	263.99747800827026	movie	1		248	58.0	2.5	/experiments/knapen_AOT/AOT_stimuli/rescaled_final/0447_fw.mp4	0.0	295.05653285980225	2.5004031658172607
60	264.7811779975891	pulse	1	t		58.0	2.5	/experiments/knapen_AOT/AOT_stimuli/rescaled_final/0447_fw.mp4	0.0	295.8402328491211	
60	266.3813810348511	pulse	1	t		58.0	2.5	/experiments/knapen_AOT/AOT_stimuli/rescaled_final/0447_fw.mp4	0.0	297.44043588638306	
60	266.4978811740875	fix_post	2		12	58.0	2.5	/experiments/knapen_AOT/AOT_stimuli/rescaled_final/0447_fw.mp4	0.0	297.5569360256195	0.10003995895385742
61	266.5979211330414	fix_pre	0		120	59.0	2.5	/experiments/knapen_AOT/AOT_stimuli/rescaled_final/0895_rv.mp4	0.0	297.65697598457336	1.0001449584960938
61	267.5980660915375	movie	1		242	59.0	2.5	/experiments/knapen_AOT/AOT_stimuli/rescaled_final/0895_rv.mp4	0.0	298.65712094306946	2.4920449256896973
61	267.9861750602722	pulse	1	t		59.0	2.5	/experiments/knapen_AOT/AOT_stimuli/rescaled_final/0895_rv.mp4	0.0	299.0452299118042	
61	269.5819261074066	pulse	1	t		59.0	2.5	/experiments/knapen_AOT/AOT_stimuli/rescaled_final/0895_rv.mp4	0.0	300.6409809589386	
61	270.0901110172272	fix_post	2		12	59.0	2.5	/experiments/knapen_AOT/AOT_stimuli/rescaled_final/0895_rv.mp4	0.0	301.14916586875916	0.09995698928833008
62	270.1900680065155	fix_pre	0		120	60.0	2.5	/experiments/knapen_AOT/AOT_stimuli/rescaled_final/1476_rv.mp4	0.0	301.2491228580475	1.0001821517944336
62	271.18212699890137	pulse	0	t		60.0	2.5	/experiments/knapen_AOT/AOT_stimuli/rescaled_final/1476_rv.mp4	0.0	302.24118185043335	
62	271.19025015830994	movie	1		249	60.0	2.5	/experiments/knapen_AOT/AOT_stimuli/rescaled_final/1476_rv.mp4	0.0	302.2493050098419	2.5087509155273438
62	272.7870841026306	pulse	1	t		60.0	2.5	/experiments/knapen_AOT/AOT_stimuli/rescaled_final/1476_rv.mp4	0.0	303.8461389541626	
62	273.6990010738373	fix_post	2		12	60.0	2.5	/experiments/knapen_AOT/AOT_stimuli/rescaled_final/1476_rv.mp4	0.0	304.75805592536926	0.09998488426208496
63	273.79898595809937	fix_pre	0		120	61.0	2.5	blank	1.0	304.85804080963135	1.000148057937622
63	274.3826401233673	pulse	0	t		61.0	2.5	blank	1.0	305.4416949748993	
63	274.799134016037	movie	1		300	61.0	2.5	blank	1.0	305.85818886756897	2.500394105911255
63	275.98281812667847	pulse	1	t		61.0	2.5	blank	1.0	307.04187297821045	
63	277.29952812194824	fix_post	2		12	61.0	2.5	blank	1.0	308.3585829734802	0.09997391700744629
64	277.3995020389557	fix_pre	0		120	62.0	2.5	/experiments/knapen_AOT/AOT_stimuli/rescaled_final/1832_fw.mp4	0.0	308.45855689048767	1.000157117843628
64	277.583153963089	pulse	0	t		62.0	2.5	/experiments/knapen_AOT/AOT_stimuli/rescaled_final/1832_fw.mp4	0.0	308.642208814621	
64	278.3996591567993	movie	1		247	62.0	2.5	/experiments/knapen_AOT/AOT_stimuli/rescaled_final/1832_fw.mp4	0.0	309.4587140083313	2.50038480758667
64	279.18327617645264	pulse	1	t		62.0	2.5	/experiments/knapen_AOT/AOT_stimuli/rescaled_final/1832_fw.mp4	0.0	310.2423310279846	
64	280.7838010787964	pulse	1	t		62.0	2.5	/experiments/knapen_AOT/AOT_stimuli/rescaled_final/1832_fw.mp4	0.0	311.84285593032837	
64	280.900043964386	fix_post	2		12	62.0	2.5	/experiments/knapen_AOT/AOT_stimuli/rescaled_final/1832_fw.mp4	0.0	311.95909881591797	0.09998416900634766
65	281.00002813339233	fix_pre	0		120	63.0	2.5	/experiments/knapen_AOT/AOT_stimuli/rescaled_final/1275_rv.mp4	0.0	312.0590829849243	1.0001559257507324
65	282.00018405914307	movie	1		247	63.0	2.5	/experiments/knapen_AOT/AOT_stimuli/rescaled_final/1275_rv.mp4	0.0	313.05923891067505	2.492034912109375
65	282.3845601081848	pulse	1	t		63.0	2.5	/experiments/knapen_AOT/AOT_stimuli/rescaled_final/1275_rv.mp4	0.0	313.4436149597168	
65	283.98407101631165	pulse	1	t		63.0	2.5	/experiments/knapen_AOT/AOT_stimuli/rescaled_final/1275_rv.mp4	0.0	315.0431258678436	
65	284.49221897125244	fix_post	2		12	63.0	2.5	/experiments/knapen_AOT/AOT_stimuli/rescaled_final/1275_rv.mp4	0.0	315.5512738227844	0.10003018379211426
66	284.59224915504456	fix_pre	0		120	64.0	2.5	/experiments/knapen_AOT/AOT_stimuli/rescaled_final/1396_fw.mp4	0.0	315.65130400657654	1.000182867050171
66	285.58422899246216	pulse	0	t		64.0	2.5	/experiments/knapen_AOT/AOT_stimuli/rescaled_final/1396_fw.mp4	0.0	316.64328384399414	
66	285.5924320220947	movie	1		249	64.0	2.5	/experiments/knapen_AOT/AOT_stimuli/rescaled_final/1396_fw.mp4	0.0	316.6514868736267	2.5086829662323
66	287.1852180957794	pulse	1	t		64.0	2.5	/experiments/knapen_AOT/AOT_stimuli/rescaled_final/1396_fw.mp4	0.0	318.2442729473114	
66	288.101114988327	fix_post	2		12	64.0	2.5	/experiments/knapen_AOT/AOT_stimuli/rescaled_final/1396_fw.mp4	0.0	319.160169839859	0.10005712509155273
67	288.2011721134186	fix_pre	0		120	65.0	2.5	/experiments/knapen_AOT/AOT_stimuli/rescaled_final/1194_rv.mp4	0.0	319.26022696495056	1.0000920295715332
67	288.7847580909729	pulse	0	t		65.0	2.5	/experiments/knapen_AOT/AOT_stimuli/rescaled_final/1194_rv.mp4	0.0	319.8438129425049	
67	289.2012641429901	movie	1		251	65.0	2.5	/experiments/knapen_AOT/AOT_stimuli/rescaled_final/1194_rv.mp4	0.0	320.2603189945221	2.5003490447998047
67	290.3851511478424	pulse	1	t		65.0	2.5	/experiments/knapen_AOT/AOT_stimuli/rescaled_final/1194_rv.mp4	0.0	321.4442059993744	
67	291.7016131877899	fix_post	2		12	65.0	2.5	/experiments/knapen_AOT/AOT_stimuli/rescaled_final/1194_rv.mp4	0.0	322.7606680393219	0.10005998611450195
68	291.8016731739044	fix_pre	0		120	66.0	2.5	/experiments/knapen_AOT/AOT_stimuli/rescaled_final/0320_rv.mp4	0.0	322.8607280254364	1.0001039505004883
68	291.9852650165558	pulse	0	t		66.0	2.5	/experiments/knapen_AOT/AOT_stimuli/rescaled_final/0320_rv.mp4	0.0	323.04431986808777	
68	292.8017771244049	movie	1		248	66.0	2.5	/experiments/knapen_AOT/AOT_stimuli/rescaled_final/0320_rv.mp4	0.0	323.8608319759369	2.5004079341888428
68	293.5855231285095	pulse	1	t		66.0	2.5	/experiments/knapen_AOT/AOT_stimuli/rescaled_final/0320_rv.mp4	0.0	324.6445779800415	
68	295.18584513664246	pulse	1	t		66.0	2.5	/experiments/knapen_AOT/AOT_stimuli/rescaled_final/0320_rv.mp4	0.0	326.24489998817444	
68	295.30218505859375	fix_post	2		12	66.0	2.5	/experiments/knapen_AOT/AOT_stimuli/rescaled_final/0320_rv.mp4	0.0	326.36123991012573	0.10001611709594727
69	295.4022011756897	fix_pre	0		120	67.0	2.5	/experiments/knapen_AOT/AOT_stimuli/rescaled_final/1315_fw.mp4	0.0	326.4612560272217	1.0001909732818604
69	296.40239214897156	movie	1		246	67.0	2.5	/experiments/knapen_AOT/AOT_stimuli/rescaled_final/1315_fw.mp4	0.0	327.46144700050354	2.492116928100586
69	296.7864570617676	pulse	1	t		67.0	2.5	/experiments/knapen_AOT/AOT_stimuli/rescaled_final/1315_fw.mp4	0.0	327.84551191329956	
69	298.37887501716614	pulse	1	t		67.0	2.5	/experiments/knapen_AOT/AOT_stimuli/rescaled_final/1315_fw.mp4	0.0	329.4379298686981	
69	298.89450907707214	fix_post	2		12	67.0	2.5	/experiments/knapen_AOT/AOT_stimuli/rescaled_final/1315_fw.mp4	0.0	329.9535639286041	0.09988903999328613
70	298.99439811706543	fix_pre	0		120	68.0	2.5	/experiments/knapen_AOT/AOT_stimuli/rescaled_final/1109_rv.mp4	0.0	330.0534529685974	1.000187873840332
70	299.97888708114624	pulse	0	t		68.0	2.5	/experiments/knapen_AOT/AOT_stimuli/rescaled_final/1109_rv.mp4	0.0	331.0379419326782	
70	299.99458599090576	movie	1		246	68.0	2.5	/experiments/knapen_AOT/AOT_stimuli/rescaled_final/1109_rv.mp4	0.0	331.05364084243774	2.5086891651153564
70	301.5867681503296	pulse	1	t		68.0	2.5	/experiments/knapen_AOT/AOT_stimuli/rescaled_final/1109_rv.mp4	0.0	332.6458230018616	
70	302.5032751560211	fix_post	2		12	68.0	2.5	/experiments/knapen_AOT/AOT_stimuli/rescaled_final/1109_rv.mp4	0.0	333.5623300075531	0.10004687309265137
71	302.60332202911377	fix_pre	0		120	69.0	2.5	/experiments/knapen_AOT/AOT_stimuli/rescaled_final/0260_rv.mp4	0.0	333.66237688064575	1.0000801086425781
71	303.1795380115509	pulse	0	t		69.0	2.5	/experiments/knapen_AOT/AOT_stimuli/rescaled_final/0260_rv.mp4	0.0	334.2385928630829	
71	303.60340213775635	movie	1		246	69.0	2.5	/experiments/knapen_AOT/AOT_stimuli/rescaled_final/0260_rv.mp4	0.0	334.66245698928833	2.500494956970215
71	304.77935814857483	pulse	1	t		69.0	2.5	/experiments/knapen_AOT/AOT_stimuli/rescaled_final/0260_rv.mp4	0.0	335.8384130001068	
71	306.10389709472656	fix_post	2		12	69.0	2.5	/experiments/knapen_AOT/AOT_stimuli/rescaled_final/0260_rv.mp4	0.0	337.16295194625854	0.0999150276184082
72	306.20381212234497	fix_pre	0		120	70.0	2.5	blank	1.0	337.26286697387695	1.0001938343048096
72	306.3791220188141	pulse	0	t		70.0	2.5	blank	1.0	337.43817687034607	
72	307.2040059566498	movie	1		299	70.0	2.5	blank	1.0	338.26306080818176	2.4920120239257812
72	307.9792101383209	pulse	1	t		70.0	2.5	blank	1.0	339.0382649898529	
72	309.5794930458069	pulse	1	t		70.0	2.5	blank	1.0	340.63854789733887	
72	309.69601798057556	fix_post	2		12	70.0	2.5	blank	1.0	340.75507283210754	0.09999513626098633
73	309.79601311683655	fix_pre	0		120	71.0	2.5	/experiments/knapen_AOT/AOT_stimuli/rescaled_final/0531_fw.mp4	0.0	340.85506796836853	1.000133991241455
73	310.796147108078	movie	1		246	71.0	2.5	/experiments/knapen_AOT/AOT_stimuli/rescaled_final/0531_fw.mp4	0.0	341.85520195961	2.5003859996795654
73	311.18027901649475	pulse	1	t		71.0	2.5	/experiments/knapen_AOT/AOT_stimuli/rescaled_final/0531_fw.mp4	0.0	342.23933386802673	
73	312.7801079750061	pulse	1	t		71.0	2.5	/experiments/knapen_AOT/AOT_stimuli/rescaled_final/0531_fw.mp4	0.0	343.8391628265381	
73	313.29653310775757	fix_post	2		12	71.0	2.5	/experiments/knapen_AOT/AOT_stimuli/rescaled_final/0531_fw.mp4	0.0	344.35558795928955	0.10003900527954102
74	313.3965721130371	fix_pre	0		119	72.0	2.5	/experiments/knapen_AOT/AOT_stimuli/rescaled_final/0715_rv.mp4	0.0	344.4556269645691	0.9918229579925537
74	314.3802239894867	pulse	0	t		72.0	2.5	/experiments/knapen_AOT/AOT_stimuli/rescaled_final/0715_rv.mp4	0.0	345.4392788410187	
74	314.38839507102966	movie	1		248	72.0	2.5	/experiments/knapen_AOT/AOT_stimuli/rescaled_final/0715_rv.mp4	0.0	345.44744992256165	2.508655071258545
74	315.9809160232544	pulse	1	t		72.0	2.5	/experiments/knapen_AOT/AOT_stimuli/rescaled_final/0715_rv.mp4	0.0	347.0399708747864	
74	316.8970501422882	fix_post	2		12	72.0	2.5	/experiments/knapen_AOT/AOT_stimuli/rescaled_final/0715_rv.mp4	0.0	347.9561049938202	0.10003781318664551
75	316.99708795547485	fix_pre	0		120	73.0	2.5	/experiments/knapen_AOT/AOT_stimuli/rescaled_final/1468_fw.mp4	0.0	348.05614280700684	1.0001590251922607
75	317.58080315589905	pulse	0	t		73.0	2.5	/experiments/knapen_AOT/AOT_stimuli/rescaled_final/1468_fw.mp4	0.0	348.63985800743103	
75	317.9972469806671	movie	1		247	73.0	2.5	/experiments/knapen_AOT/AOT_stimuli/rescaled_final/1468_fw.mp4	0.0	349.0563018321991	2.5004870891571045
75	319.18113017082214	pulse	1	t		73.0	2.5	/experiments/knapen_AOT/AOT_stimuli/rescaled_final/1468_fw.mp4	0.0	350.2401850223541	
75	320.4977340698242	fix_post	2		12	73.0	2.5	/experiments/knapen_AOT/AOT_stimuli/rescaled_final/1468_fw.mp4	0.0	351.5567889213562	0.09991002082824707
76	320.59764409065247	fix_pre	0		120	74.0	2.5	/experiments/knapen_AOT/AOT_stimuli/rescaled_final/1229_fw.mp4	0.0	351.65669894218445	1.000169038772583
76	320.7811989784241	pulse	0	t		74.0	2.5	/experiments/knapen_AOT/AOT_stimuli/rescaled_final/1229_fw.mp4	0.0	351.84025382995605	
76	321.59781312942505	movie	1		249	74.0	2.5	/experiments/knapen_AOT/AOT_stimuli/rescaled_final/1229_fw.mp4	0.0	352.65686798095703	2.500319004058838
76	322.3814661502838	pulse	1	t		74.0	2.5	/experiments/knapen_AOT/AOT_stimuli/rescaled_final/1229_fw.mp4	0.0	353.4405210018158	
76	323.9818170070648	pulse	1	t		74.0	2.5	/experiments/knapen_AOT/AOT_stimuli/rescaled_final/1229_fw.mp4	0.0	355.0408718585968	
76	324.0981321334839	fix_post	2		12	74.0	2.5	/experiments/knapen_AOT/AOT_stimuli/rescaled_final/1229_fw.mp4	0.0	355.15718698501587	0.10004186630249023
77	324.1981739997864	fix_pre	0		120	75.0	2.5	/experiments/knapen_AOT/AOT_stimuli/rescaled_final/1883_rv.mp4	0.0	355.25722885131836	1.000133991241455
77	325.19830799102783	movie	1		250	75.0	2.5	/experiments/knapen_AOT/AOT_stimuli/rescaled_final/1883_rv.mp4	0.0	356.2573628425598	2.492089033126831
77	325.5830330848694	pulse	1	t		75.0	2.5	/experiments/knapen_AOT/AOT_stimuli/rescaled_final/1883_rv.mp4	0.0	356.64208793640137	
77	327.182137966156	pulse	1	t		75.0	2.5	/experiments/knapen_AOT/AOT_stimuli/rescaled_final/1883_rv.mp4	0.0	358.241192817688	
77	327.69039702415466	fix_post	2		12	75.0	2.5	/experiments/knapen_AOT/AOT_stimuli/rescaled_final/1883_rv.mp4	0.0	358.74945187568665	0.0999910831451416
78	327.7903881072998	fix_pre	0		120	76.0	2.5	/experiments/knapen_AOT/AOT_stimuli/rescaled_final/0404_fw.mp4	0.0	358.8494429588318	1.0001559257507324
78	328.782350063324	pulse	0	t		76.0	2.5	/experiments/knapen_AOT/AOT_stimuli/rescaled_final/0404_fw.mp4	0.0	359.84140491485596	
78	328.79054403305054	movie	1		248	76.0	2.5	/experiments/knapen_AOT/AOT_stimuli/rescaled_final/0404_fw.mp4	0.0	359.8495988845825	2.508718967437744
78	330.3870930671692	pulse	1	t		76.0	2.5	/experiments/knapen_AOT/AOT_stimuli/rescaled_final/0404_fw.mp4	0.0	361.4461479187012	
78	331.2992630004883	fix_post	2		12	76.0	2.5	/experiments/knapen_AOT/AOT_stimuli/rescaled_final/0404_fw.mp4	0.0	362.35831785202026	0.09998798370361328
79	331.3992509841919	fix_pre	0		120	77.0	2.5	blank	1.0	362.4583058357239	1.0001940727233887
79	331.9829361438751	pulse	0	t		77.0	2.5	blank	1.0	363.0419909954071	
79	332.3994450569153	movie	1		297	77.0	2.5	blank	1.0	363.45849990844727	2.5003321170806885
79	333.5832040309906	pulse	1	t		77.0	2.5	blank	1.0	364.6422588825226	
79	334.899777173996	fix_post	2		12	77.0	2.5	blank	1.0	365.95883202552795	0.09999799728393555
80	334.9997751712799	fix_pre	0		120	78.0	2.5	/experiments/knapen_AOT/AOT_stimuli/rescaled_final/1754_fw.mp4	0.0	366.0588300228119	1.0001678466796875
80	335.1833381652832	pulse	0	t		78.0	2.5	/experiments/knapen_AOT/AOT_stimuli/rescaled_final/1754_fw.mp4	0.0	366.2423930168152	
80	335.9999430179596	movie	1		249	78.0	2.5	/experiments/knapen_AOT/AOT_stimuli/rescaled_final/1754_fw.mp4	0.0	367.0589978694916	2.5003819465637207
80	336.783704996109	pulse	1	t		78.0	2.5	/experiments/knapen_AOT/AOT_stimuli/rescaled_final/1754_fw.mp4	0.0	367.842759847641	
80	338.3839280605316	pulse	1	t		78.0	2.5	/experiments/knapen_AOT/AOT_stimuli/rescaled_final/1754_fw.mp4	0.0	369.4429829120636	
80	338.5003249645233	fix_post	2		12	78.0	2.5	/experiments/knapen_AOT/AOT_stimuli/rescaled_final/1754_fw.mp4	0.0	369.5593798160553	0.09999799728393555
81	338.60032296180725	fix_pre	0		119	79.0	2.5	/experiments/knapen_AOT/AOT_stimuli/rescaled_final/0395_rv.mp4	0.0	369.65937781333923	0.9917910099029541
81	339.5921139717102	movie	1		246	79.0	2.5	/experiments/knapen_AOT/AOT_stimuli/rescaled_final/0395_rv.mp4	0.0	370.6511688232422	2.500455141067505
81	339.98416113853455	pulse	1	t		79.0	2.5	/experiments/knapen_AOT/AOT_stimuli/rescaled_final/0395_rv.mp4	0.0	371.0432159900665	
81	341.5842971801758	pulse	1	t		79.0	2.5	/experiments/knapen_AOT/AOT_stimuli/rescaled_final/0395_rv.mp4	0.0	372.64335203170776	
81	342.0925691127777	fix_post	2		12	79.0	2.5	/experiments/knapen_AOT/AOT_stimuli/rescaled_final/0395_rv.mp4	0.0	373.1516239643097	0.09991598129272461
82	342.19248509407043	fix_pre	0		120	80.0	2.5	/experiments/knapen_AOT/AOT_stimuli/rescaled_final/1398_rv.mp4	0.0	373.2515399456024	1.0001890659332275
82	343.1845681667328	pulse	0	t		80.0	2.5	/experiments/knapen_AOT/AOT_stimuli/rescaled_final/1398_rv.mp4	0.0	374.24362301826477	
82	343.19267416000366	movie	1		247	80.0	2.5	/experiments/knapen_AOT/AOT_stimuli/rescaled_final/1398_rv.mp4	0.0	374.25172901153564	2.5087687969207764
82	344.7855281829834	pulse	1	t		80.0	2.5	/experiments/knapen_AOT/AOT_stimuli/rescaled_final/1398_rv.mp4	0.0	375.8445830345154	
82	345.70144295692444	fix_post	2		12	80.0	2.5	/experiments/knapen_AOT/AOT_stimuli/rescaled_final/1398_rv.mp4	0.0	376.7604978084564	0.09995412826538086
83	345.8013970851898	fix_pre	0		120	81.0	2.5	/experiments/knapen_AOT/AOT_stimuli/rescaled_final/0895_fw.mp4	0.0	376.8604519367218	1.0002329349517822
83	346.38511300086975	pulse	0	t		81.0	2.5	/experiments/knapen_AOT/AOT_stimuli/rescaled_final/0895_fw.mp4	0.0	377.44416785240173	
83	346.8016300201416	movie	1		244	81.0	2.5	/experiments/knapen_AOT/AOT_stimuli/rescaled_final/0895_fw.mp4	0.0	377.8606848716736	2.5003809928894043
83	347.98535799980164	pulse	1	t		81.0	2.5	/experiments/knapen_AOT/AOT_stimuli/rescaled_final/0895_fw.mp4	0.0	379.0444128513336	
83	349.302011013031	fix_post	2		12	81.0	2.5	/experiments/knapen_AOT/AOT_stimuli/rescaled_final/0895_fw.mp4	0.0	380.361065864563	0.09992814064025879
84	349.40193915367126	fix_pre	0		120	82.0	2.5	/experiments/knapen_AOT/AOT_stimuli/rescaled_final/0044_fw.mp4	0.0	380.46099400520325	1.0001189708709717
84	349.58555006980896	pulse	0	t		82.0	2.5	/experiments/knapen_AOT/AOT_stimuli/rescaled_final/0044_fw.mp4	0.0	380.64460492134094	
84	350.40205812454224	movie	1		247	82.0	2.5	/experiments/knapen_AOT/AOT_stimuli/rescaled_final/0044_fw.mp4	0.0	381.4611129760742	2.500452995300293
84	351.185702085495	pulse	1	t		82.0	2.5	/experiments/knapen_AOT/AOT_stimuli/rescaled_final/0044_fw.mp4	0.0	382.244756937027	
84	352.7861850261688	pulse	1	t		82.0	2.5	/experiments/knapen_AOT/AOT_stimuli/rescaled_final/0044_fw.mp4	0.0	383.8452398777008	
84	352.90251111984253	fix_post	2		12	82.0	2.5	/experiments/knapen_AOT/AOT_stimuli/rescaled_final/0044_fw.mp4	0.0	383.9615659713745	0.09994006156921387
85	353.00245118141174	fix_pre	0		120	83.0	2.5	blank	1.0	384.0615060329437	1.0001678466796875
85	354.00261902809143	movie	1		299	83.0	2.5	blank	1.0	385.0616738796234	2.4920530319213867
85	354.3862290382385	pulse	1	t		83.0	2.5	blank	1.0	385.4452838897705	
85	355.98645210266113	pulse	1	t		83.0	2.5	blank	1.0	387.0455069541931	
85	356.4946720600128	fix_post	2		12	83.0	2.5	blank	1.0	387.5537269115448	0.10002493858337402
87	356.5946969985962	stim	0		1716					387.6537518501282	14.302211046218872
87	357.58677196502686	pulse	0	t						388.64582681655884	
87	359.1795861721039	pulse	0	t						390.23864102363586	
87	360.7797951698303	pulse	0	t						391.8388500213623	
87	362.38023710250854	pulse	0	t						393.4392919540405	
87	363.9803349971771	pulse	0	t						395.0393898487091	
87	365.58048605918884	pulse	0	t						396.6395409107208	
87	367.17969512939453	pulse	0	t						398.2387499809265	
87	368.77992010116577	pulse	0	t						399.83897495269775	
87	370.38015818595886	pulse	0	t						401.43921303749084	
