trial_nr	onset	event_type	phase	response	nr_frames	movie_index	movie_duration	movie_file	blank	onset_abs	duration
0	0.15869498252868652	stim	0		311					22.227160930633545	2.591094970703125
0	2.7417349815368652	response	0	space						24.810200929641724	
1	2.7497899532318115	stim	0		12626					24.81825590133667	105.21614003181458
1	107.9604959487915	pulse	0	t						130.02896189689636	
1	107.96592998504639	stim	1		1717					130.03439593315125	14.308423042297363
1	109.55774092674255	pulse	1	t						131.6262068748474	
1	111.15781307220459	pulse	1	t						133.22627902030945	
1	112.75776195526123	pulse	1	t						134.8262279033661	
1	114.35777592658997	pulse	1	t						136.42624187469482	
1	115.95778799057007	pulse	1	t						138.02625393867493	
1	117.5577290058136	pulse	1	t						139.62619495391846	
1	119.15785503387451	pulse	1	t						141.22632098197937	
1	120.75774192810059	pulse	1	t						142.82620787620544	
2	122.27435302734375	fix_pre	0		11	0.0	2.5	/experiments/AOT/AOT_stimuli/rescaled_final/1033_rv.mp4	0.0	144.3428189754486	0.09157896041870117
2	122.3577470779419	pulse	0	t		0.0	2.5	/experiments/AOT/AOT_stimuli/rescaled_final/1033_rv.mp4	0.0	144.42621302604675	
2	122.36593198776245	movie	1		242	0.0	2.5	/experiments/AOT/AOT_stimuli/rescaled_final/1033_rv.mp4	0.0	144.4343979358673	2.5082719326019287
2	123.95744109153748	pulse	1	t		0.0	2.5	/experiments/AOT/AOT_stimuli/rescaled_final/1033_rv.mp4	0.0	146.02590703964233	
2	124.87420392036438	fix_post	2		12	0.0	2.5	/experiments/AOT/AOT_stimuli/rescaled_final/1033_rv.mp4	0.0	146.94266986846924	0.10009002685546875
3	124.97429394721985	fix_pre	0		120	1.0	2.5	/experiments/AOT/AOT_stimuli/rescaled_final/0436_rv.mp4	0.0	147.0427598953247	0.9999511241912842
3	125.55770993232727	pulse	0	t		1.0	2.5	/experiments/AOT/AOT_stimuli/rescaled_final/0436_rv.mp4	0.0	147.62617588043213	
3	125.97424507141113	movie	1		244	1.0	2.5	/experiments/AOT/AOT_stimuli/rescaled_final/0436_rv.mp4	0.0	148.042711019516	2.4999818801879883
3	127.15780997276306	pulse	1	t		1.0	2.5	/experiments/AOT/AOT_stimuli/rescaled_final/0436_rv.mp4	0.0	149.22627592086792	
3	128.47422695159912	fix_post	2		12	1.0	2.5	/experiments/AOT/AOT_stimuli/rescaled_final/0436_rv.mp4	0.0	150.54269289970398	0.09997010231018066
4	128.5741970539093	fix_pre	0		120	2.0	2.5	/experiments/AOT/AOT_stimuli/rescaled_final/0363_fw.mp4	0.0	150.64266300201416	1.000058889389038
4	128.757709980011	pulse	0	t		2.0	2.5	/experiments/AOT/AOT_stimuli/rescaled_final/0363_fw.mp4	0.0	150.82617592811584	
4	129.57425594329834	movie	1		244	2.0	2.5	/experiments/AOT/AOT_stimuli/rescaled_final/0363_fw.mp4	0.0	151.6427218914032	2.5000100135803223
4	130.35767889022827	pulse	1	t		2.0	2.5	/experiments/AOT/AOT_stimuli/rescaled_final/0363_fw.mp4	0.0	152.42614483833313	
4	131.9565200805664	pulse	1	t		2.0	2.5	/experiments/AOT/AOT_stimuli/rescaled_final/0363_fw.mp4	0.0	154.02498602867126	
4	132.07426595687866	fix_post	2		12	2.0	2.5	/experiments/AOT/AOT_stimuli/rescaled_final/0363_fw.mp4	0.0	154.14273190498352	0.09985899925231934
5	132.17412495613098	fix_pre	0		120	3.0	2.5	/experiments/AOT/AOT_stimuli/rescaled_final/0168_rv.mp4	0.0	154.24259090423584	1.0001311302185059
5	133.1742560863495	movie	1		243	3.0	2.5	/experiments/AOT/AOT_stimuli/rescaled_final/0168_rv.mp4	0.0	155.24272203445435	2.49992299079895
5	133.55732202529907	pulse	1	t		3.0	2.5	/experiments/AOT/AOT_stimuli/rescaled_final/0168_rv.mp4	0.0	155.62578797340393	
5	135.15792298316956	pulse	1	t		3.0	2.5	/experiments/AOT/AOT_stimuli/rescaled_final/0168_rv.mp4	0.0	157.2263889312744	
5	135.67417907714844	fix_post	2		12	3.0	2.5	/experiments/AOT/AOT_stimuli/rescaled_final/0168_rv.mp4	0.0	157.7426450252533	0.10000395774841309
6	135.77418303489685	fix_pre	0		119	4.0	2.5	/experiments/AOT/AOT_stimuli/rescaled_final/0080_rv.mp4	0.0	157.8426489830017	0.9916529655456543
6	136.75767397880554	pulse	0	t		4.0	2.5	/experiments/AOT/AOT_stimuli/rescaled_final/0080_rv.mp4	0.0	158.8261399269104	
6	136.7658360004425	movie	1		245	4.0	2.5	/experiments/AOT/AOT_stimuli/rescaled_final/0080_rv.mp4	0.0	158.83430194854736	2.5084190368652344
6	138.35811591148376	pulse	1	t		4.0	2.5	/experiments/AOT/AOT_stimuli/rescaled_final/0080_rv.mp4	0.0	160.42658185958862	
6	139.27425503730774	fix_post	2		12	4.0	2.5	/experiments/AOT/AOT_stimuli/rescaled_final/0080_rv.mp4	0.0	161.3427209854126	0.09995889663696289
7	139.3742139339447	fix_pre	0		120	5.0	2.5	blank	1.0	161.44267988204956	0.9998819828033447
7	139.95765805244446	pulse	0	t		5.0	2.5	blank	1.0	162.02612400054932	
7	140.37409591674805	movie	1		300	5.0	2.5	blank	1.0	162.4425618648529	2.5001161098480225
7	141.5575931072235	pulse	1	t		5.0	2.5	blank	1.0	163.62605905532837	
7	142.87421202659607	fix_post	2		12	5.0	2.5	blank	1.0	164.94267797470093	0.1000070571899414
8	142.974219083786	fix_pre	0		120	6.0	2.5	/experiments/AOT/AOT_stimuli/rescaled_final/1837_fw.mp4	0.0	165.04268503189087	1.0001130104064941
8	143.15763807296753	pulse	0	t		6.0	2.5	/experiments/AOT/AOT_stimuli/rescaled_final/1837_fw.mp4	0.0	165.2261040210724	
8	143.9743320941925	movie	1		243	6.0	2.5	/experiments/AOT/AOT_stimuli/rescaled_final/1837_fw.mp4	0.0	166.04279804229736	2.499811887741089
8	144.75770497322083	pulse	1	t		6.0	2.5	/experiments/AOT/AOT_stimuli/rescaled_final/1837_fw.mp4	0.0	166.82617092132568	
8	146.3562400341034	pulse	1	t		6.0	2.5	/experiments/AOT/AOT_stimuli/rescaled_final/1837_fw.mp4	0.0	168.42470598220825	
8	146.4741439819336	fix_post	2		12	6.0	2.5	/experiments/AOT/AOT_stimuli/rescaled_final/1837_fw.mp4	0.0	168.54260993003845	0.10004997253417969
9	146.57419395446777	fix_pre	0		120	7.0	2.5	/experiments/AOT/AOT_stimuli/rescaled_final/0688_rv.mp4	0.0	168.64265990257263	0.999920129776001
9	147.57411408424377	movie	1		243	7.0	2.5	/experiments/AOT/AOT_stimuli/rescaled_final/0688_rv.mp4	0.0	169.64258003234863	2.4999988079071045
9	147.957426071167	pulse	1	t		7.0	2.5	/experiments/AOT/AOT_stimuli/rescaled_final/0688_rv.mp4	0.0	170.02589201927185	
9	149.55755496025085	pulse	1	t		7.0	2.5	/experiments/AOT/AOT_stimuli/rescaled_final/0688_rv.mp4	0.0	171.6260209083557	
9	150.07411289215088	fix_post	2		12	7.0	2.5	/experiments/AOT/AOT_stimuli/rescaled_final/0688_rv.mp4	0.0	172.14257884025574	0.1000370979309082
10	150.1741499900818	fix_pre	0		119	8.0	2.5	/experiments/AOT/AOT_stimuli/rescaled_final/1449_rv.mp4	0.0	172.24261593818665	0.9916820526123047
10	151.15761995315552	pulse	0	t		8.0	2.5	/experiments/AOT/AOT_stimuli/rescaled_final/1449_rv.mp4	0.0	173.22608590126038	
10	151.1658320426941	movie	1		246	8.0	2.5	/experiments/AOT/AOT_stimuli/rescaled_final/1449_rv.mp4	0.0	173.23429799079895	2.5079028606414795
10	152.75754404067993	pulse	1	t		8.0	2.5	/experiments/AOT/AOT_stimuli/rescaled_final/1449_rv.mp4	0.0	174.8260099887848	
10	153.67373490333557	fix_post	2		12	8.0	2.5	/experiments/AOT/AOT_stimuli/rescaled_final/1449_rv.mp4	0.0	175.74220085144043	0.1004340648651123
11	153.77416896820068	fix_pre	0		120	9.0	2.5	/experiments/AOT/AOT_stimuli/rescaled_final/1966_rv.mp4	0.0	175.84263491630554	0.9995479583740234
11	154.35762190818787	pulse	0	t		9.0	2.5	/experiments/AOT/AOT_stimuli/rescaled_final/1966_rv.mp4	0.0	176.42608785629272	
11	154.7737169265747	movie	1		245	9.0	2.5	/experiments/AOT/AOT_stimuli/rescaled_final/1966_rv.mp4	0.0	176.84218287467957	2.5006580352783203
11	155.95730209350586	pulse	1	t		9.0	2.5	/experiments/AOT/AOT_stimuli/rescaled_final/1966_rv.mp4	0.0	178.02576804161072	
11	157.27437496185303	fix_post	2		12	9.0	2.5	/experiments/AOT/AOT_stimuli/rescaled_final/1966_rv.mp4	0.0	179.34284090995789	0.10004711151123047
12	157.37442207336426	fix_pre	0		120	10.0	2.5	/experiments/AOT/AOT_stimuli/rescaled_final/1611_rv.mp4	0.0	179.44288802146912	0.9997270107269287
12	157.55755305290222	pulse	0	t		10.0	2.5	/experiments/AOT/AOT_stimuli/rescaled_final/1611_rv.mp4	0.0	179.62601900100708	
12	158.3741490840912	movie	1		244	10.0	2.5	/experiments/AOT/AOT_stimuli/rescaled_final/1611_rv.mp4	0.0	180.44261503219604	2.4999639987945557
12	159.15750908851624	pulse	1	t		10.0	2.5	/experiments/AOT/AOT_stimuli/rescaled_final/1611_rv.mp4	0.0	181.2259750366211	
12	160.7557349205017	pulse	1	t		10.0	2.5	/experiments/AOT/AOT_stimuli/rescaled_final/1611_rv.mp4	0.0	182.82420086860657	
12	160.87411308288574	fix_post	2		12	10.0	2.5	/experiments/AOT/AOT_stimuli/rescaled_final/1611_rv.mp4	0.0	182.9425790309906	0.09995102882385254
13	160.9740641117096	fix_pre	0		120	11.0	2.5	/experiments/AOT/AOT_stimuli/rescaled_final/1380_rv.mp4	0.0	183.04253005981445	1.0000479221343994
13	161.974112033844	movie	1		244	11.0	2.5	/experiments/AOT/AOT_stimuli/rescaled_final/1380_rv.mp4	0.0	184.04257798194885	2.4995079040527344
13	162.35717010498047	pulse	1	t		11.0	2.5	/experiments/AOT/AOT_stimuli/rescaled_final/1380_rv.mp4	0.0	184.42563605308533	
13	163.95753598213196	pulse	1	t		11.0	2.5	/experiments/AOT/AOT_stimuli/rescaled_final/1380_rv.mp4	0.0	186.02600193023682	
13	164.47361993789673	fix_post	2		12	11.0	2.5	/experiments/AOT/AOT_stimuli/rescaled_final/1380_rv.mp4	0.0	186.5420858860016	0.10050511360168457
14	164.5741250514984	fix_pre	0		119	12.0	2.5	/experiments/AOT/AOT_stimuli/rescaled_final/0813_rv.mp4	0.0	186.64259099960327	0.9916260242462158
14	165.55753707885742	pulse	0	t		12.0	2.5	/experiments/AOT/AOT_stimuli/rescaled_final/0813_rv.mp4	0.0	187.62600302696228	
14	165.56575107574463	movie	1		245	12.0	2.5	/experiments/AOT/AOT_stimuli/rescaled_final/0813_rv.mp4	0.0	187.6342170238495	2.5083179473876953
14	167.15702295303345	pulse	1	t		12.0	2.5	/experiments/AOT/AOT_stimuli/rescaled_final/0813_rv.mp4	0.0	189.2254889011383	
14	168.07406902313232	fix_post	2		12	12.0	2.5	/experiments/AOT/AOT_stimuli/rescaled_final/0813_rv.mp4	0.0	190.14253497123718	0.09994697570800781
15	168.17401599884033	fix_pre	0		120	13.0	2.5	blank	1.0	190.2424819469452	0.9999520778656006
15	168.75749707221985	pulse	0	t		13.0	2.5	blank	1.0	190.8259630203247	
15	169.17396807670593	movie	1		300	13.0	2.5	blank	1.0	191.2424340248108	2.5000150203704834
15	170.35747694969177	pulse	1	t		13.0	2.5	blank	1.0	192.42594289779663	
15	171.67398309707642	fix_post	2		12	13.0	2.5	blank	1.0	193.74244904518127	0.09998583793640137
16	171.77396893501282	fix_pre	0		120	14.0	2.5	/experiments/AOT/AOT_stimuli/rescaled_final/0920_rv.mp4	0.0	193.84243488311768	1.0000109672546387
16	171.95739603042603	pulse	0	t		14.0	2.5	/experiments/AOT/AOT_stimuli/rescaled_final/0920_rv.mp4	0.0	194.02586197853088	
16	172.77397990226746	movie	1		241	14.0	2.5	/experiments/AOT/AOT_stimuli/rescaled_final/0920_rv.mp4	0.0	194.84244585037231	2.5000061988830566
16	173.55756306648254	pulse	1	t		14.0	2.5	/experiments/AOT/AOT_stimuli/rescaled_final/0920_rv.mp4	0.0	195.6260290145874	
16	175.15604996681213	pulse	1	t		14.0	2.5	/experiments/AOT/AOT_stimuli/rescaled_final/0920_rv.mp4	0.0	197.224515914917	
16	175.2739861011505	fix_post	2		12	14.0	2.5	/experiments/AOT/AOT_stimuli/rescaled_final/0920_rv.mp4	0.0	197.34245204925537	0.09992289543151855
17	175.37390899658203	fix_pre	0		120	15.0	2.5	/experiments/AOT/AOT_stimuli/rescaled_final/0025_fw.mp4	0.0	197.4423749446869	1.0001029968261719
17	176.3740119934082	movie	1		244	15.0	2.5	/experiments/AOT/AOT_stimuli/rescaled_final/0025_fw.mp4	0.0	198.44247794151306	2.499998092651367
17	176.7572739124298	pulse	1	t		15.0	2.5	/experiments/AOT/AOT_stimuli/rescaled_final/0025_fw.mp4	0.0	198.82573986053467	
17	178.35735201835632	pulse	1	t		15.0	2.5	/experiments/AOT/AOT_stimuli/rescaled_final/0025_fw.mp4	0.0	200.42581796646118	
17	178.87401008605957	fix_post	2		12	15.0	2.5	/experiments/AOT/AOT_stimuli/rescaled_final/0025_fw.mp4	0.0	200.94247603416443	0.09992599487304688
18	178.97393608093262	fix_pre	0		119	16.0	2.5	/experiments/AOT/AOT_stimuli/rescaled_final/1011_rv.mp4	0.0	201.04240202903748	0.9916889667510986
18	179.95740389823914	pulse	0	t		16.0	2.5	/experiments/AOT/AOT_stimuli/rescaled_final/1011_rv.mp4	0.0	202.025869846344	
18	179.96562504768372	movie	1		247	16.0	2.5	/experiments/AOT/AOT_stimuli/rescaled_final/1011_rv.mp4	0.0	202.03409099578857	2.5083060264587402
18	181.5572109222412	pulse	1	t		16.0	2.5	/experiments/AOT/AOT_stimuli/rescaled_final/1011_rv.mp4	0.0	203.62567687034607	
18	182.47393107414246	fix_post	2		12	16.0	2.5	/experiments/AOT/AOT_stimuli/rescaled_final/1011_rv.mp4	0.0	204.54239702224731	0.09998798370361328
19	182.57391905784607	fix_pre	0		120	17.0	2.5	/experiments/AOT/AOT_stimuli/rescaled_final/1729_rv.mp4	0.0	204.64238500595093	0.9999630451202393
19	183.15749192237854	pulse	0	t		17.0	2.5	/experiments/AOT/AOT_stimuli/rescaled_final/1729_rv.mp4	0.0	205.2259578704834	
19	183.5738821029663	movie	1		245	17.0	2.5	/experiments/AOT/AOT_stimuli/rescaled_final/1729_rv.mp4	0.0	205.64234805107117	2.5000150203704834
19	184.757483959198	pulse	1	t		17.0	2.5	/experiments/AOT/AOT_stimuli/rescaled_final/1729_rv.mp4	0.0	206.82594990730286	
19	186.0738971233368	fix_post	2		12	17.0	2.5	/experiments/AOT/AOT_stimuli/rescaled_final/1729_rv.mp4	0.0	208.14236307144165	0.09998393058776855
20	186.17388105392456	fix_pre	0		120	18.0	2.5	/experiments/AOT/AOT_stimuli/rescaled_final/0307_fw.mp4	0.0	208.24234700202942	0.9999918937683105
20	186.35747003555298	pulse	0	t		18.0	2.5	/experiments/AOT/AOT_stimuli/rescaled_final/0307_fw.mp4	0.0	208.42593598365784	
20	187.17387294769287	movie	1		242	18.0	2.5	/experiments/AOT/AOT_stimuli/rescaled_final/0307_fw.mp4	0.0	209.24233889579773	2.5001540184020996
20	187.95743989944458	pulse	1	t		18.0	2.5	/experiments/AOT/AOT_stimuli/rescaled_final/0307_fw.mp4	0.0	210.02590584754944	
20	189.55583000183105	pulse	1	t		18.0	2.5	/experiments/AOT/AOT_stimuli/rescaled_final/0307_fw.mp4	0.0	211.6242959499359	
20	189.67402696609497	fix_post	2		12	18.0	2.5	/experiments/AOT/AOT_stimuli/rescaled_final/0307_fw.mp4	0.0	211.74249291419983	0.09987306594848633
21	189.77390003204346	fix_pre	0		120	19.0	2.5	blank	1.0	211.84236598014832	1.0000150203704834
21	190.77391505241394	movie	1		300	19.0	2.5	blank	1.0	212.8423810005188	2.499990940093994
21	191.15745210647583	pulse	1	t		19.0	2.5	blank	1.0	213.2259180545807	
21	192.75734996795654	pulse	1	t		19.0	2.5	blank	1.0	214.8258159160614	
21	193.27390599250793	fix_post	2		12	19.0	2.5	blank	1.0	215.3423719406128	0.09999394416809082
22	193.37389993667603	fix_pre	0		119	20.0	2.5	/experiments/AOT/AOT_stimuli/rescaled_final/1732_fw.mp4	0.0	215.44236588478088	0.9916830062866211
22	194.35741209983826	pulse	0	t		20.0	2.5	/experiments/AOT/AOT_stimuli/rescaled_final/1732_fw.mp4	0.0	216.42587804794312	
22	194.36558294296265	movie	1		244	20.0	2.5	/experiments/AOT/AOT_stimuli/rescaled_final/1732_fw.mp4	0.0	216.4340488910675	2.508277177810669
22	195.95712995529175	pulse	1	t		20.0	2.5	/experiments/AOT/AOT_stimuli/rescaled_final/1732_fw.mp4	0.0	218.0255959033966	
22	196.87386012077332	fix_post	2		12	20.0	2.5	/experiments/AOT/AOT_stimuli/rescaled_final/1732_fw.mp4	0.0	218.94232606887817	0.10009384155273438
23	196.97395396232605	fix_pre	0		120	21.0	2.5	/experiments/AOT/AOT_stimuli/rescaled_final/1970_fw.mp4	0.0	219.0424199104309	0.9999270439147949
23	197.55742692947388	pulse	0	t		21.0	2.5	/experiments/AOT/AOT_stimuli/rescaled_final/1970_fw.mp4	0.0	219.62589287757874	
23	197.97388100624084	movie	1		243	21.0	2.5	/experiments/AOT/AOT_stimuli/rescaled_final/1970_fw.mp4	0.0	220.0423469543457	2.499994993209839
23	199.15746903419495	pulse	1	t		21.0	2.5	/experiments/AOT/AOT_stimuli/rescaled_final/1970_fw.mp4	0.0	221.2259349822998	
23	200.47387599945068	fix_post	2		12	21.0	2.5	/experiments/AOT/AOT_stimuli/rescaled_final/1970_fw.mp4	0.0	222.54234194755554	0.09998703002929688
24	200.57386302947998	fix_pre	0		120	22.0	2.5	/experiments/AOT/AOT_stimuli/rescaled_final/0897_rv.mp4	0.0	222.64232897758484	0.9995529651641846
24	200.75733494758606	pulse	0	t		22.0	2.5	/experiments/AOT/AOT_stimuli/rescaled_final/0897_rv.mp4	0.0	222.82580089569092	
24	201.57341599464417	movie	1		244	22.0	2.5	/experiments/AOT/AOT_stimuli/rescaled_final/0897_rv.mp4	0.0	223.64188194274902	2.5004870891571045
24	202.35734391212463	pulse	1	t		22.0	2.5	/experiments/AOT/AOT_stimuli/rescaled_final/0897_rv.mp4	0.0	224.4258098602295	
24	203.95560312271118	pulse	1	t		22.0	2.5	/experiments/AOT/AOT_stimuli/rescaled_final/0897_rv.mp4	0.0	226.02406907081604	
24	204.07390308380127	fix_post	2		12	22.0	2.5	/experiments/AOT/AOT_stimuli/rescaled_final/0897_rv.mp4	0.0	226.14236903190613	0.09988784790039062
25	204.17379093170166	fix_pre	0		120	23.0	2.5	/experiments/AOT/AOT_stimuli/rescaled_final/2128_fw.mp4	0.0	226.24225687980652	1.000054121017456
25	205.17384505271912	movie	1		244	23.0	2.5	/experiments/AOT/AOT_stimuli/rescaled_final/2128_fw.mp4	0.0	227.24231100082397	2.4999969005584717
25	205.55679297447205	pulse	1	t		23.0	2.5	/experiments/AOT/AOT_stimuli/rescaled_final/2128_fw.mp4	0.0	227.6252589225769	
25	207.15737104415894	pulse	1	t		23.0	2.5	/experiments/AOT/AOT_stimuli/rescaled_final/2128_fw.mp4	0.0	229.2258369922638	
25	207.6738419532776	fix_post	2		12	23.0	2.5	/experiments/AOT/AOT_stimuli/rescaled_final/2128_fw.mp4	0.0	229.74230790138245	0.10000896453857422
26	207.77385091781616	fix_pre	0		119	24.0	2.5	/experiments/AOT/AOT_stimuli/rescaled_final/1746_rv.mp4	0.0	229.84231686592102	0.9916269779205322
26	208.75744009017944	pulse	0	t		24.0	2.5	/experiments/AOT/AOT_stimuli/rescaled_final/1746_rv.mp4	0.0	230.8259060382843	
26	208.7654778957367	movie	1		246	24.0	2.5	/experiments/AOT/AOT_stimuli/rescaled_final/1746_rv.mp4	0.0	230.83394384384155	2.508369207382202
26	210.3568160533905	pulse	1	t		24.0	2.5	/experiments/AOT/AOT_stimuli/rescaled_final/1746_rv.mp4	0.0	232.42528200149536	
26	211.2738471031189	fix_post	2		12	24.0	2.5	/experiments/AOT/AOT_stimuli/rescaled_final/1746_rv.mp4	0.0	233.34231305122375	0.09953188896179199
27	211.3733789920807	fix_pre	0		120	25.0	2.5	/experiments/AOT/AOT_stimuli/rescaled_final/1601_rv.mp4	0.0	233.44184494018555	1.0005559921264648
27	211.95698404312134	pulse	0	t		25.0	2.5	/experiments/AOT/AOT_stimuli/rescaled_final/1601_rv.mp4	0.0	234.0254499912262	
27	212.37393498420715	movie	1		243	25.0	2.5	/experiments/AOT/AOT_stimuli/rescaled_final/1601_rv.mp4	0.0	234.442400932312	2.4998679161071777
27	213.55720901489258	pulse	1	t		25.0	2.5	/experiments/AOT/AOT_stimuli/rescaled_final/1601_rv.mp4	0.0	235.62567496299744	
27	214.87380290031433	fix_post	2		12	25.0	2.5	/experiments/AOT/AOT_stimuli/rescaled_final/1601_rv.mp4	0.0	236.9422688484192	0.09994912147521973
28	214.97375202178955	fix_pre	0		120	26.0	2.5	blank	1.0	237.0422179698944	1.0000910758972168
28	215.1572461128235	pulse	0	t		26.0	2.5	blank	1.0	237.22571206092834	
28	215.97384309768677	movie	1		300	26.0	2.5	blank	1.0	238.04230904579163	2.4999539852142334
28	216.75731992721558	pulse	1	t		26.0	2.5	blank	1.0	238.82578587532043	
28	218.35724210739136	pulse	1	t		26.0	2.5	blank	1.0	240.42570805549622	
28	218.473797082901	fix_post	2		12	26.0	2.5	blank	1.0	240.54226303100586	0.10003781318664551
29	218.57383489608765	fix_pre	0		120	27.0	2.5	/experiments/AOT/AOT_stimuli/rescaled_final/0378_fw.mp4	0.0	240.6423008441925	0.9999101161956787
29	219.57374501228333	movie	1		244	27.0	2.5	/experiments/AOT/AOT_stimuli/rescaled_final/0378_fw.mp4	0.0	241.64221096038818	2.5000710487365723
29	219.95724391937256	pulse	1	t		27.0	2.5	/experiments/AOT/AOT_stimuli/rescaled_final/0378_fw.mp4	0.0	242.02570986747742	
29	221.55719590187073	pulse	1	t		27.0	2.5	/experiments/AOT/AOT_stimuli/rescaled_final/0378_fw.mp4	0.0	243.6256618499756	
29	222.0738160610199	fix_post	2		12	27.0	2.5	/experiments/AOT/AOT_stimuli/rescaled_final/0378_fw.mp4	0.0	244.14228200912476	0.09993290901184082
30	222.17374897003174	fix_pre	0		119	28.0	2.5	/experiments/AOT/AOT_stimuli/rescaled_final/0432_fw.mp4	0.0	244.2422149181366	0.991642951965332
30	223.15721011161804	pulse	0	t		28.0	2.5	/experiments/AOT/AOT_stimuli/rescaled_final/0432_fw.mp4	0.0	245.2256760597229	
30	223.16539192199707	movie	1		248	28.0	2.5	/experiments/AOT/AOT_stimuli/rescaled_final/0432_fw.mp4	0.0	245.23385787010193	2.508378028869629
30	224.75828194618225	pulse	1	t		28.0	2.5	/experiments/AOT/AOT_stimuli/rescaled_final/0432_fw.mp4	0.0	246.8267478942871	
30	225.6737699508667	fix_post	2		12	28.0	2.5	/experiments/AOT/AOT_stimuli/rescaled_final/0432_fw.mp4	0.0	247.74223589897156	0.09999203681945801
31	225.77376198768616	fix_pre	0		120	29.0	2.5	/experiments/AOT/AOT_stimuli/rescaled_final/0513_fw.mp4	0.0	247.84222793579102	0.9999430179595947
31	226.35718989372253	pulse	0	t		29.0	2.5	/experiments/AOT/AOT_stimuli/rescaled_final/0513_fw.mp4	0.0	248.4256558418274	
31	226.77370500564575	movie	1		246	29.0	2.5	/experiments/AOT/AOT_stimuli/rescaled_final/0513_fw.mp4	0.0	248.8421709537506	2.4999918937683105
31	227.9573109149933	pulse	1	t		29.0	2.5	/experiments/AOT/AOT_stimuli/rescaled_final/0513_fw.mp4	0.0	250.02577686309814	
31	229.27369689941406	fix_post	2		12	29.0	2.5	/experiments/AOT/AOT_stimuli/rescaled_final/0513_fw.mp4	0.0	251.34216284751892	0.09999608993530273
32	229.37369298934937	fix_pre	0		120	30.0	2.5	/experiments/AOT/AOT_stimuli/rescaled_final/0952_fw.mp4	0.0	251.44215893745422	1.000067949295044
32	229.55727195739746	pulse	0	t		30.0	2.5	/experiments/AOT/AOT_stimuli/rescaled_final/0952_fw.mp4	0.0	251.62573790550232	
32	230.3737609386444	movie	1		247	30.0	2.5	/experiments/AOT/AOT_stimuli/rescaled_final/0952_fw.mp4	0.0	252.44222688674927	2.499964952468872
32	231.1572539806366	pulse	1	t		30.0	2.5	/experiments/AOT/AOT_stimuli/rescaled_final/0952_fw.mp4	0.0	253.22571992874146	
32	232.75719809532166	pulse	1	t		30.0	2.5	/experiments/AOT/AOT_stimuli/rescaled_final/0952_fw.mp4	0.0	254.8256640434265	
32	232.87372589111328	fix_post	2		12	30.0	2.5	/experiments/AOT/AOT_stimuli/rescaled_final/0952_fw.mp4	0.0	254.94219183921814	0.09999918937683105
33	232.9737250804901	fix_pre	0		120	31.0	2.5	/experiments/AOT/AOT_stimuli/rescaled_final/1097_rv.mp4	0.0	255.04219102859497	1.0000429153442383
33	233.97376799583435	movie	1		246	31.0	2.5	/experiments/AOT/AOT_stimuli/rescaled_final/1097_rv.mp4	0.0	256.0422339439392	2.499558925628662
33	234.35669112205505	pulse	1	t		31.0	2.5	/experiments/AOT/AOT_stimuli/rescaled_final/1097_rv.mp4	0.0	256.4251570701599	
33	235.95718693733215	pulse	1	t		31.0	2.5	/experiments/AOT/AOT_stimuli/rescaled_final/1097_rv.mp4	0.0	258.025652885437	
33	236.473326921463	fix_post	2		12	31.0	2.5	/experiments/AOT/AOT_stimuli/rescaled_final/1097_rv.mp4	0.0	258.54179286956787	0.09986209869384766
34	236.57318902015686	fix_pre	0		119	32.0	2.5	/experiments/AOT/AOT_stimuli/rescaled_final/1177_rv.mp4	0.0	258.6416549682617	0.9921619892120361
34	237.55722188949585	pulse	0	t		32.0	2.5	/experiments/AOT/AOT_stimuli/rescaled_final/1177_rv.mp4	0.0	259.6256878376007	
34	237.5653510093689	movie	1		245	32.0	2.5	/experiments/AOT/AOT_stimuli/rescaled_final/1177_rv.mp4	0.0	259.63381695747375	2.5082690715789795
34	239.15671396255493	pulse	1	t		32.0	2.5	/experiments/AOT/AOT_stimuli/rescaled_final/1177_rv.mp4	0.0	261.2251799106598	
34	240.07362008094788	fix_post	2		12	32.0	2.5	/experiments/AOT/AOT_stimuli/rescaled_final/1177_rv.mp4	0.0	262.14208602905273	0.10006093978881836
35	240.1736810207367	fix_pre	0		120	33.0	2.5	blank	1.0	262.24214696884155	0.9999220371246338
35	240.75716304779053	pulse	0	t		33.0	2.5	blank	1.0	262.8256289958954	
35	241.17360305786133	movie	1		300	33.0	2.5	blank	1.0	263.2420690059662	2.500027894973755
35	242.35714602470398	pulse	1	t		33.0	2.5	blank	1.0	264.42561197280884	
35	243.67363095283508	fix_post	2		12	33.0	2.5	blank	1.0	265.74209690093994	0.0999610424041748
36	243.77359199523926	fix_pre	0		120	34.0	2.5	/experiments/AOT/AOT_stimuli/rescaled_final/1470_rv.mp4	0.0	265.8420579433441	1.0000760555267334
36	243.95709991455078	pulse	0	t		34.0	2.5	/experiments/AOT/AOT_stimuli/rescaled_final/1470_rv.mp4	0.0	266.02556586265564	
36	244.773668050766	movie	1		245	34.0	2.5	/experiments/AOT/AOT_stimuli/rescaled_final/1470_rv.mp4	0.0	266.84213399887085	2.499924898147583
36	245.55716800689697	pulse	1	t		34.0	2.5	/experiments/AOT/AOT_stimuli/rescaled_final/1470_rv.mp4	0.0	267.62563395500183	
36	247.15568709373474	pulse	1	t		34.0	2.5	/experiments/AOT/AOT_stimuli/rescaled_final/1470_rv.mp4	0.0	269.2241530418396	
36	247.27359294891357	fix_post	2		12	34.0	2.5	/experiments/AOT/AOT_stimuli/rescaled_final/1470_rv.mp4	0.0	269.34205889701843	0.10007500648498535
37	247.37366795539856	fix_pre	0		120	35.0	2.5	/experiments/AOT/AOT_stimuli/rescaled_final/1258_rv.mp4	0.0	269.4421339035034	0.9998519420623779
37	248.37351989746094	movie	1		246	35.0	2.5	/experiments/AOT/AOT_stimuli/rescaled_final/1258_rv.mp4	0.0	270.4419858455658	2.500091075897217
37	248.7582778930664	pulse	1	t		35.0	2.5	/experiments/AOT/AOT_stimuli/rescaled_final/1258_rv.mp4	0.0	270.82674384117126	
37	250.357017993927	pulse	1	t		35.0	2.5	/experiments/AOT/AOT_stimuli/rescaled_final/1258_rv.mp4	0.0	272.42548394203186	
37	250.87361097335815	fix_post	2		12	35.0	2.5	/experiments/AOT/AOT_stimuli/rescaled_final/1258_rv.mp4	0.0	272.942076921463	0.10007095336914062
38	250.9736819267273	fix_pre	0		119	36.0	2.5	/experiments/AOT/AOT_stimuli/rescaled_final/2168_rv.mp4	0.0	273.04214787483215	0.9916260242462158
38	251.95710110664368	pulse	0	t		36.0	2.5	/experiments/AOT/AOT_stimuli/rescaled_final/2168_rv.mp4	0.0	274.02556705474854	
38	251.9653079509735	movie	1		248	36.0	2.5	/experiments/AOT/AOT_stimuli/rescaled_final/2168_rv.mp4	0.0	274.03377389907837	2.5083019733428955
38	253.5581181049347	pulse	1	t		36.0	2.5	/experiments/AOT/AOT_stimuli/rescaled_final/2168_rv.mp4	0.0	275.62658405303955	
38	254.4736099243164	fix_post	2		12	36.0	2.5	/experiments/AOT/AOT_stimuli/rescaled_final/2168_rv.mp4	0.0	276.54207587242126	0.10006213188171387
39	254.57367205619812	fix_pre	0		120	37.0	2.5	/experiments/AOT/AOT_stimuli/rescaled_final/1611_fw.mp4	0.0	276.642138004303	1.0000410079956055
39	255.15706992149353	pulse	0	t		37.0	2.5	/experiments/AOT/AOT_stimuli/rescaled_final/1611_fw.mp4	0.0	277.2255358695984	
39	255.57371306419373	movie	1		243	37.0	2.5	/experiments/AOT/AOT_stimuli/rescaled_final/1611_fw.mp4	0.0	277.6421790122986	2.4999449253082275
39	256.75718688964844	pulse	1	t		37.0	2.5	/experiments/AOT/AOT_stimuli/rescaled_final/1611_fw.mp4	0.0	278.8256528377533	
39	258.07365798950195	fix_post	2		12	37.0	2.5	/experiments/AOT/AOT_stimuli/rescaled_final/1611_fw.mp4	0.0	280.1421239376068	0.09992408752441406
40	258.17358207702637	fix_pre	0		120	38.0	2.5	/experiments/AOT/AOT_stimuli/rescaled_final/0813_rv.mp4	0.0	280.2420480251312	1.0000300407409668
40	258.35705399513245	pulse	0	t		38.0	2.5	/experiments/AOT/AOT_stimuli/rescaled_final/0813_rv.mp4	0.0	280.4255199432373	
40	259.17361211776733	movie	1		243	38.0	2.5	/experiments/AOT/AOT_stimuli/rescaled_final/0813_rv.mp4	0.0	281.2420780658722	2.49995493888855
40	259.9570460319519	pulse	1	t		38.0	2.5	/experiments/AOT/AOT_stimuli/rescaled_final/0813_rv.mp4	0.0	282.02551198005676	
40	261.55537390708923	pulse	1	t		38.0	2.5	/experiments/AOT/AOT_stimuli/rescaled_final/0813_rv.mp4	0.0	283.6238398551941	
40	261.6735670566559	fix_post	2		12	38.0	2.5	/experiments/AOT/AOT_stimuli/rescaled_final/0813_rv.mp4	0.0	283.74203300476074	0.1000058650970459
41	261.77357292175293	fix_pre	0		120	39.0	2.5	/experiments/AOT/AOT_stimuli/rescaled_final/1830_fw.mp4	0.0	283.8420388698578	1.0001111030578613
41	262.7736840248108	movie	1		243	39.0	2.5	/experiments/AOT/AOT_stimuli/rescaled_final/1830_fw.mp4	0.0	284.84214997291565	2.4998340606689453
41	263.15668511390686	pulse	1	t		39.0	2.5	/experiments/AOT/AOT_stimuli/rescaled_final/1830_fw.mp4	0.0	285.2251510620117	
41	264.7570629119873	pulse	1	t		39.0	2.5	/experiments/AOT/AOT_stimuli/rescaled_final/1830_fw.mp4	0.0	286.82552886009216	
41	265.27351808547974	fix_post	2		12	39.0	2.5	/experiments/AOT/AOT_stimuli/rescaled_final/1830_fw.mp4	0.0	287.3419840335846	0.10003995895385742
42	265.3735580444336	fix_pre	0		119	40.0	2.5	blank	1.0	287.44202399253845	0.9912409782409668
42	266.356595993042	pulse	0	t		40.0	2.5	blank	1.0	288.42506194114685	
42	266.36479902267456	movie	1		301	40.0	2.5	blank	1.0	288.4332649707794	2.508584976196289
42	267.95673990249634	pulse	1	t		40.0	2.5	blank	1.0	290.0252058506012	
42	268.87338399887085	fix_post	2		12	40.0	2.5	blank	1.0	290.9418499469757	0.09996199607849121
43	268.97334599494934	fix_pre	0		120	41.0	2.5	/experiments/AOT/AOT_stimuli/rescaled_final/0108_rv.mp4	0.0	291.0418119430542	1.0001850128173828
43	269.556932926178	pulse	0	t		41.0	2.5	/experiments/AOT/AOT_stimuli/rescaled_final/0108_rv.mp4	0.0	291.62539887428284	
43	269.9735310077667	movie	1		249	41.0	2.5	/experiments/AOT/AOT_stimuli/rescaled_final/0108_rv.mp4	0.0	292.0419969558716	2.499946117401123
43	271.15706992149353	pulse	1	t		41.0	2.5	/experiments/AOT/AOT_stimuli/rescaled_final/0108_rv.mp4	0.0	293.2255358695984	
43	272.47347712516785	fix_post	2		12	41.0	2.5	/experiments/AOT/AOT_stimuli/rescaled_final/0108_rv.mp4	0.0	294.5419430732727	0.10001993179321289
44	272.57349705696106	fix_pre	0		120	42.0	2.5	/experiments/AOT/AOT_stimuli/rescaled_final/0378_rv.mp4	0.0	294.6419630050659	1.0000059604644775
44	272.757052898407	pulse	0	t		42.0	2.5	/experiments/AOT/AOT_stimuli/rescaled_final/0378_rv.mp4	0.0	294.82551884651184	
44	273.57350301742554	movie	1		247	42.0	2.5	/experiments/AOT/AOT_stimuli/rescaled_final/0378_rv.mp4	0.0	295.6419689655304	2.499979019165039
44	274.35700702667236	pulse	1	t		42.0	2.5	/experiments/AOT/AOT_stimuli/rescaled_final/0378_rv.mp4	0.0	296.4254729747772	
44	275.9570269584656	pulse	1	t		42.0	2.5	/experiments/AOT/AOT_stimuli/rescaled_final/0378_rv.mp4	0.0	298.02549290657043	
44	276.0734820365906	fix_post	2		12	42.0	2.5	/experiments/AOT/AOT_stimuli/rescaled_final/0378_rv.mp4	0.0	298.14194798469543	0.10002398490905762
45	276.17350602149963	fix_pre	0		120	43.0	2.5	/experiments/AOT/AOT_stimuli/rescaled_final/0519_rv.mp4	0.0	298.2419719696045	0.9999470710754395
45	277.1734530925751	movie	1		245	43.0	2.5	/experiments/AOT/AOT_stimuli/rescaled_final/0519_rv.mp4	0.0	299.24191904067993	2.4999468326568604
45	277.5564811229706	pulse	1	t		43.0	2.5	/experiments/AOT/AOT_stimuli/rescaled_final/0519_rv.mp4	0.0	299.62494707107544	
45	279.15693712234497	pulse	1	t		43.0	2.5	/experiments/AOT/AOT_stimuli/rescaled_final/0519_rv.mp4	0.0	301.22540307044983	
45	279.67339992523193	fix_post	2		12	43.0	2.5	/experiments/AOT/AOT_stimuli/rescaled_final/0519_rv.mp4	0.0	301.7418658733368	0.09973812103271484
46	279.77313804626465	fix_pre	0		119	44.0	2.5	/experiments/AOT/AOT_stimuli/rescaled_final/0942_rv.mp4	0.0	301.8416039943695	0.9919538497924805
46	280.7569799423218	pulse	0	t		44.0	2.5	/experiments/AOT/AOT_stimuli/rescaled_final/0942_rv.mp4	0.0	302.82544589042664	
46	280.76509189605713	movie	1		245	44.0	2.5	/experiments/AOT/AOT_stimuli/rescaled_final/0942_rv.mp4	0.0	302.833557844162	2.5079920291900635
46	282.3583381175995	pulse	1	t		44.0	2.5	/experiments/AOT/AOT_stimuli/rescaled_final/0942_rv.mp4	0.0	304.42680406570435	
46	283.2730839252472	fix_post	2		12	44.0	2.5	/experiments/AOT/AOT_stimuli/rescaled_final/0942_rv.mp4	0.0	305.34154987335205	0.10033297538757324
47	283.37341690063477	fix_pre	0		120	45.0	2.5	/experiments/AOT/AOT_stimuli/rescaled_final/1965_rv.mp4	0.0	305.4418828487396	0.9999971389770508
47	283.95703196525574	pulse	0	t		45.0	2.5	/experiments/AOT/AOT_stimuli/rescaled_final/1965_rv.mp4	0.0	306.0254979133606	
47	284.3734140396118	movie	1		246	45.0	2.5	/experiments/AOT/AOT_stimuli/rescaled_final/1965_rv.mp4	0.0	306.4418799877167	2.4995529651641846
47	285.55691289901733	pulse	1	t		45.0	2.5	/experiments/AOT/AOT_stimuli/rescaled_final/1965_rv.mp4	0.0	307.6253788471222	
47	286.872967004776	fix_post	2		12	45.0	2.5	/experiments/AOT/AOT_stimuli/rescaled_final/1965_rv.mp4	0.0	308.94143295288086	0.10046100616455078
48	286.97342801094055	fix_pre	0		120	46.0	2.5	/experiments/AOT/AOT_stimuli/rescaled_final/1260_fw.mp4	0.0	309.0418939590454	1.0000040531158447
48	287.157026052475	pulse	0	t		46.0	2.5	/experiments/AOT/AOT_stimuli/rescaled_final/1260_fw.mp4	0.0	309.22549200057983	
48	287.9734320640564	movie	1		245	46.0	2.5	/experiments/AOT/AOT_stimuli/rescaled_final/1260_fw.mp4	0.0	310.04189801216125	2.500016927719116
48	288.75688004493713	pulse	1	t		46.0	2.5	/experiments/AOT/AOT_stimuli/rescaled_final/1260_fw.mp4	0.0	310.825345993042	
48	290.35651302337646	pulse	1	t		46.0	2.5	/experiments/AOT/AOT_stimuli/rescaled_final/1260_fw.mp4	0.0	312.4249789714813	
48	290.4734489917755	fix_post	2		12	46.0	2.5	/experiments/AOT/AOT_stimuli/rescaled_final/1260_fw.mp4	0.0	312.54191493988037	0.09966707229614258
49	290.57311606407166	fix_pre	0		120	47.0	2.5	/experiments/AOT/AOT_stimuli/rescaled_final/1350_fw.mp4	0.0	312.6415820121765	1.0002448558807373
49	291.5733609199524	movie	1		244	47.0	2.5	/experiments/AOT/AOT_stimuli/rescaled_final/1350_fw.mp4	0.0	313.64182686805725	2.5000131130218506
49	291.9568340778351	pulse	1	t		47.0	2.5	/experiments/AOT/AOT_stimuli/rescaled_final/1350_fw.mp4	0.0	314.02530002593994	
49	293.55711793899536	pulse	1	t		47.0	2.5	/experiments/AOT/AOT_stimuli/rescaled_final/1350_fw.mp4	0.0	315.6255838871002	
49	294.07337403297424	fix_post	2		12	47.0	2.5	/experiments/AOT/AOT_stimuli/rescaled_final/1350_fw.mp4	0.0	316.1418399810791	0.09999299049377441
50	294.173367023468	fix_pre	0		119	48.0	2.5	/experiments/AOT/AOT_stimuli/rescaled_final/0186_fw.mp4	0.0	316.2418329715729	0.9916379451751709
50	295.15688610076904	pulse	0	t		48.0	2.5	/experiments/AOT/AOT_stimuli/rescaled_final/0186_fw.mp4	0.0	317.2253520488739	
50	295.1650049686432	movie	1		245	48.0	2.5	/experiments/AOT/AOT_stimuli/rescaled_final/0186_fw.mp4	0.0	317.23347091674805	2.5084049701690674
50	296.7571530342102	pulse	1	t		48.0	2.5	/experiments/AOT/AOT_stimuli/rescaled_final/0186_fw.mp4	0.0	318.82561898231506	
50	297.67340993881226	fix_post	2		12	48.0	2.5	/experiments/AOT/AOT_stimuli/rescaled_final/0186_fw.mp4	0.0	319.7418758869171	0.09993314743041992
51	297.7733430862427	fix_pre	0		120	49.0	2.5	blank	1.0	319.84180903434753	1.00003981590271
51	298.35675501823425	pulse	0	t		49.0	2.5	blank	1.0	320.4252209663391	
51	298.7733829021454	movie	1		300	49.0	2.5	blank	1.0	320.84184885025024	2.49992299079895
51	299.95692205429077	pulse	1	t		49.0	2.5	blank	1.0	322.02538800239563	
51	301.27330589294434	fix_post	2		12	49.0	2.5	blank	1.0	323.3417718410492	0.09999918937683105
52	301.37330508232117	fix_pre	0		120	50.0	2.5	/experiments/AOT/AOT_stimuli/rescaled_final/1169_fw.mp4	0.0	323.441771030426	1.000046968460083
52	301.5568869113922	pulse	0	t		50.0	2.5	/experiments/AOT/AOT_stimuli/rescaled_final/1169_fw.mp4	0.0	323.62535285949707	
52	302.37335205078125	movie	1		245	50.0	2.5	/experiments/AOT/AOT_stimuli/rescaled_final/1169_fw.mp4	0.0	324.4418179988861	2.5000388622283936
52	303.1568400859833	pulse	1	t		50.0	2.5	/experiments/AOT/AOT_stimuli/rescaled_final/1169_fw.mp4	0.0	325.22530603408813	
52	304.7550859451294	pulse	1	t		50.0	2.5	/experiments/AOT/AOT_stimuli/rescaled_final/1169_fw.mp4	0.0	326.82355189323425	
52	304.87339091300964	fix_post	2		12	50.0	2.5	/experiments/AOT/AOT_stimuli/rescaled_final/1169_fw.mp4	0.0	326.9418568611145	0.09993314743041992
53	304.97332406044006	fix_pre	0		120	51.0	2.5	/experiments/AOT/AOT_stimuli/rescaled_final/1725_fw.mp4	0.0	327.0417900085449	1.0000269412994385
53	305.9733510017395	movie	1		245	51.0	2.5	/experiments/AOT/AOT_stimuli/rescaled_final/1725_fw.mp4	0.0	328.04181694984436	2.4995510578155518
53	306.356360912323	pulse	1	t		51.0	2.5	/experiments/AOT/AOT_stimuli/rescaled_final/1725_fw.mp4	0.0	328.42482686042786	
53	307.9568600654602	pulse	1	t		51.0	2.5	/experiments/AOT/AOT_stimuli/rescaled_final/1725_fw.mp4	0.0	330.02532601356506	
53	308.47290205955505	fix_post	2		12	51.0	2.5	/experiments/AOT/AOT_stimuli/rescaled_final/1725_fw.mp4	0.0	330.5413680076599	0.10044693946838379
54	308.57334899902344	fix_pre	0		119	52.0	2.5	/experiments/AOT/AOT_stimuli/rescaled_final/0602_fw.mp4	0.0	330.6418149471283	0.9916369915008545
54	309.55678510665894	pulse	0	t		52.0	2.5	/experiments/AOT/AOT_stimuli/rescaled_final/0602_fw.mp4	0.0	331.6252510547638	
54	309.5649859905243	movie	1		245	52.0	2.5	/experiments/AOT/AOT_stimuli/rescaled_final/0602_fw.mp4	0.0	331.63345193862915	2.508270025253296
54	311.15633392333984	pulse	1	t		52.0	2.5	/experiments/AOT/AOT_stimuli/rescaled_final/0602_fw.mp4	0.0	333.2247998714447	
54	312.0732560157776	fix_post	2		12	52.0	2.5	/experiments/AOT/AOT_stimuli/rescaled_final/0602_fw.mp4	0.0	334.14172196388245	0.10008502006530762
55	312.1733410358429	fix_pre	0		120	53.0	2.5	/experiments/AOT/AOT_stimuli/rescaled_final/1708_fw.mp4	0.0	334.24180698394775	1.0000090599060059
55	312.75677704811096	pulse	0	t		53.0	2.5	/experiments/AOT/AOT_stimuli/rescaled_final/1708_fw.mp4	0.0	334.8252429962158	
55	313.1733500957489	movie	1		244	53.0	2.5	/experiments/AOT/AOT_stimuli/rescaled_final/1708_fw.mp4	0.0	335.24181604385376	2.5000438690185547
55	314.35689902305603	pulse	1	t		53.0	2.5	/experiments/AOT/AOT_stimuli/rescaled_final/1708_fw.mp4	0.0	336.4253649711609	
55	315.67339396476746	fix_post	2		12	53.0	2.5	/experiments/AOT/AOT_stimuli/rescaled_final/1708_fw.mp4	0.0	337.7418599128723	0.09985709190368652
56	315.77325105667114	fix_pre	0		120	54.0	2.5	/experiments/AOT/AOT_stimuli/rescaled_final/0281_fw.mp4	0.0	337.841717004776	0.9996049404144287
56	315.9567449092865	pulse	0	t		54.0	2.5	/experiments/AOT/AOT_stimuli/rescaled_final/0281_fw.mp4	0.0	338.02521085739136	
56	316.77285599708557	movie	1		244	54.0	2.5	/experiments/AOT/AOT_stimuli/rescaled_final/0281_fw.mp4	0.0	338.84132194519043	2.5004329681396484
56	317.55669689178467	pulse	1	t		54.0	2.5	/experiments/AOT/AOT_stimuli/rescaled_final/0281_fw.mp4	0.0	339.6251628398895	
56	319.15525698661804	pulse	1	t		54.0	2.5	/experiments/AOT/AOT_stimuli/rescaled_final/0281_fw.mp4	0.0	341.2237229347229	
56	319.2732889652252	fix_post	2		12	54.0	2.5	/experiments/AOT/AOT_stimuli/rescaled_final/0281_fw.mp4	0.0	341.3417549133301	0.09995508193969727
57	319.3732440471649	fix_pre	0		120	55.0	2.5	blank	1.0	341.4417099952698	1.0000529289245605
57	320.3732969760895	movie	1		300	55.0	2.5	blank	1.0	342.44176292419434	2.4999959468841553
57	320.7566759586334	pulse	1	t		55.0	2.5	blank	1.0	342.8251419067383	
57	322.35624504089355	pulse	1	t		55.0	2.5	blank	1.0	344.4247109889984	
57	322.87329292297363	fix_post	2		12	55.0	2.5	blank	1.0	344.9417588710785	0.09996509552001953
58	322.97325801849365	fix_pre	0		119	56.0	2.5	/experiments/AOT/AOT_stimuli/rescaled_final/1010_rv.mp4	0.0	345.0417239665985	0.9917778968811035
58	323.9568250179291	pulse	0	t		56.0	2.5	/experiments/AOT/AOT_stimuli/rescaled_final/1010_rv.mp4	0.0	346.02529096603394	
58	323.96503591537476	movie	1		244	56.0	2.5	/experiments/AOT/AOT_stimuli/rescaled_final/1010_rv.mp4	0.0	346.0335018634796	2.507810115814209
58	325.5563449859619	pulse	1	t		56.0	2.5	/experiments/AOT/AOT_stimuli/rescaled_final/1010_rv.mp4	0.0	347.6248109340668	
58	326.47284603118896	fix_post	2		12	56.0	2.5	/experiments/AOT/AOT_stimuli/rescaled_final/1010_rv.mp4	0.0	348.5413119792938	0.10047292709350586
59	326.57331895828247	fix_pre	0		120	57.0	2.5	/experiments/AOT/AOT_stimuli/rescaled_final/0154_fw.mp4	0.0	348.64178490638733	0.9999489784240723
59	327.1567199230194	pulse	0	t		57.0	2.5	/experiments/AOT/AOT_stimuli/rescaled_final/0154_fw.mp4	0.0	349.22518587112427	
59	327.57326793670654	movie	1		245	57.0	2.5	/experiments/AOT/AOT_stimuli/rescaled_final/0154_fw.mp4	0.0	349.6417338848114	2.5000109672546387
59	328.7567059993744	pulse	1	t		57.0	2.5	/experiments/AOT/AOT_stimuli/rescaled_final/0154_fw.mp4	0.0	350.82517194747925	
59	330.0732789039612	fix_post	2		12	57.0	2.5	/experiments/AOT/AOT_stimuli/rescaled_final/0154_fw.mp4	0.0	352.14174485206604	0.09992504119873047
60	330.1732039451599	fix_pre	0		120	58.0	2.5	/experiments/AOT/AOT_stimuli/rescaled_final/0408_fw.mp4	0.0	352.24166989326477	1.0000159740447998
60	330.3565890789032	pulse	0	t		58.0	2.5	/experiments/AOT/AOT_stimuli/rescaled_final/0408_fw.mp4	0.0	352.42505502700806	
60	331.1732199192047	movie	1		244	58.0	2.5	/experiments/AOT/AOT_stimuli/rescaled_final/0408_fw.mp4	0.0	353.24168586730957	2.4995200634002686
60	331.9566240310669	pulse	1	t		58.0	2.5	/experiments/AOT/AOT_stimuli/rescaled_final/0408_fw.mp4	0.0	354.02508997917175	
60	333.5554120540619	pulse	1	t		58.0	2.5	/experiments/AOT/AOT_stimuli/rescaled_final/0408_fw.mp4	0.0	355.62387800216675	
60	333.672739982605	fix_post	2		12	58.0	2.5	/experiments/AOT/AOT_stimuli/rescaled_final/0408_fw.mp4	0.0	355.74120593070984	0.10043907165527344
61	333.77317905426025	fix_pre	0		120	59.0	2.5	/experiments/AOT/AOT_stimuli/rescaled_final/0897_fw.mp4	0.0	355.8416450023651	1.000011920928955
61	334.7731909751892	movie	1		243	59.0	2.5	/experiments/AOT/AOT_stimuli/rescaled_final/0897_fw.mp4	0.0	356.84165692329407	2.499959945678711
61	335.1566860675812	pulse	1	t		59.0	2.5	/experiments/AOT/AOT_stimuli/rescaled_final/0897_fw.mp4	0.0	357.22515201568604	
61	336.75657892227173	pulse	1	t		59.0	2.5	/experiments/AOT/AOT_stimuli/rescaled_final/0897_fw.mp4	0.0	358.8250448703766	
61	337.2731509208679	fix_post	2		12	59.0	2.5	/experiments/AOT/AOT_stimuli/rescaled_final/0897_fw.mp4	0.0	359.3416168689728	0.09996604919433594
62	337.37311697006226	fix_pre	0		119	60.0	2.5	/experiments/AOT/AOT_stimuli/rescaled_final/1789_fw.mp4	0.0	359.4415829181671	0.991703987121582
62	338.35664796829224	pulse	0	t		60.0	2.5	/experiments/AOT/AOT_stimuli/rescaled_final/1789_fw.mp4	0.0	360.4251139163971	
62	338.36482095718384	movie	1		248	60.0	2.5	/experiments/AOT/AOT_stimuli/rescaled_final/1789_fw.mp4	0.0	360.4332869052887	2.508305072784424
62	339.9563250541687	pulse	1	t		60.0	2.5	/experiments/AOT/AOT_stimuli/rescaled_final/1789_fw.mp4	0.0	362.02479100227356	
62	340.87312602996826	fix_post	2		12	60.0	2.5	/experiments/AOT/AOT_stimuli/rescaled_final/1789_fw.mp4	0.0	362.9415919780731	0.10005903244018555
63	340.97318506240845	fix_pre	0		120	61.0	2.5	/experiments/AOT/AOT_stimuli/rescaled_final/1384_rv.mp4	0.0	363.0416510105133	0.9999449253082275
63	341.55661702156067	pulse	0	t		61.0	2.5	/experiments/AOT/AOT_stimuli/rescaled_final/1384_rv.mp4	0.0	363.6250829696655	
63	341.9731299877167	movie	1		243	61.0	2.5	/experiments/AOT/AOT_stimuli/rescaled_final/1384_rv.mp4	0.0	364.04159593582153	2.500020980834961
63	343.15674591064453	pulse	1	t		61.0	2.5	/experiments/AOT/AOT_stimuli/rescaled_final/1384_rv.mp4	0.0	365.2252118587494	
63	344.47315096855164	fix_post	2		12	61.0	2.5	/experiments/AOT/AOT_stimuli/rescaled_final/1384_rv.mp4	0.0	366.5416169166565	0.10002398490905762
64	344.5731749534607	fix_pre	0		120	62.0	2.5	blank	1.0	366.64164090156555	0.9999899864196777
64	344.7565710544586	pulse	0	t		62.0	2.5	blank	1.0	366.8250370025635	
64	345.57316493988037	movie	1		300	62.0	2.5	blank	1.0	367.64163088798523	2.4995181560516357
64	346.35661911964417	pulse	1	t		62.0	2.5	blank	1.0	368.425085067749	
64	347.9565079212189	pulse	1	t		62.0	2.5	blank	1.0	370.02497386932373	
64	348.072683095932	fix_post	2		12	62.0	2.5	blank	1.0	370.14114904403687	0.1004338264465332
65	348.17311692237854	fix_pre	0		120	63.0	2.5	/experiments/AOT/AOT_stimuli/rescaled_final/1380_fw.mp4	0.0	370.2415828704834	0.9999771118164062
65	349.17309403419495	movie	1		243	63.0	2.5	/experiments/AOT/AOT_stimuli/rescaled_final/1380_fw.mp4	0.0	371.2415599822998	2.500035047531128
65	349.55630898475647	pulse	1	t		63.0	2.5	/experiments/AOT/AOT_stimuli/rescaled_final/1380_fw.mp4	0.0	371.6247749328613	
65	351.15658497810364	pulse	1	t		63.0	2.5	/experiments/AOT/AOT_stimuli/rescaled_final/1380_fw.mp4	0.0	373.2250509262085	
65	351.6731290817261	fix_post	2		12	63.0	2.5	/experiments/AOT/AOT_stimuli/rescaled_final/1380_fw.mp4	0.0	373.74159502983093	0.09996199607849121
66	351.77309107780457	fix_pre	0		119	64.0	2.5	/experiments/AOT/AOT_stimuli/rescaled_final/2165_fw.mp4	0.0	373.8415570259094	0.9916448593139648
66	352.75659704208374	pulse	0	t		64.0	2.5	/experiments/AOT/AOT_stimuli/rescaled_final/2165_fw.mp4	0.0	374.8250629901886	
66	352.76473593711853	movie	1		244	64.0	2.5	/experiments/AOT/AOT_stimuli/rescaled_final/2165_fw.mp4	0.0	374.8332018852234	2.508352041244507
66	354.35628390312195	pulse	1	t		64.0	2.5	/experiments/AOT/AOT_stimuli/rescaled_final/2165_fw.mp4	0.0	376.4247498512268	
66	355.27308797836304	fix_post	2		12	64.0	2.5	/experiments/AOT/AOT_stimuli/rescaled_final/2165_fw.mp4	0.0	377.3415539264679	0.10005998611450195
67	355.37314796447754	fix_pre	0		120	65.0	2.5	/experiments/AOT/AOT_stimuli/rescaled_final/1966_fw.mp4	0.0	377.4416139125824	0.9999539852142334
67	355.9565351009369	pulse	0	t		65.0	2.5	/experiments/AOT/AOT_stimuli/rescaled_final/1966_fw.mp4	0.0	378.02500104904175	
67	356.3731019496918	movie	1		243	65.0	2.5	/experiments/AOT/AOT_stimuli/rescaled_final/1966_fw.mp4	0.0	378.44156789779663	2.4999330043792725
67	357.55656599998474	pulse	1	t		65.0	2.5	/experiments/AOT/AOT_stimuli/rescaled_final/1966_fw.mp4	0.0	379.6250319480896	
67	358.87303495407104	fix_post	2		12	65.0	2.5	/experiments/AOT/AOT_stimuli/rescaled_final/1966_fw.mp4	0.0	380.9415009021759	0.09996294975280762
68	358.97299790382385	fix_pre	0		120	66.0	2.5	/experiments/AOT/AOT_stimuli/rescaled_final/1949_fw.mp4	0.0	381.0414638519287	1.0000720024108887
68	359.1565809249878	pulse	0	t		66.0	2.5	/experiments/AOT/AOT_stimuli/rescaled_final/1949_fw.mp4	0.0	381.22504687309265	
68	359.97306990623474	movie	1		244	66.0	2.5	/experiments/AOT/AOT_stimuli/rescaled_final/1949_fw.mp4	0.0	382.0415358543396	2.4999802112579346
68	360.7566440105438	pulse	1	t		66.0	2.5	/experiments/AOT/AOT_stimuli/rescaled_final/1949_fw.mp4	0.0	382.8251099586487	
68	362.3550488948822	pulse	1	t		66.0	2.5	/experiments/AOT/AOT_stimuli/rescaled_final/1949_fw.mp4	0.0	384.42351484298706	
68	362.4730501174927	fix_post	2		12	66.0	2.5	/experiments/AOT/AOT_stimuli/rescaled_final/1949_fw.mp4	0.0	384.54151606559753	0.10011792182922363
69	362.5731680393219	fix_pre	0		120	67.0	2.5	/experiments/AOT/AOT_stimuli/rescaled_final/1249_fw.mp4	0.0	384.64163398742676	0.9998888969421387
69	363.57305693626404	movie	1		245	67.0	2.5	/experiments/AOT/AOT_stimuli/rescaled_final/1249_fw.mp4	0.0	385.6415228843689	2.4999401569366455
69	363.9560830593109	pulse	1	t		67.0	2.5	/experiments/AOT/AOT_stimuli/rescaled_final/1249_fw.mp4	0.0	386.02454900741577	
69	365.5565209388733	pulse	1	t		67.0	2.5	/experiments/AOT/AOT_stimuli/rescaled_final/1249_fw.mp4	0.0	387.62498688697815	
69	366.0729970932007	fix_post	2		12	67.0	2.5	/experiments/AOT/AOT_stimuli/rescaled_final/1249_fw.mp4	0.0	388.14146304130554	0.10001802444458008
70	366.17301511764526	fix_pre	0		119	68.0	2.5	/experiments/AOT/AOT_stimuli/rescaled_final/1193_rv.mp4	0.0	388.2414810657501	0.9917559623718262
70	367.1565010547638	pulse	0	t		68.0	2.5	/experiments/AOT/AOT_stimuli/rescaled_final/1193_rv.mp4	0.0	389.22496700286865	
70	367.1647710800171	movie	1		244	68.0	2.5	/experiments/AOT/AOT_stimuli/rescaled_final/1193_rv.mp4	0.0	389.23323702812195	2.5082969665527344
70	368.7561390399933	pulse	1	t		68.0	2.5	/experiments/AOT/AOT_stimuli/rescaled_final/1193_rv.mp4	0.0	390.82460498809814	
70	369.6730680465698	fix_post	2		12	68.0	2.5	/experiments/AOT/AOT_stimuli/rescaled_final/1193_rv.mp4	0.0	391.7415339946747	0.10000801086425781
71	369.7730760574341	fix_pre	0		120	69.0	2.5	blank	1.0	391.84154200553894	0.9999229907989502
71	370.3564739227295	pulse	0	t		69.0	2.5	blank	1.0	392.42493987083435	
71	370.77299904823303	movie	1		300	69.0	2.5	blank	1.0	392.8414649963379	2.500014066696167
71	371.95642495155334	pulse	1	t		69.0	2.5	blank	1.0	394.0248908996582	
71	373.2730131149292	fix_post	2		12	69.0	2.5	blank	1.0	395.34147906303406	0.0999448299407959
72	373.37295794487	fix_pre	0		120	70.0	2.5	/experiments/AOT/AOT_stimuli/rescaled_final/0075_rv.mp4	0.0	395.44142389297485	0.9999921321868896
72	373.5563850402832	pulse	0	t		70.0	2.5	/experiments/AOT/AOT_stimuli/rescaled_final/0075_rv.mp4	0.0	395.62485098838806	
72	374.3729500770569	movie	1		244	70.0	2.5	/experiments/AOT/AOT_stimuli/rescaled_final/0075_rv.mp4	0.0	396.44141602516174	2.500074863433838
72	375.1564910411835	pulse	1	t		70.0	2.5	/experiments/AOT/AOT_stimuli/rescaled_final/0075_rv.mp4	0.0	397.22495698928833	
72	376.7550120353699	pulse	1	t		70.0	2.5	/experiments/AOT/AOT_stimuli/rescaled_final/0075_rv.mp4	0.0	398.82347798347473	
72	376.8730249404907	fix_post	2		12	70.0	2.5	/experiments/AOT/AOT_stimuli/rescaled_final/0075_rv.mp4	0.0	398.9414908885956	0.09991812705993652
73	376.97294306755066	fix_pre	0		120	71.0	2.5	/experiments/AOT/AOT_stimuli/rescaled_final/2146_fw.mp4	0.0	399.0414090156555	0.9995989799499512
73	377.9725420475006	movie	1		245	71.0	2.5	/experiments/AOT/AOT_stimuli/rescaled_final/2146_fw.mp4	0.0	400.04100799560547	2.500659942626953
73	378.3555700778961	pulse	1	t		71.0	2.5	/experiments/AOT/AOT_stimuli/rescaled_final/2146_fw.mp4	0.0	400.424036026001	
73	379.95608496665955	pulse	1	t		71.0	2.5	/experiments/AOT/AOT_stimuli/rescaled_final/2146_fw.mp4	0.0	402.0245509147644	
73	380.47320199012756	fix_post	2		12	71.0	2.5	/experiments/AOT/AOT_stimuli/rescaled_final/2146_fw.mp4	0.0	402.5416679382324	0.09962606430053711
74	380.5728280544281	fix_pre	0		119	72.0	2.5	/experiments/AOT/AOT_stimuli/rescaled_final/0123_fw.mp4	0.0	402.64129400253296	0.9917759895324707
74	381.5565071105957	pulse	0	t		72.0	2.5	/experiments/AOT/AOT_stimuli/rescaled_final/0123_fw.mp4	0.0	403.62497305870056	
74	381.56460404396057	movie	1		246	72.0	2.5	/experiments/AOT/AOT_stimuli/rescaled_final/0123_fw.mp4	0.0	403.63306999206543	2.5083930492401123
74	383.15625	pulse	1	t		72.0	2.5	/experiments/AOT/AOT_stimuli/rescaled_final/0123_fw.mp4	0.0	405.22471594810486	
74	384.0729970932007	fix_post	2		12	72.0	2.5	/experiments/AOT/AOT_stimuli/rescaled_final/0123_fw.mp4	0.0	406.14146304130554	0.09999489784240723
75	384.1729919910431	fix_pre	0		120	73.0	2.5	/experiments/AOT/AOT_stimuli/rescaled_final/0025_fw.mp4	0.0	406.24145793914795	0.9999210834503174
75	384.75653195381165	pulse	0	t		73.0	2.5	/experiments/AOT/AOT_stimuli/rescaled_final/0025_fw.mp4	0.0	406.8249979019165	
75	385.1729130744934	movie	1		246	73.0	2.5	/experiments/AOT/AOT_stimuli/rescaled_final/0025_fw.mp4	0.0	407.24137902259827	2.5000360012054443
75	386.35641598701477	pulse	1	t		73.0	2.5	/experiments/AOT/AOT_stimuli/rescaled_final/0025_fw.mp4	0.0	408.42488193511963	
75	387.67294907569885	fix_post	2		12	73.0	2.5	/experiments/AOT/AOT_stimuli/rescaled_final/0025_fw.mp4	0.0	409.7414150238037	0.09992194175720215
76	387.77287101745605	fix_pre	0		120	74.0	2.5	/experiments/AOT/AOT_stimuli/rescaled_final/1650_fw.mp4	0.0	409.8413369655609	1.0001189708709717
76	387.95634388923645	pulse	0	t		74.0	2.5	/experiments/AOT/AOT_stimuli/rescaled_final/1650_fw.mp4	0.0	410.0248098373413	
76	388.772989988327	movie	1		245	74.0	2.5	/experiments/AOT/AOT_stimuli/rescaled_final/1650_fw.mp4	0.0	410.8414559364319	2.499495029449463
76	389.5563061237335	pulse	1	t		74.0	2.5	/experiments/AOT/AOT_stimuli/rescaled_final/1650_fw.mp4	0.0	411.6247720718384	
76	391.16473507881165	pulse	1	t		74.0	2.5	/experiments/AOT/AOT_stimuli/rescaled_final/1650_fw.mp4	0.0	413.2332010269165	
76	391.2724850177765	fix_post	2		12	74.0	2.5	/experiments/AOT/AOT_stimuli/rescaled_final/1650_fw.mp4	0.0	413.34095096588135	0.10045909881591797
77	391.3729441165924	fix_pre	0		120	75.0	2.5	/experiments/AOT/AOT_stimuli/rescaled_final/0623_rv.mp4	0.0	413.44141006469727	0.9999048709869385
77	392.37284898757935	movie	1		244	75.0	2.5	/experiments/AOT/AOT_stimuli/rescaled_final/0623_rv.mp4	0.0	414.4413149356842	2.5000009536743164
77	392.755921125412	pulse	1	t		75.0	2.5	/experiments/AOT/AOT_stimuli/rescaled_final/0623_rv.mp4	0.0	414.82438707351685	
77	394.3562579154968	pulse	1	t		75.0	2.5	/experiments/AOT/AOT_stimuli/rescaled_final/0623_rv.mp4	0.0	416.4247238636017	
77	394.87284994125366	fix_post	2		12	75.0	2.5	/experiments/AOT/AOT_stimuli/rescaled_final/0623_rv.mp4	0.0	416.9413158893585	0.10003113746643066
78	394.9728810787201	fix_pre	0		119	76.0	2.5	/experiments/AOT/AOT_stimuli/rescaled_final/2053_rv.mp4	0.0	417.04134702682495	0.9916129112243652
78	395.95633912086487	pulse	0	t		76.0	2.5	/experiments/AOT/AOT_stimuli/rescaled_final/2053_rv.mp4	0.0	418.0248050689697	
78	395.96449398994446	movie	1		245	76.0	2.5	/experiments/AOT/AOT_stimuli/rescaled_final/2053_rv.mp4	0.0	418.0329599380493	2.5083320140838623
78	397.5573699474335	pulse	1	t		76.0	2.5	/experiments/AOT/AOT_stimuli/rescaled_final/2053_rv.mp4	0.0	419.62583589553833	
78	398.4728260040283	fix_post	2		12	76.0	2.5	/experiments/AOT/AOT_stimuli/rescaled_final/2053_rv.mp4	0.0	420.5412919521332	0.10002899169921875
79	398.57285499572754	fix_pre	0		120	77.0	2.5	blank	1.0	420.6413209438324	1.0000500679016113
79	399.15635895729065	pulse	0	t		77.0	2.5	blank	1.0	421.2248249053955	
79	399.57290506362915	movie	1		300	77.0	2.5	blank	1.0	421.641371011734	2.499660015106201
79	400.75637102127075	pulse	1	t		77.0	2.5	blank	1.0	422.8248369693756	
79	402.07256507873535	fix_post	2		12	77.0	2.5	blank	1.0	424.1410310268402	0.10026097297668457
80	402.17282605171204	fix_pre	0		120	78.0	2.5	/experiments/AOT/AOT_stimuli/rescaled_final/0992_rv.mp4	0.0	424.2412919998169	1.00006103515625
80	402.35636806488037	pulse	0	t		78.0	2.5	/experiments/AOT/AOT_stimuli/rescaled_final/0992_rv.mp4	0.0	424.42483401298523	
80	403.1728870868683	movie	1		246	78.0	2.5	/experiments/AOT/AOT_stimuli/rescaled_final/0992_rv.mp4	0.0	425.24135303497314	2.499884843826294
80	403.956237077713	pulse	1	t		78.0	2.5	/experiments/AOT/AOT_stimuli/rescaled_final/0992_rv.mp4	0.0	426.02470302581787	
80	405.55522203445435	pulse	1	t		78.0	2.5	/experiments/AOT/AOT_stimuli/rescaled_final/0992_rv.mp4	0.0	427.6236879825592	
80	405.6727719306946	fix_post	2		12	78.0	2.5	/experiments/AOT/AOT_stimuli/rescaled_final/0992_rv.mp4	0.0	427.74123787879944	0.10002017021179199
81	405.7727921009064	fix_pre	0		120	79.0	2.5	/experiments/AOT/AOT_stimuli/rescaled_final/1201_rv.mp4	0.0	427.84125804901123	1.0001709461212158
81	406.7729630470276	movie	1		247	79.0	2.5	/experiments/AOT/AOT_stimuli/rescaled_final/1201_rv.mp4	0.0	428.84142899513245	2.4998559951782227
81	407.1558940410614	pulse	1	t		79.0	2.5	/experiments/AOT/AOT_stimuli/rescaled_final/1201_rv.mp4	0.0	429.22435998916626	
81	408.7562680244446	pulse	1	t		79.0	2.5	/experiments/AOT/AOT_stimuli/rescaled_final/1201_rv.mp4	0.0	430.82473397254944	
81	409.2728190422058	fix_post	2		12	79.0	2.5	/experiments/AOT/AOT_stimuli/rescaled_final/1201_rv.mp4	0.0	431.34128499031067	0.10000300407409668
82	409.3728220462799	fix_pre	0		119	80.0	2.5	/experiments/AOT/AOT_stimuli/rescaled_final/2099_fw.mp4	0.0	431.44128799438477	0.9916238784790039
82	410.35621905326843	pulse	0	t		80.0	2.5	/experiments/AOT/AOT_stimuli/rescaled_final/2099_fw.mp4	0.0	432.4246850013733	
82	410.3644459247589	movie	1		246	80.0	2.5	/experiments/AOT/AOT_stimuli/rescaled_final/2099_fw.mp4	0.0	432.43291187286377	2.5079591274261475
82	411.9571089744568	pulse	1	t		80.0	2.5	/experiments/AOT/AOT_stimuli/rescaled_final/2099_fw.mp4	0.0	434.02557492256165	
82	412.87240505218506	fix_post	2		12	80.0	2.5	/experiments/AOT/AOT_stimuli/rescaled_final/2099_fw.mp4	0.0	434.9408710002899	0.10036993026733398
83	412.9727749824524	fix_pre	0		120	81.0	2.5	/experiments/AOT/AOT_stimuli/rescaled_final/1353_fw.mp4	0.0	435.04124093055725	1.0000131130218506
83	413.5563449859619	pulse	0	t		81.0	2.5	/experiments/AOT/AOT_stimuli/rescaled_final/1353_fw.mp4	0.0	435.6248109340668	
83	413.97278809547424	movie	1		245	81.0	2.5	/experiments/AOT/AOT_stimuli/rescaled_final/1353_fw.mp4	0.0	436.0412540435791	2.5000739097595215
83	415.15631794929504	pulse	1	t		81.0	2.5	/experiments/AOT/AOT_stimuli/rescaled_final/1353_fw.mp4	0.0	437.2247838973999	
83	416.47286200523376	fix_post	2		12	81.0	2.5	/experiments/AOT/AOT_stimuli/rescaled_final/1353_fw.mp4	0.0	438.5413279533386	0.09997105598449707
84	416.57283306121826	fix_pre	0		120	82.0	2.5	/experiments/AOT/AOT_stimuli/rescaled_final/0154_rv.mp4	0.0	438.6412990093231	1.0000040531158447
84	416.7562689781189	pulse	0	t		82.0	2.5	/experiments/AOT/AOT_stimuli/rescaled_final/0154_rv.mp4	0.0	438.82473492622375	
84	417.5728371143341	movie	1		245	82.0	2.5	/experiments/AOT/AOT_stimuli/rescaled_final/0154_rv.mp4	0.0	439.64130306243896	2.4999330043792725
84	418.3562390804291	pulse	1	t		82.0	2.5	/experiments/AOT/AOT_stimuli/rescaled_final/0154_rv.mp4	0.0	440.42470502853394	
84	419.95583510398865	pulse	1	t		82.0	2.5	/experiments/AOT/AOT_stimuli/rescaled_final/0154_rv.mp4	0.0	442.0243010520935	
84	420.0727701187134	fix_post	2		12	82.0	2.5	/experiments/AOT/AOT_stimuli/rescaled_final/0154_rv.mp4	0.0	442.14123606681824	0.10005593299865723
85	420.17282605171204	fix_pre	0		120	83.0	2.5	blank	1.0	442.2412919998169	0.9998610019683838
85	421.1726870536804	movie	1		300	83.0	2.5	blank	1.0	443.2411530017853	2.500027894973755
85	421.556165933609	pulse	1	t		83.0	2.5	blank	1.0	443.62463188171387	
85	423.156152009964	pulse	1	t		83.0	2.5	blank	1.0	445.22461795806885	
85	423.6727149486542	fix_post	2		12	83.0	2.5	blank	1.0	445.74118089675903	0.10001802444458008
87	423.77273297309875	stim	0		1716					445.8411989212036	14.300045013427734
87	424.7562310695648	pulse	0	t						446.8246970176697	
87	426.3561749458313	pulse	0	t						448.42464089393616	
87	427.95622301101685	pulse	0	t						450.0246889591217	
87	429.5562090873718	pulse	0	t						451.6246750354767	
87	431.1562659740448	pulse	0	t						453.22473192214966	
87	432.7561728954315	pulse	0	t						454.8246388435364	
87	434.3557479381561	pulse	0	t						456.424213886261	
87	435.9559860229492	pulse	0	t						458.0244519710541	
87	437.5560920238495	pulse	0	t						459.62455797195435	
