trial_nr	onset	event_type	phase	response	nr_frames	movie_index	movie_duration	movie_file	blank	onset_abs	duration
0	0.15845513343811035	stim	0		131					23.053306102752686	1.092193841934204
0	1.242401123046875	response	0	space						24.13725209236145	
1	1.2506489753723145	stim	0		9371					24.14549994468689	78.09748315811157
1	79.33724212646484	pulse	0	t						102.23209309577942	
1	79.34813213348389	stim	1		1716					102.24298310279846	14.30176591873169
1	80.93307995796204	pulse	1	t						103.82793092727661	
1	82.53301095962524	pulse	1	t						105.42786192893982	
1	84.12590098381042	pulse	1	t						107.020751953125	
1	85.72598314285278	pulse	1	t						108.62083411216736	
1	87.32611513137817	pulse	1	t						110.22096610069275	
1	88.9328601360321	pulse	1	t						111.82771110534668	
1	90.53336715698242	pulse	1	t						113.428218126297	
1	92.13335394859314	pulse	1	t						115.02820491790771	
2	93.64989805221558	fix_pre	0		11	0.0	2.5	/experiments/AOT/AOT_stimuli/rescaled_final/0369_fw.mp4	0.0	116.54474902153015	0.09159398078918457
2	93.73345613479614	pulse	0	t		0.0	2.5	/experiments/AOT/AOT_stimuli/rescaled_final/0369_fw.mp4	0.0	116.62830710411072	
2	93.74149203300476	movie	1		240	0.0	2.5	/experiments/AOT/AOT_stimuli/rescaled_final/0369_fw.mp4	0.0	116.63634300231934	2.508349895477295
2	95.33333396911621	pulse	1	t		0.0	2.5	/experiments/AOT/AOT_stimuli/rescaled_final/0369_fw.mp4	0.0	118.22818493843079	
2	96.24984192848206	fix_post	2		12	0.0	2.5	/experiments/AOT/AOT_stimuli/rescaled_final/0369_fw.mp4	0.0	119.14469289779663	0.10000801086425781
3	96.34984993934631	fix_pre	0		120	1.0	2.5	/experiments/AOT/AOT_stimuli/rescaled_final/1599_rv.mp4	0.0	119.24470090866089	1.000035047531128
3	96.9333610534668	pulse	0	t		1.0	2.5	/experiments/AOT/AOT_stimuli/rescaled_final/1599_rv.mp4	0.0	119.82821202278137	
3	97.34988498687744	movie	1		243	1.0	2.5	/experiments/AOT/AOT_stimuli/rescaled_final/1599_rv.mp4	0.0	120.24473595619202	2.499994993209839
3	98.53298807144165	pulse	1	t		1.0	2.5	/experiments/AOT/AOT_stimuli/rescaled_final/1599_rv.mp4	0.0	121.42783904075623	
3	99.84987998008728	fix_post	2		12	1.0	2.5	/experiments/AOT/AOT_stimuli/rescaled_final/1599_rv.mp4	0.0	122.74473094940186	0.0999760627746582
4	99.94985604286194	fix_pre	0		120	2.0	2.5	/experiments/AOT/AOT_stimuli/rescaled_final/0923_rv.mp4	0.0	122.84470701217651	0.999535083770752
4	100.12599015235901	pulse	0	t		2.0	2.5	/experiments/AOT/AOT_stimuli/rescaled_final/0923_rv.mp4	0.0	123.02084112167358	
4	100.94939112663269	movie	1		242	2.0	2.5	/experiments/AOT/AOT_stimuli/rescaled_final/0923_rv.mp4	0.0	123.84424209594727	2.500386953353882
4	101.72650098800659	pulse	1	t		2.0	2.5	/experiments/AOT/AOT_stimuli/rescaled_final/0923_rv.mp4	0.0	124.62135195732117	
4	103.33176493644714	pulse	1	t		2.0	2.5	/experiments/AOT/AOT_stimuli/rescaled_final/0923_rv.mp4	0.0	126.22661590576172	
4	103.44977807998657	fix_post	2		12	2.0	2.5	/experiments/AOT/AOT_stimuli/rescaled_final/0923_rv.mp4	0.0	126.34462904930115	0.10021686553955078
5	103.54999494552612	fix_pre	0		120	3.0	2.5	/experiments/AOT/AOT_stimuli/rescaled_final/1963_fw.mp4	0.0	126.4448459148407	0.9998030662536621
5	104.54979801177979	movie	1		243	3.0	2.5	/experiments/AOT/AOT_stimuli/rescaled_final/1963_fw.mp4	0.0	127.44464898109436	2.5000219345092773
5	104.9322259426117	pulse	1	t		3.0	2.5	/experiments/AOT/AOT_stimuli/rescaled_final/1963_fw.mp4	0.0	127.82707691192627	
5	106.53282308578491	pulse	1	t		3.0	2.5	/experiments/AOT/AOT_stimuli/rescaled_final/1963_fw.mp4	0.0	129.4276740550995	
5	107.04981994628906	fix_post	2		12	3.0	2.5	/experiments/AOT/AOT_stimuli/rescaled_final/1963_fw.mp4	0.0	129.94467091560364	0.09948205947875977
6	107.14930200576782	fix_pre	0		119	4.0	2.5	/experiments/AOT/AOT_stimuli/rescaled_final/1400_rv.mp4	0.0	130.0441529750824	0.992224931716919
6	108.13329815864563	pulse	0	t		4.0	2.5	/experiments/AOT/AOT_stimuli/rescaled_final/1400_rv.mp4	0.0	131.0281491279602	
6	108.14152693748474	movie	1		245	4.0	2.5	/experiments/AOT/AOT_stimuli/rescaled_final/1400_rv.mp4	0.0	131.03637790679932	2.5083141326904297
6	109.73332715034485	pulse	1	t		4.0	2.5	/experiments/AOT/AOT_stimuli/rescaled_final/1400_rv.mp4	0.0	132.62817811965942	
6	110.64984107017517	fix_post	2		12	4.0	2.5	/experiments/AOT/AOT_stimuli/rescaled_final/1400_rv.mp4	0.0	133.54469203948975	0.10003399848937988
7	110.74987506866455	fix_pre	0		120	5.0	2.5	/experiments/AOT/AOT_stimuli/rescaled_final/1511_fw.mp4	0.0	133.64472603797913	1.0000090599060059
7	111.33329701423645	pulse	0	t		5.0	2.5	/experiments/AOT/AOT_stimuli/rescaled_final/1511_fw.mp4	0.0	134.22814798355103	
7	111.74988412857056	movie	1		244	5.0	2.5	/experiments/AOT/AOT_stimuli/rescaled_final/1511_fw.mp4	0.0	134.64473509788513	2.4999189376831055
7	112.93352007865906	pulse	1	t		5.0	2.5	/experiments/AOT/AOT_stimuli/rescaled_final/1511_fw.mp4	0.0	135.82837104797363	
7	114.24980306625366	fix_post	2		12	5.0	2.5	/experiments/AOT/AOT_stimuli/rescaled_final/1511_fw.mp4	0.0	137.14465403556824	0.10000801086425781
8	114.34981107711792	fix_pre	0		120	6.0	2.5	/experiments/AOT/AOT_stimuli/rescaled_final/1335_rv.mp4	0.0	137.2446620464325	0.9995958805084229
8	114.53283095359802	pulse	0	t		6.0	2.5	/experiments/AOT/AOT_stimuli/rescaled_final/1335_rv.mp4	0.0	137.4276819229126	
8	115.34940695762634	movie	1		242	6.0	2.5	/experiments/AOT/AOT_stimuli/rescaled_final/1335_rv.mp4	0.0	138.24425792694092	2.500246047973633
8	116.13280296325684	pulse	1	t		6.0	2.5	/experiments/AOT/AOT_stimuli/rescaled_final/1335_rv.mp4	0.0	139.0276539325714	
8	117.73191094398499	pulse	1	t		6.0	2.5	/experiments/AOT/AOT_stimuli/rescaled_final/1335_rv.mp4	0.0	140.62676191329956	
8	117.84965300559998	fix_post	2		12	6.0	2.5	/experiments/AOT/AOT_stimuli/rescaled_final/1335_rv.mp4	0.0	140.74450397491455	0.10000896453857422
9	117.94966197013855	fix_pre	0		120	7.0	2.5	blank	1.0	140.84451293945312	1.0000481605529785
9	118.94971013069153	movie	1		300	7.0	2.5	blank	1.0	141.8445611000061	2.4997658729553223
9	119.32587695121765	pulse	1	t		7.0	2.5	blank	1.0	142.22072792053223	
9	120.93294405937195	pulse	1	t		7.0	2.5	blank	1.0	143.82779502868652	
9	121.44947600364685	fix_post	2		12	7.0	2.5	blank	1.0	144.34432697296143	0.09993505477905273
10	121.5494110584259	fix_pre	0		119	8.0	2.5	/experiments/AOT/AOT_stimuli/rescaled_final/0826_rv.mp4	0.0	144.44426202774048	0.9917609691619873
10	122.53286409378052	pulse	0	t		8.0	2.5	/experiments/AOT/AOT_stimuli/rescaled_final/0826_rv.mp4	0.0	145.4277150630951	
10	122.54117202758789	movie	1		245	8.0	2.5	/experiments/AOT/AOT_stimuli/rescaled_final/0826_rv.mp4	0.0	145.43602299690247	2.5085020065307617
10	124.13410711288452	pulse	1	t		8.0	2.5	/experiments/AOT/AOT_stimuli/rescaled_final/0826_rv.mp4	0.0	147.0289580821991	
10	125.04967403411865	fix_post	2		12	8.0	2.5	/experiments/AOT/AOT_stimuli/rescaled_final/0826_rv.mp4	0.0	147.94452500343323	0.10010099411010742
11	125.14977502822876	fix_pre	0		120	9.0	2.5	/experiments/AOT/AOT_stimuli/rescaled_final/1229_fw.mp4	0.0	148.04462599754333	0.9995970726013184
11	125.73321199417114	pulse	0	t		9.0	2.5	/experiments/AOT/AOT_stimuli/rescaled_final/1229_fw.mp4	0.0	148.62806296348572	
11	126.14937210083008	movie	1		245	9.0	2.5	/experiments/AOT/AOT_stimuli/rescaled_final/1229_fw.mp4	0.0	149.04422307014465	2.5002849102020264
11	127.33292412757874	pulse	1	t		9.0	2.5	/experiments/AOT/AOT_stimuli/rescaled_final/1229_fw.mp4	0.0	150.2277750968933	
11	128.6496570110321	fix_post	2		12	9.0	2.5	/experiments/AOT/AOT_stimuli/rescaled_final/1229_fw.mp4	0.0	151.54450798034668	0.09999799728393555
12	128.74965500831604	fix_pre	0		120	10.0	2.5	/experiments/AOT/AOT_stimuli/rescaled_final/0834_rv.mp4	0.0	151.64450597763062	0.9996421337127686
12	128.93276810646057	pulse	0	t		10.0	2.5	/experiments/AOT/AOT_stimuli/rescaled_final/0834_rv.mp4	0.0	151.82761907577515	
12	129.7492971420288	movie	1		243	10.0	2.5	/experiments/AOT/AOT_stimuli/rescaled_final/0834_rv.mp4	0.0	152.64414811134338	2.5000219345092773
12	130.53272700309753	pulse	1	t		10.0	2.5	/experiments/AOT/AOT_stimuli/rescaled_final/0834_rv.mp4	0.0	153.4275779724121	
12	132.13206601142883	pulse	1	t		10.0	2.5	/experiments/AOT/AOT_stimuli/rescaled_final/0834_rv.mp4	0.0	155.0269169807434	
12	132.2493190765381	fix_post	2		12	10.0	2.5	/experiments/AOT/AOT_stimuli/rescaled_final/0834_rv.mp4	0.0	155.14417004585266	0.10029792785644531
13	132.34961700439453	fix_pre	0		120	11.0	2.5	/experiments/AOT/AOT_stimuli/rescaled_final/1747_fw.mp4	0.0	155.2444679737091	0.9999649524688721
13	133.3495819568634	movie	1		241	11.0	2.5	/experiments/AOT/AOT_stimuli/rescaled_final/1747_fw.mp4	0.0	156.24443292617798	2.500136137008667
13	133.7325360774994	pulse	1	t		11.0	2.5	/experiments/AOT/AOT_stimuli/rescaled_final/1747_fw.mp4	0.0	156.62738704681396	
13	135.33266496658325	pulse	1	t		11.0	2.5	/experiments/AOT/AOT_stimuli/rescaled_final/1747_fw.mp4	0.0	158.22751593589783	
13	135.84971809387207	fix_post	2		12	11.0	2.5	/experiments/AOT/AOT_stimuli/rescaled_final/1747_fw.mp4	0.0	158.74456906318665	0.10003995895385742
14	135.94975805282593	fix_pre	0		119	12.0	2.5	blank	1.0	158.8446090221405	0.9916150569915771
14	136.93276000022888	pulse	0	t		12.0	2.5	blank	1.0	159.82761096954346	
14	136.9413731098175	movie	1		301	12.0	2.5	blank	1.0	159.83622407913208	2.508302927017212
14	138.53266310691833	pulse	1	t		12.0	2.5	blank	1.0	161.4275140762329	
14	139.44967603683472	fix_post	2		12	12.0	2.5	blank	1.0	162.3445270061493	0.10001492500305176
15	139.54969096183777	fix_pre	0		120	13.0	2.5	/experiments/AOT/AOT_stimuli/rescaled_final/0019_rv.mp4	0.0	162.44454193115234	1.0000929832458496
15	140.13272094726562	pulse	0	t		13.0	2.5	/experiments/AOT/AOT_stimuli/rescaled_final/0019_rv.mp4	0.0	163.0275719165802	
15	140.54978394508362	movie	1		244	13.0	2.5	/experiments/AOT/AOT_stimuli/rescaled_final/0019_rv.mp4	0.0	163.4446349143982	2.4994311332702637
15	141.73293900489807	pulse	1	t		13.0	2.5	/experiments/AOT/AOT_stimuli/rescaled_final/0019_rv.mp4	0.0	164.62778997421265	
15	143.04921507835388	fix_post	2		12	13.0	2.5	/experiments/AOT/AOT_stimuli/rescaled_final/0019_rv.mp4	0.0	165.94406604766846	0.10010385513305664
16	143.14931893348694	fix_pre	0		120	14.0	2.5	/experiments/AOT/AOT_stimuli/rescaled_final/1960_rv.mp4	0.0	166.0441699028015	0.9999101161956787
16	143.33269596099854	pulse	0	t		14.0	2.5	/experiments/AOT/AOT_stimuli/rescaled_final/1960_rv.mp4	0.0	166.2275469303131	
16	144.14922904968262	movie	1		242	14.0	2.5	/experiments/AOT/AOT_stimuli/rescaled_final/1960_rv.mp4	0.0	167.0440800189972	2.5003209114074707
16	144.93279695510864	pulse	1	t		14.0	2.5	/experiments/AOT/AOT_stimuli/rescaled_final/1960_rv.mp4	0.0	167.82764792442322	
16	146.53164911270142	pulse	1	t		14.0	2.5	/experiments/AOT/AOT_stimuli/rescaled_final/1960_rv.mp4	0.0	169.426500082016	
16	146.6495499610901	fix_post	2		12	14.0	2.5	/experiments/AOT/AOT_stimuli/rescaled_final/1960_rv.mp4	0.0	169.54440093040466	0.10004401206970215
17	146.7495939731598	fix_pre	0		120	15.0	2.5	/experiments/AOT/AOT_stimuli/rescaled_final/0252_rv.mp4	0.0	169.64444494247437	0.9999961853027344
17	147.74959015846252	movie	1		244	15.0	2.5	/experiments/AOT/AOT_stimuli/rescaled_final/0252_rv.mp4	0.0	170.6444411277771	2.4995808601379395
17	148.1345100402832	pulse	1	t		15.0	2.5	/experiments/AOT/AOT_stimuli/rescaled_final/0252_rv.mp4	0.0	171.02936100959778	
17	149.73302102088928	pulse	1	t		15.0	2.5	/experiments/AOT/AOT_stimuli/rescaled_final/0252_rv.mp4	0.0	172.62787199020386	
17	150.24917101860046	fix_post	2		12	15.0	2.5	/experiments/AOT/AOT_stimuli/rescaled_final/0252_rv.mp4	0.0	173.14402198791504	0.09991312026977539
18	150.34908413887024	fix_pre	0		119	16.0	2.5	/experiments/AOT/AOT_stimuli/rescaled_final/1596_rv.mp4	0.0	173.24393510818481	0.992149829864502
18	151.3330409526825	pulse	0	t		16.0	2.5	/experiments/AOT/AOT_stimuli/rescaled_final/1596_rv.mp4	0.0	174.22789192199707	
18	151.34123396873474	movie	1		244	16.0	2.5	/experiments/AOT/AOT_stimuli/rescaled_final/1596_rv.mp4	0.0	174.23608493804932	2.5082650184631348
18	152.9342451095581	pulse	1	t		16.0	2.5	/experiments/AOT/AOT_stimuli/rescaled_final/1596_rv.mp4	0.0	175.82909607887268	
18	153.84949898719788	fix_post	2		12	16.0	2.5	/experiments/AOT/AOT_stimuli/rescaled_final/1596_rv.mp4	0.0	176.74434995651245	0.09966897964477539
19	153.94916796684265	fix_pre	0		120	17.0	2.5	/experiments/AOT/AOT_stimuli/rescaled_final/0740_fw.mp4	0.0	176.84401893615723	1.0003759860992432
19	154.53299498558044	pulse	0	t		17.0	2.5	/experiments/AOT/AOT_stimuli/rescaled_final/0740_fw.mp4	0.0	177.42784595489502	
19	154.9495439529419	movie	1		244	17.0	2.5	/experiments/AOT/AOT_stimuli/rescaled_final/0740_fw.mp4	0.0	177.84439492225647	2.4995641708374023
19	156.13279914855957	pulse	1	t		17.0	2.5	/experiments/AOT/AOT_stimuli/rescaled_final/0740_fw.mp4	0.0	179.02765011787415	
19	157.4491081237793	fix_post	2		12	17.0	2.5	/experiments/AOT/AOT_stimuli/rescaled_final/0740_fw.mp4	0.0	180.34395909309387	0.09999990463256836
20	157.54910802841187	fix_pre	0		120	18.0	2.5	/experiments/AOT/AOT_stimuli/rescaled_final/2048_fw.mp4	0.0	180.44395899772644	0.9999709129333496
20	157.73258900642395	pulse	0	t		18.0	2.5	/experiments/AOT/AOT_stimuli/rescaled_final/2048_fw.mp4	0.0	180.62743997573853	
20	158.54907894134521	movie	1		243	18.0	2.5	/experiments/AOT/AOT_stimuli/rescaled_final/2048_fw.mp4	0.0	181.4439299106598	2.5001251697540283
20	159.3326120376587	pulse	1	t		18.0	2.5	/experiments/AOT/AOT_stimuli/rescaled_final/2048_fw.mp4	0.0	182.22746300697327	
20	160.93171095848083	pulse	1	t		18.0	2.5	/experiments/AOT/AOT_stimuli/rescaled_final/2048_fw.mp4	0.0	183.8265619277954	
20	161.04920411109924	fix_post	2		12	18.0	2.5	/experiments/AOT/AOT_stimuli/rescaled_final/2048_fw.mp4	0.0	183.94405508041382	0.09984683990478516
21	161.14905095100403	fix_pre	0		120	19.0	2.5	/experiments/AOT/AOT_stimuli/rescaled_final/0477_fw.mp4	0.0	184.0439019203186	1.0001170635223389
21	162.14916801452637	movie	1		243	19.0	2.5	/experiments/AOT/AOT_stimuli/rescaled_final/0477_fw.mp4	0.0	185.04401898384094	2.4999070167541504
21	162.53300213813782	pulse	1	t		19.0	2.5	/experiments/AOT/AOT_stimuli/rescaled_final/0477_fw.mp4	0.0	185.4278531074524	
21	164.13261795043945	pulse	1	t		19.0	2.5	/experiments/AOT/AOT_stimuli/rescaled_final/0477_fw.mp4	0.0	187.02746891975403	
21	164.64907503128052	fix_post	2		12	19.0	2.5	/experiments/AOT/AOT_stimuli/rescaled_final/0477_fw.mp4	0.0	187.5439260005951	0.10047411918640137
22	164.74954915046692	fix_pre	0		119	20.0	2.5	blank	1.0	187.6444001197815	0.9911677837371826
22	165.73303508758545	pulse	0	t		20.0	2.5	blank	1.0	188.62788605690002	
22	165.7407169342041	movie	1		301	20.0	2.5	blank	1.0	188.63556790351868	2.5092101097106934
22	167.33259201049805	pulse	1	t		20.0	2.5	blank	1.0	190.22744297981262	
22	168.2499270439148	fix_post	2		12	20.0	2.5	blank	1.0	191.14477801322937	0.0996699333190918
23	168.3495969772339	fix_pre	0		120	21.0	2.5	/experiments/AOT/AOT_stimuli/rescaled_final/1688_rv.mp4	0.0	191.24444794654846	1.0001189708709717
23	168.9331271648407	pulse	0	t		21.0	2.5	/experiments/AOT/AOT_stimuli/rescaled_final/1688_rv.mp4	0.0	191.82797813415527	
23	169.34971594810486	movie	1		243	21.0	2.5	/experiments/AOT/AOT_stimuli/rescaled_final/1688_rv.mp4	0.0	192.24456691741943	2.4994051456451416
23	170.5330629348755	pulse	1	t		21.0	2.5	/experiments/AOT/AOT_stimuli/rescaled_final/1688_rv.mp4	0.0	193.42791390419006	
23	171.84912109375	fix_post	2		12	21.0	2.5	/experiments/AOT/AOT_stimuli/rescaled_final/1688_rv.mp4	0.0	194.74397206306458	0.10031795501708984
24	171.9494390487671	fix_pre	0		120	22.0	2.5	/experiments/AOT/AOT_stimuli/rescaled_final/1834_rv.mp4	0.0	194.84429001808167	0.9999980926513672
24	172.1329460144043	pulse	0	t		22.0	2.5	/experiments/AOT/AOT_stimuli/rescaled_final/1834_rv.mp4	0.0	195.02779698371887	
24	172.94943714141846	movie	1		243	22.0	2.5	/experiments/AOT/AOT_stimuli/rescaled_final/1834_rv.mp4	0.0	195.84428811073303	2.4996018409729004
24	173.73250102996826	pulse	1	t		22.0	2.5	/experiments/AOT/AOT_stimuli/rescaled_final/1834_rv.mp4	0.0	196.62735199928284	
24	175.3313090801239	pulse	1	t		22.0	2.5	/experiments/AOT/AOT_stimuli/rescaled_final/1834_rv.mp4	0.0	198.22616004943848	
24	175.44903898239136	fix_post	2		12	22.0	2.5	/experiments/AOT/AOT_stimuli/rescaled_final/1834_rv.mp4	0.0	198.34388995170593	0.10045099258422852
25	175.5494899749756	fix_pre	0		120	23.0	2.5	/experiments/AOT/AOT_stimuli/rescaled_final/2034_fw.mp4	0.0	198.44434094429016	0.9996190071105957
25	176.54910898208618	movie	1		245	23.0	2.5	/experiments/AOT/AOT_stimuli/rescaled_final/2034_fw.mp4	0.0	199.44395995140076	2.499897003173828
25	176.93344116210938	pulse	1	t		23.0	2.5	/experiments/AOT/AOT_stimuli/rescaled_final/2034_fw.mp4	0.0	199.82829213142395	
25	178.53310108184814	pulse	1	t		23.0	2.5	/experiments/AOT/AOT_stimuli/rescaled_final/2034_fw.mp4	0.0	201.42795205116272	
25	179.04900598526	fix_post	2		12	23.0	2.5	/experiments/AOT/AOT_stimuli/rescaled_final/2034_fw.mp4	0.0	201.94385695457458	0.10008001327514648
26	179.14908599853516	fix_pre	0		119	24.0	2.5	/experiments/AOT/AOT_stimuli/rescaled_final/0962_rv.mp4	0.0	202.04393696784973	0.9919960498809814
26	180.13287210464478	pulse	0	t		24.0	2.5	/experiments/AOT/AOT_stimuli/rescaled_final/0962_rv.mp4	0.0	203.02772307395935	
26	180.14108204841614	movie	1		246	24.0	2.5	/experiments/AOT/AOT_stimuli/rescaled_final/0962_rv.mp4	0.0	203.0359330177307	2.5083580017089844
26	181.73301696777344	pulse	1	t		24.0	2.5	/experiments/AOT/AOT_stimuli/rescaled_final/0962_rv.mp4	0.0	204.627867937088	
26	182.64944005012512	fix_post	2		12	24.0	2.5	/experiments/AOT/AOT_stimuli/rescaled_final/0962_rv.mp4	0.0	205.5442910194397	0.0999898910522461
27	182.74942994117737	fix_pre	0		120	25.0	2.5	/experiments/AOT/AOT_stimuli/rescaled_final/0760_fw.mp4	0.0	205.64428091049194	0.9995551109313965
27	183.33242106437683	pulse	0	t		25.0	2.5	/experiments/AOT/AOT_stimuli/rescaled_final/0760_fw.mp4	0.0	206.2272720336914	
27	183.74898505210876	movie	1		243	25.0	2.5	/experiments/AOT/AOT_stimuli/rescaled_final/0760_fw.mp4	0.0	206.64383602142334	2.4991090297698975
27	184.9315230846405	pulse	1	t		25.0	2.5	/experiments/AOT/AOT_stimuli/rescaled_final/0760_fw.mp4	0.0	207.82637405395508	
27	186.24809408187866	fix_post	2		12	25.0	2.5	/experiments/AOT/AOT_stimuli/rescaled_final/0760_fw.mp4	0.0	209.14294505119324	0.10010886192321777
28	186.34820294380188	fix_pre	0		120	26.0	2.5	blank	1.0	209.24305391311646	1.000392198562622
28	186.53160500526428	pulse	0	t		26.0	2.5	blank	1.0	209.42645597457886	
28	187.3485951423645	movie	1		300	26.0	2.5	blank	1.0	210.24344611167908	2.49942684173584
28	188.1328580379486	pulse	1	t		26.0	2.5	blank	1.0	211.02770900726318	
28	189.73306393623352	pulse	1	t		26.0	2.5	blank	1.0	212.6279149055481	
28	189.84802198410034	fix_post	2		12	26.0	2.5	blank	1.0	212.74287295341492	0.10033106803894043
29	189.94835305213928	fix_pre	0		120	27.0	2.5	/experiments/AOT/AOT_stimuli/rescaled_final/1867_rv.mp4	0.0	212.84320402145386	1.0009820461273193
29	190.9493350982666	movie	1		244	27.0	2.5	/experiments/AOT/AOT_stimuli/rescaled_final/1867_rv.mp4	0.0	213.84418606758118	2.498731851577759
29	191.33124899864197	pulse	1	t		27.0	2.5	/experiments/AOT/AOT_stimuli/rescaled_final/1867_rv.mp4	0.0	214.22609996795654	
29	192.93155097961426	pulse	1	t		27.0	2.5	/experiments/AOT/AOT_stimuli/rescaled_final/1867_rv.mp4	0.0	215.82640194892883	
29	193.44806694984436	fix_post	2		12	27.0	2.5	/experiments/AOT/AOT_stimuli/rescaled_final/1867_rv.mp4	0.0	216.34291791915894	0.10001206398010254
30	193.54807901382446	fix_pre	0		119	28.0	2.5	/experiments/AOT/AOT_stimuli/rescaled_final/1935_fw.mp4	0.0	216.44292998313904	0.9921140670776367
30	194.5316390991211	pulse	0	t		28.0	2.5	/experiments/AOT/AOT_stimuli/rescaled_final/1935_fw.mp4	0.0	217.42649006843567	
30	194.5401930809021	movie	1		245	28.0	2.5	/experiments/AOT/AOT_stimuli/rescaled_final/1935_fw.mp4	0.0	217.43504405021667	2.508427858352661
30	196.13176894187927	pulse	1	t		28.0	2.5	/experiments/AOT/AOT_stimuli/rescaled_final/1935_fw.mp4	0.0	219.02661991119385	
30	197.04862093925476	fix_post	2		12	28.0	2.5	/experiments/AOT/AOT_stimuli/rescaled_final/1935_fw.mp4	0.0	219.94347190856934	0.09977412223815918
31	197.14839506149292	fix_pre	0		120	29.0	2.5	/experiments/AOT/AOT_stimuli/rescaled_final/1056_rv.mp4	0.0	220.0432460308075	0.9996418952941895
31	197.73188996315002	pulse	0	t		29.0	2.5	/experiments/AOT/AOT_stimuli/rescaled_final/1056_rv.mp4	0.0	220.6267409324646	
31	198.1480369567871	movie	1		242	29.0	2.5	/experiments/AOT/AOT_stimuli/rescaled_final/1056_rv.mp4	0.0	221.04288792610168	2.500418186187744
31	199.3316011428833	pulse	1	t		29.0	2.5	/experiments/AOT/AOT_stimuli/rescaled_final/1056_rv.mp4	0.0	222.22645211219788	
31	200.64845514297485	fix_post	2		12	29.0	2.5	/experiments/AOT/AOT_stimuli/rescaled_final/1056_rv.mp4	0.0	223.54330611228943	0.09959197044372559
32	200.74804711341858	fix_pre	0		120	30.0	2.5	/experiments/AOT/AOT_stimuli/rescaled_final/0139_fw.mp4	0.0	223.64289808273315	1.0000438690185547
32	200.93152809143066	pulse	0	t		30.0	2.5	/experiments/AOT/AOT_stimuli/rescaled_final/0139_fw.mp4	0.0	223.82637906074524	
32	201.74809098243713	movie	1		242	30.0	2.5	/experiments/AOT/AOT_stimuli/rescaled_final/0139_fw.mp4	0.0	224.6429419517517	2.500288963317871
32	202.53156399726868	pulse	1	t		30.0	2.5	/experiments/AOT/AOT_stimuli/rescaled_final/0139_fw.mp4	0.0	225.42641496658325	
32	204.13055205345154	pulse	1	t		30.0	2.5	/experiments/AOT/AOT_stimuli/rescaled_final/0139_fw.mp4	0.0	227.0254030227661	
32	204.248379945755	fix_post	2		12	30.0	2.5	/experiments/AOT/AOT_stimuli/rescaled_final/0139_fw.mp4	0.0	227.14323091506958	0.09960198402404785
33	204.34798192977905	fix_pre	0		120	31.0	2.5	/experiments/AOT/AOT_stimuli/rescaled_final/0908_rv.mp4	0.0	227.24283289909363	1.0000200271606445
33	205.3480019569397	movie	1		245	31.0	2.5	/experiments/AOT/AOT_stimuli/rescaled_final/0908_rv.mp4	0.0	228.24285292625427	2.4995241165161133
33	205.73082494735718	pulse	1	t		31.0	2.5	/experiments/AOT/AOT_stimuli/rescaled_final/0908_rv.mp4	0.0	228.62567591667175	
33	207.3309290409088	pulse	1	t		31.0	2.5	/experiments/AOT/AOT_stimuli/rescaled_final/0908_rv.mp4	0.0	230.2257800102234	
33	207.8475260734558	fix_post	2		12	31.0	2.5	/experiments/AOT/AOT_stimuli/rescaled_final/0908_rv.mp4	0.0	230.74237704277039	0.09996604919433594
34	207.94749212265015	fix_pre	0		119	32.0	2.5	/experiments/AOT/AOT_stimuli/rescaled_final/1764_fw.mp4	0.0	230.84234309196472	0.9925038814544678
34	208.93098211288452	pulse	0	t		32.0	2.5	/experiments/AOT/AOT_stimuli/rescaled_final/1764_fw.mp4	0.0	231.8258330821991	
34	208.93999600410461	movie	1		245	32.0	2.5	/experiments/AOT/AOT_stimuli/rescaled_final/1764_fw.mp4	0.0	231.8348469734192	2.507524013519287
34	210.5311939716339	pulse	1	t		32.0	2.5	/experiments/AOT/AOT_stimuli/rescaled_final/1764_fw.mp4	0.0	233.4260449409485	
34	211.4475200176239	fix_post	2		12	32.0	2.5	/experiments/AOT/AOT_stimuli/rescaled_final/1764_fw.mp4	0.0	234.34237098693848	0.09992098808288574
35	211.5474410057068	fix_pre	0		120	33.0	2.5	/experiments/AOT/AOT_stimuli/rescaled_final/0433_rv.mp4	0.0	234.44229197502136	1.000007152557373
35	212.13182401657104	pulse	0	t		33.0	2.5	/experiments/AOT/AOT_stimuli/rescaled_final/0433_rv.mp4	0.0	235.02667498588562	
35	212.54744815826416	movie	1		244	33.0	2.5	/experiments/AOT/AOT_stimuli/rescaled_final/0433_rv.mp4	0.0	235.44229912757874	2.500041961669922
35	213.73096108436584	pulse	1	t		33.0	2.5	/experiments/AOT/AOT_stimuli/rescaled_final/0433_rv.mp4	0.0	236.62581205368042	
35	215.04749011993408	fix_post	2		12	33.0	2.5	/experiments/AOT/AOT_stimuli/rescaled_final/0433_rv.mp4	0.0	237.94234108924866	0.10003089904785156
36	215.14752101898193	fix_pre	0		120	34.0	2.5	/experiments/AOT/AOT_stimuli/rescaled_final/2120_rv.mp4	0.0	238.0423719882965	0.9999790191650391
36	215.3309350013733	pulse	0	t		34.0	2.5	/experiments/AOT/AOT_stimuli/rescaled_final/2120_rv.mp4	0.0	238.22578597068787	
36	216.14750003814697	movie	1		243	34.0	2.5	/experiments/AOT/AOT_stimuli/rescaled_final/2120_rv.mp4	0.0	239.04235100746155	2.4999160766601562
36	216.9309160709381	pulse	1	t		34.0	2.5	/experiments/AOT/AOT_stimuli/rescaled_final/2120_rv.mp4	0.0	239.82576704025269	
36	218.5310320854187	pulse	1	t		34.0	2.5	/experiments/AOT/AOT_stimuli/rescaled_final/2120_rv.mp4	0.0	241.42588305473328	
36	218.64741611480713	fix_post	2		12	34.0	2.5	/experiments/AOT/AOT_stimuli/rescaled_final/2120_rv.mp4	0.0	241.5422670841217	0.10003304481506348
37	218.7474491596222	fix_pre	0		120	35.0	2.5	blank	1.0	241.64230012893677	1.0000028610229492
37	219.74745202064514	movie	1		300	35.0	2.5	blank	1.0	242.64230298995972	2.5000510215759277
37	220.13091206550598	pulse	1	t		35.0	2.5	blank	1.0	243.02576303482056	
37	221.73095798492432	pulse	1	t		35.0	2.5	blank	1.0	244.6258089542389	
37	222.24750304222107	fix_post	2		12	35.0	2.5	blank	1.0	245.14235401153564	0.09995698928833008
38	222.3474600315094	fix_pre	0		119	36.0	2.5	/experiments/AOT/AOT_stimuli/rescaled_final/1945_rv.mp4	0.0	245.24231100082397	0.9925479888916016
38	223.33102798461914	pulse	0	t		36.0	2.5	/experiments/AOT/AOT_stimuli/rescaled_final/1945_rv.mp4	0.0	246.22587895393372	
38	223.340008020401	movie	1		246	36.0	2.5	/experiments/AOT/AOT_stimuli/rescaled_final/1945_rv.mp4	0.0	246.23485898971558	2.508211135864258
38	224.9319839477539	pulse	1	t		36.0	2.5	/experiments/AOT/AOT_stimuli/rescaled_final/1945_rv.mp4	0.0	247.82683491706848	
38	225.84821915626526	fix_post	2		12	36.0	2.5	/experiments/AOT/AOT_stimuli/rescaled_final/1945_rv.mp4	0.0	248.74307012557983	0.09921383857727051
39	225.94743299484253	fix_pre	0		120	37.0	2.5	/experiments/AOT/AOT_stimuli/rescaled_final/0587_rv.mp4	0.0	248.8422839641571	1.0000150203704834
39	226.5310070514679	pulse	0	t		37.0	2.5	/experiments/AOT/AOT_stimuli/rescaled_final/0587_rv.mp4	0.0	249.42585802078247	
39	226.947448015213	movie	1		243	37.0	2.5	/experiments/AOT/AOT_stimuli/rescaled_final/0587_rv.mp4	0.0	249.8422989845276	2.5008130073547363
39	228.13175201416016	pulse	1	t		37.0	2.5	/experiments/AOT/AOT_stimuli/rescaled_final/0587_rv.mp4	0.0	251.02660298347473	
39	229.44826102256775	fix_post	2		12	37.0	2.5	/experiments/AOT/AOT_stimuli/rescaled_final/0587_rv.mp4	0.0	252.34311199188232	0.10024404525756836
40	229.54850506782532	fix_pre	0		120	38.0	2.5	/experiments/AOT/AOT_stimuli/rescaled_final/0257_rv.mp4	0.0	252.4433560371399	0.9989089965820312
40	229.7308599948883	pulse	0	t		38.0	2.5	/experiments/AOT/AOT_stimuli/rescaled_final/0257_rv.mp4	0.0	252.62571096420288	
40	230.54741406440735	movie	1		244	38.0	2.5	/experiments/AOT/AOT_stimuli/rescaled_final/0257_rv.mp4	0.0	253.44226503372192	2.5000200271606445
40	231.33087706565857	pulse	1	t		38.0	2.5	/experiments/AOT/AOT_stimuli/rescaled_final/0257_rv.mp4	0.0	254.22572803497314	
40	232.92959713935852	pulse	1	t		38.0	2.5	/experiments/AOT/AOT_stimuli/rescaled_final/0257_rv.mp4	0.0	255.8244481086731	
40	233.047434091568	fix_post	2		12	38.0	2.5	/experiments/AOT/AOT_stimuli/rescaled_final/0257_rv.mp4	0.0	255.94228506088257	0.09999203681945801
41	233.14742612838745	fix_pre	0		120	39.0	2.5	/experiments/AOT/AOT_stimuli/rescaled_final/1277_fw.mp4	0.0	256.042277097702	0.9999349117279053
41	234.14736104011536	movie	1		246	39.0	2.5	/experiments/AOT/AOT_stimuli/rescaled_final/1277_fw.mp4	0.0	257.04221200942993	2.5000479221343994
41	234.53211092948914	pulse	1	t		39.0	2.5	/experiments/AOT/AOT_stimuli/rescaled_final/1277_fw.mp4	0.0	257.4269618988037	
41	236.13165402412415	pulse	1	t		39.0	2.5	/experiments/AOT/AOT_stimuli/rescaled_final/1277_fw.mp4	0.0	259.0265049934387	
41	236.64740896224976	fix_post	2		12	39.0	2.5	/experiments/AOT/AOT_stimuli/rescaled_final/1277_fw.mp4	0.0	259.54225993156433	0.09998512268066406
42	236.74739408493042	fix_pre	0		119	40.0	2.5	/experiments/AOT/AOT_stimuli/rescaled_final/0128_fw.mp4	0.0	259.642245054245	0.9916300773620605
42	237.73080110549927	pulse	0	t		40.0	2.5	/experiments/AOT/AOT_stimuli/rescaled_final/0128_fw.mp4	0.0	260.62565207481384	
42	237.73902416229248	movie	1		245	40.0	2.5	/experiments/AOT/AOT_stimuli/rescaled_final/0128_fw.mp4	0.0	260.63387513160706	2.5082919597625732
42	239.33054208755493	pulse	1	t		40.0	2.5	/experiments/AOT/AOT_stimuli/rescaled_final/0128_fw.mp4	0.0	262.2253930568695	
42	240.24731612205505	fix_post	2		12	40.0	2.5	/experiments/AOT/AOT_stimuli/rescaled_final/0128_fw.mp4	0.0	263.14216709136963	0.10009002685546875
43	240.34740614891052	fix_pre	0		120	41.0	2.5	blank	1.0	263.2422571182251	0.9999489784240723
43	240.93083810806274	pulse	0	t		41.0	2.5	blank	1.0	263.8256890773773	
43	241.3473551273346	movie	1		300	41.0	2.5	blank	1.0	264.24220609664917	2.499950885772705
43	242.531662940979	pulse	1	t		41.0	2.5	blank	1.0	265.4265139102936	
43	243.8473060131073	fix_post	2		12	41.0	2.5	blank	1.0	266.7421569824219	0.10000991821289062
44	243.9473159313202	fix_pre	0		120	42.0	2.5	/experiments/AOT/AOT_stimuli/rescaled_final/1194_rv.mp4	0.0	266.84216690063477	1.0000321865081787
44	244.13081812858582	pulse	0	t		42.0	2.5	/experiments/AOT/AOT_stimuli/rescaled_final/1194_rv.mp4	0.0	267.0256690979004	
44	244.94734811782837	movie	1		246	42.0	2.5	/experiments/AOT/AOT_stimuli/rescaled_final/1194_rv.mp4	0.0	267.84219908714294	2.5000178813934326
44	245.7308371067047	pulse	1	t		42.0	2.5	/experiments/AOT/AOT_stimuli/rescaled_final/1194_rv.mp4	0.0	268.6256880760193	
44	247.331689119339	pulse	1	t		42.0	2.5	/experiments/AOT/AOT_stimuli/rescaled_final/1194_rv.mp4	0.0	270.22654008865356	
44	247.4473659992218	fix_post	2		12	42.0	2.5	/experiments/AOT/AOT_stimuli/rescaled_final/1194_rv.mp4	0.0	270.3422169685364	0.09992599487304688
45	247.54729199409485	fix_pre	0		120	43.0	2.5	/experiments/AOT/AOT_stimuli/rescaled_final/0044_fw.mp4	0.0	270.4421429634094	1.0000369548797607
45	248.5473289489746	movie	1		241	43.0	2.5	/experiments/AOT/AOT_stimuli/rescaled_final/0044_fw.mp4	0.0	271.4421799182892	2.4999279975891113
45	248.9316439628601	pulse	1	t		43.0	2.5	/experiments/AOT/AOT_stimuli/rescaled_final/0044_fw.mp4	0.0	271.8264949321747	
45	250.53164911270142	pulse	1	t		43.0	2.5	/experiments/AOT/AOT_stimuli/rescaled_final/0044_fw.mp4	0.0	273.426500082016	
45	251.04725694656372	fix_post	2		12	43.0	2.5	/experiments/AOT/AOT_stimuli/rescaled_final/0044_fw.mp4	0.0	273.9421079158783	0.10009598731994629
46	251.14735293388367	fix_pre	0		119	44.0	2.5	/experiments/AOT/AOT_stimuli/rescaled_final/0433_fw.mp4	0.0	274.04220390319824	0.9924190044403076
46	252.1316361427307	pulse	0	t		44.0	2.5	/experiments/AOT/AOT_stimuli/rescaled_final/0433_fw.mp4	0.0	275.0264871120453	
46	252.13977193832397	movie	1		244	44.0	2.5	/experiments/AOT/AOT_stimuli/rescaled_final/0433_fw.mp4	0.0	275.03462290763855	2.5092530250549316
46	253.73246312141418	pulse	1	t		44.0	2.5	/experiments/AOT/AOT_stimuli/rescaled_final/0433_fw.mp4	0.0	276.62731409072876	
46	254.6490249633789	fix_post	2		12	44.0	2.5	/experiments/AOT/AOT_stimuli/rescaled_final/0433_fw.mp4	0.0	277.5438759326935	0.09965300559997559
47	254.74867796897888	fix_pre	0		120	45.0	2.5	/experiments/AOT/AOT_stimuli/rescaled_final/0731_rv.mp4	0.0	277.64352893829346	1.0002851486206055
47	255.33216500282288	pulse	0	t		45.0	2.5	/experiments/AOT/AOT_stimuli/rescaled_final/0731_rv.mp4	0.0	278.22701597213745	
47	255.7489631175995	movie	1		244	45.0	2.5	/experiments/AOT/AOT_stimuli/rescaled_final/0731_rv.mp4	0.0	278.64381408691406	2.500032901763916
47	256.93217515945435	pulse	1	t		45.0	2.5	/experiments/AOT/AOT_stimuli/rescaled_final/0731_rv.mp4	0.0	279.8270261287689	
47	258.2489960193634	fix_post	2		12	45.0	2.5	/experiments/AOT/AOT_stimuli/rescaled_final/0731_rv.mp4	0.0	281.143846988678	0.10009312629699707
48	258.3490891456604	fix_pre	0		120	46.0	2.5	/experiments/AOT/AOT_stimuli/rescaled_final/0012_fw.mp4	0.0	281.243940114975	1.0000967979431152
48	258.5325200557709	pulse	0	t		46.0	2.5	/experiments/AOT/AOT_stimuli/rescaled_final/0012_fw.mp4	0.0	281.42737102508545	
48	259.3491859436035	movie	1		243	46.0	2.5	/experiments/AOT/AOT_stimuli/rescaled_final/0012_fw.mp4	0.0	282.2440369129181	2.499788999557495
48	260.1321301460266	pulse	1	t		46.0	2.5	/experiments/AOT/AOT_stimuli/rescaled_final/0012_fw.mp4	0.0	283.0269811153412	
48	261.72887992858887	pulse	1	t		46.0	2.5	/experiments/AOT/AOT_stimuli/rescaled_final/0012_fw.mp4	0.0	284.62373089790344	
48	261.848974943161	fix_post	2		12	46.0	2.5	/experiments/AOT/AOT_stimuli/rescaled_final/0012_fw.mp4	0.0	284.7438259124756	0.10006904602050781
49	261.9490439891815	fix_pre	0		120	47.0	2.5	/experiments/AOT/AOT_stimuli/rescaled_final/2131_fw.mp4	0.0	284.8438949584961	0.9995400905609131
49	262.94858407974243	movie	1		243	47.0	2.5	/experiments/AOT/AOT_stimuli/rescaled_final/2131_fw.mp4	0.0	285.843435049057	2.500380039215088
49	263.332337141037	pulse	1	t		47.0	2.5	/experiments/AOT/AOT_stimuli/rescaled_final/2131_fw.mp4	0.0	286.22718811035156	
49	264.93203616142273	pulse	1	t		47.0	2.5	/experiments/AOT/AOT_stimuli/rescaled_final/2131_fw.mp4	0.0	287.8268871307373	
49	265.4489641189575	fix_post	2		12	47.0	2.5	/experiments/AOT/AOT_stimuli/rescaled_final/2131_fw.mp4	0.0	288.3438150882721	0.0996088981628418
50	265.54857301712036	fix_pre	0		119	48.0	2.5	/experiments/AOT/AOT_stimuli/rescaled_final/0930_rv.mp4	0.0	288.44342398643494	0.9921181201934814
50	266.5320451259613	pulse	0	t		48.0	2.5	/experiments/AOT/AOT_stimuli/rescaled_final/0930_rv.mp4	0.0	289.4268960952759	
50	266.54069113731384	movie	1		242	48.0	2.5	/experiments/AOT/AOT_stimuli/rescaled_final/0930_rv.mp4	0.0	289.4355421066284	2.5083119869232178
50	268.13209795951843	pulse	1	t		48.0	2.5	/experiments/AOT/AOT_stimuli/rescaled_final/0930_rv.mp4	0.0	291.026948928833	
50	269.04900312423706	fix_post	2		12	48.0	2.5	/experiments/AOT/AOT_stimuli/rescaled_final/0930_rv.mp4	0.0	291.94385409355164	0.10002899169921875
51	269.1490321159363	fix_pre	0		120	49.0	2.5	blank	1.0	292.04388308525085	0.999521017074585
51	269.7320840358734	pulse	0	t		49.0	2.5	blank	1.0	292.626935005188	
51	270.14855313301086	movie	1		300	49.0	2.5	blank	1.0	293.04340410232544	2.5003437995910645
51	271.3321039676666	pulse	1	t		49.0	2.5	blank	1.0	294.2269549369812	
51	272.64889693260193	fix_post	2		12	49.0	2.5	blank	1.0	295.5437479019165	0.09963822364807129
52	272.74853515625	fix_pre	0		120	50.0	2.5	/experiments/AOT/AOT_stimuli/rescaled_final/1202_fw.mp4	0.0	295.6433861255646	0.9999868869781494
52	272.93200397491455	pulse	0	t		50.0	2.5	/experiments/AOT/AOT_stimuli/rescaled_final/1202_fw.mp4	0.0	295.8268549442291	
52	273.74852204322815	movie	1		243	50.0	2.5	/experiments/AOT/AOT_stimuli/rescaled_final/1202_fw.mp4	0.0	296.6433730125427	2.5004329681396484
52	274.5324580669403	pulse	1	t		50.0	2.5	/experiments/AOT/AOT_stimuli/rescaled_final/1202_fw.mp4	0.0	297.4273090362549	
52	276.1306691169739	pulse	1	t		50.0	2.5	/experiments/AOT/AOT_stimuli/rescaled_final/1202_fw.mp4	0.0	299.02552008628845	
52	276.2489550113678	fix_post	2		12	50.0	2.5	/experiments/AOT/AOT_stimuli/rescaled_final/1202_fw.mp4	0.0	299.1438059806824	0.09995508193969727
53	276.3489100933075	fix_pre	0		120	51.0	2.5	/experiments/AOT/AOT_stimuli/rescaled_final/1400_fw.mp4	0.0	299.24376106262207	1.0000450611114502
53	277.34895515441895	movie	1		244	51.0	2.5	/experiments/AOT/AOT_stimuli/rescaled_final/1400_fw.mp4	0.0	300.2438061237335	2.4997129440307617
53	277.73341512680054	pulse	1	t		51.0	2.5	/experiments/AOT/AOT_stimuli/rescaled_final/1400_fw.mp4	0.0	300.6282660961151	
53	279.3326120376587	pulse	1	t		51.0	2.5	/experiments/AOT/AOT_stimuli/rescaled_final/1400_fw.mp4	0.0	302.22746300697327	
53	279.8486680984497	fix_post	2		12	51.0	2.5	/experiments/AOT/AOT_stimuli/rescaled_final/1400_fw.mp4	0.0	302.7435190677643	0.09995102882385254
54	279.94861912727356	fix_pre	0		119	52.0	2.5	/experiments/AOT/AOT_stimuli/rescaled_final/1597_fw.mp4	0.0	302.84347009658813	0.9918298721313477
54	280.9322991371155	pulse	0	t		52.0	2.5	/experiments/AOT/AOT_stimuli/rescaled_final/1597_fw.mp4	0.0	303.82715010643005	
54	280.9404489994049	movie	1		243	52.0	2.5	/experiments/AOT/AOT_stimuli/rescaled_final/1597_fw.mp4	0.0	303.8352999687195	2.508089065551758
54	282.5313720703125	pulse	1	t		52.0	2.5	/experiments/AOT/AOT_stimuli/rescaled_final/1597_fw.mp4	0.0	305.4262230396271	
54	283.44853806495667	fix_post	2		12	52.0	2.5	/experiments/AOT/AOT_stimuli/rescaled_final/1597_fw.mp4	0.0	306.34338903427124	0.09999895095825195
55	283.5485370159149	fix_pre	0		120	53.0	2.5	/experiments/AOT/AOT_stimuli/rescaled_final/1633_fw.mp4	0.0	306.4433879852295	0.9990890026092529
55	284.13112807273865	pulse	0	t		53.0	2.5	/experiments/AOT/AOT_stimuli/rescaled_final/1633_fw.mp4	0.0	307.0259790420532	
55	284.54762601852417	movie	1		244	53.0	2.5	/experiments/AOT/AOT_stimuli/rescaled_final/1633_fw.mp4	0.0	307.44247698783875	2.5013320446014404
55	285.73147416114807	pulse	1	t		53.0	2.5	/experiments/AOT/AOT_stimuli/rescaled_final/1633_fw.mp4	0.0	308.62632513046265	
55	287.0489580631256	fix_post	2		12	53.0	2.5	/experiments/AOT/AOT_stimuli/rescaled_final/1633_fw.mp4	0.0	309.9438090324402	0.09992694854736328
56	287.148885011673	fix_pre	0		120	54.0	2.5	blank	1.0	310.04373598098755	0.9986441135406494
56	287.33105397224426	pulse	0	t		54.0	2.5	blank	1.0	310.22590494155884	
56	288.1475291252136	movie	1		300	54.0	2.5	blank	1.0	311.0423800945282	2.500408887863159
56	288.9323179721832	pulse	1	t		54.0	2.5	blank	1.0	311.8271689414978	
56	290.53114795684814	pulse	1	t		54.0	2.5	blank	1.0	313.4259989261627	
56	290.6479380130768	fix_post	2		12	54.0	2.5	blank	1.0	313.54278898239136	0.09966897964477539
57	290.74760699272156	fix_pre	0		120	55.0	2.5	/experiments/AOT/AOT_stimuli/rescaled_final/2054_fw.mp4	0.0	313.64245796203613	0.9999971389770508
57	291.7476041316986	movie	1		243	55.0	2.5	/experiments/AOT/AOT_stimuli/rescaled_final/2054_fw.mp4	0.0	314.6424551010132	2.4998857975006104
57	292.1308331489563	pulse	1	t		55.0	2.5	/experiments/AOT/AOT_stimuli/rescaled_final/2054_fw.mp4	0.0	315.0256841182709	
57	293.7313230037689	pulse	1	t		55.0	2.5	/experiments/AOT/AOT_stimuli/rescaled_final/2054_fw.mp4	0.0	316.6261739730835	
57	294.2474899291992	fix_post	2		12	55.0	2.5	/experiments/AOT/AOT_stimuli/rescaled_final/2054_fw.mp4	0.0	317.1423408985138	0.10004520416259766
58	294.3475351333618	fix_pre	0		119	56.0	2.5	/experiments/AOT/AOT_stimuli/rescaled_final/1277_rv.mp4	0.0	317.2423861026764	0.9916589260101318
58	295.3310179710388	pulse	0	t		56.0	2.5	/experiments/AOT/AOT_stimuli/rescaled_final/1277_rv.mp4	0.0	318.2258689403534	
58	295.33919405937195	movie	1		246	56.0	2.5	/experiments/AOT/AOT_stimuli/rescaled_final/1277_rv.mp4	0.0	318.2340450286865	2.5087649822235107
58	296.9307770729065	pulse	1	t		56.0	2.5	/experiments/AOT/AOT_stimuli/rescaled_final/1277_rv.mp4	0.0	319.82562804222107	
58	297.84795904159546	fix_post	2		12	56.0	2.5	/experiments/AOT/AOT_stimuli/rescaled_final/1277_rv.mp4	0.0	320.74281001091003	0.10010409355163574
59	297.9480631351471	fix_pre	0		120	57.0	2.5	/experiments/AOT/AOT_stimuli/rescaled_final/0760_rv.mp4	0.0	320.84291410446167	0.9994409084320068
59	298.53101205825806	pulse	0	t		57.0	2.5	/experiments/AOT/AOT_stimuli/rescaled_final/0760_rv.mp4	0.0	321.42586302757263	
59	298.9475040435791	movie	1		244	57.0	2.5	/experiments/AOT/AOT_stimuli/rescaled_final/0760_rv.mp4	0.0	321.8423550128937	2.499505043029785
59	300.13061594963074	pulse	1	t		57.0	2.5	/experiments/AOT/AOT_stimuli/rescaled_final/0760_rv.mp4	0.0	323.0254669189453	
59	301.4470090866089	fix_post	2		12	57.0	2.5	/experiments/AOT/AOT_stimuli/rescaled_final/0760_rv.mp4	0.0	324.34186005592346	0.10094404220581055
60	301.5479531288147	fix_pre	0		120	58.0	2.5	/experiments/AOT/AOT_stimuli/rescaled_final/1199_rv.mp4	0.0	324.4428040981293	0.9999499320983887
60	301.7314100265503	pulse	0	t		58.0	2.5	/experiments/AOT/AOT_stimuli/rescaled_final/1199_rv.mp4	0.0	324.62626099586487	
60	302.5479030609131	movie	1		244	58.0	2.5	/experiments/AOT/AOT_stimuli/rescaled_final/1199_rv.mp4	0.0	325.44275403022766	2.5000009536743164
60	303.3304741382599	pulse	1	t		58.0	2.5	/experiments/AOT/AOT_stimuli/rescaled_final/1199_rv.mp4	0.0	326.22532510757446	
60	304.92729806900024	pulse	1	t		58.0	2.5	/experiments/AOT/AOT_stimuli/rescaled_final/1199_rv.mp4	0.0	327.8221490383148	
60	305.0479040145874	fix_post	2		12	58.0	2.5	/experiments/AOT/AOT_stimuli/rescaled_final/1199_rv.mp4	0.0	327.942754983902	0.09990096092224121
61	305.14780497550964	fix_pre	0		120	59.0	2.5	/experiments/AOT/AOT_stimuli/rescaled_final/1440_fw.mp4	0.0	328.0426559448242	1.0000131130218506
61	306.1478180885315	movie	1		243	59.0	2.5	/experiments/AOT/AOT_stimuli/rescaled_final/1440_fw.mp4	0.0	329.04266905784607	2.4991378784179688
61	306.5312490463257	pulse	1	t		59.0	2.5	/experiments/AOT/AOT_stimuli/rescaled_final/1440_fw.mp4	0.0	329.42610001564026	
61	308.1305639743805	pulse	1	t		59.0	2.5	/experiments/AOT/AOT_stimuli/rescaled_final/1440_fw.mp4	0.0	331.02541494369507	
61	308.64695596694946	fix_post	2		12	59.0	2.5	/experiments/AOT/AOT_stimuli/rescaled_final/1440_fw.mp4	0.0	331.54180693626404	0.10089612007141113
62	308.7478520870209	fix_pre	0		119	60.0	2.5	/experiments/AOT/AOT_stimuli/rescaled_final/1817_rv.mp4	0.0	331.64270305633545	0.9913060665130615
62	309.73044896125793	pulse	0	t		60.0	2.5	/experiments/AOT/AOT_stimuli/rescaled_final/1817_rv.mp4	0.0	332.6252999305725	
62	309.73915815353394	movie	1		246	60.0	2.5	/experiments/AOT/AOT_stimuli/rescaled_final/1817_rv.mp4	0.0	332.6340091228485	2.5078399181365967
62	311.3303470611572	pulse	1	t		60.0	2.5	/experiments/AOT/AOT_stimuli/rescaled_final/1817_rv.mp4	0.0	334.2251980304718	
62	312.24699807167053	fix_post	2		12	60.0	2.5	/experiments/AOT/AOT_stimuli/rescaled_final/1817_rv.mp4	0.0	335.1418490409851	0.09997200965881348
63	312.34697008132935	fix_pre	0		120	61.0	2.5	/experiments/AOT/AOT_stimuli/rescaled_final/1411_rv.mp4	0.0	335.2418210506439	0.9999730587005615
63	312.9304139614105	pulse	0	t		61.0	2.5	/experiments/AOT/AOT_stimuli/rescaled_final/1411_rv.mp4	0.0	335.8252649307251	
63	313.3469431400299	movie	1		244	61.0	2.5	/experiments/AOT/AOT_stimuli/rescaled_final/1411_rv.mp4	0.0	336.2417941093445	2.500070810317993
63	314.5305190086365	pulse	1	t		61.0	2.5	/experiments/AOT/AOT_stimuli/rescaled_final/1411_rv.mp4	0.0	337.42536997795105	
63	315.8470139503479	fix_post	2		12	61.0	2.5	/experiments/AOT/AOT_stimuli/rescaled_final/1411_rv.mp4	0.0	338.7418649196625	0.09998607635498047
64	315.9470000267029	fix_pre	0		120	62.0	2.5	blank	1.0	338.84185099601746	0.9999890327453613
64	316.13048100471497	pulse	0	t		62.0	2.5	blank	1.0	339.02533197402954	
64	316.94698905944824	movie	1		300	62.0	2.5	blank	1.0	339.8418400287628	2.5000200271606445
64	317.73043394088745	pulse	1	t		62.0	2.5	blank	1.0	340.625284910202	
64	319.33040595054626	pulse	1	t		62.0	2.5	blank	1.0	342.22525691986084	
64	319.4470090866089	fix_post	2		12	62.0	2.5	blank	1.0	342.34186005592346	0.09992599487304688
65	319.54693508148193	fix_pre	0		120	63.0	2.5	/experiments/AOT/AOT_stimuli/rescaled_final/1472_rv.mp4	0.0	342.4417860507965	0.999945878982544
65	320.5468809604645	movie	1		246	63.0	2.5	/experiments/AOT/AOT_stimuli/rescaled_final/1472_rv.mp4	0.0	343.44173192977905	2.4999821186065674
65	320.93037509918213	pulse	1	t		63.0	2.5	/experiments/AOT/AOT_stimuli/rescaled_final/1472_rv.mp4	0.0	343.8252260684967	
65	322.5304100513458	pulse	1	t		63.0	2.5	/experiments/AOT/AOT_stimuli/rescaled_final/1472_rv.mp4	0.0	345.4252610206604	
65	323.04686307907104	fix_post	2		12	63.0	2.5	/experiments/AOT/AOT_stimuli/rescaled_final/1472_rv.mp4	0.0	345.9417140483856	0.10097408294677734
66	323.1478371620178	fix_pre	0		119	64.0	2.5	/experiments/AOT/AOT_stimuli/rescaled_final/0470_fw.mp4	0.0	346.0426881313324	0.9915468692779541
66	324.1303720474243	pulse	0	t		64.0	2.5	/experiments/AOT/AOT_stimuli/rescaled_final/0470_fw.mp4	0.0	347.0252230167389	
66	324.1393840312958	movie	1		246	64.0	2.5	/experiments/AOT/AOT_stimuli/rescaled_final/0470_fw.mp4	0.0	347.03423500061035	2.507544994354248
66	325.73058104515076	pulse	1	t		64.0	2.5	/experiments/AOT/AOT_stimuli/rescaled_final/0470_fw.mp4	0.0	348.62543201446533	
66	326.64692902565	fix_post	2		12	64.0	2.5	/experiments/AOT/AOT_stimuli/rescaled_final/0470_fw.mp4	0.0	349.5417799949646	0.09999608993530273
67	326.7469251155853	fix_pre	0		120	65.0	2.5	/experiments/AOT/AOT_stimuli/rescaled_final/1867_fw.mp4	0.0	349.6417760848999	1.0009868144989014
67	327.3303790092468	pulse	0	t		65.0	2.5	/experiments/AOT/AOT_stimuli/rescaled_final/1867_fw.mp4	0.0	350.2252299785614	
67	327.74791193008423	movie	1		245	65.0	2.5	/experiments/AOT/AOT_stimuli/rescaled_final/1867_fw.mp4	0.0	350.6427628993988	2.498948097229004
67	328.93044114112854	pulse	1	t		65.0	2.5	/experiments/AOT/AOT_stimuli/rescaled_final/1867_fw.mp4	0.0	351.8252921104431	
67	330.24686002731323	fix_post	2		12	65.0	2.5	/experiments/AOT/AOT_stimuli/rescaled_final/1867_fw.mp4	0.0	353.1417109966278	0.10011100769042969
68	330.34697103500366	fix_pre	0		120	66.0	2.5	/experiments/AOT/AOT_stimuli/rescaled_final/1812_rv.mp4	0.0	353.24182200431824	0.9999449253082275
68	330.53036308288574	pulse	0	t		66.0	2.5	/experiments/AOT/AOT_stimuli/rescaled_final/1812_rv.mp4	0.0	353.4252140522003	
68	331.3469159603119	movie	1		245	66.0	2.5	/experiments/AOT/AOT_stimuli/rescaled_final/1812_rv.mp4	0.0	354.24176692962646	2.5000200271606445
68	332.1303491592407	pulse	1	t		66.0	2.5	/experiments/AOT/AOT_stimuli/rescaled_final/1812_rv.mp4	0.0	355.0252001285553	
68	333.7291989326477	pulse	1	t		66.0	2.5	/experiments/AOT/AOT_stimuli/rescaled_final/1812_rv.mp4	0.0	356.6240499019623	
68	333.84693598747253	fix_post	2		12	66.0	2.5	/experiments/AOT/AOT_stimuli/rescaled_final/1812_rv.mp4	0.0	356.7417869567871	0.10082197189331055
69	333.94775795936584	fix_pre	0		120	67.0	2.5	/experiments/AOT/AOT_stimuli/rescaled_final/0731_fw.mp4	0.0	356.8426089286804	0.9991121292114258
69	334.94687008857727	movie	1		245	67.0	2.5	/experiments/AOT/AOT_stimuli/rescaled_final/0731_fw.mp4	0.0	357.84172105789185	2.5007710456848145
69	335.33221411705017	pulse	1	t		67.0	2.5	/experiments/AOT/AOT_stimuli/rescaled_final/0731_fw.mp4	0.0	358.22706508636475	
69	336.931489944458	pulse	1	t		67.0	2.5	/experiments/AOT/AOT_stimuli/rescaled_final/0731_fw.mp4	0.0	359.8263409137726	
69	337.4476411342621	fix_post	2		12	67.0	2.5	/experiments/AOT/AOT_stimuli/rescaled_final/0731_fw.mp4	0.0	360.34249210357666	0.09960484504699707
70	337.5472459793091	fix_pre	0		119	68.0	2.5	/experiments/AOT/AOT_stimuli/rescaled_final/0215_rv.mp4	0.0	360.44209694862366	0.9921951293945312
70	338.5312440395355	pulse	0	t		68.0	2.5	/experiments/AOT/AOT_stimuli/rescaled_final/0215_rv.mp4	0.0	361.4260950088501	
70	338.5394411087036	movie	1		245	68.0	2.5	/experiments/AOT/AOT_stimuli/rescaled_final/0215_rv.mp4	0.0	361.4342920780182	2.5082509517669678
70	340.13003301620483	pulse	1	t		68.0	2.5	/experiments/AOT/AOT_stimuli/rescaled_final/0215_rv.mp4	0.0	363.0248839855194	
70	341.0476920604706	fix_post	2		12	68.0	2.5	/experiments/AOT/AOT_stimuli/rescaled_final/0215_rv.mp4	0.0	363.94254302978516	0.09917807579040527
71	341.146870136261	fix_pre	0		120	69.0	2.5	blank	1.0	364.04172110557556	0.9999668598175049
71	341.7303421497345	pulse	0	t		69.0	2.5	blank	1.0	364.6251931190491	
71	342.1468369960785	movie	1		300	69.0	2.5	blank	1.0	365.04168796539307	2.501038074493408
71	343.3303380012512	pulse	1	t		69.0	2.5	blank	1.0	366.2251889705658	
71	344.6478750705719	fix_post	2		12	69.0	2.5	blank	1.0	367.5427260398865	0.09982895851135254
72	344.74770402908325	fix_pre	0		120	70.0	2.5	/experiments/AOT/AOT_stimuli/rescaled_final/1160_rv.mp4	0.0	367.6425549983978	0.9991390705108643
72	344.93033814430237	pulse	0	t		70.0	2.5	/experiments/AOT/AOT_stimuli/rescaled_final/1160_rv.mp4	0.0	367.82518911361694	
72	345.7468430995941	movie	1		243	70.0	2.5	/experiments/AOT/AOT_stimuli/rescaled_final/1160_rv.mp4	0.0	368.6416940689087	2.500826835632324
72	346.5311369895935	pulse	1	t		70.0	2.5	/experiments/AOT/AOT_stimuli/rescaled_final/1160_rv.mp4	0.0	369.4259879589081	
72	348.12886810302734	pulse	1	t		70.0	2.5	/experiments/AOT/AOT_stimuli/rescaled_final/1160_rv.mp4	0.0	371.0237190723419	
72	348.24766993522644	fix_post	2		12	70.0	2.5	/experiments/AOT/AOT_stimuli/rescaled_final/1160_rv.mp4	0.0	371.142520904541	0.09994006156921387
73	348.34760999679565	fix_pre	0		120	71.0	2.5	/experiments/AOT/AOT_stimuli/rescaled_final/1511_rv.mp4	0.0	371.24246096611023	0.9991800785064697
73	349.3467900753021	movie	1		243	71.0	2.5	/experiments/AOT/AOT_stimuli/rescaled_final/1511_rv.mp4	0.0	372.2416410446167	2.5013480186462402
73	349.73113203048706	pulse	1	t		71.0	2.5	/experiments/AOT/AOT_stimuli/rescaled_final/1511_rv.mp4	0.0	372.62598299980164	
73	351.33169507980347	pulse	1	t		71.0	2.5	/experiments/AOT/AOT_stimuli/rescaled_final/1511_rv.mp4	0.0	374.22654604911804	
73	351.84813809394836	fix_post	2		12	71.0	2.5	/experiments/AOT/AOT_stimuli/rescaled_final/1511_rv.mp4	0.0	374.74298906326294	0.10039997100830078
74	351.94853806495667	fix_pre	0		119	72.0	2.5	/experiments/AOT/AOT_stimuli/rescaled_final/0718_fw.mp4	0.0	374.84338903427124	0.991779088973999
74	352.9321620464325	pulse	0	t		72.0	2.5	/experiments/AOT/AOT_stimuli/rescaled_final/0718_fw.mp4	0.0	375.82701301574707	
74	352.94031715393066	movie	1		244	72.0	2.5	/experiments/AOT/AOT_stimuli/rescaled_final/0718_fw.mp4	0.0	375.83516812324524	2.5082459449768066
74	354.5316741466522	pulse	1	t		72.0	2.5	/experiments/AOT/AOT_stimuli/rescaled_final/0718_fw.mp4	0.0	377.4265251159668	
74	355.44856309890747	fix_post	2		12	72.0	2.5	/experiments/AOT/AOT_stimuli/rescaled_final/0718_fw.mp4	0.0	378.34341406822205	0.09996390342712402
75	355.5485270023346	fix_pre	0		120	73.0	2.5	/experiments/AOT/AOT_stimuli/rescaled_final/0851_fw.mp4	0.0	378.44337797164917	0.9995689392089844
75	356.13163709640503	pulse	0	t		73.0	2.5	/experiments/AOT/AOT_stimuli/rescaled_final/0851_fw.mp4	0.0	379.0264880657196	
75	356.5480959415436	movie	1		242	73.0	2.5	/experiments/AOT/AOT_stimuli/rescaled_final/0851_fw.mp4	0.0	379.44294691085815	2.5000081062316895
75	357.7321410179138	pulse	1	t		73.0	2.5	/experiments/AOT/AOT_stimuli/rescaled_final/0851_fw.mp4	0.0	380.6269919872284	
75	359.04810404777527	fix_post	2		12	73.0	2.5	/experiments/AOT/AOT_stimuli/rescaled_final/0851_fw.mp4	0.0	381.94295501708984	0.10046005249023438
76	359.1485641002655	fix_pre	0		120	74.0	2.5	/experiments/AOT/AOT_stimuli/rescaled_final/0183_fw.mp4	0.0	382.0434150695801	0.9994900226593018
76	359.33202600479126	pulse	0	t		74.0	2.5	/experiments/AOT/AOT_stimuli/rescaled_final/0183_fw.mp4	0.0	382.22687697410583	
76	360.1480541229248	movie	1		241	74.0	2.5	/experiments/AOT/AOT_stimuli/rescaled_final/0183_fw.mp4	0.0	383.0429050922394	2.5000758171081543
76	360.9315700531006	pulse	1	t		74.0	2.5	/experiments/AOT/AOT_stimuli/rescaled_final/0183_fw.mp4	0.0	383.82642102241516	
76	362.5309679508209	pulse	1	t		74.0	2.5	/experiments/AOT/AOT_stimuli/rescaled_final/0183_fw.mp4	0.0	385.4258189201355	
76	362.64812994003296	fix_post	2		12	74.0	2.5	/experiments/AOT/AOT_stimuli/rescaled_final/0183_fw.mp4	0.0	385.54298090934753	0.10047721862792969
77	362.7486071586609	fix_pre	0		120	75.0	2.5	/experiments/AOT/AOT_stimuli/rescaled_final/2048_rv.mp4	0.0	385.64345812797546	1.000074863433838
77	363.7486820220947	movie	1		243	75.0	2.5	/experiments/AOT/AOT_stimuli/rescaled_final/2048_rv.mp4	0.0	386.6435329914093	2.499366044998169
77	364.13348293304443	pulse	1	t		75.0	2.5	/experiments/AOT/AOT_stimuli/rescaled_final/2048_rv.mp4	0.0	387.028333902359	
77	365.7316150665283	pulse	1	t		75.0	2.5	/experiments/AOT/AOT_stimuli/rescaled_final/2048_rv.mp4	0.0	388.6264660358429	
77	366.2480480670929	fix_post	2		12	75.0	2.5	/experiments/AOT/AOT_stimuli/rescaled_final/2048_rv.mp4	0.0	389.14289903640747	0.10039401054382324
78	366.3484420776367	fix_pre	0		119	76.0	2.5	blank	1.0	389.2432930469513	0.9913339614868164
78	367.3315279483795	pulse	0	t		76.0	2.5	blank	1.0	390.2263789176941	
78	367.33977603912354	movie	1		301	76.0	2.5	blank	1.0	390.2346270084381	2.508305072784424
78	368.9315140247345	pulse	1	t		76.0	2.5	blank	1.0	391.8263649940491	
78	369.84808111190796	fix_post	2		12	76.0	2.5	blank	1.0	392.74293208122253	0.10037398338317871
79	369.94845509529114	fix_pre	0		120	77.0	2.5	/experiments/AOT/AOT_stimuli/rescaled_final/1973_fw.mp4	0.0	392.8433060646057	0.999600887298584
79	370.53191804885864	pulse	0	t		77.0	2.5	/experiments/AOT/AOT_stimuli/rescaled_final/1973_fw.mp4	0.0	393.4267690181732	
79	370.9480559825897	movie	1		243	77.0	2.5	/experiments/AOT/AOT_stimuli/rescaled_final/1973_fw.mp4	0.0	393.8429069519043	2.4999260902404785
79	372.1319200992584	pulse	1	t		77.0	2.5	/experiments/AOT/AOT_stimuli/rescaled_final/1973_fw.mp4	0.0	395.026771068573	
79	373.4479820728302	fix_post	2		12	77.0	2.5	/experiments/AOT/AOT_stimuli/rescaled_final/1973_fw.mp4	0.0	396.3428330421448	0.10051298141479492
80	373.548495054245	fix_pre	0		120	78.0	2.5	/experiments/AOT/AOT_stimuli/rescaled_final/0923_rv.mp4	0.0	396.44334602355957	1.000011920928955
80	373.7314691543579	pulse	0	t		78.0	2.5	/experiments/AOT/AOT_stimuli/rescaled_final/0923_rv.mp4	0.0	396.6263201236725	
80	374.54850697517395	movie	1		243	78.0	2.5	/experiments/AOT/AOT_stimuli/rescaled_final/0923_rv.mp4	0.0	397.4433579444885	2.499497175216675
80	375.33202505111694	pulse	1	t		78.0	2.5	/experiments/AOT/AOT_stimuli/rescaled_final/0923_rv.mp4	0.0	398.2268760204315	
80	376.93077516555786	pulse	1	t		78.0	2.5	/experiments/AOT/AOT_stimuli/rescaled_final/0923_rv.mp4	0.0	399.82562613487244	
80	377.0480041503906	fix_post	2		12	78.0	2.5	/experiments/AOT/AOT_stimuli/rescaled_final/0923_rv.mp4	0.0	399.9428551197052	0.09996795654296875
81	377.1479721069336	fix_pre	0		120	79.0	2.5	/experiments/AOT/AOT_stimuli/rescaled_final/1788_fw.mp4	0.0	400.04282307624817	1.0005009174346924
81	378.1484730243683	movie	1		244	79.0	2.5	/experiments/AOT/AOT_stimuli/rescaled_final/1788_fw.mp4	0.0	401.04332399368286	2.499558925628662
81	378.53234004974365	pulse	1	t		79.0	2.5	/experiments/AOT/AOT_stimuli/rescaled_final/1788_fw.mp4	0.0	401.4271910190582	
81	380.13186597824097	pulse	1	t		79.0	2.5	/experiments/AOT/AOT_stimuli/rescaled_final/1788_fw.mp4	0.0	403.02671694755554	
81	380.64803194999695	fix_post	2		12	79.0	2.5	/experiments/AOT/AOT_stimuli/rescaled_final/1788_fw.mp4	0.0	403.5428829193115	0.09905219078063965
82	380.7470841407776	fix_pre	0		119	80.0	2.5	/experiments/AOT/AOT_stimuli/rescaled_final/0862_fw.mp4	0.0	403.64193511009216	0.9916808605194092
82	381.7314009666443	pulse	0	t		80.0	2.5	/experiments/AOT/AOT_stimuli/rescaled_final/0862_fw.mp4	0.0	404.62625193595886	
82	381.738765001297	movie	1		243	80.0	2.5	/experiments/AOT/AOT_stimuli/rescaled_final/0862_fw.mp4	0.0	404.6336159706116	2.5086939334869385
82	383.33056116104126	pulse	1	t		80.0	2.5	/experiments/AOT/AOT_stimuli/rescaled_final/0862_fw.mp4	0.0	406.22541213035583	
82	384.24745893478394	fix_post	2		12	80.0	2.5	/experiments/AOT/AOT_stimuli/rescaled_final/0862_fw.mp4	0.0	407.1423099040985	0.09974503517150879
83	384.34720396995544	fix_pre	0		120	81.0	2.5	/experiments/AOT/AOT_stimuli/rescaled_final/1547_rv.mp4	0.0	407.24205493927	1.0002110004425049
83	384.93108010292053	pulse	0	t		81.0	2.5	/experiments/AOT/AOT_stimuli/rescaled_final/1547_rv.mp4	0.0	407.8259310722351	
83	385.34741497039795	movie	1		242	81.0	2.5	/experiments/AOT/AOT_stimuli/rescaled_final/1547_rv.mp4	0.0	408.2422659397125	2.5001001358032227
83	386.53062295913696	pulse	1	t		81.0	2.5	/experiments/AOT/AOT_stimuli/rescaled_final/1547_rv.mp4	0.0	409.42547392845154	
83	387.8475151062012	fix_post	2		12	81.0	2.5	/experiments/AOT/AOT_stimuli/rescaled_final/1547_rv.mp4	0.0	410.74236607551575	0.0999448299407959
84	387.94745993614197	fix_pre	0		120	82.0	2.5	/experiments/AOT/AOT_stimuli/rescaled_final/1277_fw.mp4	0.0	410.84231090545654	0.9999971389770508
84	388.13053011894226	pulse	0	t		82.0	2.5	/experiments/AOT/AOT_stimuli/rescaled_final/1277_fw.mp4	0.0	411.02538108825684	
84	388.947457075119	movie	1		244	82.0	2.5	/experiments/AOT/AOT_stimuli/rescaled_final/1277_fw.mp4	0.0	411.8423080444336	2.5000998973846436
84	389.7306160926819	pulse	1	t		82.0	2.5	/experiments/AOT/AOT_stimuli/rescaled_final/1277_fw.mp4	0.0	412.62546706199646	
84	391.32784605026245	pulse	1	t		82.0	2.5	/experiments/AOT/AOT_stimuli/rescaled_final/1277_fw.mp4	0.0	414.222697019577	
84	391.44755697250366	fix_post	2		12	82.0	2.5	/experiments/AOT/AOT_stimuli/rescaled_final/1277_fw.mp4	0.0	414.34240794181824	0.09957718849182129
85	391.5471341609955	fix_pre	0		120	83.0	2.5	blank	1.0	414.44198513031006	1.0006768703460693
85	392.54781103134155	movie	1		300	83.0	2.5	blank	1.0	415.4426620006561	2.4991869926452637
85	392.93124294281006	pulse	1	t		83.0	2.5	blank	1.0	415.82609391212463	
85	394.53100395202637	pulse	1	t		83.0	2.5	blank	1.0	417.42585492134094	
85	395.0469980239868	fix_post	2		12	83.0	2.5	blank	1.0	417.9418489933014	0.10050201416015625
87	395.147500038147	stim	0		1716					418.04235100746155	14.298959016799927
87	396.1309621334076	pulse	0	t						419.02581310272217	
87	397.7305750846863	pulse	0	t						420.62542605400085	
87	399.3299870491028	pulse	0	t						422.22483801841736	
87	400.92997002601624	pulse	0	t						423.8248209953308	
87	402.5300040245056	pulse	0	t						425.4248549938202	
87	404.13041400909424	pulse	0	t						427.0252649784088	
87	405.73003816604614	pulse	0	t						428.6248891353607	
87	407.33002400398254	pulse	0	t						430.2248749732971	
87	408.93002009391785	pulse	0	t						431.8248710632324	
