trial_nr	onset	event_type	phase	response	nr_frames	movie_index	movie_duration	movie_file	blank	onset_abs	duration
0	0.15883183479309082	stim	0		191					39.39588475227356	1.5910630226135254
0	1.741959810256958	response	0	space						40.97901272773743	
1	1.7498948574066162	stim	0		13249					40.986947774887085	110.40774703025818
1	112.14960789680481	pulse	0	t						151.38666081428528	
1	112.1576418876648	stim	1		1717					151.39469480514526	14.308347940444946
1	113.7495048046112	pulse	1	t						152.98655772209167	
1	115.34945678710938	pulse	1	t						154.58650970458984	
1	116.94946193695068	pulse	1	t						156.18651485443115	
1	118.5494658946991	pulse	1	t						157.78651881217957	
1	120.14948296546936	pulse	1	t						159.38653588294983	
1	121.74941277503967	pulse	1	t						160.98646569252014	
1	123.34940099716187	pulse	1	t						162.58645391464233	
1	124.9495198726654	pulse	1	t						164.18657279014587	
2	126.46598982810974	fix_pre	0		11	0.0	2.5	/experiments/AOT/AOT_stimuli/rescaled_final/1018_rv.mp4	0.0	165.7030427455902	0.09160208702087402
2	126.54940891265869	pulse	0	t		0.0	2.5	/experiments/AOT/AOT_stimuli/rescaled_final/1018_rv.mp4	0.0	165.78646183013916	
2	126.55759191513062	movie	1		245	0.0	2.5	/experiments/AOT/AOT_stimuli/rescaled_final/1018_rv.mp4	0.0	165.79464483261108	2.5079939365386963
2	128.1497769355774	pulse	1	t		0.0	2.5	/experiments/AOT/AOT_stimuli/rescaled_final/1018_rv.mp4	0.0	167.38682985305786	
2	129.0655858516693	fix_post	2		12	0.0	2.5	/experiments/AOT/AOT_stimuli/rescaled_final/1018_rv.mp4	0.0	168.30263876914978	0.10038208961486816
3	129.16596794128418	fix_pre	0		120	1.0	2.5	/experiments/AOT/AOT_stimuli/rescaled_final/0335_rv.mp4	0.0	168.40302085876465	0.999985933303833
3	129.7494878768921	pulse	0	t		1.0	2.5	/experiments/AOT/AOT_stimuli/rescaled_final/0335_rv.mp4	0.0	168.98654079437256	
3	130.165953874588	movie	1		243	1.0	2.5	/experiments/AOT/AOT_stimuli/rescaled_final/0335_rv.mp4	0.0	169.40300679206848	2.500019073486328
3	131.34954690933228	pulse	1	t		1.0	2.5	/experiments/AOT/AOT_stimuli/rescaled_final/0335_rv.mp4	0.0	170.58659982681274	
3	132.66597294807434	fix_post	2		12	1.0	2.5	/experiments/AOT/AOT_stimuli/rescaled_final/0335_rv.mp4	0.0	171.9030258655548	0.09998083114624023
4	132.76595377922058	fix_pre	0		120	2.0	2.5	/experiments/AOT/AOT_stimuli/rescaled_final/0708_fw.mp4	0.0	172.00300669670105	1.0000391006469727
4	132.94957399368286	pulse	0	t		2.0	2.5	/experiments/AOT/AOT_stimuli/rescaled_final/0708_fw.mp4	0.0	172.18662691116333	
4	133.76599287986755	movie	1		246	2.0	2.5	/experiments/AOT/AOT_stimuli/rescaled_final/0708_fw.mp4	0.0	173.00304579734802	2.499972105026245
4	134.5494818687439	pulse	1	t		2.0	2.5	/experiments/AOT/AOT_stimuli/rescaled_final/0708_fw.mp4	0.0	173.78653478622437	
4	136.14747881889343	pulse	1	t		2.0	2.5	/experiments/AOT/AOT_stimuli/rescaled_final/0708_fw.mp4	0.0	175.3845317363739	
4	136.2659649848938	fix_post	2		12	2.0	2.5	/experiments/AOT/AOT_stimuli/rescaled_final/0708_fw.mp4	0.0	175.50301790237427	0.09954690933227539
5	136.36551189422607	fix_pre	0		120	3.0	2.5	/experiments/AOT/AOT_stimuli/rescaled_final/1576_fw.mp4	0.0	175.60256481170654	1.0005040168762207
5	137.3660159111023	movie	1		246	3.0	2.5	/experiments/AOT/AOT_stimuli/rescaled_final/1576_fw.mp4	0.0	176.60306882858276	2.4999020099639893
5	137.74912285804749	pulse	1	t		3.0	2.5	/experiments/AOT/AOT_stimuli/rescaled_final/1576_fw.mp4	0.0	176.98617577552795	
5	139.3492579460144	pulse	1	t		3.0	2.5	/experiments/AOT/AOT_stimuli/rescaled_final/1576_fw.mp4	0.0	178.58631086349487	
5	139.86591792106628	fix_post	2		12	3.0	2.5	/experiments/AOT/AOT_stimuli/rescaled_final/1576_fw.mp4	0.0	179.10297083854675	0.10000896453857422
6	139.96592688560486	fix_pre	0		119	4.0	2.5	/experiments/AOT/AOT_stimuli/rescaled_final/1331_fw.mp4	0.0	179.20297980308533	0.9916119575500488
6	140.94937300682068	pulse	0	t		4.0	2.5	/experiments/AOT/AOT_stimuli/rescaled_final/1331_fw.mp4	0.0	180.18642592430115	
6	140.9575388431549	movie	1		248	4.0	2.5	/experiments/AOT/AOT_stimuli/rescaled_final/1331_fw.mp4	0.0	180.19459176063538	2.5083770751953125
6	142.5503339767456	pulse	1	t		4.0	2.5	/experiments/AOT/AOT_stimuli/rescaled_final/1331_fw.mp4	0.0	181.78738689422607	
6	143.46591591835022	fix_post	2		12	4.0	2.5	/experiments/AOT/AOT_stimuli/rescaled_final/1331_fw.mp4	0.0	182.7029688358307	0.09989595413208008
7	143.5658118724823	fix_pre	0		120	5.0	2.5	blank	1.0	182.80286478996277	1.0000379085540771
7	144.14926886558533	pulse	0	t		5.0	2.5	blank	1.0	183.3863217830658	
7	144.56584978103638	movie	1		300	5.0	2.5	blank	1.0	183.80290269851685	2.499979019165039
7	145.7492938041687	pulse	1	t		5.0	2.5	blank	1.0	184.98634672164917	
7	147.06582880020142	fix_post	2		12	5.0	2.5	blank	1.0	186.30288171768188	0.09999918937683105
8	147.16582798957825	fix_pre	0		120	6.0	2.5	/experiments/AOT/AOT_stimuli/rescaled_final/1941_fw.mp4	0.0	186.40288090705872	0.9999949932098389
8	147.34929490089417	pulse	0	t		6.0	2.5	/experiments/AOT/AOT_stimuli/rescaled_final/1941_fw.mp4	0.0	186.58634781837463	
8	148.1658229827881	movie	1		242	6.0	2.5	/experiments/AOT/AOT_stimuli/rescaled_final/1941_fw.mp4	0.0	187.40287590026855	2.5000648498535156
8	148.9492428302765	pulse	1	t		6.0	2.5	/experiments/AOT/AOT_stimuli/rescaled_final/1941_fw.mp4	0.0	188.18629574775696	
8	150.5476257801056	pulse	1	t		6.0	2.5	/experiments/AOT/AOT_stimuli/rescaled_final/1941_fw.mp4	0.0	189.78467869758606	
8	150.6658878326416	fix_post	2		12	6.0	2.5	/experiments/AOT/AOT_stimuli/rescaled_final/1941_fw.mp4	0.0	189.90294075012207	0.09990310668945312
9	150.76579093933105	fix_pre	0		120	7.0	2.5	/experiments/AOT/AOT_stimuli/rescaled_final/1010_fw.mp4	0.0	190.00284385681152	1.000046968460083
9	151.76583790779114	movie	1		243	7.0	2.5	/experiments/AOT/AOT_stimuli/rescaled_final/1010_fw.mp4	0.0	191.0028908252716	2.4999840259552
9	152.14920687675476	pulse	1	t		7.0	2.5	/experiments/AOT/AOT_stimuli/rescaled_final/1010_fw.mp4	0.0	191.38625979423523	
9	153.74928092956543	pulse	1	t		7.0	2.5	/experiments/AOT/AOT_stimuli/rescaled_final/1010_fw.mp4	0.0	192.9863338470459	
9	154.26582193374634	fix_post	2		12	7.0	2.5	/experiments/AOT/AOT_stimuli/rescaled_final/1010_fw.mp4	0.0	193.5028748512268	0.09997892379760742
10	154.36580085754395	fix_pre	0		119	8.0	2.5	/experiments/AOT/AOT_stimuli/rescaled_final/0549_fw.mp4	0.0	193.6028537750244	0.9916491508483887
10	155.34934782981873	pulse	0	t		8.0	2.5	/experiments/AOT/AOT_stimuli/rescaled_final/0549_fw.mp4	0.0	194.5864007472992	
10	155.35745000839233	movie	1		247	8.0	2.5	/experiments/AOT/AOT_stimuli/rescaled_final/0549_fw.mp4	0.0	194.5945029258728	2.508281946182251
10	156.94893288612366	pulse	1	t		8.0	2.5	/experiments/AOT/AOT_stimuli/rescaled_final/0549_fw.mp4	0.0	196.18598580360413	
10	157.86573195457458	fix_post	2		12	8.0	2.5	/experiments/AOT/AOT_stimuli/rescaled_final/0549_fw.mp4	0.0	197.10278487205505	0.09997296333312988
11	157.96570491790771	fix_pre	0		120	9.0	2.5	/experiments/AOT/AOT_stimuli/rescaled_final/0926_rv.mp4	0.0	197.20275783538818	1.000067949295044
11	158.5492877960205	pulse	0	t		9.0	2.5	/experiments/AOT/AOT_stimuli/rescaled_final/0926_rv.mp4	0.0	197.78634071350098	
11	158.96577286720276	movie	1		246	9.0	2.5	/experiments/AOT/AOT_stimuli/rescaled_final/0926_rv.mp4	0.0	198.20282578468323	2.5000460147857666
11	160.14936685562134	pulse	1	t		9.0	2.5	/experiments/AOT/AOT_stimuli/rescaled_final/0926_rv.mp4	0.0	199.3864197731018	
11	161.46581888198853	fix_post	2		12	9.0	2.5	/experiments/AOT/AOT_stimuli/rescaled_final/0926_rv.mp4	0.0	200.702871799469	0.09999203681945801
12	161.56581091880798	fix_pre	0		120	10.0	2.5	/experiments/AOT/AOT_stimuli/rescaled_final/1321_rv.mp4	0.0	200.80286383628845	0.9999499320983887
12	161.74925994873047	pulse	0	t		10.0	2.5	/experiments/AOT/AOT_stimuli/rescaled_final/1321_rv.mp4	0.0	200.98631286621094	
12	162.56576085090637	movie	1		245	10.0	2.5	/experiments/AOT/AOT_stimuli/rescaled_final/1321_rv.mp4	0.0	201.80281376838684	2.5000269412994385
12	163.34929895401	pulse	1	t		10.0	2.5	/experiments/AOT/AOT_stimuli/rescaled_final/1321_rv.mp4	0.0	202.58635187149048	
12	164.94791889190674	pulse	1	t		10.0	2.5	/experiments/AOT/AOT_stimuli/rescaled_final/1321_rv.mp4	0.0	204.1849718093872	
12	165.0657877922058	fix_post	2		12	10.0	2.5	/experiments/AOT/AOT_stimuli/rescaled_final/1321_rv.mp4	0.0	204.30284070968628	0.09993815422058105
13	165.1657259464264	fix_pre	0		120	11.0	2.5	/experiments/AOT/AOT_stimuli/rescaled_final/0609_rv.mp4	0.0	204.40277886390686	1.0000238418579102
13	166.1657497882843	movie	1		245	11.0	2.5	/experiments/AOT/AOT_stimuli/rescaled_final/0609_rv.mp4	0.0	205.40280270576477	2.4999442100524902
13	166.54879093170166	pulse	1	t		11.0	2.5	/experiments/AOT/AOT_stimuli/rescaled_final/0609_rv.mp4	0.0	205.78584384918213	
13	168.14940094947815	pulse	1	t		11.0	2.5	/experiments/AOT/AOT_stimuli/rescaled_final/0609_rv.mp4	0.0	207.38645386695862	
13	168.6656939983368	fix_post	2		12	11.0	2.5	/experiments/AOT/AOT_stimuli/rescaled_final/0609_rv.mp4	0.0	207.90274691581726	0.10007786750793457
14	168.76577186584473	fix_pre	0		119	12.0	2.5	blank	1.0	208.0028247833252	0.9916350841522217
14	169.7491888999939	pulse	0	t		12.0	2.5	blank	1.0	208.98624181747437	
14	169.75740694999695	movie	1		301	12.0	2.5	blank	1.0	208.99445986747742	2.508391857147217
14	171.34923481941223	pulse	1	t		12.0	2.5	blank	1.0	210.5862877368927	
14	172.26579880714417	fix_post	2		12	12.0	2.5	blank	1.0	211.50285172462463	0.09996819496154785
15	172.3657670021057	fix_pre	0		120	13.0	2.5	/experiments/AOT/AOT_stimuli/rescaled_final/0251_fw.mp4	0.0	211.60281991958618	0.9999809265136719
15	172.94921398162842	pulse	0	t		13.0	2.5	/experiments/AOT/AOT_stimuli/rescaled_final/0251_fw.mp4	0.0	212.1862668991089	
15	173.36574792861938	movie	1		242	13.0	2.5	/experiments/AOT/AOT_stimuli/rescaled_final/0251_fw.mp4	0.0	212.60280084609985	2.4999630451202393
15	174.54929780960083	pulse	1	t		13.0	2.5	/experiments/AOT/AOT_stimuli/rescaled_final/0251_fw.mp4	0.0	213.7863507270813	
15	175.86571097373962	fix_post	2		12	13.0	2.5	/experiments/AOT/AOT_stimuli/rescaled_final/0251_fw.mp4	0.0	215.1027638912201	0.09992289543151855
16	175.96563386917114	fix_pre	0		120	14.0	2.5	/experiments/AOT/AOT_stimuli/rescaled_final/1653_rv.mp4	0.0	215.2026867866516	1.0001170635223389
16	176.14918994903564	pulse	0	t		14.0	2.5	/experiments/AOT/AOT_stimuli/rescaled_final/1653_rv.mp4	0.0	215.3862428665161	
16	176.96575093269348	movie	1		245	14.0	2.5	/experiments/AOT/AOT_stimuli/rescaled_final/1653_rv.mp4	0.0	216.20280385017395	2.49993896484375
16	177.7492218017578	pulse	1	t		14.0	2.5	/experiments/AOT/AOT_stimuli/rescaled_final/1653_rv.mp4	0.0	216.98627471923828	
16	179.34753894805908	pulse	1	t		14.0	2.5	/experiments/AOT/AOT_stimuli/rescaled_final/1653_rv.mp4	0.0	218.58459186553955	
16	179.46568989753723	fix_post	2		12	14.0	2.5	/experiments/AOT/AOT_stimuli/rescaled_final/1653_rv.mp4	0.0	218.7027428150177	0.10003304481506348
17	179.5657229423523	fix_pre	0		120	15.0	2.5	/experiments/AOT/AOT_stimuli/rescaled_final/1941_fw.mp4	0.0	218.80277585983276	0.9999170303344727
17	180.56563997268677	movie	1		243	15.0	2.5	/experiments/AOT/AOT_stimuli/rescaled_final/1941_fw.mp4	0.0	219.80269289016724	2.500037908554077
17	180.94869184494019	pulse	1	t		15.0	2.5	/experiments/AOT/AOT_stimuli/rescaled_final/1941_fw.mp4	0.0	220.18574476242065	
17	182.5491428375244	pulse	1	t		15.0	2.5	/experiments/AOT/AOT_stimuli/rescaled_final/1941_fw.mp4	0.0	221.78619575500488	
17	183.06567788124084	fix_post	2		12	15.0	2.5	/experiments/AOT/AOT_stimuli/rescaled_final/1941_fw.mp4	0.0	222.3027307987213	0.10000300407409668
18	183.16568088531494	fix_pre	0		119	16.0	2.5	/experiments/AOT/AOT_stimuli/rescaled_final/0834_rv.mp4	0.0	222.4027338027954	0.9916319847106934
18	184.14921188354492	pulse	0	t		16.0	2.5	/experiments/AOT/AOT_stimuli/rescaled_final/0834_rv.mp4	0.0	223.3862648010254	
18	184.15731287002563	movie	1		244	16.0	2.5	/experiments/AOT/AOT_stimuli/rescaled_final/0834_rv.mp4	0.0	223.3943657875061	2.5084331035614014
18	185.7487437725067	pulse	1	t		16.0	2.5	/experiments/AOT/AOT_stimuli/rescaled_final/0834_rv.mp4	0.0	224.98579668998718	
18	186.66574597358704	fix_post	2		12	16.0	2.5	/experiments/AOT/AOT_stimuli/rescaled_final/0834_rv.mp4	0.0	225.9027988910675	0.0999460220336914
19	186.76569199562073	fix_pre	0		120	17.0	2.5	/experiments/AOT/AOT_stimuli/rescaled_final/0720_rv.mp4	0.0	226.0027449131012	1.0000100135803223
19	187.349102973938	pulse	0	t		17.0	2.5	/experiments/AOT/AOT_stimuli/rescaled_final/0720_rv.mp4	0.0	226.58615589141846	
19	187.76570200920105	movie	1		244	17.0	2.5	/experiments/AOT/AOT_stimuli/rescaled_final/0720_rv.mp4	0.0	227.00275492668152	2.4999918937683105
19	188.9492838382721	pulse	1	t		17.0	2.5	/experiments/AOT/AOT_stimuli/rescaled_final/0720_rv.mp4	0.0	228.18633675575256	
19	190.26569390296936	fix_post	2		12	17.0	2.5	/experiments/AOT/AOT_stimuli/rescaled_final/0720_rv.mp4	0.0	229.50274682044983	0.10001897811889648
20	190.36571288108826	fix_pre	0		120	18.0	2.5	/experiments/AOT/AOT_stimuli/rescaled_final/1606_fw.mp4	0.0	229.60276579856873	0.9994869232177734
20	190.54927492141724	pulse	0	t		18.0	2.5	/experiments/AOT/AOT_stimuli/rescaled_final/1606_fw.mp4	0.0	229.7863278388977	
20	191.36519980430603	movie	1		245	18.0	2.5	/experiments/AOT/AOT_stimuli/rescaled_final/1606_fw.mp4	0.0	230.6022527217865	2.5005550384521484
20	192.14867877960205	pulse	1	t		18.0	2.5	/experiments/AOT/AOT_stimuli/rescaled_final/1606_fw.mp4	0.0	231.38573169708252	
20	193.7471399307251	pulse	1	t		18.0	2.5	/experiments/AOT/AOT_stimuli/rescaled_final/1606_fw.mp4	0.0	232.98419284820557	
20	193.86575484275818	fix_post	2		12	18.0	2.5	/experiments/AOT/AOT_stimuli/rescaled_final/1606_fw.mp4	0.0	233.10280776023865	0.0995790958404541
21	193.96533393859863	fix_pre	0		120	19.0	2.5	blank	1.0	233.2023868560791	1.0001740455627441
21	194.96550798416138	movie	1		300	19.0	2.5	blank	1.0	234.20256090164185	2.499763011932373
21	195.3490607738495	pulse	1	t		19.0	2.5	blank	1.0	234.58611369132996	
21	196.9490258693695	pulse	1	t		19.0	2.5	blank	1.0	236.18607878684998	
21	197.46527099609375	fix_post	2		12	19.0	2.5	blank	1.0	236.70232391357422	0.10029101371765137
22	197.5655620098114	fix_pre	0		119	20.0	2.5	/experiments/AOT/AOT_stimuli/rescaled_final/0251_rv.mp4	0.0	236.80261492729187	0.9916529655456543
22	198.54914689064026	pulse	0	t		20.0	2.5	/experiments/AOT/AOT_stimuli/rescaled_final/0251_rv.mp4	0.0	237.78619980812073	
22	198.55721497535706	movie	1		246	20.0	2.5	/experiments/AOT/AOT_stimuli/rescaled_final/0251_rv.mp4	0.0	237.79426789283752	2.5083048343658447
22	200.14858889579773	pulse	1	t		20.0	2.5	/experiments/AOT/AOT_stimuli/rescaled_final/0251_rv.mp4	0.0	239.3856418132782	
22	201.0655198097229	fix_post	2		12	20.0	2.5	/experiments/AOT/AOT_stimuli/rescaled_final/0251_rv.mp4	0.0	240.30257272720337	0.10002708435058594
23	201.1655468940735	fix_pre	0		120	21.0	2.5	/experiments/AOT/AOT_stimuli/rescaled_final/0190_rv.mp4	0.0	240.40259981155396	1.0000030994415283
23	201.7490589618683	pulse	0	t		21.0	2.5	/experiments/AOT/AOT_stimuli/rescaled_final/0190_rv.mp4	0.0	240.98611187934875	
23	202.16554999351501	movie	1		245	21.0	2.5	/experiments/AOT/AOT_stimuli/rescaled_final/0190_rv.mp4	0.0	241.40260291099548	2.500013828277588
23	203.34910583496094	pulse	1	t		21.0	2.5	/experiments/AOT/AOT_stimuli/rescaled_final/0190_rv.mp4	0.0	242.5861587524414	
23	204.6655638217926	fix_post	2		12	21.0	2.5	/experiments/AOT/AOT_stimuli/rescaled_final/0190_rv.mp4	0.0	243.90261673927307	0.09997105598449707
24	204.7655348777771	fix_pre	0		120	22.0	2.5	/experiments/AOT/AOT_stimuli/rescaled_final/0364_fw.mp4	0.0	244.00258779525757	1.0000600814819336
24	204.94901084899902	pulse	0	t		22.0	2.5	/experiments/AOT/AOT_stimuli/rescaled_final/0364_fw.mp4	0.0	244.1860637664795	
24	205.76559495925903	movie	1		246	22.0	2.5	/experiments/AOT/AOT_stimuli/rescaled_final/0364_fw.mp4	0.0	245.0026478767395	2.499905824661255
24	206.54916977882385	pulse	1	t		22.0	2.5	/experiments/AOT/AOT_stimuli/rescaled_final/0364_fw.mp4	0.0	245.78622269630432	
24	208.14503383636475	pulse	1	t		22.0	2.5	/experiments/AOT/AOT_stimuli/rescaled_final/0364_fw.mp4	0.0	247.38208675384521	
24	208.2655007839203	fix_post	2		12	22.0	2.5	/experiments/AOT/AOT_stimuli/rescaled_final/0364_fw.mp4	0.0	247.50255370140076	0.10003018379211426
25	208.3655309677124	fix_pre	0		120	23.0	2.5	/experiments/AOT/AOT_stimuli/rescaled_final/0203_fw.mp4	0.0	247.60258388519287	0.9999668598175049
25	209.3654978275299	movie	1		244	23.0	2.5	/experiments/AOT/AOT_stimuli/rescaled_final/0203_fw.mp4	0.0	248.60255074501038	2.5000760555267334
25	209.74883794784546	pulse	1	t		23.0	2.5	/experiments/AOT/AOT_stimuli/rescaled_final/0203_fw.mp4	0.0	248.98589086532593	
25	211.34895586967468	pulse	1	t		23.0	2.5	/experiments/AOT/AOT_stimuli/rescaled_final/0203_fw.mp4	0.0	250.58600878715515	
25	211.86557388305664	fix_post	2		12	23.0	2.5	/experiments/AOT/AOT_stimuli/rescaled_final/0203_fw.mp4	0.0	251.1026268005371	0.09991002082824707
26	211.9654839038849	fix_pre	0		119	24.0	2.5	/experiments/AOT/AOT_stimuli/rescaled_final/1223_fw.mp4	0.0	251.20253682136536	0.991689920425415
26	212.9490737915039	pulse	0	t		24.0	2.5	/experiments/AOT/AOT_stimuli/rescaled_final/1223_fw.mp4	0.0	252.18612670898438	
26	212.9571738243103	movie	1		246	24.0	2.5	/experiments/AOT/AOT_stimuli/rescaled_final/1223_fw.mp4	0.0	252.19422674179077	2.5083680152893066
26	214.5488247871399	pulse	1	t		24.0	2.5	/experiments/AOT/AOT_stimuli/rescaled_final/1223_fw.mp4	0.0	253.78587770462036	
26	215.4655418395996	fix_post	2		12	24.0	2.5	/experiments/AOT/AOT_stimuli/rescaled_final/1223_fw.mp4	0.0	254.70259475708008	0.09995913505554199
27	215.56550097465515	fix_pre	0		120	25.0	2.5	/experiments/AOT/AOT_stimuli/rescaled_final/1400_rv.mp4	0.0	254.80255389213562	1.0000019073486328
27	216.14903688430786	pulse	0	t		25.0	2.5	/experiments/AOT/AOT_stimuli/rescaled_final/1400_rv.mp4	0.0	255.38608980178833	
27	216.56550288200378	movie	1		244	25.0	2.5	/experiments/AOT/AOT_stimuli/rescaled_final/1400_rv.mp4	0.0	255.80255579948425	2.5000159740448
27	217.74905586242676	pulse	1	t		25.0	2.5	/experiments/AOT/AOT_stimuli/rescaled_final/1400_rv.mp4	0.0	256.9861087799072	
27	219.06551885604858	fix_post	2		12	25.0	2.5	/experiments/AOT/AOT_stimuli/rescaled_final/1400_rv.mp4	0.0	258.30257177352905	0.09991192817687988
28	219.16543078422546	fix_pre	0		120	26.0	2.5	/experiments/AOT/AOT_stimuli/rescaled_final/0210_rv.mp4	0.0	258.40248370170593	1.000089168548584
28	219.34888792037964	pulse	0	t		26.0	2.5	/experiments/AOT/AOT_stimuli/rescaled_final/0210_rv.mp4	0.0	258.5859408378601	
28	220.16551995277405	movie	1		244	26.0	2.5	/experiments/AOT/AOT_stimuli/rescaled_final/0210_rv.mp4	0.0	259.4025728702545	2.499851942062378
28	220.94897389411926	pulse	1	t		26.0	2.5	/experiments/AOT/AOT_stimuli/rescaled_final/0210_rv.mp4	0.0	260.18602681159973	
28	222.54764485359192	pulse	1	t		26.0	2.5	/experiments/AOT/AOT_stimuli/rescaled_final/0210_rv.mp4	0.0	261.7846977710724	
28	222.66537189483643	fix_post	2		12	26.0	2.5	/experiments/AOT/AOT_stimuli/rescaled_final/0210_rv.mp4	0.0	261.9024248123169	0.10002303123474121
29	222.76539492607117	fix_pre	0		120	27.0	2.5	/experiments/AOT/AOT_stimuli/rescaled_final/1939_fw.mp4	0.0	262.00244784355164	1.0000579357147217
29	223.7654528617859	movie	1		244	27.0	2.5	/experiments/AOT/AOT_stimuli/rescaled_final/1939_fw.mp4	0.0	263.00250577926636	2.5000319480895996
29	224.14865279197693	pulse	1	t		27.0	2.5	/experiments/AOT/AOT_stimuli/rescaled_final/1939_fw.mp4	0.0	263.3857057094574	
29	225.7489619255066	pulse	1	t		27.0	2.5	/experiments/AOT/AOT_stimuli/rescaled_final/1939_fw.mp4	0.0	264.98601484298706	
29	226.2654848098755	fix_post	2		12	27.0	2.5	/experiments/AOT/AOT_stimuli/rescaled_final/1939_fw.mp4	0.0	265.50253772735596	0.09997105598449707
30	226.36545586585999	fix_pre	0		119	28.0	2.5	blank	1.0	265.60250878334045	0.9917020797729492
30	227.34895300865173	pulse	0	t		28.0	2.5	blank	1.0	266.5860059261322	
30	227.35715794563293	movie	1		301	28.0	2.5	blank	1.0	266.5942108631134	2.5083119869232178
30	228.9489769935608	pulse	1	t		28.0	2.5	blank	1.0	268.18602991104126	
30	229.86546993255615	fix_post	2		12	28.0	2.5	blank	1.0	269.1025228500366	0.09994792938232422
31	229.96541786193848	fix_pre	0		120	29.0	2.5	/experiments/AOT/AOT_stimuli/rescaled_final/1429_rv.mp4	0.0	269.20247077941895	1.0000550746917725
31	230.54896593093872	pulse	0	t		29.0	2.5	/experiments/AOT/AOT_stimuli/rescaled_final/1429_rv.mp4	0.0	269.7860188484192	
31	230.96547293663025	movie	1		244	29.0	2.5	/experiments/AOT/AOT_stimuli/rescaled_final/1429_rv.mp4	0.0	270.2025258541107	2.4999618530273438
31	232.1490089893341	pulse	1	t		29.0	2.5	/experiments/AOT/AOT_stimuli/rescaled_final/1429_rv.mp4	0.0	271.3860619068146	
31	233.4654347896576	fix_post	2		12	29.0	2.5	/experiments/AOT/AOT_stimuli/rescaled_final/1429_rv.mp4	0.0	272.70248770713806	0.09999704360961914
32	233.5654318332672	fix_pre	0		120	30.0	2.5	/experiments/AOT/AOT_stimuli/rescaled_final/0447_rv.mp4	0.0	272.8024847507477	1.0000360012054443
32	233.74910497665405	pulse	0	t		30.0	2.5	/experiments/AOT/AOT_stimuli/rescaled_final/0447_rv.mp4	0.0	272.9861578941345	
32	234.56546783447266	movie	1		245	30.0	2.5	/experiments/AOT/AOT_stimuli/rescaled_final/0447_rv.mp4	0.0	273.8025207519531	2.4999871253967285
32	235.34887790679932	pulse	1	t		30.0	2.5	/experiments/AOT/AOT_stimuli/rescaled_final/0447_rv.mp4	0.0	274.5859308242798	
32	236.94501399993896	pulse	1	t		30.0	2.5	/experiments/AOT/AOT_stimuli/rescaled_final/0447_rv.mp4	0.0	276.18206691741943	
32	237.06545495986938	fix_post	2		12	30.0	2.5	/experiments/AOT/AOT_stimuli/rescaled_final/0447_rv.mp4	0.0	276.30250787734985	0.09995889663696289
33	237.16541385650635	fix_pre	0		120	31.0	2.5	/experiments/AOT/AOT_stimuli/rescaled_final/1086_fw.mp4	0.0	276.4024667739868	1.0000300407409668
33	238.16544389724731	movie	1		244	31.0	2.5	/experiments/AOT/AOT_stimuli/rescaled_final/1086_fw.mp4	0.0	277.4024968147278	2.499955892562866
33	238.54842495918274	pulse	1	t		31.0	2.5	/experiments/AOT/AOT_stimuli/rescaled_final/1086_fw.mp4	0.0	277.7854778766632	
33	240.14892077445984	pulse	1	t		31.0	2.5	/experiments/AOT/AOT_stimuli/rescaled_final/1086_fw.mp4	0.0	279.3859736919403	
33	240.66539978981018	fix_post	2		12	31.0	2.5	/experiments/AOT/AOT_stimuli/rescaled_final/1086_fw.mp4	0.0	279.90245270729065	0.09999299049377441
34	240.76539278030396	fix_pre	0		119	32.0	2.5	/experiments/AOT/AOT_stimuli/rescaled_final/1606_rv.mp4	0.0	280.0024456977844	0.9916911125183105
34	241.7488398551941	pulse	0	t		32.0	2.5	/experiments/AOT/AOT_stimuli/rescaled_final/1606_rv.mp4	0.0	280.98589277267456	
34	241.75708389282227	movie	1		245	32.0	2.5	/experiments/AOT/AOT_stimuli/rescaled_final/1606_rv.mp4	0.0	280.99413681030273	2.5082180500030518
34	243.3487730026245	pulse	1	t		32.0	2.5	/experiments/AOT/AOT_stimuli/rescaled_final/1606_rv.mp4	0.0	282.585825920105	
34	244.26530194282532	fix_post	2		12	32.0	2.5	/experiments/AOT/AOT_stimuli/rescaled_final/1606_rv.mp4	0.0	283.5023548603058	0.10002303123474121
35	244.36532497406006	fix_pre	0		120	33.0	2.5	/experiments/AOT/AOT_stimuli/rescaled_final/1599_fw.mp4	0.0	283.6023778915405	1.0000348091125488
35	244.94906497001648	pulse	0	t		33.0	2.5	/experiments/AOT/AOT_stimuli/rescaled_final/1599_fw.mp4	0.0	284.18611788749695	
35	245.3653597831726	movie	1		244	33.0	2.5	/experiments/AOT/AOT_stimuli/rescaled_final/1599_fw.mp4	0.0	284.6024127006531	2.4995760917663574
35	246.5489468574524	pulse	1	t		33.0	2.5	/experiments/AOT/AOT_stimuli/rescaled_final/1599_fw.mp4	0.0	285.78599977493286	
35	247.86493587493896	fix_post	2		12	33.0	2.5	/experiments/AOT/AOT_stimuli/rescaled_final/1599_fw.mp4	0.0	287.10198879241943	0.10007596015930176
36	247.96501183509827	fix_pre	0		120	34.0	2.5	/experiments/AOT/AOT_stimuli/rescaled_final/2029_rv.mp4	0.0	287.20206475257874	0.9999780654907227
36	248.14845180511475	pulse	0	t		34.0	2.5	/experiments/AOT/AOT_stimuli/rescaled_final/2029_rv.mp4	0.0	287.3855047225952	
36	248.964989900589	movie	1		244	34.0	2.5	/experiments/AOT/AOT_stimuli/rescaled_final/2029_rv.mp4	0.0	288.20204281806946	2.5004050731658936
36	249.748605966568	pulse	1	t		34.0	2.5	/experiments/AOT/AOT_stimuli/rescaled_final/2029_rv.mp4	0.0	288.98565888404846	
36	251.3473298549652	pulse	1	t		34.0	2.5	/experiments/AOT/AOT_stimuli/rescaled_final/2029_rv.mp4	0.0	290.5843827724457	
36	251.46539497375488	fix_post	2		12	34.0	2.5	/experiments/AOT/AOT_stimuli/rescaled_final/2029_rv.mp4	0.0	290.70244789123535	0.09997797012329102
37	251.56537294387817	fix_pre	0		120	35.0	2.5	blank	1.0	290.80242586135864	1.0001578330993652
37	252.56553077697754	movie	1		300	35.0	2.5	blank	1.0	291.802583694458	2.4997901916503906
37	252.94876980781555	pulse	1	t		35.0	2.5	blank	1.0	292.185822725296	
37	254.54882383346558	pulse	1	t		35.0	2.5	blank	1.0	293.78587675094604	
37	255.06532096862793	fix_post	2		12	35.0	2.5	blank	1.0	294.3023738861084	0.10001897811889648
38	255.16533994674683	fix_pre	0		119	36.0	2.5	/experiments/AOT/AOT_stimuli/rescaled_final/1376_fw.mp4	0.0	294.4023928642273	0.9915969371795654
38	256.1487808227539	pulse	0	t		36.0	2.5	/experiments/AOT/AOT_stimuli/rescaled_final/1376_fw.mp4	0.0	295.3858337402344	
38	256.1569368839264	movie	1		245	36.0	2.5	/experiments/AOT/AOT_stimuli/rescaled_final/1376_fw.mp4	0.0	295.39398980140686	2.5083980560302734
38	257.74897599220276	pulse	1	t		36.0	2.5	/experiments/AOT/AOT_stimuli/rescaled_final/1376_fw.mp4	0.0	296.9860289096832	
38	258.66533493995667	fix_post	2		12	36.0	2.5	/experiments/AOT/AOT_stimuli/rescaled_final/1376_fw.mp4	0.0	297.90238785743713	0.09994196891784668
39	258.7652769088745	fix_pre	0		120	37.0	2.5	/experiments/AOT/AOT_stimuli/rescaled_final/2009_fw.mp4	0.0	298.002329826355	0.9999570846557617
39	259.34873485565186	pulse	0	t		37.0	2.5	/experiments/AOT/AOT_stimuli/rescaled_final/2009_fw.mp4	0.0	298.5857877731323	
39	259.7652339935303	movie	1		247	37.0	2.5	/experiments/AOT/AOT_stimuli/rescaled_final/2009_fw.mp4	0.0	299.00228691101074	2.500072956085205
39	260.9487648010254	pulse	1	t		37.0	2.5	/experiments/AOT/AOT_stimuli/rescaled_final/2009_fw.mp4	0.0	300.18581771850586	
39	262.2653069496155	fix_post	2		12	37.0	2.5	/experiments/AOT/AOT_stimuli/rescaled_final/2009_fw.mp4	0.0	301.50235986709595	0.0999598503112793
40	262.36526679992676	fix_pre	0		120	38.0	2.5	/experiments/AOT/AOT_stimuli/rescaled_final/1274_rv.mp4	0.0	301.6023197174072	1.0000200271606445
40	262.54871582984924	pulse	0	t		38.0	2.5	/experiments/AOT/AOT_stimuli/rescaled_final/1274_rv.mp4	0.0	301.7857687473297	
40	263.3652868270874	movie	1		245	38.0	2.5	/experiments/AOT/AOT_stimuli/rescaled_final/1274_rv.mp4	0.0	302.60233974456787	2.4999561309814453
40	264.14867782592773	pulse	1	t		38.0	2.5	/experiments/AOT/AOT_stimuli/rescaled_final/1274_rv.mp4	0.0	303.3857307434082	
40	265.747193813324	pulse	1	t		38.0	2.5	/experiments/AOT/AOT_stimuli/rescaled_final/1274_rv.mp4	0.0	304.98424673080444	
40	265.86524295806885	fix_post	2		12	38.0	2.5	/experiments/AOT/AOT_stimuli/rescaled_final/1274_rv.mp4	0.0	305.1022958755493	0.0999908447265625
41	265.9652338027954	fix_pre	0		120	39.0	2.5	/experiments/AOT/AOT_stimuli/rescaled_final/2053_rv.mp4	0.0	305.2022867202759	1.0000581741333008
41	266.9652919769287	movie	1		244	39.0	2.5	/experiments/AOT/AOT_stimuli/rescaled_final/2053_rv.mp4	0.0	306.2023448944092	2.4999589920043945
41	267.34858298301697	pulse	1	t		39.0	2.5	/experiments/AOT/AOT_stimuli/rescaled_final/2053_rv.mp4	0.0	306.58563590049744	
41	268.94865798950195	pulse	1	t		39.0	2.5	/experiments/AOT/AOT_stimuli/rescaled_final/2053_rv.mp4	0.0	308.1857109069824	
41	269.4652509689331	fix_post	2		12	39.0	2.5	/experiments/AOT/AOT_stimuli/rescaled_final/2053_rv.mp4	0.0	308.7023038864136	0.10001492500305176
42	269.56526589393616	fix_pre	0		119	40.0	2.5	/experiments/AOT/AOT_stimuli/rescaled_final/0898_rv.mp4	0.0	308.8023188114166	0.9915919303894043
42	270.54870986938477	pulse	0	t		40.0	2.5	/experiments/AOT/AOT_stimuli/rescaled_final/0898_rv.mp4	0.0	309.78576278686523	
42	270.55685782432556	movie	1		244	40.0	2.5	/experiments/AOT/AOT_stimuli/rescaled_final/0898_rv.mp4	0.0	309.79391074180603	2.5084071159362793
42	272.1485879421234	pulse	1	t		40.0	2.5	/experiments/AOT/AOT_stimuli/rescaled_final/0898_rv.mp4	0.0	311.3856408596039	
42	273.06526494026184	fix_post	2		12	40.0	2.5	/experiments/AOT/AOT_stimuli/rescaled_final/0898_rv.mp4	0.0	312.3023178577423	0.10008597373962402
43	273.16535091400146	fix_pre	0		120	41.0	2.5	blank	1.0	312.40240383148193	0.9998910427093506
43	273.7486639022827	pulse	0	t		41.0	2.5	blank	1.0	312.9857168197632	
43	274.1652419567108	movie	1		300	41.0	2.5	blank	1.0	313.4022948741913	2.499958038330078
43	275.34864687919617	pulse	1	t		41.0	2.5	blank	1.0	314.58569979667664	
43	276.6651999950409	fix_post	2		12	41.0	2.5	blank	1.0	315.90225291252136	0.10001897811889648
44	276.7652189731598	fix_pre	0		120	42.0	2.5	/experiments/AOT/AOT_stimuli/rescaled_final/0898_fw.mp4	0.0	316.00227189064026	1.000046968460083
44	276.94867300987244	pulse	0	t		42.0	2.5	/experiments/AOT/AOT_stimuli/rescaled_final/0898_fw.mp4	0.0	316.1857259273529	
44	277.7652659416199	movie	1		243	42.0	2.5	/experiments/AOT/AOT_stimuli/rescaled_final/0898_fw.mp4	0.0	317.00231885910034	2.4995150566101074
44	278.5486397743225	pulse	1	t		42.0	2.5	/experiments/AOT/AOT_stimuli/rescaled_final/0898_fw.mp4	0.0	317.785692691803	
44	280.1470329761505	pulse	1	t		42.0	2.5	/experiments/AOT/AOT_stimuli/rescaled_final/0898_fw.mp4	0.0	319.384085893631	
44	280.26478099823	fix_post	2		12	42.0	2.5	/experiments/AOT/AOT_stimuli/rescaled_final/0898_fw.mp4	0.0	319.50183391571045	0.10039782524108887
45	280.36517882347107	fix_pre	0		120	43.0	2.5	/experiments/AOT/AOT_stimuli/rescaled_final/0609_rv.mp4	0.0	319.60223174095154	1.0000391006469727
45	281.36521792411804	movie	1		245	43.0	2.5	/experiments/AOT/AOT_stimuli/rescaled_final/0609_rv.mp4	0.0	320.6022708415985	2.4999210834503174
45	281.7491309642792	pulse	1	t		43.0	2.5	/experiments/AOT/AOT_stimuli/rescaled_final/0609_rv.mp4	0.0	320.98618388175964	
45	283.3485848903656	pulse	1	t		43.0	2.5	/experiments/AOT/AOT_stimuli/rescaled_final/0609_rv.mp4	0.0	322.58563780784607	
45	283.86513900756836	fix_post	2		12	43.0	2.5	/experiments/AOT/AOT_stimuli/rescaled_final/0609_rv.mp4	0.0	323.1021919250488	0.10001587867736816
46	283.9651548862457	fix_pre	0		119	44.0	2.5	/experiments/AOT/AOT_stimuli/rescaled_final/1010_rv.mp4	0.0	323.2022078037262	0.9915950298309326
46	284.94868683815	pulse	0	t		44.0	2.5	/experiments/AOT/AOT_stimuli/rescaled_final/1010_rv.mp4	0.0	324.1857397556305	
46	284.95674991607666	movie	1		244	44.0	2.5	/experiments/AOT/AOT_stimuli/rescaled_final/1010_rv.mp4	0.0	324.19380283355713	2.508449077606201
46	286.5482528209686	pulse	1	t		44.0	2.5	/experiments/AOT/AOT_stimuli/rescaled_final/1010_rv.mp4	0.0	325.7853057384491	
46	287.46519899368286	fix_post	2		12	44.0	2.5	/experiments/AOT/AOT_stimuli/rescaled_final/1010_rv.mp4	0.0	326.70225191116333	0.10003399848937988
47	287.56523299217224	fix_pre	0		120	45.0	2.5	/experiments/AOT/AOT_stimuli/rescaled_final/0685_fw.mp4	0.0	326.8022859096527	0.9999239444732666
47	288.14864587783813	pulse	0	t		45.0	2.5	/experiments/AOT/AOT_stimuli/rescaled_final/0685_fw.mp4	0.0	327.3856987953186	
47	288.5651569366455	movie	1		244	45.0	2.5	/experiments/AOT/AOT_stimuli/rescaled_final/0685_fw.mp4	0.0	327.802209854126	2.4999759197235107
47	289.748694896698	pulse	1	t		45.0	2.5	/experiments/AOT/AOT_stimuli/rescaled_final/0685_fw.mp4	0.0	328.98574781417847	
47	291.065132856369	fix_post	2		12	45.0	2.5	/experiments/AOT/AOT_stimuli/rescaled_final/0685_fw.mp4	0.0	330.3021857738495	0.10000991821289062
48	291.1651427745819	fix_pre	0		120	46.0	2.5	/experiments/AOT/AOT_stimuli/rescaled_final/0712_fw.mp4	0.0	330.4021956920624	0.999932050704956
48	291.34864497184753	pulse	0	t		46.0	2.5	/experiments/AOT/AOT_stimuli/rescaled_final/0712_fw.mp4	0.0	330.585697889328	
48	292.16507482528687	movie	1		244	46.0	2.5	/experiments/AOT/AOT_stimuli/rescaled_final/0712_fw.mp4	0.0	331.40212774276733	2.4996140003204346
48	292.9486229419708	pulse	1	t		46.0	2.5	/experiments/AOT/AOT_stimuli/rescaled_final/0712_fw.mp4	0.0	332.1856758594513	
48	294.54470682144165	pulse	1	t		46.0	2.5	/experiments/AOT/AOT_stimuli/rescaled_final/0712_fw.mp4	0.0	333.7817597389221	
48	294.6646888256073	fix_post	2		12	46.0	2.5	/experiments/AOT/AOT_stimuli/rescaled_final/0712_fw.mp4	0.0	333.90174174308777	0.10033607482910156
49	294.7650249004364	fix_pre	0		120	47.0	2.5	/experiments/AOT/AOT_stimuli/rescaled_final/0389_fw.mp4	0.0	334.00207781791687	1.0001518726348877
49	295.7651767730713	movie	1		245	47.0	2.5	/experiments/AOT/AOT_stimuli/rescaled_final/0389_fw.mp4	0.0	335.00222969055176	2.4999780654907227
49	296.14802384376526	pulse	1	t		47.0	2.5	/experiments/AOT/AOT_stimuli/rescaled_final/0389_fw.mp4	0.0	335.3850767612457	
49	297.7486529350281	pulse	1	t		47.0	2.5	/experiments/AOT/AOT_stimuli/rescaled_final/0389_fw.mp4	0.0	336.98570585250854	
49	298.265154838562	fix_post	2		12	47.0	2.5	/experiments/AOT/AOT_stimuli/rescaled_final/0389_fw.mp4	0.0	337.5022077560425	0.09991312026977539
50	298.3650679588318	fix_pre	0		119	48.0	2.5	/experiments/AOT/AOT_stimuli/rescaled_final/0582_fw.mp4	0.0	337.60212087631226	0.9916918277740479
50	299.3485758304596	pulse	0	t		48.0	2.5	/experiments/AOT/AOT_stimuli/rescaled_final/0582_fw.mp4	0.0	338.58562874794006	
50	299.35675978660583	movie	1		245	48.0	2.5	/experiments/AOT/AOT_stimuli/rescaled_final/0582_fw.mp4	0.0	338.5938127040863	2.508488178253174
50	300.94812178611755	pulse	1	t		48.0	2.5	/experiments/AOT/AOT_stimuli/rescaled_final/0582_fw.mp4	0.0	340.185174703598	
50	301.865247964859	fix_post	2		12	48.0	2.5	/experiments/AOT/AOT_stimuli/rescaled_final/0582_fw.mp4	0.0	341.1023008823395	0.09982085227966309
51	301.9650688171387	fix_pre	0		120	49.0	2.5	blank	1.0	341.20212173461914	1.0000510215759277
51	302.54853987693787	pulse	0	t		49.0	2.5	blank	1.0	341.78559279441833	
51	302.9651198387146	movie	1		300	49.0	2.5	blank	1.0	342.20217275619507	2.499640941619873
51	304.1481919288635	pulse	1	t		49.0	2.5	blank	1.0	343.385244846344	
51	305.4647607803345	fix_post	2		12	49.0	2.5	blank	1.0	344.70181369781494	0.1004641056060791
52	305.56522488594055	fix_pre	0		120	50.0	2.5	/experiments/AOT/AOT_stimuli/rescaled_final/1166_fw.mp4	0.0	344.802277803421	0.9997270107269287
52	305.7483937740326	pulse	0	t		50.0	2.5	/experiments/AOT/AOT_stimuli/rescaled_final/1166_fw.mp4	0.0	344.98544669151306	
52	306.5649518966675	movie	1		244	50.0	2.5	/experiments/AOT/AOT_stimuli/rescaled_final/1166_fw.mp4	0.0	345.80200481414795	2.5001161098480225
52	307.34857082366943	pulse	1	t		50.0	2.5	/experiments/AOT/AOT_stimuli/rescaled_final/1166_fw.mp4	0.0	346.5856237411499	
52	308.94718980789185	pulse	1	t		50.0	2.5	/experiments/AOT/AOT_stimuli/rescaled_final/1166_fw.mp4	0.0	348.1842427253723	
52	309.0650680065155	fix_post	2		12	50.0	2.5	/experiments/AOT/AOT_stimuli/rescaled_final/1166_fw.mp4	0.0	348.302120923996	0.10002493858337402
53	309.1650929450989	fix_pre	0		120	51.0	2.5	/experiments/AOT/AOT_stimuli/rescaled_final/1236_rv.mp4	0.0	348.40214586257935	0.9999878406524658
53	310.16508078575134	movie	1		244	51.0	2.5	/experiments/AOT/AOT_stimuli/rescaled_final/1236_rv.mp4	0.0	349.4021337032318	2.499891996383667
53	310.5481188297272	pulse	1	t		51.0	2.5	/experiments/AOT/AOT_stimuli/rescaled_final/1236_rv.mp4	0.0	349.78517174720764	
53	312.1483929157257	pulse	1	t		51.0	2.5	/experiments/AOT/AOT_stimuli/rescaled_final/1236_rv.mp4	0.0	351.3854458332062	
53	312.664972782135	fix_post	2		12	51.0	2.5	/experiments/AOT/AOT_stimuli/rescaled_final/1236_rv.mp4	0.0	351.9020256996155	0.10012602806091309
54	312.7650988101959	fix_pre	0		119	52.0	2.5	/experiments/AOT/AOT_stimuli/rescaled_final/1686_fw.mp4	0.0	352.0021517276764	0.9916541576385498
54	313.7485728263855	pulse	0	t		52.0	2.5	/experiments/AOT/AOT_stimuli/rescaled_final/1686_fw.mp4	0.0	352.98562574386597	
54	313.7567529678345	movie	1		245	52.0	2.5	/experiments/AOT/AOT_stimuli/rescaled_final/1686_fw.mp4	0.0	352.99380588531494	2.508237838745117
54	315.3480598926544	pulse	1	t		52.0	2.5	/experiments/AOT/AOT_stimuli/rescaled_final/1686_fw.mp4	0.0	354.5851128101349	
54	316.2649908065796	fix_post	2		12	52.0	2.5	/experiments/AOT/AOT_stimuli/rescaled_final/1686_fw.mp4	0.0	355.50204372406006	0.09998106956481934
55	316.3649718761444	fix_pre	0		120	53.0	2.5	/experiments/AOT/AOT_stimuli/rescaled_final/1182_fw.mp4	0.0	355.6020247936249	1.0000429153442383
55	316.9485058784485	pulse	0	t		53.0	2.5	/experiments/AOT/AOT_stimuli/rescaled_final/1182_fw.mp4	0.0	356.18555879592896	
55	317.36501479148865	movie	1		244	53.0	2.5	/experiments/AOT/AOT_stimuli/rescaled_final/1182_fw.mp4	0.0	356.6020677089691	2.499948024749756
55	318.54856395721436	pulse	1	t		53.0	2.5	/experiments/AOT/AOT_stimuli/rescaled_final/1182_fw.mp4	0.0	357.7856168746948	
55	319.8649628162384	fix_post	2		12	53.0	2.5	/experiments/AOT/AOT_stimuli/rescaled_final/1182_fw.mp4	0.0	359.1020157337189	0.09999513626098633
56	319.9649579524994	fix_pre	0		120	54.0	2.5	blank	1.0	359.20201086997986	1.0000970363616943
56	320.14862179756165	pulse	0	t		54.0	2.5	blank	1.0	359.3856747150421	
56	320.9650549888611	movie	1		300	54.0	2.5	blank	1.0	360.20210790634155	2.4999938011169434
56	321.748498916626	pulse	1	t		54.0	2.5	blank	1.0	360.98555183410645	
56	323.3484687805176	pulse	1	t		54.0	2.5	blank	1.0	362.58552169799805	
56	323.465048789978	fix_post	2		12	54.0	2.5	blank	1.0	362.7021017074585	0.09995603561401367
57	323.56500482559204	fix_pre	0		120	55.0	2.5	/experiments/AOT/AOT_stimuli/rescaled_final/1729_rv.mp4	0.0	362.8020577430725	0.9999361038208008
57	324.56494092941284	movie	1		244	55.0	2.5	/experiments/AOT/AOT_stimuli/rescaled_final/1729_rv.mp4	0.0	363.8019938468933	2.500035047531128
57	324.94943594932556	pulse	1	t		55.0	2.5	/experiments/AOT/AOT_stimuli/rescaled_final/1729_rv.mp4	0.0	364.18648886680603	
57	326.5484428405762	pulse	1	t		55.0	2.5	/experiments/AOT/AOT_stimuli/rescaled_final/1729_rv.mp4	0.0	365.78549575805664	
57	327.06497597694397	fix_post	2		12	55.0	2.5	/experiments/AOT/AOT_stimuli/rescaled_final/1729_rv.mp4	0.0	366.30202889442444	0.10004401206970215
58	327.1650199890137	fix_pre	0		119	56.0	2.5	/experiments/AOT/AOT_stimuli/rescaled_final/0609_fw.mp4	0.0	366.40207290649414	0.9916138648986816
58	328.14862990379333	pulse	0	t		56.0	2.5	/experiments/AOT/AOT_stimuli/rescaled_final/0609_fw.mp4	0.0	367.3856828212738	
58	328.15663385391235	movie	1		245	56.0	2.5	/experiments/AOT/AOT_stimuli/rescaled_final/0609_fw.mp4	0.0	367.3936867713928	2.5082600116729736
58	329.7484769821167	pulse	1	t		56.0	2.5	/experiments/AOT/AOT_stimuli/rescaled_final/0609_fw.mp4	0.0	368.98552989959717	
58	330.6648938655853	fix_post	2		12	56.0	2.5	/experiments/AOT/AOT_stimuli/rescaled_final/0609_fw.mp4	0.0	369.9019467830658	0.09998893737792969
59	330.76488280296326	fix_pre	0		120	57.0	2.5	/experiments/AOT/AOT_stimuli/rescaled_final/2119_fw.mp4	0.0	370.0019357204437	1.0000641345977783
59	331.3483958244324	pulse	0	t		57.0	2.5	/experiments/AOT/AOT_stimuli/rescaled_final/2119_fw.mp4	0.0	370.58544874191284	
59	331.76494693756104	movie	1		249	57.0	2.5	/experiments/AOT/AOT_stimuli/rescaled_final/2119_fw.mp4	0.0	371.0019998550415	2.5000128746032715
59	332.948410987854	pulse	1	t		57.0	2.5	/experiments/AOT/AOT_stimuli/rescaled_final/2119_fw.mp4	0.0	372.1854639053345	
59	334.2649598121643	fix_post	2		12	57.0	2.5	/experiments/AOT/AOT_stimuli/rescaled_final/2119_fw.mp4	0.0	373.5020127296448	0.10004115104675293
60	334.36500096321106	fix_pre	0		120	58.0	2.5	/experiments/AOT/AOT_stimuli/rescaled_final/0350_rv.mp4	0.0	373.6020538806915	0.9998679161071777
60	334.54840779304504	pulse	0	t		58.0	2.5	/experiments/AOT/AOT_stimuli/rescaled_final/0350_rv.mp4	0.0	373.7854607105255	
60	335.36486887931824	movie	1		242	58.0	2.5	/experiments/AOT/AOT_stimuli/rescaled_final/0350_rv.mp4	0.0	374.6019217967987	2.500051975250244
60	336.14837288856506	pulse	1	t		58.0	2.5	/experiments/AOT/AOT_stimuli/rescaled_final/0350_rv.mp4	0.0	375.38542580604553	
60	337.7469758987427	pulse	1	t		58.0	2.5	/experiments/AOT/AOT_stimuli/rescaled_final/0350_rv.mp4	0.0	376.98402881622314	
60	337.8649208545685	fix_post	2		12	58.0	2.5	/experiments/AOT/AOT_stimuli/rescaled_final/0350_rv.mp4	0.0	377.10197377204895	0.10001802444458008
61	337.96493887901306	fix_pre	0		120	59.0	2.5	/experiments/AOT/AOT_stimuli/rescaled_final/1892_fw.mp4	0.0	377.20199179649353	1.0000081062316895
61	338.96494698524475	movie	1		247	59.0	2.5	/experiments/AOT/AOT_stimuli/rescaled_final/1892_fw.mp4	0.0	378.2019999027252	2.4999589920043945
61	339.3480739593506	pulse	1	t		59.0	2.5	/experiments/AOT/AOT_stimuli/rescaled_final/1892_fw.mp4	0.0	378.58512687683105	
61	340.9483997821808	pulse	1	t		59.0	2.5	/experiments/AOT/AOT_stimuli/rescaled_final/1892_fw.mp4	0.0	380.18545269966125	
61	341.46490597724915	fix_post	2		12	59.0	2.5	/experiments/AOT/AOT_stimuli/rescaled_final/1892_fw.mp4	0.0	380.7019588947296	0.10001087188720703
62	341.56491684913635	fix_pre	0		119	60.0	2.5	/experiments/AOT/AOT_stimuli/rescaled_final/0712_rv.mp4	0.0	380.8019697666168	0.9915931224822998
62	342.5483238697052	pulse	0	t		60.0	2.5	/experiments/AOT/AOT_stimuli/rescaled_final/0712_rv.mp4	0.0	381.78537678718567	
62	342.55650997161865	movie	1		247	60.0	2.5	/experiments/AOT/AOT_stimuli/rescaled_final/0712_rv.mp4	0.0	381.7935628890991	2.5083839893341064
62	344.14935398101807	pulse	1	t		60.0	2.5	/experiments/AOT/AOT_stimuli/rescaled_final/0712_rv.mp4	0.0	383.38640689849854	
62	345.06489396095276	fix_post	2		12	60.0	2.5	/experiments/AOT/AOT_stimuli/rescaled_final/0712_rv.mp4	0.0	384.3019468784332	0.09995293617248535
63	345.16484689712524	fix_pre	0		120	61.0	2.5	/experiments/AOT/AOT_stimuli/rescaled_final/0236_rv.mp4	0.0	384.4018998146057	0.9999780654907227
63	345.74841380119324	pulse	0	t		61.0	2.5	/experiments/AOT/AOT_stimuli/rescaled_final/0236_rv.mp4	0.0	384.9854667186737	
63	346.16482496261597	movie	1		247	61.0	2.5	/experiments/AOT/AOT_stimuli/rescaled_final/0236_rv.mp4	0.0	385.40187788009644	2.4999778270721436
63	347.3484477996826	pulse	1	t		61.0	2.5	/experiments/AOT/AOT_stimuli/rescaled_final/0236_rv.mp4	0.0	386.5855007171631	
63	348.6648027896881	fix_post	2		12	61.0	2.5	/experiments/AOT/AOT_stimuli/rescaled_final/0236_rv.mp4	0.0	387.9018557071686	0.1000361442565918
64	348.7648389339447	fix_pre	0		120	62.0	2.5	blank	1.0	388.00189185142517	1.000082015991211
64	348.9483587741852	pulse	0	t		62.0	2.5	blank	1.0	388.18541169166565	
64	349.7649209499359	movie	1		300	62.0	2.5	blank	1.0	389.0019738674164	2.4999918937683105
64	350.54836988449097	pulse	1	t		62.0	2.5	blank	1.0	389.78542280197144	
64	352.14830780029297	pulse	1	t		62.0	2.5	blank	1.0	391.38536071777344	
64	352.2649128437042	fix_post	2		12	62.0	2.5	blank	1.0	391.5019657611847	0.09994196891784668
65	352.36485481262207	fix_pre	0		120	63.0	2.5	/experiments/AOT/AOT_stimuli/rescaled_final/0534_rv.mp4	0.0	391.60190773010254	0.999981164932251
65	353.3648359775543	movie	1		245	63.0	2.5	/experiments/AOT/AOT_stimuli/rescaled_final/0534_rv.mp4	0.0	392.6018888950348	2.50003981590271
65	353.748361825943	pulse	1	t		63.0	2.5	/experiments/AOT/AOT_stimuli/rescaled_final/0534_rv.mp4	0.0	392.98541474342346	
65	355.3483259677887	pulse	1	t		63.0	2.5	/experiments/AOT/AOT_stimuli/rescaled_final/0534_rv.mp4	0.0	394.58537888526917	
65	355.86487579345703	fix_post	2		12	63.0	2.5	/experiments/AOT/AOT_stimuli/rescaled_final/0534_rv.mp4	0.0	395.1019287109375	0.09993505477905273
66	355.9648108482361	fix_pre	0		119	64.0	2.5	/experiments/AOT/AOT_stimuli/rescaled_final/0720_fw.mp4	0.0	395.20186376571655	0.991631031036377
66	356.94842886924744	pulse	0	t		64.0	2.5	/experiments/AOT/AOT_stimuli/rescaled_final/0720_fw.mp4	0.0	396.1854817867279	
66	356.95644187927246	movie	1		245	64.0	2.5	/experiments/AOT/AOT_stimuli/rescaled_final/0720_fw.mp4	0.0	396.19349479675293	2.5079660415649414
66	358.5479037761688	pulse	1	t		64.0	2.5	/experiments/AOT/AOT_stimuli/rescaled_final/0720_fw.mp4	0.0	397.7849566936493	
66	359.4644079208374	fix_post	2		12	64.0	2.5	/experiments/AOT/AOT_stimuli/rescaled_final/0720_fw.mp4	0.0	398.70146083831787	0.10055708885192871
67	359.56496500968933	fix_pre	0		120	65.0	2.5	/experiments/AOT/AOT_stimuli/rescaled_final/1459_fw.mp4	0.0	398.8020179271698	0.999518871307373
67	360.14790892601013	pulse	0	t		65.0	2.5	/experiments/AOT/AOT_stimuli/rescaled_final/1459_fw.mp4	0.0	399.3849618434906	
67	360.5644838809967	movie	1		245	65.0	2.5	/experiments/AOT/AOT_stimuli/rescaled_final/1459_fw.mp4	0.0	399.8015367984772	2.5003559589385986
67	361.74864983558655	pulse	1	t		65.0	2.5	/experiments/AOT/AOT_stimuli/rescaled_final/1459_fw.mp4	0.0	400.985702753067	
67	363.0648398399353	fix_post	2		12	65.0	2.5	/experiments/AOT/AOT_stimuli/rescaled_final/1459_fw.mp4	0.0	402.30189275741577	0.09993696212768555
68	363.164776802063	fix_pre	0		120	66.0	2.5	/experiments/AOT/AOT_stimuli/rescaled_final/0447_rv.mp4	0.0	402.40182971954346	1.0000581741333008
68	363.348308801651	pulse	0	t		66.0	2.5	/experiments/AOT/AOT_stimuli/rescaled_final/0447_rv.mp4	0.0	402.58536171913147	
68	364.1648349761963	movie	1		245	66.0	2.5	/experiments/AOT/AOT_stimuli/rescaled_final/0447_rv.mp4	0.0	403.40188789367676	2.4998998641967773
68	364.9482088088989	pulse	1	t		66.0	2.5	/experiments/AOT/AOT_stimuli/rescaled_final/0447_rv.mp4	0.0	404.1852617263794	
68	366.5483829975128	pulse	1	t		66.0	2.5	/experiments/AOT/AOT_stimuli/rescaled_final/0447_rv.mp4	0.0	405.7854359149933	
68	366.66473484039307	fix_post	2		12	66.0	2.5	/experiments/AOT/AOT_stimuli/rescaled_final/0447_rv.mp4	0.0	405.90178775787354	0.10006403923034668
69	366.7647988796234	fix_pre	0		120	67.0	2.5	/experiments/AOT/AOT_stimuli/rescaled_final/0850_fw.mp4	0.0	406.0018517971039	0.999946117401123
69	367.76474499702454	movie	1		246	67.0	2.5	/experiments/AOT/AOT_stimuli/rescaled_final/0850_fw.mp4	0.0	407.001797914505	2.500067949295044
69	368.1482789516449	pulse	1	t		67.0	2.5	/experiments/AOT/AOT_stimuli/rescaled_final/0850_fw.mp4	0.0	407.38533186912537	
69	369.74831199645996	pulse	1	t		67.0	2.5	/experiments/AOT/AOT_stimuli/rescaled_final/0850_fw.mp4	0.0	408.98536491394043	
69	370.2648129463196	fix_post	2		12	67.0	2.5	/experiments/AOT/AOT_stimuli/rescaled_final/0850_fw.mp4	0.0	409.50186586380005	0.09990286827087402
70	370.36471581459045	fix_pre	0		119	68.0	2.5	/experiments/AOT/AOT_stimuli/rescaled_final/2053_fw.mp4	0.0	409.6017687320709	0.9916541576385498
70	371.3481810092926	pulse	0	t		68.0	2.5	/experiments/AOT/AOT_stimuli/rescaled_final/2053_fw.mp4	0.0	410.58523392677307	
70	371.356369972229	movie	1		247	68.0	2.5	/experiments/AOT/AOT_stimuli/rescaled_final/2053_fw.mp4	0.0	410.5934228897095	2.5079658031463623
70	372.94783186912537	pulse	1	t		68.0	2.5	/experiments/AOT/AOT_stimuli/rescaled_final/2053_fw.mp4	0.0	412.18488478660583	
70	373.86433577537537	fix_post	2		12	68.0	2.5	/experiments/AOT/AOT_stimuli/rescaled_final/2053_fw.mp4	0.0	413.10138869285583	0.10038518905639648
71	373.96472096443176	fix_pre	0		120	69.0	2.5	/experiments/AOT/AOT_stimuli/rescaled_final/1939_rv.mp4	0.0	413.20177388191223	0.9999508857727051
71	374.54832792282104	pulse	0	t		69.0	2.5	/experiments/AOT/AOT_stimuli/rescaled_final/1939_rv.mp4	0.0	413.7853808403015	
71	374.96467185020447	movie	1		244	69.0	2.5	/experiments/AOT/AOT_stimuli/rescaled_final/1939_rv.mp4	0.0	414.20172476768494	2.5000009536743164
71	376.14825987815857	pulse	1	t		69.0	2.5	/experiments/AOT/AOT_stimuli/rescaled_final/1939_rv.mp4	0.0	415.38531279563904	
71	377.4646728038788	fix_post	2		12	69.0	2.5	/experiments/AOT/AOT_stimuli/rescaled_final/1939_rv.mp4	0.0	416.70172572135925	0.09996914863586426
72	377.56464195251465	fix_pre	0		120	70.0	2.5	blank	1.0	416.8016948699951	1.0000429153442383
72	377.74826884269714	pulse	0	t		70.0	2.5	blank	1.0	416.9853217601776	
72	378.5646848678589	movie	1		300	70.0	2.5	blank	1.0	417.80173778533936	2.499951124191284
72	379.34818291664124	pulse	1	t		70.0	2.5	blank	1.0	418.5852358341217	
72	380.94812178611755	pulse	1	t		70.0	2.5	blank	1.0	420.185174703598	
72	381.06463599205017	fix_post	2		12	70.0	2.5	blank	1.0	420.30168890953064	0.1001129150390625
73	381.16474890708923	fix_pre	0		120	71.0	2.5	/experiments/AOT/AOT_stimuli/rescaled_final/2057_fw.mp4	0.0	420.4018018245697	0.9998860359191895
73	382.1646349430084	movie	1		245	71.0	2.5	/experiments/AOT/AOT_stimuli/rescaled_final/2057_fw.mp4	0.0	421.4016878604889	2.500088930130005
73	382.5478367805481	pulse	1	t		71.0	2.5	/experiments/AOT/AOT_stimuli/rescaled_final/2057_fw.mp4	0.0	421.78488969802856	
73	384.1481509208679	pulse	1	t		71.0	2.5	/experiments/AOT/AOT_stimuli/rescaled_final/2057_fw.mp4	0.0	423.3852038383484	
73	384.6647238731384	fix_post	2		12	71.0	2.5	/experiments/AOT/AOT_stimuli/rescaled_final/2057_fw.mp4	0.0	423.9017767906189	0.09993791580200195
74	384.76466178894043	fix_pre	0		119	72.0	2.5	/experiments/AOT/AOT_stimuli/rescaled_final/0436_fw.mp4	0.0	424.0017147064209	0.9916441440582275
74	385.7481589317322	pulse	0	t		72.0	2.5	/experiments/AOT/AOT_stimuli/rescaled_final/0436_fw.mp4	0.0	424.98521184921265	
74	385.75630593299866	movie	1		246	72.0	2.5	/experiments/AOT/AOT_stimuli/rescaled_final/0436_fw.mp4	0.0	424.9933588504791	2.5083229541778564
74	387.34781980514526	pulse	1	t		72.0	2.5	/experiments/AOT/AOT_stimuli/rescaled_final/0436_fw.mp4	0.0	426.58487272262573	
74	388.2646288871765	fix_post	2		12	72.0	2.5	/experiments/AOT/AOT_stimuli/rescaled_final/0436_fw.mp4	0.0	427.501681804657	0.10007405281066895
75	388.3647029399872	fix_pre	0		120	73.0	2.5	/experiments/AOT/AOT_stimuli/rescaled_final/1578_fw.mp4	0.0	427.60175585746765	0.9999299049377441
75	388.94816398620605	pulse	0	t		73.0	2.5	/experiments/AOT/AOT_stimuli/rescaled_final/1578_fw.mp4	0.0	428.1852169036865	
75	389.3646328449249	movie	1		248	73.0	2.5	/experiments/AOT/AOT_stimuli/rescaled_final/1578_fw.mp4	0.0	428.6016857624054	2.5000200271606445
75	390.5481197834015	pulse	1	t		73.0	2.5	/experiments/AOT/AOT_stimuli/rescaled_final/1578_fw.mp4	0.0	429.78517270088196	
75	391.86465287208557	fix_post	2		12	73.0	2.5	/experiments/AOT/AOT_stimuli/rescaled_final/1578_fw.mp4	0.0	431.10170578956604	0.09995794296264648
76	391.9646108150482	fix_pre	0		120	74.0	2.5	/experiments/AOT/AOT_stimuli/rescaled_final/1459_fw.mp4	0.0	431.2016637325287	1.0000381469726562
76	392.1481177806854	pulse	0	t		74.0	2.5	/experiments/AOT/AOT_stimuli/rescaled_final/1459_fw.mp4	0.0	431.3851706981659	
76	392.9646489620209	movie	1		245	74.0	2.5	/experiments/AOT/AOT_stimuli/rescaled_final/1459_fw.mp4	0.0	432.20170187950134	2.500006914138794
76	393.7481617927551	pulse	1	t		74.0	2.5	/experiments/AOT/AOT_stimuli/rescaled_final/1459_fw.mp4	0.0	432.9852147102356	
76	395.346647977829	pulse	1	t		74.0	2.5	/experiments/AOT/AOT_stimuli/rescaled_final/1459_fw.mp4	0.0	434.58370089530945	
76	395.46465587615967	fix_post	2		12	74.0	2.5	/experiments/AOT/AOT_stimuli/rescaled_final/1459_fw.mp4	0.0	434.70170879364014	0.1000070571899414
77	395.5646629333496	fix_pre	0		120	75.0	2.5	/experiments/AOT/AOT_stimuli/rescaled_final/0582_fw.mp4	0.0	434.8017158508301	1.000093936920166
77	396.5647568702698	movie	1		247	75.0	2.5	/experiments/AOT/AOT_stimuli/rescaled_final/0582_fw.mp4	0.0	435.80180978775024	2.499872922897339
77	396.94766187667847	pulse	1	t		75.0	2.5	/experiments/AOT/AOT_stimuli/rescaled_final/0582_fw.mp4	0.0	436.18471479415894	
77	398.5480999946594	pulse	1	t		75.0	2.5	/experiments/AOT/AOT_stimuli/rescaled_final/0582_fw.mp4	0.0	437.7851529121399	
77	399.0646297931671	fix_post	2		12	75.0	2.5	/experiments/AOT/AOT_stimuli/rescaled_final/0582_fw.mp4	0.0	438.3016827106476	0.10007500648498535
78	399.1647047996521	fix_pre	0		119	76.0	2.5	blank	1.0	438.40175771713257	0.9916021823883057
78	400.148108959198	pulse	0	t		76.0	2.5	blank	1.0	439.38516187667847	
78	400.1563069820404	movie	1		301	76.0	2.5	blank	1.0	439.3933598995209	2.508296012878418
78	401.748144865036	pulse	1	t		76.0	2.5	blank	1.0	440.9851977825165	
78	402.6646029949188	fix_post	2		12	76.0	2.5	blank	1.0	441.9016559123993	0.10002398490905762
79	402.7646269798279	fix_pre	0		120	77.0	2.5	/experiments/AOT/AOT_stimuli/rescaled_final/1716_rv.mp4	0.0	442.00167989730835	0.9998970031738281
79	403.34806394577026	pulse	0	t		77.0	2.5	/experiments/AOT/AOT_stimuli/rescaled_final/1716_rv.mp4	0.0	442.58511686325073	
79	403.7645239830017	movie	1		243	77.0	2.5	/experiments/AOT/AOT_stimuli/rescaled_final/1716_rv.mp4	0.0	443.0015769004822	2.5000319480895996
79	404.9481439590454	pulse	1	t		77.0	2.5	/experiments/AOT/AOT_stimuli/rescaled_final/1716_rv.mp4	0.0	444.1851968765259	
79	406.2645559310913	fix_post	2		12	77.0	2.5	/experiments/AOT/AOT_stimuli/rescaled_final/1716_rv.mp4	0.0	445.5016088485718	0.09998703002929688
80	406.3645429611206	fix_pre	0		120	78.0	2.5	/experiments/AOT/AOT_stimuli/rescaled_final/0926_fw.mp4	0.0	445.6015958786011	1.0000300407409668
80	406.54809379577637	pulse	0	t		78.0	2.5	/experiments/AOT/AOT_stimuli/rescaled_final/0926_fw.mp4	0.0	445.78514671325684	
80	407.3645730018616	movie	1		245	78.0	2.5	/experiments/AOT/AOT_stimuli/rescaled_final/0926_fw.mp4	0.0	446.60162591934204	2.499973773956299
80	408.148069858551	pulse	1	t		78.0	2.5	/experiments/AOT/AOT_stimuli/rescaled_final/0926_fw.mp4	0.0	447.3851227760315	
80	409.74667382240295	pulse	1	t		78.0	2.5	/experiments/AOT/AOT_stimuli/rescaled_final/0926_fw.mp4	0.0	448.9837267398834	
80	409.86454677581787	fix_post	2		12	78.0	2.5	/experiments/AOT/AOT_stimuli/rescaled_final/0926_fw.mp4	0.0	449.10159969329834	0.10001707077026367
81	409.96456384658813	fix_pre	0		120	79.0	2.5	/experiments/AOT/AOT_stimuli/rescaled_final/0437_rv.mp4	0.0	449.2016167640686	0.9996509552001953
81	410.96421480178833	movie	1		243	79.0	2.5	/experiments/AOT/AOT_stimuli/rescaled_final/0437_rv.mp4	0.0	450.2012677192688	2.500439167022705
81	411.34827280044556	pulse	1	t		79.0	2.5	/experiments/AOT/AOT_stimuli/rescaled_final/0437_rv.mp4	0.0	450.585325717926	
81	412.9481449127197	pulse	1	t		79.0	2.5	/experiments/AOT/AOT_stimuli/rescaled_final/0437_rv.mp4	0.0	452.1851978302002	
81	413.46465396881104	fix_post	2		12	79.0	2.5	/experiments/AOT/AOT_stimuli/rescaled_final/0437_rv.mp4	0.0	452.7017068862915	0.09987902641296387
82	413.564532995224	fix_pre	0		119	80.0	2.5	/experiments/AOT/AOT_stimuli/rescaled_final/0004_fw.mp4	0.0	452.80158591270447	0.9916729927062988
82	414.54804491996765	pulse	0	t		80.0	2.5	/experiments/AOT/AOT_stimuli/rescaled_final/0004_fw.mp4	0.0	453.7850978374481	
82	414.5562059879303	movie	1		247	80.0	2.5	/experiments/AOT/AOT_stimuli/rescaled_final/0004_fw.mp4	0.0	453.79325890541077	2.508405923843384
82	416.1486020088196	pulse	1	t		80.0	2.5	/experiments/AOT/AOT_stimuli/rescaled_final/0004_fw.mp4	0.0	455.38565492630005	
82	417.0646119117737	fix_post	2		12	80.0	2.5	/experiments/AOT/AOT_stimuli/rescaled_final/0004_fw.mp4	0.0	456.30166482925415	0.09972095489501953
83	417.1643328666687	fix_pre	0		120	81.0	2.5	/experiments/AOT/AOT_stimuli/rescaled_final/1459_rv.mp4	0.0	456.40138578414917	1.0004990100860596
83	417.7482419013977	pulse	0	t		81.0	2.5	/experiments/AOT/AOT_stimuli/rescaled_final/1459_rv.mp4	0.0	456.9852948188782	
83	418.16483187675476	movie	1		244	81.0	2.5	/experiments/AOT/AOT_stimuli/rescaled_final/1459_rv.mp4	0.0	457.40188479423523	2.499664068222046
83	419.348130941391	pulse	1	t		81.0	2.5	/experiments/AOT/AOT_stimuli/rescaled_final/1459_rv.mp4	0.0	458.58518385887146	
83	420.6644959449768	fix_post	2		12	81.0	2.5	/experiments/AOT/AOT_stimuli/rescaled_final/1459_rv.mp4	0.0	459.9015488624573	0.10008883476257324
84	420.7645847797394	fix_pre	0		120	82.0	2.5	/experiments/AOT/AOT_stimuli/rescaled_final/0046_rv.mp4	0.0	460.00163769721985	0.9999091625213623
84	420.9480628967285	pulse	0	t		82.0	2.5	/experiments/AOT/AOT_stimuli/rescaled_final/0046_rv.mp4	0.0	460.185115814209	
84	421.76449394226074	movie	1		245	82.0	2.5	/experiments/AOT/AOT_stimuli/rescaled_final/0046_rv.mp4	0.0	461.0015468597412	2.5000228881835938
84	422.54784178733826	pulse	1	t		82.0	2.5	/experiments/AOT/AOT_stimuli/rescaled_final/0046_rv.mp4	0.0	461.7848947048187	
84	424.147567987442	pulse	1	t		82.0	2.5	/experiments/AOT/AOT_stimuli/rescaled_final/0046_rv.mp4	0.0	463.3846209049225	
84	424.26451683044434	fix_post	2		12	82.0	2.5	/experiments/AOT/AOT_stimuli/rescaled_final/0046_rv.mp4	0.0	463.5015697479248	0.09995794296264648
85	424.364474773407	fix_pre	0		120	83.0	2.5	blank	1.0	463.60152769088745	1.0000262260437012
85	425.3645009994507	movie	1		300	83.0	2.5	blank	1.0	464.60155391693115	2.499929904937744
85	425.7480797767639	pulse	1	t		83.0	2.5	blank	1.0	464.9851326942444	
85	427.3479027748108	pulse	1	t		83.0	2.5	blank	1.0	466.58495569229126	
85	427.8644309043884	fix_post	2		12	83.0	2.5	blank	1.0	467.1014838218689	0.09997105598449707
87	427.9644019603729	stim	0		1716					467.2014548778534	14.3000009059906
87	428.94793796539307	pulse	0	t						468.18499088287354	
87	430.5478229522705	pulse	0	t						469.784875869751	
87	432.1479208469391	pulse	0	t						471.38497376441956	
87	433.7479329109192	pulse	0	t						472.98498582839966	
87	435.3478858470917	pulse	0	t						474.58493876457214	
87	436.94790387153625	pulse	0	t						476.1849567890167	
87	438.54786491394043	pulse	0	t						477.7849178314209	
87	440.1478078365326	pulse	0	t						479.38486075401306	
87	441.74787497520447	pulse	0	t						480.98492789268494	
