trial_nr	onset	event_type	phase	response	nr_frames	movie_index	movie_duration	movie_file	blank	onset_abs	duration
0	0.1248629093170166	stim	0		79					64.58219289779663	0.6588120460510254
0	0.7757210731506348	response	0	space						65.23305106163025	
1	0.783674955368042	stim	0		4932					65.24100494384766	41.09932589530945
1	41.87495684623718	pulse	0	t						106.3322868347168	
1	41.88300085067749	stim	1		1717					106.3403308391571	14.308386087417603
1	43.47489404678345	pulse	1	t						107.93222403526306	
1	45.07483792304993	pulse	1	t						109.53216791152954	
1	46.67487692832947	pulse	1	t						111.13220691680908	
1	48.274852991104126	pulse	1	t						112.73218297958374	
1	49.87489891052246	pulse	1	t						114.33222889900208	
1	51.47477197647095	pulse	1	t						115.93210196495056	
1	53.074825048446655	pulse	1	t						117.53215503692627	
1	54.67484903335571	pulse	1	t						119.13217902183533	
2	56.19138693809509	fix_pre	0		11	0.0	2.5	/experiments/AOT/AOT_stimuli/rescaled_final/0222_fw.mp4	0.0	120.6487169265747	0.09199810028076172
2	56.27526307106018	pulse	0	t		0.0	2.5	/experiments/AOT/AOT_stimuli/rescaled_final/0222_fw.mp4	0.0	120.7325930595398	
2	56.283385038375854	movie	1		243	0.0	2.5	/experiments/AOT/AOT_stimuli/rescaled_final/0222_fw.mp4	0.0	120.74071502685547	2.508821964263916
2	57.87436294555664	pulse	1	t		0.0	2.5	/experiments/AOT/AOT_stimuli/rescaled_final/0222_fw.mp4	0.0	122.33169293403625	
2	58.79220700263977	fix_post	2		12	0.0	2.5	/experiments/AOT/AOT_stimuli/rescaled_final/0222_fw.mp4	0.0	123.24953699111938	0.09907007217407227
3	58.89127707481384	fix_pre	0		120	1.0	2.5	/experiments/AOT/AOT_stimuli/rescaled_final/0675_rv.mp4	0.0	123.34860706329346	1.0004007816314697
3	59.4756178855896	pulse	0	t		1.0	2.5	/experiments/AOT/AOT_stimuli/rescaled_final/0675_rv.mp4	0.0	123.93294787406921	
3	59.89167785644531	movie	1		244	1.0	2.5	/experiments/AOT/AOT_stimuli/rescaled_final/0675_rv.mp4	0.0	124.34900784492493	2.500040054321289
3	61.07438087463379	pulse	1	t		1.0	2.5	/experiments/AOT/AOT_stimuli/rescaled_final/0675_rv.mp4	0.0	125.5317108631134	
3	62.3917179107666	fix_post	2		12	1.0	2.5	/experiments/AOT/AOT_stimuli/rescaled_final/0675_rv.mp4	0.0	126.84904789924622	0.09959697723388672
4	62.49131488800049	fix_pre	0		120	2.0	2.5	/experiments/AOT/AOT_stimuli/rescaled_final/2115_fw.mp4	0.0	126.9486448764801	1.0008361339569092
4	62.67482089996338	pulse	0	t		2.0	2.5	/experiments/AOT/AOT_stimuli/rescaled_final/2115_fw.mp4	0.0	127.132150888443	
4	63.4921510219574	movie	1		246	2.0	2.5	/experiments/AOT/AOT_stimuli/rescaled_final/2115_fw.mp4	0.0	127.94948101043701	2.4995529651641846
4	64.27427005767822	pulse	1	t		2.0	2.5	/experiments/AOT/AOT_stimuli/rescaled_final/2115_fw.mp4	0.0	128.73160004615784	
4	65.87289690971375	pulse	1	t		2.0	2.5	/experiments/AOT/AOT_stimuli/rescaled_final/2115_fw.mp4	0.0	130.33022689819336	
4	65.99170398712158	fix_post	2		12	2.0	2.5	/experiments/AOT/AOT_stimuli/rescaled_final/2115_fw.mp4	0.0	130.4490339756012	0.09919095039367676
5	66.09089493751526	fix_pre	0		120	3.0	2.5	/experiments/AOT/AOT_stimuli/rescaled_final/1158_rv.mp4	0.0	130.54822492599487	1.0014081001281738
5	67.09230303764343	movie	1		244	3.0	2.5	/experiments/AOT/AOT_stimuli/rescaled_final/1158_rv.mp4	0.0	131.54963302612305	2.499492883682251
5	67.47454786300659	pulse	1	t		3.0	2.5	/experiments/AOT/AOT_stimuli/rescaled_final/1158_rv.mp4	0.0	131.9318778514862	
5	69.07470798492432	pulse	1	t		3.0	2.5	/experiments/AOT/AOT_stimuli/rescaled_final/1158_rv.mp4	0.0	133.53203797340393	
5	69.59179592132568	fix_post	2		12	3.0	2.5	/experiments/AOT/AOT_stimuli/rescaled_final/1158_rv.mp4	0.0	134.0491259098053	0.09950494766235352
6	69.69130086898804	fix_pre	0		119	4.0	2.5	/experiments/AOT/AOT_stimuli/rescaled_final/0856_fw.mp4	0.0	134.14863085746765	0.9921061992645264
6	70.67576694488525	pulse	0	t		4.0	2.5	/experiments/AOT/AOT_stimuli/rescaled_final/0856_fw.mp4	0.0	135.13309693336487	
6	70.68340706825256	movie	1		245	4.0	2.5	/experiments/AOT/AOT_stimuli/rescaled_final/0856_fw.mp4	0.0	135.14073705673218	2.508258819580078
6	72.2741858959198	pulse	1	t		4.0	2.5	/experiments/AOT/AOT_stimuli/rescaled_final/0856_fw.mp4	0.0	136.7315158843994	
6	73.19166588783264	fix_post	2		12	4.0	2.5	/experiments/AOT/AOT_stimuli/rescaled_final/0856_fw.mp4	0.0	137.64899587631226	0.09964418411254883
7	73.29131007194519	fix_pre	0		120	5.0	2.5	/experiments/AOT/AOT_stimuli/rescaled_final/1915_fw.mp4	0.0	137.7486400604248	1.000370979309082
7	73.8751950263977	pulse	0	t		5.0	2.5	/experiments/AOT/AOT_stimuli/rescaled_final/1915_fw.mp4	0.0	138.33252501487732	
7	74.29168105125427	movie	1		243	5.0	2.5	/experiments/AOT/AOT_stimuli/rescaled_final/1915_fw.mp4	0.0	138.7490110397339	2.500466823577881
7	75.47428393363953	pulse	1	t		5.0	2.5	/experiments/AOT/AOT_stimuli/rescaled_final/1915_fw.mp4	0.0	139.93161392211914	
7	76.79214787483215	fix_post	2		12	5.0	2.5	/experiments/AOT/AOT_stimuli/rescaled_final/1915_fw.mp4	0.0	141.24947786331177	0.09904098510742188
8	76.89118885993958	fix_pre	0		120	6.0	2.5	blank	1.0	141.3485188484192	1.0004711151123047
8	77.07467293739319	pulse	0	t		6.0	2.5	blank	1.0	141.5320029258728	
8	77.89165997505188	movie	1		300	6.0	2.5	blank	1.0	142.3489899635315	2.499490976333618
8	78.67424607276917	pulse	1	t		6.0	2.5	blank	1.0	143.13157606124878	
8	80.27463388442993	pulse	1	t		6.0	2.5	blank	1.0	144.73196387290955	
8	80.3911509513855	fix_post	2		12	6.0	2.5	blank	1.0	144.8484809398651	0.10053300857543945
9	80.49168395996094	fix_pre	0		120	7.0	2.5	/experiments/AOT/AOT_stimuli/rescaled_final/1237_rv.mp4	0.0	144.94901394844055	0.999946117401123
9	81.49163007736206	movie	1		244	7.0	2.5	/experiments/AOT/AOT_stimuli/rescaled_final/1237_rv.mp4	0.0	145.94896006584167	2.4999969005584717
9	81.87428903579712	pulse	1	t		7.0	2.5	/experiments/AOT/AOT_stimuli/rescaled_final/1237_rv.mp4	0.0	146.33161902427673	
9	83.47464394569397	pulse	1	t		7.0	2.5	/experiments/AOT/AOT_stimuli/rescaled_final/1237_rv.mp4	0.0	147.93197393417358	
9	83.99162697792053	fix_post	2		12	7.0	2.5	/experiments/AOT/AOT_stimuli/rescaled_final/1237_rv.mp4	0.0	148.44895696640015	0.09944391250610352
10	84.09107089042664	fix_pre	0		119	8.0	2.5	/experiments/AOT/AOT_stimuli/rescaled_final/1573_fw.mp4	0.0	148.54840087890625	0.9921791553497314
10	85.07511591911316	pulse	0	t		8.0	2.5	/experiments/AOT/AOT_stimuli/rescaled_final/1573_fw.mp4	0.0	149.53244590759277	
10	85.08325004577637	movie	1		247	8.0	2.5	/experiments/AOT/AOT_stimuli/rescaled_final/1573_fw.mp4	0.0	149.54058003425598	2.5079288482666016
10	86.6741509437561	pulse	1	t		8.0	2.5	/experiments/AOT/AOT_stimuli/rescaled_final/1573_fw.mp4	0.0	151.13148093223572	
10	87.59117889404297	fix_post	2		12	8.0	2.5	/experiments/AOT/AOT_stimuli/rescaled_final/1573_fw.mp4	0.0	152.04850888252258	0.10002017021179199
11	87.69119906425476	fix_pre	0		120	9.0	2.5	/experiments/AOT/AOT_stimuli/rescaled_final/0785_rv.mp4	0.0	152.14852905273438	1.0008900165557861
11	88.27548694610596	pulse	0	t		9.0	2.5	/experiments/AOT/AOT_stimuli/rescaled_final/0785_rv.mp4	0.0	152.73281693458557	
11	88.69208908081055	movie	1		245	9.0	2.5	/experiments/AOT/AOT_stimuli/rescaled_final/0785_rv.mp4	0.0	153.14941906929016	2.4994099140167236
11	89.8751380443573	pulse	1	t		9.0	2.5	/experiments/AOT/AOT_stimuli/rescaled_final/0785_rv.mp4	0.0	154.3324680328369	
11	91.19149899482727	fix_post	2		12	9.0	2.5	/experiments/AOT/AOT_stimuli/rescaled_final/0785_rv.mp4	0.0	155.64882898330688	0.09965705871582031
12	91.29115605354309	fix_pre	0		120	10.0	2.5	/experiments/AOT/AOT_stimuli/rescaled_final/1013_fw.mp4	0.0	155.7484860420227	1.000363826751709
12	91.47479891777039	pulse	0	t		10.0	2.5	/experiments/AOT/AOT_stimuli/rescaled_final/1013_fw.mp4	0.0	155.93212890625	
12	92.2915198802948	movie	1		244	10.0	2.5	/experiments/AOT/AOT_stimuli/rescaled_final/1013_fw.mp4	0.0	156.7488498687744	2.4999639987945557
12	93.07502484321594	pulse	1	t		10.0	2.5	/experiments/AOT/AOT_stimuli/rescaled_final/1013_fw.mp4	0.0	157.53235483169556	
12	94.67313504219055	pulse	1	t		10.0	2.5	/experiments/AOT/AOT_stimuli/rescaled_final/1013_fw.mp4	0.0	159.13046503067017	
12	94.79148387908936	fix_post	2		12	10.0	2.5	/experiments/AOT/AOT_stimuli/rescaled_final/1013_fw.mp4	0.0	159.24881386756897	0.09966516494750977
13	94.89114904403687	fix_pre	0		120	11.0	2.5	/experiments/AOT/AOT_stimuli/rescaled_final/1440_fw.mp4	0.0	159.34847903251648	1.0007798671722412
13	95.8919289112091	movie	1		244	11.0	2.5	/experiments/AOT/AOT_stimuli/rescaled_final/1440_fw.mp4	0.0	160.34925889968872	2.499556064605713
13	96.27424907684326	pulse	1	t		11.0	2.5	/experiments/AOT/AOT_stimuli/rescaled_final/1440_fw.mp4	0.0	160.73157906532288	
13	97.87470984458923	pulse	1	t		11.0	2.5	/experiments/AOT/AOT_stimuli/rescaled_final/1440_fw.mp4	0.0	162.33203983306885	
13	98.39148497581482	fix_post	2		12	11.0	2.5	/experiments/AOT/AOT_stimuli/rescaled_final/1440_fw.mp4	0.0	162.84881496429443	0.09964203834533691
14	98.49112701416016	fix_pre	0		119	12.0	2.5	/experiments/AOT/AOT_stimuli/rescaled_final/1397_fw.mp4	0.0	162.94845700263977	0.992110013961792
14	99.47500705718994	pulse	0	t		12.0	2.5	/experiments/AOT/AOT_stimuli/rescaled_final/1397_fw.mp4	0.0	163.93233704566956	
14	99.48323702812195	movie	1		246	12.0	2.5	/experiments/AOT/AOT_stimuli/rescaled_final/1397_fw.mp4	0.0	163.94056701660156	2.5088248252868652
14	101.07428097724915	pulse	1	t		12.0	2.5	/experiments/AOT/AOT_stimuli/rescaled_final/1397_fw.mp4	0.0	165.53161096572876	
14	101.99206185340881	fix_post	2		12	12.0	2.5	/experiments/AOT/AOT_stimuli/rescaled_final/1397_fw.mp4	0.0	166.44939184188843	0.09905815124511719
15	102.09112000465393	fix_pre	0		120	13.0	2.5	/experiments/AOT/AOT_stimuli/rescaled_final/0795_rv.mp4	0.0	166.54844999313354	1.0003468990325928
15	102.67495489120483	pulse	0	t		13.0	2.5	/experiments/AOT/AOT_stimuli/rescaled_final/0795_rv.mp4	0.0	167.13228487968445	
15	103.09146690368652	movie	1		246	13.0	2.5	/experiments/AOT/AOT_stimuli/rescaled_final/0795_rv.mp4	0.0	167.54879689216614	2.5003509521484375
15	104.27542495727539	pulse	1	t		13.0	2.5	/experiments/AOT/AOT_stimuli/rescaled_final/0795_rv.mp4	0.0	168.732754945755	
15	105.59181785583496	fix_post	2		12	13.0	2.5	/experiments/AOT/AOT_stimuli/rescaled_final/0795_rv.mp4	0.0	170.04914784431458	0.09935522079467773
16	105.69117307662964	fix_pre	0		120	14.0	2.5	blank	1.0	170.14850306510925	1.0006787776947021
16	105.87462186813354	pulse	0	t		14.0	2.5	blank	1.0	170.33195185661316	
16	106.69185185432434	movie	1		300	14.0	2.5	blank	1.0	171.14918184280396	2.499159097671509
16	107.47498297691345	pulse	1	t		14.0	2.5	blank	1.0	171.93231296539307	
16	109.0745620727539	pulse	1	t		14.0	2.5	blank	1.0	173.53189206123352	
16	109.19101095199585	fix_post	2		12	14.0	2.5	blank	1.0	173.64834094047546	0.09998703002929688
17	109.29099798202515	fix_pre	0		120	15.0	2.5	/experiments/AOT/AOT_stimuli/rescaled_final/0541_rv.mp4	0.0	173.74832797050476	1.0008370876312256
17	110.29183506965637	movie	1		244	15.0	2.5	/experiments/AOT/AOT_stimuli/rescaled_final/0541_rv.mp4	0.0	174.749165058136	2.4987127780914307
17	110.67400407791138	pulse	1	t		15.0	2.5	/experiments/AOT/AOT_stimuli/rescaled_final/0541_rv.mp4	0.0	175.131334066391	
17	112.27446699142456	pulse	1	t		15.0	2.5	/experiments/AOT/AOT_stimuli/rescaled_final/0541_rv.mp4	0.0	176.73179697990417	
17	112.7905478477478	fix_post	2		12	15.0	2.5	/experiments/AOT/AOT_stimuli/rescaled_final/0541_rv.mp4	0.0	177.24787783622742	0.10049200057983398
18	112.89103984832764	fix_pre	0		119	16.0	2.5	/experiments/AOT/AOT_stimuli/rescaled_final/0386_fw.mp4	0.0	177.34836983680725	0.9924910068511963
18	113.87532496452332	pulse	0	t		16.0	2.5	/experiments/AOT/AOT_stimuli/rescaled_final/0386_fw.mp4	0.0	178.33265495300293	
18	113.88353085517883	movie	1		248	16.0	2.5	/experiments/AOT/AOT_stimuli/rescaled_final/0386_fw.mp4	0.0	178.34086084365845	2.5074501037597656
18	115.47423601150513	pulse	1	t		16.0	2.5	/experiments/AOT/AOT_stimuli/rescaled_final/0386_fw.mp4	0.0	179.93156599998474	
18	116.3909809589386	fix_post	2		12	16.0	2.5	/experiments/AOT/AOT_stimuli/rescaled_final/0386_fw.mp4	0.0	180.8483109474182	0.09996390342712402
19	116.49094486236572	fix_pre	0		120	17.0	2.5	/experiments/AOT/AOT_stimuli/rescaled_final/0450_fw.mp4	0.0	180.94827485084534	1.000486135482788
19	117.07539486885071	pulse	0	t		17.0	2.5	/experiments/AOT/AOT_stimuli/rescaled_final/0450_fw.mp4	0.0	181.53272485733032	
19	117.49143099784851	movie	1		245	17.0	2.5	/experiments/AOT/AOT_stimuli/rescaled_final/0450_fw.mp4	0.0	181.94876098632812	2.500035047531128
19	118.674978017807	pulse	1	t		17.0	2.5	/experiments/AOT/AOT_stimuli/rescaled_final/0450_fw.mp4	0.0	183.13230800628662	
19	119.99146604537964	fix_post	2		12	17.0	2.5	/experiments/AOT/AOT_stimuli/rescaled_final/0450_fw.mp4	0.0	184.44879603385925	0.0995328426361084
20	120.09099888801575	fix_pre	0		120	18.0	2.5	/experiments/AOT/AOT_stimuli/rescaled_final/2106_rv.mp4	0.0	184.54832887649536	1.0004429817199707
20	120.27443385124207	pulse	0	t		18.0	2.5	/experiments/AOT/AOT_stimuli/rescaled_final/2106_rv.mp4	0.0	184.73176383972168	
20	121.09144186973572	movie	1		247	18.0	2.5	/experiments/AOT/AOT_stimuli/rescaled_final/2106_rv.mp4	0.0	185.54877185821533	2.4998791217803955
20	121.87547206878662	pulse	1	t		18.0	2.5	/experiments/AOT/AOT_stimuli/rescaled_final/2106_rv.mp4	0.0	186.33280205726624	
20	123.47281193733215	pulse	1	t		18.0	2.5	/experiments/AOT/AOT_stimuli/rescaled_final/2106_rv.mp4	0.0	187.93014192581177	
20	123.59132099151611	fix_post	2		12	18.0	2.5	/experiments/AOT/AOT_stimuli/rescaled_final/2106_rv.mp4	0.0	188.04865097999573	0.10009407997131348
21	123.69141507148743	fix_pre	0		120	19.0	2.5	/experiments/AOT/AOT_stimuli/rescaled_final/1622_rv.mp4	0.0	188.14874505996704	1.0001139640808105
21	124.69152903556824	movie	1		245	19.0	2.5	/experiments/AOT/AOT_stimuli/rescaled_final/1622_rv.mp4	0.0	189.14885902404785	2.499539852142334
21	125.07412600517273	pulse	1	t		19.0	2.5	/experiments/AOT/AOT_stimuli/rescaled_final/1622_rv.mp4	0.0	189.53145599365234	
21	126.6744179725647	pulse	1	t		19.0	2.5	/experiments/AOT/AOT_stimuli/rescaled_final/1622_rv.mp4	0.0	191.1317479610443	
21	127.19106888771057	fix_post	2		12	19.0	2.5	/experiments/AOT/AOT_stimuli/rescaled_final/1622_rv.mp4	0.0	191.64839887619019	0.10003113746643066
22	127.291100025177	fix_pre	0		119	20.0	2.5	blank	1.0	191.74843001365662	0.9915528297424316
22	128.27450299263	pulse	0	t		20.0	2.5	blank	1.0	192.73183298110962	
22	128.28265285491943	movie	1		301	20.0	2.5	blank	1.0	192.73998284339905	2.5082881450653076
22	129.87439584732056	pulse	1	t		20.0	2.5	blank	1.0	194.33172583580017	
22	130.79094099998474	fix_post	2		12	20.0	2.5	blank	1.0	195.24827098846436	0.10045886039733887
23	130.89139986038208	fix_pre	0		120	21.0	2.5	/experiments/AOT/AOT_stimuli/rescaled_final/1018_fw.mp4	0.0	195.3487298488617	0.9991672039031982
23	131.47446203231812	pulse	0	t		21.0	2.5	/experiments/AOT/AOT_stimuli/rescaled_final/1018_fw.mp4	0.0	195.93179202079773	
23	131.89056706428528	movie	1		246	21.0	2.5	/experiments/AOT/AOT_stimuli/rescaled_final/1018_fw.mp4	0.0	196.3478970527649	2.499950885772705
23	133.0740180015564	pulse	1	t		21.0	2.5	/experiments/AOT/AOT_stimuli/rescaled_final/1018_fw.mp4	0.0	197.531347990036	
23	134.39051795005798	fix_post	2		12	21.0	2.5	/experiments/AOT/AOT_stimuli/rescaled_final/1018_fw.mp4	0.0	198.8478479385376	0.10033798217773438
24	134.49085593223572	fix_pre	0		120	22.0	2.5	/experiments/AOT/AOT_stimuli/rescaled_final/0023_rv.mp4	0.0	198.94818592071533	1.0001730918884277
24	134.67437505722046	pulse	0	t		22.0	2.5	/experiments/AOT/AOT_stimuli/rescaled_final/0023_rv.mp4	0.0	199.13170504570007	
24	135.49102902412415	movie	1		243	22.0	2.5	/experiments/AOT/AOT_stimuli/rescaled_final/0023_rv.mp4	0.0	199.94835901260376	2.4999239444732666
24	136.2740240097046	pulse	1	t		22.0	2.5	/experiments/AOT/AOT_stimuli/rescaled_final/0023_rv.mp4	0.0	200.7313539981842	
24	137.87278485298157	pulse	1	t		22.0	2.5	/experiments/AOT/AOT_stimuli/rescaled_final/0023_rv.mp4	0.0	202.33011484146118	
24	137.9909529685974	fix_post	2		12	22.0	2.5	/experiments/AOT/AOT_stimuli/rescaled_final/0023_rv.mp4	0.0	202.44828295707703	0.09988903999328613
25	138.0908420085907	fix_pre	0		120	23.0	2.5	/experiments/AOT/AOT_stimuli/rescaled_final/2104_fw.mp4	0.0	202.5481719970703	0.9996519088745117
25	139.0904939174652	movie	1		244	23.0	2.5	/experiments/AOT/AOT_stimuli/rescaled_final/2104_fw.mp4	0.0	203.54782390594482	2.4999940395355225
25	139.47402906417847	pulse	1	t		23.0	2.5	/experiments/AOT/AOT_stimuli/rescaled_final/2104_fw.mp4	0.0	203.93135905265808	
25	141.07438206672668	pulse	1	t		23.0	2.5	/experiments/AOT/AOT_stimuli/rescaled_final/2104_fw.mp4	0.0	205.5317120552063	
25	141.59048795700073	fix_post	2		12	23.0	2.5	/experiments/AOT/AOT_stimuli/rescaled_final/2104_fw.mp4	0.0	206.04781794548035	0.1003410816192627
26	141.69082903862	fix_pre	0		119	24.0	2.5	/experiments/AOT/AOT_stimuli/rescaled_final/0559_rv.mp4	0.0	206.1481590270996	0.9920909404754639
26	142.67393684387207	pulse	0	t		24.0	2.5	/experiments/AOT/AOT_stimuli/rescaled_final/0559_rv.mp4	0.0	207.13126683235168	
26	142.68291997909546	movie	1		245	24.0	2.5	/experiments/AOT/AOT_stimuli/rescaled_final/0559_rv.mp4	0.0	207.14024996757507	2.508359909057617
26	144.2741858959198	pulse	1	t		24.0	2.5	/experiments/AOT/AOT_stimuli/rescaled_final/0559_rv.mp4	0.0	208.7315158843994	
26	145.19127988815308	fix_post	2		12	24.0	2.5	/experiments/AOT/AOT_stimuli/rescaled_final/0559_rv.mp4	0.0	209.6486098766327	0.09931516647338867
27	145.29059505462646	fix_pre	0		120	25.0	2.5	/experiments/AOT/AOT_stimuli/rescaled_final/1235_fw.mp4	0.0	209.74792504310608	0.9998178482055664
27	145.8747889995575	pulse	0	t		25.0	2.5	/experiments/AOT/AOT_stimuli/rescaled_final/1235_fw.mp4	0.0	210.3321189880371	
27	146.29041290283203	movie	1		245	25.0	2.5	/experiments/AOT/AOT_stimuli/rescaled_final/1235_fw.mp4	0.0	210.74774289131165	2.5008511543273926
27	147.47481989860535	pulse	1	t		25.0	2.5	/experiments/AOT/AOT_stimuli/rescaled_final/1235_fw.mp4	0.0	211.93214988708496	
27	148.79126405715942	fix_post	2		12	25.0	2.5	/experiments/AOT/AOT_stimuli/rescaled_final/1235_fw.mp4	0.0	213.24859404563904	0.09970498085021973
28	148.89096903800964	fix_pre	0		120	26.0	2.5	/experiments/AOT/AOT_stimuli/rescaled_final/1775_rv.mp4	0.0	213.34829902648926	0.9994900226593018
28	149.07433485984802	pulse	0	t		26.0	2.5	/experiments/AOT/AOT_stimuli/rescaled_final/1775_rv.mp4	0.0	213.53166484832764	
28	149.89045906066895	movie	1		246	26.0	2.5	/experiments/AOT/AOT_stimuli/rescaled_final/1775_rv.mp4	0.0	214.34778904914856	2.499884843826294
28	150.6747510433197	pulse	1	t		26.0	2.5	/experiments/AOT/AOT_stimuli/rescaled_final/1775_rv.mp4	0.0	215.13208103179932	
28	152.27278685569763	pulse	1	t		26.0	2.5	/experiments/AOT/AOT_stimuli/rescaled_final/1775_rv.mp4	0.0	216.73011684417725	
28	152.39034390449524	fix_post	2		12	26.0	2.5	/experiments/AOT/AOT_stimuli/rescaled_final/1775_rv.mp4	0.0	216.84767389297485	0.10051417350769043
29	152.49085807800293	fix_pre	0		120	27.0	2.5	/experiments/AOT/AOT_stimuli/rescaled_final/0254_fw.mp4	0.0	216.94818806648254	0.9996159076690674
29	153.490473985672	movie	1		245	27.0	2.5	/experiments/AOT/AOT_stimuli/rescaled_final/0254_fw.mp4	0.0	217.9478039741516	2.4999210834503174
29	153.87483096122742	pulse	1	t		27.0	2.5	/experiments/AOT/AOT_stimuli/rescaled_final/0254_fw.mp4	0.0	218.33216094970703	
29	155.47431898117065	pulse	1	t		27.0	2.5	/experiments/AOT/AOT_stimuli/rescaled_final/0254_fw.mp4	0.0	219.93164896965027	
29	155.99039506912231	fix_post	2		12	27.0	2.5	/experiments/AOT/AOT_stimuli/rescaled_final/0254_fw.mp4	0.0	220.44772505760193	0.10048580169677734
30	156.0908808708191	fix_pre	0		119	28.0	2.5	blank	1.0	220.5482108592987	0.9924571514129639
30	157.07517385482788	pulse	0	t		28.0	2.5	blank	1.0	221.5325038433075	
30	157.08333802223206	movie	1		301	28.0	2.5	blank	1.0	221.54066801071167	2.5075018405914307
30	158.6743290424347	pulse	1	t		28.0	2.5	blank	1.0	223.1316590309143	
30	159.5908398628235	fix_post	2		12	28.0	2.5	blank	1.0	224.0481698513031	0.10087704658508301
31	159.69171690940857	fix_pre	0		120	29.0	2.5	/experiments/AOT/AOT_stimuli/rescaled_final/0041_rv.mp4	0.0	224.14904689788818	0.9986350536346436
31	160.2738389968872	pulse	0	t		29.0	2.5	/experiments/AOT/AOT_stimuli/rescaled_final/0041_rv.mp4	0.0	224.73116898536682	
31	160.6903519630432	movie	1		245	29.0	2.5	/experiments/AOT/AOT_stimuli/rescaled_final/0041_rv.mp4	0.0	225.14768195152283	2.500432014465332
31	161.8738889694214	pulse	1	t		29.0	2.5	/experiments/AOT/AOT_stimuli/rescaled_final/0041_rv.mp4	0.0	226.331218957901	
31	163.19078397750854	fix_post	2		12	29.0	2.5	/experiments/AOT/AOT_stimuli/rescaled_final/0041_rv.mp4	0.0	227.64811396598816	0.09998106956481934
32	163.29076504707336	fix_pre	0		120	30.0	2.5	/experiments/AOT/AOT_stimuli/rescaled_final/2108_rv.mp4	0.0	227.74809503555298	1.0004448890686035
32	163.47427988052368	pulse	0	t		30.0	2.5	/experiments/AOT/AOT_stimuli/rescaled_final/2108_rv.mp4	0.0	227.9316098690033	
32	164.29120993614197	movie	1		244	30.0	2.5	/experiments/AOT/AOT_stimuli/rescaled_final/2108_rv.mp4	0.0	228.74853992462158	2.4999470710754395
32	165.073832988739	pulse	1	t		30.0	2.5	/experiments/AOT/AOT_stimuli/rescaled_final/2108_rv.mp4	0.0	229.53116297721863	
32	166.6730830669403	pulse	1	t		30.0	2.5	/experiments/AOT/AOT_stimuli/rescaled_final/2108_rv.mp4	0.0	231.13041305541992	
32	166.7911570072174	fix_post	2		12	30.0	2.5	/experiments/AOT/AOT_stimuli/rescaled_final/2108_rv.mp4	0.0	231.24848699569702	0.09961295127868652
33	166.8907699584961	fix_pre	0		120	31.0	2.5	/experiments/AOT/AOT_stimuli/rescaled_final/0957_fw.mp4	0.0	231.3480999469757	1.0008900165557861
33	167.89165997505188	movie	1		243	31.0	2.5	/experiments/AOT/AOT_stimuli/rescaled_final/0957_fw.mp4	0.0	232.3489899635315	2.499521017074585
33	168.27449798583984	pulse	1	t		31.0	2.5	/experiments/AOT/AOT_stimuli/rescaled_final/0957_fw.mp4	0.0	232.73182797431946	
33	169.87437295913696	pulse	1	t		31.0	2.5	/experiments/AOT/AOT_stimuli/rescaled_final/0957_fw.mp4	0.0	234.33170294761658	
33	170.39118099212646	fix_post	2		12	31.0	2.5	/experiments/AOT/AOT_stimuli/rescaled_final/0957_fw.mp4	0.0	234.84851098060608	0.09952902793884277
34	170.4907100200653	fix_pre	0		119	32.0	2.5	/experiments/AOT/AOT_stimuli/rescaled_final/1488_rv.mp4	0.0	234.94804000854492	0.9921178817749023
34	171.4748420715332	pulse	0	t		32.0	2.5	/experiments/AOT/AOT_stimuli/rescaled_final/1488_rv.mp4	0.0	235.93217206001282	
34	171.4828279018402	movie	1		244	32.0	2.5	/experiments/AOT/AOT_stimuli/rescaled_final/1488_rv.mp4	0.0	235.94015789031982	2.508687973022461
34	173.07530689239502	pulse	1	t		32.0	2.5	/experiments/AOT/AOT_stimuli/rescaled_final/1488_rv.mp4	0.0	237.53263688087463	
34	173.99151587486267	fix_post	2		12	32.0	2.5	/experiments/AOT/AOT_stimuli/rescaled_final/1488_rv.mp4	0.0	238.44884586334229	0.09917306900024414
35	174.09068894386292	fix_pre	0		120	33.0	2.5	/experiments/AOT/AOT_stimuli/rescaled_final/0647_fw.mp4	0.0	238.54801893234253	1.000878095626831
35	174.67464303970337	pulse	0	t		33.0	2.5	/experiments/AOT/AOT_stimuli/rescaled_final/0647_fw.mp4	0.0	239.13197302818298	
35	175.09156703948975	movie	1		245	33.0	2.5	/experiments/AOT/AOT_stimuli/rescaled_final/0647_fw.mp4	0.0	239.54889702796936	2.498800039291382
35	176.27375197410583	pulse	1	t		33.0	2.5	/experiments/AOT/AOT_stimuli/rescaled_final/0647_fw.mp4	0.0	240.73108196258545	
35	177.59036707878113	fix_post	2		12	33.0	2.5	/experiments/AOT/AOT_stimuli/rescaled_final/0647_fw.mp4	0.0	242.04769706726074	0.10037088394165039
36	177.69073796272278	fix_pre	0		120	34.0	2.5	blank	1.0	242.1480679512024	1.0009739398956299
36	177.87384295463562	pulse	0	t		34.0	2.5	blank	1.0	242.33117294311523	
36	178.6917119026184	movie	1		300	34.0	2.5	blank	1.0	243.14904189109802	2.498991012573242
36	179.47538304328918	pulse	1	t		34.0	2.5	blank	1.0	243.9327130317688	
36	181.07412600517273	pulse	1	t		34.0	2.5	blank	1.0	245.53145599365234	
36	181.19070291519165	fix_post	2		12	34.0	2.5	blank	1.0	245.64803290367126	0.10052299499511719
37	181.29122591018677	fix_pre	0		120	35.0	2.5	/experiments/AOT/AOT_stimuli/rescaled_final/1288_fw.mp4	0.0	245.74855589866638	0.9990260601043701
37	182.29025197029114	movie	1		245	35.0	2.5	/experiments/AOT/AOT_stimuli/rescaled_final/1288_fw.mp4	0.0	246.74758195877075	2.5005319118499756
37	182.67517495155334	pulse	1	t		35.0	2.5	/experiments/AOT/AOT_stimuli/rescaled_final/1288_fw.mp4	0.0	247.13250494003296	
37	184.27405190467834	pulse	1	t		35.0	2.5	/experiments/AOT/AOT_stimuli/rescaled_final/1288_fw.mp4	0.0	248.73138189315796	
37	184.7907838821411	fix_post	2		12	35.0	2.5	/experiments/AOT/AOT_stimuli/rescaled_final/1288_fw.mp4	0.0	249.24811387062073	0.0999290943145752
38	184.8907129764557	fix_pre	0		119	36.0	2.5	/experiments/AOT/AOT_stimuli/rescaled_final/1480_rv.mp4	0.0	249.3480429649353	0.9920380115509033
38	185.87508296966553	pulse	0	t		36.0	2.5	/experiments/AOT/AOT_stimuli/rescaled_final/1480_rv.mp4	0.0	250.33241295814514	
38	185.8827509880066	movie	1		245	36.0	2.5	/experiments/AOT/AOT_stimuli/rescaled_final/1480_rv.mp4	0.0	250.3400809764862	2.50839900970459
38	187.47375392913818	pulse	1	t		36.0	2.5	/experiments/AOT/AOT_stimuli/rescaled_final/1480_rv.mp4	0.0	251.9310839176178	
38	188.39114999771118	fix_post	2		12	36.0	2.5	/experiments/AOT/AOT_stimuli/rescaled_final/1480_rv.mp4	0.0	252.8484799861908	0.09942889213562012
39	188.4905788898468	fix_pre	0		120	37.0	2.5	/experiments/AOT/AOT_stimuli/rescaled_final/1512_fw.mp4	0.0	252.94790887832642	1.0009410381317139
39	189.07504796981812	pulse	0	t		37.0	2.5	/experiments/AOT/AOT_stimuli/rescaled_final/1512_fw.mp4	0.0	253.53237795829773	
39	189.49151992797852	movie	1		245	37.0	2.5	/experiments/AOT/AOT_stimuli/rescaled_final/1512_fw.mp4	0.0	253.94884991645813	2.4996089935302734
39	190.67480087280273	pulse	1	t		37.0	2.5	/experiments/AOT/AOT_stimuli/rescaled_final/1512_fw.mp4	0.0	255.13213086128235	
39	191.9911289215088	fix_post	2		12	37.0	2.5	/experiments/AOT/AOT_stimuli/rescaled_final/1512_fw.mp4	0.0	256.4484589099884	0.09945011138916016
40	192.09057903289795	fix_pre	0		120	38.0	2.5	/experiments/AOT/AOT_stimuli/rescaled_final/1192_rv.mp4	0.0	256.54790902137756	0.9996769428253174
40	192.2741060256958	pulse	0	t		38.0	2.5	/experiments/AOT/AOT_stimuli/rescaled_final/1192_rv.mp4	0.0	256.7314360141754	
40	193.09025597572327	movie	1		244	38.0	2.5	/experiments/AOT/AOT_stimuli/rescaled_final/1192_rv.mp4	0.0	257.5475859642029	2.501283884048462
40	193.87452387809753	pulse	1	t		38.0	2.5	/experiments/AOT/AOT_stimuli/rescaled_final/1192_rv.mp4	0.0	258.33185386657715	
40	195.47237086296082	pulse	1	t		38.0	2.5	/experiments/AOT/AOT_stimuli/rescaled_final/1192_rv.mp4	0.0	259.92970085144043	
40	195.59153985977173	fix_post	2		12	38.0	2.5	/experiments/AOT/AOT_stimuli/rescaled_final/1192_rv.mp4	0.0	260.04886984825134	0.09905600547790527
41	195.69059586524963	fix_pre	0		120	39.0	2.5	/experiments/AOT/AOT_stimuli/rescaled_final/0609_fw.mp4	0.0	260.14792585372925	1.0004210472106934
41	196.69101691246033	movie	1		245	39.0	2.5	/experiments/AOT/AOT_stimuli/rescaled_final/0609_fw.mp4	0.0	261.14834690093994	2.5000250339508057
41	197.07491302490234	pulse	1	t		39.0	2.5	/experiments/AOT/AOT_stimuli/rescaled_final/0609_fw.mp4	0.0	261.53224301338196	
41	198.67412090301514	pulse	1	t		39.0	2.5	/experiments/AOT/AOT_stimuli/rescaled_final/0609_fw.mp4	0.0	263.13145089149475	
41	199.19104194641113	fix_post	2		12	39.0	2.5	/experiments/AOT/AOT_stimuli/rescaled_final/0609_fw.mp4	0.0	263.64837193489075	0.09951090812683105
42	199.29055285453796	fix_pre	0		119	40.0	2.5	blank	1.0	263.7478828430176	0.9925181865692139
42	200.27508187294006	pulse	0	t		40.0	2.5	blank	1.0	264.7324118614197	
42	200.28307104110718	movie	1		301	40.0	2.5	blank	1.0	264.7404010295868	2.5076470375061035
42	201.87407207489014	pulse	1	t		40.0	2.5	blank	1.0	266.33140206336975	
42	202.79071807861328	fix_post	2		12	40.0	2.5	blank	1.0	267.2480480670929	0.10029196739196777
43	202.89101004600525	fix_pre	0		120	41.0	2.5	/experiments/AOT/AOT_stimuli/rescaled_final/1152_rv.mp4	0.0	267.34834003448486	1.0000879764556885
43	203.47448801994324	pulse	0	t		41.0	2.5	/experiments/AOT/AOT_stimuli/rescaled_final/1152_rv.mp4	0.0	267.93181800842285	
43	203.89109802246094	movie	1		244	41.0	2.5	/experiments/AOT/AOT_stimuli/rescaled_final/1152_rv.mp4	0.0	268.34842801094055	2.4995529651641846
43	205.07508301734924	pulse	1	t		41.0	2.5	/experiments/AOT/AOT_stimuli/rescaled_final/1152_rv.mp4	0.0	269.53241300582886	
43	206.39065098762512	fix_post	2		12	41.0	2.5	/experiments/AOT/AOT_stimuli/rescaled_final/1152_rv.mp4	0.0	270.84798097610474	0.09997391700744629
44	206.49062490463257	fix_pre	0		120	42.0	2.5	/experiments/AOT/AOT_stimuli/rescaled_final/1622_fw.mp4	0.0	270.9479548931122	1.0008859634399414
44	206.67408394813538	pulse	0	t		42.0	2.5	/experiments/AOT/AOT_stimuli/rescaled_final/1622_fw.mp4	0.0	271.131413936615	
44	207.4915108680725	movie	1		245	42.0	2.5	/experiments/AOT/AOT_stimuli/rescaled_final/1622_fw.mp4	0.0	271.9488408565521	2.4991509914398193
44	208.27502298355103	pulse	1	t		42.0	2.5	/experiments/AOT/AOT_stimuli/rescaled_final/1622_fw.mp4	0.0	272.73235297203064	
44	209.8727240562439	pulse	1	t		42.0	2.5	/experiments/AOT/AOT_stimuli/rescaled_final/1622_fw.mp4	0.0	274.3300540447235	
44	209.99066185951233	fix_post	2		12	42.0	2.5	/experiments/AOT/AOT_stimuli/rescaled_final/1622_fw.mp4	0.0	274.44799184799194	0.09957408905029297
45	210.09023594856262	fix_pre	0		120	43.0	2.5	/experiments/AOT/AOT_stimuli/rescaled_final/0328_rv.mp4	0.0	274.54756593704224	1.0006608963012695
45	211.0908968448639	movie	1		246	43.0	2.5	/experiments/AOT/AOT_stimuli/rescaled_final/0328_rv.mp4	0.0	275.5482268333435	2.499737024307251
45	211.4735119342804	pulse	1	t		43.0	2.5	/experiments/AOT/AOT_stimuli/rescaled_final/0328_rv.mp4	0.0	275.93084192276	
45	213.07391691207886	pulse	1	t		43.0	2.5	/experiments/AOT/AOT_stimuli/rescaled_final/0328_rv.mp4	0.0	277.5312469005585	
45	213.59063386917114	fix_post	2		12	43.0	2.5	/experiments/AOT/AOT_stimuli/rescaled_final/0328_rv.mp4	0.0	278.04796385765076	0.09994697570800781
46	213.69058084487915	fix_pre	0		119	44.0	2.5	/experiments/AOT/AOT_stimuli/rescaled_final/0683_fw.mp4	0.0	278.14791083335876	0.9923782348632812
46	214.67488884925842	pulse	0	t		44.0	2.5	/experiments/AOT/AOT_stimuli/rescaled_final/0683_fw.mp4	0.0	279.13221883773804	
46	214.68295907974243	movie	1		247	44.0	2.5	/experiments/AOT/AOT_stimuli/rescaled_final/0683_fw.mp4	0.0	279.14028906822205	2.5075747966766357
46	216.27372193336487	pulse	1	t		44.0	2.5	/experiments/AOT/AOT_stimuli/rescaled_final/0683_fw.mp4	0.0	280.7310519218445	
46	217.19053387641907	fix_post	2		12	44.0	2.5	/experiments/AOT/AOT_stimuli/rescaled_final/0683_fw.mp4	0.0	281.6478638648987	0.09997797012329102
47	217.29051184654236	fix_pre	0		120	45.0	2.5	/experiments/AOT/AOT_stimuli/rescaled_final/0734_rv.mp4	0.0	281.747841835022	1.0000550746917725
47	217.87404799461365	pulse	0	t		45.0	2.5	/experiments/AOT/AOT_stimuli/rescaled_final/0734_rv.mp4	0.0	282.33137798309326	
47	218.29056692123413	movie	1		247	45.0	2.5	/experiments/AOT/AOT_stimuli/rescaled_final/0734_rv.mp4	0.0	282.74789690971375	2.499911069869995
47	219.47408604621887	pulse	1	t		45.0	2.5	/experiments/AOT/AOT_stimuli/rescaled_final/0734_rv.mp4	0.0	283.9314160346985	
47	220.79047799110413	fix_post	2		12	45.0	2.5	/experiments/AOT/AOT_stimuli/rescaled_final/0734_rv.mp4	0.0	285.24780797958374	0.09995293617248535
48	220.8904309272766	fix_pre	0		120	46.0	2.5	/experiments/AOT/AOT_stimuli/rescaled_final/1392_fw.mp4	0.0	285.3477609157562	1.0000441074371338
48	221.0740270614624	pulse	0	t		46.0	2.5	/experiments/AOT/AOT_stimuli/rescaled_final/1392_fw.mp4	0.0	285.531357049942	
48	221.89047503471375	movie	1		245	46.0	2.5	/experiments/AOT/AOT_stimuli/rescaled_final/1392_fw.mp4	0.0	286.34780502319336	2.499958038330078
48	222.67397904396057	pulse	1	t		46.0	2.5	/experiments/AOT/AOT_stimuli/rescaled_final/1392_fw.mp4	0.0	287.1313090324402	
48	224.27266001701355	pulse	1	t		46.0	2.5	/experiments/AOT/AOT_stimuli/rescaled_final/1392_fw.mp4	0.0	288.72999000549316	
48	224.39043307304382	fix_post	2		12	46.0	2.5	/experiments/AOT/AOT_stimuli/rescaled_final/1392_fw.mp4	0.0	288.84776306152344	0.09958696365356445
49	224.4900200366974	fix_pre	0		120	47.0	2.5	/experiments/AOT/AOT_stimuli/rescaled_final/0559_fw.mp4	0.0	288.947350025177	1.0004258155822754
49	225.49044585227966	movie	1		243	47.0	2.5	/experiments/AOT/AOT_stimuli/rescaled_final/0559_fw.mp4	0.0	289.9477758407593	2.499563217163086
49	225.87358498573303	pulse	1	t		47.0	2.5	/experiments/AOT/AOT_stimuli/rescaled_final/0559_fw.mp4	0.0	290.33091497421265	
49	227.47387194633484	pulse	1	t		47.0	2.5	/experiments/AOT/AOT_stimuli/rescaled_final/0559_fw.mp4	0.0	291.93120193481445	
49	227.99000906944275	fix_post	2		12	47.0	2.5	/experiments/AOT/AOT_stimuli/rescaled_final/0559_fw.mp4	0.0	292.44733905792236	0.10055899620056152
50	228.0905680656433	fix_pre	0		119	48.0	2.5	blank	1.0	292.5478980541229	0.9915788173675537
50	229.07397294044495	pulse	0	t		48.0	2.5	blank	1.0	293.53130292892456	
50	229.08214688301086	movie	1		301	48.0	2.5	blank	1.0	293.5394768714905	2.5082709789276123
50	230.67402386665344	pulse	1	t		48.0	2.5	blank	1.0	295.13135385513306	
50	231.59041786193848	fix_post	2		12	48.0	2.5	blank	1.0	296.0477478504181	0.0999901294708252
51	231.6904079914093	fix_pre	0		120	49.0	2.5	/experiments/AOT/AOT_stimuli/rescaled_final/0415_fw.mp4	0.0	296.1477379798889	1.0000300407409668
51	232.27398085594177	pulse	0	t		49.0	2.5	/experiments/AOT/AOT_stimuli/rescaled_final/0415_fw.mp4	0.0	296.7313108444214	
51	232.69043803215027	movie	1		247	49.0	2.5	/experiments/AOT/AOT_stimuli/rescaled_final/0415_fw.mp4	0.0	297.1477680206299	2.499850034713745
51	233.8735830783844	pulse	1	t		49.0	2.5	/experiments/AOT/AOT_stimuli/rescaled_final/0415_fw.mp4	0.0	298.330913066864	
51	235.190288066864	fix_post	2		12	49.0	2.5	/experiments/AOT/AOT_stimuli/rescaled_final/0415_fw.mp4	0.0	299.6476180553436	0.0999917984008789
52	235.2902798652649	fix_pre	0		120	50.0	2.5	/experiments/AOT/AOT_stimuli/rescaled_final/1028_rv.mp4	0.0	299.7476098537445	1.0001680850982666
52	235.47389197349548	pulse	0	t		50.0	2.5	/experiments/AOT/AOT_stimuli/rescaled_final/1028_rv.mp4	0.0	299.9312219619751	
52	236.29044795036316	movie	1		248	50.0	2.5	/experiments/AOT/AOT_stimuli/rescaled_final/1028_rv.mp4	0.0	300.7477779388428	2.4999260902404785
52	237.0739140510559	pulse	1	t		50.0	2.5	/experiments/AOT/AOT_stimuli/rescaled_final/1028_rv.mp4	0.0	301.5312440395355	
52	238.6734869480133	pulse	1	t		50.0	2.5	/experiments/AOT/AOT_stimuli/rescaled_final/1028_rv.mp4	0.0	303.1308169364929	
52	238.79037404060364	fix_post	2		12	50.0	2.5	/experiments/AOT/AOT_stimuli/rescaled_final/1028_rv.mp4	0.0	303.24770402908325	0.10004782676696777
53	238.8904218673706	fix_pre	0		120	51.0	2.5	/experiments/AOT/AOT_stimuli/rescaled_final/0907_fw.mp4	0.0	303.3477518558502	0.9999570846557617
53	239.89037895202637	movie	1		246	51.0	2.5	/experiments/AOT/AOT_stimuli/rescaled_final/0907_fw.mp4	0.0	304.347708940506	2.500091075897217
53	240.27354192733765	pulse	1	t		51.0	2.5	/experiments/AOT/AOT_stimuli/rescaled_final/0907_fw.mp4	0.0	304.73087191581726	
53	241.8738250732422	pulse	1	t		51.0	2.5	/experiments/AOT/AOT_stimuli/rescaled_final/0907_fw.mp4	0.0	306.3311550617218	
53	242.39047002792358	fix_post	2		12	51.0	2.5	/experiments/AOT/AOT_stimuli/rescaled_final/0907_fw.mp4	0.0	306.8478000164032	0.0999610424041748
54	242.49043107032776	fix_pre	0		119	52.0	2.5	/experiments/AOT/AOT_stimuli/rescaled_final/0506_rv.mp4	0.0	306.9477610588074	0.9915788173675537
54	243.47385501861572	pulse	0	t		52.0	2.5	/experiments/AOT/AOT_stimuli/rescaled_final/0506_rv.mp4	0.0	307.93118500709534	
54	243.4820098876953	movie	1		246	52.0	2.5	/experiments/AOT/AOT_stimuli/rescaled_final/0506_rv.mp4	0.0	307.9393398761749	2.5083460807800293
54	245.07341599464417	pulse	1	t		52.0	2.5	/experiments/AOT/AOT_stimuli/rescaled_final/0506_rv.mp4	0.0	309.5307459831238	
54	245.99035596847534	fix_post	2		12	52.0	2.5	/experiments/AOT/AOT_stimuli/rescaled_final/0506_rv.mp4	0.0	310.44768595695496	0.10001707077026367
55	246.0903730392456	fix_pre	0		120	53.0	2.5	/experiments/AOT/AOT_stimuli/rescaled_final/1182_rv.mp4	0.0	310.5477030277252	0.9995508193969727
55	246.67392492294312	pulse	0	t		53.0	2.5	/experiments/AOT/AOT_stimuli/rescaled_final/1182_rv.mp4	0.0	311.13125491142273	
55	247.08992385864258	movie	1		243	53.0	2.5	/experiments/AOT/AOT_stimuli/rescaled_final/1182_rv.mp4	0.0	311.5472538471222	2.500324010848999
55	248.2738959789276	pulse	1	t		53.0	2.5	/experiments/AOT/AOT_stimuli/rescaled_final/1182_rv.mp4	0.0	312.7312259674072	
55	249.59024786949158	fix_post	2		12	53.0	2.5	/experiments/AOT/AOT_stimuli/rescaled_final/1182_rv.mp4	0.0	314.0475778579712	0.10008120536804199
56	249.69032907485962	fix_pre	0		120	54.0	2.5	blank	1.0	314.14765906333923	0.9999129772186279
56	249.87377786636353	pulse	0	t		54.0	2.5	blank	1.0	314.33110785484314	
56	250.69024205207825	movie	1		300	54.0	2.5	blank	1.0	315.14757204055786	2.5001258850097656
56	251.47389197349548	pulse	1	t		54.0	2.5	blank	1.0	315.9312219619751	
56	253.0738809108734	pulse	1	t		54.0	2.5	blank	1.0	317.531210899353	
56	253.190367937088	fix_post	2		12	54.0	2.5	blank	1.0	317.6476979255676	0.099884033203125
57	253.29025197029114	fix_pre	0		120	55.0	2.5	/experiments/AOT/AOT_stimuli/rescaled_final/1192_fw.mp4	0.0	317.74758195877075	1.0001640319824219
57	254.29041600227356	movie	1		244	55.0	2.5	/experiments/AOT/AOT_stimuli/rescaled_final/1192_fw.mp4	0.0	318.7477459907532	2.499804973602295
57	254.673259973526	pulse	1	t		55.0	2.5	/experiments/AOT/AOT_stimuli/rescaled_final/1192_fw.mp4	0.0	319.1305899620056	
57	256.2737469673157	pulse	1	t		55.0	2.5	/experiments/AOT/AOT_stimuli/rescaled_final/1192_fw.mp4	0.0	320.7310769557953	
57	256.79022097587585	fix_post	2		12	55.0	2.5	/experiments/AOT/AOT_stimuli/rescaled_final/1192_fw.mp4	0.0	321.24755096435547	0.10009503364562988
58	256.8903160095215	fix_pre	0		119	56.0	2.5	/experiments/AOT/AOT_stimuli/rescaled_final/1731_fw.mp4	0.0	321.3476459980011	0.9916529655456543
58	257.87377190589905	pulse	0	t		56.0	2.5	/experiments/AOT/AOT_stimuli/rescaled_final/1731_fw.mp4	0.0	322.33110189437866	
58	257.88196897506714	movie	1		246	56.0	2.5	/experiments/AOT/AOT_stimuli/rescaled_final/1731_fw.mp4	0.0	322.33929896354675	2.50791597366333
58	259.4736819267273	pulse	1	t		56.0	2.5	/experiments/AOT/AOT_stimuli/rescaled_final/1731_fw.mp4	0.0	323.9310119152069	
58	260.38988494873047	fix_post	2		12	56.0	2.5	/experiments/AOT/AOT_stimuli/rescaled_final/1731_fw.mp4	0.0	324.8472149372101	0.10037493705749512
59	260.49025988578796	fix_pre	0		120	57.0	2.5	/experiments/AOT/AOT_stimuli/rescaled_final/1288_rv.mp4	0.0	324.9475898742676	1.0000731945037842
59	261.07386088371277	pulse	0	t		57.0	2.5	/experiments/AOT/AOT_stimuli/rescaled_final/1288_rv.mp4	0.0	325.5311908721924	
59	261.49033308029175	movie	1		245	57.0	2.5	/experiments/AOT/AOT_stimuli/rescaled_final/1288_rv.mp4	0.0	325.94766306877136	2.499882936477661
59	262.6738929748535	pulse	1	t		57.0	2.5	/experiments/AOT/AOT_stimuli/rescaled_final/1288_rv.mp4	0.0	327.13122296333313	
59	263.9902160167694	fix_post	2		12	57.0	2.5	/experiments/AOT/AOT_stimuli/rescaled_final/1288_rv.mp4	0.0	328.447546005249	0.1000208854675293
60	264.09023690223694	fix_pre	0		120	58.0	2.5	/experiments/AOT/AOT_stimuli/rescaled_final/1722_fw.mp4	0.0	328.54756689071655	0.9995980262756348
60	264.27385902404785	pulse	0	t		58.0	2.5	/experiments/AOT/AOT_stimuli/rescaled_final/1722_fw.mp4	0.0	328.73118901252747	
60	265.0898349285126	movie	1		244	58.0	2.5	/experiments/AOT/AOT_stimuli/rescaled_final/1722_fw.mp4	0.0	329.5471649169922	2.5004560947418213
60	265.87395906448364	pulse	1	t		58.0	2.5	/experiments/AOT/AOT_stimuli/rescaled_final/1722_fw.mp4	0.0	330.33128905296326	
60	267.472069978714	pulse	1	t		58.0	2.5	/experiments/AOT/AOT_stimuli/rescaled_final/1722_fw.mp4	0.0	331.9293999671936	
60	267.5902910232544	fix_post	2		12	58.0	2.5	/experiments/AOT/AOT_stimuli/rescaled_final/1722_fw.mp4	0.0	332.047621011734	0.10000300407409668
61	267.6902940273285	fix_pre	0		120	59.0	2.5	/experiments/AOT/AOT_stimuli/rescaled_final/0675_fw.mp4	0.0	332.1476240158081	1.000044822692871
61	268.69033885002136	movie	1		243	59.0	2.5	/experiments/AOT/AOT_stimuli/rescaled_final/0675_fw.mp4	0.0	333.147668838501	2.49949312210083
61	269.07326102256775	pulse	1	t		59.0	2.5	/experiments/AOT/AOT_stimuli/rescaled_final/0675_fw.mp4	0.0	333.53059101104736	
61	270.67373490333557	pulse	1	t		59.0	2.5	/experiments/AOT/AOT_stimuli/rescaled_final/0675_fw.mp4	0.0	335.1310648918152	
61	271.1898319721222	fix_post	2		12	59.0	2.5	/experiments/AOT/AOT_stimuli/rescaled_final/0675_fw.mp4	0.0	335.6471619606018	0.1004030704498291
62	271.290235042572	fix_pre	0		119	60.0	2.5	/experiments/AOT/AOT_stimuli/rescaled_final/1310_fw.mp4	0.0	335.74756503105164	0.9916670322418213
62	272.27364897727966	pulse	0	t		60.0	2.5	/experiments/AOT/AOT_stimuli/rescaled_final/1310_fw.mp4	0.0	336.7309789657593	
62	272.28190207481384	movie	1		245	60.0	2.5	/experiments/AOT/AOT_stimuli/rescaled_final/1310_fw.mp4	0.0	336.73923206329346	2.5083038806915283
62	273.8737459182739	pulse	1	t		60.0	2.5	/experiments/AOT/AOT_stimuli/rescaled_final/1310_fw.mp4	0.0	338.33107590675354	
62	274.79020595550537	fix_post	2		12	60.0	2.5	/experiments/AOT/AOT_stimuli/rescaled_final/1310_fw.mp4	0.0	339.247535943985	0.10004401206970215
63	274.8902499675751	fix_pre	0		120	61.0	2.5	blank	1.0	339.3475799560547	0.9999420642852783
63	275.4736969470978	pulse	0	t		61.0	2.5	blank	1.0	339.9310269355774	
63	275.89019203186035	movie	1		300	61.0	2.5	blank	1.0	340.34752202033997	2.500051975250244
63	277.07368206977844	pulse	1	t		61.0	2.5	blank	1.0	341.53101205825806	
63	278.3902440071106	fix_post	2		12	61.0	2.5	blank	1.0	342.8475739955902	0.09990191459655762
64	278.49014592170715	fix_pre	0		120	62.0	2.5	/experiments/AOT/AOT_stimuli/rescaled_final/2115_rv.mp4	0.0	342.94747591018677	0.9996261596679688
64	278.673712015152	pulse	0	t		62.0	2.5	/experiments/AOT/AOT_stimuli/rescaled_final/2115_rv.mp4	0.0	343.1310420036316	
64	279.4897720813751	movie	1		244	62.0	2.5	/experiments/AOT/AOT_stimuli/rescaled_final/2115_rv.mp4	0.0	343.94710206985474	2.500391960144043
64	280.27365899086	pulse	1	t		62.0	2.5	/experiments/AOT/AOT_stimuli/rescaled_final/2115_rv.mp4	0.0	344.7309889793396	
64	281.8721978664398	pulse	1	t		62.0	2.5	/experiments/AOT/AOT_stimuli/rescaled_final/2115_rv.mp4	0.0	346.32952785491943	
64	281.99016404151917	fix_post	2		12	62.0	2.5	/experiments/AOT/AOT_stimuli/rescaled_final/2115_rv.mp4	0.0	346.4474940299988	0.10003781318664551
65	282.0902018547058	fix_pre	0		120	63.0	2.5	/experiments/AOT/AOT_stimuli/rescaled_final/1663_rv.mp4	0.0	346.5475318431854	1.000016212463379
65	283.0902180671692	movie	1		245	63.0	2.5	/experiments/AOT/AOT_stimuli/rescaled_final/1663_rv.mp4	0.0	347.5475480556488	2.499929904937744
65	283.4736099243164	pulse	1	t		63.0	2.5	/experiments/AOT/AOT_stimuli/rescaled_final/1663_rv.mp4	0.0	347.930939912796	
65	285.073646068573	pulse	1	t		63.0	2.5	/experiments/AOT/AOT_stimuli/rescaled_final/1663_rv.mp4	0.0	349.5309760570526	
65	285.59014797210693	fix_post	2		12	63.0	2.5	/experiments/AOT/AOT_stimuli/rescaled_final/1663_rv.mp4	0.0	350.04747796058655	0.10007095336914062
66	285.6902189254761	fix_pre	0		119	64.0	2.5	/experiments/AOT/AOT_stimuli/rescaled_final/1149_fw.mp4	0.0	350.1475489139557	0.9915969371795654
66	286.6737148761749	pulse	0	t		64.0	2.5	/experiments/AOT/AOT_stimuli/rescaled_final/1149_fw.mp4	0.0	351.13104486465454	
66	286.68181586265564	movie	1		246	64.0	2.5	/experiments/AOT/AOT_stimuli/rescaled_final/1149_fw.mp4	0.0	351.13914585113525	2.507913112640381
66	288.27279686927795	pulse	1	t		64.0	2.5	/experiments/AOT/AOT_stimuli/rescaled_final/1149_fw.mp4	0.0	352.73012685775757	
66	289.189728975296	fix_post	2		12	64.0	2.5	/experiments/AOT/AOT_stimuli/rescaled_final/1149_fw.mp4	0.0	353.64705896377563	0.10042905807495117
67	289.290158033371	fix_pre	0		120	65.0	2.5	/experiments/AOT/AOT_stimuli/rescaled_final/0612_fw.mp4	0.0	353.7474880218506	1.0001578330993652
67	289.87369298934937	pulse	0	t		65.0	2.5	/experiments/AOT/AOT_stimuli/rescaled_final/0612_fw.mp4	0.0	354.331022977829	
67	290.29031586647034	movie	1		244	65.0	2.5	/experiments/AOT/AOT_stimuli/rescaled_final/0612_fw.mp4	0.0	354.74764585494995	2.4997880458831787
67	291.47353196144104	pulse	1	t		65.0	2.5	/experiments/AOT/AOT_stimuli/rescaled_final/0612_fw.mp4	0.0	355.93086194992065	
67	292.7901039123535	fix_post	2		12	65.0	2.5	/experiments/AOT/AOT_stimuli/rescaled_final/0612_fw.mp4	0.0	357.24743390083313	0.10002398490905762
68	292.8901278972626	fix_pre	0		120	66.0	2.5	/experiments/AOT/AOT_stimuli/rescaled_final/1394_fw.mp4	0.0	357.3474578857422	0.9999959468841553
68	293.07365798950195	pulse	0	t		66.0	2.5	/experiments/AOT/AOT_stimuli/rescaled_final/1394_fw.mp4	0.0	357.53098797798157	
68	293.89012384414673	movie	1		243	66.0	2.5	/experiments/AOT/AOT_stimuli/rescaled_final/1394_fw.mp4	0.0	358.34745383262634	2.500092029571533
68	294.67351603507996	pulse	1	t		66.0	2.5	/experiments/AOT/AOT_stimuli/rescaled_final/1394_fw.mp4	0.0	359.13084602355957	
68	296.27184891700745	pulse	1	t		66.0	2.5	/experiments/AOT/AOT_stimuli/rescaled_final/1394_fw.mp4	0.0	360.72917890548706	
68	296.39021587371826	fix_post	2		12	66.0	2.5	/experiments/AOT/AOT_stimuli/rescaled_final/1394_fw.mp4	0.0	360.8475458621979	0.09989809989929199
69	296.49011397361755	fix_pre	0		120	67.0	2.5	/experiments/AOT/AOT_stimuli/rescaled_final/1681_fw.mp4	0.0	360.94744396209717	0.9999270439147949
69	297.49004101753235	movie	1		243	67.0	2.5	/experiments/AOT/AOT_stimuli/rescaled_final/1681_fw.mp4	0.0	361.94737100601196	2.4996469020843506
69	297.8732569217682	pulse	1	t		67.0	2.5	/experiments/AOT/AOT_stimuli/rescaled_final/1681_fw.mp4	0.0	362.3305869102478	
69	299.4735019207001	pulse	1	t		67.0	2.5	/experiments/AOT/AOT_stimuli/rescaled_final/1681_fw.mp4	0.0	363.9308319091797	
69	299.9896879196167	fix_post	2		12	67.0	2.5	/experiments/AOT/AOT_stimuli/rescaled_final/1681_fw.mp4	0.0	364.4470179080963	0.10038113594055176
70	300.09006905555725	fix_pre	0		119	68.0	2.5	/experiments/AOT/AOT_stimuli/rescaled_final/0761_fw.mp4	0.0	364.54739904403687	0.9916408061981201
70	301.0735559463501	pulse	0	t		68.0	2.5	/experiments/AOT/AOT_stimuli/rescaled_final/0761_fw.mp4	0.0	365.5308859348297	
70	301.08170986175537	movie	1		248	68.0	2.5	/experiments/AOT/AOT_stimuli/rescaled_final/0761_fw.mp4	0.0	365.539039850235	2.5079891681671143
70	302.6733589172363	pulse	1	t		68.0	2.5	/experiments/AOT/AOT_stimuli/rescaled_final/0761_fw.mp4	0.0	367.13068890571594	
70	303.5896990299225	fix_post	2		12	68.0	2.5	/experiments/AOT/AOT_stimuli/rescaled_final/0761_fw.mp4	0.0	368.0470290184021	0.09993100166320801
71	303.6896300315857	fix_pre	0		120	69.0	2.5	/experiments/AOT/AOT_stimuli/rescaled_final/0023_fw.mp4	0.0	368.1469600200653	1.0004570484161377
71	304.2735650539398	pulse	0	t		69.0	2.5	/experiments/AOT/AOT_stimuli/rescaled_final/0023_fw.mp4	0.0	368.73089504241943	
71	304.69008708000183	movie	1		247	69.0	2.5	/experiments/AOT/AOT_stimuli/rescaled_final/0023_fw.mp4	0.0	369.14741706848145	2.500074863433838
71	305.8736159801483	pulse	1	t		69.0	2.5	/experiments/AOT/AOT_stimuli/rescaled_final/0023_fw.mp4	0.0	370.33094596862793	
71	307.19016194343567	fix_post	2		12	69.0	2.5	/experiments/AOT/AOT_stimuli/rescaled_final/0023_fw.mp4	0.0	371.6474919319153	0.09990310668945312
72	307.2900650501251	fix_pre	0		120	70.0	2.5	blank	1.0	371.74739503860474	0.9999608993530273
72	307.4735360145569	pulse	0	t		70.0	2.5	blank	1.0	371.9308660030365	
72	308.29002594947815	movie	1		300	70.0	2.5	blank	1.0	372.74735593795776	2.4999070167541504
72	309.07352590560913	pulse	1	t		70.0	2.5	blank	1.0	373.53085589408875	
72	310.67362689971924	pulse	1	t		70.0	2.5	blank	1.0	375.13095688819885	
72	310.7899329662323	fix_post	2		12	70.0	2.5	blank	1.0	375.2472629547119	0.10010194778442383
73	310.8900349140167	fix_pre	0		120	71.0	2.5	/experiments/AOT/AOT_stimuli/rescaled_final/0609_fw.mp4	0.0	375.34736490249634	0.9999940395355225
73	311.89002895355225	movie	1		244	71.0	2.5	/experiments/AOT/AOT_stimuli/rescaled_final/0609_fw.mp4	0.0	376.34735894203186	2.5000340938568115
73	312.27358388900757	pulse	1	t		71.0	2.5	/experiments/AOT/AOT_stimuli/rescaled_final/0609_fw.mp4	0.0	376.7309138774872	
73	313.8735179901123	pulse	1	t		71.0	2.5	/experiments/AOT/AOT_stimuli/rescaled_final/0609_fw.mp4	0.0	378.3308479785919	
73	314.39006304740906	fix_post	2		12	71.0	2.5	/experiments/AOT/AOT_stimuli/rescaled_final/0609_fw.mp4	0.0	378.8473930358887	0.09993791580200195
74	314.49000096321106	fix_pre	0		119	72.0	2.5	/experiments/AOT/AOT_stimuli/rescaled_final/1058_fw.mp4	0.0	378.9473309516907	0.99167799949646
74	315.47356486320496	pulse	0	t		72.0	2.5	/experiments/AOT/AOT_stimuli/rescaled_final/1058_fw.mp4	0.0	379.93089485168457	
74	315.4816789627075	movie	1		246	72.0	2.5	/experiments/AOT/AOT_stimuli/rescaled_final/1058_fw.mp4	0.0	379.93900895118713	2.5082790851593018
74	317.07345390319824	pulse	1	t		72.0	2.5	/experiments/AOT/AOT_stimuli/rescaled_final/1058_fw.mp4	0.0	381.53078389167786	
74	317.9899580478668	fix_post	2		12	72.0	2.5	/experiments/AOT/AOT_stimuli/rescaled_final/1058_fw.mp4	0.0	382.44728803634644	0.10001993179321289
75	318.08997797966003	fix_pre	0		120	73.0	2.5	/experiments/AOT/AOT_stimuli/rescaled_final/1392_fw.mp4	0.0	382.54730796813965	1.0001039505004883
75	318.6734268665314	pulse	0	t		73.0	2.5	/experiments/AOT/AOT_stimuli/rescaled_final/1392_fw.mp4	0.0	383.130756855011	
75	319.0900819301605	movie	1		244	73.0	2.5	/experiments/AOT/AOT_stimuli/rescaled_final/1392_fw.mp4	0.0	383.54741191864014	2.499962091445923
75	320.27356791496277	pulse	1	t		73.0	2.5	/experiments/AOT/AOT_stimuli/rescaled_final/1392_fw.mp4	0.0	384.7308979034424	
75	321.59004402160645	fix_post	2		12	73.0	2.5	/experiments/AOT/AOT_stimuli/rescaled_final/1392_fw.mp4	0.0	386.04737401008606	0.09992098808288574
76	321.68996500968933	fix_pre	0		120	74.0	2.5	/experiments/AOT/AOT_stimuli/rescaled_final/1617_fw.mp4	0.0	386.14729499816895	1.0000410079956055
76	321.87348198890686	pulse	0	t		74.0	2.5	/experiments/AOT/AOT_stimuli/rescaled_final/1617_fw.mp4	0.0	386.3308119773865	
76	322.69000601768494	movie	1		243	74.0	2.5	/experiments/AOT/AOT_stimuli/rescaled_final/1617_fw.mp4	0.0	387.14733600616455	2.4995110034942627
76	323.47344398498535	pulse	1	t		74.0	2.5	/experiments/AOT/AOT_stimuli/rescaled_final/1617_fw.mp4	0.0	387.93077397346497	
76	325.07185792922974	pulse	1	t		74.0	2.5	/experiments/AOT/AOT_stimuli/rescaled_final/1617_fw.mp4	0.0	389.52918791770935	
76	325.1895170211792	fix_post	2		12	74.0	2.5	/experiments/AOT/AOT_stimuli/rescaled_final/1617_fw.mp4	0.0	389.6468470096588	0.10048890113830566
77	325.2900059223175	fix_pre	0		120	75.0	2.5	/experiments/AOT/AOT_stimuli/rescaled_final/0605_rv.mp4	0.0	389.7473359107971	1.000002145767212
77	326.2900080680847	movie	1		245	75.0	2.5	/experiments/AOT/AOT_stimuli/rescaled_final/0605_rv.mp4	0.0	390.74733805656433	2.4998998641967773
77	326.6730098724365	pulse	1	t		75.0	2.5	/experiments/AOT/AOT_stimuli/rescaled_final/0605_rv.mp4	0.0	391.13033986091614	
77	328.2736098766327	pulse	1	t		75.0	2.5	/experiments/AOT/AOT_stimuli/rescaled_final/0605_rv.mp4	0.0	392.7309398651123	
77	328.7899079322815	fix_post	2		12	75.0	2.5	/experiments/AOT/AOT_stimuli/rescaled_final/0605_rv.mp4	0.0	393.2472379207611	0.10000491142272949
78	328.8899128437042	fix_pre	0		119	76.0	2.5	blank	1.0	393.34724283218384	0.9916801452636719
78	329.873409986496	pulse	0	t		76.0	2.5	blank	1.0	394.3307399749756	
78	329.8815929889679	movie	1		301	76.0	2.5	blank	1.0	394.3389229774475	2.508301019668579
78	331.47344994544983	pulse	1	t		76.0	2.5	blank	1.0	395.93077993392944	
78	332.3898940086365	fix_post	2		12	76.0	2.5	blank	1.0	396.8472239971161	0.10007596015930176
79	332.4899699687958	fix_pre	0		120	77.0	2.5	/experiments/AOT/AOT_stimuli/rescaled_final/1397_fw.mp4	0.0	396.9472999572754	0.9999959468841553
79	333.07342886924744	pulse	0	t		77.0	2.5	/experiments/AOT/AOT_stimuli/rescaled_final/1397_fw.mp4	0.0	397.53075885772705	
79	333.48996591567993	movie	1		244	77.0	2.5	/experiments/AOT/AOT_stimuli/rescaled_final/1397_fw.mp4	0.0	397.94729590415955	2.4995341300964355
79	334.67362785339355	pulse	1	t		77.0	2.5	/experiments/AOT/AOT_stimuli/rescaled_final/1397_fw.mp4	0.0	399.13095784187317	
79	335.98950004577637	fix_post	2		12	77.0	2.5	/experiments/AOT/AOT_stimuli/rescaled_final/1397_fw.mp4	0.0	400.446830034256	0.09997892379760742
80	336.089478969574	fix_pre	0		120	78.0	2.5	/experiments/AOT/AOT_stimuli/rescaled_final/0254_fw.mp4	0.0	400.5468089580536	1.000438928604126
80	336.2734429836273	pulse	0	t		78.0	2.5	/experiments/AOT/AOT_stimuli/rescaled_final/0254_fw.mp4	0.0	400.73077297210693	
80	337.0899178981781	movie	1		245	78.0	2.5	/experiments/AOT/AOT_stimuli/rescaled_final/0254_fw.mp4	0.0	401.5472478866577	2.5000481605529785
80	337.87341594696045	pulse	1	t		78.0	2.5	/experiments/AOT/AOT_stimuli/rescaled_final/0254_fw.mp4	0.0	402.33074593544006	
80	339.4734079837799	pulse	1	t		78.0	2.5	/experiments/AOT/AOT_stimuli/rescaled_final/0254_fw.mp4	0.0	403.9307379722595	
80	339.5899660587311	fix_post	2		12	78.0	2.5	/experiments/AOT/AOT_stimuli/rescaled_final/0254_fw.mp4	0.0	404.0472960472107	0.09959793090820312
81	339.6895639896393	fix_pre	0		120	79.0	2.5	/experiments/AOT/AOT_stimuli/rescaled_final/1899_fw.mp4	0.0	404.1468939781189	1.0004029273986816
81	340.68996691703796	movie	1		243	79.0	2.5	/experiments/AOT/AOT_stimuli/rescaled_final/1899_fw.mp4	0.0	405.1472969055176	2.4999871253967285
81	341.0733389854431	pulse	1	t		79.0	2.5	/experiments/AOT/AOT_stimuli/rescaled_final/1899_fw.mp4	0.0	405.53066897392273	
81	342.6733720302582	pulse	1	t		79.0	2.5	/experiments/AOT/AOT_stimuli/rescaled_final/1899_fw.mp4	0.0	407.1307020187378	
81	343.1899540424347	fix_post	2		12	79.0	2.5	/experiments/AOT/AOT_stimuli/rescaled_final/1899_fw.mp4	0.0	407.6472840309143	0.09957599639892578
82	343.2895300388336	fix_pre	0		119	80.0	2.5	/experiments/AOT/AOT_stimuli/rescaled_final/2115_rv.mp4	0.0	407.74686002731323	0.9916720390319824
82	344.2729949951172	pulse	0	t		80.0	2.5	/experiments/AOT/AOT_stimuli/rescaled_final/2115_rv.mp4	0.0	408.7303249835968	
82	344.2812020778656	movie	1		245	80.0	2.5	/experiments/AOT/AOT_stimuli/rescaled_final/2115_rv.mp4	0.0	408.7385320663452	2.5088958740234375
82	345.8745958805084	pulse	1	t		80.0	2.5	/experiments/AOT/AOT_stimuli/rescaled_final/2115_rv.mp4	0.0	410.33192586898804	
82	346.79009795188904	fix_post	2		12	80.0	2.5	/experiments/AOT/AOT_stimuli/rescaled_final/2115_rv.mp4	0.0	411.24742794036865	0.09961104393005371
83	346.8897089958191	fix_pre	0		120	81.0	2.5	/experiments/AOT/AOT_stimuli/rescaled_final/0006_fw.mp4	0.0	411.3470389842987	1.0002069473266602
83	347.4733169078827	pulse	0	t		81.0	2.5	/experiments/AOT/AOT_stimuli/rescaled_final/0006_fw.mp4	0.0	411.9306468963623	
83	347.88991594314575	movie	1		245	81.0	2.5	/experiments/AOT/AOT_stimuli/rescaled_final/0006_fw.mp4	0.0	412.34724593162537	2.4998960494995117
83	349.0734009742737	pulse	1	t		81.0	2.5	/experiments/AOT/AOT_stimuli/rescaled_final/0006_fw.mp4	0.0	413.5307309627533	
83	350.38981199264526	fix_post	2		12	81.0	2.5	/experiments/AOT/AOT_stimuli/rescaled_final/0006_fw.mp4	0.0	414.8471419811249	0.10005903244018555
84	350.48987102508545	fix_pre	0		120	82.0	2.5	blank	1.0	414.94720101356506	0.9999139308929443
84	350.6733720302582	pulse	0	t		82.0	2.5	blank	1.0	415.1307020187378	
84	351.4897849559784	movie	1		300	82.0	2.5	blank	1.0	415.947114944458	2.500037908554077
84	352.2733118534088	pulse	1	t		82.0	2.5	blank	1.0	416.7306418418884	
84	353.87330389022827	pulse	1	t		82.0	2.5	blank	1.0	418.3306338787079	
84	353.98982286453247	fix_post	2		12	82.0	2.5	blank	1.0	418.4471528530121	0.09991908073425293
85	354.0897419452667	fix_pre	0		120	83.0	2.5	/experiments/AOT/AOT_stimuli/rescaled_final/1013_rv.mp4	0.0	418.54707193374634	1.0000231266021729
85	355.0897650718689	movie	1		245	83.0	2.5	/experiments/AOT/AOT_stimuli/rescaled_final/1013_rv.mp4	0.0	419.5470950603485	2.4995968341827393
85	355.4744429588318	pulse	1	t		83.0	2.5	/experiments/AOT/AOT_stimuli/rescaled_final/1013_rv.mp4	0.0	419.9317729473114	
85	357.0732169151306	pulse	1	t		83.0	2.5	/experiments/AOT/AOT_stimuli/rescaled_final/1013_rv.mp4	0.0	421.53054690361023	
85	357.58936190605164	fix_post	2		12	83.0	2.5	/experiments/AOT/AOT_stimuli/rescaled_final/1013_rv.mp4	0.0	422.04669189453125	0.10043907165527344
87	357.6898009777069	stim	0		1716					422.1471309661865	14.30005693435669
87	358.6732668876648	pulse	0	t						423.1305968761444	
87	360.2732319831848	pulse	0	t						424.73056197166443	
87	361.8732578754425	pulse	0	t						426.3305878639221	
87	363.47331500053406	pulse	0	t						427.9306449890137	
87	365.07332491874695	pulse	0	t						429.53065490722656	
87	366.67320704460144	pulse	0	t						431.13053703308105	
87	368.2732660770416	pulse	0	t						432.73059606552124	
87	369.8731939792633	pulse	0	t						434.3305239677429	
87	371.47328186035156	pulse	0	t						435.9306118488312	
