trial_nr	onset	event_type	phase	response	nr_frames	movie_index	movie_duration	movie_file	blank	onset_abs	duration
0	0.15812087059020996	stim	0		76					16.112926959991455	0.6333603858947754
0	0.7834739685058594	response	0	space						16.738280057907104	
1	0.7914812564849854	stim	0		4518					16.74628734588623	37.6681387424469
1	38.44464111328125	pulse	0	t						54.399447202682495	
1	38.459619998931885	stim	1		1714					54.41442608833313	14.298019647598267
1	40.03942656517029	pulse	1	t						55.99423265457153	
1	41.63945698738098	pulse	1	t						57.59426307678223	
1	43.23971176147461	pulse	1	t						59.194517850875854	
1	44.840240240097046	pulse	1	t						60.79504632949829	
1	46.44022488594055	pulse	1	t						62.3950309753418	
1	48.040459394454956	pulse	1	t						63.9952654838562	
1	49.64096188545227	pulse	1	t						65.59576797485352	
1	51.241108655929565	pulse	1	t						67.19591474533081	
2	52.75763964653015	fix_pre	0		10	0.0	2.5	/experiments/Knapen_AOT/AOT_stimuli/rescaled_final/1738_rv.mp4	0.0	68.7124457359314	0.10005617141723633
2	52.83315443992615	pulse	0	t		0.0	2.5	/experiments/Knapen_AOT/AOT_stimuli/rescaled_final/1738_rv.mp4	0.0	68.78796052932739	
2	52.85769581794739	movie	1		290	0.0	2.5	/experiments/Knapen_AOT/AOT_stimuli/rescaled_final/1738_rv.mp4	0.0	68.81250190734863	2.4920339584350586
2	54.43323540687561	pulse	1	t		0.0	2.5	/experiments/Knapen_AOT/AOT_stimuli/rescaled_final/1738_rv.mp4	0.0	70.38804149627686	
2	55.349729776382446	fix_post	2		12	0.0	2.5	/experiments/Knapen_AOT/AOT_stimuli/rescaled_final/1738_rv.mp4	0.0	71.30453586578369	0.10000371932983398
3	55.44973349571228	fix_pre	0		120	1.0	2.5	/experiments/Knapen_AOT/AOT_stimuli/rescaled_final/0782_fw.mp4	0.0	71.40453958511353	1.0084741115570068
3	56.033310651779175	pulse	0	t		1.0	2.5	/experiments/Knapen_AOT/AOT_stimuli/rescaled_final/0782_fw.mp4	0.0	71.98811674118042	
3	56.45820760726929	movie	1		297	1.0	2.5	/experiments/Knapen_AOT/AOT_stimuli/rescaled_final/0782_fw.mp4	0.0	72.41301369667053	2.4920356273651123
3	57.63350224494934	pulse	1	t		1.0	2.5	/experiments/Knapen_AOT/AOT_stimuli/rescaled_final/0782_fw.mp4	0.0	73.58830833435059	
3	58.9502432346344	fix_post	2		12	1.0	2.5	/experiments/Knapen_AOT/AOT_stimuli/rescaled_final/0782_fw.mp4	0.0	74.90504932403564	0.10001182556152344
4	59.05025506019592	fix_pre	0		120	2.0	2.5	/experiments/Knapen_AOT/AOT_stimuli/rescaled_final/2048_rv.mp4	0.0	75.00506114959717	1.0086066722869873
4	59.23382353782654	pulse	0	t		2.0	2.5	/experiments/Knapen_AOT/AOT_stimuli/rescaled_final/2048_rv.mp4	0.0	75.18862962722778	
4	60.05886173248291	movie	1		289	2.0	2.5	/experiments/Knapen_AOT/AOT_stimuli/rescaled_final/2048_rv.mp4	0.0	76.01366782188416	2.491976737976074
4	60.83399176597595	pulse	1	t		2.0	2.5	/experiments/Knapen_AOT/AOT_stimuli/rescaled_final/2048_rv.mp4	0.0	76.7887978553772	
4	62.43424367904663	pulse	1	t		2.0	2.5	/experiments/Knapen_AOT/AOT_stimuli/rescaled_final/2048_rv.mp4	0.0	78.38904976844788	
4	62.550838470458984	fix_post	2		12	2.0	2.5	/experiments/Knapen_AOT/AOT_stimuli/rescaled_final/2048_rv.mp4	0.0	78.50564455986023	0.09995579719543457
5	62.65079426765442	fix_pre	0		120	3.0	2.5	/experiments/Knapen_AOT/AOT_stimuli/rescaled_final/1799_rv.mp4	0.0	78.60560035705566	1.0085012912750244
5	63.65929555892944	movie	1		286	3.0	2.5	/experiments/Knapen_AOT/AOT_stimuli/rescaled_final/1799_rv.mp4	0.0	79.61410164833069	2.4920618534088135
5	64.0347969532013	pulse	1	t		3.0	2.5	/experiments/Knapen_AOT/AOT_stimuli/rescaled_final/1799_rv.mp4	0.0	79.98960304260254	
5	65.63485789299011	pulse	1	t		3.0	2.5	/experiments/Knapen_AOT/AOT_stimuli/rescaled_final/1799_rv.mp4	0.0	81.58966398239136	
5	66.15135741233826	fix_post	2		12	3.0	2.5	/experiments/Knapen_AOT/AOT_stimuli/rescaled_final/1799_rv.mp4	0.0	82.1061635017395	0.09997987747192383
6	66.25133728981018	fix_pre	0		119	4.0	2.5	/experiments/Knapen_AOT/AOT_stimuli/rescaled_final/1931_fw.mp4	0.0	82.20614337921143	1.0001587867736816
6	67.23503565788269	pulse	0	t		4.0	2.5	/experiments/Knapen_AOT/AOT_stimuli/rescaled_final/1931_fw.mp4	0.0	83.18984174728394	
6	67.25149607658386	movie	1		279	4.0	2.5	/experiments/Knapen_AOT/AOT_stimuli/rescaled_final/1931_fw.mp4	0.0	83.20630216598511	2.500394344329834
6	68.83446431159973	pulse	1	t		4.0	2.5	/experiments/Knapen_AOT/AOT_stimuli/rescaled_final/1931_fw.mp4	0.0	84.78927040100098	
6	69.7518904209137	fix_post	2		12	4.0	2.5	/experiments/Knapen_AOT/AOT_stimuli/rescaled_final/1931_fw.mp4	0.0	85.70669651031494	0.10004234313964844
7	69.85193276405334	fix_pre	0		120	5.0	2.5	blank	1.0	85.80673885345459	1.0000791549682617
7	70.4355480670929	pulse	0	t		5.0	2.5	blank	1.0	86.39035415649414	
7	70.8520119190216	movie	1		300	5.0	2.5	blank	1.0	86.80681800842285	2.50038480758667
7	72.03588390350342	pulse	1	t		5.0	2.5	blank	1.0	87.99068999290466	
7	73.35239672660828	fix_post	2		12	5.0	2.5	blank	1.0	89.30720281600952	0.10001420974731445
8	73.45241093635559	fix_pre	0		120	6.0	2.5	/experiments/Knapen_AOT/AOT_stimuli/rescaled_final/0505_fw.mp4	0.0	89.40721702575684	1.008584976196289
8	73.63597655296326	pulse	0	t		6.0	2.5	/experiments/Knapen_AOT/AOT_stimuli/rescaled_final/0505_fw.mp4	0.0	89.5907826423645	
8	74.46099591255188	movie	1		287	6.0	2.5	/experiments/Knapen_AOT/AOT_stimuli/rescaled_final/0505_fw.mp4	0.0	90.41580200195312	2.492018461227417
8	75.2342140674591	pulse	1	t		6.0	2.5	/experiments/Knapen_AOT/AOT_stimuli/rescaled_final/0505_fw.mp4	0.0	91.18902015686035	
8	76.83452343940735	pulse	1	t		6.0	2.5	/experiments/Knapen_AOT/AOT_stimuli/rescaled_final/0505_fw.mp4	0.0	92.7893295288086	
8	76.9530143737793	fix_post	2		12	6.0	2.5	/experiments/Knapen_AOT/AOT_stimuli/rescaled_final/0505_fw.mp4	0.0	92.90782046318054	0.10001397132873535
9	77.05302834510803	fix_pre	0		120	7.0	2.5	/experiments/Knapen_AOT/AOT_stimuli/rescaled_final/1913_rv.mp4	0.0	93.00783443450928	1.0084288120269775
9	78.06145715713501	movie	1		287	7.0	2.5	/experiments/Knapen_AOT/AOT_stimuli/rescaled_final/1913_rv.mp4	0.0	94.01626324653625	2.492022752761841
9	78.43539524078369	pulse	1	t		7.0	2.5	/experiments/Knapen_AOT/AOT_stimuli/rescaled_final/1913_rv.mp4	0.0	94.39020133018494	
9	80.03474855422974	pulse	1	t		7.0	2.5	/experiments/Knapen_AOT/AOT_stimuli/rescaled_final/1913_rv.mp4	0.0	95.98955464363098	
9	80.55347990989685	fix_post	2		12	7.0	2.5	/experiments/Knapen_AOT/AOT_stimuli/rescaled_final/1913_rv.mp4	0.0	96.5082859992981	0.1000218391418457
10	80.6535017490387	fix_pre	0		119	8.0	2.5	/experiments/Knapen_AOT/AOT_stimuli/rescaled_final/1370_rv.mp4	0.0	96.60830783843994	1.0001564025878906
10	81.63733267784119	pulse	0	t		8.0	2.5	/experiments/Knapen_AOT/AOT_stimuli/rescaled_final/1370_rv.mp4	0.0	97.59213876724243	
10	81.65365815162659	movie	1		275	8.0	2.5	/experiments/Knapen_AOT/AOT_stimuli/rescaled_final/1370_rv.mp4	0.0	97.60846424102783	2.500368118286133
10	83.23600172996521	pulse	1	t		8.0	2.5	/experiments/Knapen_AOT/AOT_stimuli/rescaled_final/1370_rv.mp4	0.0	99.19080781936646	
10	84.15402626991272	fix_post	2		12	8.0	2.5	/experiments/Knapen_AOT/AOT_stimuli/rescaled_final/1370_rv.mp4	0.0	100.10883235931396	0.10006976127624512
11	84.25409603118896	fix_pre	0		120	9.0	2.5	/experiments/Knapen_AOT/AOT_stimuli/rescaled_final/1782_fw.mp4	0.0	100.20890212059021	1.0084619522094727
11	84.83768916130066	pulse	0	t		9.0	2.5	/experiments/Knapen_AOT/AOT_stimuli/rescaled_final/1782_fw.mp4	0.0	100.7924952507019	
11	85.26255798339844	movie	1		288	9.0	2.5	/experiments/Knapen_AOT/AOT_stimuli/rescaled_final/1782_fw.mp4	0.0	101.21736407279968	2.4920010566711426
11	86.43607473373413	pulse	1	t		9.0	2.5	/experiments/Knapen_AOT/AOT_stimuli/rescaled_final/1782_fw.mp4	0.0	102.39088082313538	
11	87.75455904006958	fix_post	2		12	9.0	2.5	/experiments/Knapen_AOT/AOT_stimuli/rescaled_final/1782_fw.mp4	0.0	103.70936512947083	0.10003495216369629
12	87.85459399223328	fix_pre	0		120	10.0	2.5	/experiments/Knapen_AOT/AOT_stimuli/rescaled_final/0784_fw.mp4	0.0	103.80940008163452	1.008514642715454
12	88.03823590278625	pulse	0	t		10.0	2.5	/experiments/Knapen_AOT/AOT_stimuli/rescaled_final/0784_fw.mp4	0.0	103.9930419921875	
12	88.86310863494873	movie	1		286	10.0	2.5	/experiments/Knapen_AOT/AOT_stimuli/rescaled_final/0784_fw.mp4	0.0	104.81791472434998	2.4920806884765625
12	89.63860559463501	pulse	1	t		10.0	2.5	/experiments/Knapen_AOT/AOT_stimuli/rescaled_final/0784_fw.mp4	0.0	105.59341168403625	
12	91.23674631118774	pulse	1	t		10.0	2.5	/experiments/Knapen_AOT/AOT_stimuli/rescaled_final/0784_fw.mp4	0.0	107.19155240058899	
12	91.3551893234253	fix_post	2		12	10.0	2.5	/experiments/Knapen_AOT/AOT_stimuli/rescaled_final/0784_fw.mp4	0.0	107.30999541282654	0.10001802444458008
13	91.45520734786987	fix_pre	0		120	11.0	2.5	/experiments/Knapen_AOT/AOT_stimuli/rescaled_final/0597_fw.mp4	0.0	107.41001343727112	1.0084164142608643
13	92.46362376213074	movie	1		285	11.0	2.5	/experiments/Knapen_AOT/AOT_stimuli/rescaled_final/0597_fw.mp4	0.0	108.41842985153198	2.4920260906219482
13	92.83710026741028	pulse	1	t		11.0	2.5	/experiments/Knapen_AOT/AOT_stimuli/rescaled_final/0597_fw.mp4	0.0	108.79190635681152	
13	94.4370744228363	pulse	1	t		11.0	2.5	/experiments/Knapen_AOT/AOT_stimuli/rescaled_final/0597_fw.mp4	0.0	110.39188051223755	
13	94.95564985275269	fix_post	2		12	11.0	2.5	/experiments/Knapen_AOT/AOT_stimuli/rescaled_final/0597_fw.mp4	0.0	110.91045594215393	0.10001063346862793
14	95.05566048622131	fix_pre	0		119	12.0	2.5	/experiments/Knapen_AOT/AOT_stimuli/rescaled_final/1867_fw.mp4	0.0	111.01046657562256	1.0001840591430664
14	96.03949356079102	pulse	0	t		12.0	2.5	/experiments/Knapen_AOT/AOT_stimuli/rescaled_final/1867_fw.mp4	0.0	111.99429965019226	
14	96.05584454536438	movie	1		281	12.0	2.5	/experiments/Knapen_AOT/AOT_stimuli/rescaled_final/1867_fw.mp4	0.0	112.01065063476562	2.500354051589966
14	97.63787078857422	pulse	1	t		12.0	2.5	/experiments/Knapen_AOT/AOT_stimuli/rescaled_final/1867_fw.mp4	0.0	113.59267687797546	
14	98.55619859695435	fix_post	2		12	12.0	2.5	/experiments/Knapen_AOT/AOT_stimuli/rescaled_final/1867_fw.mp4	0.0	114.51100468635559	0.1000509262084961
15	98.65624952316284	fix_pre	0		120	13.0	2.5	/experiments/Knapen_AOT/AOT_stimuli/rescaled_final/1884_fw.mp4	0.0	114.61105561256409	1.00846266746521
15	99.23983669281006	pulse	0	t		13.0	2.5	/experiments/Knapen_AOT/AOT_stimuli/rescaled_final/1884_fw.mp4	0.0	115.1946427822113	
15	99.66471219062805	movie	1		285	13.0	2.5	/experiments/Knapen_AOT/AOT_stimuli/rescaled_final/1884_fw.mp4	0.0	115.6195182800293	2.4920313358306885
15	100.83838391304016	pulse	1	t		13.0	2.5	/experiments/Knapen_AOT/AOT_stimuli/rescaled_final/1884_fw.mp4	0.0	116.7931900024414	
15	102.15674352645874	fix_post	2		12	13.0	2.5	/experiments/Knapen_AOT/AOT_stimuli/rescaled_final/1884_fw.mp4	0.0	118.11154961585999	0.10000300407409668
16	102.25674653053284	fix_pre	0		120	14.0	2.5	blank	1.0	118.21155261993408	1.0001635551452637
16	102.44040322303772	pulse	0	t		14.0	2.5	blank	1.0	118.39520931243896	
16	103.2569100856781	movie	1		300	14.0	2.5	blank	1.0	119.21171617507935	2.500358819961548
16	104.04057121276855	pulse	1	t		14.0	2.5	blank	1.0	119.9953773021698	
16	105.6407573223114	pulse	1	t		14.0	2.5	blank	1.0	121.59556341171265	
16	105.75726890563965	fix_post	2		12	14.0	2.5	blank	1.0	121.7120749950409	0.10018372535705566
17	105.8574526309967	fix_pre	0		120	15.0	2.5	/experiments/Knapen_AOT/AOT_stimuli/rescaled_final/0678_fw.mp4	0.0	121.81225872039795	1.0083208084106445
17	106.86577343940735	movie	1		286	15.0	2.5	/experiments/Knapen_AOT/AOT_stimuli/rescaled_final/0678_fw.mp4	0.0	122.8205795288086	2.492044687271118
17	107.24282789230347	pulse	1	t		15.0	2.5	/experiments/Knapen_AOT/AOT_stimuli/rescaled_final/0678_fw.mp4	0.0	123.19763398170471	
17	108.83904433250427	pulse	1	t		15.0	2.5	/experiments/Knapen_AOT/AOT_stimuli/rescaled_final/0678_fw.mp4	0.0	124.79385042190552	
17	109.35781812667847	fix_post	2		12	15.0	2.5	/experiments/Knapen_AOT/AOT_stimuli/rescaled_final/0678_fw.mp4	0.0	125.31262421607971	0.10000419616699219
18	109.45782232284546	fix_pre	0		118	16.0	2.5	/experiments/Knapen_AOT/AOT_stimuli/rescaled_final/2025_rv.mp4	0.0	125.4126284122467	0.9918456077575684
18	110.43341946601868	pulse	0	t		16.0	2.5	/experiments/Knapen_AOT/AOT_stimuli/rescaled_final/2025_rv.mp4	0.0	126.38822555541992	
18	110.44966793060303	movie	1		290	16.0	2.5	/experiments/Knapen_AOT/AOT_stimuli/rescaled_final/2025_rv.mp4	0.0	126.40447402000427	2.5003669261932373
18	112.03354811668396	pulse	1	t		16.0	2.5	/experiments/Knapen_AOT/AOT_stimuli/rescaled_final/2025_rv.mp4	0.0	127.9883542060852	
18	112.95003485679626	fix_post	2		12	16.0	2.5	/experiments/Knapen_AOT/AOT_stimuli/rescaled_final/2025_rv.mp4	0.0	128.9048409461975	0.09999942779541016
19	113.05003428459167	fix_pre	0		120	17.0	2.5	/experiments/Knapen_AOT/AOT_stimuli/rescaled_final/0885_fw.mp4	0.0	129.00484037399292	1.008538007736206
19	113.6340503692627	pulse	0	t		17.0	2.5	/experiments/Knapen_AOT/AOT_stimuli/rescaled_final/0885_fw.mp4	0.0	129.58885645866394	
19	114.05857229232788	movie	1		280	17.0	2.5	/experiments/Knapen_AOT/AOT_stimuli/rescaled_final/0885_fw.mp4	0.0	130.01337838172913	2.4920012950897217
19	115.23388028144836	pulse	1	t		17.0	2.5	/experiments/Knapen_AOT/AOT_stimuli/rescaled_final/0885_fw.mp4	0.0	131.1886863708496	
19	116.5505735874176	fix_post	2		12	17.0	2.5	/experiments/Knapen_AOT/AOT_stimuli/rescaled_final/0885_fw.mp4	0.0	132.50537967681885	0.10000777244567871
20	116.65058135986328	fix_pre	0		120	18.0	2.5	/experiments/Knapen_AOT/AOT_stimuli/rescaled_final/2028_rv.mp4	0.0	132.60538744926453	1.0085017681121826
20	116.83419561386108	pulse	0	t		18.0	2.5	/experiments/Knapen_AOT/AOT_stimuli/rescaled_final/2028_rv.mp4	0.0	132.78900170326233	
20	117.65908312797546	movie	1		286	18.0	2.5	/experiments/Knapen_AOT/AOT_stimuli/rescaled_final/2028_rv.mp4	0.0	133.6138892173767	2.4920053482055664
20	118.4335470199585	pulse	1	t		18.0	2.5	/experiments/Knapen_AOT/AOT_stimuli/rescaled_final/2028_rv.mp4	0.0	134.38835310935974	
20	120.03493690490723	pulse	1	t		18.0	2.5	/experiments/Knapen_AOT/AOT_stimuli/rescaled_final/2028_rv.mp4	0.0	135.98974299430847	
20	120.15108847618103	fix_post	2		12	18.0	2.5	/experiments/Knapen_AOT/AOT_stimuli/rescaled_final/2028_rv.mp4	0.0	136.10589456558228	0.10002732276916504
21	120.2511157989502	fix_pre	0		120	19.0	2.5	/experiments/Knapen_AOT/AOT_stimuli/rescaled_final/1798_rv.mp4	0.0	136.20592188835144	1.008547067642212
21	121.25966286659241	movie	1		278	19.0	2.5	/experiments/Knapen_AOT/AOT_stimuli/rescaled_final/1798_rv.mp4	0.0	137.21446895599365	2.491983413696289
21	121.63484740257263	pulse	1	t		19.0	2.5	/experiments/Knapen_AOT/AOT_stimuli/rescaled_final/1798_rv.mp4	0.0	137.58965349197388	
21	123.2353663444519	pulse	1	t		19.0	2.5	/experiments/Knapen_AOT/AOT_stimuli/rescaled_final/1798_rv.mp4	0.0	139.19017243385315	
21	123.7516462802887	fix_post	2		12	19.0	2.5	/experiments/Knapen_AOT/AOT_stimuli/rescaled_final/1798_rv.mp4	0.0	139.70645236968994	0.10015988349914551
22	123.85180616378784	fix_pre	0		119	20.0	2.5	blank	1.0	139.8066122531891	0.9917154312133789
22	124.83537101745605	pulse	0	t		20.0	2.5	blank	1.0	140.7901771068573	
22	124.84352159500122	movie	1		301	20.0	2.5	blank	1.0	140.79832768440247	2.5086755752563477
22	126.43562865257263	pulse	1	t		20.0	2.5	blank	1.0	142.39043474197388	
22	127.35219717025757	fix_post	2		12	20.0	2.5	blank	1.0	143.3070032596588	0.10001850128173828
23	127.4522156715393	fix_pre	0		120	21.0	2.5	/experiments/Knapen_AOT/AOT_stimuli/rescaled_final/1945_fw.mp4	0.0	143.40702176094055	1.0085175037384033
23	128.0358805656433	pulse	0	t		21.0	2.5	/experiments/Knapen_AOT/AOT_stimuli/rescaled_final/1945_fw.mp4	0.0	143.99068665504456	
23	128.4607331752777	movie	1		285	21.0	2.5	/experiments/Knapen_AOT/AOT_stimuli/rescaled_final/1945_fw.mp4	0.0	144.41553926467896	2.4919846057891846
23	129.63405299186707	pulse	1	t		21.0	2.5	/experiments/Knapen_AOT/AOT_stimuli/rescaled_final/1945_fw.mp4	0.0	145.5888590812683	
23	130.9527177810669	fix_post	2		12	21.0	2.5	/experiments/Knapen_AOT/AOT_stimuli/rescaled_final/1945_fw.mp4	0.0	146.90752387046814	0.10006475448608398
24	131.05278253555298	fix_pre	0		120	22.0	2.5	/experiments/Knapen_AOT/AOT_stimuli/rescaled_final/0679_fw.mp4	0.0	147.00758862495422	1.0085475444793701
24	131.23658561706543	pulse	0	t		22.0	2.5	/experiments/Knapen_AOT/AOT_stimuli/rescaled_final/0679_fw.mp4	0.0	147.19139170646667	
24	132.06133008003235	movie	1		288	22.0	2.5	/experiments/Knapen_AOT/AOT_stimuli/rescaled_final/0679_fw.mp4	0.0	148.0161361694336	2.4919562339782715
24	132.83481860160828	pulse	1	t		22.0	2.5	/experiments/Knapen_AOT/AOT_stimuli/rescaled_final/0679_fw.mp4	0.0	148.78962469100952	
24	134.4346375465393	pulse	1	t		22.0	2.5	/experiments/Knapen_AOT/AOT_stimuli/rescaled_final/0679_fw.mp4	0.0	150.38944363594055	
24	134.55328631401062	fix_post	2		12	22.0	2.5	/experiments/Knapen_AOT/AOT_stimuli/rescaled_final/0679_fw.mp4	0.0	150.50809240341187	0.10003352165222168
25	134.65331983566284	fix_pre	0		120	23.0	2.5	/experiments/Knapen_AOT/AOT_stimuli/rescaled_final/1867_rv.mp4	0.0	150.6081259250641	1.0085022449493408
25	135.66182208061218	movie	1		280	23.0	2.5	/experiments/Knapen_AOT/AOT_stimuli/rescaled_final/1867_rv.mp4	0.0	151.61662817001343	2.491992473602295
25	136.03565430641174	pulse	1	t		23.0	2.5	/experiments/Knapen_AOT/AOT_stimuli/rescaled_final/1867_rv.mp4	0.0	151.990460395813	
25	137.63543558120728	pulse	1	t		23.0	2.5	/experiments/Knapen_AOT/AOT_stimuli/rescaled_final/1867_rv.mp4	0.0	153.59024167060852	
25	138.15381455421448	fix_post	2		12	23.0	2.5	/experiments/Knapen_AOT/AOT_stimuli/rescaled_final/1867_rv.mp4	0.0	154.10862064361572	0.10001206398010254
26	138.25382661819458	fix_pre	0		119	24.0	2.5	/experiments/Knapen_AOT/AOT_stimuli/rescaled_final/1185_fw.mp4	0.0	154.20863270759583	1.0001609325408936
26	139.23749804496765	pulse	0	t		24.0	2.5	/experiments/Knapen_AOT/AOT_stimuli/rescaled_final/1185_fw.mp4	0.0	155.1923041343689	
26	139.25398755073547	movie	1		295	24.0	2.5	/experiments/Knapen_AOT/AOT_stimuli/rescaled_final/1185_fw.mp4	0.0	155.20879364013672	2.500312566757202
26	140.83622527122498	pulse	1	t		24.0	2.5	/experiments/Knapen_AOT/AOT_stimuli/rescaled_final/1185_fw.mp4	0.0	156.79103136062622	
26	141.75430011749268	fix_post	2		12	24.0	2.5	/experiments/Knapen_AOT/AOT_stimuli/rescaled_final/1185_fw.mp4	0.0	157.70910620689392	0.1000509262084961
27	141.85435104370117	fix_pre	0		120	25.0	2.5	/experiments/Knapen_AOT/AOT_stimuli/rescaled_final/0542_fw.mp4	0.0	157.80915713310242	1.000126838684082
27	142.43800926208496	pulse	0	t		25.0	2.5	/experiments/Knapen_AOT/AOT_stimuli/rescaled_final/0542_fw.mp4	0.0	158.3928153514862	
27	142.85447788238525	movie	1		297	25.0	2.5	/experiments/Knapen_AOT/AOT_stimuli/rescaled_final/0542_fw.mp4	0.0	158.8092839717865	2.5003714561462402
27	144.03578305244446	pulse	1	t		25.0	2.5	/experiments/Knapen_AOT/AOT_stimuli/rescaled_final/0542_fw.mp4	0.0	159.9905891418457	
27	145.3548493385315	fix_post	2		12	25.0	2.5	/experiments/Knapen_AOT/AOT_stimuli/rescaled_final/0542_fw.mp4	0.0	161.30965542793274	0.10002398490905762
28	145.45487332344055	fix_pre	0		120	26.0	2.5	/experiments/Knapen_AOT/AOT_stimuli/rescaled_final/2163_fw.mp4	0.0	161.4096794128418	1.0001583099365234
28	145.6383831501007	pulse	0	t		26.0	2.5	/experiments/Knapen_AOT/AOT_stimuli/rescaled_final/2163_fw.mp4	0.0	161.59318923950195	
28	146.45503163337708	movie	1		294	26.0	2.5	/experiments/Knapen_AOT/AOT_stimuli/rescaled_final/2163_fw.mp4	0.0	162.40983772277832	2.5003859996795654
28	147.2342927455902	pulse	1	t		26.0	2.5	/experiments/Knapen_AOT/AOT_stimuli/rescaled_final/2163_fw.mp4	0.0	163.18909883499146	
28	148.83455419540405	pulse	1	t		26.0	2.5	/experiments/Knapen_AOT/AOT_stimuli/rescaled_final/2163_fw.mp4	0.0	164.7893602848053	
28	148.95541763305664	fix_post	2		12	26.0	2.5	/experiments/Knapen_AOT/AOT_stimuli/rescaled_final/2163_fw.mp4	0.0	164.91022372245789	0.09999752044677734
29	149.05541515350342	fix_pre	0		120	27.0	2.5	/experiments/Knapen_AOT/AOT_stimuli/rescaled_final/2025_fw.mp4	0.0	165.01022124290466	1.0001378059387207
29	150.05555295944214	movie	1		293	27.0	2.5	/experiments/Knapen_AOT/AOT_stimuli/rescaled_final/2025_fw.mp4	0.0	166.01035904884338	2.500401258468628
29	150.43528604507446	pulse	1	t		27.0	2.5	/experiments/Knapen_AOT/AOT_stimuli/rescaled_final/2025_fw.mp4	0.0	166.3900921344757	
29	152.0378668308258	pulse	1	t		27.0	2.5	/experiments/Knapen_AOT/AOT_stimuli/rescaled_final/2025_fw.mp4	0.0	167.99267292022705	
29	152.55595421791077	fix_post	2		12	27.0	2.5	/experiments/Knapen_AOT/AOT_stimuli/rescaled_final/2025_fw.mp4	0.0	168.510760307312	0.10001945495605469
30	152.65597367286682	fix_pre	0		119	28.0	2.5	blank	1.0	168.61077976226807	0.9919414520263672
30	153.63965678215027	pulse	0	t		28.0	2.5	blank	1.0	169.5944628715515	
30	153.6479151248932	movie	1		301	28.0	2.5	blank	1.0	169.60272121429443	2.5085926055908203
30	155.24001836776733	pulse	1	t		28.0	2.5	blank	1.0	171.19482445716858	
30	156.156507730484	fix_post	2		12	28.0	2.5	blank	1.0	172.11131381988525	0.10002326965332031
31	156.25653100013733	fix_pre	0		120	29.0	2.5	/experiments/Knapen_AOT/AOT_stimuli/rescaled_final/1137_fw.mp4	0.0	172.21133708953857	1.008486032485962
31	156.8401861190796	pulse	0	t		29.0	2.5	/experiments/Knapen_AOT/AOT_stimuli/rescaled_final/1137_fw.mp4	0.0	172.79499220848083	
31	157.2650170326233	movie	1		292	29.0	2.5	/experiments/Knapen_AOT/AOT_stimuli/rescaled_final/1137_fw.mp4	0.0	173.21982312202454	2.4920296669006348
31	158.43858647346497	pulse	1	t		29.0	2.5	/experiments/Knapen_AOT/AOT_stimuli/rescaled_final/1137_fw.mp4	0.0	174.3933925628662	
31	159.75704669952393	fix_post	2		12	29.0	2.5	/experiments/Knapen_AOT/AOT_stimuli/rescaled_final/1137_fw.mp4	0.0	175.71185278892517	0.10002875328063965
32	159.85707545280457	fix_pre	0		120	30.0	2.5	/experiments/Knapen_AOT/AOT_stimuli/rescaled_final/1565_fw.mp4	0.0	175.8118815422058	1.0085246562957764
32	160.0407235622406	pulse	0	t		30.0	2.5	/experiments/Knapen_AOT/AOT_stimuli/rescaled_final/1565_fw.mp4	0.0	175.99552965164185	
32	160.86560010910034	movie	1		288	30.0	2.5	/experiments/Knapen_AOT/AOT_stimuli/rescaled_final/1565_fw.mp4	0.0	176.8204061985016	2.491997003555298
32	161.63879203796387	pulse	1	t		30.0	2.5	/experiments/Knapen_AOT/AOT_stimuli/rescaled_final/1565_fw.mp4	0.0	177.5935981273651	
32	163.23920845985413	pulse	1	t		30.0	2.5	/experiments/Knapen_AOT/AOT_stimuli/rescaled_final/1565_fw.mp4	0.0	179.19401454925537	
32	163.35759711265564	fix_post	2		12	30.0	2.5	/experiments/Knapen_AOT/AOT_stimuli/rescaled_final/1565_fw.mp4	0.0	179.31240320205688	0.10001444816589355
33	163.45761156082153	fix_pre	0		120	31.0	2.5	/experiments/Knapen_AOT/AOT_stimuli/rescaled_final/1059_fw.mp4	0.0	179.41241765022278	1.0085089206695557
33	164.4661204814911	movie	1		282	31.0	2.5	/experiments/Knapen_AOT/AOT_stimuli/rescaled_final/1059_fw.mp4	0.0	180.42092657089233	2.492034435272217
33	164.83983612060547	pulse	1	t		31.0	2.5	/experiments/Knapen_AOT/AOT_stimuli/rescaled_final/1059_fw.mp4	0.0	180.7946422100067	
33	166.4393937587738	pulse	1	t		31.0	2.5	/experiments/Knapen_AOT/AOT_stimuli/rescaled_final/1059_fw.mp4	0.0	182.39419984817505	
33	166.9581549167633	fix_post	2		12	31.0	2.5	/experiments/Knapen_AOT/AOT_stimuli/rescaled_final/1059_fw.mp4	0.0	182.91296100616455	0.10000777244567871
34	167.05816268920898	fix_pre	0		118	32.0	2.5	/experiments/Knapen_AOT/AOT_stimuli/rescaled_final/0587_fw.mp4	0.0	183.01296877861023	0.9918034076690674
34	168.03391480445862	pulse	0	t		32.0	2.5	/experiments/Knapen_AOT/AOT_stimuli/rescaled_final/0587_fw.mp4	0.0	183.98872089385986	
34	168.04996609687805	movie	1		288	32.0	2.5	/experiments/Knapen_AOT/AOT_stimuli/rescaled_final/0587_fw.mp4	0.0	184.0047721862793	2.5004124641418457
34	169.6341052055359	pulse	1	t		32.0	2.5	/experiments/Knapen_AOT/AOT_stimuli/rescaled_final/0587_fw.mp4	0.0	185.58891129493713	
34	170.5503785610199	fix_post	2		12	32.0	2.5	/experiments/Knapen_AOT/AOT_stimuli/rescaled_final/0587_fw.mp4	0.0	186.50518465042114	0.10010242462158203
35	170.65048098564148	fix_pre	0		120	33.0	2.5	/experiments/Knapen_AOT/AOT_stimuli/rescaled_final/0718_rv.mp4	0.0	186.60528707504272	1.0084023475646973
35	171.2341272830963	pulse	0	t		33.0	2.5	/experiments/Knapen_AOT/AOT_stimuli/rescaled_final/0718_rv.mp4	0.0	187.18893337249756	
35	171.65888333320618	movie	1		281	33.0	2.5	/experiments/Knapen_AOT/AOT_stimuli/rescaled_final/0718_rv.mp4	0.0	187.61368942260742	2.49200177192688
35	172.83450722694397	pulse	1	t		33.0	2.5	/experiments/Knapen_AOT/AOT_stimuli/rescaled_final/0718_rv.mp4	0.0	188.78931331634521	
35	174.15088510513306	fix_post	2		12	33.0	2.5	/experiments/Knapen_AOT/AOT_stimuli/rescaled_final/0718_rv.mp4	0.0	190.1056911945343	0.10007667541503906
36	174.2509617805481	fix_pre	0		120	34.0	2.5	blank	1.0	190.20576786994934	1.0000853538513184
36	174.43454504013062	pulse	0	t		34.0	2.5	blank	1.0	190.38935112953186	
36	175.2510471343994	movie	1		300	34.0	2.5	blank	1.0	191.20585322380066	2.500391721725464
36	176.0347626209259	pulse	1	t		34.0	2.5	blank	1.0	191.98956871032715	
36	177.6349492073059	pulse	1	t		34.0	2.5	blank	1.0	193.58975529670715	
36	177.75143885612488	fix_post	2		12	34.0	2.5	blank	1.0	193.70624494552612	0.10000348091125488
37	177.85144233703613	fix_pre	0		120	35.0	2.5	/experiments/Knapen_AOT/AOT_stimuli/rescaled_final/1880_fw.mp4	0.0	193.80624842643738	1.0086078643798828
37	178.86005020141602	movie	1		285	35.0	2.5	/experiments/Knapen_AOT/AOT_stimuli/rescaled_final/1880_fw.mp4	0.0	194.81485629081726	2.4920132160186768
37	179.2354416847229	pulse	1	t		35.0	2.5	/experiments/Knapen_AOT/AOT_stimuli/rescaled_final/1880_fw.mp4	0.0	195.19024777412415	
37	180.83542227745056	pulse	1	t		35.0	2.5	/experiments/Knapen_AOT/AOT_stimuli/rescaled_final/1880_fw.mp4	0.0	196.7902283668518	
37	181.3520634174347	fix_post	2		12	35.0	2.5	/experiments/Knapen_AOT/AOT_stimuli/rescaled_final/1880_fw.mp4	0.0	197.30686950683594	0.09992623329162598
38	181.45198965072632	fix_pre	0		119	36.0	2.5	/experiments/Knapen_AOT/AOT_stimuli/rescaled_final/1722_fw.mp4	0.0	197.40679574012756	1.000169038772583
38	182.43592524528503	pulse	0	t		36.0	2.5	/experiments/Knapen_AOT/AOT_stimuli/rescaled_final/1722_fw.mp4	0.0	198.39073133468628	
38	182.4521586894989	movie	1		286	36.0	2.5	/experiments/Knapen_AOT/AOT_stimuli/rescaled_final/1722_fw.mp4	0.0	198.40696477890015	2.500356674194336
38	184.03522562980652	pulse	1	t		36.0	2.5	/experiments/Knapen_AOT/AOT_stimuli/rescaled_final/1722_fw.mp4	0.0	199.99003171920776	
38	184.95251536369324	fix_post	2		12	36.0	2.5	/experiments/Knapen_AOT/AOT_stimuli/rescaled_final/1722_fw.mp4	0.0	200.90732145309448	0.10004401206970215
39	185.05255937576294	fix_pre	0		120	37.0	2.5	/experiments/Knapen_AOT/AOT_stimuli/rescaled_final/0014_rv.mp4	0.0	201.00736546516418	1.0084517002105713
39	185.63615441322327	pulse	0	t		37.0	2.5	/experiments/Knapen_AOT/AOT_stimuli/rescaled_final/0014_rv.mp4	0.0	201.5909605026245	
39	186.0610110759735	movie	1		293	37.0	2.5	/experiments/Knapen_AOT/AOT_stimuli/rescaled_final/0014_rv.mp4	0.0	202.01581716537476	2.492081880569458
39	187.23474168777466	pulse	1	t		37.0	2.5	/experiments/Knapen_AOT/AOT_stimuli/rescaled_final/0014_rv.mp4	0.0	203.1895477771759	
39	188.55309295654297	fix_post	2		12	37.0	2.5	/experiments/Knapen_AOT/AOT_stimuli/rescaled_final/0014_rv.mp4	0.0	204.5078990459442	0.09998416900634766
40	188.65307712554932	fix_pre	0		120	38.0	2.5	/experiments/Knapen_AOT/AOT_stimuli/rescaled_final/1151_rv.mp4	0.0	204.60788321495056	1.008497714996338
40	188.8366837501526	pulse	0	t		38.0	2.5	/experiments/Knapen_AOT/AOT_stimuli/rescaled_final/1151_rv.mp4	0.0	204.79148983955383	
40	189.66157484054565	movie	1		280	38.0	2.5	/experiments/Knapen_AOT/AOT_stimuli/rescaled_final/1151_rv.mp4	0.0	205.6163809299469	2.4920225143432617
40	190.4349296092987	pulse	1	t		38.0	2.5	/experiments/Knapen_AOT/AOT_stimuli/rescaled_final/1151_rv.mp4	0.0	206.38973569869995	
40	192.03517508506775	pulse	1	t		38.0	2.5	/experiments/Knapen_AOT/AOT_stimuli/rescaled_final/1151_rv.mp4	0.0	207.989981174469	
40	192.15359735488892	fix_post	2		12	38.0	2.5	/experiments/Knapen_AOT/AOT_stimuli/rescaled_final/1151_rv.mp4	0.0	208.10840344429016	0.10012674331665039
41	192.25372409820557	fix_pre	0		120	39.0	2.5	/experiments/Knapen_AOT/AOT_stimuli/rescaled_final/2147_rv.mp4	0.0	208.2085301876068	1.0083847045898438
41	193.2621088027954	movie	1		280	39.0	2.5	/experiments/Knapen_AOT/AOT_stimuli/rescaled_final/2147_rv.mp4	0.0	209.21691489219666	2.492089033126831
41	193.63544344902039	pulse	1	t		39.0	2.5	/experiments/Knapen_AOT/AOT_stimuli/rescaled_final/2147_rv.mp4	0.0	209.59024953842163	
41	195.235844373703	pulse	1	t		39.0	2.5	/experiments/Knapen_AOT/AOT_stimuli/rescaled_final/2147_rv.mp4	0.0	211.19065046310425	
41	195.75419783592224	fix_post	2		12	39.0	2.5	/experiments/Knapen_AOT/AOT_stimuli/rescaled_final/2147_rv.mp4	0.0	211.7090039253235	0.10001015663146973
42	195.8542079925537	fix_pre	0		119	40.0	2.5	blank	1.0	211.80901408195496	0.9917502403259277
42	196.83784556388855	pulse	0	t		40.0	2.5	blank	1.0	212.7926516532898	
42	196.84595823287964	movie	1		301	40.0	2.5	blank	1.0	212.80076432228088	2.508718490600586
42	198.4381127357483	pulse	1	t		40.0	2.5	blank	1.0	214.39291882514954	
42	199.35467672348022	fix_post	2		12	40.0	2.5	blank	1.0	215.30948281288147	0.10006308555603027
43	199.45473980903625	fix_pre	0		120	41.0	2.5	/experiments/Knapen_AOT/AOT_stimuli/rescaled_final/1913_fw.mp4	0.0	215.4095458984375	1.0084517002105713
43	200.0383596420288	pulse	0	t		41.0	2.5	/experiments/Knapen_AOT/AOT_stimuli/rescaled_final/1913_fw.mp4	0.0	215.99316573143005	
43	200.46319150924683	movie	1		277	41.0	2.5	/experiments/Knapen_AOT/AOT_stimuli/rescaled_final/1913_fw.mp4	0.0	216.41799759864807	2.4920811653137207
43	201.6376371383667	pulse	1	t		41.0	2.5	/experiments/Knapen_AOT/AOT_stimuli/rescaled_final/1913_fw.mp4	0.0	217.59244322776794	
43	202.95527267456055	fix_post	2		12	41.0	2.5	/experiments/Knapen_AOT/AOT_stimuli/rescaled_final/1913_fw.mp4	0.0	218.9100787639618	0.10000848770141602
44	203.05528116226196	fix_pre	0		120	42.0	2.5	/experiments/Knapen_AOT/AOT_stimuli/rescaled_final/1251_fw.mp4	0.0	219.0100872516632	1.0084519386291504
44	203.2387776374817	pulse	0	t		42.0	2.5	/experiments/Knapen_AOT/AOT_stimuli/rescaled_final/1251_fw.mp4	0.0	219.19358372688293	
44	204.0637331008911	movie	1		283	42.0	2.5	/experiments/Knapen_AOT/AOT_stimuli/rescaled_final/1251_fw.mp4	0.0	220.01853919029236	2.4920411109924316
44	204.83706426620483	pulse	1	t		42.0	2.5	/experiments/Knapen_AOT/AOT_stimuli/rescaled_final/1251_fw.mp4	0.0	220.79187035560608	
44	206.43737077713013	pulse	1	t		42.0	2.5	/experiments/Knapen_AOT/AOT_stimuli/rescaled_final/1251_fw.mp4	0.0	222.39217686653137	
44	206.55577421188354	fix_post	2		12	42.0	2.5	/experiments/Knapen_AOT/AOT_stimuli/rescaled_final/1251_fw.mp4	0.0	222.5105803012848	0.09999966621398926
45	206.65577387809753	fix_pre	0		120	43.0	2.5	/experiments/Knapen_AOT/AOT_stimuli/rescaled_final/0984_fw.mp4	0.0	222.61057996749878	1.0085344314575195
45	207.66430830955505	movie	1		278	43.0	2.5	/experiments/Knapen_AOT/AOT_stimuli/rescaled_final/0984_fw.mp4	0.0	223.6191143989563	2.4920244216918945
45	208.03967213630676	pulse	1	t		43.0	2.5	/experiments/Knapen_AOT/AOT_stimuli/rescaled_final/0984_fw.mp4	0.0	223.994478225708	
45	209.63750052452087	pulse	1	t		43.0	2.5	/experiments/Knapen_AOT/AOT_stimuli/rescaled_final/0984_fw.mp4	0.0	225.59230661392212	
45	210.15633273124695	fix_post	2		12	43.0	2.5	/experiments/Knapen_AOT/AOT_stimuli/rescaled_final/0984_fw.mp4	0.0	226.1111388206482	0.10005903244018555
46	210.25639176368713	fix_pre	0		119	44.0	2.5	/experiments/Knapen_AOT/AOT_stimuli/rescaled_final/0391_rv.mp4	0.0	226.21119785308838	1.0000746250152588
46	211.2400186061859	pulse	0	t		44.0	2.5	/experiments/Knapen_AOT/AOT_stimuli/rescaled_final/0391_rv.mp4	0.0	227.19482469558716	
46	211.2564663887024	movie	1		285	44.0	2.5	/experiments/Knapen_AOT/AOT_stimuli/rescaled_final/0391_rv.mp4	0.0	227.21127247810364	2.5003750324249268
46	212.8392231464386	pulse	1	t		44.0	2.5	/experiments/Knapen_AOT/AOT_stimuli/rescaled_final/0391_rv.mp4	0.0	228.79402923583984	
46	213.75684142112732	fix_post	2		12	44.0	2.5	/experiments/Knapen_AOT/AOT_stimuli/rescaled_final/0391_rv.mp4	0.0	229.71164751052856	0.10001111030578613
47	213.8568525314331	fix_pre	0		120	45.0	2.5	/experiments/Knapen_AOT/AOT_stimuli/rescaled_final/0272_rv.mp4	0.0	229.81165862083435	1.0085079669952393
47	214.44052624702454	pulse	0	t		45.0	2.5	/experiments/Knapen_AOT/AOT_stimuli/rescaled_final/0272_rv.mp4	0.0	230.39533233642578	
47	214.86536049842834	movie	1		266	45.0	2.5	/experiments/Knapen_AOT/AOT_stimuli/rescaled_final/0272_rv.mp4	0.0	230.8201665878296	2.492023229598999
47	216.03936076164246	pulse	1	t		45.0	2.5	/experiments/Knapen_AOT/AOT_stimuli/rescaled_final/0272_rv.mp4	0.0	231.9941668510437	
47	217.35738372802734	fix_post	2		12	45.0	2.5	/experiments/Knapen_AOT/AOT_stimuli/rescaled_final/0272_rv.mp4	0.0	233.3121898174286	0.10007953643798828
48	217.45746326446533	fix_pre	0		120	46.0	2.5	/experiments/Knapen_AOT/AOT_stimuli/rescaled_final/0634_rv.mp4	0.0	233.41226935386658	1.0084314346313477
48	217.64099621772766	pulse	0	t		46.0	2.5	/experiments/Knapen_AOT/AOT_stimuli/rescaled_final/0634_rv.mp4	0.0	233.5958023071289	
48	218.46589469909668	movie	1		278	46.0	2.5	/experiments/Knapen_AOT/AOT_stimuli/rescaled_final/0634_rv.mp4	0.0	234.42070078849792	2.49202036857605
48	219.23932361602783	pulse	1	t		46.0	2.5	/experiments/Knapen_AOT/AOT_stimuli/rescaled_final/0634_rv.mp4	0.0	235.19412970542908	
48	220.83315706253052	pulse	1	t		46.0	2.5	/experiments/Knapen_AOT/AOT_stimuli/rescaled_final/0634_rv.mp4	0.0	236.78796315193176	
48	220.95791506767273	fix_post	2		12	46.0	2.5	/experiments/Knapen_AOT/AOT_stimuli/rescaled_final/0634_rv.mp4	0.0	236.91272115707397	0.10007452964782715
49	221.05798959732056	fix_pre	0		120	47.0	2.5	blank	1.0	237.0127956867218	1.000096321105957
49	222.0580859184265	movie	1		300	47.0	2.5	blank	1.0	238.01289200782776	2.5003886222839355
49	222.4417006969452	pulse	1	t		47.0	2.5	blank	1.0	238.39650678634644	
49	224.0338683128357	pulse	1	t		47.0	2.5	blank	1.0	239.98867440223694	
49	224.55847454071045	fix_post	2		12	47.0	2.5	blank	1.0	240.5132806301117	0.10003829002380371
50	224.65851283073425	fix_pre	0		118	48.0	2.5	/experiments/Knapen_AOT/AOT_stimuli/rescaled_final/1535_fw.mp4	0.0	240.6133189201355	0.9919033050537109
50	225.6338815689087	pulse	0	t		48.0	2.5	/experiments/Knapen_AOT/AOT_stimuli/rescaled_final/1535_fw.mp4	0.0	241.58868765830994	
50	225.65041613578796	movie	1		285	48.0	2.5	/experiments/Knapen_AOT/AOT_stimuli/rescaled_final/1535_fw.mp4	0.0	241.6052222251892	2.5002620220184326
50	227.23418712615967	pulse	1	t		48.0	2.5	/experiments/Knapen_AOT/AOT_stimuli/rescaled_final/1535_fw.mp4	0.0	243.1889932155609	
50	228.1506781578064	fix_post	2		12	48.0	2.5	/experiments/Knapen_AOT/AOT_stimuli/rescaled_final/1535_fw.mp4	0.0	244.10548424720764	0.10000777244567871
51	228.25068593025208	fix_pre	0		120	49.0	2.5	/experiments/Knapen_AOT/AOT_stimuli/rescaled_final/1382_fw.mp4	0.0	244.20549201965332	1.0085341930389404
51	228.8344852924347	pulse	0	t		49.0	2.5	/experiments/Knapen_AOT/AOT_stimuli/rescaled_final/1382_fw.mp4	0.0	244.78929138183594	
51	229.25922012329102	movie	1		280	49.0	2.5	/experiments/Knapen_AOT/AOT_stimuli/rescaled_final/1382_fw.mp4	0.0	245.21402621269226	2.4920170307159424
51	230.43455386161804	pulse	1	t		49.0	2.5	/experiments/Knapen_AOT/AOT_stimuli/rescaled_final/1382_fw.mp4	0.0	246.3893599510193	
51	231.75123715400696	fix_post	2		12	49.0	2.5	/experiments/Knapen_AOT/AOT_stimuli/rescaled_final/1382_fw.mp4	0.0	247.7060432434082	0.10017061233520508
52	231.85140776634216	fix_pre	0		120	50.0	2.5	/experiments/Knapen_AOT/AOT_stimuli/rescaled_final/1513_fw.mp4	0.0	247.8062138557434	1.0083246231079102
52	232.03482699394226	pulse	0	t		50.0	2.5	/experiments/Knapen_AOT/AOT_stimuli/rescaled_final/1513_fw.mp4	0.0	247.9896330833435	
52	232.85973238945007	movie	1		292	50.0	2.5	/experiments/Knapen_AOT/AOT_stimuli/rescaled_final/1513_fw.mp4	0.0	248.81453847885132	2.492037296295166
52	233.63330078125	pulse	1	t		50.0	2.5	/experiments/Knapen_AOT/AOT_stimuli/rescaled_final/1513_fw.mp4	0.0	249.58810687065125	
52	235.23348355293274	pulse	1	t		50.0	2.5	/experiments/Knapen_AOT/AOT_stimuli/rescaled_final/1513_fw.mp4	0.0	251.18828964233398	
52	235.35176968574524	fix_post	2		12	50.0	2.5	/experiments/Knapen_AOT/AOT_stimuli/rescaled_final/1513_fw.mp4	0.0	251.30657577514648	0.09999322891235352
53	235.4517629146576	fix_pre	0		120	51.0	2.5	/experiments/Knapen_AOT/AOT_stimuli/rescaled_final/1900_fw.mp4	0.0	251.40656900405884	1.0085515975952148
53	236.4603145122528	movie	1		278	51.0	2.5	/experiments/Knapen_AOT/AOT_stimuli/rescaled_final/1900_fw.mp4	0.0	252.41512060165405	2.4919755458831787
53	236.83395910263062	pulse	1	t		51.0	2.5	/experiments/Knapen_AOT/AOT_stimuli/rescaled_final/1900_fw.mp4	0.0	252.78876519203186	
53	238.43388533592224	pulse	1	t		51.0	2.5	/experiments/Knapen_AOT/AOT_stimuli/rescaled_final/1900_fw.mp4	0.0	254.3886914253235	
53	238.952290058136	fix_post	2		12	51.0	2.5	/experiments/Knapen_AOT/AOT_stimuli/rescaled_final/1900_fw.mp4	0.0	254.90709614753723	0.10006189346313477
54	239.05235195159912	fix_pre	0		119	52.0	2.5	/experiments/Knapen_AOT/AOT_stimuli/rescaled_final/1525_fw.mp4	0.0	255.00715804100037	1.000112771987915
54	240.03631687164307	pulse	0	t		52.0	2.5	/experiments/Knapen_AOT/AOT_stimuli/rescaled_final/1525_fw.mp4	0.0	255.9911229610443	
54	240.05246472358704	movie	1		272	52.0	2.5	/experiments/Knapen_AOT/AOT_stimuli/rescaled_final/1525_fw.mp4	0.0	256.0072708129883	2.500389575958252
54	241.63634777069092	pulse	1	t		52.0	2.5	/experiments/Knapen_AOT/AOT_stimuli/rescaled_final/1525_fw.mp4	0.0	257.59115386009216	
54	242.5528542995453	fix_post	2		12	52.0	2.5	/experiments/Knapen_AOT/AOT_stimuli/rescaled_final/1525_fw.mp4	0.0	258.50766038894653	0.1000220775604248
55	242.6528763771057	fix_pre	0		120	53.0	2.5	/experiments/Knapen_AOT/AOT_stimuli/rescaled_final/2025_rv.mp4	0.0	258.60768246650696	1.0084748268127441
55	243.23649215698242	pulse	0	t		53.0	2.5	/experiments/Knapen_AOT/AOT_stimuli/rescaled_final/2025_rv.mp4	0.0	259.19129824638367	
55	243.66135120391846	movie	1		288	53.0	2.5	/experiments/Knapen_AOT/AOT_stimuli/rescaled_final/2025_rv.mp4	0.0	259.6161572933197	2.492044687271118
55	244.83504343032837	pulse	1	t		53.0	2.5	/experiments/Knapen_AOT/AOT_stimuli/rescaled_final/2025_rv.mp4	0.0	260.7898495197296	
55	246.15339589118958	fix_post	2		12	53.0	2.5	/experiments/Knapen_AOT/AOT_stimuli/rescaled_final/2025_rv.mp4	0.0	262.1082019805908	0.09998464584350586
56	246.25338053703308	fix_pre	0		120	54.0	2.5	/experiments/Knapen_AOT/AOT_stimuli/rescaled_final/1931_fw.mp4	0.0	262.2081866264343	1.0084939002990723
56	246.43705034255981	pulse	0	t		54.0	2.5	/experiments/Knapen_AOT/AOT_stimuli/rescaled_final/1931_fw.mp4	0.0	262.39185643196106	
56	247.26187443733215	movie	1		286	54.0	2.5	/experiments/Knapen_AOT/AOT_stimuli/rescaled_final/1931_fw.mp4	0.0	263.2166805267334	2.492257595062256
56	248.03519344329834	pulse	1	t		54.0	2.5	/experiments/Knapen_AOT/AOT_stimuli/rescaled_final/1931_fw.mp4	0.0	263.9899995326996	
56	249.6353578567505	pulse	1	t		54.0	2.5	/experiments/Knapen_AOT/AOT_stimuli/rescaled_final/1931_fw.mp4	0.0	265.59016394615173	
56	249.7541320323944	fix_post	2		12	54.0	2.5	/experiments/Knapen_AOT/AOT_stimuli/rescaled_final/1931_fw.mp4	0.0	265.70893812179565	0.09983658790588379
57	249.8539686203003	fix_pre	0		120	55.0	2.5	blank	1.0	265.80877470970154	1.0001003742218018
57	250.8540689945221	movie	1		300	55.0	2.5	blank	1.0	266.80887508392334	2.500394105911255
57	251.23773741722107	pulse	1	t		55.0	2.5	blank	1.0	267.1925435066223	
57	252.83800554275513	pulse	1	t		55.0	2.5	blank	1.0	268.7928116321564	
57	253.35446310043335	fix_post	2		12	55.0	2.5	blank	1.0	269.3092691898346	0.10013890266418457
58	253.45460200309753	fix_pre	0		119	56.0	2.5	/experiments/Knapen_AOT/AOT_stimuli/rescaled_final/0524_fw.mp4	0.0	269.4094080924988	1.0000982284545898
58	254.43823170661926	pulse	0	t		56.0	2.5	/experiments/Knapen_AOT/AOT_stimuli/rescaled_final/0524_fw.mp4	0.0	270.3930377960205	
58	254.45470023155212	movie	1		285	56.0	2.5	/experiments/Knapen_AOT/AOT_stimuli/rescaled_final/0524_fw.mp4	0.0	270.40950632095337	2.500295877456665
58	256.0370364189148	pulse	1	t		56.0	2.5	/experiments/Knapen_AOT/AOT_stimuli/rescaled_final/0524_fw.mp4	0.0	271.99184250831604	
58	256.9549961090088	fix_post	2		12	56.0	2.5	/experiments/Knapen_AOT/AOT_stimuli/rescaled_final/0524_fw.mp4	0.0	272.90980219841003	0.10003066062927246
59	257.05502676963806	fix_pre	0		120	57.0	2.5	/experiments/Knapen_AOT/AOT_stimuli/rescaled_final/0722_rv.mp4	0.0	273.0098328590393	1.008558988571167
59	257.63872504234314	pulse	0	t		57.0	2.5	/experiments/Knapen_AOT/AOT_stimuli/rescaled_final/0722_rv.mp4	0.0	273.5935311317444	
59	258.06358575820923	movie	1		280	57.0	2.5	/experiments/Knapen_AOT/AOT_stimuli/rescaled_final/0722_rv.mp4	0.0	274.0183918476105	2.4919521808624268
59	259.2381262779236	pulse	1	t		57.0	2.5	/experiments/Knapen_AOT/AOT_stimuli/rescaled_final/0722_rv.mp4	0.0	275.19293236732483	
59	260.55553793907166	fix_post	2		12	57.0	2.5	/experiments/Knapen_AOT/AOT_stimuli/rescaled_final/0722_rv.mp4	0.0	276.5103440284729	0.1000223159790039
60	260.65556025505066	fix_pre	0		120	58.0	2.5	/experiments/Knapen_AOT/AOT_stimuli/rescaled_final/1620_fw.mp4	0.0	276.6103663444519	1.0085334777832031
60	260.83924436569214	pulse	0	t		58.0	2.5	/experiments/Knapen_AOT/AOT_stimuli/rescaled_final/1620_fw.mp4	0.0	276.7940504550934	
60	261.66409373283386	movie	1		275	58.0	2.5	/experiments/Knapen_AOT/AOT_stimuli/rescaled_final/1620_fw.mp4	0.0	277.6188998222351	2.491962194442749
60	262.4397294521332	pulse	1	t		58.0	2.5	/experiments/Knapen_AOT/AOT_stimuli/rescaled_final/1620_fw.mp4	0.0	278.3945355415344	
60	264.0380961894989	pulse	1	t		58.0	2.5	/experiments/Knapen_AOT/AOT_stimuli/rescaled_final/1620_fw.mp4	0.0	279.99290227890015	
60	264.1560559272766	fix_post	2		12	58.0	2.5	/experiments/Knapen_AOT/AOT_stimuli/rescaled_final/1620_fw.mp4	0.0	280.11086201667786	0.10011434555053711
61	264.25617027282715	fix_pre	0		120	59.0	2.5	/experiments/Knapen_AOT/AOT_stimuli/rescaled_final/2048_rv.mp4	0.0	280.2109763622284	1.0084543228149414
61	265.2646245956421	movie	1		286	59.0	2.5	/experiments/Knapen_AOT/AOT_stimuli/rescaled_final/2048_rv.mp4	0.0	281.21943068504333	2.4920156002044678
61	265.63855051994324	pulse	1	t		59.0	2.5	/experiments/Knapen_AOT/AOT_stimuli/rescaled_final/2048_rv.mp4	0.0	281.5933566093445	
61	267.2381806373596	pulse	1	t		59.0	2.5	/experiments/Knapen_AOT/AOT_stimuli/rescaled_final/2048_rv.mp4	0.0	283.19298672676086	
61	267.75664019584656	fix_post	2		12	59.0	2.5	/experiments/Knapen_AOT/AOT_stimuli/rescaled_final/2048_rv.mp4	0.0	283.7114462852478	0.10003352165222168
62	267.8566737174988	fix_pre	0		119	60.0	2.5	/experiments/Knapen_AOT/AOT_stimuli/rescaled_final/0611_fw.mp4	0.0	283.8114798069	1.000187635421753
62	268.8406665325165	pulse	0	t		60.0	2.5	/experiments/Knapen_AOT/AOT_stimuli/rescaled_final/0611_fw.mp4	0.0	284.7954726219177	
62	268.85686135292053	movie	1		275	60.0	2.5	/experiments/Knapen_AOT/AOT_stimuli/rescaled_final/0611_fw.mp4	0.0	284.8116674423218	2.5003254413604736
62	270.43935108184814	pulse	1	t		60.0	2.5	/experiments/Knapen_AOT/AOT_stimuli/rescaled_final/0611_fw.mp4	0.0	286.3941571712494	
62	271.357186794281	fix_post	2		12	60.0	2.5	/experiments/Knapen_AOT/AOT_stimuli/rescaled_final/0611_fw.mp4	0.0	287.31199288368225	0.10003376007080078
63	271.4572205543518	fix_pre	0		120	61.0	2.5	/experiments/Knapen_AOT/AOT_stimuli/rescaled_final/1706_rv.mp4	0.0	287.41202664375305	1.0084662437438965
63	272.0409126281738	pulse	0	t		61.0	2.5	/experiments/Knapen_AOT/AOT_stimuli/rescaled_final/1706_rv.mp4	0.0	287.9957187175751	
63	272.4656867980957	movie	1		277	61.0	2.5	/experiments/Knapen_AOT/AOT_stimuli/rescaled_final/1706_rv.mp4	0.0	288.42049288749695	2.4922025203704834
63	273.63936281204224	pulse	1	t		61.0	2.5	/experiments/Knapen_AOT/AOT_stimuli/rescaled_final/1706_rv.mp4	0.0	289.5941689014435	
63	274.9578893184662	fix_post	2		12	61.0	2.5	/experiments/Knapen_AOT/AOT_stimuli/rescaled_final/1706_rv.mp4	0.0	290.91269540786743	0.09984660148620605
64	275.0577359199524	fix_pre	0		120	62.0	2.5	/experiments/Knapen_AOT/AOT_stimuli/rescaled_final/0904_fw.mp4	0.0	291.01254200935364	1.00846529006958
64	275.23347663879395	pulse	0	t		62.0	2.5	/experiments/Knapen_AOT/AOT_stimuli/rescaled_final/0904_fw.mp4	0.0	291.1882827281952	
64	276.066201210022	movie	1		278	62.0	2.5	/experiments/Knapen_AOT/AOT_stimuli/rescaled_final/0904_fw.mp4	0.0	292.0210072994232	2.492067337036133
64	276.8411235809326	pulse	1	t		62.0	2.5	/experiments/Knapen_AOT/AOT_stimuli/rescaled_final/0904_fw.mp4	0.0	292.79592967033386	
64	278.43367743492126	pulse	1	t		62.0	2.5	/experiments/Knapen_AOT/AOT_stimuli/rescaled_final/0904_fw.mp4	0.0	294.3884835243225	
64	278.5582685470581	fix_post	2		12	62.0	2.5	/experiments/Knapen_AOT/AOT_stimuli/rescaled_final/0904_fw.mp4	0.0	294.51307463645935	0.10004973411560059
65	278.6583182811737	fix_pre	0		120	63.0	2.5	blank	1.0	294.61312437057495	1.0000929832458496
65	279.65841126441956	movie	1		300	63.0	2.5	blank	1.0	295.6132173538208	2.5003838539123535
65	280.03376364707947	pulse	1	t		63.0	2.5	blank	1.0	295.9885697364807	
65	281.63401985168457	pulse	1	t		63.0	2.5	blank	1.0	297.5888259410858	
65	282.1587951183319	fix_post	2		12	63.0	2.5	blank	1.0	298.11360120773315	0.10001325607299805
66	282.2588083744049	fix_pre	0		118	64.0	2.5	/experiments/Knapen_AOT/AOT_stimuli/rescaled_final/1378_fw.mp4	0.0	298.21361446380615	0.9919514656066895
66	283.23416471481323	pulse	0	t		64.0	2.5	/experiments/Knapen_AOT/AOT_stimuli/rescaled_final/1378_fw.mp4	0.0	299.1889708042145	
66	283.2507598400116	movie	1		271	64.0	2.5	/experiments/Knapen_AOT/AOT_stimuli/rescaled_final/1378_fw.mp4	0.0	299.20556592941284	2.500230073928833
66	284.8346881866455	pulse	1	t		64.0	2.5	/experiments/Knapen_AOT/AOT_stimuli/rescaled_final/1378_fw.mp4	0.0	300.78949427604675	
66	285.75098991394043	fix_post	2		12	64.0	2.5	/experiments/Knapen_AOT/AOT_stimuli/rescaled_final/1378_fw.mp4	0.0	301.7057960033417	0.1000516414642334
67	285.85104155540466	fix_pre	0		120	65.0	2.5	/experiments/Knapen_AOT/AOT_stimuli/rescaled_final/0634_fw.mp4	0.0	301.8058476448059	1.008465051651001
67	286.4348895549774	pulse	0	t		65.0	2.5	/experiments/Knapen_AOT/AOT_stimuli/rescaled_final/0634_fw.mp4	0.0	302.38969564437866	
67	286.85950660705566	movie	1		278	65.0	2.5	/experiments/Knapen_AOT/AOT_stimuli/rescaled_final/0634_fw.mp4	0.0	302.8143126964569	2.4920175075531006
67	288.0349111557007	pulse	1	t		65.0	2.5	/experiments/Knapen_AOT/AOT_stimuli/rescaled_final/0634_fw.mp4	0.0	303.98971724510193	
67	289.35152411460876	fix_post	2		12	65.0	2.5	/experiments/Knapen_AOT/AOT_stimuli/rescaled_final/0634_fw.mp4	0.0	305.30633020401	0.10003542900085449
68	289.4515595436096	fix_pre	0		120	66.0	2.5	/experiments/Knapen_AOT/AOT_stimuli/rescaled_final/1235_fw.mp4	0.0	305.40636563301086	1.0084874629974365
68	289.6351408958435	pulse	0	t		66.0	2.5	/experiments/Knapen_AOT/AOT_stimuli/rescaled_final/1235_fw.mp4	0.0	305.58994698524475	
68	290.46004700660706	movie	1		290	66.0	2.5	/experiments/Knapen_AOT/AOT_stimuli/rescaled_final/1235_fw.mp4	0.0	306.4148530960083	2.4920310974121094
68	291.2354757785797	pulse	1	t		66.0	2.5	/experiments/Knapen_AOT/AOT_stimuli/rescaled_final/1235_fw.mp4	0.0	307.19028186798096	
68	292.83638763427734	pulse	1	t		66.0	2.5	/experiments/Knapen_AOT/AOT_stimuli/rescaled_final/1235_fw.mp4	0.0	308.7911937236786	
68	292.95207810401917	fix_post	2		12	66.0	2.5	/experiments/Knapen_AOT/AOT_stimuli/rescaled_final/1235_fw.mp4	0.0	308.9068841934204	0.10001873970031738
69	293.0520968437195	fix_pre	0		120	67.0	2.5	/experiments/Knapen_AOT/AOT_stimuli/rescaled_final/1599_rv.mp4	0.0	309.0069029331207	1.0085303783416748
69	294.06062722206116	movie	1		277	67.0	2.5	/experiments/Knapen_AOT/AOT_stimuli/rescaled_final/1599_rv.mp4	0.0	310.0154333114624	2.4919939041137695
69	294.4365291595459	pulse	1	t		67.0	2.5	/experiments/Knapen_AOT/AOT_stimuli/rescaled_final/1599_rv.mp4	0.0	310.39133524894714	
69	296.03416657447815	pulse	1	t		67.0	2.5	/experiments/Knapen_AOT/AOT_stimuli/rescaled_final/1599_rv.mp4	0.0	311.9889726638794	
69	296.5526211261749	fix_post	2		12	67.0	2.5	/experiments/Knapen_AOT/AOT_stimuli/rescaled_final/1599_rv.mp4	0.0	312.5074272155762	0.10009312629699707
70	296.6527142524719	fix_pre	0		119	68.0	2.5	/experiments/Knapen_AOT/AOT_stimuli/rescaled_final/0102_rv.mp4	0.0	312.60752034187317	1.0000920295715332
70	297.6365776062012	pulse	0	t		68.0	2.5	/experiments/Knapen_AOT/AOT_stimuli/rescaled_final/0102_rv.mp4	0.0	313.5913836956024	
70	297.65280628204346	movie	1		281	68.0	2.5	/experiments/Knapen_AOT/AOT_stimuli/rescaled_final/0102_rv.mp4	0.0	313.6076123714447	2.5003554821014404
70	299.234797000885	pulse	1	t		68.0	2.5	/experiments/Knapen_AOT/AOT_stimuli/rescaled_final/0102_rv.mp4	0.0	315.18960309028625	
70	300.1531617641449	fix_post	2		12	68.0	2.5	/experiments/Knapen_AOT/AOT_stimuli/rescaled_final/0102_rv.mp4	0.0	316.10796785354614	0.10010552406311035
71	300.253267288208	fix_pre	0		120	69.0	2.5	blank	1.0	316.20807337760925	1.000060796737671
71	300.8368990421295	pulse	0	t		69.0	2.5	blank	1.0	316.79170513153076	
71	301.2533280849457	movie	1		300	69.0	2.5	blank	1.0	317.2081341743469	2.5003812313079834
71	302.43715596199036	pulse	1	t		69.0	2.5	blank	1.0	318.3919620513916	
71	303.75370931625366	fix_post	2		12	69.0	2.5	blank	1.0	319.7085154056549	0.10001730918884277
72	303.8537266254425	fix_pre	0		120	70.0	2.5	/experiments/Knapen_AOT/AOT_stimuli/rescaled_final/0056_rv.mp4	0.0	319.80853271484375	1.008467197418213
72	304.0373442173004	pulse	0	t		70.0	2.5	/experiments/Knapen_AOT/AOT_stimuli/rescaled_final/0056_rv.mp4	0.0	319.99215030670166	
72	304.8621938228607	movie	1		282	70.0	2.5	/experiments/Knapen_AOT/AOT_stimuli/rescaled_final/0056_rv.mp4	0.0	320.81699991226196	2.4920687675476074
72	305.63590145111084	pulse	1	t		70.0	2.5	/experiments/Knapen_AOT/AOT_stimuli/rescaled_final/0056_rv.mp4	0.0	321.5907075405121	
72	307.23596262931824	pulse	1	t		70.0	2.5	/experiments/Knapen_AOT/AOT_stimuli/rescaled_final/0056_rv.mp4	0.0	323.1907687187195	
72	307.3542625904083	fix_post	2		12	70.0	2.5	/experiments/Knapen_AOT/AOT_stimuli/rescaled_final/0056_rv.mp4	0.0	323.30906867980957	0.10006976127624512
73	307.45433235168457	fix_pre	0		120	71.0	2.5	/experiments/Knapen_AOT/AOT_stimuli/rescaled_final/1496_fw.mp4	0.0	323.4091384410858	1.0084452629089355
73	308.4627776145935	movie	1		275	71.0	2.5	/experiments/Knapen_AOT/AOT_stimuli/rescaled_final/1496_fw.mp4	0.0	324.41758370399475	2.4920012950897217
73	308.83640003204346	pulse	1	t		71.0	2.5	/experiments/Knapen_AOT/AOT_stimuli/rescaled_final/1496_fw.mp4	0.0	324.7912061214447	
73	310.43649888038635	pulse	1	t		71.0	2.5	/experiments/Knapen_AOT/AOT_stimuli/rescaled_final/1496_fw.mp4	0.0	326.3913049697876	
73	310.9547789096832	fix_post	2		12	71.0	2.5	/experiments/Knapen_AOT/AOT_stimuli/rescaled_final/1496_fw.mp4	0.0	326.9095849990845	0.10007691383361816
74	311.05485582351685	fix_pre	0		119	72.0	2.5	/experiments/Knapen_AOT/AOT_stimuli/rescaled_final/1254_fw.mp4	0.0	327.0096619129181	1.0001084804534912
74	312.03847670555115	pulse	0	t		72.0	2.5	/experiments/Knapen_AOT/AOT_stimuli/rescaled_final/1254_fw.mp4	0.0	327.9932827949524	
74	312.05496430397034	movie	1		281	72.0	2.5	/experiments/Knapen_AOT/AOT_stimuli/rescaled_final/1254_fw.mp4	0.0	328.0097703933716	2.5003650188446045
74	313.6372354030609	pulse	1	t		72.0	2.5	/experiments/Knapen_AOT/AOT_stimuli/rescaled_final/1254_fw.mp4	0.0	329.59204149246216	
74	314.55532932281494	fix_post	2		12	72.0	2.5	/experiments/Knapen_AOT/AOT_stimuli/rescaled_final/1254_fw.mp4	0.0	330.5101354122162	0.10004854202270508
75	314.65537786483765	fix_pre	0		120	73.0	2.5	/experiments/Knapen_AOT/AOT_stimuli/rescaled_final/0124_fw.mp4	0.0	330.6101839542389	1.0084774494171143
75	315.23901081085205	pulse	0	t		73.0	2.5	/experiments/Knapen_AOT/AOT_stimuli/rescaled_final/0124_fw.mp4	0.0	331.1938169002533	
75	315.66385531425476	movie	1		276	73.0	2.5	/experiments/Knapen_AOT/AOT_stimuli/rescaled_final/0124_fw.mp4	0.0	331.618661403656	2.492016553878784
75	316.8373029232025	pulse	1	t		73.0	2.5	/experiments/Knapen_AOT/AOT_stimuli/rescaled_final/0124_fw.mp4	0.0	332.79210901260376	
75	318.15587186813354	fix_post	2		12	73.0	2.5	/experiments/Knapen_AOT/AOT_stimuli/rescaled_final/0124_fw.mp4	0.0	334.1106779575348	0.10001444816589355
76	318.25588631629944	fix_pre	0		120	74.0	2.5	/experiments/Knapen_AOT/AOT_stimuli/rescaled_final/1378_fw.mp4	0.0	334.2106924057007	1.0085043907165527
76	318.4394574165344	pulse	0	t		74.0	2.5	/experiments/Knapen_AOT/AOT_stimuli/rescaled_final/1378_fw.mp4	0.0	334.39426350593567	
76	319.264390707016	movie	1		276	74.0	2.5	/experiments/Knapen_AOT/AOT_stimuli/rescaled_final/1378_fw.mp4	0.0	335.21919679641724	2.492020845413208
76	320.03778982162476	pulse	1	t		74.0	2.5	/experiments/Knapen_AOT/AOT_stimuli/rescaled_final/1378_fw.mp4	0.0	335.992595911026	
76	321.6379904747009	pulse	1	t		74.0	2.5	/experiments/Knapen_AOT/AOT_stimuli/rescaled_final/1378_fw.mp4	0.0	337.5927965641022	
76	321.7564115524292	fix_post	2		12	74.0	2.5	/experiments/Knapen_AOT/AOT_stimuli/rescaled_final/1378_fw.mp4	0.0	337.71121764183044	0.10002660751342773
77	321.8564381599426	fix_pre	0		120	75.0	2.5	/experiments/Knapen_AOT/AOT_stimuli/rescaled_final/0618_rv.mp4	0.0	337.8112442493439	1.008514642715454
77	322.8649528026581	movie	1		279	75.0	2.5	/experiments/Knapen_AOT/AOT_stimuli/rescaled_final/0618_rv.mp4	0.0	338.8197588920593	2.4920380115509033
77	323.2409691810608	pulse	1	t		75.0	2.5	/experiments/Knapen_AOT/AOT_stimuli/rescaled_final/0618_rv.mp4	0.0	339.19577527046204	
77	324.8386142253876	pulse	1	t		75.0	2.5	/experiments/Knapen_AOT/AOT_stimuli/rescaled_final/0618_rv.mp4	0.0	340.7934203147888	
77	325.356990814209	fix_post	2		12	75.0	2.5	/experiments/Knapen_AOT/AOT_stimuli/rescaled_final/0618_rv.mp4	0.0	341.31179690361023	0.09997749328613281
78	325.4569683074951	fix_pre	0		119	76.0	2.5	blank	1.0	341.41177439689636	0.9918227195739746
78	326.4408423900604	pulse	0	t		76.0	2.5	blank	1.0	342.39564847946167	
78	326.4487910270691	movie	1		301	76.0	2.5	blank	1.0	342.40359711647034	2.508704423904419
78	328.041175365448	pulse	1	t		76.0	2.5	blank	1.0	343.99598145484924	
78	328.9574954509735	fix_post	2		12	76.0	2.5	blank	1.0	344.91230154037476	0.10011482238769531
79	329.0576102733612	fix_pre	0		120	77.0	2.5	/experiments/Knapen_AOT/AOT_stimuli/rescaled_final/0674_rv.mp4	0.0	345.01241636276245	1.0084891319274902
79	329.6414840221405	pulse	0	t		77.0	2.5	/experiments/Knapen_AOT/AOT_stimuli/rescaled_final/0674_rv.mp4	0.0	345.59629011154175	
79	330.0660994052887	movie	1		276	77.0	2.5	/experiments/Knapen_AOT/AOT_stimuli/rescaled_final/0674_rv.mp4	0.0	346.02090549468994	2.4919402599334717
79	331.23956775665283	pulse	1	t		77.0	2.5	/experiments/Knapen_AOT/AOT_stimuli/rescaled_final/0674_rv.mp4	0.0	347.1943738460541	
79	332.55803966522217	fix_post	2		12	77.0	2.5	/experiments/Knapen_AOT/AOT_stimuli/rescaled_final/0674_rv.mp4	0.0	348.5128457546234	0.10001206398010254
80	332.65805172920227	fix_pre	0		120	78.0	2.5	/experiments/Knapen_AOT/AOT_stimuli/rescaled_final/1096_rv.mp4	0.0	348.6128578186035	1.008479118347168
80	332.8342545032501	pulse	0	t		78.0	2.5	/experiments/Knapen_AOT/AOT_stimuli/rescaled_final/1096_rv.mp4	0.0	348.78906059265137	
80	333.66653084754944	movie	1		272	78.0	2.5	/experiments/Knapen_AOT/AOT_stimuli/rescaled_final/1096_rv.mp4	0.0	349.6213369369507	2.4920787811279297
80	334.4412353038788	pulse	1	t		78.0	2.5	/experiments/Knapen_AOT/AOT_stimuli/rescaled_final/1096_rv.mp4	0.0	350.39604139328003	
80	336.03408646583557	pulse	1	t		78.0	2.5	/experiments/Knapen_AOT/AOT_stimuli/rescaled_final/1096_rv.mp4	0.0	351.9888925552368	
80	336.15860962867737	fix_post	2		12	78.0	2.5	/experiments/Knapen_AOT/AOT_stimuli/rescaled_final/1096_rv.mp4	0.0	352.1134157180786	0.10003066062927246
81	336.25864028930664	fix_pre	0		120	79.0	2.5	/experiments/Knapen_AOT/AOT_stimuli/rescaled_final/0553_rv.mp4	0.0	352.2134463787079	1.0084128379821777
81	337.2670531272888	movie	1		277	79.0	2.5	/experiments/Knapen_AOT/AOT_stimuli/rescaled_final/0553_rv.mp4	0.0	353.22185921669006	2.4920783042907715
81	337.6340401172638	pulse	1	t		79.0	2.5	/experiments/Knapen_AOT/AOT_stimuli/rescaled_final/0553_rv.mp4	0.0	353.58884620666504	
81	339.2342412471771	pulse	1	t		79.0	2.5	/experiments/Knapen_AOT/AOT_stimuli/rescaled_final/0553_rv.mp4	0.0	355.18904733657837	
81	339.7591314315796	fix_post	2		12	79.0	2.5	/experiments/Knapen_AOT/AOT_stimuli/rescaled_final/0553_rv.mp4	0.0	355.71393752098083	0.09998893737792969
82	339.8591203689575	fix_pre	0		118	80.0	2.5	/experiments/Knapen_AOT/AOT_stimuli/rescaled_final/0840_fw.mp4	0.0	355.81392645835876	1.000199794769287
82	340.83475041389465	pulse	0	t		80.0	2.5	/experiments/Knapen_AOT/AOT_stimuli/rescaled_final/0840_fw.mp4	0.0	356.7895565032959	
82	340.8593201637268	movie	1		278	80.0	2.5	/experiments/Knapen_AOT/AOT_stimuli/rescaled_final/0840_fw.mp4	0.0	356.81412625312805	2.492042303085327
82	342.43496012687683	pulse	1	t		80.0	2.5	/experiments/Knapen_AOT/AOT_stimuli/rescaled_final/0840_fw.mp4	0.0	358.3897662162781	
82	343.35136246681213	fix_post	2		12	80.0	2.5	/experiments/Knapen_AOT/AOT_stimuli/rescaled_final/0840_fw.mp4	0.0	359.3061685562134	0.10003066062927246
83	343.4513931274414	fix_pre	0		120	81.0	2.5	/experiments/Knapen_AOT/AOT_stimuli/rescaled_final/0636_rv.mp4	0.0	359.40619921684265	1.0084335803985596
83	344.03511357307434	pulse	0	t		81.0	2.5	/experiments/Knapen_AOT/AOT_stimuli/rescaled_final/0636_rv.mp4	0.0	359.9899196624756	
83	344.45982670783997	movie	1		279	81.0	2.5	/experiments/Knapen_AOT/AOT_stimuli/rescaled_final/0636_rv.mp4	0.0	360.4146327972412	2.4920291900634766
83	345.6352610588074	pulse	1	t		81.0	2.5	/experiments/Knapen_AOT/AOT_stimuli/rescaled_final/0636_rv.mp4	0.0	361.5900671482086	
83	346.95185589790344	fix_post	2		12	81.0	2.5	/experiments/Knapen_AOT/AOT_stimuli/rescaled_final/0636_rv.mp4	0.0	362.9066619873047	0.10001516342163086
84	347.0518710613251	fix_pre	0		120	82.0	2.5	/experiments/Knapen_AOT/AOT_stimuli/rescaled_final/1303_rv.mp4	0.0	363.0066771507263	1.0085132122039795
84	347.2355058193207	pulse	0	t		82.0	2.5	/experiments/Knapen_AOT/AOT_stimuli/rescaled_final/1303_rv.mp4	0.0	363.1903119087219	
84	348.06038427352905	movie	1		273	82.0	2.5	/experiments/Knapen_AOT/AOT_stimuli/rescaled_final/1303_rv.mp4	0.0	364.0151903629303	2.4921412467956543
84	348.83567571640015	pulse	1	t		82.0	2.5	/experiments/Knapen_AOT/AOT_stimuli/rescaled_final/1303_rv.mp4	0.0	364.7904818058014	
84	350.4342942237854	pulse	1	t		82.0	2.5	/experiments/Knapen_AOT/AOT_stimuli/rescaled_final/1303_rv.mp4	0.0	366.38910031318665	
84	350.5525255203247	fix_post	2		12	82.0	2.5	/experiments/Knapen_AOT/AOT_stimuli/rescaled_final/1303_rv.mp4	0.0	366.50733160972595	0.09990191459655762
85	350.65242743492126	fix_pre	0		120	83.0	2.5	blank	1.0	366.6072335243225	1.0001447200775146
85	351.6525721549988	movie	1		300	83.0	2.5	blank	1.0	367.6073782444	2.5004050731658936
85	352.0362169742584	pulse	1	t		83.0	2.5	blank	1.0	367.99102306365967	
85	353.63651752471924	pulse	1	t		83.0	2.5	blank	1.0	369.5913236141205	
85	354.1529772281647	fix_post	2		12	83.0	2.5	blank	1.0	370.1077833175659	0.09997725486755371
87	354.2529544830322	stim	0		1715					370.2077605724335	14.293819189071655
87	355.23710322380066	pulse	0	t						371.1919093132019	
87	356.8369014263153	pulse	0	t						372.79170751571655	
87	358.4372284412384	pulse	0	t						374.39203453063965	
87	360.03739070892334	pulse	0	t						375.9921967983246	
87	361.6377809047699	pulse	0	t						377.59258699417114	
87	363.23791909217834	pulse	0	t						379.1927251815796	
87	364.8380808830261	pulse	0	t						380.79288697242737	
87	366.4386451244354	pulse	0	t						382.39345121383667	
87	368.03868317604065	pulse	0	t						383.9934892654419	
