trial_nr	onset	event_type	phase	response	nr_frames	movie_index	movie_duration	movie_file	blank	onset_abs	duration
0	0.14143109321594238	stim	0		13					15.945107698440552	0.10828185081481934
0	0.24195504188537598	response	0	space						16.045631647109985	
1	0.24971294403076172	stim	0		4611					16.05338954925537	38.44232630729675
1	38.6774640083313	pulse	0	t						54.48114061355591	
1	38.692039251327515	stim	1		1715					54.495715856552124	14.299085140228271
1	40.27257776260376	pulse	1	t						56.07625436782837	
1	41.87291932106018	pulse	1	t						57.67659592628479	
1	43.47322344779968	pulse	1	t						59.27690005302429	
1	45.073444843292236	pulse	1	t						60.877121448516846	
1	46.67360973358154	pulse	1	t						62.47728633880615	
1	48.27376580238342	pulse	1	t						64.07744240760803	
1	49.86649966239929	pulse	1	t						65.6701762676239	
1	51.47429585456848	pulse	1	t						67.27797245979309	
2	52.991124391555786	fix_pre	0		10	0.0	2.5	/experiments/knapen_AOT/AOT_stimuli/rescaled_final/0078_fw.mp4	0.0	68.7948009967804	0.09994959831237793
2	53.06623125076294	pulse	0	t		0.0	2.5	/experiments/knapen_AOT/AOT_stimuli/rescaled_final/0078_fw.mp4	0.0	68.86990785598755	
2	53.091073989868164	movie	1		282	0.0	2.5	/experiments/knapen_AOT/AOT_stimuli/rescaled_final/0078_fw.mp4	0.0	68.89475059509277	2.4919676780700684
2	54.66655468940735	pulse	1	t		0.0	2.5	/experiments/knapen_AOT/AOT_stimuli/rescaled_final/0078_fw.mp4	0.0	70.47023129463196	
2	55.58304166793823	fix_post	2		12	0.0	2.5	/experiments/knapen_AOT/AOT_stimuli/rescaled_final/0078_fw.mp4	0.0	71.38671827316284	0.10001516342163086
3	55.68305683135986	fix_pre	0		120	1.0	2.5	/experiments/knapen_AOT/AOT_stimuli/rescaled_final/1003_fw.mp4	0.0	71.48673343658447	1.0085058212280273
3	56.266809940338135	pulse	0	t		1.0	2.5	/experiments/knapen_AOT/AOT_stimuli/rescaled_final/1003_fw.mp4	0.0	72.07048654556274	
3	56.69156265258789	movie	1		273	1.0	2.5	/experiments/knapen_AOT/AOT_stimuli/rescaled_final/1003_fw.mp4	0.0	72.4952392578125	2.492022752761841
3	57.86725878715515	pulse	1	t		1.0	2.5	/experiments/knapen_AOT/AOT_stimuli/rescaled_final/1003_fw.mp4	0.0	73.67093539237976	
3	59.18358540534973	fix_post	2		12	1.0	2.5	/experiments/knapen_AOT/AOT_stimuli/rescaled_final/1003_fw.mp4	0.0	74.98726201057434	0.10002541542053223
4	59.283610820770264	fix_pre	0		120	2.0	2.5	/experiments/knapen_AOT/AOT_stimuli/rescaled_final/1433_rv.mp4	0.0	75.08728742599487	1.0085101127624512
4	59.46729230880737	pulse	0	t		2.0	2.5	/experiments/knapen_AOT/AOT_stimuli/rescaled_final/1433_rv.mp4	0.0	75.27096891403198	
4	60.292120933532715	movie	1		275	2.0	2.5	/experiments/knapen_AOT/AOT_stimuli/rescaled_final/1433_rv.mp4	0.0	76.09579753875732	2.492039442062378
4	61.067445516586304	pulse	1	t		2.0	2.5	/experiments/knapen_AOT/AOT_stimuli/rescaled_final/1433_rv.mp4	0.0	76.87112212181091	
4	62.66588068008423	pulse	1	t		2.0	2.5	/experiments/knapen_AOT/AOT_stimuli/rescaled_final/1433_rv.mp4	0.0	78.46955728530884	
4	62.78416037559509	fix_post	2		12	2.0	2.5	/experiments/knapen_AOT/AOT_stimuli/rescaled_final/1433_rv.mp4	0.0	78.5878369808197	0.0999901294708252
5	62.88415050506592	fix_pre	0		120	3.0	2.5	/experiments/knapen_AOT/AOT_stimuli/rescaled_final/1926_rv.mp4	0.0	78.68782711029053	1.0084948539733887
5	63.89264535903931	movie	1		281	3.0	2.5	/experiments/knapen_AOT/AOT_stimuli/rescaled_final/1926_rv.mp4	0.0	79.69632196426392	2.492302417755127
5	64.26612448692322	pulse	1	t		3.0	2.5	/experiments/knapen_AOT/AOT_stimuli/rescaled_final/1926_rv.mp4	0.0	80.06980109214783	
5	65.86577939987183	pulse	1	t		3.0	2.5	/experiments/knapen_AOT/AOT_stimuli/rescaled_final/1926_rv.mp4	0.0	81.66945600509644	
5	66.38494777679443	fix_post	2		12	3.0	2.5	/experiments/knapen_AOT/AOT_stimuli/rescaled_final/1926_rv.mp4	0.0	82.18862438201904	0.09972667694091797
6	66.48467445373535	fix_pre	0		119	4.0	2.5	/experiments/knapen_AOT/AOT_stimuli/rescaled_final/0624_rv.mp4	0.0	82.28835105895996	1.0001518726348877
6	67.46845531463623	pulse	0	t		4.0	2.5	/experiments/knapen_AOT/AOT_stimuli/rescaled_final/0624_rv.mp4	0.0	83.27213191986084	
6	67.48482632637024	movie	1		291	4.0	2.5	/experiments/knapen_AOT/AOT_stimuli/rescaled_final/0624_rv.mp4	0.0	83.28850293159485	2.500380277633667
6	69.06710696220398	pulse	1	t		4.0	2.5	/experiments/knapen_AOT/AOT_stimuli/rescaled_final/0624_rv.mp4	0.0	84.87078356742859	
6	69.9852066040039	fix_post	2		12	4.0	2.5	/experiments/knapen_AOT/AOT_stimuli/rescaled_final/0624_rv.mp4	0.0	85.78888320922852	0.10004401206970215
7	70.08525061607361	fix_pre	0		120	5.0	2.5	/experiments/knapen_AOT/AOT_stimuli/rescaled_final/0244_fw.mp4	0.0	85.88892722129822	1.0084683895111084
7	70.66882753372192	pulse	0	t		5.0	2.5	/experiments/knapen_AOT/AOT_stimuli/rescaled_final/0244_fw.mp4	0.0	86.47250413894653	
7	71.09371900558472	movie	1		285	5.0	2.5	/experiments/knapen_AOT/AOT_stimuli/rescaled_final/0244_fw.mp4	0.0	86.89739561080933	2.4920241832733154
7	72.26691246032715	pulse	1	t		5.0	2.5	/experiments/knapen_AOT/AOT_stimuli/rescaled_final/0244_fw.mp4	0.0	88.07058906555176	
7	73.58574318885803	fix_post	2		12	5.0	2.5	/experiments/knapen_AOT/AOT_stimuli/rescaled_final/0244_fw.mp4	0.0	89.38941979408264	0.10003113746643066
8	73.68577432632446	fix_pre	0		120	6.0	2.5	/experiments/knapen_AOT/AOT_stimuli/rescaled_final/2113_fw.mp4	0.0	89.48945093154907	1.008497714996338
8	73.86938691139221	pulse	0	t		6.0	2.5	/experiments/knapen_AOT/AOT_stimuli/rescaled_final/2113_fw.mp4	0.0	89.67306351661682	
8	74.6942720413208	movie	1		284	6.0	2.5	/experiments/knapen_AOT/AOT_stimuli/rescaled_final/2113_fw.mp4	0.0	90.49794864654541	2.492065191268921
8	75.46739959716797	pulse	1	t		6.0	2.5	/experiments/knapen_AOT/AOT_stimuli/rescaled_final/2113_fw.mp4	0.0	91.27107620239258	
8	77.06805610656738	pulse	1	t		6.0	2.5	/experiments/knapen_AOT/AOT_stimuli/rescaled_final/2113_fw.mp4	0.0	92.87173271179199	
8	77.18633723258972	fix_post	2		12	6.0	2.5	/experiments/knapen_AOT/AOT_stimuli/rescaled_final/2113_fw.mp4	0.0	92.99001383781433	0.1000521183013916
9	77.28638935089111	fix_pre	0		120	7.0	2.5	blank	1.0	93.09006595611572	1.0000712871551514
9	78.28646063804626	movie	1		299	7.0	2.5	blank	1.0	94.09013724327087	2.500369071960449
9	78.67054867744446	pulse	1	t		7.0	2.5	blank	1.0	94.47422528266907	
9	80.27050566673279	pulse	1	t		7.0	2.5	blank	1.0	96.0741822719574	
9	80.78682971000671	fix_post	2		12	7.0	2.5	blank	1.0	96.59050631523132	0.10001444816589355
10	80.88684415817261	fix_pre	0		119	8.0	2.5	/experiments/knapen_AOT/AOT_stimuli/rescaled_final/2171_rv.mp4	0.0	96.69052076339722	1.0001702308654785
10	81.87048602104187	pulse	0	t		8.0	2.5	/experiments/knapen_AOT/AOT_stimuli/rescaled_final/2171_rv.mp4	0.0	97.67416262626648	
10	81.88701438903809	movie	1		263	8.0	2.5	/experiments/knapen_AOT/AOT_stimuli/rescaled_final/2171_rv.mp4	0.0	97.6906909942627	2.500349760055542
10	83.46914625167847	pulse	1	t		8.0	2.5	/experiments/knapen_AOT/AOT_stimuli/rescaled_final/2171_rv.mp4	0.0	99.27282285690308	
10	84.38736414909363	fix_post	2		12	8.0	2.5	/experiments/knapen_AOT/AOT_stimuli/rescaled_final/2171_rv.mp4	0.0	100.19104075431824	0.10002279281616211
11	84.48738694190979	fix_pre	0		120	9.0	2.5	/experiments/knapen_AOT/AOT_stimuli/rescaled_final/1919_rv.mp4	0.0	100.2910635471344	1.0085046291351318
11	85.07094860076904	pulse	0	t		9.0	2.5	/experiments/knapen_AOT/AOT_stimuli/rescaled_final/1919_rv.mp4	0.0	100.87462520599365	
11	85.49589157104492	movie	1		279	9.0	2.5	/experiments/knapen_AOT/AOT_stimuli/rescaled_final/1919_rv.mp4	0.0	101.29956817626953	2.492037296295166
11	86.66923952102661	pulse	1	t		9.0	2.5	/experiments/knapen_AOT/AOT_stimuli/rescaled_final/1919_rv.mp4	0.0	102.47291612625122	
11	87.98792886734009	fix_post	2		12	9.0	2.5	/experiments/knapen_AOT/AOT_stimuli/rescaled_final/1919_rv.mp4	0.0	103.7916054725647	0.10006546974182129
12	88.08799433708191	fix_pre	0		120	10.0	2.5	/experiments/knapen_AOT/AOT_stimuli/rescaled_final/0567_fw.mp4	0.0	103.89167094230652	1.0083982944488525
12	88.27146363258362	pulse	0	t		10.0	2.5	/experiments/knapen_AOT/AOT_stimuli/rescaled_final/0567_fw.mp4	0.0	104.07514023780823	
12	89.09639263153076	movie	1		276	10.0	2.5	/experiments/knapen_AOT/AOT_stimuli/rescaled_final/0567_fw.mp4	0.0	104.90006923675537	2.492117404937744
12	89.86939716339111	pulse	1	t		10.0	2.5	/experiments/knapen_AOT/AOT_stimuli/rescaled_final/0567_fw.mp4	0.0	105.67307376861572	
12	91.47212195396423	pulse	1	t		10.0	2.5	/experiments/knapen_AOT/AOT_stimuli/rescaled_final/0567_fw.mp4	0.0	107.27579855918884	
12	91.5885100364685	fix_post	2		12	10.0	2.5	/experiments/knapen_AOT/AOT_stimuli/rescaled_final/0567_fw.mp4	0.0	107.39218664169312	0.09999299049377441
13	91.68850302696228	fix_pre	0		120	11.0	2.5	/experiments/knapen_AOT/AOT_stimuli/rescaled_final/2171_fw.mp4	0.0	107.49217963218689	1.008535385131836
13	92.69703841209412	movie	1		264	11.0	2.5	/experiments/knapen_AOT/AOT_stimuli/rescaled_final/2171_fw.mp4	0.0	108.50071501731873	2.4919636249542236
13	93.07065868377686	pulse	1	t		11.0	2.5	/experiments/knapen_AOT/AOT_stimuli/rescaled_final/2171_fw.mp4	0.0	108.87433528900146	
13	94.67035698890686	pulse	1	t		11.0	2.5	/experiments/knapen_AOT/AOT_stimuli/rescaled_final/2171_fw.mp4	0.0	110.47403359413147	
13	95.18900203704834	fix_post	2		12	11.0	2.5	/experiments/knapen_AOT/AOT_stimuli/rescaled_final/2171_fw.mp4	0.0	110.99267864227295	0.10005307197570801
14	95.28905510902405	fix_pre	0		119	12.0	2.5	blank	1.0	111.09273171424866	0.9917619228363037
14	96.27277684211731	pulse	0	t		12.0	2.5	blank	1.0	112.07645344734192	
14	96.28081703186035	movie	1		301	12.0	2.5	blank	1.0	112.08449363708496	2.508734941482544
14	97.87300157546997	pulse	1	t		12.0	2.5	blank	1.0	113.67667818069458	
14	98.7895519733429	fix_post	2		12	12.0	2.5	blank	1.0	114.5932285785675	0.10003137588500977
15	98.8895833492279	fix_pre	0		120	13.0	2.5	/experiments/knapen_AOT/AOT_stimuli/rescaled_final/1556_rv.mp4	0.0	114.69325995445251	1.0084607601165771
15	99.4732563495636	pulse	0	t		13.0	2.5	/experiments/knapen_AOT/AOT_stimuli/rescaled_final/1556_rv.mp4	0.0	115.27693295478821	
15	99.89804410934448	movie	1		280	13.0	2.5	/experiments/knapen_AOT/AOT_stimuli/rescaled_final/1556_rv.mp4	0.0	115.70172071456909	2.4920318126678467
15	101.0714921951294	pulse	1	t		13.0	2.5	/experiments/knapen_AOT/AOT_stimuli/rescaled_final/1556_rv.mp4	0.0	116.875168800354	
15	102.39007592201233	fix_post	2		12	13.0	2.5	/experiments/knapen_AOT/AOT_stimuli/rescaled_final/1556_rv.mp4	0.0	118.19375252723694	0.10002279281616211
16	102.49009871482849	fix_pre	0		120	14.0	2.5	/experiments/knapen_AOT/AOT_stimuli/rescaled_final/0960_fw.mp4	0.0	118.2937753200531	1.008538007736206
16	102.67367339134216	pulse	0	t		14.0	2.5	/experiments/knapen_AOT/AOT_stimuli/rescaled_final/0960_fw.mp4	0.0	118.47734999656677	
16	103.4986367225647	movie	1		278	14.0	2.5	/experiments/knapen_AOT/AOT_stimuli/rescaled_final/0960_fw.mp4	0.0	119.3023133277893	2.4920356273651123
16	104.27215266227722	pulse	1	t		14.0	2.5	/experiments/knapen_AOT/AOT_stimuli/rescaled_final/0960_fw.mp4	0.0	120.07582926750183	
16	105.86647629737854	pulse	1	t		14.0	2.5	/experiments/knapen_AOT/AOT_stimuli/rescaled_final/0960_fw.mp4	0.0	121.67015290260315	
16	105.99067234992981	fix_post	2		12	14.0	2.5	/experiments/knapen_AOT/AOT_stimuli/rescaled_final/0960_fw.mp4	0.0	121.79434895515442	0.10003256797790527
17	106.09070491790771	fix_pre	0		120	15.0	2.5	/experiments/knapen_AOT/AOT_stimuli/rescaled_final/0658_rv.mp4	0.0	121.89438152313232	1.0084431171417236
17	107.09914803504944	movie	1		268	15.0	2.5	/experiments/knapen_AOT/AOT_stimuli/rescaled_final/0658_rv.mp4	0.0	122.90282464027405	2.4920103549957275
17	107.46621751785278	pulse	1	t		15.0	2.5	/experiments/knapen_AOT/AOT_stimuli/rescaled_final/0658_rv.mp4	0.0	123.26989412307739	
17	109.06631636619568	pulse	1	t		15.0	2.5	/experiments/knapen_AOT/AOT_stimuli/rescaled_final/0658_rv.mp4	0.0	124.86999297142029	
17	109.59115839004517	fix_post	2		12	15.0	2.5	/experiments/knapen_AOT/AOT_stimuli/rescaled_final/0658_rv.mp4	0.0	125.39483499526978	0.1000208854675293
18	109.6911792755127	fix_pre	0		118	16.0	2.5	/experiments/knapen_AOT/AOT_stimuli/rescaled_final/1546_rv.mp4	0.0	125.4948558807373	0.991832971572876
18	110.66653823852539	pulse	0	t		16.0	2.5	/experiments/knapen_AOT/AOT_stimuli/rescaled_final/1546_rv.mp4	0.0	126.47021484375	
18	110.68301224708557	movie	1		288	16.0	2.5	/experiments/knapen_AOT/AOT_stimuli/rescaled_final/1546_rv.mp4	0.0	126.48668885231018	2.5003819465637207
18	112.2668468952179	pulse	1	t		16.0	2.5	/experiments/knapen_AOT/AOT_stimuli/rescaled_final/1546_rv.mp4	0.0	128.0705235004425	
18	113.18339419364929	fix_post	2		12	16.0	2.5	/experiments/knapen_AOT/AOT_stimuli/rescaled_final/1546_rv.mp4	0.0	128.9870707988739	0.10005879402160645
19	113.2834529876709	fix_pre	0		120	17.0	2.5	/experiments/knapen_AOT/AOT_stimuli/rescaled_final/1789_rv.mp4	0.0	129.0871295928955	1.008441686630249
19	113.86703109741211	pulse	0	t		17.0	2.5	/experiments/knapen_AOT/AOT_stimuli/rescaled_final/1789_rv.mp4	0.0	129.67070770263672	
19	114.29189467430115	movie	1		272	17.0	2.5	/experiments/knapen_AOT/AOT_stimuli/rescaled_final/1789_rv.mp4	0.0	130.09557127952576	2.4920127391815186
19	115.46742510795593	pulse	1	t		17.0	2.5	/experiments/knapen_AOT/AOT_stimuli/rescaled_final/1789_rv.mp4	0.0	131.27110171318054	
19	116.78390741348267	fix_post	2		12	17.0	2.5	/experiments/knapen_AOT/AOT_stimuli/rescaled_final/1789_rv.mp4	0.0	132.58758401870728	0.10004448890686035
20	116.88395190238953	fix_pre	0		120	18.0	2.5	/experiments/knapen_AOT/AOT_stimuli/rescaled_final/1835_fw.mp4	0.0	132.68762850761414	1.008474349975586
20	117.06752133369446	pulse	0	t		18.0	2.5	/experiments/knapen_AOT/AOT_stimuli/rescaled_final/1835_fw.mp4	0.0	132.87119793891907	
20	117.89242625236511	movie	1		280	18.0	2.5	/experiments/knapen_AOT/AOT_stimuli/rescaled_final/1835_fw.mp4	0.0	133.69610285758972	2.492114782333374
20	118.66807460784912	pulse	1	t		18.0	2.5	/experiments/knapen_AOT/AOT_stimuli/rescaled_final/1835_fw.mp4	0.0	134.47175121307373	
20	120.26599907875061	pulse	1	t		18.0	2.5	/experiments/knapen_AOT/AOT_stimuli/rescaled_final/1835_fw.mp4	0.0	136.06967568397522	
20	120.38454103469849	fix_post	2		12	18.0	2.5	/experiments/knapen_AOT/AOT_stimuli/rescaled_final/1835_fw.mp4	0.0	136.1882176399231	0.09994101524353027
21	120.48448204994202	fix_pre	0		120	19.0	2.5	blank	1.0	136.28815865516663	1.000143051147461
21	121.48462510108948	movie	1		300	19.0	2.5	blank	1.0	137.2883017063141	2.5003604888916016
21	121.86830115318298	pulse	1	t		19.0	2.5	blank	1.0	137.6719777584076	
21	123.46843767166138	pulse	1	t		19.0	2.5	blank	1.0	139.272114276886	
21	123.98498558998108	fix_post	2		12	19.0	2.5	blank	1.0	139.7886621952057	0.1000971794128418
22	124.08508276939392	fix_pre	0		119	20.0	2.5	/experiments/knapen_AOT/AOT_stimuli/rescaled_final/1148_fw.mp4	0.0	139.88875937461853	1.0085577964782715
22	125.06873846054077	pulse	0	t		20.0	2.5	/experiments/knapen_AOT/AOT_stimuli/rescaled_final/1148_fw.mp4	0.0	140.87241506576538	
22	125.09364056587219	movie	1		279	20.0	2.5	/experiments/knapen_AOT/AOT_stimuli/rescaled_final/1148_fw.mp4	0.0	140.8973171710968	2.4918839931488037
22	126.6676607131958	pulse	1	t		20.0	2.5	/experiments/knapen_AOT/AOT_stimuli/rescaled_final/1148_fw.mp4	0.0	142.4713373184204	
22	127.585524559021	fix_post	2		12	20.0	2.5	/experiments/knapen_AOT/AOT_stimuli/rescaled_final/1148_fw.mp4	0.0	143.3892011642456	0.10003113746643066
23	127.68555569648743	fix_pre	0		120	21.0	2.5	/experiments/knapen_AOT/AOT_stimuli/rescaled_final/0239_rv.mp4	0.0	143.48923230171204	1.008591651916504
23	128.2693121433258	pulse	0	t		21.0	2.5	/experiments/knapen_AOT/AOT_stimuli/rescaled_final/0239_rv.mp4	0.0	144.07298874855042	
23	128.69414734840393	movie	1		290	21.0	2.5	/experiments/knapen_AOT/AOT_stimuli/rescaled_final/0239_rv.mp4	0.0	144.49782395362854	2.4919345378875732
23	129.8677694797516	pulse	1	t		21.0	2.5	/experiments/knapen_AOT/AOT_stimuli/rescaled_final/0239_rv.mp4	0.0	145.6714460849762	
23	131.1860818862915	fix_post	2		12	21.0	2.5	/experiments/knapen_AOT/AOT_stimuli/rescaled_final/0239_rv.mp4	0.0	146.9897584915161	0.10001587867736816
24	131.28609776496887	fix_pre	0		120	22.0	2.5	/experiments/knapen_AOT/AOT_stimuli/rescaled_final/1355_rv.mp4	0.0	147.08977437019348	1.0085182189941406
24	131.46984457969666	pulse	0	t		22.0	2.5	/experiments/knapen_AOT/AOT_stimuli/rescaled_final/1355_rv.mp4	0.0	147.27352118492126	
24	132.294615983963	movie	1		288	22.0	2.5	/experiments/knapen_AOT/AOT_stimuli/rescaled_final/1355_rv.mp4	0.0	148.09829258918762	2.4920454025268555
24	133.06755208969116	pulse	1	t		22.0	2.5	/experiments/knapen_AOT/AOT_stimuli/rescaled_final/1355_rv.mp4	0.0	148.87122869491577	
24	134.66789174079895	pulse	1	t		22.0	2.5	/experiments/knapen_AOT/AOT_stimuli/rescaled_final/1355_rv.mp4	0.0	150.47156834602356	
24	134.78666138648987	fix_post	2		12	22.0	2.5	/experiments/knapen_AOT/AOT_stimuli/rescaled_final/1355_rv.mp4	0.0	150.59033799171448	0.09997248649597168
25	134.88663387298584	fix_pre	0		120	23.0	2.5	/experiments/knapen_AOT/AOT_stimuli/rescaled_final/0694_rv.mp4	0.0	150.69031047821045	1.0085184574127197
25	135.89515233039856	movie	1		293	23.0	2.5	/experiments/knapen_AOT/AOT_stimuli/rescaled_final/0694_rv.mp4	0.0	151.69882893562317	2.4920079708099365
25	136.26870942115784	pulse	1	t		23.0	2.5	/experiments/knapen_AOT/AOT_stimuli/rescaled_final/0694_rv.mp4	0.0	152.07238602638245	
25	137.86851739883423	pulse	1	t		23.0	2.5	/experiments/knapen_AOT/AOT_stimuli/rescaled_final/0694_rv.mp4	0.0	153.67219400405884	
25	138.3871603012085	fix_post	2		12	23.0	2.5	/experiments/knapen_AOT/AOT_stimuli/rescaled_final/0694_rv.mp4	0.0	154.1908369064331	0.1000220775604248
26	138.48718237876892	fix_pre	0		119	24.0	2.5	/experiments/knapen_AOT/AOT_stimuli/rescaled_final/1166_fw.mp4	0.0	154.29085898399353	1.0002021789550781
26	139.4709165096283	pulse	0	t		24.0	2.5	/experiments/knapen_AOT/AOT_stimuli/rescaled_final/1166_fw.mp4	0.0	155.2745931148529	
26	139.487384557724	movie	1		282	24.0	2.5	/experiments/knapen_AOT/AOT_stimuli/rescaled_final/1166_fw.mp4	0.0	155.2910611629486	2.500314235687256
26	141.07015872001648	pulse	1	t		24.0	2.5	/experiments/knapen_AOT/AOT_stimuli/rescaled_final/1166_fw.mp4	0.0	156.8738353252411	
26	141.98769879341125	fix_post	2		12	24.0	2.5	/experiments/knapen_AOT/AOT_stimuli/rescaled_final/1166_fw.mp4	0.0	157.79137539863586	0.10006833076477051
27	142.08776712417603	fix_pre	0		120	25.0	2.5	/experiments/knapen_AOT/AOT_stimuli/rescaled_final/1825_fw.mp4	0.0	157.89144372940063	1.0084383487701416
27	142.67136549949646	pulse	0	t		25.0	2.5	/experiments/knapen_AOT/AOT_stimuli/rescaled_final/1825_fw.mp4	0.0	158.47504210472107	
27	143.09620547294617	movie	1		266	25.0	2.5	/experiments/knapen_AOT/AOT_stimuli/rescaled_final/1825_fw.mp4	0.0	158.89988207817078	2.5003631114959717
27	144.2696135044098	pulse	1	t		25.0	2.5	/experiments/knapen_AOT/AOT_stimuli/rescaled_final/1825_fw.mp4	0.0	160.0732901096344	
27	145.59656858444214	fix_post	2		11	25.0	2.5	/experiments/knapen_AOT/AOT_stimuli/rescaled_final/1825_fw.mp4	0.0	161.40024518966675	0.09180092811584473
28	145.68836951255798	fix_pre	0		120	26.0	2.5	/experiments/knapen_AOT/AOT_stimuli/rescaled_final/2002_rv.mp4	0.0	161.4920461177826	1.00844144821167
28	145.87180066108704	pulse	0	t		26.0	2.5	/experiments/knapen_AOT/AOT_stimuli/rescaled_final/2002_rv.mp4	0.0	161.67547726631165	
28	146.69681096076965	movie	1		284	26.0	2.5	/experiments/knapen_AOT/AOT_stimuli/rescaled_final/2002_rv.mp4	0.0	162.50048756599426	2.4919650554656982
28	147.47014331817627	pulse	1	t		26.0	2.5	/experiments/knapen_AOT/AOT_stimuli/rescaled_final/2002_rv.mp4	0.0	163.27381992340088	
28	149.07034301757812	pulse	1	t		26.0	2.5	/experiments/knapen_AOT/AOT_stimuli/rescaled_final/2002_rv.mp4	0.0	164.87401962280273	
28	149.18877601623535	fix_post	2		12	26.0	2.5	/experiments/knapen_AOT/AOT_stimuli/rescaled_final/2002_rv.mp4	0.0	164.99245262145996	0.10001730918884277
29	149.2887933254242	fix_pre	0		120	27.0	2.5	/experiments/knapen_AOT/AOT_stimuli/rescaled_final/0658_fw.mp4	0.0	165.0924699306488	1.008497953414917
29	150.2972912788391	movie	1		275	27.0	2.5	/experiments/knapen_AOT/AOT_stimuli/rescaled_final/0658_fw.mp4	0.0	166.10096788406372	2.500370979309082
29	150.67077231407166	pulse	1	t		27.0	2.5	/experiments/knapen_AOT/AOT_stimuli/rescaled_final/0658_fw.mp4	0.0	166.47444891929626	
29	152.27036309242249	pulse	1	t		27.0	2.5	/experiments/knapen_AOT/AOT_stimuli/rescaled_final/0658_fw.mp4	0.0	168.0740396976471	
29	152.7976622581482	fix_post	2		11	27.0	2.5	/experiments/knapen_AOT/AOT_stimuli/rescaled_final/0658_fw.mp4	0.0	168.6013388633728	0.09167742729187012
30	152.88933968544006	fix_pre	0		119	28.0	2.5	blank	1.0	168.69301629066467	0.9918043613433838
30	153.87307024002075	pulse	0	t		28.0	2.5	blank	1.0	169.67674684524536	
30	153.88114404678345	movie	1		301	28.0	2.5	blank	1.0	169.68482065200806	2.5087263584136963
30	155.47327208518982	pulse	1	t		28.0	2.5	blank	1.0	171.27694869041443	
30	156.38987040519714	fix_post	2		12	28.0	2.5	blank	1.0	172.19354701042175	0.10007214546203613
31	156.48994255065918	fix_pre	0		120	29.0	2.5	/experiments/knapen_AOT/AOT_stimuli/rescaled_final/0076_fw.mp4	0.0	172.2936191558838	1.0084943771362305
31	157.06653213500977	pulse	0	t		29.0	2.5	/experiments/knapen_AOT/AOT_stimuli/rescaled_final/0076_fw.mp4	0.0	172.87020874023438	
31	157.4984369277954	movie	1		276	29.0	2.5	/experiments/knapen_AOT/AOT_stimuli/rescaled_final/0076_fw.mp4	0.0	173.30211353302002	2.492042303085327
31	158.67409682273865	pulse	1	t		29.0	2.5	/experiments/knapen_AOT/AOT_stimuli/rescaled_final/0076_fw.mp4	0.0	174.47777342796326	
31	159.99047923088074	fix_post	2		12	29.0	2.5	/experiments/knapen_AOT/AOT_stimuli/rescaled_final/0076_fw.mp4	0.0	175.79415583610535	0.10000157356262207
32	160.09048080444336	fix_pre	0		120	30.0	2.5	/experiments/knapen_AOT/AOT_stimuli/rescaled_final/1846_rv.mp4	0.0	175.89415740966797	1.0085010528564453
32	160.26768398284912	pulse	0	t		30.0	2.5	/experiments/knapen_AOT/AOT_stimuli/rescaled_final/1846_rv.mp4	0.0	176.07136058807373	
32	161.0989818572998	movie	1		274	30.0	2.5	/experiments/knapen_AOT/AOT_stimuli/rescaled_final/1846_rv.mp4	0.0	176.9026584625244	2.491978406906128
32	161.8720304965973	pulse	1	t		30.0	2.5	/experiments/knapen_AOT/AOT_stimuli/rescaled_final/1846_rv.mp4	0.0	177.6757071018219	
32	163.46670055389404	pulse	1	t		30.0	2.5	/experiments/knapen_AOT/AOT_stimuli/rescaled_final/1846_rv.mp4	0.0	179.27037715911865	
32	163.59096026420593	fix_post	2		12	30.0	2.5	/experiments/knapen_AOT/AOT_stimuli/rescaled_final/1846_rv.mp4	0.0	179.39463686943054	0.10001659393310547
33	163.69097685813904	fix_pre	0		120	31.0	2.5	/experiments/knapen_AOT/AOT_stimuli/rescaled_final/1879_fw.mp4	0.0	179.49465346336365	1.0084855556488037
33	164.69946241378784	movie	1		272	31.0	2.5	/experiments/knapen_AOT/AOT_stimuli/rescaled_final/1879_fw.mp4	0.0	180.50313901901245	2.4920432567596436
33	165.06644916534424	pulse	1	t		31.0	2.5	/experiments/knapen_AOT/AOT_stimuli/rescaled_final/1879_fw.mp4	0.0	180.87012577056885	
33	166.66696453094482	pulse	1	t		31.0	2.5	/experiments/knapen_AOT/AOT_stimuli/rescaled_final/1879_fw.mp4	0.0	182.47064113616943	
33	167.19150567054749	fix_post	2		12	31.0	2.5	/experiments/knapen_AOT/AOT_stimuli/rescaled_final/1879_fw.mp4	0.0	182.9951822757721	0.10005497932434082
34	167.29156064987183	fix_pre	0		118	32.0	2.5	/experiments/knapen_AOT/AOT_stimuli/rescaled_final/1117_rv.mp4	0.0	183.09523725509644	0.991816520690918
34	168.26696920394897	pulse	0	t		32.0	2.5	/experiments/knapen_AOT/AOT_stimuli/rescaled_final/1117_rv.mp4	0.0	184.07064580917358	
34	168.28337717056274	movie	1		281	32.0	2.5	/experiments/knapen_AOT/AOT_stimuli/rescaled_final/1117_rv.mp4	0.0	184.08705377578735	2.500349998474121
34	169.86838030815125	pulse	1	t		32.0	2.5	/experiments/knapen_AOT/AOT_stimuli/rescaled_final/1117_rv.mp4	0.0	185.67205691337585	
34	170.78372716903687	fix_post	2		12	32.0	2.5	/experiments/knapen_AOT/AOT_stimuli/rescaled_final/1117_rv.mp4	0.0	186.58740377426147	0.10003066062927246
35	170.88375782966614	fix_pre	0		120	33.0	2.5	/experiments/knapen_AOT/AOT_stimuli/rescaled_final/1099_fw.mp4	0.0	186.68743443489075	1.0084538459777832
35	171.46741223335266	pulse	0	t		33.0	2.5	/experiments/knapen_AOT/AOT_stimuli/rescaled_final/1099_fw.mp4	0.0	187.27108883857727	
35	171.89221167564392	movie	1		278	33.0	2.5	/experiments/knapen_AOT/AOT_stimuli/rescaled_final/1099_fw.mp4	0.0	187.69588828086853	2.4920313358306885
35	173.06763315200806	pulse	1	t		33.0	2.5	/experiments/knapen_AOT/AOT_stimuli/rescaled_final/1099_fw.mp4	0.0	188.87130975723267	
35	174.3842430114746	fix_post	2		12	33.0	2.5	/experiments/knapen_AOT/AOT_stimuli/rescaled_final/1099_fw.mp4	0.0	190.18791961669922	0.10003876686096191
36	174.48428177833557	fix_pre	0		120	34.0	2.5	blank	1.0	190.28795838356018	1.0001201629638672
36	174.66810369491577	pulse	0	t		34.0	2.5	blank	1.0	190.47178030014038	
36	175.48440194129944	movie	1		300	34.0	2.5	blank	1.0	191.28807854652405	2.5003702640533447
36	176.26830124855042	pulse	1	t		34.0	2.5	blank	1.0	192.07197785377502	
36	177.8685348033905	pulse	1	t		34.0	2.5	blank	1.0	193.6722114086151	
36	177.98477220535278	fix_post	2		12	34.0	2.5	blank	1.0	193.7884488105774	0.10003280639648438
37	178.08480501174927	fix_pre	0		120	35.0	2.5	/experiments/knapen_AOT/AOT_stimuli/rescaled_final/1725_fw.mp4	0.0	193.88848161697388	1.0085453987121582
37	179.09335041046143	movie	1		277	35.0	2.5	/experiments/knapen_AOT/AOT_stimuli/rescaled_final/1725_fw.mp4	0.0	194.89702701568604	2.4921352863311768
37	179.46728205680847	pulse	1	t		35.0	2.5	/experiments/knapen_AOT/AOT_stimuli/rescaled_final/1725_fw.mp4	0.0	195.27095866203308	
37	181.06810092926025	pulse	1	t		35.0	2.5	/experiments/knapen_AOT/AOT_stimuli/rescaled_final/1725_fw.mp4	0.0	196.87177753448486	
37	181.5854856967926	fix_post	2		12	35.0	2.5	/experiments/knapen_AOT/AOT_stimuli/rescaled_final/1725_fw.mp4	0.0	197.3891623020172	0.09989738464355469
38	181.68538308143616	fix_pre	0		119	36.0	2.5	/experiments/knapen_AOT/AOT_stimuli/rescaled_final/1166_fw.mp4	0.0	197.48905968666077	1.000136137008667
38	182.6690571308136	pulse	0	t		36.0	2.5	/experiments/knapen_AOT/AOT_stimuli/rescaled_final/1166_fw.mp4	0.0	198.4727337360382	
38	182.68551921844482	movie	1		278	36.0	2.5	/experiments/knapen_AOT/AOT_stimuli/rescaled_final/1166_fw.mp4	0.0	198.48919582366943	2.500333786010742
38	184.26748061180115	pulse	1	t		36.0	2.5	/experiments/knapen_AOT/AOT_stimuli/rescaled_final/1166_fw.mp4	0.0	200.07115721702576	
38	185.18585300445557	fix_post	2		12	36.0	2.5	/experiments/knapen_AOT/AOT_stimuli/rescaled_final/1166_fw.mp4	0.0	200.98952960968018	0.1000666618347168
39	185.28591966629028	fix_pre	0		120	37.0	2.5	/experiments/knapen_AOT/AOT_stimuli/rescaled_final/1038_rv.mp4	0.0	201.0895962715149	1.00846266746521
39	185.86954975128174	pulse	0	t		37.0	2.5	/experiments/knapen_AOT/AOT_stimuli/rescaled_final/1038_rv.mp4	0.0	201.67322635650635	
39	186.2943823337555	movie	1		276	37.0	2.5	/experiments/knapen_AOT/AOT_stimuli/rescaled_final/1038_rv.mp4	0.0	202.0980589389801	2.4920156002044678
39	187.46913886070251	pulse	1	t		37.0	2.5	/experiments/knapen_AOT/AOT_stimuli/rescaled_final/1038_rv.mp4	0.0	203.27281546592712	
39	188.78639793395996	fix_post	2		12	37.0	2.5	/experiments/knapen_AOT/AOT_stimuli/rescaled_final/1038_rv.mp4	0.0	204.59007453918457	0.10002470016479492
40	188.88642263412476	fix_pre	0		120	38.0	2.5	/experiments/knapen_AOT/AOT_stimuli/rescaled_final/2158_rv.mp4	0.0	204.69009923934937	1.0085065364837646
40	189.06999850273132	pulse	0	t		38.0	2.5	/experiments/knapen_AOT/AOT_stimuli/rescaled_final/2158_rv.mp4	0.0	204.87367510795593	
40	189.89492917060852	movie	1		280	38.0	2.5	/experiments/knapen_AOT/AOT_stimuli/rescaled_final/2158_rv.mp4	0.0	205.69860577583313	2.4920432567596436
40	190.67023706436157	pulse	1	t		38.0	2.5	/experiments/knapen_AOT/AOT_stimuli/rescaled_final/2158_rv.mp4	0.0	206.47391366958618	
40	192.2685742378235	pulse	1	t		38.0	2.5	/experiments/knapen_AOT/AOT_stimuli/rescaled_final/2158_rv.mp4	0.0	208.0722508430481	
40	192.38697242736816	fix_post	2		12	38.0	2.5	/experiments/knapen_AOT/AOT_stimuli/rescaled_final/2158_rv.mp4	0.0	208.19064903259277	0.09999871253967285
41	192.48697113990784	fix_pre	0		120	39.0	2.5	/experiments/knapen_AOT/AOT_stimuli/rescaled_final/0269_fw.mp4	0.0	208.29064774513245	1.008455514907837
41	193.49542665481567	movie	1		271	39.0	2.5	/experiments/knapen_AOT/AOT_stimuli/rescaled_final/0269_fw.mp4	0.0	209.29910326004028	2.492044687271118
41	193.86904954910278	pulse	1	t		39.0	2.5	/experiments/knapen_AOT/AOT_stimuli/rescaled_final/0269_fw.mp4	0.0	209.6727261543274	
41	195.46988320350647	pulse	1	t		39.0	2.5	/experiments/knapen_AOT/AOT_stimuli/rescaled_final/0269_fw.mp4	0.0	211.27355980873108	
41	195.9874713420868	fix_post	2		12	39.0	2.5	/experiments/knapen_AOT/AOT_stimuli/rescaled_final/0269_fw.mp4	0.0	211.7911479473114	0.10003137588500977
42	196.0875027179718	fix_pre	0		119	40.0	2.5	/experiments/knapen_AOT/AOT_stimuli/rescaled_final/0117_fw.mp4	0.0	211.8911793231964	1.0085813999176025
42	197.07116222381592	pulse	0	t		40.0	2.5	/experiments/knapen_AOT/AOT_stimuli/rescaled_final/0117_fw.mp4	0.0	212.87483882904053	
42	197.0960841178894	movie	1		281	40.0	2.5	/experiments/knapen_AOT/AOT_stimuli/rescaled_final/0117_fw.mp4	0.0	212.899760723114	2.4919679164886475
42	198.66956663131714	pulse	1	t		40.0	2.5	/experiments/knapen_AOT/AOT_stimuli/rescaled_final/0117_fw.mp4	0.0	214.47324323654175	
42	199.58805203437805	fix_post	2		12	40.0	2.5	/experiments/knapen_AOT/AOT_stimuli/rescaled_final/0117_fw.mp4	0.0	215.39172863960266	0.10001134872436523
43	199.68806338310242	fix_pre	0		120	41.0	2.5	/experiments/knapen_AOT/AOT_stimuli/rescaled_final/0095_rv.mp4	0.0	215.49173998832703	1.0085079669952393
43	200.271728515625	pulse	0	t		41.0	2.5	/experiments/knapen_AOT/AOT_stimuli/rescaled_final/0095_rv.mp4	0.0	216.0754051208496	
43	200.69657135009766	movie	1		272	41.0	2.5	/experiments/knapen_AOT/AOT_stimuli/rescaled_final/0095_rv.mp4	0.0	216.50024795532227	2.4919939041137695
43	201.86992955207825	pulse	1	t		41.0	2.5	/experiments/knapen_AOT/AOT_stimuli/rescaled_final/0095_rv.mp4	0.0	217.67360615730286	
43	203.18856525421143	fix_post	2		12	41.0	2.5	/experiments/knapen_AOT/AOT_stimuli/rescaled_final/0095_rv.mp4	0.0	218.99224185943604	0.10002732276916504
44	203.2885925769806	fix_pre	0		120	42.0	2.5	blank	1.0	219.0922691822052	1.0001263618469238
44	203.4723117351532	pulse	0	t		42.0	2.5	blank	1.0	219.2759883403778	
44	204.28871893882751	movie	1		300	42.0	2.5	blank	1.0	220.09239554405212	2.5003793239593506
44	205.07243537902832	pulse	1	t		42.0	2.5	blank	1.0	220.87611198425293	
44	206.67260837554932	pulse	1	t		42.0	2.5	blank	1.0	222.47628498077393	
44	206.78909826278687	fix_post	2		12	42.0	2.5	blank	1.0	222.59277486801147	0.10002493858337402
45	206.88912320137024	fix_pre	0		120	43.0	2.5	/experiments/knapen_AOT/AOT_stimuli/rescaled_final/0524_fw.mp4	0.0	222.69279980659485	1.0084893703460693
45	207.8976125717163	movie	1		285	43.0	2.5	/experiments/knapen_AOT/AOT_stimuli/rescaled_final/0524_fw.mp4	0.0	223.70128917694092	2.4920570850372314
45	208.27124166488647	pulse	1	t		43.0	2.5	/experiments/knapen_AOT/AOT_stimuli/rescaled_final/0524_fw.mp4	0.0	224.07491827011108	
45	209.87100410461426	pulse	1	t		43.0	2.5	/experiments/knapen_AOT/AOT_stimuli/rescaled_final/0524_fw.mp4	0.0	225.67468070983887	
45	210.38966965675354	fix_post	2		12	43.0	2.5	/experiments/knapen_AOT/AOT_stimuli/rescaled_final/0524_fw.mp4	0.0	226.19334626197815	0.09999799728393555
46	210.48966765403748	fix_pre	0		119	44.0	2.5	/experiments/knapen_AOT/AOT_stimuli/rescaled_final/0573_rv.mp4	0.0	226.29334425926208	1.0001590251922607
46	211.47333073616028	pulse	0	t		44.0	2.5	/experiments/knapen_AOT/AOT_stimuli/rescaled_final/0573_rv.mp4	0.0	227.2770073413849	
46	211.48982667922974	movie	1		280	44.0	2.5	/experiments/knapen_AOT/AOT_stimuli/rescaled_final/0573_rv.mp4	0.0	227.29350328445435	2.500378131866455
46	213.0720658302307	pulse	1	t		44.0	2.5	/experiments/knapen_AOT/AOT_stimuli/rescaled_final/0573_rv.mp4	0.0	228.87574243545532	
46	213.9902048110962	fix_post	2		12	44.0	2.5	/experiments/knapen_AOT/AOT_stimuli/rescaled_final/0573_rv.mp4	0.0	229.7938814163208	0.09999871253967285
47	214.09020352363586	fix_pre	0		120	45.0	2.5	/experiments/knapen_AOT/AOT_stimuli/rescaled_final/0829_rv.mp4	0.0	229.89388012886047	1.008516788482666
47	214.6739206314087	pulse	0	t		45.0	2.5	/experiments/knapen_AOT/AOT_stimuli/rescaled_final/0829_rv.mp4	0.0	230.4775972366333	
47	215.09872031211853	movie	1		281	45.0	2.5	/experiments/knapen_AOT/AOT_stimuli/rescaled_final/0829_rv.mp4	0.0	230.90239691734314	2.4920012950897217
47	216.2720730304718	pulse	1	t		45.0	2.5	/experiments/knapen_AOT/AOT_stimuli/rescaled_final/0829_rv.mp4	0.0	232.0757496356964	
47	217.59072160720825	fix_post	2		12	45.0	2.5	/experiments/knapen_AOT/AOT_stimuli/rescaled_final/0829_rv.mp4	0.0	233.39439821243286	0.10002803802490234
48	217.69074964523315	fix_pre	0		119	46.0	2.5	/experiments/knapen_AOT/AOT_stimuli/rescaled_final/1367_rv.mp4	0.0	233.49442625045776	1.0084969997406006
48	217.87436175346375	pulse	0	t		46.0	2.5	/experiments/knapen_AOT/AOT_stimuli/rescaled_final/1367_rv.mp4	0.0	233.67803835868835	
48	218.69924664497375	movie	1		263	46.0	2.5	/experiments/knapen_AOT/AOT_stimuli/rescaled_final/1367_rv.mp4	0.0	234.50292325019836	2.4920265674591064
48	219.48861241340637	pulse	1	t		46.0	2.5	/experiments/knapen_AOT/AOT_stimuli/rescaled_final/1367_rv.mp4	0.0	235.29228901863098	
48	221.0725667476654	pulse	1	t		46.0	2.5	/experiments/knapen_AOT/AOT_stimuli/rescaled_final/1367_rv.mp4	0.0	236.87624335289001	
48	221.19127321243286	fix_post	2		12	46.0	2.5	/experiments/knapen_AOT/AOT_stimuli/rescaled_final/1367_rv.mp4	0.0	236.99494981765747	0.10001730918884277
49	221.2912905216217	fix_pre	0		120	47.0	2.5	/experiments/knapen_AOT/AOT_stimuli/rescaled_final/1725_fw.mp4	0.0	237.0949671268463	1.0084881782531738
49	222.29977869987488	movie	1		280	47.0	2.5	/experiments/knapen_AOT/AOT_stimuli/rescaled_final/1725_fw.mp4	0.0	238.1034553050995	2.492032289505005
49	222.6670753955841	pulse	1	t		47.0	2.5	/experiments/knapen_AOT/AOT_stimuli/rescaled_final/1725_fw.mp4	0.0	238.47075200080872	
49	224.26700377464294	pulse	1	t		47.0	2.5	/experiments/knapen_AOT/AOT_stimuli/rescaled_final/1725_fw.mp4	0.0	240.07068037986755	
49	224.79181098937988	fix_post	2		12	47.0	2.5	/experiments/knapen_AOT/AOT_stimuli/rescaled_final/1725_fw.mp4	0.0	240.5954875946045	0.1000220775604248
50	224.8918330669403	fix_pre	0		118	48.0	2.5	blank	1.0	240.69550967216492	0.9834587574005127
50	225.8672387599945	pulse	0	t		48.0	2.5	blank	1.0	241.67091536521912	
50	225.87529182434082	movie	1		301	48.0	2.5	blank	1.0	241.67896842956543	2.5087130069732666
50	227.4674515724182	pulse	1	t		48.0	2.5	blank	1.0	243.27112817764282	
50	228.3840048313141	fix_post	2		12	48.0	2.5	blank	1.0	244.1876814365387	0.10003495216369629
51	228.48403978347778	fix_pre	0		120	49.0	2.5	/experiments/knapen_AOT/AOT_stimuli/rescaled_final/0359_rv.mp4	0.0	244.2877163887024	1.008551836013794
51	229.0676589012146	pulse	0	t		49.0	2.5	/experiments/knapen_AOT/AOT_stimuli/rescaled_final/0359_rv.mp4	0.0	244.8713355064392	
51	229.49259161949158	movie	1		283	49.0	2.5	/experiments/knapen_AOT/AOT_stimuli/rescaled_final/0359_rv.mp4	0.0	245.2962682247162	2.491962432861328
51	230.66617226600647	pulse	1	t		49.0	2.5	/experiments/knapen_AOT/AOT_stimuli/rescaled_final/0359_rv.mp4	0.0	246.46984887123108	
51	231.9845540523529	fix_post	2		12	49.0	2.5	/experiments/knapen_AOT/AOT_stimuli/rescaled_final/0359_rv.mp4	0.0	247.78823065757751	0.10018396377563477
52	232.08473801612854	fix_pre	0		120	50.0	2.5	/experiments/knapen_AOT/AOT_stimuli/rescaled_final/1207_rv.mp4	0.0	247.88841462135315	1.0083434581756592
52	232.26818084716797	pulse	0	t		50.0	2.5	/experiments/knapen_AOT/AOT_stimuli/rescaled_final/1207_rv.mp4	0.0	248.07185745239258	
52	233.0930814743042	movie	1		277	50.0	2.5	/experiments/knapen_AOT/AOT_stimuli/rescaled_final/1207_rv.mp4	0.0	248.8967580795288	2.4920499324798584
52	233.8684947490692	pulse	1	t		50.0	2.5	/experiments/knapen_AOT/AOT_stimuli/rescaled_final/1207_rv.mp4	0.0	249.67217135429382	
52	235.46673464775085	pulse	1	t		50.0	2.5	/experiments/knapen_AOT/AOT_stimuli/rescaled_final/1207_rv.mp4	0.0	251.27041125297546	
52	235.58513140678406	fix_post	2		12	50.0	2.5	/experiments/knapen_AOT/AOT_stimuli/rescaled_final/1207_rv.mp4	0.0	251.38880801200867	0.09998893737792969
53	235.685120344162	fix_pre	0		120	51.0	2.5	/experiments/knapen_AOT/AOT_stimuli/rescaled_final/0045_rv.mp4	0.0	251.4887969493866	1.0084962844848633
53	236.69361662864685	movie	1		277	51.0	2.5	/experiments/knapen_AOT/AOT_stimuli/rescaled_final/0045_rv.mp4	0.0	252.49729323387146	2.4920098781585693
53	237.06906938552856	pulse	1	t		51.0	2.5	/experiments/knapen_AOT/AOT_stimuli/rescaled_final/0045_rv.mp4	0.0	252.87274599075317	
53	238.66701769828796	pulse	1	t		51.0	2.5	/experiments/knapen_AOT/AOT_stimuli/rescaled_final/0045_rv.mp4	0.0	254.47069430351257	
53	239.18562650680542	fix_post	2		12	51.0	2.5	/experiments/knapen_AOT/AOT_stimuli/rescaled_final/0045_rv.mp4	0.0	254.98930311203003	0.10005855560302734
54	239.28568506240845	fix_pre	0		119	52.0	2.5	/experiments/knapen_AOT/AOT_stimuli/rescaled_final/0292_rv.mp4	0.0	255.08936166763306	1.0001192092895508
54	240.2693703174591	pulse	0	t		52.0	2.5	/experiments/knapen_AOT/AOT_stimuli/rescaled_final/0292_rv.mp4	0.0	256.0730469226837	
54	240.285804271698	movie	1		284	52.0	2.5	/experiments/knapen_AOT/AOT_stimuli/rescaled_final/0292_rv.mp4	0.0	256.0894808769226	2.500372886657715
54	241.86833930015564	pulse	1	t		52.0	2.5	/experiments/knapen_AOT/AOT_stimuli/rescaled_final/0292_rv.mp4	0.0	257.67201590538025	
54	242.7861771583557	fix_post	2		12	52.0	2.5	/experiments/knapen_AOT/AOT_stimuli/rescaled_final/0292_rv.mp4	0.0	258.5898537635803	0.10002565383911133
55	242.88620281219482	fix_pre	0		120	53.0	2.5	/experiments/knapen_AOT/AOT_stimuli/rescaled_final/0332_fw.mp4	0.0	258.68987941741943	1.0085065364837646
55	243.46981692314148	pulse	0	t		53.0	2.5	/experiments/knapen_AOT/AOT_stimuli/rescaled_final/0332_fw.mp4	0.0	259.2734935283661	
55	243.8947093486786	movie	1		274	53.0	2.5	/experiments/knapen_AOT/AOT_stimuli/rescaled_final/0332_fw.mp4	0.0	259.6983859539032	2.4920027256011963
55	245.0687780380249	pulse	1	t		53.0	2.5	/experiments/knapen_AOT/AOT_stimuli/rescaled_final/0332_fw.mp4	0.0	260.8724546432495	
55	246.38671207427979	fix_post	2		12	53.0	2.5	/experiments/knapen_AOT/AOT_stimuli/rescaled_final/0332_fw.mp4	0.0	262.1903886795044	0.10003066062927246
56	246.48674273490906	fix_pre	0		120	54.0	2.5	/experiments/knapen_AOT/AOT_stimuli/rescaled_final/1274_fw.mp4	0.0	262.29041934013367	1.0084831714630127
56	246.67036986351013	pulse	0	t		54.0	2.5	/experiments/knapen_AOT/AOT_stimuli/rescaled_final/1274_fw.mp4	0.0	262.47404646873474	
56	247.49522590637207	movie	1		282	54.0	2.5	/experiments/knapen_AOT/AOT_stimuli/rescaled_final/1274_fw.mp4	0.0	263.2989025115967	2.4920578002929688
56	248.26828503608704	pulse	1	t		54.0	2.5	/experiments/knapen_AOT/AOT_stimuli/rescaled_final/1274_fw.mp4	0.0	264.07196164131165	
56	249.86878037452698	pulse	1	t		54.0	2.5	/experiments/knapen_AOT/AOT_stimuli/rescaled_final/1274_fw.mp4	0.0	265.6724569797516	
56	249.98728370666504	fix_post	2		12	54.0	2.5	/experiments/knapen_AOT/AOT_stimuli/rescaled_final/1274_fw.mp4	0.0	265.79096031188965	0.10004711151123047
57	250.08733081817627	fix_pre	0		120	55.0	2.5	/experiments/knapen_AOT/AOT_stimuli/rescaled_final/1011_fw.mp4	0.0	265.8910074234009	1.0084190368652344
57	251.0957498550415	movie	1		280	55.0	2.5	/experiments/knapen_AOT/AOT_stimuli/rescaled_final/1011_fw.mp4	0.0	266.8994264602661	2.492123603820801
57	251.47036957740784	pulse	1	t		55.0	2.5	/experiments/knapen_AOT/AOT_stimuli/rescaled_final/1011_fw.mp4	0.0	267.27404618263245	
57	253.0689730644226	pulse	1	t		55.0	2.5	/experiments/knapen_AOT/AOT_stimuli/rescaled_final/1011_fw.mp4	0.0	268.8726496696472	
57	253.5878734588623	fix_post	2		12	55.0	2.5	/experiments/knapen_AOT/AOT_stimuli/rescaled_final/1011_fw.mp4	0.0	269.3915500640869	0.09995841979980469
58	253.6878318786621	fix_pre	0		119	56.0	2.5	blank	1.0	269.4915084838867	0.9918098449707031
58	254.67151522636414	pulse	0	t		56.0	2.5	blank	1.0	270.47519183158875	
58	254.6796417236328	movie	1		301	56.0	2.5	blank	1.0	270.4833183288574	2.5088131427764893
58	256.271760225296	pulse	1	t		56.0	2.5	blank	1.0	272.07543683052063	
58	257.1884548664093	fix_post	2		12	56.0	2.5	blank	1.0	272.9921314716339	0.09990143775939941
59	257.2883563041687	fix_pre	0		120	57.0	2.5	/experiments/knapen_AOT/AOT_stimuli/rescaled_final/1744_fw.mp4	0.0	273.0920329093933	1.0084879398345947
59	257.87199568748474	pulse	0	t		57.0	2.5	/experiments/knapen_AOT/AOT_stimuli/rescaled_final/1744_fw.mp4	0.0	273.67567229270935	
59	258.2968442440033	movie	1		283	57.0	2.5	/experiments/knapen_AOT/AOT_stimuli/rescaled_final/1744_fw.mp4	0.0	274.1005208492279	2.4920623302459717
59	259.47016644477844	pulse	1	t		57.0	2.5	/experiments/knapen_AOT/AOT_stimuli/rescaled_final/1744_fw.mp4	0.0	275.27384305000305	
59	260.78890657424927	fix_post	2		12	57.0	2.5	/experiments/knapen_AOT/AOT_stimuli/rescaled_final/1744_fw.mp4	0.0	276.5925831794739	0.10013246536254883
60	260.8890390396118	fix_pre	0		120	58.0	2.5	/experiments/knapen_AOT/AOT_stimuli/rescaled_final/0524_rv.mp4	0.0	276.6927156448364	1.0083532333374023
60	261.0724587440491	pulse	0	t		58.0	2.5	/experiments/knapen_AOT/AOT_stimuli/rescaled_final/0524_rv.mp4	0.0	276.8761353492737	
60	261.8973922729492	movie	1		281	58.0	2.5	/experiments/knapen_AOT/AOT_stimuli/rescaled_final/0524_rv.mp4	0.0	277.7010688781738	2.492051124572754
60	262.6734573841095	pulse	1	t		58.0	2.5	/experiments/knapen_AOT/AOT_stimuli/rescaled_final/0524_rv.mp4	0.0	278.4771339893341	
60	264.2710175514221	pulse	1	t		58.0	2.5	/experiments/knapen_AOT/AOT_stimuli/rescaled_final/0524_rv.mp4	0.0	280.07469415664673	
60	264.389443397522	fix_post	2		12	58.0	2.5	/experiments/knapen_AOT/AOT_stimuli/rescaled_final/0524_rv.mp4	0.0	280.1931200027466	0.10001850128173828
61	264.4894618988037	fix_pre	0		120	59.0	2.5	/experiments/knapen_AOT/AOT_stimuli/rescaled_final/0685_rv.mp4	0.0	280.2931385040283	1.0084805488586426
61	265.49794244766235	movie	1		278	59.0	2.5	/experiments/knapen_AOT/AOT_stimuli/rescaled_final/0685_rv.mp4	0.0	281.30161905288696	2.4921536445617676
61	265.8720107078552	pulse	1	t		59.0	2.5	/experiments/knapen_AOT/AOT_stimuli/rescaled_final/0685_rv.mp4	0.0	281.67568731307983	
61	267.47135972976685	pulse	1	t		59.0	2.5	/experiments/knapen_AOT/AOT_stimuli/rescaled_final/0685_rv.mp4	0.0	283.27503633499146	
61	267.9900960922241	fix_post	2		12	59.0	2.5	/experiments/knapen_AOT/AOT_stimuli/rescaled_final/0685_rv.mp4	0.0	283.79377269744873	0.0998983383178711
62	268.089994430542	fix_pre	0		119	60.0	2.5	/experiments/knapen_AOT/AOT_stimuli/rescaled_final/0650_rv.mp4	0.0	283.8936710357666	1.0001752376556396
62	269.0738534927368	pulse	0	t		60.0	2.5	/experiments/knapen_AOT/AOT_stimuli/rescaled_final/0650_rv.mp4	0.0	284.8775300979614	
62	269.09016966819763	movie	1		276	60.0	2.5	/experiments/knapen_AOT/AOT_stimuli/rescaled_final/0650_rv.mp4	0.0	284.89384627342224	2.500412702560425
62	270.67311096191406	pulse	1	t		60.0	2.5	/experiments/knapen_AOT/AOT_stimuli/rescaled_final/0650_rv.mp4	0.0	286.4767875671387	
62	271.59058237075806	fix_post	2		12	60.0	2.5	/experiments/knapen_AOT/AOT_stimuli/rescaled_final/0650_rv.mp4	0.0	287.39425897598267	0.09993910789489746
63	271.69052147865295	fix_pre	0		120	61.0	2.5	/experiments/knapen_AOT/AOT_stimuli/rescaled_final/0929_fw.mp4	0.0	287.49419808387756	1.008526086807251
63	272.266250371933	pulse	0	t		61.0	2.5	/experiments/knapen_AOT/AOT_stimuli/rescaled_final/0929_fw.mp4	0.0	288.0699269771576	
63	272.6990475654602	movie	1		276	61.0	2.5	/experiments/knapen_AOT/AOT_stimuli/rescaled_final/0929_fw.mp4	0.0	288.5027241706848	2.492002248764038
63	273.86656737327576	pulse	1	t		61.0	2.5	/experiments/knapen_AOT/AOT_stimuli/rescaled_final/0929_fw.mp4	0.0	289.67024397850037	
63	275.19104981422424	fix_post	2		12	61.0	2.5	/experiments/knapen_AOT/AOT_stimuli/rescaled_final/0929_fw.mp4	0.0	290.99472641944885	0.10001873970031738
64	275.29106855392456	fix_pre	0		120	62.0	2.5	/experiments/knapen_AOT/AOT_stimuli/rescaled_final/1879_fw.mp4	0.0	291.09474515914917	1.0084984302520752
64	275.466500043869	pulse	0	t		62.0	2.5	/experiments/knapen_AOT/AOT_stimuli/rescaled_final/1879_fw.mp4	0.0	291.2701766490936	
64	276.29956698417664	movie	1		270	62.0	2.5	/experiments/knapen_AOT/AOT_stimuli/rescaled_final/1879_fw.mp4	0.0	292.10324358940125	2.49206805229187
64	277.06655287742615	pulse	1	t		62.0	2.5	/experiments/knapen_AOT/AOT_stimuli/rescaled_final/1879_fw.mp4	0.0	292.87022948265076	
64	278.6668863296509	pulse	1	t		62.0	2.5	/experiments/knapen_AOT/AOT_stimuli/rescaled_final/1879_fw.mp4	0.0	294.4705629348755	
64	278.7916350364685	fix_post	2		12	62.0	2.5	/experiments/knapen_AOT/AOT_stimuli/rescaled_final/1879_fw.mp4	0.0	294.5953116416931	0.0999753475189209
65	278.8916103839874	fix_pre	0		120	63.0	2.5	blank	1.0	294.69528698921204	1.000183343887329
65	279.89179372787476	movie	1		300	63.0	2.5	blank	1.0	295.69547033309937	2.500336170196533
65	280.2671046257019	pulse	1	t		63.0	2.5	blank	1.0	296.0707812309265	
65	281.8672888278961	pulse	1	t		63.0	2.5	blank	1.0	297.6709654331207	
65	282.3921298980713	fix_post	2		12	63.0	2.5	blank	1.0	298.1958065032959	0.10007500648498535
66	282.4922049045563	fix_pre	0		118	64.0	2.5	/experiments/knapen_AOT/AOT_stimuli/rescaled_final/1744_rv.mp4	0.0	298.2958815097809	0.9917948246002197
66	283.4675588607788	pulse	0	t		64.0	2.5	/experiments/knapen_AOT/AOT_stimuli/rescaled_final/1744_rv.mp4	0.0	299.2712354660034	
66	283.4839997291565	movie	1		287	64.0	2.5	/experiments/knapen_AOT/AOT_stimuli/rescaled_final/1744_rv.mp4	0.0	299.2876763343811	2.500343084335327
66	285.06642603874207	pulse	1	t		64.0	2.5	/experiments/knapen_AOT/AOT_stimuli/rescaled_final/1744_rv.mp4	0.0	300.8701026439667	
66	285.9843428134918	fix_post	2		12	64.0	2.5	/experiments/knapen_AOT/AOT_stimuli/rescaled_final/1744_rv.mp4	0.0	301.78801941871643	0.1000204086303711
67	286.0843632221222	fix_pre	0		120	65.0	2.5	/experiments/knapen_AOT/AOT_stimuli/rescaled_final/1419_rv.mp4	0.0	301.8880398273468	1.008516788482666
67	286.6679952144623	pulse	0	t		65.0	2.5	/experiments/knapen_AOT/AOT_stimuli/rescaled_final/1419_rv.mp4	0.0	302.4716718196869	
67	287.09288001060486	movie	1		289	65.0	2.5	/experiments/knapen_AOT/AOT_stimuli/rescaled_final/1419_rv.mp4	0.0	302.89655661582947	2.4920942783355713
67	288.2682750225067	pulse	1	t		65.0	2.5	/experiments/knapen_AOT/AOT_stimuli/rescaled_final/1419_rv.mp4	0.0	304.0719516277313	
67	289.58497428894043	fix_post	2		12	65.0	2.5	/experiments/knapen_AOT/AOT_stimuli/rescaled_final/1419_rv.mp4	0.0	305.38865089416504	0.09994339942932129
68	289.68491768836975	fix_pre	0		120	66.0	2.5	/experiments/knapen_AOT/AOT_stimuli/rescaled_final/0095_rv.mp4	0.0	305.48859429359436	1.0084786415100098
68	289.8686399459839	pulse	0	t		66.0	2.5	/experiments/knapen_AOT/AOT_stimuli/rescaled_final/0095_rv.mp4	0.0	305.6723165512085	
68	290.69339632987976	movie	1		280	66.0	2.5	/experiments/knapen_AOT/AOT_stimuli/rescaled_final/0095_rv.mp4	0.0	306.49707293510437	2.4920284748077393
68	291.4670503139496	pulse	1	t		66.0	2.5	/experiments/knapen_AOT/AOT_stimuli/rescaled_final/0095_rv.mp4	0.0	307.2707269191742	
68	293.0672001838684	pulse	1	t		66.0	2.5	/experiments/knapen_AOT/AOT_stimuli/rescaled_final/0095_rv.mp4	0.0	308.870876789093	
68	293.1854248046875	fix_post	2		12	66.0	2.5	/experiments/knapen_AOT/AOT_stimuli/rescaled_final/0095_rv.mp4	0.0	308.9891014099121	0.10000467300415039
69	293.28542947769165	fix_pre	0		120	67.0	2.5	/experiments/knapen_AOT/AOT_stimuli/rescaled_final/0363_rv.mp4	0.0	309.08910608291626	1.0085551738739014
69	294.29398465156555	movie	1		272	67.0	2.5	/experiments/knapen_AOT/AOT_stimuli/rescaled_final/0363_rv.mp4	0.0	310.09766125679016	2.4919986724853516
69	294.6674132347107	pulse	1	t		67.0	2.5	/experiments/knapen_AOT/AOT_stimuli/rescaled_final/0363_rv.mp4	0.0	310.4710898399353	
69	296.2673156261444	pulse	1	t		67.0	2.5	/experiments/knapen_AOT/AOT_stimuli/rescaled_final/0363_rv.mp4	0.0	312.070992231369	
69	296.7859833240509	fix_post	2		12	67.0	2.5	/experiments/knapen_AOT/AOT_stimuli/rescaled_final/0363_rv.mp4	0.0	312.5896599292755	0.10005879402160645
70	296.8860421180725	fix_pre	0		119	68.0	2.5	blank	1.0	312.6897187232971	0.9917361736297607
70	297.8699040412903	pulse	0	t		68.0	2.5	blank	1.0	313.6735806465149	
70	297.87777829170227	movie	1		301	68.0	2.5	blank	1.0	313.6814548969269	2.508723735809326
70	299.4700400829315	pulse	1	t		68.0	2.5	blank	1.0	315.2737166881561	
70	300.3865020275116	fix_post	2		12	68.0	2.5	blank	1.0	316.1901786327362	0.10008859634399414
71	300.4865906238556	fix_pre	0		120	69.0	2.5	/experiments/knapen_AOT/AOT_stimuli/rescaled_final/1350_rv.mp4	0.0	316.2902672290802	1.0085492134094238
71	301.0702452659607	pulse	0	t		69.0	2.5	/experiments/knapen_AOT/AOT_stimuli/rescaled_final/1350_rv.mp4	0.0	316.8739218711853	
71	301.495139837265	movie	1		290	69.0	2.5	/experiments/knapen_AOT/AOT_stimuli/rescaled_final/1350_rv.mp4	0.0	317.2988164424896	2.4919192790985107
71	302.66827750205994	pulse	1	t		69.0	2.5	/experiments/knapen_AOT/AOT_stimuli/rescaled_final/1350_rv.mp4	0.0	318.47195410728455	
71	303.9870591163635	fix_post	2		12	69.0	2.5	/experiments/knapen_AOT/AOT_stimuli/rescaled_final/1350_rv.mp4	0.0	319.79073572158813	0.10006594657897949
72	304.0871250629425	fix_pre	0		120	70.0	2.5	/experiments/knapen_AOT/AOT_stimuli/rescaled_final/1588_fw.mp4	0.0	319.8908016681671	1.008500099182129
72	304.27064752578735	pulse	0	t		70.0	2.5	/experiments/knapen_AOT/AOT_stimuli/rescaled_final/1588_fw.mp4	0.0	320.07432413101196	
72	305.09562516212463	movie	1		284	70.0	2.5	/experiments/knapen_AOT/AOT_stimuli/rescaled_final/1588_fw.mp4	0.0	320.89930176734924	2.491982936859131
72	305.86894488334656	pulse	1	t		70.0	2.5	/experiments/knapen_AOT/AOT_stimuli/rescaled_final/1588_fw.mp4	0.0	321.67262148857117	
72	307.46933937072754	pulse	1	t		70.0	2.5	/experiments/knapen_AOT/AOT_stimuli/rescaled_final/1588_fw.mp4	0.0	323.27301597595215	
72	307.58760809898376	fix_post	2		12	70.0	2.5	/experiments/knapen_AOT/AOT_stimuli/rescaled_final/1588_fw.mp4	0.0	323.3912847042084	0.1001126766204834
73	307.68772077560425	fix_pre	0		120	71.0	2.5	/experiments/knapen_AOT/AOT_stimuli/rescaled_final/1559_rv.mp4	0.0	323.49139738082886	1.008406400680542
73	308.6961271762848	movie	1		284	71.0	2.5	/experiments/knapen_AOT/AOT_stimuli/rescaled_final/1559_rv.mp4	0.0	324.4998037815094	2.4920244216918945
73	309.0700738430023	pulse	1	t		71.0	2.5	/experiments/knapen_AOT/AOT_stimuli/rescaled_final/1559_rv.mp4	0.0	324.87375044822693	
73	310.66937708854675	pulse	1	t		71.0	2.5	/experiments/knapen_AOT/AOT_stimuli/rescaled_final/1559_rv.mp4	0.0	326.47305369377136	
73	311.1881515979767	fix_post	2		12	71.0	2.5	/experiments/knapen_AOT/AOT_stimuli/rescaled_final/1559_rv.mp4	0.0	326.9918282032013	0.10000920295715332
74	311.28816080093384	fix_pre	0		119	72.0	2.5	/experiments/knapen_AOT/AOT_stimuli/rescaled_final/1711_fw.mp4	0.0	327.09183740615845	1.0001394748687744
74	312.2718040943146	pulse	0	t		72.0	2.5	/experiments/knapen_AOT/AOT_stimuli/rescaled_final/1711_fw.mp4	0.0	328.0754806995392	
74	312.2883002758026	movie	1		278	72.0	2.5	/experiments/knapen_AOT/AOT_stimuli/rescaled_final/1711_fw.mp4	0.0	328.0919768810272	2.5004067420959473
74	313.87041187286377	pulse	1	t		72.0	2.5	/experiments/knapen_AOT/AOT_stimuli/rescaled_final/1711_fw.mp4	0.0	329.6740884780884	
74	314.78870701789856	fix_post	2		12	72.0	2.5	/experiments/knapen_AOT/AOT_stimuli/rescaled_final/1711_fw.mp4	0.0	330.59238362312317	0.10008716583251953
75	314.8887941837311	fix_pre	0		120	73.0	2.5	/experiments/knapen_AOT/AOT_stimuli/rescaled_final/0592_fw.mp4	0.0	330.6924707889557	1.0084455013275146
75	315.4723310470581	pulse	0	t		73.0	2.5	/experiments/knapen_AOT/AOT_stimuli/rescaled_final/0592_fw.mp4	0.0	331.2760076522827	
75	315.8972396850586	movie	1		275	73.0	2.5	/experiments/knapen_AOT/AOT_stimuli/rescaled_final/0592_fw.mp4	0.0	331.7009162902832	2.491985321044922
75	317.07190108299255	pulse	1	t		73.0	2.5	/experiments/knapen_AOT/AOT_stimuli/rescaled_final/0592_fw.mp4	0.0	332.87557768821716	
75	318.3892250061035	fix_post	2		12	73.0	2.5	/experiments/knapen_AOT/AOT_stimuli/rescaled_final/0592_fw.mp4	0.0	334.1929016113281	0.10002827644348145
76	318.489253282547	fix_pre	0		120	74.0	2.5	/experiments/knapen_AOT/AOT_stimuli/rescaled_final/1919_rv.mp4	0.0	334.2929298877716	1.008476972579956
76	318.6728048324585	pulse	0	t		74.0	2.5	/experiments/knapen_AOT/AOT_stimuli/rescaled_final/1919_rv.mp4	0.0	334.4764814376831	
76	319.49773025512695	movie	1		288	74.0	2.5	/experiments/knapen_AOT/AOT_stimuli/rescaled_final/1919_rv.mp4	0.0	335.30140686035156	2.4920287132263184
76	320.27074217796326	pulse	1	t		74.0	2.5	/experiments/knapen_AOT/AOT_stimuli/rescaled_final/1919_rv.mp4	0.0	336.07441878318787	
76	321.87148880958557	pulse	1	t		74.0	2.5	/experiments/knapen_AOT/AOT_stimuli/rescaled_final/1919_rv.mp4	0.0	337.6751654148102	
76	321.98975896835327	fix_post	2		12	74.0	2.5	/experiments/knapen_AOT/AOT_stimuli/rescaled_final/1919_rv.mp4	0.0	337.7934355735779	0.1000063419342041
77	322.0897653102875	fix_pre	0		120	75.0	2.5	blank	1.0	337.8934419155121	1.0001583099365234
77	323.089923620224	movie	1		300	75.0	2.5	blank	1.0	338.8936002254486	2.500359058380127
77	323.4735460281372	pulse	1	t		75.0	2.5	blank	1.0	339.2772226333618	
77	325.07378125190735	pulse	1	t		75.0	2.5	blank	1.0	340.87745785713196	
77	325.5902826786041	fix_post	2		12	75.0	2.5	blank	1.0	341.39395928382874	0.10004448890686035
78	325.690327167511	fix_pre	0		119	76.0	2.5	/experiments/knapen_AOT/AOT_stimuli/rescaled_final/1746_rv.mp4	0.0	341.4940037727356	1.0002479553222656
78	326.67400431632996	pulse	0	t		76.0	2.5	/experiments/knapen_AOT/AOT_stimuli/rescaled_final/1746_rv.mp4	0.0	342.47768092155457	
78	326.69057512283325	movie	1		273	76.0	2.5	/experiments/knapen_AOT/AOT_stimuli/rescaled_final/1746_rv.mp4	0.0	342.49425172805786	2.5086095333099365
78	328.272509098053	pulse	1	t		76.0	2.5	/experiments/knapen_AOT/AOT_stimuli/rescaled_final/1746_rv.mp4	0.0	344.0761857032776	
78	329.1991846561432	fix_post	2		11	76.0	2.5	/experiments/knapen_AOT/AOT_stimuli/rescaled_final/1746_rv.mp4	0.0	345.0028612613678	0.0916595458984375
79	329.2908442020416	fix_pre	0		120	77.0	2.5	/experiments/knapen_AOT/AOT_stimuli/rescaled_final/1222_rv.mp4	0.0	345.09452080726624	1.008526086807251
79	329.8675045967102	pulse	0	t		77.0	2.5	/experiments/knapen_AOT/AOT_stimuli/rescaled_final/1222_rv.mp4	0.0	345.6711812019348	
79	330.2993702888489	movie	1		272	77.0	2.5	/experiments/knapen_AOT/AOT_stimuli/rescaled_final/1222_rv.mp4	0.0	346.1030468940735	2.4920310974121094
79	331.4667489528656	pulse	1	t		77.0	2.5	/experiments/knapen_AOT/AOT_stimuli/rescaled_final/1222_rv.mp4	0.0	347.2704255580902	
79	332.791401386261	fix_post	2		12	77.0	2.5	/experiments/knapen_AOT/AOT_stimuli/rescaled_final/1222_rv.mp4	0.0	348.5950779914856	0.09999489784240723
80	332.8913962841034	fix_pre	0		120	78.0	2.5	/experiments/knapen_AOT/AOT_stimuli/rescaled_final/0595_rv.mp4	0.0	348.695072889328	1.0086445808410645
80	333.06665563583374	pulse	0	t		78.0	2.5	/experiments/knapen_AOT/AOT_stimuli/rescaled_final/0595_rv.mp4	0.0	348.87033224105835	
80	333.90004086494446	movie	1		272	78.0	2.5	/experiments/knapen_AOT/AOT_stimuli/rescaled_final/0595_rv.mp4	0.0	349.70371747016907	2.4919111728668213
80	334.6669144630432	pulse	1	t		78.0	2.5	/experiments/knapen_AOT/AOT_stimuli/rescaled_final/0595_rv.mp4	0.0	350.4705910682678	
80	336.2672095298767	pulse	1	t		78.0	2.5	/experiments/knapen_AOT/AOT_stimuli/rescaled_final/0595_rv.mp4	0.0	352.0708861351013	
80	336.3919520378113	fix_post	2		12	78.0	2.5	/experiments/knapen_AOT/AOT_stimuli/rescaled_final/0595_rv.mp4	0.0	352.1956286430359	0.10000181198120117
81	336.4919538497925	fix_pre	0		120	79.0	2.5	/experiments/knapen_AOT/AOT_stimuli/rescaled_final/1835_fw.mp4	0.0	352.2956304550171	1.0084812641143799
81	337.50043511390686	movie	1		278	79.0	2.5	/experiments/knapen_AOT/AOT_stimuli/rescaled_final/1835_fw.mp4	0.0	353.30411171913147	2.500394821166992
81	337.8674805164337	pulse	1	t		79.0	2.5	/experiments/knapen_AOT/AOT_stimuli/rescaled_final/1835_fw.mp4	0.0	353.6711571216583	
81	339.46768260002136	pulse	1	t		79.0	2.5	/experiments/knapen_AOT/AOT_stimuli/rescaled_final/1835_fw.mp4	0.0	355.271359205246	
81	340.00082993507385	fix_post	2		11	79.0	2.5	/experiments/knapen_AOT/AOT_stimuli/rescaled_final/1835_fw.mp4	0.0	355.80450654029846	0.09165120124816895
82	340.092481136322	fix_pre	0		118	80.0	2.5	/experiments/knapen_AOT/AOT_stimuli/rescaled_final/0223_rv.mp4	0.0	355.89615774154663	0.9918155670166016
82	341.0679383277893	pulse	0	t		80.0	2.5	/experiments/knapen_AOT/AOT_stimuli/rescaled_final/0223_rv.mp4	0.0	356.8716149330139	
82	341.0842967033386	movie	1		287	80.0	2.5	/experiments/knapen_AOT/AOT_stimuli/rescaled_final/0223_rv.mp4	0.0	356.88797330856323	2.500399589538574
82	342.66698122024536	pulse	1	t		80.0	2.5	/experiments/knapen_AOT/AOT_stimuli/rescaled_final/0223_rv.mp4	0.0	358.47065782546997	
82	343.5846962928772	fix_post	2		12	80.0	2.5	/experiments/knapen_AOT/AOT_stimuli/rescaled_final/0223_rv.mp4	0.0	359.3883728981018	0.09999203681945801
83	343.68468832969666	fix_pre	0		120	81.0	2.5	/experiments/knapen_AOT/AOT_stimuli/rescaled_final/1611_fw.mp4	0.0	359.48836493492126	1.008479356765747
83	344.26832914352417	pulse	0	t		81.0	2.5	/experiments/knapen_AOT/AOT_stimuli/rescaled_final/1611_fw.mp4	0.0	360.0720057487488	
83	344.6931676864624	movie	1		285	81.0	2.5	/experiments/knapen_AOT/AOT_stimuli/rescaled_final/1611_fw.mp4	0.0	360.496844291687	2.500373125076294
83	345.8685896396637	pulse	1	t		81.0	2.5	/experiments/knapen_AOT/AOT_stimuli/rescaled_final/1611_fw.mp4	0.0	361.6722662448883	
83	347.1935408115387	fix_post	2		11	81.0	2.5	/experiments/knapen_AOT/AOT_stimuli/rescaled_final/1611_fw.mp4	0.0	362.9972174167633	0.09173703193664551
84	347.28527784347534	fix_pre	0		120	82.0	2.5	/experiments/knapen_AOT/AOT_stimuli/rescaled_final/1274_fw.mp4	0.0	363.08895444869995	1.008488416671753
84	347.4689383506775	pulse	0	t		82.0	2.5	/experiments/knapen_AOT/AOT_stimuli/rescaled_final/1274_fw.mp4	0.0	363.2726149559021	
84	348.2937662601471	movie	1		276	82.0	2.5	/experiments/knapen_AOT/AOT_stimuli/rescaled_final/1274_fw.mp4	0.0	364.0974428653717	2.4920127391815186
84	349.06897616386414	pulse	1	t		82.0	2.5	/experiments/knapen_AOT/AOT_stimuli/rescaled_final/1274_fw.mp4	0.0	364.87265276908875	
84	350.6675796508789	pulse	1	t		82.0	2.5	/experiments/knapen_AOT/AOT_stimuli/rescaled_final/1274_fw.mp4	0.0	366.4712562561035	
84	350.7857789993286	fix_post	2		12	82.0	2.5	/experiments/knapen_AOT/AOT_stimuli/rescaled_final/1274_fw.mp4	0.0	366.5894556045532	0.10004043579101562
85	350.88581943511963	fix_pre	0		120	83.0	2.5	blank	1.0	366.68949604034424	1.0001444816589355
85	351.88596391677856	movie	1		300	83.0	2.5	blank	1.0	367.6896405220032	2.500321626663208
85	352.26994037628174	pulse	1	t		83.0	2.5	blank	1.0	368.07361698150635	
85	353.8704249858856	pulse	1	t		83.0	2.5	blank	1.0	369.67410159111023	
85	354.3862855434418	fix_post	2		12	83.0	2.5	blank	1.0	370.1899621486664	0.09998869895935059
87	354.4862742424011	stim	0		1715					370.28995084762573	14.29384970664978
87	355.47010612487793	pulse	0	t						371.27378273010254	
87	357.07028317451477	pulse	0	t						372.8739597797394	
87	358.67050790786743	pulse	0	t						374.47418451309204	
87	360.2707543373108	pulse	0	t						376.0744309425354	
87	361.8710105419159	pulse	0	t						377.6746871471405	
87	363.4712586402893	pulse	0	t						379.2749352455139	
87	365.07151222229004	pulse	0	t						380.87518882751465	
87	366.6716892719269	pulse	0	t						382.4753658771515	
87	368.2719156742096	pulse	0	t						384.0755922794342	
