trial_nr	onset	event_type	phase	response	nr_frames	movie_index	movie_duration	movie_file	blank	onset_abs	duration
0	0.14146876335144043	stim	0		100					24.759521961212158	0.8333690166473389
0	0.9599027633666992	response	0	space						25.577955961227417	
1	0.9748377799987793	stim	0		1105					25.592890977859497	9.20884919166565
1	10.176196813583374	pulse	0	t						34.79425001144409	
1	10.183686971664429	stim	1		1717					34.80174016952515	14.307729959487915
1	11.774848937988281	pulse	1	t						36.392902135849	
1	13.37495493888855	pulse	1	t						37.99300813674927	
1	14.975802898406982	pulse	1	t						39.5938560962677	
1	16.574951887130737	pulse	1	t						41.193005084991455	
1	18.174977779388428	pulse	1	t						42.793030977249146	
1	19.77526879310608	pulse	1	t						44.3933219909668	
1	21.374878883361816	pulse	1	t						45.992932081222534	
1	22.974883794784546	pulse	1	t						47.592936992645264	
2	24.491416931152344	fix_pre	0		11	0.0	2.5	/experiments/AOT/AOT_stimuli/rescaled_final/2152_rv.mp4	0.0	49.10947012901306	0.09171485900878906
2	24.575268983840942	pulse	0	t		0.0	2.5	/experiments/AOT/AOT_stimuli/rescaled_final/2152_rv.mp4	0.0	49.19332218170166	
2	24.583131790161133	movie	1		241	0.0	2.5	/experiments/AOT/AOT_stimuli/rescaled_final/2152_rv.mp4	0.0	49.20118498802185	2.508625030517578
2	26.175314903259277	pulse	1	t		0.0	2.5	/experiments/AOT/AOT_stimuli/rescaled_final/2152_rv.mp4	0.0	50.793368101119995	
2	27.09175682067871	fix_post	2		12	0.0	2.5	/experiments/AOT/AOT_stimuli/rescaled_final/2152_rv.mp4	0.0	51.70981001853943	0.09958410263061523
3	27.191340923309326	fix_pre	0		120	1.0	2.5	/experiments/AOT/AOT_stimuli/rescaled_final/0425_rv.mp4	0.0	51.809394121170044	1.000464916229248
3	27.775223970413208	pulse	0	t		1.0	2.5	/experiments/AOT/AOT_stimuli/rescaled_final/0425_rv.mp4	0.0	52.393277168273926	
3	28.191805839538574	movie	1		242	1.0	2.5	/experiments/AOT/AOT_stimuli/rescaled_final/0425_rv.mp4	0.0	52.80985903739929	2.49953293800354
3	29.374913930892944	pulse	1	t		1.0	2.5	/experiments/AOT/AOT_stimuli/rescaled_final/0425_rv.mp4	0.0	53.99296712875366	
3	30.691338777542114	fix_post	2		12	1.0	2.5	/experiments/AOT/AOT_stimuli/rescaled_final/0425_rv.mp4	0.0	55.30939197540283	0.09998607635498047
4	30.791324853897095	fix_pre	0		120	2.0	2.5	/experiments/AOT/AOT_stimuli/rescaled_final/0094_rv.mp4	0.0	55.40937805175781	1.0005369186401367
4	30.97533679008484	pulse	0	t		2.0	2.5	/experiments/AOT/AOT_stimuli/rescaled_final/0094_rv.mp4	0.0	55.59338998794556	
4	31.79186177253723	movie	1		242	2.0	2.5	/experiments/AOT/AOT_stimuli/rescaled_final/0094_rv.mp4	0.0	56.40991497039795	2.4998931884765625
4	32.57528376579285	pulse	1	t		2.0	2.5	/experiments/AOT/AOT_stimuli/rescaled_final/0094_rv.mp4	0.0	57.193336963653564	
4	34.17376184463501	pulse	1	t		2.0	2.5	/experiments/AOT/AOT_stimuli/rescaled_final/0094_rv.mp4	0.0	58.79181504249573	
4	34.291754961013794	fix_post	2		12	2.0	2.5	/experiments/AOT/AOT_stimuli/rescaled_final/0094_rv.mp4	0.0	58.90980815887451	0.09995293617248535
5	34.39170789718628	fix_pre	0		120	3.0	2.5	/experiments/AOT/AOT_stimuli/rescaled_final/0508_fw.mp4	0.0	59.009761095047	1.0000269412994385
5	35.39173483848572	movie	1		245	3.0	2.5	/experiments/AOT/AOT_stimuli/rescaled_final/0508_fw.mp4	0.0	60.009788036346436	2.5000290870666504
5	35.774712800979614	pulse	1	t		3.0	2.5	/experiments/AOT/AOT_stimuli/rescaled_final/0508_fw.mp4	0.0	60.39276599884033	
5	37.37518382072449	pulse	1	t		3.0	2.5	/experiments/AOT/AOT_stimuli/rescaled_final/0508_fw.mp4	0.0	61.993237018585205	
5	37.89176392555237	fix_post	2		12	3.0	2.5	/experiments/AOT/AOT_stimuli/rescaled_final/0508_fw.mp4	0.0	62.509817123413086	0.09992194175720215
6	37.99168586730957	fix_pre	0		119	4.0	2.5	/experiments/AOT/AOT_stimuli/rescaled_final/1326_fw.mp4	0.0	62.60973906517029	0.9913201332092285
6	38.97481679916382	pulse	0	t		4.0	2.5	/experiments/AOT/AOT_stimuli/rescaled_final/1326_fw.mp4	0.0	63.592869997024536	
6	38.9830060005188	movie	1		243	4.0	2.5	/experiments/AOT/AOT_stimuli/rescaled_final/1326_fw.mp4	0.0	63.60105919837952	2.5082719326019287
6	40.57490682601929	pulse	1	t		4.0	2.5	/experiments/AOT/AOT_stimuli/rescaled_final/1326_fw.mp4	0.0	65.19296002388	
6	41.49127793312073	fix_post	2		12	4.0	2.5	/experiments/AOT/AOT_stimuli/rescaled_final/1326_fw.mp4	0.0	66.10933113098145	0.10037994384765625
7	41.591657876968384	fix_pre	0		120	5.0	2.5	/experiments/AOT/AOT_stimuli/rescaled_final/1984_rv.mp4	0.0	66.2097110748291	0.9995660781860352
7	42.17510795593262	pulse	0	t		5.0	2.5	/experiments/AOT/AOT_stimuli/rescaled_final/1984_rv.mp4	0.0	66.79316115379333	
7	42.59122395515442	movie	1		243	5.0	2.5	/experiments/AOT/AOT_stimuli/rescaled_final/1984_rv.mp4	0.0	67.20927715301514	2.4999969005584717
7	43.7748007774353	pulse	1	t		5.0	2.5	/experiments/AOT/AOT_stimuli/rescaled_final/1984_rv.mp4	0.0	68.39285397529602	
7	45.09122085571289	fix_post	2		12	5.0	2.5	/experiments/AOT/AOT_stimuli/rescaled_final/1984_rv.mp4	0.0	69.70927405357361	0.10065603256225586
8	45.19187688827515	fix_pre	0		120	6.0	2.5	/experiments/AOT/AOT_stimuli/rescaled_final/2054_rv.mp4	0.0	69.80993008613586	0.999830961227417
8	45.37520480155945	pulse	0	t		6.0	2.5	/experiments/AOT/AOT_stimuli/rescaled_final/2054_rv.mp4	0.0	69.99325799942017	
8	46.19170784950256	movie	1		242	6.0	2.5	/experiments/AOT/AOT_stimuli/rescaled_final/2054_rv.mp4	0.0	70.80976104736328	2.4996471405029297
8	46.97513794898987	pulse	1	t		6.0	2.5	/experiments/AOT/AOT_stimuli/rescaled_final/2054_rv.mp4	0.0	71.59319114685059	
8	48.573341846466064	pulse	1	t		6.0	2.5	/experiments/AOT/AOT_stimuli/rescaled_final/2054_rv.mp4	0.0	73.19139504432678	
8	48.69135499000549	fix_post	2		12	6.0	2.5	/experiments/AOT/AOT_stimuli/rescaled_final/2054_rv.mp4	0.0	73.30940818786621	0.09989285469055176
9	48.791247844696045	fix_pre	0		120	7.0	2.5	blank	1.0	73.40930104255676	1.000452995300293
9	49.79170083999634	movie	1		300	7.0	2.5	blank	1.0	74.40975403785706	2.4995779991149902
9	50.1747088432312	pulse	1	t		7.0	2.5	blank	1.0	74.79276204109192	
9	51.775086879730225	pulse	1	t		7.0	2.5	blank	1.0	76.39314007759094	
9	52.29127883911133	fix_post	2		12	7.0	2.5	blank	1.0	76.90933203697205	0.10039997100830078
10	52.39167881011963	fix_pre	0		119	8.0	2.5	/experiments/AOT/AOT_stimuli/rescaled_final/2120_fw.mp4	0.0	77.00973200798035	0.9912281036376953
10	53.374706983566284	pulse	0	t		8.0	2.5	/experiments/AOT/AOT_stimuli/rescaled_final/2120_fw.mp4	0.0	77.992760181427	
10	53.382906913757324	movie	1		243	8.0	2.5	/experiments/AOT/AOT_stimuli/rescaled_final/2120_fw.mp4	0.0	78.00096011161804	2.508759021759033
10	54.97451186180115	pulse	1	t		8.0	2.5	/experiments/AOT/AOT_stimuli/rescaled_final/2120_fw.mp4	0.0	79.59256505966187	
10	55.89166593551636	fix_post	2		12	8.0	2.5	/experiments/AOT/AOT_stimuli/rescaled_final/2120_fw.mp4	0.0	80.50971913337708	0.09964799880981445
11	55.99131393432617	fix_pre	0		120	9.0	2.5	/experiments/AOT/AOT_stimuli/rescaled_final/1194_fw.mp4	0.0	80.60936713218689	0.9999508857727051
11	56.575156927108765	pulse	0	t		9.0	2.5	/experiments/AOT/AOT_stimuli/rescaled_final/1194_fw.mp4	0.0	81.19321012496948	
11	56.99126482009888	movie	1		246	9.0	2.5	/experiments/AOT/AOT_stimuli/rescaled_final/1194_fw.mp4	0.0	81.6093180179596	2.500422954559326
11	58.174763917922974	pulse	1	t		9.0	2.5	/experiments/AOT/AOT_stimuli/rescaled_final/1194_fw.mp4	0.0	82.79281711578369	
11	59.4916877746582	fix_post	2		12	9.0	2.5	/experiments/AOT/AOT_stimuli/rescaled_final/1194_fw.mp4	0.0	84.10974097251892	0.09990406036376953
12	59.59159183502197	fix_pre	0		120	10.0	2.5	/experiments/AOT/AOT_stimuli/rescaled_final/0911_fw.mp4	0.0	84.20964503288269	0.9995861053466797
12	59.775033950805664	pulse	0	t		10.0	2.5	/experiments/AOT/AOT_stimuli/rescaled_final/0911_fw.mp4	0.0	84.39308714866638	
12	60.59117794036865	movie	1		242	10.0	2.5	/experiments/AOT/AOT_stimuli/rescaled_final/0911_fw.mp4	0.0	85.20923113822937	2.5003719329833984
12	61.37465476989746	pulse	1	t		10.0	2.5	/experiments/AOT/AOT_stimuli/rescaled_final/0911_fw.mp4	0.0	85.99270796775818	
12	62.97395181655884	pulse	1	t		10.0	2.5	/experiments/AOT/AOT_stimuli/rescaled_final/0911_fw.mp4	0.0	87.59200501441956	
12	63.09154987335205	fix_post	2		12	10.0	2.5	/experiments/AOT/AOT_stimuli/rescaled_final/0911_fw.mp4	0.0	87.70960307121277	0.10000205039978027
13	63.19155192375183	fix_pre	0		120	11.0	2.5	/experiments/AOT/AOT_stimuli/rescaled_final/0811_rv.mp4	0.0	87.80960512161255	1.000072956085205
13	64.19162487983704	movie	1		245	11.0	2.5	/experiments/AOT/AOT_stimuli/rescaled_final/0811_rv.mp4	0.0	88.80967807769775	2.499553918838501
13	64.57434391975403	pulse	1	t		11.0	2.5	/experiments/AOT/AOT_stimuli/rescaled_final/0811_rv.mp4	0.0	89.19239711761475	
13	66.17467093467712	pulse	1	t		11.0	2.5	/experiments/AOT/AOT_stimuli/rescaled_final/0811_rv.mp4	0.0	90.79272413253784	
13	66.69117879867554	fix_post	2		12	11.0	2.5	/experiments/AOT/AOT_stimuli/rescaled_final/0811_rv.mp4	0.0	91.30923199653625	0.0999610424041748
14	66.79113984107971	fix_pre	0		119	12.0	2.5	/experiments/AOT/AOT_stimuli/rescaled_final/0183_rv.mp4	0.0	91.40919303894043	0.9921059608459473
14	67.77512192726135	pulse	0	t		12.0	2.5	/experiments/AOT/AOT_stimuli/rescaled_final/0183_rv.mp4	0.0	92.39317512512207	
14	67.78324580192566	movie	1		244	12.0	2.5	/experiments/AOT/AOT_stimuli/rescaled_final/0183_rv.mp4	0.0	92.40129899978638	2.5081541538238525
14	69.37622094154358	pulse	1	t		12.0	2.5	/experiments/AOT/AOT_stimuli/rescaled_final/0183_rv.mp4	0.0	93.9942741394043	
14	70.29139995574951	fix_post	2		12	12.0	2.5	/experiments/AOT/AOT_stimuli/rescaled_final/0183_rv.mp4	0.0	94.90945315361023	0.09992098808288574
15	70.3913209438324	fix_pre	0		120	13.0	2.5	/experiments/AOT/AOT_stimuli/rescaled_final/0094_rv.mp4	0.0	95.00937414169312	1.0002360343933105
15	70.97497081756592	pulse	0	t		13.0	2.5	/experiments/AOT/AOT_stimuli/rescaled_final/0094_rv.mp4	0.0	95.59302401542664	
15	71.39155697822571	movie	1		242	13.0	2.5	/experiments/AOT/AOT_stimuli/rescaled_final/0094_rv.mp4	0.0	96.00961017608643	2.499969005584717
15	72.57467794418335	pulse	1	t		13.0	2.5	/experiments/AOT/AOT_stimuli/rescaled_final/0094_rv.mp4	0.0	97.19273114204407	
15	73.89152598381042	fix_post	2		12	13.0	2.5	/experiments/AOT/AOT_stimuli/rescaled_final/0094_rv.mp4	0.0	98.50957918167114	0.09961295127868652
16	73.99113893508911	fix_pre	0		120	14.0	2.5	blank	1.0	98.60919213294983	1.0003318786621094
16	74.17507290840149	pulse	0	t		14.0	2.5	blank	1.0	98.7931261062622	
16	74.99147081375122	movie	1		300	14.0	2.5	blank	1.0	99.60952401161194	2.4996771812438965
16	75.77496099472046	pulse	1	t		14.0	2.5	blank	1.0	100.39301419258118	
16	77.37460398674011	pulse	1	t		14.0	2.5	blank	1.0	101.99265718460083	
16	77.49114799499512	fix_post	2		12	14.0	2.5	blank	1.0	102.10920119285583	0.10045480728149414
17	77.59160280227661	fix_pre	0		120	15.0	2.5	/experiments/AOT/AOT_stimuli/rescaled_final/1731_fw.mp4	0.0	102.20965600013733	0.9999179840087891
17	78.5915207862854	movie	1		243	15.0	2.5	/experiments/AOT/AOT_stimuli/rescaled_final/1731_fw.mp4	0.0	103.20957398414612	2.4996790885925293
17	78.97441577911377	pulse	1	t		15.0	2.5	/experiments/AOT/AOT_stimuli/rescaled_final/1731_fw.mp4	0.0	103.59246897697449	
17	80.57456994056702	pulse	1	t		15.0	2.5	/experiments/AOT/AOT_stimuli/rescaled_final/1731_fw.mp4	0.0	105.19262313842773	
17	81.09119987487793	fix_post	2		12	15.0	2.5	/experiments/AOT/AOT_stimuli/rescaled_final/1731_fw.mp4	0.0	105.70925307273865	0.10004806518554688
18	81.19124794006348	fix_pre	0		119	16.0	2.5	/experiments/AOT/AOT_stimuli/rescaled_final/0291_fw.mp4	0.0	105.8093011379242	0.9915158748626709
18	82.17457699775696	pulse	0	t		16.0	2.5	/experiments/AOT/AOT_stimuli/rescaled_final/0291_fw.mp4	0.0	106.79263019561768	
18	82.18276381492615	movie	1		245	16.0	2.5	/experiments/AOT/AOT_stimuli/rescaled_final/0291_fw.mp4	0.0	106.80081701278687	2.5087101459503174
18	83.77432489395142	pulse	1	t		16.0	2.5	/experiments/AOT/AOT_stimuli/rescaled_final/0291_fw.mp4	0.0	108.39237809181213	
18	84.69147396087646	fix_post	2		12	16.0	2.5	/experiments/AOT/AOT_stimuli/rescaled_final/0291_fw.mp4	0.0	109.30952715873718	0.09992384910583496
19	84.7913978099823	fix_pre	0		120	17.0	2.5	/experiments/AOT/AOT_stimuli/rescaled_final/0362_rv.mp4	0.0	109.40945100784302	1.000072956085205
19	85.37458491325378	pulse	0	t		17.0	2.5	/experiments/AOT/AOT_stimuli/rescaled_final/0362_rv.mp4	0.0	109.9926381111145	
19	85.7914707660675	movie	1		244	17.0	2.5	/experiments/AOT/AOT_stimuli/rescaled_final/0362_rv.mp4	0.0	110.40952396392822	2.5001962184906006
19	86.97459697723389	pulse	1	t		17.0	2.5	/experiments/AOT/AOT_stimuli/rescaled_final/0362_rv.mp4	0.0	111.5926501750946	
19	88.2916669845581	fix_post	2		12	17.0	2.5	/experiments/AOT/AOT_stimuli/rescaled_final/0362_rv.mp4	0.0	112.90972018241882	0.09974193572998047
20	88.39140892028809	fix_pre	0		120	18.0	2.5	/experiments/AOT/AOT_stimuli/rescaled_final/0294_fw.mp4	0.0	113.0094621181488	0.9990558624267578
20	88.57486176490784	pulse	0	t		18.0	2.5	/experiments/AOT/AOT_stimuli/rescaled_final/0294_fw.mp4	0.0	113.19291496276855	
20	89.39046478271484	movie	1		242	18.0	2.5	/experiments/AOT/AOT_stimuli/rescaled_final/0294_fw.mp4	0.0	114.00851798057556	2.5006110668182373
20	90.17442393302917	pulse	1	t		18.0	2.5	/experiments/AOT/AOT_stimuli/rescaled_final/0294_fw.mp4	0.0	114.79247713088989	
20	91.7733747959137	pulse	1	t		18.0	2.5	/experiments/AOT/AOT_stimuli/rescaled_final/0294_fw.mp4	0.0	116.39142799377441	
20	91.89107584953308	fix_post	2		12	18.0	2.5	/experiments/AOT/AOT_stimuli/rescaled_final/0294_fw.mp4	0.0	116.5091290473938	0.10036706924438477
21	91.99144291877747	fix_pre	0		120	19.0	2.5	/experiments/AOT/AOT_stimuli/rescaled_final/0760_fw.mp4	0.0	116.60949611663818	1.0000078678131104
21	92.99145078659058	movie	1		244	19.0	2.5	/experiments/AOT/AOT_stimuli/rescaled_final/0760_fw.mp4	0.0	117.6095039844513	2.499969005584717
21	93.37385892868042	pulse	1	t		19.0	2.5	/experiments/AOT/AOT_stimuli/rescaled_final/0760_fw.mp4	0.0	117.99191212654114	
21	94.9749608039856	pulse	1	t		19.0	2.5	/experiments/AOT/AOT_stimuli/rescaled_final/0760_fw.mp4	0.0	119.59301400184631	
21	95.4914197921753	fix_post	2		12	19.0	2.5	/experiments/AOT/AOT_stimuli/rescaled_final/0760_fw.mp4	0.0	120.10947299003601	0.10008406639099121
22	95.59150385856628	fix_pre	0		119	20.0	2.5	blank	1.0	120.209557056427	0.9915671348571777
22	96.57449197769165	pulse	0	t		20.0	2.5	blank	1.0	121.19254517555237	
22	96.58307099342346	movie	1		301	20.0	2.5	blank	1.0	121.20112419128418	2.5078659057617188
22	98.17450499534607	pulse	1	t		20.0	2.5	blank	1.0	122.79255819320679	
22	99.09093689918518	fix_post	2		12	20.0	2.5	blank	1.0	123.7089900970459	0.10043692588806152
23	99.19137382507324	fix_pre	0		120	21.0	2.5	/experiments/AOT/AOT_stimuli/rescaled_final/0587_rv.mp4	0.0	123.80942702293396	1.0000181198120117
23	99.77488994598389	pulse	0	t		21.0	2.5	/experiments/AOT/AOT_stimuli/rescaled_final/0587_rv.mp4	0.0	124.3929431438446	
23	100.19139194488525	movie	1		243	21.0	2.5	/experiments/AOT/AOT_stimuli/rescaled_final/0587_rv.mp4	0.0	124.80944514274597	2.499619960784912
23	101.37462091445923	pulse	1	t		21.0	2.5	/experiments/AOT/AOT_stimuli/rescaled_final/0587_rv.mp4	0.0	125.99267411231995	
23	102.69101190567017	fix_post	2		12	21.0	2.5	/experiments/AOT/AOT_stimuli/rescaled_final/0587_rv.mp4	0.0	127.30906510353088	0.10032200813293457
24	102.7913339138031	fix_pre	0		120	22.0	2.5	/experiments/AOT/AOT_stimuli/rescaled_final/0718_rv.mp4	0.0	127.40938711166382	1.0001580715179443
24	102.97487497329712	pulse	0	t		22.0	2.5	/experiments/AOT/AOT_stimuli/rescaled_final/0718_rv.mp4	0.0	127.59292817115784	
24	103.79149198532104	movie	1		242	22.0	2.5	/experiments/AOT/AOT_stimuli/rescaled_final/0718_rv.mp4	0.0	128.40954518318176	2.4998409748077393
24	104.57458186149597	pulse	1	t		22.0	2.5	/experiments/AOT/AOT_stimuli/rescaled_final/0718_rv.mp4	0.0	129.1926350593567	
24	106.17299485206604	pulse	1	t		22.0	2.5	/experiments/AOT/AOT_stimuli/rescaled_final/0718_rv.mp4	0.0	130.79104804992676	
24	106.29133296012878	fix_post	2		12	22.0	2.5	/experiments/AOT/AOT_stimuli/rescaled_final/0718_rv.mp4	0.0	130.9093861579895	0.0996849536895752
25	106.39101791381836	fix_pre	0		120	23.0	2.5	/experiments/AOT/AOT_stimuli/rescaled_final/1344_fw.mp4	0.0	131.00907111167908	0.9999918937683105
25	107.39100980758667	movie	1		243	23.0	2.5	/experiments/AOT/AOT_stimuli/rescaled_final/1344_fw.mp4	0.0	132.0090630054474	2.499993085861206
25	107.77427196502686	pulse	1	t		23.0	2.5	/experiments/AOT/AOT_stimuli/rescaled_final/1344_fw.mp4	0.0	132.39232516288757	
25	109.37480282783508	pulse	1	t		23.0	2.5	/experiments/AOT/AOT_stimuli/rescaled_final/1344_fw.mp4	0.0	133.9928560256958	
25	109.89100289344788	fix_post	2		12	23.0	2.5	/experiments/AOT/AOT_stimuli/rescaled_final/1344_fw.mp4	0.0	134.5090560913086	0.10027694702148438
26	109.99127984046936	fix_pre	0		119	24.0	2.5	/experiments/AOT/AOT_stimuli/rescaled_final/0525_rv.mp4	0.0	134.60933303833008	0.9913139343261719
26	110.97486877441406	pulse	0	t		24.0	2.5	/experiments/AOT/AOT_stimuli/rescaled_final/0525_rv.mp4	0.0	135.59292197227478	
26	110.98259377479553	movie	1		244	24.0	2.5	/experiments/AOT/AOT_stimuli/rescaled_final/0525_rv.mp4	0.0	135.60064697265625	2.5082530975341797
26	112.5743088722229	pulse	1	t		24.0	2.5	/experiments/AOT/AOT_stimuli/rescaled_final/0525_rv.mp4	0.0	137.19236207008362	
26	113.49084687232971	fix_post	2		12	24.0	2.5	/experiments/AOT/AOT_stimuli/rescaled_final/0525_rv.mp4	0.0	138.10890007019043	0.10014104843139648
27	113.59098792076111	fix_pre	0		120	25.0	2.5	/experiments/AOT/AOT_stimuli/rescaled_final/0309_fw.mp4	0.0	138.20904111862183	0.9999079704284668
27	114.17505478858948	pulse	0	t		25.0	2.5	/experiments/AOT/AOT_stimuli/rescaled_final/0309_fw.mp4	0.0	138.7931079864502	
27	114.59089589118958	movie	1		245	25.0	2.5	/experiments/AOT/AOT_stimuli/rescaled_final/0309_fw.mp4	0.0	139.2089490890503	2.5001089572906494
27	115.77447390556335	pulse	1	t		25.0	2.5	/experiments/AOT/AOT_stimuli/rescaled_final/0309_fw.mp4	0.0	140.39252710342407	
27	117.09100484848022	fix_post	2		12	25.0	2.5	/experiments/AOT/AOT_stimuli/rescaled_final/0309_fw.mp4	0.0	141.70905804634094	0.1003420352935791
28	117.1913468837738	fix_pre	0		120	26.0	2.5	blank	1.0	141.80940008163452	0.9999089241027832
28	117.37441778182983	pulse	0	t		26.0	2.5	blank	1.0	141.99247097969055	
28	118.19125580787659	movie	1		300	26.0	2.5	blank	1.0	142.8093090057373	2.5000171661376953
28	118.97435998916626	pulse	1	t		26.0	2.5	blank	1.0	143.59241318702698	
28	120.57427477836609	pulse	1	t		26.0	2.5	blank	1.0	145.1923279762268	
28	120.69127297401428	fix_post	2		12	26.0	2.5	blank	1.0	145.309326171875	0.0996098518371582
29	120.79088282585144	fix_pre	0		120	27.0	2.5	/experiments/AOT/AOT_stimuli/rescaled_final/0472_fw.mp4	0.0	145.40893602371216	1.000499963760376
29	121.79138278961182	movie	1		243	27.0	2.5	/experiments/AOT/AOT_stimuli/rescaled_final/0472_fw.mp4	0.0	146.40943598747253	2.499911069869995
29	122.1753408908844	pulse	1	t		27.0	2.5	/experiments/AOT/AOT_stimuli/rescaled_final/0472_fw.mp4	0.0	146.79339408874512	
29	123.77444291114807	pulse	1	t		27.0	2.5	/experiments/AOT/AOT_stimuli/rescaled_final/0472_fw.mp4	0.0	148.3924961090088	
29	124.29129385948181	fix_post	2		12	27.0	2.5	/experiments/AOT/AOT_stimuli/rescaled_final/0472_fw.mp4	0.0	148.90934705734253	0.10000395774841309
30	124.39129781723022	fix_pre	0		119	28.0	2.5	/experiments/AOT/AOT_stimuli/rescaled_final/0851_rv.mp4	0.0	149.00935101509094	0.9917550086975098
30	125.3749029636383	pulse	0	t		28.0	2.5	/experiments/AOT/AOT_stimuli/rescaled_final/0851_rv.mp4	0.0	149.99295616149902	
30	125.38305282592773	movie	1		243	28.0	2.5	/experiments/AOT/AOT_stimuli/rescaled_final/0851_rv.mp4	0.0	150.00110602378845	2.508291006088257
30	126.97457695007324	pulse	1	t		28.0	2.5	/experiments/AOT/AOT_stimuli/rescaled_final/0851_rv.mp4	0.0	151.59263014793396	
30	127.89134383201599	fix_post	2		12	28.0	2.5	/experiments/AOT/AOT_stimuli/rescaled_final/0851_rv.mp4	0.0	152.5093970298767	0.09993195533752441
31	127.99127578735352	fix_pre	0		120	29.0	2.5	/experiments/AOT/AOT_stimuli/rescaled_final/0164_rv.mp4	0.0	152.60932898521423	0.9994761943817139
31	128.57429194450378	pulse	0	t		29.0	2.5	/experiments/AOT/AOT_stimuli/rescaled_final/0164_rv.mp4	0.0	153.1923451423645	
31	128.99075198173523	movie	1		242	29.0	2.5	/experiments/AOT/AOT_stimuli/rescaled_final/0164_rv.mp4	0.0	153.60880517959595	2.5000078678131104
31	130.17486882209778	pulse	1	t		29.0	2.5	/experiments/AOT/AOT_stimuli/rescaled_final/0164_rv.mp4	0.0	154.7929220199585	
31	131.49075984954834	fix_post	2		12	29.0	2.5	/experiments/AOT/AOT_stimuli/rescaled_final/0164_rv.mp4	0.0	156.10881304740906	0.10010504722595215
32	131.5908648967743	fix_pre	0		120	30.0	2.5	/experiments/AOT/AOT_stimuli/rescaled_final/1803_fw.mp4	0.0	156.208918094635	1.0005650520324707
32	131.77441692352295	pulse	0	t		30.0	2.5	/experiments/AOT/AOT_stimuli/rescaled_final/1803_fw.mp4	0.0	156.39247012138367	
32	132.59142994880676	movie	1		242	30.0	2.5	/experiments/AOT/AOT_stimuli/rescaled_final/1803_fw.mp4	0.0	157.20948314666748	2.499379873275757
32	133.374351978302	pulse	1	t		30.0	2.5	/experiments/AOT/AOT_stimuli/rescaled_final/1803_fw.mp4	0.0	157.99240517616272	
32	134.97308778762817	pulse	1	t		30.0	2.5	/experiments/AOT/AOT_stimuli/rescaled_final/1803_fw.mp4	0.0	159.5911409854889	
32	135.09080982208252	fix_post	2		12	30.0	2.5	/experiments/AOT/AOT_stimuli/rescaled_final/1803_fw.mp4	0.0	159.70886301994324	0.10008811950683594
33	135.19089794158936	fix_pre	0		120	31.0	2.5	/experiments/AOT/AOT_stimuli/rescaled_final/1131_fw.mp4	0.0	159.80895113945007	0.9998948574066162
33	136.19079279899597	movie	1		244	31.0	2.5	/experiments/AOT/AOT_stimuli/rescaled_final/1131_fw.mp4	0.0	160.8088459968567	2.500491142272949
33	136.57402181625366	pulse	1	t		31.0	2.5	/experiments/AOT/AOT_stimuli/rescaled_final/1131_fw.mp4	0.0	161.19207501411438	
33	138.17427682876587	pulse	1	t		31.0	2.5	/experiments/AOT/AOT_stimuli/rescaled_final/1131_fw.mp4	0.0	162.7923300266266	
33	138.69128394126892	fix_post	2		12	31.0	2.5	/experiments/AOT/AOT_stimuli/rescaled_final/1131_fw.mp4	0.0	163.30933713912964	0.09946703910827637
34	138.7907509803772	fix_pre	0		119	32.0	2.5	/experiments/AOT/AOT_stimuli/rescaled_final/1707_fw.mp4	0.0	163.40880417823792	0.9917068481445312
34	139.77424788475037	pulse	0	t		32.0	2.5	/experiments/AOT/AOT_stimuli/rescaled_final/1707_fw.mp4	0.0	164.39230108261108	
34	139.78245782852173	movie	1		243	32.0	2.5	/experiments/AOT/AOT_stimuli/rescaled_final/1707_fw.mp4	0.0	164.40051102638245	2.508763074874878
34	141.3754439353943	pulse	1	t		32.0	2.5	/experiments/AOT/AOT_stimuli/rescaled_final/1707_fw.mp4	0.0	165.993497133255	
34	142.2912209033966	fix_post	2		12	32.0	2.5	/experiments/AOT/AOT_stimuli/rescaled_final/1707_fw.mp4	0.0	166.90927410125732	0.10006093978881836
35	142.39128184318542	fix_pre	0		120	33.0	2.5	/experiments/AOT/AOT_stimuli/rescaled_final/1202_fw.mp4	0.0	167.00933504104614	0.9999959468841553
35	142.9747679233551	pulse	0	t		33.0	2.5	/experiments/AOT/AOT_stimuli/rescaled_final/1202_fw.mp4	0.0	167.59282112121582	
35	143.39127779006958	movie	1		242	33.0	2.5	/experiments/AOT/AOT_stimuli/rescaled_final/1202_fw.mp4	0.0	168.0093309879303	2.4998831748962402
35	144.57433485984802	pulse	1	t		33.0	2.5	/experiments/AOT/AOT_stimuli/rescaled_final/1202_fw.mp4	0.0	169.19238805770874	
35	145.89116096496582	fix_post	2		12	33.0	2.5	/experiments/AOT/AOT_stimuli/rescaled_final/1202_fw.mp4	0.0	170.50921416282654	0.10002303123474121
36	145.99118399620056	fix_pre	0		120	34.0	2.5	blank	1.0	170.60923719406128	0.9999489784240723
36	146.17470979690552	pulse	0	t		34.0	2.5	blank	1.0	170.79276299476624	
36	146.99113297462463	movie	1		300	34.0	2.5	blank	1.0	171.60918617248535	2.5000948905944824
36	147.77462196350098	pulse	1	t		34.0	2.5	blank	1.0	172.3926751613617	
36	149.3746829032898	pulse	1	t		34.0	2.5	blank	1.0	173.9927361011505	
36	149.49122786521912	fix_post	2		12	34.0	2.5	blank	1.0	174.10928106307983	0.09999203681945801
37	149.59121990203857	fix_pre	0		120	35.0	2.5	/experiments/AOT/AOT_stimuli/rescaled_final/1643_rv.mp4	0.0	174.2092730998993	0.9995229244232178
37	150.5907428264618	movie	1		243	35.0	2.5	/experiments/AOT/AOT_stimuli/rescaled_final/1643_rv.mp4	0.0	175.2087960243225	2.5003621578216553
37	150.9739739894867	pulse	1	t		35.0	2.5	/experiments/AOT/AOT_stimuli/rescaled_final/1643_rv.mp4	0.0	175.5920271873474	
37	152.5742118358612	pulse	1	t		35.0	2.5	/experiments/AOT/AOT_stimuli/rescaled_final/1643_rv.mp4	0.0	177.19226503372192	
37	153.09110498428345	fix_post	2		12	35.0	2.5	/experiments/AOT/AOT_stimuli/rescaled_final/1643_rv.mp4	0.0	177.70915818214417	0.10003399848937988
38	153.19113898277283	fix_pre	0		119	36.0	2.5	/experiments/AOT/AOT_stimuli/rescaled_final/0257_fw.mp4	0.0	177.80919218063354	0.9912259578704834
38	154.1740598678589	pulse	0	t		36.0	2.5	/experiments/AOT/AOT_stimuli/rescaled_final/0257_fw.mp4	0.0	178.7921130657196	
38	154.1823649406433	movie	1		242	36.0	2.5	/experiments/AOT/AOT_stimuli/rescaled_final/0257_fw.mp4	0.0	178.80041813850403	2.5068979263305664
38	155.7738618850708	pulse	1	t		36.0	2.5	/experiments/AOT/AOT_stimuli/rescaled_final/0257_fw.mp4	0.0	180.39191508293152	
38	156.68926286697388	fix_post	2		12	36.0	2.5	/experiments/AOT/AOT_stimuli/rescaled_final/0257_fw.mp4	0.0	181.3073160648346	0.10152101516723633
39	156.7907838821411	fix_pre	0		120	37.0	2.5	/experiments/AOT/AOT_stimuli/rescaled_final/1894_fw.mp4	0.0	181.40883708000183	1.00028395652771
39	157.3743028640747	pulse	0	t		37.0	2.5	/experiments/AOT/AOT_stimuli/rescaled_final/1894_fw.mp4	0.0	181.99235606193542	
39	157.79106783866882	movie	1		244	37.0	2.5	/experiments/AOT/AOT_stimuli/rescaled_final/1894_fw.mp4	0.0	182.40912103652954	2.4996299743652344
39	158.97368597984314	pulse	1	t		37.0	2.5	/experiments/AOT/AOT_stimuli/rescaled_final/1894_fw.mp4	0.0	183.59173917770386	
39	160.29069781303406	fix_post	2		12	37.0	2.5	/experiments/AOT/AOT_stimuli/rescaled_final/1894_fw.mp4	0.0	184.90875101089478	0.09948205947875977
40	160.39017987251282	fix_pre	0		120	38.0	2.5	/experiments/AOT/AOT_stimuli/rescaled_final/1277_rv.mp4	0.0	185.00823307037354	1.0008490085601807
40	160.57458877563477	pulse	0	t		38.0	2.5	/experiments/AOT/AOT_stimuli/rescaled_final/1277_rv.mp4	0.0	185.19264197349548	
40	161.391028881073	movie	1		243	38.0	2.5	/experiments/AOT/AOT_stimuli/rescaled_final/1277_rv.mp4	0.0	186.00908207893372	2.5000829696655273
40	162.17416787147522	pulse	1	t		38.0	2.5	/experiments/AOT/AOT_stimuli/rescaled_final/1277_rv.mp4	0.0	186.79222106933594	
40	163.77117085456848	pulse	1	t		38.0	2.5	/experiments/AOT/AOT_stimuli/rescaled_final/1277_rv.mp4	0.0	188.3892240524292	
40	163.89111185073853	fix_post	2		12	38.0	2.5	/experiments/AOT/AOT_stimuli/rescaled_final/1277_rv.mp4	0.0	188.50916504859924	0.09991097450256348
41	163.9910228252411	fix_pre	0		120	39.0	2.5	/experiments/AOT/AOT_stimuli/rescaled_final/0470_rv.mp4	0.0	188.6090760231018	0.999683141708374
41	164.99070596694946	movie	1		243	39.0	2.5	/experiments/AOT/AOT_stimuli/rescaled_final/0470_rv.mp4	0.0	189.60875916481018	2.5002589225769043
41	165.37453293800354	pulse	1	t		39.0	2.5	/experiments/AOT/AOT_stimuli/rescaled_final/0470_rv.mp4	0.0	189.99258613586426	
41	166.97465991973877	pulse	1	t		39.0	2.5	/experiments/AOT/AOT_stimuli/rescaled_final/0470_rv.mp4	0.0	191.5927131175995	
41	167.49096488952637	fix_post	2		12	39.0	2.5	/experiments/AOT/AOT_stimuli/rescaled_final/0470_rv.mp4	0.0	192.10901808738708	0.0997920036315918
42	167.59075689315796	fix_pre	0		119	40.0	2.5	/experiments/AOT/AOT_stimuli/rescaled_final/0466_rv.mp4	0.0	192.20881009101868	0.9910039901733398
42	168.57452583312988	pulse	0	t		40.0	2.5	/experiments/AOT/AOT_stimuli/rescaled_final/0466_rv.mp4	0.0	193.1925790309906	
42	168.5817608833313	movie	1		244	40.0	2.5	/experiments/AOT/AOT_stimuli/rescaled_final/0466_rv.mp4	0.0	193.19981408119202	2.5089240074157715
42	170.17360997200012	pulse	1	t		40.0	2.5	/experiments/AOT/AOT_stimuli/rescaled_final/0466_rv.mp4	0.0	194.79166316986084	
42	171.09068489074707	fix_post	2		12	40.0	2.5	/experiments/AOT/AOT_stimuli/rescaled_final/0466_rv.mp4	0.0	195.7087380886078	0.09989094734191895
43	171.190575838089	fix_pre	0		120	41.0	2.5	/experiments/AOT/AOT_stimuli/rescaled_final/0291_rv.mp4	0.0	195.8086290359497	0.9999711513519287
43	171.77446484565735	pulse	0	t		41.0	2.5	/experiments/AOT/AOT_stimuli/rescaled_final/0291_rv.mp4	0.0	196.39251804351807	
43	172.19054698944092	movie	1		245	41.0	2.5	/experiments/AOT/AOT_stimuli/rescaled_final/0291_rv.mp4	0.0	196.80860018730164	2.5000557899475098
43	173.37419486045837	pulse	1	t		41.0	2.5	/experiments/AOT/AOT_stimuli/rescaled_final/0291_rv.mp4	0.0	197.9922480583191	
43	174.69060277938843	fix_post	2		12	41.0	2.5	/experiments/AOT/AOT_stimuli/rescaled_final/0291_rv.mp4	0.0	199.30865597724915	0.10039305686950684
44	174.79099583625793	fix_pre	0		120	42.0	2.5	blank	1.0	199.40904903411865	1.000040054321289
44	174.9741609096527	pulse	0	t		42.0	2.5	blank	1.0	199.59221410751343	
44	175.79103589057922	movie	1		300	42.0	2.5	blank	1.0	200.40908908843994	2.4996750354766846
44	176.57452392578125	pulse	1	t		42.0	2.5	blank	1.0	201.19257712364197	
44	178.17410898208618	pulse	1	t		42.0	2.5	blank	1.0	202.7921621799469	
44	178.2907109260559	fix_post	2		12	42.0	2.5	blank	1.0	202.90876412391663	0.09983086585998535
45	178.3905417919159	fix_pre	0		120	43.0	2.5	/experiments/AOT/AOT_stimuli/rescaled_final/0568_fw.mp4	0.0	203.0085949897766	1.0000190734863281
45	179.39056086540222	movie	1		242	43.0	2.5	/experiments/AOT/AOT_stimuli/rescaled_final/0568_fw.mp4	0.0	204.00861406326294	2.5001380443573
45	179.7744529247284	pulse	1	t		43.0	2.5	/experiments/AOT/AOT_stimuli/rescaled_final/0568_fw.mp4	0.0	204.3925061225891	
45	181.3746039867401	pulse	1	t		43.0	2.5	/experiments/AOT/AOT_stimuli/rescaled_final/0568_fw.mp4	0.0	205.99265718460083	
45	181.89069890975952	fix_post	2		12	43.0	2.5	/experiments/AOT/AOT_stimuli/rescaled_final/0568_fw.mp4	0.0	206.50875210762024	0.10066103935241699
46	181.99135994911194	fix_pre	0		119	44.0	2.5	/experiments/AOT/AOT_stimuli/rescaled_final/1372_fw.mp4	0.0	206.60941314697266	0.991610050201416
46	182.9744369983673	pulse	0	t		44.0	2.5	/experiments/AOT/AOT_stimuli/rescaled_final/1372_fw.mp4	0.0	207.59249019622803	
46	182.98296999931335	movie	1		244	44.0	2.5	/experiments/AOT/AOT_stimuli/rescaled_final/1372_fw.mp4	0.0	207.60102319717407	2.50795578956604
46	184.57509398460388	pulse	1	t		44.0	2.5	/experiments/AOT/AOT_stimuli/rescaled_final/1372_fw.mp4	0.0	209.1931471824646	
46	185.4909257888794	fix_post	2		12	44.0	2.5	/experiments/AOT/AOT_stimuli/rescaled_final/1372_fw.mp4	0.0	210.1089789867401	0.09896206855773926
47	185.58988785743713	fix_pre	0		120	45.0	2.5	/experiments/AOT/AOT_stimuli/rescaled_final/0962_fw.mp4	0.0	210.20794105529785	1.001039981842041
47	186.1731457710266	pulse	0	t		45.0	2.5	/experiments/AOT/AOT_stimuli/rescaled_final/0962_fw.mp4	0.0	210.79119896888733	
47	186.59092783927917	movie	1		244	45.0	2.5	/experiments/AOT/AOT_stimuli/rescaled_final/0962_fw.mp4	0.0	211.2089810371399	2.498767137527466
47	187.7734718322754	pulse	1	t		45.0	2.5	/experiments/AOT/AOT_stimuli/rescaled_final/0962_fw.mp4	0.0	212.3915250301361	
47	189.08969497680664	fix_post	2		12	45.0	2.5	/experiments/AOT/AOT_stimuli/rescaled_final/0962_fw.mp4	0.0	213.70774817466736	0.09990191459655762
48	189.1895968914032	fix_pre	0		120	46.0	2.5	/experiments/AOT/AOT_stimuli/rescaled_final/0615_rv.mp4	0.0	213.80765008926392	1.0009169578552246
48	189.3744239807129	pulse	0	t		46.0	2.5	/experiments/AOT/AOT_stimuli/rescaled_final/0615_rv.mp4	0.0	213.9924771785736	
48	190.19051384925842	movie	1		242	46.0	2.5	/experiments/AOT/AOT_stimuli/rescaled_final/0615_rv.mp4	0.0	214.80856704711914	2.4991230964660645
48	190.9730098247528	pulse	1	t		46.0	2.5	/experiments/AOT/AOT_stimuli/rescaled_final/0615_rv.mp4	0.0	215.59106302261353	
48	192.57350397109985	pulse	1	t		46.0	2.5	/experiments/AOT/AOT_stimuli/rescaled_final/0615_rv.mp4	0.0	217.19155716896057	
48	192.6896369457245	fix_post	2		12	46.0	2.5	/experiments/AOT/AOT_stimuli/rescaled_final/0615_rv.mp4	0.0	217.3076901435852	0.10131192207336426
49	192.79094886779785	fix_pre	0		120	47.0	2.5	/experiments/AOT/AOT_stimuli/rescaled_final/0049_rv.mp4	0.0	217.40900206565857	0.9986801147460938
49	193.78962898254395	movie	1		243	47.0	2.5	/experiments/AOT/AOT_stimuli/rescaled_final/0049_rv.mp4	0.0	218.40768218040466	2.500333786010742
49	194.17325091362	pulse	1	t		47.0	2.5	/experiments/AOT/AOT_stimuli/rescaled_final/0049_rv.mp4	0.0	218.7913041114807	
49	195.77317094802856	pulse	1	t		47.0	2.5	/experiments/AOT/AOT_stimuli/rescaled_final/0049_rv.mp4	0.0	220.39122414588928	
49	196.2899627685547	fix_post	2		12	47.0	2.5	/experiments/AOT/AOT_stimuli/rescaled_final/0049_rv.mp4	0.0	220.9080159664154	0.09959721565246582
50	196.38955998420715	fix_pre	0		119	48.0	2.5	/experiments/AOT/AOT_stimuli/rescaled_final/0811_fw.mp4	0.0	221.00761318206787	0.9921159744262695
50	197.37434482574463	pulse	0	t		48.0	2.5	/experiments/AOT/AOT_stimuli/rescaled_final/0811_fw.mp4	0.0	221.99239802360535	
50	197.38167595863342	movie	1		245	48.0	2.5	/experiments/AOT/AOT_stimuli/rescaled_final/0811_fw.mp4	0.0	221.99972915649414	2.5078768730163574
50	198.97322297096252	pulse	1	t		48.0	2.5	/experiments/AOT/AOT_stimuli/rescaled_final/0811_fw.mp4	0.0	223.59127616882324	
50	199.88955283164978	fix_post	2		12	48.0	2.5	/experiments/AOT/AOT_stimuli/rescaled_final/0811_fw.mp4	0.0	224.5076060295105	0.10000395774841309
51	199.9895567893982	fix_pre	0		120	49.0	2.5	blank	1.0	224.6076099872589	1.0000391006469727
51	200.57337594032288	pulse	0	t		49.0	2.5	blank	1.0	225.1914291381836	
51	200.98959589004517	movie	1		300	49.0	2.5	blank	1.0	225.60764908790588	2.4999759197235107
51	202.173113822937	pulse	1	t		49.0	2.5	blank	1.0	226.79116702079773	
51	203.48957180976868	fix_post	2		12	49.0	2.5	blank	1.0	228.1076250076294	0.10022997856140137
52	203.58980178833008	fix_pre	0		120	50.0	2.5	/experiments/AOT/AOT_stimuli/rescaled_final/2158_fw.mp4	0.0	228.2078549861908	1.0001740455627441
52	203.77311491966248	pulse	0	t		50.0	2.5	/experiments/AOT/AOT_stimuli/rescaled_final/2158_fw.mp4	0.0	228.3911681175232	
52	204.58997583389282	movie	1		242	50.0	2.5	/experiments/AOT/AOT_stimuli/rescaled_final/2158_fw.mp4	0.0	229.20802903175354	2.4995620250701904
52	205.37347292900085	pulse	1	t		50.0	2.5	/experiments/AOT/AOT_stimuli/rescaled_final/2158_fw.mp4	0.0	229.99152612686157	
52	206.9711549282074	pulse	1	t		50.0	2.5	/experiments/AOT/AOT_stimuli/rescaled_final/2158_fw.mp4	0.0	231.58920812606812	
52	207.089537858963	fix_post	2		12	50.0	2.5	/experiments/AOT/AOT_stimuli/rescaled_final/2158_fw.mp4	0.0	231.70759105682373	0.1004180908203125
53	207.18995594978333	fix_pre	0		120	51.0	2.5	/experiments/AOT/AOT_stimuli/rescaled_final/1707_fw.mp4	0.0	231.80800914764404	0.999647855758667
53	208.189603805542	movie	1		243	51.0	2.5	/experiments/AOT/AOT_stimuli/rescaled_final/1707_fw.mp4	0.0	232.8076570034027	2.4994521141052246
53	208.5736119747162	pulse	1	t		51.0	2.5	/experiments/AOT/AOT_stimuli/rescaled_final/1707_fw.mp4	0.0	233.1916651725769	
53	210.17250084877014	pulse	1	t		51.0	2.5	/experiments/AOT/AOT_stimuli/rescaled_final/1707_fw.mp4	0.0	234.79055404663086	
53	210.68905591964722	fix_post	2		12	51.0	2.5	/experiments/AOT/AOT_stimuli/rescaled_final/1707_fw.mp4	0.0	235.30710911750793	0.10049200057983398
54	210.78954792022705	fix_pre	0		119	52.0	2.5	/experiments/AOT/AOT_stimuli/rescaled_final/2003_rv.mp4	0.0	235.40760111808777	0.9919960498809814
54	211.77338790893555	pulse	0	t		52.0	2.5	/experiments/AOT/AOT_stimuli/rescaled_final/2003_rv.mp4	0.0	236.39144110679626	
54	211.78154397010803	movie	1		247	52.0	2.5	/experiments/AOT/AOT_stimuli/rescaled_final/2003_rv.mp4	0.0	236.39959716796875	2.5074589252471924
54	213.3724148273468	pulse	1	t		52.0	2.5	/experiments/AOT/AOT_stimuli/rescaled_final/2003_rv.mp4	0.0	237.99046802520752	
54	214.28900289535522	fix_post	2		12	52.0	2.5	/experiments/AOT/AOT_stimuli/rescaled_final/2003_rv.mp4	0.0	238.90705609321594	0.09999299049377441
55	214.388995885849	fix_pre	0		120	53.0	2.5	/experiments/AOT/AOT_stimuli/rescaled_final/0291_fw.mp4	0.0	239.00704908370972	1.0009510517120361
55	214.9724998474121	pulse	0	t		53.0	2.5	/experiments/AOT/AOT_stimuli/rescaled_final/0291_fw.mp4	0.0	239.59055304527283	
55	215.38994693756104	movie	1		248	53.0	2.5	/experiments/AOT/AOT_stimuli/rescaled_final/0291_fw.mp4	0.0	240.00800013542175	2.4998788833618164
55	216.5725028514862	pulse	1	t		53.0	2.5	/experiments/AOT/AOT_stimuli/rescaled_final/0291_fw.mp4	0.0	241.19055604934692	
55	217.88982582092285	fix_post	2		12	53.0	2.5	/experiments/AOT/AOT_stimuli/rescaled_final/0291_fw.mp4	0.0	242.50787901878357	0.09911608695983887
56	217.9889419078827	fix_pre	0		120	54.0	2.5	blank	1.0	242.6069951057434	1.0000519752502441
56	218.17287683486938	pulse	0	t		54.0	2.5	blank	1.0	242.7909300327301	
56	218.98899388313293	movie	1		300	54.0	2.5	blank	1.0	243.60704708099365	2.499959945678711
56	219.7724609375	pulse	1	t		54.0	2.5	blank	1.0	244.39051413536072	
56	221.3725447654724	pulse	1	t		54.0	2.5	blank	1.0	245.99059796333313	
56	221.48895382881165	fix_post	2		12	54.0	2.5	blank	1.0	246.10700702667236	0.10098695755004883
57	221.5899407863617	fix_pre	0		120	55.0	2.5	/experiments/AOT/AOT_stimuli/rescaled_final/1480_rv.mp4	0.0	246.2079939842224	0.9999651908874512
57	222.58990597724915	movie	1		247	55.0	2.5	/experiments/AOT/AOT_stimuli/rescaled_final/1480_rv.mp4	0.0	247.20795917510986	2.4990978240966797
57	222.97295999526978	pulse	1	t		55.0	2.5	/experiments/AOT/AOT_stimuli/rescaled_final/1480_rv.mp4	0.0	247.5910131931305	
57	224.5732879638672	pulse	1	t		55.0	2.5	/experiments/AOT/AOT_stimuli/rescaled_final/1480_rv.mp4	0.0	249.1913411617279	
57	225.08900380134583	fix_post	2		12	55.0	2.5	/experiments/AOT/AOT_stimuli/rescaled_final/1480_rv.mp4	0.0	249.70705699920654	0.09995412826538086
58	225.1889579296112	fix_pre	0		119	56.0	2.5	/experiments/AOT/AOT_stimuli/rescaled_final/1247_rv.mp4	0.0	249.80701112747192	0.9930670261383057
58	226.1737198829651	pulse	0	t		56.0	2.5	/experiments/AOT/AOT_stimuli/rescaled_final/1247_rv.mp4	0.0	250.7917730808258	
58	226.1820249557495	movie	1		247	56.0	2.5	/experiments/AOT/AOT_stimuli/rescaled_final/1247_rv.mp4	0.0	250.80007815361023	2.5082428455352783
58	227.7745749950409	pulse	1	t		56.0	2.5	/experiments/AOT/AOT_stimuli/rescaled_final/1247_rv.mp4	0.0	252.3926281929016	
58	228.6902678012848	fix_post	2		12	56.0	2.5	/experiments/AOT/AOT_stimuli/rescaled_final/1247_rv.mp4	0.0	253.3083209991455	0.10049819946289062
59	228.79076600074768	fix_pre	0		120	57.0	2.5	/experiments/AOT/AOT_stimuli/rescaled_final/0037_rv.mp4	0.0	253.4088191986084	0.999553918838501
59	229.37376284599304	pulse	0	t		57.0	2.5	/experiments/AOT/AOT_stimuli/rescaled_final/0037_rv.mp4	0.0	253.99181604385376	
59	229.79031991958618	movie	1		248	57.0	2.5	/experiments/AOT/AOT_stimuli/rescaled_final/0037_rv.mp4	0.0	254.4083731174469	2.5000569820404053
59	230.97394394874573	pulse	1	t		57.0	2.5	/experiments/AOT/AOT_stimuli/rescaled_final/0037_rv.mp4	0.0	255.59199714660645	
59	232.2903769016266	fix_post	2		12	57.0	2.5	/experiments/AOT/AOT_stimuli/rescaled_final/0037_rv.mp4	0.0	256.9084300994873	0.0999748706817627
60	232.39035177230835	fix_pre	0		120	58.0	2.5	/experiments/AOT/AOT_stimuli/rescaled_final/2108_rv.mp4	0.0	257.00840497016907	1.0004010200500488
60	232.57423996925354	pulse	0	t		58.0	2.5	/experiments/AOT/AOT_stimuli/rescaled_final/2108_rv.mp4	0.0	257.19229316711426	
60	233.3907527923584	movie	1		247	58.0	2.5	/experiments/AOT/AOT_stimuli/rescaled_final/2108_rv.mp4	0.0	258.0088059902191	2.500030994415283
60	234.17376279830933	pulse	1	t		58.0	2.5	/experiments/AOT/AOT_stimuli/rescaled_final/2108_rv.mp4	0.0	258.79181599617004	
60	235.77423787117004	pulse	1	t		58.0	2.5	/experiments/AOT/AOT_stimuli/rescaled_final/2108_rv.mp4	0.0	260.39229106903076	
60	235.89078378677368	fix_post	2		12	58.0	2.5	/experiments/AOT/AOT_stimuli/rescaled_final/2108_rv.mp4	0.0	260.5088369846344	0.09998011589050293
61	235.99076390266418	fix_pre	0		120	59.0	2.5	/experiments/AOT/AOT_stimuli/rescaled_final/0289_rv.mp4	0.0	260.6088171005249	1.0000638961791992
61	236.99082779884338	movie	1		247	59.0	2.5	/experiments/AOT/AOT_stimuli/rescaled_final/0289_rv.mp4	0.0	261.6088809967041	2.499408006668091
61	237.37363290786743	pulse	1	t		59.0	2.5	/experiments/AOT/AOT_stimuli/rescaled_final/0289_rv.mp4	0.0	261.99168610572815	
61	238.9741849899292	pulse	1	t		59.0	2.5	/experiments/AOT/AOT_stimuli/rescaled_final/0289_rv.mp4	0.0	263.5922381877899	
61	239.49023580551147	fix_post	2		12	59.0	2.5	/experiments/AOT/AOT_stimuli/rescaled_final/0289_rv.mp4	0.0	264.1082890033722	0.10048913955688477
62	239.59072494506836	fix_pre	0		119	60.0	2.5	/experiments/AOT/AOT_stimuli/rescaled_final/0549_fw.mp4	0.0	264.2087781429291	0.9911708831787109
62	240.5737738609314	pulse	0	t		60.0	2.5	/experiments/AOT/AOT_stimuli/rescaled_final/0549_fw.mp4	0.0	265.1918270587921	
62	240.58189582824707	movie	1		245	60.0	2.5	/experiments/AOT/AOT_stimuli/rescaled_final/0549_fw.mp4	0.0	265.1999490261078	2.508430004119873
62	242.17361879348755	pulse	1	t		60.0	2.5	/experiments/AOT/AOT_stimuli/rescaled_final/0549_fw.mp4	0.0	266.79167199134827	
62	243.09032583236694	fix_post	2		12	60.0	2.5	/experiments/AOT/AOT_stimuli/rescaled_final/0549_fw.mp4	0.0	267.70837903022766	0.10033106803894043
63	243.19065690040588	fix_pre	0		120	61.0	2.5	blank	1.0	267.8087100982666	0.9996249675750732
63	243.77405881881714	pulse	0	t		61.0	2.5	blank	1.0	268.39211201667786	
63	244.19028186798096	movie	1		300	61.0	2.5	blank	1.0	268.8083350658417	2.5000269412994385
63	245.37415981292725	pulse	1	t		61.0	2.5	blank	1.0	269.99221301078796	
63	246.6903088092804	fix_post	2		12	61.0	2.5	blank	1.0	271.3083620071411	0.10032415390014648
64	246.79063296318054	fix_pre	0		120	62.0	2.5	/experiments/AOT/AOT_stimuli/rescaled_final/2108_fw.mp4	0.0	271.40868616104126	1.0001389980316162
64	246.9741587638855	pulse	0	t		62.0	2.5	/experiments/AOT/AOT_stimuli/rescaled_final/2108_fw.mp4	0.0	271.5922119617462	
64	247.79077196121216	movie	1		247	62.0	2.5	/experiments/AOT/AOT_stimuli/rescaled_final/2108_fw.mp4	0.0	272.4088251590729	2.4993720054626465
64	248.57368183135986	pulse	1	t		62.0	2.5	/experiments/AOT/AOT_stimuli/rescaled_final/2108_fw.mp4	0.0	273.1917350292206	
64	250.17371797561646	pulse	1	t		62.0	2.5	/experiments/AOT/AOT_stimuli/rescaled_final/2108_fw.mp4	0.0	274.7917711734772	
64	250.2901439666748	fix_post	2		12	62.0	2.5	/experiments/AOT/AOT_stimuli/rescaled_final/2108_fw.mp4	0.0	274.9081971645355	0.10026693344116211
65	250.39041090011597	fix_pre	0		120	63.0	2.5	/experiments/AOT/AOT_stimuli/rescaled_final/0464_fw.mp4	0.0	275.0084640979767	1.000330924987793
65	251.39074182510376	movie	1		246	63.0	2.5	/experiments/AOT/AOT_stimuli/rescaled_final/0464_fw.mp4	0.0	276.0087950229645	2.499925136566162
65	251.77362990379333	pulse	1	t		63.0	2.5	/experiments/AOT/AOT_stimuli/rescaled_final/0464_fw.mp4	0.0	276.39168310165405	
65	253.3736538887024	pulse	1	t		63.0	2.5	/experiments/AOT/AOT_stimuli/rescaled_final/0464_fw.mp4	0.0	277.9917070865631	
65	253.89066696166992	fix_post	2		12	63.0	2.5	/experiments/AOT/AOT_stimuli/rescaled_final/0464_fw.mp4	0.0	278.50872015953064	0.09959793090820312
66	253.99026489257812	fix_pre	0		119	64.0	2.5	/experiments/AOT/AOT_stimuli/rescaled_final/1015_rv.mp4	0.0	278.60831809043884	0.9921128749847412
66	254.9736659526825	pulse	0	t		64.0	2.5	/experiments/AOT/AOT_stimuli/rescaled_final/1015_rv.mp4	0.0	279.5917191505432	
66	254.98237776756287	movie	1		247	64.0	2.5	/experiments/AOT/AOT_stimuli/rescaled_final/1015_rv.mp4	0.0	279.6004309654236	2.507916212081909
66	256.57346081733704	pulse	1	t		64.0	2.5	/experiments/AOT/AOT_stimuli/rescaled_final/1015_rv.mp4	0.0	281.19151401519775	
66	257.4902939796448	fix_post	2		12	64.0	2.5	/experiments/AOT/AOT_stimuli/rescaled_final/1015_rv.mp4	0.0	282.1083471775055	0.09982085227966309
67	257.59011483192444	fix_pre	0		120	65.0	2.5	/experiments/AOT/AOT_stimuli/rescaled_final/0755_fw.mp4	0.0	282.20816802978516	0.9999921321868896
67	258.1736078262329	pulse	0	t		65.0	2.5	/experiments/AOT/AOT_stimuli/rescaled_final/0755_fw.mp4	0.0	282.7916610240936	
67	258.5901069641113	movie	1		247	65.0	2.5	/experiments/AOT/AOT_stimuli/rescaled_final/0755_fw.mp4	0.0	283.20816016197205	2.499987840652466
67	259.77372694015503	pulse	1	t		65.0	2.5	/experiments/AOT/AOT_stimuli/rescaled_final/0755_fw.mp4	0.0	284.39178013801575	
67	261.0900948047638	fix_post	2		12	65.0	2.5	/experiments/AOT/AOT_stimuli/rescaled_final/0755_fw.mp4	0.0	285.7081480026245	0.10046505928039551
68	261.1905598640442	fix_pre	0		120	66.0	2.5	/experiments/AOT/AOT_stimuli/rescaled_final/0862_fw.mp4	0.0	285.8086130619049	0.999608039855957
68	261.374223947525	pulse	0	t		66.0	2.5	/experiments/AOT/AOT_stimuli/rescaled_final/0862_fw.mp4	0.0	285.99227714538574	
68	262.19016790390015	movie	1		245	66.0	2.5	/experiments/AOT/AOT_stimuli/rescaled_final/0862_fw.mp4	0.0	286.80822110176086	2.5000240802764893
68	262.97374176979065	pulse	1	t		66.0	2.5	/experiments/AOT/AOT_stimuli/rescaled_final/0862_fw.mp4	0.0	287.59179496765137	
68	264.573618888855	pulse	1	t		66.0	2.5	/experiments/AOT/AOT_stimuli/rescaled_final/0862_fw.mp4	0.0	289.1916720867157	
68	264.69019198417664	fix_post	2		12	66.0	2.5	/experiments/AOT/AOT_stimuli/rescaled_final/0862_fw.mp4	0.0	289.30824518203735	0.10034990310668945
69	264.7905418872833	fix_pre	0		120	67.0	2.5	/experiments/AOT/AOT_stimuli/rescaled_final/1599_fw.mp4	0.0	289.40859508514404	0.9999508857727051
69	265.79049277305603	movie	1		245	67.0	2.5	/experiments/AOT/AOT_stimuli/rescaled_final/1599_fw.mp4	0.0	290.40854597091675	2.500063180923462
69	266.1735508441925	pulse	1	t		67.0	2.5	/experiments/AOT/AOT_stimuli/rescaled_final/1599_fw.mp4	0.0	290.7916040420532	
69	267.77358198165894	pulse	1	t		67.0	2.5	/experiments/AOT/AOT_stimuli/rescaled_final/1599_fw.mp4	0.0	292.39163517951965	
69	268.2905559539795	fix_post	2		12	67.0	2.5	/experiments/AOT/AOT_stimuli/rescaled_final/1599_fw.mp4	0.0	292.9086091518402	0.09958100318908691
70	268.3901369571686	fix_pre	0		119	68.0	2.5	/experiments/AOT/AOT_stimuli/rescaled_final/0867_fw.mp4	0.0	293.0081901550293	0.9916598796844482
70	269.3735828399658	pulse	0	t		68.0	2.5	/experiments/AOT/AOT_stimuli/rescaled_final/0867_fw.mp4	0.0	293.99163603782654	
70	269.381796836853	movie	1		245	68.0	2.5	/experiments/AOT/AOT_stimuli/rescaled_final/0867_fw.mp4	0.0	293.99985003471375	2.5083110332489014
70	270.9737379550934	pulse	1	t		68.0	2.5	/experiments/AOT/AOT_stimuli/rescaled_final/0867_fw.mp4	0.0	295.5917911529541	
70	271.89010787010193	fix_post	2		12	68.0	2.5	/experiments/AOT/AOT_stimuli/rescaled_final/0867_fw.mp4	0.0	296.50816106796265	0.1005859375
71	271.99069380760193	fix_pre	0		120	69.0	2.5	/experiments/AOT/AOT_stimuli/rescaled_final/1239_fw.mp4	0.0	296.60874700546265	0.9998221397399902
71	272.5740919113159	pulse	0	t		69.0	2.5	/experiments/AOT/AOT_stimuli/rescaled_final/1239_fw.mp4	0.0	297.19214510917664	
71	272.9905159473419	movie	1		246	69.0	2.5	/experiments/AOT/AOT_stimuli/rescaled_final/1239_fw.mp4	0.0	297.60856914520264	2.5000619888305664
71	274.173752784729	pulse	1	t		69.0	2.5	/experiments/AOT/AOT_stimuli/rescaled_final/1239_fw.mp4	0.0	298.7918059825897	
71	275.4905779361725	fix_post	2		12	69.0	2.5	/experiments/AOT/AOT_stimuli/rescaled_final/1239_fw.mp4	0.0	300.1086311340332	0.09955191612243652
72	275.5901298522949	fix_pre	0		120	70.0	2.5	blank	1.0	300.20818305015564	1.0003819465637207
72	275.77363681793213	pulse	0	t		70.0	2.5	blank	1.0	300.39169001579285	
72	276.59051179885864	movie	1		300	70.0	2.5	blank	1.0	301.20856499671936	2.5000481605529785
72	277.3739638328552	pulse	1	t		70.0	2.5	blank	1.0	301.99201703071594	
72	278.97390699386597	pulse	1	t		70.0	2.5	blank	1.0	303.5919601917267	
72	279.0905599594116	fix_post	2		12	70.0	2.5	blank	1.0	303.70861315727234	0.0994420051574707
73	279.1900019645691	fix_pre	0		120	71.0	2.5	/experiments/AOT/AOT_stimuli/rescaled_final/1056_fw.mp4	0.0	303.8080551624298	1.0004630088806152
73	280.1904649734497	movie	1		244	71.0	2.5	/experiments/AOT/AOT_stimuli/rescaled_final/1056_fw.mp4	0.0	304.8085181713104	2.499943971633911
73	280.5743589401245	pulse	1	t		71.0	2.5	/experiments/AOT/AOT_stimuli/rescaled_final/1056_fw.mp4	0.0	305.19241213798523	
73	282.1735827922821	pulse	1	t		71.0	2.5	/experiments/AOT/AOT_stimuli/rescaled_final/1056_fw.mp4	0.0	306.7916359901428	
73	282.6904089450836	fix_post	2		12	71.0	2.5	/experiments/AOT/AOT_stimuli/rescaled_final/1056_fw.mp4	0.0	307.30846214294434	0.0996408462524414
74	282.79004979133606	fix_pre	0		119	72.0	2.5	/experiments/AOT/AOT_stimuli/rescaled_final/1472_fw.mp4	0.0	307.4081029891968	0.9916410446166992
74	283.77388191223145	pulse	0	t		72.0	2.5	/experiments/AOT/AOT_stimuli/rescaled_final/1472_fw.mp4	0.0	308.39193511009216	
74	283.78169083595276	movie	1		245	72.0	2.5	/experiments/AOT/AOT_stimuli/rescaled_final/1472_fw.mp4	0.0	308.3997440338135	2.5083720684051514
74	285.3745629787445	pulse	1	t		72.0	2.5	/experiments/AOT/AOT_stimuli/rescaled_final/1472_fw.mp4	0.0	309.9926161766052	
74	286.2900629043579	fix_post	2		12	72.0	2.5	/experiments/AOT/AOT_stimuli/rescaled_final/1472_fw.mp4	0.0	310.9081161022186	0.10030293464660645
75	286.3903658390045	fix_pre	0		120	73.0	2.5	/experiments/AOT/AOT_stimuli/rescaled_final/0529_fw.mp4	0.0	311.00841903686523	0.9990990161895752
75	286.97481989860535	pulse	0	t		73.0	2.5	/experiments/AOT/AOT_stimuli/rescaled_final/0529_fw.mp4	0.0	311.59287309646606	
75	287.3894648551941	movie	1		244	73.0	2.5	/experiments/AOT/AOT_stimuli/rescaled_final/0529_fw.mp4	0.0	312.0075180530548	2.499696969985962
75	288.5738739967346	pulse	1	t		73.0	2.5	/experiments/AOT/AOT_stimuli/rescaled_final/0529_fw.mp4	0.0	313.19192719459534	
75	289.88916182518005	fix_post	2		12	73.0	2.5	/experiments/AOT/AOT_stimuli/rescaled_final/0529_fw.mp4	0.0	314.50721502304077	0.10078310966491699
76	289.98994493484497	fix_pre	0		120	74.0	2.5	/experiments/AOT/AOT_stimuli/rescaled_final/0147_rv.mp4	0.0	314.6079981327057	1.0004570484161377
76	290.1739399433136	pulse	0	t		74.0	2.5	/experiments/AOT/AOT_stimuli/rescaled_final/0147_rv.mp4	0.0	314.7919931411743	
76	290.9904019832611	movie	1		243	74.0	2.5	/experiments/AOT/AOT_stimuli/rescaled_final/0147_rv.mp4	0.0	315.6084551811218	2.500156879425049
76	291.7729799747467	pulse	1	t		74.0	2.5	/experiments/AOT/AOT_stimuli/rescaled_final/0147_rv.mp4	0.0	316.3910331726074	
76	293.3726887702942	pulse	1	t		74.0	2.5	/experiments/AOT/AOT_stimuli/rescaled_final/0147_rv.mp4	0.0	317.9907419681549	
76	293.49055886268616	fix_post	2		12	74.0	2.5	/experiments/AOT/AOT_stimuli/rescaled_final/0147_rv.mp4	0.0	318.1086120605469	0.10028696060180664
77	293.59084582328796	fix_pre	0		120	75.0	2.5	/experiments/AOT/AOT_stimuli/rescaled_final/2131_fw.mp4	0.0	318.2088990211487	0.9983351230621338
77	294.5891809463501	movie	1		245	75.0	2.5	/experiments/AOT/AOT_stimuli/rescaled_final/2131_fw.mp4	0.0	319.2072341442108	2.5004379749298096
77	294.9723677635193	pulse	1	t		75.0	2.5	/experiments/AOT/AOT_stimuli/rescaled_final/2131_fw.mp4	0.0	319.59042096138	
77	296.57293796539307	pulse	1	t		75.0	2.5	/experiments/AOT/AOT_stimuli/rescaled_final/2131_fw.mp4	0.0	321.1909911632538	
77	297.0896189212799	fix_post	2		12	75.0	2.5	/experiments/AOT/AOT_stimuli/rescaled_final/2131_fw.mp4	0.0	321.7076721191406	0.09979891777038574
78	297.1894178390503	fix_pre	0		119	76.0	2.5	/experiments/AOT/AOT_stimuli/rescaled_final/1160_rv.mp4	0.0	321.807471036911	0.9918999671936035
78	298.1729199886322	pulse	0	t		76.0	2.5	/experiments/AOT/AOT_stimuli/rescaled_final/1160_rv.mp4	0.0	322.7909731864929	
78	298.1813178062439	movie	1		245	76.0	2.5	/experiments/AOT/AOT_stimuli/rescaled_final/1160_rv.mp4	0.0	322.7993710041046	2.508188009262085
78	299.77239084243774	pulse	1	t		76.0	2.5	/experiments/AOT/AOT_stimuli/rescaled_final/1160_rv.mp4	0.0	324.39044404029846	
78	300.689505815506	fix_post	2		12	76.0	2.5	/experiments/AOT/AOT_stimuli/rescaled_final/1160_rv.mp4	0.0	325.3075590133667	0.09946298599243164
79	300.7889688014984	fix_pre	0		120	77.0	2.5	blank	1.0	325.40702199935913	1.000108003616333
79	301.37381887435913	pulse	0	t		77.0	2.5	blank	1.0	325.99187207221985	
79	301.78907680511475	movie	1		300	77.0	2.5	blank	1.0	326.40713000297546	2.500383138656616
79	302.972708940506	pulse	1	t		77.0	2.5	blank	1.0	327.5907621383667	
79	304.28945994377136	fix_post	2		12	77.0	2.5	blank	1.0	328.9075131416321	0.09957695007324219
80	304.3890368938446	fix_pre	0		120	78.0	2.5	/experiments/AOT/AOT_stimuli/rescaled_final/1945_fw.mp4	0.0	329.0070900917053	1.000432014465332
80	304.57252192497253	pulse	0	t		78.0	2.5	/experiments/AOT/AOT_stimuli/rescaled_final/1945_fw.mp4	0.0	329.19057512283325	
80	305.38946890830994	movie	1		244	78.0	2.5	/experiments/AOT/AOT_stimuli/rescaled_final/1945_fw.mp4	0.0	330.00752210617065	2.4995689392089844
80	306.1729679107666	pulse	1	t		78.0	2.5	/experiments/AOT/AOT_stimuli/rescaled_final/1945_fw.mp4	0.0	330.7910211086273	
80	307.7725758552551	pulse	1	t		78.0	2.5	/experiments/AOT/AOT_stimuli/rescaled_final/1945_fw.mp4	0.0	332.39062905311584	
80	307.8890378475189	fix_post	2		12	78.0	2.5	/experiments/AOT/AOT_stimuli/rescaled_final/1945_fw.mp4	0.0	332.50709104537964	0.09992408752441406
81	307.98896193504333	fix_pre	0		120	79.0	2.5	/experiments/AOT/AOT_stimuli/rescaled_final/1148_rv.mp4	0.0	332.60701513290405	1.0004370212554932
81	308.9893989562988	movie	1		244	79.0	2.5	/experiments/AOT/AOT_stimuli/rescaled_final/1148_rv.mp4	0.0	333.60745215415955	2.4996209144592285
81	309.3726267814636	pulse	1	t		79.0	2.5	/experiments/AOT/AOT_stimuli/rescaled_final/1148_rv.mp4	0.0	333.99067997932434	
81	310.9724369049072	pulse	1	t		79.0	2.5	/experiments/AOT/AOT_stimuli/rescaled_final/1148_rv.mp4	0.0	335.59049010276794	
81	311.48901987075806	fix_post	2		12	79.0	2.5	/experiments/AOT/AOT_stimuli/rescaled_final/1148_rv.mp4	0.0	336.1070730686188	0.10000205039978027
82	311.58902192115784	fix_pre	0		119	80.0	2.5	/experiments/AOT/AOT_stimuli/rescaled_final/0094_fw.mp4	0.0	336.20707511901855	0.9921479225158691
82	312.5720069408417	pulse	0	t		80.0	2.5	/experiments/AOT/AOT_stimuli/rescaled_final/0094_fw.mp4	0.0	337.1900601387024	
82	312.5811698436737	movie	1		247	80.0	2.5	/experiments/AOT/AOT_stimuli/rescaled_final/0094_fw.mp4	0.0	337.1992230415344	2.50734806060791
82	314.1732258796692	pulse	1	t		80.0	2.5	/experiments/AOT/AOT_stimuli/rescaled_final/0094_fw.mp4	0.0	338.7912790775299	
82	315.0885179042816	fix_post	2		12	80.0	2.5	/experiments/AOT/AOT_stimuli/rescaled_final/0094_fw.mp4	0.0	339.70657110214233	0.09999799728393555
83	315.18851590156555	fix_pre	0		120	81.0	2.5	/experiments/AOT/AOT_stimuli/rescaled_final/0252_fw.mp4	0.0	339.80656909942627	1.0000360012054443
83	315.7720239162445	pulse	0	t		81.0	2.5	/experiments/AOT/AOT_stimuli/rescaled_final/0252_fw.mp4	0.0	340.3900771141052	
83	316.188551902771	movie	1		244	81.0	2.5	/experiments/AOT/AOT_stimuli/rescaled_final/0252_fw.mp4	0.0	340.8066051006317	2.499891996383667
83	317.3728859424591	pulse	1	t		81.0	2.5	/experiments/AOT/AOT_stimuli/rescaled_final/0252_fw.mp4	0.0	341.9909391403198	
83	318.68844389915466	fix_post	2		12	81.0	2.5	/experiments/AOT/AOT_stimuli/rescaled_final/0252_fw.mp4	0.0	343.3064970970154	0.10007786750793457
84	318.7885217666626	fix_pre	0		120	82.0	2.5	blank	1.0	343.4065749645233	0.9999701976776123
84	318.9720458984375	pulse	0	t		82.0	2.5	blank	1.0	343.5900990962982	
84	319.7884919643402	movie	1		300	82.0	2.5	blank	1.0	344.4065451622009	2.5000598430633545
84	320.5719509124756	pulse	1	t		82.0	2.5	blank	1.0	345.1900041103363	
84	322.17192482948303	pulse	1	t		82.0	2.5	blank	1.0	346.78997802734375	
84	322.28855180740356	fix_post	2		12	82.0	2.5	blank	1.0	346.9066050052643	0.09996795654296875
85	322.38851976394653	fix_pre	0		120	83.0	2.5	/experiments/AOT/AOT_stimuli/rescaled_final/0834_rv.mp4	0.0	347.00657296180725	0.9999821186065674
85	323.3885018825531	movie	1		247	83.0	2.5	/experiments/AOT/AOT_stimuli/rescaled_final/0834_rv.mp4	0.0	348.0065550804138	2.4999780654907227
85	323.77150797843933	pulse	1	t		83.0	2.5	/experiments/AOT/AOT_stimuli/rescaled_final/0834_rv.mp4	0.0	348.38956117630005	
85	325.37276792526245	pulse	1	t		83.0	2.5	/experiments/AOT/AOT_stimuli/rescaled_final/0834_rv.mp4	0.0	349.99082112312317	
85	325.8884799480438	fix_post	2		12	83.0	2.5	/experiments/AOT/AOT_stimuli/rescaled_final/0834_rv.mp4	0.0	350.50653314590454	0.10043883323669434
87	325.9889187812805	stim	0		1716					350.60697197914124	14.300402164459229
87	326.9718918800354	pulse	0	t						351.5899450778961	
87	328.5719738006592	pulse	0	t						353.1900269985199	
87	330.1719298362732	pulse	0	t						354.7899830341339	
87	331.7719027996063	pulse	0	t						356.38995599746704	
87	333.3718388080597	pulse	0	t						357.9898920059204	
87	334.97184586524963	pulse	0	t						359.58989906311035	
87	336.57278180122375	pulse	0	t						361.1908349990845	
87	338.1726818084717	pulse	0	t						362.7907350063324	
87	339.77267599105835	pulse	0	t						364.39072918891907	
