trial_nr	onset	event_type	phase	response	nr_frames	movie_index	movie_duration	movie_file	blank	onset_abs	duration
0	0.1328730583190918	stim	0		30					33.38192105293274	0.25040292739868164
0	0.3753650188446045	response	0	space						33.62441301345825	
1	0.38327598571777344	stim	0		4930					33.63232398033142	41.08307409286499
1	41.46258091926575	pulse	0	t						74.7116289138794	
1	41.466350078582764	stim	1		1717					74.71539807319641	14.30831503868103
1	43.05816698074341	pulse	1	t						76.30721497535706	
1	44.658222913742065	pulse	1	t						77.90727090835571	
1	46.258196115493774	pulse	1	t						79.50724411010742	
1	47.85822796821594	pulse	1	t						81.10727596282959	
1	49.45827507972717	pulse	1	t						82.70732307434082	
1	51.058188915252686	pulse	1	t						84.30723690986633	
1	52.65819597244263	pulse	1	t						85.90724396705627	
1	54.25819706916809	pulse	1	t						87.50724506378174	
2	55.774665117263794	fix_pre	0		11	0.0	2.5	/experiments/AOT/AOT_stimuli/rescaled_final/0535_fw.mp4	0.0	89.02371311187744	0.09172296524047852
2	55.858213901519775	pulse	0	t		0.0	2.5	/experiments/AOT/AOT_stimuli/rescaled_final/0535_fw.mp4	0.0	89.10726189613342	
2	55.86638808250427	movie	1		246	0.0	2.5	/experiments/AOT/AOT_stimuli/rescaled_final/0535_fw.mp4	0.0	89.11543607711792	2.508265972137451
2	57.458101987838745	pulse	1	t		0.0	2.5	/experiments/AOT/AOT_stimuli/rescaled_final/0535_fw.mp4	0.0	90.70714998245239	
2	58.374654054641724	fix_post	2		12	0.0	2.5	/experiments/AOT/AOT_stimuli/rescaled_final/0535_fw.mp4	0.0	91.62370204925537	0.09994983673095703
3	58.47460389137268	fix_pre	0		120	1.0	2.5	/experiments/AOT/AOT_stimuli/rescaled_final/1484_fw.mp4	0.0	91.72365188598633	0.9996201992034912
3	59.05821490287781	pulse	0	t		1.0	2.5	/experiments/AOT/AOT_stimuli/rescaled_final/1484_fw.mp4	0.0	92.30726289749146	
3	59.47422409057617	movie	1		244	1.0	2.5	/experiments/AOT/AOT_stimuli/rescaled_final/1484_fw.mp4	0.0	92.72327208518982	2.499969005584717
3	60.65821599960327	pulse	1	t		1.0	2.5	/experiments/AOT/AOT_stimuli/rescaled_final/1484_fw.mp4	0.0	93.90726399421692	
3	61.97419309616089	fix_post	2		12	1.0	2.5	/experiments/AOT/AOT_stimuli/rescaled_final/1484_fw.mp4	0.0	95.22324109077454	0.10040283203125
4	62.07459592819214	fix_pre	0		120	2.0	2.5	/experiments/AOT/AOT_stimuli/rescaled_final/0353_rv.mp4	0.0	95.32364392280579	0.9996421337127686
4	62.25814509391785	pulse	0	t		2.0	2.5	/experiments/AOT/AOT_stimuli/rescaled_final/0353_rv.mp4	0.0	95.5071930885315	
4	63.07423806190491	movie	1		245	2.0	2.5	/experiments/AOT/AOT_stimuli/rescaled_final/0353_rv.mp4	0.0	96.32328605651855	2.499898910522461
4	63.85813307762146	pulse	1	t		2.0	2.5	/experiments/AOT/AOT_stimuli/rescaled_final/0353_rv.mp4	0.0	97.10718107223511	
4	65.45408296585083	pulse	1	t		2.0	2.5	/experiments/AOT/AOT_stimuli/rescaled_final/0353_rv.mp4	0.0	98.70313096046448	
4	65.57413697242737	fix_post	2		12	2.0	2.5	/experiments/AOT/AOT_stimuli/rescaled_final/0353_rv.mp4	0.0	98.82318496704102	0.10047698020935059
5	65.67461395263672	fix_pre	0		120	3.0	2.5	/experiments/AOT/AOT_stimuli/rescaled_final/1016_fw.mp4	0.0	98.92366194725037	0.9999940395355225
5	66.67460799217224	movie	1		245	3.0	2.5	/experiments/AOT/AOT_stimuli/rescaled_final/1016_fw.mp4	0.0	99.92365598678589	2.4995779991149902
5	67.05781412124634	pulse	1	t		3.0	2.5	/experiments/AOT/AOT_stimuli/rescaled_final/1016_fw.mp4	0.0	100.30686211585999	
5	68.65818500518799	pulse	1	t		3.0	2.5	/experiments/AOT/AOT_stimuli/rescaled_final/1016_fw.mp4	0.0	101.90723299980164	
5	69.17418599128723	fix_post	2		12	3.0	2.5	/experiments/AOT/AOT_stimuli/rescaled_final/1016_fw.mp4	0.0	102.42323398590088	0.09995293617248535
6	69.27413892745972	fix_pre	0		119	4.0	2.5	/experiments/AOT/AOT_stimuli/rescaled_final/1866_fw.mp4	0.0	102.52318692207336	0.9921791553497314
6	70.258220911026	pulse	0	t		4.0	2.5	/experiments/AOT/AOT_stimuli/rescaled_final/1866_fw.mp4	0.0	103.50726890563965	
6	70.26631808280945	movie	1		245	4.0	2.5	/experiments/AOT/AOT_stimuli/rescaled_final/1866_fw.mp4	0.0	103.5153660774231	2.5086019039154053
6	71.85831809043884	pulse	1	t		4.0	2.5	/experiments/AOT/AOT_stimuli/rescaled_final/1866_fw.mp4	0.0	105.10736608505249	
6	72.77491998672485	fix_post	2		12	4.0	2.5	/experiments/AOT/AOT_stimuli/rescaled_final/1866_fw.mp4	0.0	106.0239679813385	0.09961605072021484
7	72.87453603744507	fix_pre	0		120	5.0	2.5	blank	1.0	106.12358403205872	1.000093936920166
7	73.45818996429443	pulse	0	t		5.0	2.5	blank	1.0	106.70723795890808	
7	73.87462997436523	movie	1		300	5.0	2.5	blank	1.0	107.12367796897888	2.4999489784240723
7	75.0582230091095	pulse	1	t		5.0	2.5	blank	1.0	108.30727100372314	
7	76.3745789527893	fix_post	2		12	5.0	2.5	blank	1.0	109.62362694740295	0.09999799728393555
8	76.47457695007324	fix_pre	0		120	6.0	2.5	/experiments/AOT/AOT_stimuli/rescaled_final/0911_fw.mp4	0.0	109.72362494468689	0.9999630451202393
8	76.6580560207367	pulse	0	t		6.0	2.5	/experiments/AOT/AOT_stimuli/rescaled_final/0911_fw.mp4	0.0	109.90710401535034	
8	77.47453999519348	movie	1		247	6.0	2.5	/experiments/AOT/AOT_stimuli/rescaled_final/0911_fw.mp4	0.0	110.72358798980713	2.499969005584717
8	78.25802612304688	pulse	1	t		6.0	2.5	/experiments/AOT/AOT_stimuli/rescaled_final/0911_fw.mp4	0.0	111.50707411766052	
8	79.85798501968384	pulse	1	t		6.0	2.5	/experiments/AOT/AOT_stimuli/rescaled_final/0911_fw.mp4	0.0	113.10703301429749	
8	79.9745090007782	fix_post	2		12	6.0	2.5	/experiments/AOT/AOT_stimuli/rescaled_final/0911_fw.mp4	0.0	113.22355699539185	0.09968304634094238
9	80.07419204711914	fix_pre	0		120	7.0	2.5	/experiments/AOT/AOT_stimuli/rescaled_final/0634_rv.mp4	0.0	113.32324004173279	0.999924898147583
9	81.07411694526672	movie	1		245	7.0	2.5	/experiments/AOT/AOT_stimuli/rescaled_final/0634_rv.mp4	0.0	114.32316493988037	2.4999070167541504
9	81.45751810073853	pulse	1	t		7.0	2.5	/experiments/AOT/AOT_stimuli/rescaled_final/0634_rv.mp4	0.0	114.70656609535217	
9	83.05797696113586	pulse	1	t		7.0	2.5	/experiments/AOT/AOT_stimuli/rescaled_final/0634_rv.mp4	0.0	116.30702495574951	
9	83.57402396202087	fix_post	2		12	7.0	2.5	/experiments/AOT/AOT_stimuli/rescaled_final/0634_rv.mp4	0.0	116.82307195663452	0.10047197341918945
10	83.67449593544006	fix_pre	0		119	8.0	2.5	/experiments/AOT/AOT_stimuli/rescaled_final/1644_rv.mp4	0.0	116.92354393005371	0.9916901588439941
10	84.65800094604492	pulse	0	t		8.0	2.5	/experiments/AOT/AOT_stimuli/rescaled_final/1644_rv.mp4	0.0	117.90704894065857	
10	84.66618609428406	movie	1		247	8.0	2.5	/experiments/AOT/AOT_stimuli/rescaled_final/1644_rv.mp4	0.0	117.9152340888977	2.5079050064086914
10	86.25733399391174	pulse	1	t		8.0	2.5	/experiments/AOT/AOT_stimuli/rescaled_final/1644_rv.mp4	0.0	119.50638198852539	
10	87.17409110069275	fix_post	2		12	8.0	2.5	/experiments/AOT/AOT_stimuli/rescaled_final/1644_rv.mp4	0.0	120.4231390953064	0.10037398338317871
11	87.27446508407593	fix_pre	0		120	9.0	2.5	/experiments/AOT/AOT_stimuli/rescaled_final/1219_rv.mp4	0.0	120.52351307868958	1.000025987625122
11	87.85798811912537	pulse	0	t		9.0	2.5	/experiments/AOT/AOT_stimuli/rescaled_final/1219_rv.mp4	0.0	121.10703611373901	
11	88.27449107170105	movie	1		244	9.0	2.5	/experiments/AOT/AOT_stimuli/rescaled_final/1219_rv.mp4	0.0	121.5235390663147	2.4995899200439453
11	89.45807695388794	pulse	1	t		9.0	2.5	/experiments/AOT/AOT_stimuli/rescaled_final/1219_rv.mp4	0.0	122.70712494850159	
11	90.774080991745	fix_post	2		12	9.0	2.5	/experiments/AOT/AOT_stimuli/rescaled_final/1219_rv.mp4	0.0	124.02312898635864	0.1000220775604248
12	90.87410306930542	fix_pre	0		120	10.0	2.5	/experiments/AOT/AOT_stimuli/rescaled_final/0266_fw.mp4	0.0	124.12315106391907	1.0003600120544434
12	91.0580461025238	pulse	0	t		10.0	2.5	/experiments/AOT/AOT_stimuli/rescaled_final/0266_fw.mp4	0.0	124.30709409713745	
12	91.87446308135986	movie	1		246	10.0	2.5	/experiments/AOT/AOT_stimuli/rescaled_final/0266_fw.mp4	0.0	125.12351107597351	2.4995758533477783
12	92.65800905227661	pulse	1	t		10.0	2.5	/experiments/AOT/AOT_stimuli/rescaled_final/0266_fw.mp4	0.0	125.90705704689026	
12	94.25748991966248	pulse	1	t		10.0	2.5	/experiments/AOT/AOT_stimuli/rescaled_final/0266_fw.mp4	0.0	127.50653791427612	
12	94.37403893470764	fix_post	2		12	10.0	2.5	/experiments/AOT/AOT_stimuli/rescaled_final/0266_fw.mp4	0.0	127.62308692932129	0.1004791259765625
13	94.4745180606842	fix_pre	0		120	11.0	2.5	/experiments/AOT/AOT_stimuli/rescaled_final/1925_rv.mp4	0.0	127.72356605529785	0.9995558261871338
13	95.47407388687134	movie	1		244	11.0	2.5	/experiments/AOT/AOT_stimuli/rescaled_final/1925_rv.mp4	0.0	128.72312188148499	2.5004160404205322
13	95.85807800292969	pulse	1	t		11.0	2.5	/experiments/AOT/AOT_stimuli/rescaled_final/1925_rv.mp4	0.0	129.10712599754333	
13	97.45801901817322	pulse	1	t		11.0	2.5	/experiments/AOT/AOT_stimuli/rescaled_final/1925_rv.mp4	0.0	130.70706701278687	
13	97.97448992729187	fix_post	2		12	11.0	2.5	/experiments/AOT/AOT_stimuli/rescaled_final/1925_rv.mp4	0.0	131.22353792190552	0.0999460220336914
14	98.07443594932556	fix_pre	0		119	12.0	2.5	blank	1.0	131.3234839439392	0.991703987121582
14	99.05796909332275	pulse	0	t		12.0	2.5	blank	1.0	132.3070170879364	
14	99.06613993644714	movie	1		301	12.0	2.5	blank	1.0	132.3151879310608	2.508310079574585
14	100.65793895721436	pulse	1	t		12.0	2.5	blank	1.0	133.906986951828	
14	101.57445001602173	fix_post	2		12	12.0	2.5	blank	1.0	134.82349801063538	0.09998106956481934
15	101.67443108558655	fix_pre	0		120	13.0	2.5	/experiments/AOT/AOT_stimuli/rescaled_final/0002_rv.mp4	0.0	134.9234790802002	1.000046968460083
15	102.2579710483551	pulse	0	t		13.0	2.5	/experiments/AOT/AOT_stimuli/rescaled_final/0002_rv.mp4	0.0	135.50701904296875	
15	102.67447805404663	movie	1		244	13.0	2.5	/experiments/AOT/AOT_stimuli/rescaled_final/0002_rv.mp4	0.0	135.92352604866028	2.499969959259033
15	103.85800004005432	pulse	1	t		13.0	2.5	/experiments/AOT/AOT_stimuli/rescaled_final/0002_rv.mp4	0.0	137.10704803466797	
15	105.17444801330566	fix_post	2		12	13.0	2.5	/experiments/AOT/AOT_stimuli/rescaled_final/0002_rv.mp4	0.0	138.4234960079193	0.09994292259216309
16	105.27439093589783	fix_pre	0		120	14.0	2.5	/experiments/AOT/AOT_stimuli/rescaled_final/0167_fw.mp4	0.0	138.52343893051147	1.0000829696655273
16	105.45797801017761	pulse	0	t		14.0	2.5	/experiments/AOT/AOT_stimuli/rescaled_final/0167_fw.mp4	0.0	138.70702600479126	
16	106.27447390556335	movie	1		244	14.0	2.5	/experiments/AOT/AOT_stimuli/rescaled_final/0167_fw.mp4	0.0	139.523521900177	2.4999430179595947
16	107.05794095993042	pulse	1	t		14.0	2.5	/experiments/AOT/AOT_stimuli/rescaled_final/0167_fw.mp4	0.0	140.30698895454407	
16	108.65658211708069	pulse	1	t		14.0	2.5	/experiments/AOT/AOT_stimuli/rescaled_final/0167_fw.mp4	0.0	141.90563011169434	
16	108.77441692352295	fix_post	2		12	14.0	2.5	/experiments/AOT/AOT_stimuli/rescaled_final/0167_fw.mp4	0.0	142.0234649181366	0.09992718696594238
17	108.87434411048889	fix_pre	0		120	15.0	2.5	/experiments/AOT/AOT_stimuli/rescaled_final/0227_rv.mp4	0.0	142.12339210510254	1.0000369548797607
17	109.87438106536865	movie	1		246	15.0	2.5	/experiments/AOT/AOT_stimuli/rescaled_final/0227_rv.mp4	0.0	143.1234290599823	2.499948024749756
17	110.25815510749817	pulse	1	t		15.0	2.5	/experiments/AOT/AOT_stimuli/rescaled_final/0227_rv.mp4	0.0	143.50720310211182	
17	111.8578360080719	pulse	1	t		15.0	2.5	/experiments/AOT/AOT_stimuli/rescaled_final/0227_rv.mp4	0.0	145.10688400268555	
17	112.37432909011841	fix_post	2		12	15.0	2.5	/experiments/AOT/AOT_stimuli/rescaled_final/0227_rv.mp4	0.0	145.62337708473206	0.10011482238769531
18	112.4744439125061	fix_pre	0		119	16.0	2.5	/experiments/AOT/AOT_stimuli/rescaled_final/0103_rv.mp4	0.0	145.72349190711975	0.9916021823883057
18	113.45789289474487	pulse	0	t		16.0	2.5	/experiments/AOT/AOT_stimuli/rescaled_final/0103_rv.mp4	0.0	146.70694088935852	
18	113.46604609489441	movie	1		245	16.0	2.5	/experiments/AOT/AOT_stimuli/rescaled_final/0103_rv.mp4	0.0	146.71509408950806	2.5083730220794678
18	115.05768990516663	pulse	1	t		16.0	2.5	/experiments/AOT/AOT_stimuli/rescaled_final/0103_rv.mp4	0.0	148.30673789978027	
18	115.97441911697388	fix_post	2		12	16.0	2.5	/experiments/AOT/AOT_stimuli/rescaled_final/0103_rv.mp4	0.0	149.22346711158752	0.10018682479858398
19	116.07460594177246	fix_pre	0		120	17.0	2.5	/experiments/AOT/AOT_stimuli/rescaled_final/1278_fw.mp4	0.0	149.3236539363861	0.9993569850921631
19	116.65790295600891	pulse	0	t		17.0	2.5	/experiments/AOT/AOT_stimuli/rescaled_final/1278_fw.mp4	0.0	149.90695095062256	
19	117.07396292686462	movie	1		244	17.0	2.5	/experiments/AOT/AOT_stimuli/rescaled_final/1278_fw.mp4	0.0	150.32301092147827	2.500408172607422
19	118.2579391002655	pulse	1	t		17.0	2.5	/experiments/AOT/AOT_stimuli/rescaled_final/1278_fw.mp4	0.0	151.50698709487915	
19	119.57437109947205	fix_post	2		12	17.0	2.5	/experiments/AOT/AOT_stimuli/rescaled_final/1278_fw.mp4	0.0	152.8234190940857	0.09994792938232422
20	119.67431902885437	fix_pre	0		120	18.0	2.5	/experiments/AOT/AOT_stimuli/rescaled_final/0969_fw.mp4	0.0	152.92336702346802	1.0000569820404053
20	119.85787105560303	pulse	0	t		18.0	2.5	/experiments/AOT/AOT_stimuli/rescaled_final/0969_fw.mp4	0.0	153.10691905021667	
20	120.67437601089478	movie	1		244	18.0	2.5	/experiments/AOT/AOT_stimuli/rescaled_final/0969_fw.mp4	0.0	153.92342400550842	2.4999210834503174
20	121.45786190032959	pulse	1	t		18.0	2.5	/experiments/AOT/AOT_stimuli/rescaled_final/0969_fw.mp4	0.0	154.70690989494324	
20	123.05393505096436	pulse	1	t		18.0	2.5	/experiments/AOT/AOT_stimuli/rescaled_final/0969_fw.mp4	0.0	156.302983045578	
20	123.17429709434509	fix_post	2		12	18.0	2.5	/experiments/AOT/AOT_stimuli/rescaled_final/0969_fw.mp4	0.0	156.42334508895874	0.10004496574401855
21	123.27434206008911	fix_pre	0		120	19.0	2.5	/experiments/AOT/AOT_stimuli/rescaled_final/0632_fw.mp4	0.0	156.52339005470276	0.9995870590209961
21	124.27392911911011	movie	1		246	19.0	2.5	/experiments/AOT/AOT_stimuli/rescaled_final/0632_fw.mp4	0.0	157.52297711372375	2.500159978866577
21	124.65887093544006	pulse	1	t		19.0	2.5	/experiments/AOT/AOT_stimuli/rescaled_final/0632_fw.mp4	0.0	157.9079189300537	
21	126.25735712051392	pulse	1	t		19.0	2.5	/experiments/AOT/AOT_stimuli/rescaled_final/0632_fw.mp4	0.0	159.50640511512756	
21	126.77408909797668	fix_post	2		12	19.0	2.5	/experiments/AOT/AOT_stimuli/rescaled_final/0632_fw.mp4	0.0	160.02313709259033	0.09994983673095703
22	126.87403893470764	fix_pre	0		119	20.0	2.5	/experiments/AOT/AOT_stimuli/rescaled_final/2131_rv.mp4	0.0	160.1230869293213	0.9922280311584473
22	127.85767793655396	pulse	0	t		20.0	2.5	/experiments/AOT/AOT_stimuli/rescaled_final/2131_rv.mp4	0.0	161.1067259311676	
22	127.86626696586609	movie	1		247	20.0	2.5	/experiments/AOT/AOT_stimuli/rescaled_final/2131_rv.mp4	0.0	161.11531496047974	2.507611036300659
22	129.45762705802917	pulse	1	t		20.0	2.5	/experiments/AOT/AOT_stimuli/rescaled_final/2131_rv.mp4	0.0	162.70667505264282	
22	130.37387800216675	fix_post	2		12	20.0	2.5	/experiments/AOT/AOT_stimuli/rescaled_final/2131_rv.mp4	0.0	163.6229259967804	0.10045289993286133
23	130.4743309020996	fix_pre	0		120	21.0	2.5	blank	1.0	163.72337889671326	0.9995851516723633
23	131.0578429698944	pulse	0	t		21.0	2.5	blank	1.0	164.30689096450806	
23	131.47391605377197	movie	1		300	21.0	2.5	blank	1.0	164.72296404838562	2.5002870559692383
23	132.6578299999237	pulse	1	t		21.0	2.5	blank	1.0	165.90687799453735	
23	133.9742031097412	fix_post	2		12	21.0	2.5	blank	1.0	167.22325110435486	0.10008478164672852
24	134.07428789138794	fix_pre	0		120	22.0	2.5	/experiments/AOT/AOT_stimuli/rescaled_final/1417_rv.mp4	0.0	167.3233358860016	0.9999980926513672
24	134.2577269077301	pulse	0	t		22.0	2.5	/experiments/AOT/AOT_stimuli/rescaled_final/1417_rv.mp4	0.0	167.50677490234375	
24	135.0742859840393	movie	1		244	22.0	2.5	/experiments/AOT/AOT_stimuli/rescaled_final/1417_rv.mp4	0.0	168.32333397865295	2.500019073486328
24	135.85770106315613	pulse	1	t		22.0	2.5	/experiments/AOT/AOT_stimuli/rescaled_final/1417_rv.mp4	0.0	169.10674905776978	
24	137.45383191108704	pulse	1	t		22.0	2.5	/experiments/AOT/AOT_stimuli/rescaled_final/1417_rv.mp4	0.0	170.70287990570068	
24	137.57430505752563	fix_post	2		12	22.0	2.5	/experiments/AOT/AOT_stimuli/rescaled_final/1417_rv.mp4	0.0	170.82335305213928	0.09994888305664062
25	137.67425394058228	fix_pre	0		120	23.0	2.5	/experiments/AOT/AOT_stimuli/rescaled_final/0663_rv.mp4	0.0	170.92330193519592	1.0
25	138.67425394058228	movie	1		244	23.0	2.5	/experiments/AOT/AOT_stimuli/rescaled_final/0663_rv.mp4	0.0	171.92330193519592	2.4996840953826904
25	139.05744695663452	pulse	1	t		23.0	2.5	/experiments/AOT/AOT_stimuli/rescaled_final/0663_rv.mp4	0.0	172.30649495124817	
25	140.6576910018921	pulse	1	t		23.0	2.5	/experiments/AOT/AOT_stimuli/rescaled_final/0663_rv.mp4	0.0	173.90673899650574	
25	141.17393803596497	fix_post	2		12	23.0	2.5	/experiments/AOT/AOT_stimuli/rescaled_final/0663_rv.mp4	0.0	174.4229860305786	0.10048794746398926
26	141.27442598342896	fix_pre	0		119	24.0	2.5	/experiments/AOT/AOT_stimuli/rescaled_final/0772_fw.mp4	0.0	174.5234739780426	0.9915409088134766
26	142.2577829360962	pulse	0	t		24.0	2.5	/experiments/AOT/AOT_stimuli/rescaled_final/0772_fw.mp4	0.0	175.50683093070984	
26	142.26596689224243	movie	1		246	24.0	2.5	/experiments/AOT/AOT_stimuli/rescaled_final/0772_fw.mp4	0.0	175.51501488685608	2.5078132152557373
26	143.8574080467224	pulse	1	t		24.0	2.5	/experiments/AOT/AOT_stimuli/rescaled_final/0772_fw.mp4	0.0	177.10645604133606	
26	144.77378010749817	fix_post	2		12	24.0	2.5	/experiments/AOT/AOT_stimuli/rescaled_final/0772_fw.mp4	0.0	178.02282810211182	0.10043978691101074
27	144.87421989440918	fix_pre	0		120	25.0	2.5	/experiments/AOT/AOT_stimuli/rescaled_final/0828_fw.mp4	0.0	178.12326788902283	1.0000340938568115
27	145.45773911476135	pulse	0	t		25.0	2.5	/experiments/AOT/AOT_stimuli/rescaled_final/0828_fw.mp4	0.0	178.706787109375	
27	145.874253988266	movie	1		244	25.0	2.5	/experiments/AOT/AOT_stimuli/rescaled_final/0828_fw.mp4	0.0	179.12330198287964	2.4995579719543457
27	147.05769395828247	pulse	1	t		25.0	2.5	/experiments/AOT/AOT_stimuli/rescaled_final/0828_fw.mp4	0.0	180.30674195289612	
27	148.37381196022034	fix_post	2		12	25.0	2.5	/experiments/AOT/AOT_stimuli/rescaled_final/0828_fw.mp4	0.0	181.62285995483398	0.10042715072631836
28	148.47423911094666	fix_pre	0		120	26.0	2.5	/experiments/AOT/AOT_stimuli/rescaled_final/0870_rv.mp4	0.0	181.7232871055603	0.9999690055847168
28	148.65787601470947	pulse	0	t		26.0	2.5	/experiments/AOT/AOT_stimuli/rescaled_final/0870_rv.mp4	0.0	181.90692400932312	
28	149.47420811653137	movie	1		245	26.0	2.5	/experiments/AOT/AOT_stimuli/rescaled_final/0870_rv.mp4	0.0	182.72325611114502	2.4999959468841553
28	150.25768995285034	pulse	1	t		26.0	2.5	/experiments/AOT/AOT_stimuli/rescaled_final/0870_rv.mp4	0.0	183.506737947464	
28	151.8564009666443	pulse	1	t		26.0	2.5	/experiments/AOT/AOT_stimuli/rescaled_final/0870_rv.mp4	0.0	185.10544896125793	
28	151.97420406341553	fix_post	2		12	26.0	2.5	/experiments/AOT/AOT_stimuli/rescaled_final/0870_rv.mp4	0.0	185.22325205802917	0.10003805160522461
29	152.07424211502075	fix_pre	0		120	27.0	2.5	blank	1.0	185.3232901096344	1.0000379085540771
29	153.07428002357483	movie	1		300	27.0	2.5	blank	1.0	186.32332801818848	2.499955892562866
29	153.45771098136902	pulse	1	t		27.0	2.5	blank	1.0	186.70675897598267	
29	155.05759501457214	pulse	1	t		27.0	2.5	blank	1.0	188.3066430091858	
29	155.5742359161377	fix_post	2		12	27.0	2.5	blank	1.0	188.82328391075134	0.10015320777893066
30	155.67438912391663	fix_pre	0		119	28.0	2.5	/experiments/AOT/AOT_stimuli/rescaled_final/2146_rv.mp4	0.0	188.92343711853027	0.9914829730987549
30	156.65767002105713	pulse	0	t		28.0	2.5	/experiments/AOT/AOT_stimuli/rescaled_final/2146_rv.mp4	0.0	189.90671801567078	
30	156.66587209701538	movie	1		246	28.0	2.5	/experiments/AOT/AOT_stimuli/rescaled_final/2146_rv.mp4	0.0	189.91492009162903	2.508368968963623
30	158.25752091407776	pulse	1	t		28.0	2.5	/experiments/AOT/AOT_stimuli/rescaled_final/2146_rv.mp4	0.0	191.5065689086914	
30	159.174241065979	fix_post	2		12	28.0	2.5	/experiments/AOT/AOT_stimuli/rescaled_final/2146_rv.mp4	0.0	192.42328906059265	0.09989285469055176
31	159.27413392066956	fix_pre	0		120	29.0	2.5	/experiments/AOT/AOT_stimuli/rescaled_final/0334_rv.mp4	0.0	192.5231819152832	1.0000321865081787
31	159.8577299118042	pulse	0	t		29.0	2.5	/experiments/AOT/AOT_stimuli/rescaled_final/0334_rv.mp4	0.0	193.10677790641785	
31	160.27416610717773	movie	1		246	29.0	2.5	/experiments/AOT/AOT_stimuli/rescaled_final/0334_rv.mp4	0.0	193.52321410179138	2.4995028972625732
31	161.4577031135559	pulse	1	t		29.0	2.5	/experiments/AOT/AOT_stimuli/rescaled_final/0334_rv.mp4	0.0	194.70675110816956	
31	162.7736690044403	fix_post	2		12	29.0	2.5	/experiments/AOT/AOT_stimuli/rescaled_final/0334_rv.mp4	0.0	196.02271699905396	0.10050606727600098
32	162.8741750717163	fix_pre	0		120	30.0	2.5	/experiments/AOT/AOT_stimuli/rescaled_final/0759_rv.mp4	0.0	196.12322306632996	0.9999430179595947
32	163.05767107009888	pulse	0	t		30.0	2.5	/experiments/AOT/AOT_stimuli/rescaled_final/0759_rv.mp4	0.0	196.30671906471252	
32	163.8741180896759	movie	1		244	30.0	2.5	/experiments/AOT/AOT_stimuli/rescaled_final/0759_rv.mp4	0.0	197.12316608428955	2.499579906463623
32	164.65768098831177	pulse	1	t		30.0	2.5	/experiments/AOT/AOT_stimuli/rescaled_final/0759_rv.mp4	0.0	197.90672898292542	
32	166.253830909729	pulse	1	t		30.0	2.5	/experiments/AOT/AOT_stimuli/rescaled_final/0759_rv.mp4	0.0	199.50287890434265	
32	166.37369799613953	fix_post	2		12	30.0	2.5	/experiments/AOT/AOT_stimuli/rescaled_final/0759_rv.mp4	0.0	199.62274599075317	0.10000991821289062
33	166.47370791435242	fix_pre	0		120	31.0	2.5	/experiments/AOT/AOT_stimuli/rescaled_final/1295_fw.mp4	0.0	199.72275590896606	1.0004830360412598
33	167.47419095039368	movie	1		244	31.0	2.5	/experiments/AOT/AOT_stimuli/rescaled_final/1295_fw.mp4	0.0	200.72323894500732	2.4994969367980957
33	167.85776710510254	pulse	1	t		31.0	2.5	/experiments/AOT/AOT_stimuli/rescaled_final/1295_fw.mp4	0.0	201.1068150997162	
33	169.457603931427	pulse	1	t		31.0	2.5	/experiments/AOT/AOT_stimuli/rescaled_final/1295_fw.mp4	0.0	202.70665192604065	
33	169.97368788719177	fix_post	2		12	31.0	2.5	/experiments/AOT/AOT_stimuli/rescaled_final/1295_fw.mp4	0.0	203.22273588180542	0.10037016868591309
34	170.07405805587769	fix_pre	0		119	32.0	2.5	/experiments/AOT/AOT_stimuli/rescaled_final/1304_rv.mp4	0.0	203.32310605049133	0.9916999340057373
34	171.05765295028687	pulse	0	t		32.0	2.5	/experiments/AOT/AOT_stimuli/rescaled_final/1304_rv.mp4	0.0	204.3067009449005	
34	171.06575798988342	movie	1		246	32.0	2.5	/experiments/AOT/AOT_stimuli/rescaled_final/1304_rv.mp4	0.0	204.31480598449707	2.508345127105713
34	172.65880012512207	pulse	1	t		32.0	2.5	/experiments/AOT/AOT_stimuli/rescaled_final/1304_rv.mp4	0.0	205.90784811973572	
34	173.57410311698914	fix_post	2		12	32.0	2.5	/experiments/AOT/AOT_stimuli/rescaled_final/1304_rv.mp4	0.0	206.82315111160278	0.09957480430603027
35	173.67367792129517	fix_pre	0		120	33.0	2.5	/experiments/AOT/AOT_stimuli/rescaled_final/1866_rv.mp4	0.0	206.9227259159088	1.0005640983581543
35	174.25760698318481	pulse	0	t		33.0	2.5	/experiments/AOT/AOT_stimuli/rescaled_final/1866_rv.mp4	0.0	207.50665497779846	
35	174.67424201965332	movie	1		245	33.0	2.5	/experiments/AOT/AOT_stimuli/rescaled_final/1866_rv.mp4	0.0	207.92329001426697	2.4995598793029785
35	175.85764503479004	pulse	1	t		33.0	2.5	/experiments/AOT/AOT_stimuli/rescaled_final/1866_rv.mp4	0.0	209.1066930294037	
35	177.1738018989563	fix_post	2		12	33.0	2.5	/experiments/AOT/AOT_stimuli/rescaled_final/1866_rv.mp4	0.0	210.42284989356995	0.1004190444946289
36	177.27422094345093	fix_pre	0		120	34.0	2.5	blank	1.0	210.52326893806458	0.9998800754547119
36	177.45760893821716	pulse	0	t		34.0	2.5	blank	1.0	210.7066569328308	
36	178.27410101890564	movie	1		300	34.0	2.5	blank	1.0	211.5231490135193	2.499553918838501
36	179.05760598182678	pulse	1	t		34.0	2.5	blank	1.0	212.30665397644043	
36	180.65759205818176	pulse	1	t		34.0	2.5	blank	1.0	213.9066400527954	
36	180.77365493774414	fix_post	2		12	34.0	2.5	blank	1.0	214.0227029323578	0.10038304328918457
37	180.87403798103333	fix_pre	0		120	35.0	2.5	/experiments/AOT/AOT_stimuli/rescaled_final/0799_fw.mp4	0.0	214.12308597564697	0.9996039867401123
37	181.87364196777344	movie	1		242	35.0	2.5	/experiments/AOT/AOT_stimuli/rescaled_final/0799_fw.mp4	0.0	215.12268996238708	2.500714063644409
37	182.25700092315674	pulse	1	t		35.0	2.5	/experiments/AOT/AOT_stimuli/rescaled_final/0799_fw.mp4	0.0	215.50604891777039	
37	183.8577470779419	pulse	1	t		35.0	2.5	/experiments/AOT/AOT_stimuli/rescaled_final/0799_fw.mp4	0.0	217.10679507255554	
37	184.37435603141785	fix_post	2		12	35.0	2.5	/experiments/AOT/AOT_stimuli/rescaled_final/0799_fw.mp4	0.0	217.6234040260315	0.09972405433654785
38	184.4740800857544	fix_pre	0		119	36.0	2.5	/experiments/AOT/AOT_stimuli/rescaled_final/0635_rv.mp4	0.0	217.72312808036804	0.9915919303894043
38	185.4575970172882	pulse	0	t		36.0	2.5	/experiments/AOT/AOT_stimuli/rescaled_final/0635_rv.mp4	0.0	218.70664501190186	
38	185.4656720161438	movie	1		245	36.0	2.5	/experiments/AOT/AOT_stimuli/rescaled_final/0635_rv.mp4	0.0	218.71472001075745	2.508347988128662
38	187.05729007720947	pulse	1	t		36.0	2.5	/experiments/AOT/AOT_stimuli/rescaled_final/0635_rv.mp4	0.0	220.30633807182312	
38	187.97402000427246	fix_post	2		12	36.0	2.5	/experiments/AOT/AOT_stimuli/rescaled_final/0635_rv.mp4	0.0	221.2230679988861	0.10003304481506348
39	188.07405304908752	fix_pre	0		120	37.0	2.5	/experiments/AOT/AOT_stimuli/rescaled_final/1155_fw.mp4	0.0	221.32310104370117	0.9999830722808838
39	188.65757989883423	pulse	0	t		37.0	2.5	/experiments/AOT/AOT_stimuli/rescaled_final/1155_fw.mp4	0.0	221.90662789344788	
39	189.0740361213684	movie	1		245	37.0	2.5	/experiments/AOT/AOT_stimuli/rescaled_final/1155_fw.mp4	0.0	222.32308411598206	2.499945878982544
39	190.25761890411377	pulse	1	t		37.0	2.5	/experiments/AOT/AOT_stimuli/rescaled_final/1155_fw.mp4	0.0	223.50666689872742	
39	191.57398200035095	fix_post	2		12	37.0	2.5	/experiments/AOT/AOT_stimuli/rescaled_final/1155_fw.mp4	0.0	224.8230299949646	0.09994912147521973
40	191.67393112182617	fix_pre	0		120	38.0	2.5	/experiments/AOT/AOT_stimuli/rescaled_final/0659_fw.mp4	0.0	224.92297911643982	1.0000269412994385
40	191.8573980331421	pulse	0	t		38.0	2.5	/experiments/AOT/AOT_stimuli/rescaled_final/0659_fw.mp4	0.0	225.10644602775574	
40	192.6739580631256	movie	1		243	38.0	2.5	/experiments/AOT/AOT_stimuli/rescaled_final/0659_fw.mp4	0.0	225.92300605773926	2.4999518394470215
40	193.45746302604675	pulse	1	t		38.0	2.5	/experiments/AOT/AOT_stimuli/rescaled_final/0659_fw.mp4	0.0	226.7065110206604	
40	195.05602598190308	pulse	1	t		38.0	2.5	/experiments/AOT/AOT_stimuli/rescaled_final/0659_fw.mp4	0.0	228.30507397651672	
40	195.17390990257263	fix_post	2		12	38.0	2.5	/experiments/AOT/AOT_stimuli/rescaled_final/0659_fw.mp4	0.0	228.42295789718628	0.1000511646270752
41	195.2739610671997	fix_pre	0		120	39.0	2.5	/experiments/AOT/AOT_stimuli/rescaled_final/2071_rv.mp4	0.0	228.52300906181335	1.0000040531158447
41	196.27396512031555	movie	1		245	39.0	2.5	/experiments/AOT/AOT_stimuli/rescaled_final/2071_rv.mp4	0.0	229.5230131149292	2.4995689392089844
41	196.65876007080078	pulse	1	t		39.0	2.5	/experiments/AOT/AOT_stimuli/rescaled_final/2071_rv.mp4	0.0	229.90780806541443	
41	198.25748300552368	pulse	1	t		39.0	2.5	/experiments/AOT/AOT_stimuli/rescaled_final/2071_rv.mp4	0.0	231.50653100013733	
41	198.77353405952454	fix_post	2		12	39.0	2.5	/experiments/AOT/AOT_stimuli/rescaled_final/2071_rv.mp4	0.0	232.02258205413818	0.10038995742797852
42	198.87392401695251	fix_pre	0		119	40.0	2.5	/experiments/AOT/AOT_stimuli/rescaled_final/1125_fw.mp4	0.0	232.12297201156616	0.9917221069335938
42	199.85746502876282	pulse	0	t		40.0	2.5	/experiments/AOT/AOT_stimuli/rescaled_final/1125_fw.mp4	0.0	233.10651302337646	
42	199.8656461238861	movie	1		245	40.0	2.5	/experiments/AOT/AOT_stimuli/rescaled_final/1125_fw.mp4	0.0	233.11469411849976	2.5078887939453125
42	201.45717191696167	pulse	1	t		40.0	2.5	/experiments/AOT/AOT_stimuli/rescaled_final/1125_fw.mp4	0.0	234.70621991157532	
42	202.37353491783142	fix_post	2		12	40.0	2.5	/experiments/AOT/AOT_stimuli/rescaled_final/1125_fw.mp4	0.0	235.62258291244507	0.10053014755249023
43	202.4740650653839	fix_pre	0		120	41.0	2.5	blank	1.0	235.72311305999756	0.9998729228973389
43	203.05748391151428	pulse	0	t		41.0	2.5	blank	1.0	236.30653190612793	
43	203.47393798828125	movie	1		300	41.0	2.5	blank	1.0	236.7229859828949	2.499566078186035
43	204.65755701065063	pulse	1	t		41.0	2.5	blank	1.0	237.90660500526428	
43	205.97350406646729	fix_post	2		12	41.0	2.5	blank	1.0	239.22255206108093	0.10043787956237793
44	206.07394194602966	fix_pre	0		120	42.0	2.5	/experiments/AOT/AOT_stimuli/rescaled_final/2036_fw.mp4	0.0	239.3229899406433	1.0000560283660889
44	206.25750708580017	pulse	0	t		42.0	2.5	/experiments/AOT/AOT_stimuli/rescaled_final/2036_fw.mp4	0.0	239.50655508041382	
44	207.07399797439575	movie	1		245	42.0	2.5	/experiments/AOT/AOT_stimuli/rescaled_final/2036_fw.mp4	0.0	240.3230459690094	2.499562978744507
44	207.85751295089722	pulse	1	t		42.0	2.5	/experiments/AOT/AOT_stimuli/rescaled_final/2036_fw.mp4	0.0	241.10656094551086	
44	209.45703291893005	pulse	1	t		42.0	2.5	/experiments/AOT/AOT_stimuli/rescaled_final/2036_fw.mp4	0.0	242.7060809135437	
44	209.57356095314026	fix_post	2		12	42.0	2.5	/experiments/AOT/AOT_stimuli/rescaled_final/2036_fw.mp4	0.0	242.8226089477539	0.10001897811889648
45	209.67357993125916	fix_pre	0		120	43.0	2.5	/experiments/AOT/AOT_stimuli/rescaled_final/0281_fw.mp4	0.0	242.9226279258728	1.0003039836883545
45	210.6738839149475	movie	1		243	43.0	2.5	/experiments/AOT/AOT_stimuli/rescaled_final/0281_fw.mp4	0.0	243.92293190956116	2.500028133392334
45	211.05761003494263	pulse	1	t		43.0	2.5	/experiments/AOT/AOT_stimuli/rescaled_final/0281_fw.mp4	0.0	244.30665802955627	
45	212.65731596946716	pulse	1	t		43.0	2.5	/experiments/AOT/AOT_stimuli/rescaled_final/0281_fw.mp4	0.0	245.9063639640808	
45	213.17391204833984	fix_post	2		12	43.0	2.5	/experiments/AOT/AOT_stimuli/rescaled_final/0281_fw.mp4	0.0	246.4229600429535	0.09958004951477051
46	213.27349209785461	fix_pre	0		119	44.0	2.5	/experiments/AOT/AOT_stimuli/rescaled_final/0659_rv.mp4	0.0	246.52254009246826	0.9921009540557861
46	214.25737690925598	pulse	0	t		44.0	2.5	/experiments/AOT/AOT_stimuli/rescaled_final/0659_rv.mp4	0.0	247.50642490386963	
46	214.2655930519104	movie	1		244	44.0	2.5	/experiments/AOT/AOT_stimuli/rescaled_final/0659_rv.mp4	0.0	247.51464104652405	2.50833797454834
46	215.85768795013428	pulse	1	t		44.0	2.5	/experiments/AOT/AOT_stimuli/rescaled_final/0659_rv.mp4	0.0	249.10673594474792	
46	216.77393102645874	fix_post	2		12	44.0	2.5	/experiments/AOT/AOT_stimuli/rescaled_final/0659_rv.mp4	0.0	250.0229790210724	0.09952497482299805
47	216.87345600128174	fix_pre	0		120	45.0	2.5	/experiments/AOT/AOT_stimuli/rescaled_final/2009_fw.mp4	0.0	250.12250399589539	1.0004770755767822
47	217.45730900764465	pulse	0	t		45.0	2.5	/experiments/AOT/AOT_stimuli/rescaled_final/2009_fw.mp4	0.0	250.7063570022583	
47	217.87393307685852	movie	1		248	45.0	2.5	/experiments/AOT/AOT_stimuli/rescaled_final/2009_fw.mp4	0.0	251.12298107147217	2.4998669624328613
47	219.05740904808044	pulse	1	t		45.0	2.5	/experiments/AOT/AOT_stimuli/rescaled_final/2009_fw.mp4	0.0	252.3064570426941	
47	220.37380003929138	fix_post	2		12	45.0	2.5	/experiments/AOT/AOT_stimuli/rescaled_final/2009_fw.mp4	0.0	253.62284803390503	0.10016202926635742
48	220.47396206855774	fix_pre	0		120	46.0	2.5	/experiments/AOT/AOT_stimuli/rescaled_final/0230_rv.mp4	0.0	253.7230100631714	0.9998269081115723
48	220.65733790397644	pulse	0	t		46.0	2.5	/experiments/AOT/AOT_stimuli/rescaled_final/0230_rv.mp4	0.0	253.9063858985901	
48	221.4737889766693	movie	1		246	46.0	2.5	/experiments/AOT/AOT_stimuli/rescaled_final/0230_rv.mp4	0.0	254.72283697128296	2.500080108642578
48	222.2573299407959	pulse	1	t		46.0	2.5	/experiments/AOT/AOT_stimuli/rescaled_final/0230_rv.mp4	0.0	255.50637793540955	
48	223.8556890487671	pulse	1	t		46.0	2.5	/experiments/AOT/AOT_stimuli/rescaled_final/0230_rv.mp4	0.0	257.10473704338074	
48	223.9738690853119	fix_post	2		12	46.0	2.5	/experiments/AOT/AOT_stimuli/rescaled_final/0230_rv.mp4	0.0	257.22291707992554	0.09997892379760742
49	224.0738480091095	fix_pre	0		120	47.0	2.5	blank	1.0	257.32289600372314	0.9995770454406738
49	225.07342505455017	movie	1		300	47.0	2.5	blank	1.0	258.3224730491638	2.5004830360412598
49	225.45740389823914	pulse	1	t		47.0	2.5	blank	1.0	258.7064518928528	
49	227.057382106781	pulse	1	t		47.0	2.5	blank	1.0	260.30643010139465	
49	227.57390809059143	fix_post	2		12	47.0	2.5	blank	1.0	260.8229560852051	0.09949398040771484
50	227.67340207099915	fix_pre	0		119	48.0	2.5	/experiments/AOT/AOT_stimuli/rescaled_final/1314_rv.mp4	0.0	260.9224500656128	0.9920568466186523
50	228.65737390518188	pulse	0	t		48.0	2.5	/experiments/AOT/AOT_stimuli/rescaled_final/1314_rv.mp4	0.0	261.90642189979553	
50	228.6654589176178	movie	1		244	48.0	2.5	/experiments/AOT/AOT_stimuli/rescaled_final/1314_rv.mp4	0.0	261.91450691223145	2.507874011993408
50	230.2569179534912	pulse	1	t		48.0	2.5	/experiments/AOT/AOT_stimuli/rescaled_final/1314_rv.mp4	0.0	263.50596594810486	
50	231.1733329296112	fix_post	2		12	48.0	2.5	/experiments/AOT/AOT_stimuli/rescaled_final/1314_rv.mp4	0.0	264.42238092422485	0.1004800796508789
51	231.27381300926208	fix_pre	0		120	49.0	2.5	/experiments/AOT/AOT_stimuli/rescaled_final/1057_rv.mp4	0.0	264.52286100387573	0.9999868869781494
51	231.85720491409302	pulse	0	t		49.0	2.5	/experiments/AOT/AOT_stimuli/rescaled_final/1057_rv.mp4	0.0	265.10625290870667	
51	232.27379989624023	movie	1		244	49.0	2.5	/experiments/AOT/AOT_stimuli/rescaled_final/1057_rv.mp4	0.0	265.5228478908539	2.5000150203704834
51	233.4573678970337	pulse	1	t		49.0	2.5	/experiments/AOT/AOT_stimuli/rescaled_final/1057_rv.mp4	0.0	266.70641589164734	
51	234.77381491661072	fix_post	2		12	49.0	2.5	/experiments/AOT/AOT_stimuli/rescaled_final/1057_rv.mp4	0.0	268.02286291122437	0.10001707077026367
52	234.87383198738098	fix_pre	0		120	50.0	2.5	/experiments/AOT/AOT_stimuli/rescaled_final/1581_rv.mp4	0.0	268.12287998199463	1.000035047531128
52	235.05732011795044	pulse	0	t		50.0	2.5	/experiments/AOT/AOT_stimuli/rescaled_final/1581_rv.mp4	0.0	268.3063681125641	
52	235.8738670349121	movie	1		248	50.0	2.5	/experiments/AOT/AOT_stimuli/rescaled_final/1581_rv.mp4	0.0	269.12291502952576	2.4997129440307617
52	236.65730690956116	pulse	1	t		50.0	2.5	/experiments/AOT/AOT_stimuli/rescaled_final/1581_rv.mp4	0.0	269.9063549041748	
52	238.2570219039917	pulse	1	t		50.0	2.5	/experiments/AOT/AOT_stimuli/rescaled_final/1581_rv.mp4	0.0	271.50606989860535	
52	238.37357997894287	fix_post	2		12	50.0	2.5	/experiments/AOT/AOT_stimuli/rescaled_final/1581_rv.mp4	0.0	271.6226279735565	0.09986996650695801
53	238.47344994544983	fix_pre	0		120	51.0	2.5	/experiments/AOT/AOT_stimuli/rescaled_final/0018_rv.mp4	0.0	271.7224979400635	1.0001411437988281
53	239.47359108924866	movie	1		246	51.0	2.5	/experiments/AOT/AOT_stimuli/rescaled_final/0018_rv.mp4	0.0	272.7226390838623	2.5001778602600098
53	239.85656809806824	pulse	1	t		51.0	2.5	/experiments/AOT/AOT_stimuli/rescaled_final/0018_rv.mp4	0.0	273.1056160926819	
53	241.4572730064392	pulse	1	t		51.0	2.5	/experiments/AOT/AOT_stimuli/rescaled_final/0018_rv.mp4	0.0	274.70632100105286	
53	241.97376894950867	fix_post	2		12	51.0	2.5	/experiments/AOT/AOT_stimuli/rescaled_final/0018_rv.mp4	0.0	275.2228169441223	0.10000205039978027
54	242.07377099990845	fix_pre	0		119	52.0	2.5	/experiments/AOT/AOT_stimuli/rescaled_final/1729_rv.mp4	0.0	275.3228189945221	0.9917008876800537
54	243.0573170185089	pulse	0	t		52.0	2.5	/experiments/AOT/AOT_stimuli/rescaled_final/1729_rv.mp4	0.0	276.30636501312256	
54	243.0654718875885	movie	1		247	52.0	2.5	/experiments/AOT/AOT_stimuli/rescaled_final/1729_rv.mp4	0.0	276.31451988220215	2.5083281993865967
54	244.65869212150574	pulse	1	t		52.0	2.5	/experiments/AOT/AOT_stimuli/rescaled_final/1729_rv.mp4	0.0	277.9077401161194	
54	245.5738000869751	fix_post	2		12	52.0	2.5	/experiments/AOT/AOT_stimuli/rescaled_final/1729_rv.mp4	0.0	278.82284808158875	0.09958386421203613
55	245.67338395118713	fix_pre	0		120	53.0	2.5	/experiments/AOT/AOT_stimuli/rescaled_final/1977_rv.mp4	0.0	278.9224319458008	1.0003409385681152
55	246.25716996192932	pulse	0	t		53.0	2.5	/experiments/AOT/AOT_stimuli/rescaled_final/1977_rv.mp4	0.0	279.50621795654297	
55	246.67372488975525	movie	1		246	53.0	2.5	/experiments/AOT/AOT_stimuli/rescaled_final/1977_rv.mp4	0.0	279.9227728843689	2.500044107437134
55	247.8572759628296	pulse	1	t		53.0	2.5	/experiments/AOT/AOT_stimuli/rescaled_final/1977_rv.mp4	0.0	281.10632395744324	
55	249.17376899719238	fix_post	2		12	53.0	2.5	/experiments/AOT/AOT_stimuli/rescaled_final/1977_rv.mp4	0.0	282.42281699180603	0.09993505477905273
56	249.27370405197144	fix_pre	0		120	54.0	2.5	/experiments/AOT/AOT_stimuli/rescaled_final/0691_fw.mp4	0.0	282.5227520465851	0.9996919631958008
56	249.45720505714417	pulse	0	t		54.0	2.5	/experiments/AOT/AOT_stimuli/rescaled_final/0691_fw.mp4	0.0	282.7062530517578	
56	250.27339601516724	movie	1		245	54.0	2.5	/experiments/AOT/AOT_stimuli/rescaled_final/0691_fw.mp4	0.0	283.5224440097809	2.499861001968384
56	251.05722403526306	pulse	1	t		54.0	2.5	/experiments/AOT/AOT_stimuli/rescaled_final/0691_fw.mp4	0.0	284.3062720298767	
56	252.6556360721588	pulse	1	t		54.0	2.5	/experiments/AOT/AOT_stimuli/rescaled_final/0691_fw.mp4	0.0	285.90468406677246	
56	252.77325701713562	fix_post	2		12	54.0	2.5	/experiments/AOT/AOT_stimuli/rescaled_final/0691_fw.mp4	0.0	286.02230501174927	0.10004305839538574
57	252.873300075531	fix_pre	0		120	55.0	2.5	blank	1.0	286.12234807014465	1.000411033630371
57	253.87371110916138	movie	1		300	55.0	2.5	blank	1.0	287.122759103775	2.4998888969421387
57	254.25722694396973	pulse	1	t		55.0	2.5	blank	1.0	287.5062749385834	
57	255.8571720123291	pulse	1	t		55.0	2.5	blank	1.0	289.10622000694275	
57	256.3736000061035	fix_post	2		12	55.0	2.5	blank	1.0	289.62264800071716	0.10006308555603027
58	256.47366309165955	fix_pre	0		119	56.0	2.5	/experiments/AOT/AOT_stimuli/rescaled_final/0098_rv.mp4	0.0	289.7227110862732	0.9917140007019043
58	257.4570949077606	pulse	0	t		56.0	2.5	/experiments/AOT/AOT_stimuli/rescaled_final/0098_rv.mp4	0.0	290.70614290237427	
58	257.46537709236145	movie	1		249	56.0	2.5	/experiments/AOT/AOT_stimuli/rescaled_final/0098_rv.mp4	0.0	290.7144250869751	2.5082550048828125
58	259.05643105506897	pulse	1	t		56.0	2.5	/experiments/AOT/AOT_stimuli/rescaled_final/0098_rv.mp4	0.0	292.3054790496826	
58	259.97363209724426	fix_post	2		12	56.0	2.5	/experiments/AOT/AOT_stimuli/rescaled_final/0098_rv.mp4	0.0	293.2226800918579	0.10002994537353516
59	260.0736620426178	fix_pre	0		120	57.0	2.5	/experiments/AOT/AOT_stimuli/rescaled_final/0094_fw.mp4	0.0	293.32271003723145	0.9999549388885498
59	260.6572449207306	pulse	0	t		57.0	2.5	/experiments/AOT/AOT_stimuli/rescaled_final/0094_fw.mp4	0.0	293.90629291534424	
59	261.07361698150635	movie	1		246	57.0	2.5	/experiments/AOT/AOT_stimuli/rescaled_final/0094_fw.mp4	0.0	294.32266497612	2.5000040531158447
59	262.2572069168091	pulse	1	t		57.0	2.5	/experiments/AOT/AOT_stimuli/rescaled_final/0094_fw.mp4	0.0	295.50625491142273	
59	263.5736210346222	fix_post	2		12	57.0	2.5	/experiments/AOT/AOT_stimuli/rescaled_final/0094_fw.mp4	0.0	296.82266902923584	0.0999910831451416
60	263.67361211776733	fix_pre	0		120	58.0	2.5	/experiments/AOT/AOT_stimuli/rescaled_final/1739_fw.mp4	0.0	296.922660112381	1.0000050067901611
60	263.8571400642395	pulse	0	t		58.0	2.5	/experiments/AOT/AOT_stimuli/rescaled_final/1739_fw.mp4	0.0	297.10618805885315	
60	264.6736171245575	movie	1		243	58.0	2.5	/experiments/AOT/AOT_stimuli/rescaled_final/1739_fw.mp4	0.0	297.92266511917114	2.499562978744507
60	265.4571850299835	pulse	1	t		58.0	2.5	/experiments/AOT/AOT_stimuli/rescaled_final/1739_fw.mp4	0.0	298.70623302459717	
60	267.0554060935974	pulse	1	t		58.0	2.5	/experiments/AOT/AOT_stimuli/rescaled_final/1739_fw.mp4	0.0	300.30445408821106	
60	267.173180103302	fix_post	2		12	58.0	2.5	/experiments/AOT/AOT_stimuli/rescaled_final/1739_fw.mp4	0.0	300.42222809791565	0.10040879249572754
61	267.27358889579773	fix_pre	0		120	59.0	2.5	/experiments/AOT/AOT_stimuli/rescaled_final/0230_fw.mp4	0.0	300.5226368904114	1.0000321865081787
61	268.2736210823059	movie	1		243	59.0	2.5	/experiments/AOT/AOT_stimuli/rescaled_final/0230_fw.mp4	0.0	301.52266907691956	2.499959945678711
61	268.6567690372467	pulse	1	t		59.0	2.5	/experiments/AOT/AOT_stimuli/rescaled_final/0230_fw.mp4	0.0	301.90581703186035	
61	270.25707507133484	pulse	1	t		59.0	2.5	/experiments/AOT/AOT_stimuli/rescaled_final/0230_fw.mp4	0.0	303.5061230659485	
61	270.7735810279846	fix_post	2		12	59.0	2.5	/experiments/AOT/AOT_stimuli/rescaled_final/0230_fw.mp4	0.0	304.02262902259827	0.09998607635498047
62	270.8735671043396	fix_pre	0		119	60.0	2.5	/experiments/AOT/AOT_stimuli/rescaled_final/1895_rv.mp4	0.0	304.12261509895325	0.99167799949646
62	271.85709500312805	pulse	0	t		60.0	2.5	/experiments/AOT/AOT_stimuli/rescaled_final/1895_rv.mp4	0.0	305.1061429977417	
62	271.86524510383606	movie	1		247	60.0	2.5	/experiments/AOT/AOT_stimuli/rescaled_final/1895_rv.mp4	0.0	305.1142930984497	2.508335828781128
62	273.4573709964752	pulse	1	t		60.0	2.5	/experiments/AOT/AOT_stimuli/rescaled_final/1895_rv.mp4	0.0	306.70641899108887	
62	274.3735809326172	fix_post	2		12	60.0	2.5	/experiments/AOT/AOT_stimuli/rescaled_final/1895_rv.mp4	0.0	307.62262892723083	0.10003018379211426
63	274.4736111164093	fix_pre	0		120	61.0	2.5	/experiments/AOT/AOT_stimuli/rescaled_final/1117_rv.mp4	0.0	307.72265911102295	0.9995429515838623
63	275.0570659637451	pulse	0	t		61.0	2.5	/experiments/AOT/AOT_stimuli/rescaled_final/1117_rv.mp4	0.0	308.30611395835876	
63	275.47315406799316	movie	1		243	61.0	2.5	/experiments/AOT/AOT_stimuli/rescaled_final/1117_rv.mp4	0.0	308.7222020626068	2.500480890274048
63	276.6571741104126	pulse	1	t		61.0	2.5	/experiments/AOT/AOT_stimuli/rescaled_final/1117_rv.mp4	0.0	309.90622210502625	
63	277.9736349582672	fix_post	2		12	61.0	2.5	/experiments/AOT/AOT_stimuli/rescaled_final/1117_rv.mp4	0.0	311.22268295288086	0.0995631217956543
64	278.07319808006287	fix_pre	0		120	62.0	2.5	/experiments/AOT/AOT_stimuli/rescaled_final/1818_fw.mp4	0.0	311.3222460746765	0.9999330043792725
64	278.2570331096649	pulse	0	t		62.0	2.5	/experiments/AOT/AOT_stimuli/rescaled_final/1818_fw.mp4	0.0	311.50608110427856	
64	279.07313108444214	movie	1		243	62.0	2.5	/experiments/AOT/AOT_stimuli/rescaled_final/1818_fw.mp4	0.0	312.3221790790558	2.499979019165039
64	279.8570671081543	pulse	1	t		62.0	2.5	/experiments/AOT/AOT_stimuli/rescaled_final/1818_fw.mp4	0.0	313.10611510276794	
64	281.45553398132324	pulse	1	t		62.0	2.5	/experiments/AOT/AOT_stimuli/rescaled_final/1818_fw.mp4	0.0	314.7045819759369	
64	281.5731101036072	fix_post	2		12	62.0	2.5	/experiments/AOT/AOT_stimuli/rescaled_final/1818_fw.mp4	0.0	314.8221580982208	0.10039496421813965
65	281.6735050678253	fix_pre	0		120	63.0	2.5	blank	1.0	314.92255306243896	0.9999959468841553
65	282.6735010147095	movie	1		300	63.0	2.5	blank	1.0	315.9225490093231	2.5000059604644775
65	283.05709195137024	pulse	1	t		63.0	2.5	blank	1.0	316.3061399459839	
65	284.65703296661377	pulse	1	t		63.0	2.5	blank	1.0	317.9060809612274	
65	285.17350697517395	fix_post	2		12	63.0	2.5	blank	1.0	318.4225549697876	0.09998393058776855
66	285.2734909057617	fix_pre	0		119	64.0	2.5	/experiments/AOT/AOT_stimuli/rescaled_final/0369_rv.mp4	0.0	318.52253890037537	0.9917361736297607
66	286.2570300102234	pulse	0	t		64.0	2.5	/experiments/AOT/AOT_stimuli/rescaled_final/0369_rv.mp4	0.0	319.50607800483704	
66	286.2652270793915	movie	1		245	64.0	2.5	/experiments/AOT/AOT_stimuli/rescaled_final/0369_rv.mp4	0.0	319.5142750740051	2.5078649520874023
66	287.85679602622986	pulse	1	t		64.0	2.5	/experiments/AOT/AOT_stimuli/rescaled_final/0369_rv.mp4	0.0	321.1058440208435	
66	288.7730920314789	fix_post	2		12	64.0	2.5	/experiments/AOT/AOT_stimuli/rescaled_final/0369_rv.mp4	0.0	322.02214002609253	0.10049796104431152
67	288.8735899925232	fix_pre	0		120	65.0	2.5	/experiments/AOT/AOT_stimuli/rescaled_final/1066_fw.mp4	0.0	322.12263798713684	0.99993896484375
67	289.4571371078491	pulse	0	t		65.0	2.5	/experiments/AOT/AOT_stimuli/rescaled_final/1066_fw.mp4	0.0	322.70618510246277	
67	289.87352895736694	movie	1		244	65.0	2.5	/experiments/AOT/AOT_stimuli/rescaled_final/1066_fw.mp4	0.0	323.1225769519806	2.4995219707489014
67	291.05708408355713	pulse	1	t		65.0	2.5	/experiments/AOT/AOT_stimuli/rescaled_final/1066_fw.mp4	0.0	324.3061320781708	
67	292.37305092811584	fix_post	2		12	65.0	2.5	/experiments/AOT/AOT_stimuli/rescaled_final/1066_fw.mp4	0.0	325.6220989227295	0.10050797462463379
68	292.4735589027405	fix_pre	0		120	66.0	2.5	/experiments/AOT/AOT_stimuli/rescaled_final/1304_rv.mp4	0.0	325.7226068973541	0.9995341300964355
68	292.65710711479187	pulse	0	t		66.0	2.5	/experiments/AOT/AOT_stimuli/rescaled_final/1304_rv.mp4	0.0	325.9061551094055	
68	293.4730930328369	movie	1		244	66.0	2.5	/experiments/AOT/AOT_stimuli/rescaled_final/1304_rv.mp4	0.0	326.72214102745056	2.500748872756958
68	294.25658893585205	pulse	1	t		66.0	2.5	/experiments/AOT/AOT_stimuli/rescaled_final/1304_rv.mp4	0.0	327.5056369304657	
68	295.8553640842438	pulse	1	t		66.0	2.5	/experiments/AOT/AOT_stimuli/rescaled_final/1304_rv.mp4	0.0	329.1044120788574	
68	295.9738419055939	fix_post	2		12	66.0	2.5	/experiments/AOT/AOT_stimuli/rescaled_final/1304_rv.mp4	0.0	329.2228899002075	0.09957098960876465
69	296.07341289520264	fix_pre	0		120	67.0	2.5	/experiments/AOT/AOT_stimuli/rescaled_final/0988_rv.mp4	0.0	329.3224608898163	1.0001020431518555
69	297.0735149383545	movie	1		242	67.0	2.5	/experiments/AOT/AOT_stimuli/rescaled_final/0988_rv.mp4	0.0	330.32256293296814	2.4995009899139404
69	297.45648193359375	pulse	1	t		67.0	2.5	/experiments/AOT/AOT_stimuli/rescaled_final/0988_rv.mp4	0.0	330.7055299282074	
69	299.0569529533386	pulse	1	t		67.0	2.5	/experiments/AOT/AOT_stimuli/rescaled_final/0988_rv.mp4	0.0	332.30600094795227	
69	299.57301592826843	fix_post	2		12	67.0	2.5	/experiments/AOT/AOT_stimuli/rescaled_final/0988_rv.mp4	0.0	332.8220639228821	0.10002708435058594
70	299.673043012619	fix_pre	0		119	68.0	2.5	/experiments/AOT/AOT_stimuli/rescaled_final/1631_rv.mp4	0.0	332.92209100723267	0.992211103439331
70	300.65707206726074	pulse	0	t		68.0	2.5	/experiments/AOT/AOT_stimuli/rescaled_final/1631_rv.mp4	0.0	333.9061200618744	
70	300.66525411605835	movie	1		244	68.0	2.5	/experiments/AOT/AOT_stimuli/rescaled_final/1631_rv.mp4	0.0	333.914302110672	2.5081839561462402
70	302.2567210197449	pulse	1	t		68.0	2.5	/experiments/AOT/AOT_stimuli/rescaled_final/1631_rv.mp4	0.0	335.5057690143585	
70	303.1734380722046	fix_post	2		12	68.0	2.5	/experiments/AOT/AOT_stimuli/rescaled_final/1631_rv.mp4	0.0	336.42248606681824	0.09997797012329102
71	303.2734160423279	fix_pre	0		120	69.0	2.5	blank	1.0	336.5224640369415	1.0000989437103271
71	303.85690808296204	pulse	0	t		69.0	2.5	blank	1.0	337.1059560775757	
71	304.2735149860382	movie	1		300	69.0	2.5	blank	1.0	337.52256298065186	2.499861001968384
71	305.45698404312134	pulse	1	t		69.0	2.5	blank	1.0	338.706032037735	
71	306.7733759880066	fix_post	2		12	69.0	2.5	blank	1.0	340.02242398262024	0.09956192970275879
72	306.87293791770935	fix_pre	0		120	70.0	2.5	/experiments/AOT/AOT_stimuli/rescaled_final/1854_rv.mp4	0.0	340.121985912323	1.0004701614379883
72	307.0568940639496	pulse	0	t		70.0	2.5	/experiments/AOT/AOT_stimuli/rescaled_final/1854_rv.mp4	0.0	340.30594205856323	
72	307.87340807914734	movie	1		243	70.0	2.5	/experiments/AOT/AOT_stimuli/rescaled_final/1854_rv.mp4	0.0	341.122456073761	2.499959945678711
72	308.6568560600281	pulse	1	t		70.0	2.5	/experiments/AOT/AOT_stimuli/rescaled_final/1854_rv.mp4	0.0	341.9059040546417	
72	310.25521898269653	pulse	1	t		70.0	2.5	/experiments/AOT/AOT_stimuli/rescaled_final/1854_rv.mp4	0.0	343.5042669773102	
72	310.37336802482605	fix_post	2		12	70.0	2.5	/experiments/AOT/AOT_stimuli/rescaled_final/1854_rv.mp4	0.0	343.6224160194397	0.1000220775604248
73	310.4733901023865	fix_pre	0		120	71.0	2.5	/experiments/AOT/AOT_stimuli/rescaled_final/0167_rv.mp4	0.0	343.7224380970001	0.9999308586120605
73	311.47332096099854	movie	1		244	71.0	2.5	/experiments/AOT/AOT_stimuli/rescaled_final/0167_rv.mp4	0.0	344.7223689556122	2.4996390342712402
73	311.8570280075073	pulse	1	t		71.0	2.5	/experiments/AOT/AOT_stimuli/rescaled_final/0167_rv.mp4	0.0	345.106076002121	
73	313.45689511299133	pulse	1	t		71.0	2.5	/experiments/AOT/AOT_stimuli/rescaled_final/0167_rv.mp4	0.0	346.705943107605	
73	313.9729599952698	fix_post	2		12	71.0	2.5	/experiments/AOT/AOT_stimuli/rescaled_final/0167_rv.mp4	0.0	347.2220079898834	0.10043191909790039
74	314.0733919143677	fix_pre	0		119	72.0	2.5	/experiments/AOT/AOT_stimuli/rescaled_final/1304_fw.mp4	0.0	347.3224399089813	0.9916560649871826
74	315.0569109916687	pulse	0	t		72.0	2.5	/experiments/AOT/AOT_stimuli/rescaled_final/1304_fw.mp4	0.0	348.30595898628235	
74	315.06504797935486	movie	1		246	72.0	2.5	/experiments/AOT/AOT_stimuli/rescaled_final/1304_fw.mp4	0.0	348.3140959739685	2.5084149837493896
74	316.6562728881836	pulse	1	t		72.0	2.5	/experiments/AOT/AOT_stimuli/rescaled_final/1304_fw.mp4	0.0	349.90532088279724	
74	317.57346296310425	fix_post	2		12	72.0	2.5	/experiments/AOT/AOT_stimuli/rescaled_final/1304_fw.mp4	0.0	350.8225109577179	0.09986996650695801
75	317.6733329296112	fix_pre	0		120	73.0	2.5	/experiments/AOT/AOT_stimuli/rescaled_final/1484_rv.mp4	0.0	350.92238092422485	1.0000810623168945
75	318.2569479942322	pulse	0	t		73.0	2.5	/experiments/AOT/AOT_stimuli/rescaled_final/1484_rv.mp4	0.0	351.5059959888458	
75	318.6734139919281	movie	1		243	73.0	2.5	/experiments/AOT/AOT_stimuli/rescaled_final/1484_rv.mp4	0.0	351.92246198654175	2.499453067779541
75	319.8569049835205	pulse	1	t		73.0	2.5	/experiments/AOT/AOT_stimuli/rescaled_final/1484_rv.mp4	0.0	353.10595297813416	
75	321.17286705970764	fix_post	2		12	73.0	2.5	/experiments/AOT/AOT_stimuli/rescaled_final/1484_rv.mp4	0.0	354.4219150543213	0.10048794746398926
76	321.27335500717163	fix_pre	0		120	74.0	2.5	/experiments/AOT/AOT_stimuli/rescaled_final/1020_rv.mp4	0.0	354.5224030017853	0.9999969005584717
76	321.4568350315094	pulse	0	t		74.0	2.5	/experiments/AOT/AOT_stimuli/rescaled_final/1020_rv.mp4	0.0	354.70588302612305	
76	322.2733519077301	movie	1		246	74.0	2.5	/experiments/AOT/AOT_stimuli/rescaled_final/1020_rv.mp4	0.0	355.52239990234375	2.4999990463256836
76	323.05685806274414	pulse	1	t		74.0	2.5	/experiments/AOT/AOT_stimuli/rescaled_final/1020_rv.mp4	0.0	356.3059060573578	
76	324.6563620567322	pulse	1	t		74.0	2.5	/experiments/AOT/AOT_stimuli/rescaled_final/1020_rv.mp4	0.0	357.9054100513458	
76	324.7733509540558	fix_post	2		12	74.0	2.5	/experiments/AOT/AOT_stimuli/rescaled_final/1020_rv.mp4	0.0	358.02239894866943	0.0999441146850586
77	324.87329506874084	fix_pre	0		120	75.0	2.5	/experiments/AOT/AOT_stimuli/rescaled_final/1854_fw.mp4	0.0	358.1223430633545	1.000093936920166
77	325.873389005661	movie	1		243	75.0	2.5	/experiments/AOT/AOT_stimuli/rescaled_final/1854_fw.mp4	0.0	359.12243700027466	2.4998939037323
77	326.25638604164124	pulse	1	t		75.0	2.5	/experiments/AOT/AOT_stimuli/rescaled_final/1854_fw.mp4	0.0	359.5054340362549	
77	327.85683393478394	pulse	1	t		75.0	2.5	/experiments/AOT/AOT_stimuli/rescaled_final/1854_fw.mp4	0.0	361.1058819293976	
77	328.3732829093933	fix_post	2		12	75.0	2.5	/experiments/AOT/AOT_stimuli/rescaled_final/1854_fw.mp4	0.0	361.62233090400696	0.10003304481506348
78	328.4733159542084	fix_pre	0		119	76.0	2.5	/experiments/AOT/AOT_stimuli/rescaled_final/1351_rv.mp4	0.0	361.722363948822	0.9916901588439941
78	329.4568130970001	pulse	0	t		76.0	2.5	/experiments/AOT/AOT_stimuli/rescaled_final/1351_rv.mp4	0.0	362.70586109161377	
78	329.46500611305237	movie	1		245	76.0	2.5	/experiments/AOT/AOT_stimuli/rescaled_final/1351_rv.mp4	0.0	362.714054107666	2.508314847946167
78	331.0583109855652	pulse	1	t		76.0	2.5	/experiments/AOT/AOT_stimuli/rescaled_final/1351_rv.mp4	0.0	364.30735898017883	
78	331.97332096099854	fix_post	2		12	76.0	2.5	/experiments/AOT/AOT_stimuli/rescaled_final/1351_rv.mp4	0.0	365.2223689556122	0.10000801086425781
79	332.0733289718628	fix_pre	0		120	77.0	2.5	blank	1.0	365.32237696647644	0.9999909400939941
79	332.65686297416687	pulse	0	t		77.0	2.5	blank	1.0	365.9059109687805	
79	333.0733199119568	movie	1		300	77.0	2.5	blank	1.0	366.32236790657043	2.4995341300964355
79	334.2568709850311	pulse	1	t		77.0	2.5	blank	1.0	367.5059189796448	
79	335.5728540420532	fix_post	2		12	77.0	2.5	blank	1.0	368.82190203666687	0.10046792030334473
80	335.67332196235657	fix_pre	0		120	78.0	2.5	/experiments/AOT/AOT_stimuli/rescaled_final/1436_rv.mp4	0.0	368.9223699569702	1.0001249313354492
80	335.85682010650635	pulse	0	t		78.0	2.5	/experiments/AOT/AOT_stimuli/rescaled_final/1436_rv.mp4	0.0	369.10586810112	
80	336.673446893692	movie	1		244	78.0	2.5	/experiments/AOT/AOT_stimuli/rescaled_final/1436_rv.mp4	0.0	369.92249488830566	2.5007150173187256
80	337.4568090438843	pulse	1	t		78.0	2.5	/experiments/AOT/AOT_stimuli/rescaled_final/1436_rv.mp4	0.0	370.7058570384979	
80	339.0554919242859	pulse	1	t		78.0	2.5	/experiments/AOT/AOT_stimuli/rescaled_final/1436_rv.mp4	0.0	372.30453991889954	
80	339.17416191101074	fix_post	2		12	78.0	2.5	/experiments/AOT/AOT_stimuli/rescaled_final/1436_rv.mp4	0.0	372.4232099056244	0.09913301467895508
81	339.2732949256897	fix_pre	0		120	79.0	2.5	/experiments/AOT/AOT_stimuli/rescaled_final/1977_fw.mp4	0.0	372.52234292030334	0.9999470710754395
81	340.27324199676514	movie	1		246	79.0	2.5	/experiments/AOT/AOT_stimuli/rescaled_final/1977_fw.mp4	0.0	373.5222899913788	2.5000410079956055
81	340.656476020813	pulse	1	t		79.0	2.5	/experiments/AOT/AOT_stimuli/rescaled_final/1977_fw.mp4	0.0	373.90552401542664	
81	342.2567980289459	pulse	1	t		79.0	2.5	/experiments/AOT/AOT_stimuli/rescaled_final/1977_fw.mp4	0.0	375.50584602355957	
81	342.77328300476074	fix_post	2		12	79.0	2.5	/experiments/AOT/AOT_stimuli/rescaled_final/1977_fw.mp4	0.0	376.0223309993744	0.09959197044372559
82	342.87287497520447	fix_pre	0		119	80.0	2.5	/experiments/AOT/AOT_stimuli/rescaled_final/0821_fw.mp4	0.0	376.1219229698181	0.9921331405639648
82	343.8567900657654	pulse	0	t		80.0	2.5	/experiments/AOT/AOT_stimuli/rescaled_final/0821_fw.mp4	0.0	377.105838060379	
82	343.86500811576843	movie	1		245	80.0	2.5	/experiments/AOT/AOT_stimuli/rescaled_final/0821_fw.mp4	0.0	377.1140561103821	2.508232831954956
82	345.4565739631653	pulse	1	t		80.0	2.5	/experiments/AOT/AOT_stimuli/rescaled_final/0821_fw.mp4	0.0	378.70562195777893	
82	346.3732409477234	fix_post	2		12	80.0	2.5	/experiments/AOT/AOT_stimuli/rescaled_final/0821_fw.mp4	0.0	379.62228894233704	0.10008716583251953
83	346.4733281135559	fix_pre	0		120	81.0	2.5	/experiments/AOT/AOT_stimuli/rescaled_final/0900_fw.mp4	0.0	379.72237610816956	0.9998779296875
83	347.05676102638245	pulse	0	t		81.0	2.5	/experiments/AOT/AOT_stimuli/rescaled_final/0900_fw.mp4	0.0	380.3058090209961	
83	347.4732060432434	movie	1		247	81.0	2.5	/experiments/AOT/AOT_stimuli/rescaled_final/0900_fw.mp4	0.0	380.72225403785706	2.5001089572906494
83	348.6568830013275	pulse	1	t		81.0	2.5	/experiments/AOT/AOT_stimuli/rescaled_final/0900_fw.mp4	0.0	381.90593099594116	
83	349.97331500053406	fix_post	2		12	81.0	2.5	/experiments/AOT/AOT_stimuli/rescaled_final/0900_fw.mp4	0.0	383.2223629951477	0.09997010231018066
84	350.07328510284424	fix_pre	0		120	82.0	2.5	blank	1.0	383.3223330974579	1.0001168251037598
84	350.2567648887634	pulse	0	t		82.0	2.5	blank	1.0	383.5058128833771	
84	351.073401927948	movie	1		300	82.0	2.5	blank	1.0	384.32244992256165	2.4998371601104736
84	351.8569860458374	pulse	1	t		82.0	2.5	blank	1.0	385.10603404045105	
84	353.4567708969116	pulse	1	t		82.0	2.5	blank	1.0	386.70581889152527	
84	353.5732390880585	fix_post	2		12	82.0	2.5	blank	1.0	386.8222870826721	0.09999394416809082
85	353.67323303222656	fix_pre	0		120	83.0	2.5	/experiments/AOT/AOT_stimuli/rescaled_final/0899_rv.mp4	0.0	386.9222810268402	0.9996469020843506
85	354.6728799343109	movie	1		246	83.0	2.5	/experiments/AOT/AOT_stimuli/rescaled_final/0899_rv.mp4	0.0	387.92192792892456	2.499880075454712
85	355.0562410354614	pulse	1	t		83.0	2.5	/experiments/AOT/AOT_stimuli/rescaled_final/0899_rv.mp4	0.0	388.3052890300751	
85	356.6566059589386	pulse	1	t		83.0	2.5	/experiments/AOT/AOT_stimuli/rescaled_final/0899_rv.mp4	0.0	389.90565395355225	
85	357.1727600097656	fix_post	2		12	83.0	2.5	/experiments/AOT/AOT_stimuli/rescaled_final/0899_rv.mp4	0.0	390.4218080043793	0.10040497779846191
87	357.2731649875641	stim	0		1716					390.52221298217773	14.299998998641968
87	358.2566409111023	pulse	0	t						391.50568890571594	
87	359.85660696029663	pulse	0	t						393.1056549549103	
87	361.456689119339	pulse	0	t						394.70573711395264	
87	363.0566520690918	pulse	0	t						396.30570006370544	
87	364.65665006637573	pulse	0	t						397.9056980609894	
87	366.25660610198975	pulse	0	t						399.5056540966034	
87	367.85661005973816	pulse	0	t						401.1056580543518	
87	369.4566090106964	pulse	0	t						402.70565700531006	
87	371.056617975235	pulse	0	t						404.30566596984863	
