trial_nr	onset	event_type	phase	response	nr_frames	movie_index	movie_duration	movie_file	blank	onset_abs	duration
0	0.20843291282653809	stim	0		66					29.379186868667603	0.549983024597168
0	0.7430059909820557	response	0	space						29.91375994682312	
1	0.758415937423706	stim	0		4237					29.92916989326477	35.32617712020874
1	36.069684982299805	pulse	0	t						65.24043893814087	
1	36.084593057632446	stim	1		1715					65.25534701347351	14.297884941101074
1	37.66415596008301	pulse	1	t						66.83490991592407	
1	39.26436495780945	pulse	1	t						68.43511891365051	
1	40.86459994316101	pulse	1	t						70.03535389900208	
1	42.46484994888306	pulse	1	t						71.63560390472412	
1	44.065046072006226	pulse	1	t						73.23580002784729	
1	45.66515302658081	pulse	1	t						74.83590698242188	
1	47.26553297042847	pulse	1	t						76.43628692626953	
1	48.865763902664185	pulse	1	t						78.03651785850525	
2	50.38247799873352	fix_pre	0		11	0.0	2.5	/experiments/knapen_AOT/AOT_stimuli/rescaled_final/1058_rv.mp4	0.0	79.55323195457458	0.0916590690612793
2	50.46603798866272	pulse	0	t		0.0	2.5	/experiments/knapen_AOT/AOT_stimuli/rescaled_final/1058_rv.mp4	0.0	79.63679194450378	
2	50.4741370677948	movie	1		245	0.0	2.5	/experiments/knapen_AOT/AOT_stimuli/rescaled_final/1058_rv.mp4	0.0	79.64489102363586	2.508713960647583
2	52.06663489341736	pulse	1	t		0.0	2.5	/experiments/knapen_AOT/AOT_stimuli/rescaled_final/1058_rv.mp4	0.0	81.23738884925842	
2	52.98285102844238	fix_post	2		12	0.0	2.5	/experiments/knapen_AOT/AOT_stimuli/rescaled_final/1058_rv.mp4	0.0	82.15360498428345	0.10000801086425781
3	53.08285903930664	fix_pre	0		120	1.0	2.5	/experiments/knapen_AOT/AOT_stimuli/rescaled_final/2107_fw.mp4	0.0	82.2536129951477	1.0001208782196045
3	53.666542053222656	pulse	0	t		1.0	2.5	/experiments/knapen_AOT/AOT_stimuli/rescaled_final/2107_fw.mp4	0.0	82.83729600906372	
3	54.082979917526245	movie	1		248	1.0	2.5	/experiments/knapen_AOT/AOT_stimuli/rescaled_final/2107_fw.mp4	0.0	83.25373387336731	2.5004050731658936
3	55.26689291000366	pulse	1	t		1.0	2.5	/experiments/knapen_AOT/AOT_stimuli/rescaled_final/2107_fw.mp4	0.0	84.43764686584473	
3	56.58338499069214	fix_post	2		12	1.0	2.5	/experiments/knapen_AOT/AOT_stimuli/rescaled_final/2107_fw.mp4	0.0	85.7541389465332	0.10001087188720703
4	56.683395862579346	fix_pre	0		120	2.0	2.5	/experiments/knapen_AOT/AOT_stimuli/rescaled_final/2036_fw.mp4	0.0	85.85414981842041	1.0001401901245117
4	56.8670129776001	pulse	0	t		2.0	2.5	/experiments/knapen_AOT/AOT_stimuli/rescaled_final/2036_fw.mp4	0.0	86.03776693344116	
4	57.68353605270386	movie	1		248	2.0	2.5	/experiments/knapen_AOT/AOT_stimuli/rescaled_final/2036_fw.mp4	0.0	86.85429000854492	2.5003769397735596
4	58.459896087646484	pulse	1	t		2.0	2.5	/experiments/knapen_AOT/AOT_stimuli/rescaled_final/2036_fw.mp4	0.0	87.63065004348755	
4	60.05987191200256	pulse	1	t		2.0	2.5	/experiments/knapen_AOT/AOT_stimuli/rescaled_final/2036_fw.mp4	0.0	89.23062586784363	
4	60.18391299247742	fix_post	2		12	2.0	2.5	/experiments/knapen_AOT/AOT_stimuli/rescaled_final/2036_fw.mp4	0.0	89.35466694831848	0.10001587867736816
5	60.283928871154785	fix_pre	0		120	3.0	2.5	/experiments/knapen_AOT/AOT_stimuli/rescaled_final/0682_fw.mp4	0.0	89.45468282699585	1.0001511573791504
5	61.284080028533936	movie	1		243	3.0	2.5	/experiments/knapen_AOT/AOT_stimuli/rescaled_final/0682_fw.mp4	0.0	90.454833984375	2.49210786819458
5	61.66872191429138	pulse	1	t		3.0	2.5	/experiments/knapen_AOT/AOT_stimuli/rescaled_final/0682_fw.mp4	0.0	90.83947587013245	
5	63.25985789299011	pulse	1	t		3.0	2.5	/experiments/knapen_AOT/AOT_stimuli/rescaled_final/0682_fw.mp4	0.0	92.43061184883118	
5	63.776187896728516	fix_post	2		12	3.0	2.5	/experiments/knapen_AOT/AOT_stimuli/rescaled_final/0682_fw.mp4	0.0	92.94694185256958	0.10000300407409668
6	63.87619090080261	fix_pre	0		119	4.0	2.5	/experiments/knapen_AOT/AOT_stimuli/rescaled_final/1639_fw.mp4	0.0	93.04694485664368	0.9917440414428711
6	64.85988807678223	pulse	0	t		4.0	2.5	/experiments/knapen_AOT/AOT_stimuli/rescaled_final/1639_fw.mp4	0.0	94.03064203262329	
6	64.86793494224548	movie	1		244	4.0	2.5	/experiments/knapen_AOT/AOT_stimuli/rescaled_final/1639_fw.mp4	0.0	94.03868889808655	2.508700132369995
6	66.46454286575317	pulse	1	t		4.0	2.5	/experiments/knapen_AOT/AOT_stimuli/rescaled_final/1639_fw.mp4	0.0	95.63529682159424	
6	67.37663507461548	fix_post	2		12	4.0	2.5	/experiments/knapen_AOT/AOT_stimuli/rescaled_final/1639_fw.mp4	0.0	96.54738903045654	0.10002398490905762
7	67.47665905952454	fix_pre	0		120	5.0	2.5	/experiments/knapen_AOT/AOT_stimuli/rescaled_final/1180_fw.mp4	0.0	96.6474130153656	1.0001637935638428
7	68.06028604507446	pulse	0	t		5.0	2.5	/experiments/knapen_AOT/AOT_stimuli/rescaled_final/1180_fw.mp4	0.0	97.23104000091553	
7	68.47682285308838	movie	1		243	5.0	2.5	/experiments/knapen_AOT/AOT_stimuli/rescaled_final/1180_fw.mp4	0.0	97.64757680892944	2.500326156616211
7	69.6606240272522	pulse	1	t		5.0	2.5	/experiments/knapen_AOT/AOT_stimuli/rescaled_final/1180_fw.mp4	0.0	98.83137798309326	
7	70.97714900970459	fix_post	2		12	5.0	2.5	/experiments/knapen_AOT/AOT_stimuli/rescaled_final/1180_fw.mp4	0.0	100.14790296554565	0.10002899169921875
8	71.07717800140381	fix_pre	0		120	6.0	2.5	/experiments/knapen_AOT/AOT_stimuli/rescaled_final/0032_rv.mp4	0.0	100.24793195724487	1.0001890659332275
8	71.26087093353271	pulse	0	t		6.0	2.5	/experiments/knapen_AOT/AOT_stimuli/rescaled_final/0032_rv.mp4	0.0	100.43162488937378	
8	72.07736706733704	movie	1		244	6.0	2.5	/experiments/knapen_AOT/AOT_stimuli/rescaled_final/0032_rv.mp4	0.0	101.2481210231781	2.5003559589385986
8	72.86105704307556	pulse	1	t		6.0	2.5	/experiments/knapen_AOT/AOT_stimuli/rescaled_final/0032_rv.mp4	0.0	102.03181099891663	
8	74.46124005317688	pulse	1	t		6.0	2.5	/experiments/knapen_AOT/AOT_stimuli/rescaled_final/0032_rv.mp4	0.0	103.63199400901794	
8	74.57772302627563	fix_post	2		12	6.0	2.5	/experiments/knapen_AOT/AOT_stimuli/rescaled_final/0032_rv.mp4	0.0	103.7484769821167	0.1000218391418457
9	74.67774486541748	fix_pre	0		120	7.0	2.5	blank	1.0	103.84849882125854	1.0001451969146729
9	75.67789006233215	movie	1		299	7.0	2.5	blank	1.0	104.84864401817322	2.4920268058776855
9	76.06147694587708	pulse	1	t		7.0	2.5	blank	1.0	105.23223090171814	
9	77.66171288490295	pulse	1	t		7.0	2.5	blank	1.0	106.83246684074402	
9	78.16991686820984	fix_post	2		12	7.0	2.5	blank	1.0	107.3406708240509	0.100006103515625
10	78.26992297172546	fix_pre	0		120	8.0	2.5	/experiments/knapen_AOT/AOT_stimuli/rescaled_final/0610_fw.mp4	0.0	107.44067692756653	1.0001699924468994
10	79.26199197769165	pulse	0	t		8.0	2.5	/experiments/knapen_AOT/AOT_stimuli/rescaled_final/0610_fw.mp4	0.0	108.43274593353271	
10	79.27009296417236	movie	1		244	8.0	2.5	/experiments/knapen_AOT/AOT_stimuli/rescaled_final/0610_fw.mp4	0.0	108.44084692001343	2.508707046508789
10	80.86282706260681	pulse	1	t		8.0	2.5	/experiments/knapen_AOT/AOT_stimuli/rescaled_final/0610_fw.mp4	0.0	110.03358101844788	
10	81.77880001068115	fix_post	2		12	8.0	2.5	/experiments/knapen_AOT/AOT_stimuli/rescaled_final/0610_fw.mp4	0.0	110.94955396652222	0.1000058650970459
11	81.8788058757782	fix_pre	0		120	9.0	2.5	/experiments/knapen_AOT/AOT_stimuli/rescaled_final/0646_rv.mp4	0.0	111.04955983161926	1.000162124633789
11	82.46259498596191	pulse	0	t		9.0	2.5	/experiments/knapen_AOT/AOT_stimuli/rescaled_final/0646_rv.mp4	0.0	111.63334894180298	
11	82.87896800041199	movie	1		245	9.0	2.5	/experiments/knapen_AOT/AOT_stimuli/rescaled_final/0646_rv.mp4	0.0	112.04972195625305	2.5003678798675537
11	84.06279802322388	pulse	1	t		9.0	2.5	/experiments/knapen_AOT/AOT_stimuli/rescaled_final/0646_rv.mp4	0.0	113.23355197906494	
11	85.37933588027954	fix_post	2		12	9.0	2.5	/experiments/knapen_AOT/AOT_stimuli/rescaled_final/0646_rv.mp4	0.0	114.5500898361206	0.09995102882385254
12	85.4792869091034	fix_pre	0		117	10.0	2.5	/experiments/knapen_AOT/AOT_stimuli/rescaled_final/0298_fw.mp4	0.0	114.65004086494446	1.000223159790039
12	85.66306805610657	pulse	0	t		10.0	2.5	/experiments/knapen_AOT/AOT_stimuli/rescaled_final/0298_fw.mp4	0.0	114.83382201194763	
12	86.47951006889343	movie	1		244	10.0	2.5	/experiments/knapen_AOT/AOT_stimuli/rescaled_final/0298_fw.mp4	0.0	115.6502640247345	2.5003488063812256
12	87.26310586929321	pulse	1	t		10.0	2.5	/experiments/knapen_AOT/AOT_stimuli/rescaled_final/0298_fw.mp4	0.0	116.43385982513428	
12	88.86561489105225	pulse	1	t		10.0	2.5	/experiments/knapen_AOT/AOT_stimuli/rescaled_final/0298_fw.mp4	0.0	118.03636884689331	
12	88.97985887527466	fix_post	2		12	10.0	2.5	/experiments/knapen_AOT/AOT_stimuli/rescaled_final/0298_fw.mp4	0.0	118.15061283111572	0.10004115104675293
13	89.07990002632141	fix_pre	0		120	11.0	2.5	/experiments/knapen_AOT/AOT_stimuli/rescaled_final/1314_rv.mp4	0.0	118.25065398216248	1.0001509189605713
13	90.08005094528198	movie	1		243	11.0	2.5	/experiments/knapen_AOT/AOT_stimuli/rescaled_final/1314_rv.mp4	0.0	119.25080490112305	2.49206805229187
13	90.46507906913757	pulse	1	t		11.0	2.5	/experiments/knapen_AOT/AOT_stimuli/rescaled_final/1314_rv.mp4	0.0	119.63583302497864	
13	92.0640139579773	pulse	1	t		11.0	2.5	/experiments/knapen_AOT/AOT_stimuli/rescaled_final/1314_rv.mp4	0.0	121.23476791381836	
13	92.57211899757385	fix_post	2		12	11.0	2.5	/experiments/knapen_AOT/AOT_stimuli/rescaled_final/1314_rv.mp4	0.0	121.74287295341492	0.0999300479888916
14	92.67204904556274	fix_pre	0		120	12.0	2.5	blank	1.0	121.84280300140381	1.000201940536499
14	93.66407203674316	pulse	0	t		12.0	2.5	blank	1.0	122.83482599258423	
14	93.67225098609924	movie	1		301	12.0	2.5	blank	1.0	122.84300494194031	2.508697986602783
14	95.2643530368805	pulse	1	t		12.0	2.5	blank	1.0	124.43510699272156	
14	96.18094897270203	fix_post	2		12	12.0	2.5	blank	1.0	125.35170292854309	0.09998703002929688
15	96.28093600273132	fix_pre	0		120	13.0	2.5	/experiments/knapen_AOT/AOT_stimuli/rescaled_final/1781_fw.mp4	0.0	125.45168995857239	1.0001749992370605
15	96.86460185050964	pulse	0	t		13.0	2.5	/experiments/knapen_AOT/AOT_stimuli/rescaled_final/1781_fw.mp4	0.0	126.03535580635071	
15	97.28111100196838	movie	1		245	13.0	2.5	/experiments/knapen_AOT/AOT_stimuli/rescaled_final/1781_fw.mp4	0.0	126.45186495780945	2.500370979309082
15	98.4608519077301	pulse	1	t		13.0	2.5	/experiments/knapen_AOT/AOT_stimuli/rescaled_final/1781_fw.mp4	0.0	127.63160586357117	
15	99.78148198127747	fix_post	2		12	13.0	2.5	/experiments/knapen_AOT/AOT_stimuli/rescaled_final/1781_fw.mp4	0.0	128.95223593711853	0.10009503364562988
16	99.8815770149231	fix_pre	0		120	14.0	2.5	/experiments/knapen_AOT/AOT_stimuli/rescaled_final/0441_rv.mp4	0.0	129.05233097076416	1.0000309944152832
16	100.06501698493958	pulse	0	t		14.0	2.5	/experiments/knapen_AOT/AOT_stimuli/rescaled_final/0441_rv.mp4	0.0	129.23577094078064	
16	100.88160800933838	movie	1		243	14.0	2.5	/experiments/knapen_AOT/AOT_stimuli/rescaled_final/0441_rv.mp4	0.0	130.05236196517944	2.500364065170288
16	101.66533589363098	pulse	1	t		14.0	2.5	/experiments/knapen_AOT/AOT_stimuli/rescaled_final/0441_rv.mp4	0.0	130.83608984947205	
16	103.26531195640564	pulse	1	t		14.0	2.5	/experiments/knapen_AOT/AOT_stimuli/rescaled_final/0441_rv.mp4	0.0	132.4360659122467	
16	103.38197207450867	fix_post	2		12	14.0	2.5	/experiments/knapen_AOT/AOT_stimuli/rescaled_final/0441_rv.mp4	0.0	132.55272603034973	0.10004496574401855
17	103.48201704025269	fix_pre	0		120	15.0	2.5	/experiments/knapen_AOT/AOT_stimuli/rescaled_final/0084_fw.mp4	0.0	132.65277099609375	1.0001709461212158
17	104.4821879863739	movie	1		243	15.0	2.5	/experiments/knapen_AOT/AOT_stimuli/rescaled_final/0084_fw.mp4	0.0	133.65294194221497	2.4920499324798584
17	104.86699199676514	pulse	1	t		15.0	2.5	/experiments/knapen_AOT/AOT_stimuli/rescaled_final/0084_fw.mp4	0.0	134.0377459526062	
17	106.46597099304199	pulse	1	t		15.0	2.5	/experiments/knapen_AOT/AOT_stimuli/rescaled_final/0084_fw.mp4	0.0	135.63672494888306	
17	106.97423791885376	fix_post	2		12	15.0	2.5	/experiments/knapen_AOT/AOT_stimuli/rescaled_final/0084_fw.mp4	0.0	136.14499187469482	0.09993314743041992
18	107.07417106628418	fix_pre	0		120	16.0	2.5	/experiments/knapen_AOT/AOT_stimuli/rescaled_final/1608_rv.mp4	0.0	136.24492502212524	1.0002288818359375
18	108.06634306907654	pulse	0	t		16.0	2.5	/experiments/knapen_AOT/AOT_stimuli/rescaled_final/1608_rv.mp4	0.0	137.2370970249176	
18	108.07439994812012	movie	1		246	16.0	2.5	/experiments/knapen_AOT/AOT_stimuli/rescaled_final/1608_rv.mp4	0.0	137.24515390396118	2.508683919906616
18	109.67123985290527	pulse	1	t		16.0	2.5	/experiments/knapen_AOT/AOT_stimuli/rescaled_final/1608_rv.mp4	0.0	138.84199380874634	
18	110.58308386802673	fix_post	2		12	16.0	2.5	/experiments/knapen_AOT/AOT_stimuli/rescaled_final/1608_rv.mp4	0.0	139.7538378238678	0.10001802444458008
19	110.68310189247131	fix_pre	0		120	17.0	2.5	/experiments/knapen_AOT/AOT_stimuli/rescaled_final/0733_fw.mp4	0.0	139.85385584831238	1.0001380443572998
19	111.25931906700134	pulse	0	t		17.0	2.5	/experiments/knapen_AOT/AOT_stimuli/rescaled_final/0733_fw.mp4	0.0	140.4300730228424	
19	111.68323993682861	movie	1		246	17.0	2.5	/experiments/knapen_AOT/AOT_stimuli/rescaled_final/0733_fw.mp4	0.0	140.85399389266968	2.5004069805145264
19	112.86700296401978	pulse	1	t		17.0	2.5	/experiments/knapen_AOT/AOT_stimuli/rescaled_final/0733_fw.mp4	0.0	142.03775691986084	
19	114.18364691734314	fix_post	2		12	17.0	2.5	/experiments/knapen_AOT/AOT_stimuli/rescaled_final/0733_fw.mp4	0.0	143.3544008731842	0.10006999969482422
20	114.28371691703796	fix_pre	0		120	18.0	2.5	/experiments/knapen_AOT/AOT_stimuli/rescaled_final/1564_rv.mp4	0.0	143.45447087287903	1.0000770092010498
20	114.4598400592804	pulse	0	t		18.0	2.5	/experiments/knapen_AOT/AOT_stimuli/rescaled_final/1564_rv.mp4	0.0	143.63059401512146	
20	115.28379392623901	movie	1		246	18.0	2.5	/experiments/knapen_AOT/AOT_stimuli/rescaled_final/1564_rv.mp4	0.0	144.45454788208008	2.5003631114959717
20	116.06007385253906	pulse	1	t		18.0	2.5	/experiments/knapen_AOT/AOT_stimuli/rescaled_final/1564_rv.mp4	0.0	145.23082780838013	
20	117.65955996513367	pulse	1	t		18.0	2.5	/experiments/knapen_AOT/AOT_stimuli/rescaled_final/1564_rv.mp4	0.0	146.83031392097473	
20	117.78415703773499	fix_post	2		12	18.0	2.5	/experiments/knapen_AOT/AOT_stimuli/rescaled_final/1564_rv.mp4	0.0	146.95491099357605	0.10000300407409668
21	117.88416004180908	fix_pre	0		120	19.0	2.5	/experiments/knapen_AOT/AOT_stimuli/rescaled_final/0656_fw.mp4	0.0	147.05491399765015	1.0001728534698486
21	118.88433289527893	movie	1		244	19.0	2.5	/experiments/knapen_AOT/AOT_stimuli/rescaled_final/0656_fw.mp4	0.0	148.05508685112	2.492115020751953
21	119.25952506065369	pulse	1	t		19.0	2.5	/experiments/knapen_AOT/AOT_stimuli/rescaled_final/0656_fw.mp4	0.0	148.43027901649475	
21	120.85985708236694	pulse	1	t		19.0	2.5	/experiments/knapen_AOT/AOT_stimuli/rescaled_final/0656_fw.mp4	0.0	150.030611038208	
21	121.37644791603088	fix_post	2		12	19.0	2.5	/experiments/knapen_AOT/AOT_stimuli/rescaled_final/0656_fw.mp4	0.0	150.54720187187195	0.10002803802490234
22	121.47647595405579	fix_pre	0		119	20.0	2.5	blank	1.0	150.64722990989685	0.9917759895324707
22	122.45997905731201	pulse	0	t		20.0	2.5	blank	1.0	151.63073301315308	
22	122.46825194358826	movie	1		301	20.0	2.5	blank	1.0	151.63900589942932	2.508669137954712
22	124.0603928565979	pulse	1	t		20.0	2.5	blank	1.0	153.23114681243896	
22	124.97692108154297	fix_post	2		12	20.0	2.5	blank	1.0	154.14767503738403	0.09999299049377441
23	125.07691407203674	fix_pre	0		120	21.0	2.5	/experiments/knapen_AOT/AOT_stimuli/rescaled_final/0387_fw.mp4	0.0	154.2476680278778	1.0001769065856934
23	125.66052198410034	pulse	0	t		21.0	2.5	/experiments/knapen_AOT/AOT_stimuli/rescaled_final/0387_fw.mp4	0.0	154.8312759399414	
23	126.07709097862244	movie	1		245	21.0	2.5	/experiments/knapen_AOT/AOT_stimuli/rescaled_final/0387_fw.mp4	0.0	155.2478449344635	2.500415086746216
23	127.26086091995239	pulse	1	t		21.0	2.5	/experiments/knapen_AOT/AOT_stimuli/rescaled_final/0387_fw.mp4	0.0	156.43161487579346	
23	128.57750606536865	fix_post	2		12	21.0	2.5	/experiments/knapen_AOT/AOT_stimuli/rescaled_final/0387_fw.mp4	0.0	157.74826002120972	0.1000068187713623
24	128.67751288414001	fix_pre	0		120	22.0	2.5	/experiments/knapen_AOT/AOT_stimuli/rescaled_final/0073_rv.mp4	0.0	157.84826683998108	1.0002670288085938
24	128.86099791526794	pulse	0	t		22.0	2.5	/experiments/knapen_AOT/AOT_stimuli/rescaled_final/0073_rv.mp4	0.0	158.031751871109	
24	129.6777799129486	movie	1		244	22.0	2.5	/experiments/knapen_AOT/AOT_stimuli/rescaled_final/0073_rv.mp4	0.0	158.84853386878967	2.5001909732818604
24	130.46122097969055	pulse	1	t		22.0	2.5	/experiments/knapen_AOT/AOT_stimuli/rescaled_final/0073_rv.mp4	0.0	159.63197493553162	
24	132.06136894226074	pulse	1	t		22.0	2.5	/experiments/knapen_AOT/AOT_stimuli/rescaled_final/0073_rv.mp4	0.0	161.2321228981018	
24	132.17797088623047	fix_post	2		12	22.0	2.5	/experiments/knapen_AOT/AOT_stimuli/rescaled_final/0073_rv.mp4	0.0	161.34872484207153	0.10000896453857422
25	132.27797985076904	fix_pre	0		119	23.0	2.5	/experiments/knapen_AOT/AOT_stimuli/rescaled_final/1301_fw.mp4	0.0	161.4487338066101	0.9918570518493652
25	133.2698369026184	movie	1		246	23.0	2.5	/experiments/knapen_AOT/AOT_stimuli/rescaled_final/1301_fw.mp4	0.0	162.44059085845947	2.5003550052642822
25	133.66180205345154	pulse	1	t		23.0	2.5	/experiments/knapen_AOT/AOT_stimuli/rescaled_final/1301_fw.mp4	0.0	162.8325560092926	
25	135.26195001602173	pulse	1	t		23.0	2.5	/experiments/knapen_AOT/AOT_stimuli/rescaled_final/1301_fw.mp4	0.0	164.4327039718628	
25	135.7701919078827	fix_post	2		12	23.0	2.5	/experiments/knapen_AOT/AOT_stimuli/rescaled_final/1301_fw.mp4	0.0	164.94094586372375	0.10000801086425781
26	135.87019991874695	fix_pre	0		120	24.0	2.5	/experiments/knapen_AOT/AOT_stimuli/rescaled_final/1955_rv.mp4	0.0	165.040953874588	1.0001330375671387
26	136.86214685440063	pulse	0	t		24.0	2.5	/experiments/knapen_AOT/AOT_stimuli/rescaled_final/1955_rv.mp4	0.0	166.0329008102417	
26	136.8703329563141	movie	1		245	24.0	2.5	/experiments/knapen_AOT/AOT_stimuli/rescaled_final/1955_rv.mp4	0.0	166.04108691215515	2.5087270736694336
26	138.46305394172668	pulse	1	t		24.0	2.5	/experiments/knapen_AOT/AOT_stimuli/rescaled_final/1955_rv.mp4	0.0	167.63380789756775	
26	139.37906002998352	fix_post	2		12	24.0	2.5	/experiments/knapen_AOT/AOT_stimuli/rescaled_final/1955_rv.mp4	0.0	168.54981398582458	0.10001683235168457
27	139.4790768623352	fix_pre	0		120	25.0	2.5	/experiments/knapen_AOT/AOT_stimuli/rescaled_final/0123_fw.mp4	0.0	168.64983081817627	1.0001530647277832
27	140.062805891037	pulse	0	t		25.0	2.5	/experiments/knapen_AOT/AOT_stimuli/rescaled_final/0123_fw.mp4	0.0	169.23355984687805	
27	140.479229927063	movie	1		243	25.0	2.5	/experiments/knapen_AOT/AOT_stimuli/rescaled_final/0123_fw.mp4	0.0	169.64998388290405	2.500326156616211
27	141.66310787200928	pulse	1	t		25.0	2.5	/experiments/knapen_AOT/AOT_stimuli/rescaled_final/0123_fw.mp4	0.0	170.83386182785034	
27	142.9795560836792	fix_post	2		12	25.0	2.5	/experiments/knapen_AOT/AOT_stimuli/rescaled_final/0123_fw.mp4	0.0	172.15031003952026	0.10006284713745117
28	143.07961893081665	fix_pre	0		120	26.0	2.5	blank	1.0	172.25037288665771	1.0001120567321777
28	143.26319289207458	pulse	0	t		26.0	2.5	blank	1.0	172.43394684791565	
28	144.07973098754883	movie	1		300	26.0	2.5	blank	1.0	173.2504849433899	2.500441074371338
28	144.86340308189392	pulse	1	t		26.0	2.5	blank	1.0	174.03415703773499	
28	146.46359992027283	pulse	1	t		26.0	2.5	blank	1.0	175.6343538761139	
28	146.58017206192017	fix_post	2		12	26.0	2.5	blank	1.0	175.75092601776123	0.09998297691345215
29	146.68015503883362	fix_pre	0		117	27.0	2.5	/experiments/knapen_AOT/AOT_stimuli/rescaled_final/0360_rv.mp4	0.0	175.85090899467468	0.9918138980865479
29	147.67196893692017	movie	1		245	27.0	2.5	/experiments/knapen_AOT/AOT_stimuli/rescaled_final/0360_rv.mp4	0.0	176.84272289276123	2.5003271102905273
29	148.06399607658386	pulse	1	t		27.0	2.5	/experiments/knapen_AOT/AOT_stimuli/rescaled_final/0360_rv.mp4	0.0	177.23475003242493	
29	149.66411185264587	pulse	1	t		27.0	2.5	/experiments/knapen_AOT/AOT_stimuli/rescaled_final/0360_rv.mp4	0.0	178.83486580848694	
29	150.1722960472107	fix_post	2		12	27.0	2.5	/experiments/knapen_AOT/AOT_stimuli/rescaled_final/0360_rv.mp4	0.0	179.34305000305176	0.10004782676696777
30	150.27234387397766	fix_pre	0		120	28.0	2.5	/experiments/knapen_AOT/AOT_stimuli/rescaled_final/0751_fw.mp4	0.0	179.44309782981873	1.0001611709594727
30	151.2643859386444	pulse	0	t		28.0	2.5	/experiments/knapen_AOT/AOT_stimuli/rescaled_final/0751_fw.mp4	0.0	180.43513989448547	
30	151.27250504493713	movie	1		248	28.0	2.5	/experiments/knapen_AOT/AOT_stimuli/rescaled_final/0751_fw.mp4	0.0	180.4432590007782	2.5086889266967773
30	152.86507201194763	pulse	1	t		28.0	2.5	/experiments/knapen_AOT/AOT_stimuli/rescaled_final/0751_fw.mp4	0.0	182.0358259677887	
30	153.7811939716339	fix_post	2		12	28.0	2.5	/experiments/knapen_AOT/AOT_stimuli/rescaled_final/0751_fw.mp4	0.0	182.95194792747498	0.10004711151123047
31	153.88124108314514	fix_pre	0		120	29.0	2.5	/experiments/knapen_AOT/AOT_stimuli/rescaled_final/0597_fw.mp4	0.0	183.0519950389862	1.0001559257507324
31	154.4649419784546	pulse	0	t		29.0	2.5	/experiments/knapen_AOT/AOT_stimuli/rescaled_final/0597_fw.mp4	0.0	183.63569593429565	
31	154.88139700889587	movie	1		244	29.0	2.5	/experiments/knapen_AOT/AOT_stimuli/rescaled_final/0597_fw.mp4	0.0	184.05215096473694	2.500385046005249
31	156.06520986557007	pulse	1	t		29.0	2.5	/experiments/knapen_AOT/AOT_stimuli/rescaled_final/0597_fw.mp4	0.0	185.23596382141113	
31	157.38178205490112	fix_post	2		12	29.0	2.5	/experiments/knapen_AOT/AOT_stimuli/rescaled_final/0597_fw.mp4	0.0	186.5525360107422	0.10003185272216797
32	157.4818139076233	fix_pre	0		120	30.0	2.5	/experiments/knapen_AOT/AOT_stimuli/rescaled_final/0601_rv.mp4	0.0	186.65256786346436	1.0001070499420166
32	157.66535806655884	pulse	0	t		30.0	2.5	/experiments/knapen_AOT/AOT_stimuli/rescaled_final/0601_rv.mp4	0.0	186.8361120223999	
32	158.4819209575653	movie	1		246	30.0	2.5	/experiments/knapen_AOT/AOT_stimuli/rescaled_final/0601_rv.mp4	0.0	187.65267491340637	2.5003790855407715
32	159.2655189037323	pulse	1	t		30.0	2.5	/experiments/knapen_AOT/AOT_stimuli/rescaled_final/0601_rv.mp4	0.0	188.43627285957336	
32	160.86581802368164	pulse	1	t		30.0	2.5	/experiments/knapen_AOT/AOT_stimuli/rescaled_final/0601_rv.mp4	0.0	190.0365719795227	
32	160.98230004310608	fix_post	2		12	30.0	2.5	/experiments/knapen_AOT/AOT_stimuli/rescaled_final/0601_rv.mp4	0.0	190.15305399894714	0.09998488426208496
33	161.08228492736816	fix_pre	0		120	31.0	2.5	/experiments/knapen_AOT/AOT_stimuli/rescaled_final/1704_fw.mp4	0.0	190.25303888320923	1.0001499652862549
33	162.08243489265442	movie	1		243	31.0	2.5	/experiments/knapen_AOT/AOT_stimuli/rescaled_final/1704_fw.mp4	0.0	191.25318884849548	2.492027997970581
33	162.4674370288849	pulse	1	t		31.0	2.5	/experiments/knapen_AOT/AOT_stimuli/rescaled_final/1704_fw.mp4	0.0	191.63819098472595	
33	164.06626391410828	pulse	1	t		31.0	2.5	/experiments/knapen_AOT/AOT_stimuli/rescaled_final/1704_fw.mp4	0.0	193.23701786994934	
33	164.574462890625	fix_post	2		12	31.0	2.5	/experiments/knapen_AOT/AOT_stimuli/rescaled_final/1704_fw.mp4	0.0	193.74521684646606	0.10002899169921875
34	164.67449188232422	fix_pre	0		120	32.0	2.5	/experiments/knapen_AOT/AOT_stimuli/rescaled_final/0419_fw.mp4	0.0	193.84524583816528	1.0001771450042725
34	165.66654896736145	pulse	0	t		32.0	2.5	/experiments/knapen_AOT/AOT_stimuli/rescaled_final/0419_fw.mp4	0.0	194.83730292320251	
34	165.6746690273285	movie	1		246	32.0	2.5	/experiments/knapen_AOT/AOT_stimuli/rescaled_final/0419_fw.mp4	0.0	194.84542298316956	2.508669853210449
34	167.26771688461304	pulse	1	t		32.0	2.5	/experiments/knapen_AOT/AOT_stimuli/rescaled_final/0419_fw.mp4	0.0	196.4384708404541	
34	168.18333888053894	fix_post	2		12	32.0	2.5	/experiments/knapen_AOT/AOT_stimuli/rescaled_final/0419_fw.mp4	0.0	197.35409283638	0.10000419616699219
35	168.28334307670593	fix_pre	0		120	33.0	2.5	blank	1.0	197.454097032547	1.0001699924468994
35	168.86698508262634	pulse	0	t		33.0	2.5	blank	1.0	198.0377390384674	
35	169.28351306915283	movie	1		300	33.0	2.5	blank	1.0	198.4542670249939	2.500372886657715
35	170.4673159122467	pulse	1	t		33.0	2.5	blank	1.0	199.63806986808777	
35	171.78388595581055	fix_post	2		12	33.0	2.5	blank	1.0	200.9546399116516	0.100006103515625
36	171.88389205932617	fix_pre	0		120	34.0	2.5	/experiments/knapen_AOT/AOT_stimuli/rescaled_final/0929_rv.mp4	0.0	201.05464601516724	1.0001850128173828
36	172.060054063797	pulse	0	t		34.0	2.5	/experiments/knapen_AOT/AOT_stimuli/rescaled_final/0929_rv.mp4	0.0	201.23080801963806	
36	172.88407707214355	movie	1		246	34.0	2.5	/experiments/knapen_AOT/AOT_stimuli/rescaled_final/0929_rv.mp4	0.0	202.05483102798462	2.500332832336426
36	173.66030287742615	pulse	1	t		34.0	2.5	/experiments/knapen_AOT/AOT_stimuli/rescaled_final/0929_rv.mp4	0.0	202.8310568332672	
36	175.26045393943787	pulse	1	t		34.0	2.5	/experiments/knapen_AOT/AOT_stimuli/rescaled_final/0929_rv.mp4	0.0	204.43120789527893	
36	175.38440990447998	fix_post	2		12	34.0	2.5	/experiments/knapen_AOT/AOT_stimuli/rescaled_final/0929_rv.mp4	0.0	204.55516386032104	0.10002613067626953
37	175.48443603515625	fix_pre	0		120	35.0	2.5	/experiments/knapen_AOT/AOT_stimuli/rescaled_final/0607_fw.mp4	0.0	204.65518999099731	1.0001790523529053
37	176.48461508750916	movie	1		244	35.0	2.5	/experiments/knapen_AOT/AOT_stimuli/rescaled_final/0607_fw.mp4	0.0	205.65536904335022	2.492083787918091
37	176.8726999759674	pulse	1	t		35.0	2.5	/experiments/knapen_AOT/AOT_stimuli/rescaled_final/0607_fw.mp4	0.0	206.04345393180847	
37	178.46028804779053	pulse	1	t		35.0	2.5	/experiments/knapen_AOT/AOT_stimuli/rescaled_final/0607_fw.mp4	0.0	207.6310420036316	
37	178.97669887542725	fix_post	2		12	35.0	2.5	/experiments/knapen_AOT/AOT_stimuli/rescaled_final/0607_fw.mp4	0.0	208.1474528312683	0.09991908073425293
38	179.0766179561615	fix_pre	0		119	36.0	2.5	/experiments/knapen_AOT/AOT_stimuli/rescaled_final/0018_rv.mp4	0.0	208.24737191200256	0.9918599128723145
38	180.0602719783783	pulse	0	t		36.0	2.5	/experiments/knapen_AOT/AOT_stimuli/rescaled_final/0018_rv.mp4	0.0	209.23102593421936	
38	180.0684778690338	movie	1		245	36.0	2.5	/experiments/knapen_AOT/AOT_stimuli/rescaled_final/0018_rv.mp4	0.0	209.23923182487488	2.50871205329895
38	181.6655569076538	pulse	1	t		36.0	2.5	/experiments/knapen_AOT/AOT_stimuli/rescaled_final/0018_rv.mp4	0.0	210.83631086349487	
38	182.57718992233276	fix_post	2		12	36.0	2.5	/experiments/knapen_AOT/AOT_stimuli/rescaled_final/0018_rv.mp4	0.0	211.74794387817383	0.09997200965881348
39	182.67716193199158	fix_pre	0		120	37.0	2.5	/experiments/knapen_AOT/AOT_stimuli/rescaled_final/1458_fw.mp4	0.0	211.84791588783264	1.0001680850982666
39	183.26084089279175	pulse	0	t		37.0	2.5	/experiments/knapen_AOT/AOT_stimuli/rescaled_final/1458_fw.mp4	0.0	212.4315948486328	
39	183.67733001708984	movie	1		244	37.0	2.5	/experiments/knapen_AOT/AOT_stimuli/rescaled_final/1458_fw.mp4	0.0	212.8480839729309	2.500386953353882
39	184.86112308502197	pulse	1	t		37.0	2.5	/experiments/knapen_AOT/AOT_stimuli/rescaled_final/1458_fw.mp4	0.0	214.03187704086304	
39	186.17771697044373	fix_post	2		12	37.0	2.5	/experiments/knapen_AOT/AOT_stimuli/rescaled_final/1458_fw.mp4	0.0	215.3484709262848	0.10000801086425781
40	186.27772498130798	fix_pre	0		120	38.0	2.5	/experiments/knapen_AOT/AOT_stimuli/rescaled_final/1380_fw.mp4	0.0	215.44847893714905	1.0001449584960938
40	186.46125507354736	pulse	0	t		38.0	2.5	/experiments/knapen_AOT/AOT_stimuli/rescaled_final/1380_fw.mp4	0.0	215.63200902938843	
40	187.27786993980408	movie	1		244	38.0	2.5	/experiments/knapen_AOT/AOT_stimuli/rescaled_final/1380_fw.mp4	0.0	216.44862389564514	2.500359058380127
40	188.06161093711853	pulse	1	t		38.0	2.5	/experiments/knapen_AOT/AOT_stimuli/rescaled_final/1380_fw.mp4	0.0	217.2323648929596	
40	189.66393899917603	pulse	1	t		38.0	2.5	/experiments/knapen_AOT/AOT_stimuli/rescaled_final/1380_fw.mp4	0.0	218.8346929550171	
40	189.7782289981842	fix_post	2		12	38.0	2.5	/experiments/knapen_AOT/AOT_stimuli/rescaled_final/1380_fw.mp4	0.0	218.94898295402527	0.1000208854675293
41	189.87824988365173	fix_pre	0		120	39.0	2.5	/experiments/knapen_AOT/AOT_stimuli/rescaled_final/0950_rv.mp4	0.0	219.0490038394928	1.0001749992370605
41	190.8784248828888	movie	1		243	39.0	2.5	/experiments/knapen_AOT/AOT_stimuli/rescaled_final/0950_rv.mp4	0.0	220.04917883872986	2.491997003555298
41	191.26251792907715	pulse	1	t		39.0	2.5	/experiments/knapen_AOT/AOT_stimuli/rescaled_final/0950_rv.mp4	0.0	220.4332718849182	
41	192.86220598220825	pulse	1	t		39.0	2.5	/experiments/knapen_AOT/AOT_stimuli/rescaled_final/0950_rv.mp4	0.0	222.03295993804932	
41	193.3704218864441	fix_post	2		12	39.0	2.5	/experiments/knapen_AOT/AOT_stimuli/rescaled_final/0950_rv.mp4	0.0	222.54117584228516	0.10009002685546875
42	193.47051191329956	fix_pre	0		120	40.0	2.5	/experiments/knapen_AOT/AOT_stimuli/rescaled_final/0998_fw.mp4	0.0	222.64126586914062	1.0001201629638672
42	194.4625060558319	pulse	0	t		40.0	2.5	/experiments/knapen_AOT/AOT_stimuli/rescaled_final/0998_fw.mp4	0.0	223.63326001167297	
42	194.47063207626343	movie	1		245	40.0	2.5	/experiments/knapen_AOT/AOT_stimuli/rescaled_final/0998_fw.mp4	0.0	223.6413860321045	2.508685827255249
42	196.06288194656372	pulse	1	t		40.0	2.5	/experiments/knapen_AOT/AOT_stimuli/rescaled_final/0998_fw.mp4	0.0	225.23363590240479	
42	196.97931790351868	fix_post	2		12	40.0	2.5	/experiments/knapen_AOT/AOT_stimuli/rescaled_final/0998_fw.mp4	0.0	226.15007185935974	0.10000896453857422
43	197.07932686805725	fix_pre	0		120	41.0	2.5	blank	1.0	226.25008082389832	1.000150203704834
43	197.6629500389099	pulse	0	t		41.0	2.5	blank	1.0	226.83370399475098	
43	198.07947707176208	movie	1		300	41.0	2.5	blank	1.0	227.25023102760315	2.50036883354187
43	199.26315593719482	pulse	1	t		41.0	2.5	blank	1.0	228.4339098930359	
43	200.57984590530396	fix_post	2		12	41.0	2.5	blank	1.0	229.75059986114502	0.09999895095825195
44	200.6798448562622	fix_pre	0		120	42.0	2.5	/experiments/knapen_AOT/AOT_stimuli/rescaled_final/0707_fw.mp4	0.0	229.85059881210327	1.0001749992370605
44	200.8635060787201	pulse	0	t		42.0	2.5	/experiments/knapen_AOT/AOT_stimuli/rescaled_final/0707_fw.mp4	0.0	230.03426003456116	
44	201.68001985549927	movie	1		246	42.0	2.5	/experiments/knapen_AOT/AOT_stimuli/rescaled_final/0707_fw.mp4	0.0	230.85077381134033	2.5003812313079834
44	202.46378207206726	pulse	1	t		42.0	2.5	/experiments/knapen_AOT/AOT_stimuli/rescaled_final/0707_fw.mp4	0.0	231.63453602790833	
44	204.06384301185608	pulse	1	t		42.0	2.5	/experiments/knapen_AOT/AOT_stimuli/rescaled_final/0707_fw.mp4	0.0	233.23459696769714	
44	204.18040108680725	fix_post	2		9	42.0	2.5	/experiments/knapen_AOT/AOT_stimuli/rescaled_final/0707_fw.mp4	0.0	233.35115504264832	0.10000395774841309
45	204.28040504455566	fix_pre	0		120	43.0	2.5	/experiments/knapen_AOT/AOT_stimuli/rescaled_final/1786_fw.mp4	0.0	233.45115900039673	1.0001389980316162
45	205.28054404258728	movie	1		259	43.0	2.5	/experiments/knapen_AOT/AOT_stimuli/rescaled_final/1786_fw.mp4	0.0	234.45129799842834	2.4920668601989746
45	205.66544795036316	pulse	1	t		43.0	2.5	/experiments/knapen_AOT/AOT_stimuli/rescaled_final/1786_fw.mp4	0.0	234.83620190620422	
45	207.26446795463562	pulse	1	t		43.0	2.5	/experiments/knapen_AOT/AOT_stimuli/rescaled_final/1786_fw.mp4	0.0	236.43522191047668	
45	207.77261090278625	fix_post	2		12	43.0	2.5	/experiments/knapen_AOT/AOT_stimuli/rescaled_final/1786_fw.mp4	0.0	236.94336485862732	0.09998297691345215
46	207.8725938796997	fix_pre	0		120	44.0	2.5	/experiments/knapen_AOT/AOT_stimuli/rescaled_final/0087_fw.mp4	0.0	237.04334783554077	1.0001871585845947
46	208.8647038936615	pulse	0	t		44.0	2.5	/experiments/knapen_AOT/AOT_stimuli/rescaled_final/0087_fw.mp4	0.0	238.03545784950256	
46	208.8727810382843	movie	1		246	44.0	2.5	/experiments/knapen_AOT/AOT_stimuli/rescaled_final/0087_fw.mp4	0.0	238.04353499412537	2.50875186920166
46	210.4653639793396	pulse	1	t		44.0	2.5	/experiments/knapen_AOT/AOT_stimuli/rescaled_final/0087_fw.mp4	0.0	239.63611793518066	
46	211.38153290748596	fix_post	2		12	44.0	2.5	/experiments/knapen_AOT/AOT_stimuli/rescaled_final/0087_fw.mp4	0.0	240.55228686332703	0.09998917579650879
47	211.48152208328247	fix_pre	0		120	45.0	2.5	/experiments/knapen_AOT/AOT_stimuli/rescaled_final/1408_fw.mp4	0.0	240.65227603912354	1.000114917755127
47	212.06503200531006	pulse	0	t		45.0	2.5	/experiments/knapen_AOT/AOT_stimuli/rescaled_final/1408_fw.mp4	0.0	241.23578596115112	
47	212.4816370010376	movie	1		244	45.0	2.5	/experiments/knapen_AOT/AOT_stimuli/rescaled_final/1408_fw.mp4	0.0	241.65239095687866	2.500359058380127
47	213.66165208816528	pulse	1	t		45.0	2.5	/experiments/knapen_AOT/AOT_stimuli/rescaled_final/1408_fw.mp4	0.0	242.83240604400635	
47	214.98199605941772	fix_post	2		12	45.0	2.5	/experiments/knapen_AOT/AOT_stimuli/rescaled_final/1408_fw.mp4	0.0	244.1527500152588	0.10000991821289062
48	215.08200597763062	fix_pre	0		120	46.0	2.5	/experiments/knapen_AOT/AOT_stimuli/rescaled_final/0129_fw.mp4	0.0	244.25275993347168	1.0001609325408936
48	215.26565885543823	pulse	0	t		46.0	2.5	/experiments/knapen_AOT/AOT_stimuli/rescaled_final/0129_fw.mp4	0.0	244.4364128112793	
48	216.0821669101715	movie	1		244	46.0	2.5	/experiments/knapen_AOT/AOT_stimuli/rescaled_final/0129_fw.mp4	0.0	245.25292086601257	2.500370979309082
48	216.86590194702148	pulse	1	t		46.0	2.5	/experiments/knapen_AOT/AOT_stimuli/rescaled_final/0129_fw.mp4	0.0	246.03665590286255	
48	218.46599292755127	pulse	1	t		46.0	2.5	/experiments/knapen_AOT/AOT_stimuli/rescaled_final/0129_fw.mp4	0.0	247.63674688339233	
48	218.5825378894806	fix_post	2		12	46.0	2.5	/experiments/knapen_AOT/AOT_stimuli/rescaled_final/0129_fw.mp4	0.0	247.75329184532166	0.10001015663146973
49	218.68254804611206	fix_pre	0		120	47.0	2.5	blank	1.0	247.85330200195312	1.0001518726348877
49	219.68269991874695	movie	1		299	47.0	2.5	blank	1.0	248.853453874588	2.4920639991760254
49	220.06627488136292	pulse	1	t		47.0	2.5	blank	1.0	249.23702883720398	
49	221.6666169166565	pulse	1	t		47.0	2.5	blank	1.0	250.83737087249756	
49	222.17476391792297	fix_post	2		12	47.0	2.5	blank	1.0	251.34551787376404	0.10001397132873535
50	222.2747778892517	fix_pre	0		120	48.0	2.5	/experiments/knapen_AOT/AOT_stimuli/rescaled_final/2104_fw.mp4	0.0	251.44553184509277	1.000108003616333
50	223.26687693595886	pulse	0	t		48.0	2.5	/experiments/knapen_AOT/AOT_stimuli/rescaled_final/2104_fw.mp4	0.0	252.43763089179993	
50	223.27488589286804	movie	1		246	48.0	2.5	/experiments/knapen_AOT/AOT_stimuli/rescaled_final/2104_fw.mp4	0.0	252.4456398487091	2.5087380409240723
50	224.87157201766968	pulse	1	t		48.0	2.5	/experiments/knapen_AOT/AOT_stimuli/rescaled_final/2104_fw.mp4	0.0	254.04232597351074	
50	225.78362393379211	fix_post	2		12	48.0	2.5	/experiments/knapen_AOT/AOT_stimuli/rescaled_final/2104_fw.mp4	0.0	254.95437788963318	0.10003304481506348
51	225.88365697860718	fix_pre	0		120	49.0	2.5	/experiments/knapen_AOT/AOT_stimuli/rescaled_final/0926_fw.mp4	0.0	255.05441093444824	1.0001499652862549
51	226.459645986557	pulse	0	t		49.0	2.5	/experiments/knapen_AOT/AOT_stimuli/rescaled_final/0926_fw.mp4	0.0	255.63039994239807	
51	226.88380694389343	movie	1		245	49.0	2.5	/experiments/knapen_AOT/AOT_stimuli/rescaled_final/0926_fw.mp4	0.0	256.0545608997345	2.5003750324249268
51	228.06370091438293	pulse	1	t		49.0	2.5	/experiments/knapen_AOT/AOT_stimuli/rescaled_final/0926_fw.mp4	0.0	257.234454870224	
51	229.38418197631836	fix_post	2		12	49.0	2.5	/experiments/knapen_AOT/AOT_stimuli/rescaled_final/0926_fw.mp4	0.0	258.5549359321594	0.09995293617248535
52	229.48413491249084	fix_pre	0		120	50.0	2.5	/experiments/knapen_AOT/AOT_stimuli/rescaled_final/1270_rv.mp4	0.0	258.6548888683319	1.000218152999878
52	229.66015791893005	pulse	0	t		50.0	2.5	/experiments/knapen_AOT/AOT_stimuli/rescaled_final/1270_rv.mp4	0.0	258.8309118747711	
52	230.48435306549072	movie	1		245	50.0	2.5	/experiments/knapen_AOT/AOT_stimuli/rescaled_final/1270_rv.mp4	0.0	259.6551070213318	2.500314950942993
52	231.26058506965637	pulse	1	t		50.0	2.5	/experiments/knapen_AOT/AOT_stimuli/rescaled_final/1270_rv.mp4	0.0	260.43133902549744	
52	232.85987401008606	pulse	1	t		50.0	2.5	/experiments/knapen_AOT/AOT_stimuli/rescaled_final/1270_rv.mp4	0.0	262.0306279659271	
52	232.98466801643372	fix_post	2		12	50.0	2.5	/experiments/knapen_AOT/AOT_stimuli/rescaled_final/1270_rv.mp4	0.0	262.1554219722748	0.10005593299865723
53	233.08472394943237	fix_pre	0		120	51.0	2.5	/experiments/knapen_AOT/AOT_stimuli/rescaled_final/0465_fw.mp4	0.0	262.25547790527344	1.0001130104064941
53	234.08483695983887	movie	1		243	51.0	2.5	/experiments/knapen_AOT/AOT_stimuli/rescaled_final/0465_fw.mp4	0.0	263.25559091567993	2.4920248985290527
53	234.46004700660706	pulse	1	t		51.0	2.5	/experiments/knapen_AOT/AOT_stimuli/rescaled_final/0465_fw.mp4	0.0	263.6308009624481	
53	236.06046104431152	pulse	1	t		51.0	2.5	/experiments/knapen_AOT/AOT_stimuli/rescaled_final/0465_fw.mp4	0.0	265.2312150001526	
53	236.57686185836792	fix_post	2		12	51.0	2.5	/experiments/knapen_AOT/AOT_stimuli/rescaled_final/0465_fw.mp4	0.0	265.747615814209	0.10001516342163086
54	236.67687702178955	fix_pre	0		119	52.0	2.5	/experiments/knapen_AOT/AOT_stimuli/rescaled_final/0247_rv.mp4	0.0	265.8476309776306	0.9918239116668701
54	237.6606650352478	pulse	0	t		52.0	2.5	/experiments/knapen_AOT/AOT_stimuli/rescaled_final/0247_rv.mp4	0.0	266.83141899108887	
54	237.66870093345642	movie	1		246	52.0	2.5	/experiments/knapen_AOT/AOT_stimuli/rescaled_final/0247_rv.mp4	0.0	266.8394548892975	2.5087101459503174
54	239.2613399028778	pulse	1	t		52.0	2.5	/experiments/knapen_AOT/AOT_stimuli/rescaled_final/0247_rv.mp4	0.0	268.4320938587189	
54	240.17741107940674	fix_post	2		12	52.0	2.5	/experiments/knapen_AOT/AOT_stimuli/rescaled_final/0247_rv.mp4	0.0	269.3481650352478	0.10002279281616211
55	240.2774338722229	fix_pre	0		120	53.0	2.5	/experiments/knapen_AOT/AOT_stimuli/rescaled_final/0206_rv.mp4	0.0	269.44818782806396	1.0001389980316162
55	240.86104893684387	pulse	0	t		53.0	2.5	/experiments/knapen_AOT/AOT_stimuli/rescaled_final/0206_rv.mp4	0.0	270.03180289268494	
55	241.27757287025452	movie	1		244	53.0	2.5	/experiments/knapen_AOT/AOT_stimuli/rescaled_final/0206_rv.mp4	0.0	270.4483268260956	2.5004241466522217
55	242.4613208770752	pulse	1	t		53.0	2.5	/experiments/knapen_AOT/AOT_stimuli/rescaled_final/0206_rv.mp4	0.0	271.63207483291626	
55	243.77799701690674	fix_post	2		12	53.0	2.5	/experiments/knapen_AOT/AOT_stimuli/rescaled_final/0206_rv.mp4	0.0	272.9487509727478	0.09995293617248535
56	243.87794995307922	fix_pre	0		120	54.0	2.5	/experiments/knapen_AOT/AOT_stimuli/rescaled_final/0610_rv.mp4	0.0	273.0487039089203	1.000195026397705
56	244.06165289878845	pulse	0	t		54.0	2.5	/experiments/knapen_AOT/AOT_stimuli/rescaled_final/0610_rv.mp4	0.0	273.2324068546295	
56	244.87814497947693	movie	1		244	54.0	2.5	/experiments/knapen_AOT/AOT_stimuli/rescaled_final/0610_rv.mp4	0.0	274.048898935318	2.5003440380096436
56	245.66190695762634	pulse	1	t		54.0	2.5	/experiments/knapen_AOT/AOT_stimuli/rescaled_final/0610_rv.mp4	0.0	274.8326609134674	
56	247.2621750831604	pulse	1	t		54.0	2.5	/experiments/knapen_AOT/AOT_stimuli/rescaled_final/0610_rv.mp4	0.0	276.43292903900146	
56	247.37848901748657	fix_post	2		12	54.0	2.5	/experiments/knapen_AOT/AOT_stimuli/rescaled_final/0610_rv.mp4	0.0	276.54924297332764	0.10004496574401855
57	247.4785339832306	fix_pre	0		120	55.0	2.5	blank	1.0	276.64928793907166	1.0001089572906494
57	248.47864294052124	movie	1		299	55.0	2.5	blank	1.0	277.6493968963623	2.4920549392700195
57	248.86222290992737	pulse	1	t		55.0	2.5	blank	1.0	278.03297686576843	
57	250.46244192123413	pulse	1	t		55.0	2.5	blank	1.0	279.6331958770752	
57	250.97069787979126	fix_post	2		12	55.0	2.5	blank	1.0	280.1414518356323	0.10001611709594727
58	251.0707139968872	fix_pre	0		120	56.0	2.5	/experiments/knapen_AOT/AOT_stimuli/rescaled_final/1752_fw.mp4	0.0	280.24146795272827	1.000133991241455
58	252.0628218650818	pulse	0	t		56.0	2.5	/experiments/knapen_AOT/AOT_stimuli/rescaled_final/1752_fw.mp4	0.0	281.23357582092285	
58	252.07084798812866	movie	1		245	56.0	2.5	/experiments/knapen_AOT/AOT_stimuli/rescaled_final/1752_fw.mp4	0.0	281.2416019439697	2.5087199211120605
58	253.6634829044342	pulse	1	t		56.0	2.5	/experiments/knapen_AOT/AOT_stimuli/rescaled_final/1752_fw.mp4	0.0	282.83423686027527	
58	254.57956790924072	fix_post	2		12	56.0	2.5	/experiments/knapen_AOT/AOT_stimuli/rescaled_final/1752_fw.mp4	0.0	283.7503218650818	0.10002803802490234
59	254.67959594726562	fix_pre	0		120	57.0	2.5	/experiments/knapen_AOT/AOT_stimuli/rescaled_final/0935_fw.mp4	0.0	283.8503499031067	1.0000929832458496
59	255.26320004463196	pulse	0	t		57.0	2.5	/experiments/knapen_AOT/AOT_stimuli/rescaled_final/0935_fw.mp4	0.0	284.433954000473	
59	255.67968893051147	movie	1		243	57.0	2.5	/experiments/knapen_AOT/AOT_stimuli/rescaled_final/0935_fw.mp4	0.0	284.85044288635254	2.5004091262817383
59	256.86351895332336	pulse	1	t		57.0	2.5	/experiments/knapen_AOT/AOT_stimuli/rescaled_final/0935_fw.mp4	0.0	286.03427290916443	
59	258.1800980567932	fix_post	2		12	57.0	2.5	/experiments/knapen_AOT/AOT_stimuli/rescaled_final/0935_fw.mp4	0.0	287.3508520126343	0.10000991821289062
60	258.2801079750061	fix_pre	0		120	58.0	2.5	/experiments/knapen_AOT/AOT_stimuli/rescaled_final/0689_fw.mp4	0.0	287.45086193084717	1.0001459121704102
60	258.4636700153351	pulse	0	t		58.0	2.5	/experiments/knapen_AOT/AOT_stimuli/rescaled_final/0689_fw.mp4	0.0	287.63442397117615	
60	259.2802538871765	movie	1		243	58.0	2.5	/experiments/knapen_AOT/AOT_stimuli/rescaled_final/0689_fw.mp4	0.0	288.4510078430176	2.5003910064697266
60	260.0639679431915	pulse	1	t		58.0	2.5	/experiments/knapen_AOT/AOT_stimuli/rescaled_final/0689_fw.mp4	0.0	289.2347218990326	
60	261.664244890213	pulse	1	t		58.0	2.5	/experiments/knapen_AOT/AOT_stimuli/rescaled_final/0689_fw.mp4	0.0	290.8349988460541	
60	261.78064489364624	fix_post	2		12	58.0	2.5	/experiments/knapen_AOT/AOT_stimuli/rescaled_final/0689_fw.mp4	0.0	290.9513988494873	0.09999299049377441
61	261.88063788414	fix_pre	0		120	59.0	2.5	/experiments/knapen_AOT/AOT_stimuli/rescaled_final/1475_rv.mp4	0.0	291.0513918399811	1.0001840591430664
61	262.8808219432831	movie	1		242	59.0	2.5	/experiments/knapen_AOT/AOT_stimuli/rescaled_final/1475_rv.mp4	0.0	292.05157589912415	2.4920270442962646
61	263.26563000679016	pulse	1	t		59.0	2.5	/experiments/knapen_AOT/AOT_stimuli/rescaled_final/1475_rv.mp4	0.0	292.4363839626312	
61	264.86464285850525	pulse	1	t		59.0	2.5	/experiments/knapen_AOT/AOT_stimuli/rescaled_final/1475_rv.mp4	0.0	294.0353968143463	
61	265.37284898757935	fix_post	2		12	59.0	2.5	/experiments/knapen_AOT/AOT_stimuli/rescaled_final/1475_rv.mp4	0.0	294.5436029434204	0.09998893737792969
62	265.4728379249573	fix_pre	0		120	60.0	2.5	/experiments/knapen_AOT/AOT_stimuli/rescaled_final/2152_fw.mp4	0.0	294.64359188079834	1.0001919269561768
62	266.4648640155792	pulse	0	t		60.0	2.5	/experiments/knapen_AOT/AOT_stimuli/rescaled_final/2152_fw.mp4	0.0	295.6356179714203	
62	266.47302985191345	movie	1		244	60.0	2.5	/experiments/knapen_AOT/AOT_stimuli/rescaled_final/2152_fw.mp4	0.0	295.6437838077545	2.5086281299591064
62	268.0665030479431	pulse	1	t		60.0	2.5	/experiments/knapen_AOT/AOT_stimuli/rescaled_final/2152_fw.mp4	0.0	297.2372570037842	
62	268.98165798187256	fix_post	2		12	60.0	2.5	/experiments/knapen_AOT/AOT_stimuli/rescaled_final/2152_fw.mp4	0.0	298.1524119377136	0.10006999969482422
63	269.0817279815674	fix_pre	0		120	61.0	2.5	blank	1.0	298.25248193740845	1.000148057937622
63	269.66547894477844	pulse	0	t		61.0	2.5	blank	1.0	298.8362329006195	
63	270.081876039505	movie	1		300	61.0	2.5	blank	1.0	299.25262999534607	2.500393867492676
63	271.26559686660767	pulse	1	t		61.0	2.5	blank	1.0	300.43635082244873	
63	272.5822699069977	fix_post	2		12	61.0	2.5	blank	1.0	301.75302386283875	0.09998512268066406
64	272.68225502967834	fix_pre	0		120	62.0	2.5	/experiments/knapen_AOT/AOT_stimuli/rescaled_final/0738_rv.mp4	0.0	301.8530089855194	1.0001540184020996
64	272.8658149242401	pulse	0	t		62.0	2.5	/experiments/knapen_AOT/AOT_stimuli/rescaled_final/0738_rv.mp4	0.0	302.0365688800812	
64	273.68240904808044	movie	1		244	62.0	2.5	/experiments/knapen_AOT/AOT_stimuli/rescaled_final/0738_rv.mp4	0.0	302.8531630039215	2.500398874282837
64	274.46601700782776	pulse	1	t		62.0	2.5	/experiments/knapen_AOT/AOT_stimuli/rescaled_final/0738_rv.mp4	0.0	303.6367709636688	
64	276.06392002105713	pulse	1	t		62.0	2.5	/experiments/knapen_AOT/AOT_stimuli/rescaled_final/0738_rv.mp4	0.0	305.2346739768982	
64	276.1828079223633	fix_post	2		12	62.0	2.5	/experiments/knapen_AOT/AOT_stimuli/rescaled_final/0738_rv.mp4	0.0	305.35356187820435	0.09997797012329102
65	276.2827858924866	fix_pre	0		120	63.0	2.5	/experiments/knapen_AOT/AOT_stimuli/rescaled_final/0722_fw.mp4	0.0	305.45353984832764	1.000176191329956
65	277.2829620838165	movie	1		244	63.0	2.5	/experiments/knapen_AOT/AOT_stimuli/rescaled_final/0722_fw.mp4	0.0	306.4537160396576	2.4920668601989746
65	277.6680009365082	pulse	1	t		63.0	2.5	/experiments/knapen_AOT/AOT_stimuli/rescaled_final/0722_fw.mp4	0.0	306.83875489234924	
65	279.2667920589447	pulse	1	t		63.0	2.5	/experiments/knapen_AOT/AOT_stimuli/rescaled_final/0722_fw.mp4	0.0	308.43754601478577	
65	279.7750289440155	fix_post	2		12	63.0	2.5	/experiments/knapen_AOT/AOT_stimuli/rescaled_final/0722_fw.mp4	0.0	308.94578289985657	0.09998106956481934
66	279.8750100135803	fix_pre	0		120	64.0	2.5	/experiments/knapen_AOT/AOT_stimuli/rescaled_final/0986_fw.mp4	0.0	309.0457639694214	1.0001440048217773
66	280.86713004112244	pulse	0	t		64.0	2.5	/experiments/knapen_AOT/AOT_stimuli/rescaled_final/0986_fw.mp4	0.0	310.0378839969635	
66	280.8751540184021	movie	1		246	64.0	2.5	/experiments/knapen_AOT/AOT_stimuli/rescaled_final/0986_fw.mp4	0.0	310.04590797424316	2.5087008476257324
66	282.46873688697815	pulse	1	t		64.0	2.5	/experiments/knapen_AOT/AOT_stimuli/rescaled_final/0986_fw.mp4	0.0	311.6394908428192	
66	283.38385486602783	fix_post	2		12	64.0	2.5	/experiments/knapen_AOT/AOT_stimuli/rescaled_final/0986_fw.mp4	0.0	312.5546088218689	0.10001707077026367
67	283.4838719367981	fix_pre	0		120	65.0	2.5	/experiments/knapen_AOT/AOT_stimuli/rescaled_final/1858_rv.mp4	0.0	312.65462589263916	1.0001740455627441
67	284.0676419734955	pulse	0	t		65.0	2.5	/experiments/knapen_AOT/AOT_stimuli/rescaled_final/1858_rv.mp4	0.0	313.23839592933655	
67	284.48404598236084	movie	1		244	65.0	2.5	/experiments/knapen_AOT/AOT_stimuli/rescaled_final/1858_rv.mp4	0.0	313.6547999382019	2.500356912612915
67	285.6606318950653	pulse	1	t		65.0	2.5	/experiments/knapen_AOT/AOT_stimuli/rescaled_final/1858_rv.mp4	0.0	314.8313858509064	
67	286.98440289497375	fix_post	2		12	65.0	2.5	/experiments/knapen_AOT/AOT_stimuli/rescaled_final/1858_rv.mp4	0.0	316.1551568508148	0.10003209114074707
68	287.0844349861145	fix_pre	0		120	66.0	2.5	/experiments/knapen_AOT/AOT_stimuli/rescaled_final/0607_fw.mp4	0.0	316.25518894195557	1.0001280307769775
68	287.26059198379517	pulse	0	t		66.0	2.5	/experiments/knapen_AOT/AOT_stimuli/rescaled_final/0607_fw.mp4	0.0	316.43134593963623	
68	288.0845630168915	movie	1		245	66.0	2.5	/experiments/knapen_AOT/AOT_stimuli/rescaled_final/0607_fw.mp4	0.0	317.25531697273254	2.5004138946533203
68	288.8607840538025	pulse	1	t		66.0	2.5	/experiments/knapen_AOT/AOT_stimuli/rescaled_final/0607_fw.mp4	0.0	318.03153800964355	
68	290.4658000469208	pulse	1	t		66.0	2.5	/experiments/knapen_AOT/AOT_stimuli/rescaled_final/0607_fw.mp4	0.0	319.63655400276184	
68	290.5849769115448	fix_post	2		12	66.0	2.5	/experiments/knapen_AOT/AOT_stimuli/rescaled_final/0607_fw.mp4	0.0	319.75573086738586	0.09995508193969727
69	290.6849319934845	fix_pre	0		120	67.0	2.5	/experiments/knapen_AOT/AOT_stimuli/rescaled_final/0665_rv.mp4	0.0	319.85568594932556	1.0001499652862549
69	291.68508195877075	movie	1		243	67.0	2.5	/experiments/knapen_AOT/AOT_stimuli/rescaled_final/0665_rv.mp4	0.0	320.8558359146118	2.4920411109924316
69	292.0605070590973	pulse	1	t		67.0	2.5	/experiments/knapen_AOT/AOT_stimuli/rescaled_final/0665_rv.mp4	0.0	321.23126101493835	
69	293.66062903404236	pulse	1	t		67.0	2.5	/experiments/knapen_AOT/AOT_stimuli/rescaled_final/0665_rv.mp4	0.0	322.8313829898834	
69	294.1771230697632	fix_post	2		12	67.0	2.5	/experiments/knapen_AOT/AOT_stimuli/rescaled_final/0665_rv.mp4	0.0	323.34787702560425	0.10002779960632324
70	294.2771508693695	fix_pre	0		119	68.0	2.5	blank	1.0	323.44790482521057	0.9918200969696045
70	295.2608070373535	pulse	0	t		68.0	2.5	blank	1.0	324.4315609931946	
70	295.2689709663391	movie	1		301	68.0	2.5	blank	1.0	324.4397249221802	2.508708953857422
70	296.86103987693787	pulse	1	t		68.0	2.5	blank	1.0	326.03179383277893	
70	297.77767992019653	fix_post	2		12	68.0	2.5	blank	1.0	326.9484338760376	0.10002994537353516
71	297.87770986557007	fix_pre	0		120	69.0	2.5	/experiments/knapen_AOT/AOT_stimuli/rescaled_final/1027_rv.mp4	0.0	327.04846382141113	1.0001251697540283
71	298.4614448547363	pulse	0	t		69.0	2.5	/experiments/knapen_AOT/AOT_stimuli/rescaled_final/1027_rv.mp4	0.0	327.6321988105774	
71	298.8778350353241	movie	1		246	69.0	2.5	/experiments/knapen_AOT/AOT_stimuli/rescaled_final/1027_rv.mp4	0.0	328.04858899116516	2.5003678798675537
71	300.061616897583	pulse	1	t		69.0	2.5	/experiments/knapen_AOT/AOT_stimuli/rescaled_final/1027_rv.mp4	0.0	329.2323708534241	
71	301.37820291519165	fix_post	2		12	69.0	2.5	/experiments/knapen_AOT/AOT_stimuli/rescaled_final/1027_rv.mp4	0.0	330.5489568710327	0.1000521183013916
72	301.47825503349304	fix_pre	0		120	70.0	2.5	/experiments/knapen_AOT/AOT_stimuli/rescaled_final/1698_rv.mp4	0.0	330.6490089893341	1.000119924545288
72	301.6618390083313	pulse	0	t		70.0	2.5	/experiments/knapen_AOT/AOT_stimuli/rescaled_final/1698_rv.mp4	0.0	330.83259296417236	
72	302.47837495803833	movie	1		247	70.0	2.5	/experiments/knapen_AOT/AOT_stimuli/rescaled_final/1698_rv.mp4	0.0	331.6491289138794	2.5003669261932373
72	303.2619640827179	pulse	1	t		70.0	2.5	/experiments/knapen_AOT/AOT_stimuli/rescaled_final/1698_rv.mp4	0.0	332.43271803855896	
72	304.8622760772705	pulse	1	t		70.0	2.5	/experiments/knapen_AOT/AOT_stimuli/rescaled_final/1698_rv.mp4	0.0	334.0330300331116	
72	304.97874188423157	fix_post	2		12	70.0	2.5	/experiments/knapen_AOT/AOT_stimuli/rescaled_final/1698_rv.mp4	0.0	334.14949584007263	0.1000211238861084
73	305.0787630081177	fix_pre	0		119	71.0	2.5	/experiments/knapen_AOT/AOT_stimuli/rescaled_final/1901_rv.mp4	0.0	334.24951696395874	0.991765022277832
73	306.0705280303955	movie	1		245	71.0	2.5	/experiments/knapen_AOT/AOT_stimuli/rescaled_final/1901_rv.mp4	0.0	335.2412819862366	2.500411033630371
73	306.4626410007477	pulse	1	t		71.0	2.5	/experiments/knapen_AOT/AOT_stimuli/rescaled_final/1901_rv.mp4	0.0	335.63339495658875	
73	308.06289887428284	pulse	1	t		71.0	2.5	/experiments/knapen_AOT/AOT_stimuli/rescaled_final/1901_rv.mp4	0.0	337.2336528301239	
73	308.5709390640259	fix_post	2		12	71.0	2.5	/experiments/knapen_AOT/AOT_stimuli/rescaled_final/1901_rv.mp4	0.0	337.74169301986694	0.10004281997680664
74	308.6709818840027	fix_pre	0		120	72.0	2.5	/experiments/knapen_AOT/AOT_stimuli/rescaled_final/1704_fw.mp4	0.0	337.84173583984375	1.000176191329956
74	309.66297698020935	pulse	0	t		72.0	2.5	/experiments/knapen_AOT/AOT_stimuli/rescaled_final/1704_fw.mp4	0.0	338.8337309360504	
74	309.67115807533264	movie	1		245	72.0	2.5	/experiments/knapen_AOT/AOT_stimuli/rescaled_final/1704_fw.mp4	0.0	338.8419120311737	2.5086679458618164
74	311.2636630535126	pulse	1	t		72.0	2.5	/experiments/knapen_AOT/AOT_stimuli/rescaled_final/1704_fw.mp4	0.0	340.43441700935364	
74	312.17982602119446	fix_post	2		12	72.0	2.5	/experiments/knapen_AOT/AOT_stimuli/rescaled_final/1704_fw.mp4	0.0	341.3505799770355	0.10002899169921875
75	312.2798550128937	fix_pre	0		120	73.0	2.5	/experiments/knapen_AOT/AOT_stimuli/rescaled_final/0398_rv.mp4	0.0	341.45060896873474	1.000128984451294
75	312.8635559082031	pulse	0	t		73.0	2.5	/experiments/knapen_AOT/AOT_stimuli/rescaled_final/0398_rv.mp4	0.0	342.0343098640442	
75	313.27998399734497	movie	1		245	73.0	2.5	/experiments/knapen_AOT/AOT_stimuli/rescaled_final/0398_rv.mp4	0.0	342.45073795318604	2.5003550052642822
75	314.463898897171	pulse	1	t		73.0	2.5	/experiments/knapen_AOT/AOT_stimuli/rescaled_final/0398_rv.mp4	0.0	343.6346528530121	
75	315.78033900260925	fix_post	2		12	73.0	2.5	/experiments/knapen_AOT/AOT_stimuli/rescaled_final/0398_rv.mp4	0.0	344.9510929584503	0.09997105598449707
76	315.88031005859375	fix_pre	0		120	74.0	2.5	/experiments/knapen_AOT/AOT_stimuli/rescaled_final/1407_rv.mp4	0.0	345.0510640144348	1.000236988067627
76	316.0639898777008	pulse	0	t		74.0	2.5	/experiments/knapen_AOT/AOT_stimuli/rescaled_final/1407_rv.mp4	0.0	345.23474383354187	
76	316.8805470466614	movie	1		244	74.0	2.5	/experiments/knapen_AOT/AOT_stimuli/rescaled_final/1407_rv.mp4	0.0	346.05130100250244	2.50032901763916
76	317.66424798965454	pulse	1	t		74.0	2.5	/experiments/knapen_AOT/AOT_stimuli/rescaled_final/1407_rv.mp4	0.0	346.8350019454956	
76	319.26599192619324	pulse	1	t		74.0	2.5	/experiments/knapen_AOT/AOT_stimuli/rescaled_final/1407_rv.mp4	0.0	348.4367458820343	
76	319.38087606430054	fix_post	2		12	74.0	2.5	/experiments/knapen_AOT/AOT_stimuli/rescaled_final/1407_rv.mp4	0.0	348.5516300201416	0.10003280639648438
77	319.480908870697	fix_pre	0		120	75.0	2.5	blank	1.0	348.6516628265381	1.00018310546875
77	320.48109197616577	movie	1		299	75.0	2.5	blank	1.0	349.65184593200684	2.492027997970581
77	320.86474204063416	pulse	1	t		75.0	2.5	blank	1.0	350.0354959964752	
77	322.4650020599365	pulse	1	t		75.0	2.5	blank	1.0	351.6357560157776	
77	322.97311997413635	fix_post	2		12	75.0	2.5	blank	1.0	352.1438739299774	0.0999898910522461
78	323.0731098651886	fix_pre	0		120	76.0	2.5	/experiments/knapen_AOT/AOT_stimuli/rescaled_final/1204_rv.mp4	0.0	352.24386382102966	1.0001471042633057
78	324.0650968551636	pulse	0	t		76.0	2.5	/experiments/knapen_AOT/AOT_stimuli/rescaled_final/1204_rv.mp4	0.0	353.23585081100464	
78	324.0732569694519	movie	1		242	76.0	2.5	/experiments/knapen_AOT/AOT_stimuli/rescaled_final/1204_rv.mp4	0.0	353.24401092529297	2.5087080001831055
78	325.66593289375305	pulse	1	t		76.0	2.5	/experiments/knapen_AOT/AOT_stimuli/rescaled_final/1204_rv.mp4	0.0	354.8366868495941	
78	326.581964969635	fix_post	2		12	76.0	2.5	/experiments/knapen_AOT/AOT_stimuli/rescaled_final/1204_rv.mp4	0.0	355.7527189254761	0.09999895095825195
79	326.68196392059326	fix_pre	0		120	77.0	2.5	/experiments/knapen_AOT/AOT_stimuli/rescaled_final/0123_fw.mp4	0.0	355.8527178764343	1.000218152999878
79	327.265732049942	pulse	0	t		77.0	2.5	/experiments/knapen_AOT/AOT_stimuli/rescaled_final/0123_fw.mp4	0.0	356.4364860057831	
79	327.68218207359314	movie	1		243	77.0	2.5	/experiments/knapen_AOT/AOT_stimuli/rescaled_final/0123_fw.mp4	0.0	356.8529360294342	2.500351905822754
79	328.8659749031067	pulse	1	t		77.0	2.5	/experiments/knapen_AOT/AOT_stimuli/rescaled_final/0123_fw.mp4	0.0	358.03672885894775	
79	330.1825339794159	fix_post	2		12	77.0	2.5	/experiments/knapen_AOT/AOT_stimuli/rescaled_final/0123_fw.mp4	0.0	359.35328793525696	0.1000669002532959
80	330.2826008796692	fix_pre	0		120	78.0	2.5	/experiments/knapen_AOT/AOT_stimuli/rescaled_final/0419_rv.mp4	0.0	359.45335483551025	1.0001001358032227
80	330.4660530090332	pulse	0	t		78.0	2.5	/experiments/knapen_AOT/AOT_stimuli/rescaled_final/0419_rv.mp4	0.0	359.63680696487427	
80	331.2827010154724	movie	1		245	78.0	2.5	/experiments/knapen_AOT/AOT_stimuli/rescaled_final/0419_rv.mp4	0.0	360.4534549713135	2.500339984893799
80	332.06630086898804	pulse	1	t		78.0	2.5	/experiments/knapen_AOT/AOT_stimuli/rescaled_final/0419_rv.mp4	0.0	361.2370548248291	
80	333.6640160083771	pulse	1	t		78.0	2.5	/experiments/knapen_AOT/AOT_stimuli/rescaled_final/0419_rv.mp4	0.0	362.83476996421814	
80	333.7830410003662	fix_post	2		12	78.0	2.5	/experiments/knapen_AOT/AOT_stimuli/rescaled_final/0419_rv.mp4	0.0	362.9537949562073	0.10002589225769043
81	333.8830668926239	fix_pre	0		120	79.0	2.5	/experiments/knapen_AOT/AOT_stimuli/rescaled_final/1789_rv.mp4	0.0	363.05382084846497	1.0001251697540283
81	334.88319206237793	movie	1		245	79.0	2.5	/experiments/knapen_AOT/AOT_stimuli/rescaled_final/1789_rv.mp4	0.0	364.053946018219	2.4920599460601807
81	335.26710200309753	pulse	1	t		79.0	2.5	/experiments/knapen_AOT/AOT_stimuli/rescaled_final/1789_rv.mp4	0.0	364.4378559589386	
81	336.8670539855957	pulse	1	t		79.0	2.5	/experiments/knapen_AOT/AOT_stimuli/rescaled_final/1789_rv.mp4	0.0	366.03780794143677	
81	337.3752520084381	fix_post	2		12	79.0	2.5	/experiments/knapen_AOT/AOT_stimuli/rescaled_final/1789_rv.mp4	0.0	366.5460059642792	0.09998488426208496
82	337.4752368927002	fix_pre	0		120	80.0	2.5	/experiments/knapen_AOT/AOT_stimuli/rescaled_final/1858_rv.mp4	0.0	366.64599084854126	1.0001630783081055
82	338.4672620296478	pulse	0	t		80.0	2.5	/experiments/knapen_AOT/AOT_stimuli/rescaled_final/1858_rv.mp4	0.0	367.6380159854889	
82	338.4753999710083	movie	1		245	80.0	2.5	/experiments/knapen_AOT/AOT_stimuli/rescaled_final/1858_rv.mp4	0.0	367.64615392684937	2.508734941482544
82	340.06800389289856	pulse	1	t		80.0	2.5	/experiments/knapen_AOT/AOT_stimuli/rescaled_final/1858_rv.mp4	0.0	369.2387578487396	
82	340.98413491249084	fix_post	2		12	80.0	2.5	/experiments/knapen_AOT/AOT_stimuli/rescaled_final/1858_rv.mp4	0.0	370.1548888683319	0.10002493858337402
83	341.0841598510742	fix_pre	0		120	81.0	2.5	/experiments/knapen_AOT/AOT_stimuli/rescaled_final/0610_fw.mp4	0.0	370.2549138069153	1.0001749992370605
83	341.6601929664612	pulse	0	t		81.0	2.5	/experiments/knapen_AOT/AOT_stimuli/rescaled_final/0610_fw.mp4	0.0	370.83094692230225	
83	342.0843348503113	movie	1		244	81.0	2.5	/experiments/knapen_AOT/AOT_stimuli/rescaled_final/0610_fw.mp4	0.0	371.25508880615234	2.500310182571411
83	343.2639880180359	pulse	1	t		81.0	2.5	/experiments/knapen_AOT/AOT_stimuli/rescaled_final/0610_fw.mp4	0.0	372.43474197387695	
83	344.5846450328827	fix_post	2		12	81.0	2.5	/experiments/knapen_AOT/AOT_stimuli/rescaled_final/0610_fw.mp4	0.0	373.75539898872375	0.1000528335571289
84	344.6846978664398	fix_pre	0		120	82.0	2.5	/experiments/knapen_AOT/AOT_stimuli/rescaled_final/0879_rv.mp4	0.0	373.8554518222809	1.0001091957092285
84	344.8607220649719	pulse	0	t		82.0	2.5	/experiments/knapen_AOT/AOT_stimuli/rescaled_final/0879_rv.mp4	0.0	374.031476020813	
84	345.68480706214905	movie	1		244	82.0	2.5	/experiments/knapen_AOT/AOT_stimuli/rescaled_final/0879_rv.mp4	0.0	374.8555610179901	2.5003550052642822
84	346.4601788520813	pulse	1	t		82.0	2.5	/experiments/knapen_AOT/AOT_stimuli/rescaled_final/0879_rv.mp4	0.0	375.63093280792236	
84	348.06035900115967	pulse	1	t		82.0	2.5	/experiments/knapen_AOT/AOT_stimuli/rescaled_final/0879_rv.mp4	0.0	377.23111295700073	
84	348.18516206741333	fix_post	2		12	82.0	2.5	/experiments/knapen_AOT/AOT_stimuli/rescaled_final/0879_rv.mp4	0.0	377.3559160232544	0.10007381439208984
85	348.2852358818054	fix_pre	0		120	83.0	2.5	blank	1.0	377.4559898376465	1.0001461505889893
85	349.2853820323944	movie	1		299	83.0	2.5	blank	1.0	378.4561359882355	2.4920339584350586
85	349.66053891181946	pulse	1	t		83.0	2.5	blank	1.0	378.8312928676605	
85	351.2608640193939	pulse	1	t		83.0	2.5	blank	1.0	380.431617975235	
85	351.77741599082947	fix_post	2		12	83.0	2.5	blank	1.0	380.94816994667053	0.10003399848937988
87	351.87744998931885	stim	0		1716					381.0482039451599	14.302138090133667
87	352.86107206344604	pulse	0	t						382.0318260192871	
87	354.4613070487976	pulse	0	t						383.6320610046387	
87	356.0615019798279	pulse	0	t						385.23225593566895	
87	357.6618049144745	pulse	0	t						386.83255887031555	
87	359.26197385787964	pulse	0	t						388.4327278137207	
87	360.86227893829346	pulse	0	t						390.0330328941345	
87	362.4624910354614	pulse	0	t						391.6332449913025	
87	364.0627489089966	pulse	0	t						393.23350286483765	
87	365.6630139350891	pulse	0	t						394.8337678909302	
