trial_nr	onset	event_type	phase	response	nr_frames	movie_index	movie_duration	movie_file	blank	onset_abs	duration
0	0.16648578643798828	stim	0		54					40.921268939971924	0.4499547481536865
0	0.6084897518157959	response	0	space						41.36327290534973	
1	0.6164405345916748	stim	0		5018					41.37122368812561	41.834664821624756
1	42.44120478630066	pulse	0	t						83.1959879398346	
1	42.45110535621643	stim	1		1716					83.20588850975037	14.307140350341797
1	44.03172302246094	pulse	1	t						84.78650617599487	
1	45.632232666015625	pulse	1	t						86.38701581954956	
1	47.23213338851929	pulse	1	t						87.98691654205322	
1	48.83240532875061	pulse	1	t						89.58718848228455	
1	50.43283128738403	pulse	1	t						91.18761444091797	
1	52.03272318840027	pulse	1	t						92.7875063419342	
1	53.632933378219604	pulse	1	t						94.38771653175354	
1	55.23318791389465	pulse	1	t						95.98797106742859	
2	56.75824570655823	fix_pre	0		10	0.0	2.5	/experiments/knapen_AOT/AOT_stimuli/rescaled_final/0930_fw.mp4	0.0	97.51302886009216	0.10011506080627441
2	56.83349013328552	pulse	0	t		0.0	2.5	/experiments/knapen_AOT/AOT_stimuli/rescaled_final/0930_fw.mp4	0.0	97.58827328681946	
2	56.8583607673645	movie	1		290	0.0	2.5	/experiments/knapen_AOT/AOT_stimuli/rescaled_final/0930_fw.mp4	0.0	97.61314392089844	2.491933822631836
2	58.4319052696228	pulse	1	t		0.0	2.5	/experiments/knapen_AOT/AOT_stimuli/rescaled_final/0930_fw.mp4	0.0	99.18668842315674	
2	59.35029458999634	fix_post	2		12	0.0	2.5	/experiments/knapen_AOT/AOT_stimuli/rescaled_final/0930_fw.mp4	0.0	100.10507774353027	0.10001063346862793
3	59.450305223464966	fix_pre	0		120	1.0	2.5	/experiments/knapen_AOT/AOT_stimuli/rescaled_final/1555_fw.mp4	0.0	100.2050883769989	1.0085296630859375
3	60.034229040145874	pulse	0	t		1.0	2.5	/experiments/knapen_AOT/AOT_stimuli/rescaled_final/1555_fw.mp4	0.0	100.78901219367981	
3	60.4588348865509	movie	1		281	1.0	2.5	/experiments/knapen_AOT/AOT_stimuli/rescaled_final/1555_fw.mp4	0.0	101.21361804008484	2.4920132160186768
3	61.634772300720215	pulse	1	t		1.0	2.5	/experiments/knapen_AOT/AOT_stimuli/rescaled_final/1555_fw.mp4	0.0	102.38955545425415	
3	62.95084810256958	fix_post	2		12	1.0	2.5	/experiments/knapen_AOT/AOT_stimuli/rescaled_final/1555_fw.mp4	0.0	103.70563125610352	0.10001468658447266
4	63.05086278915405	fix_pre	0		120	2.0	2.5	/experiments/knapen_AOT/AOT_stimuli/rescaled_final/0578_rv.mp4	0.0	103.80564594268799	1.0085222721099854
4	63.23443293571472	pulse	0	t		2.0	2.5	/experiments/knapen_AOT/AOT_stimuli/rescaled_final/0578_rv.mp4	0.0	103.98921608924866	
4	64.05938506126404	movie	1		285	2.0	2.5	/experiments/knapen_AOT/AOT_stimuli/rescaled_final/0578_rv.mp4	0.0	104.81416821479797	2.5003418922424316
4	64.83250117301941	pulse	1	t		2.0	2.5	/experiments/knapen_AOT/AOT_stimuli/rescaled_final/0578_rv.mp4	0.0	105.58728432655334	
4	66.43269419670105	pulse	1	t		2.0	2.5	/experiments/knapen_AOT/AOT_stimuli/rescaled_final/0578_rv.mp4	0.0	107.18747735023499	
4	66.55972695350647	fix_post	2		11	2.0	2.5	/experiments/knapen_AOT/AOT_stimuli/rescaled_final/0578_rv.mp4	0.0	107.3145101070404	0.09168648719787598
5	66.65141344070435	fix_pre	0		120	3.0	2.5	/experiments/knapen_AOT/AOT_stimuli/rescaled_final/1506_rv.mp4	0.0	107.40619659423828	1.0085852146148682
5	67.65999865531921	movie	1		278	3.0	2.5	/experiments/knapen_AOT/AOT_stimuli/rescaled_final/1506_rv.mp4	0.0	108.41478180885315	2.4919209480285645
5	68.03334379196167	pulse	1	t		3.0	2.5	/experiments/knapen_AOT/AOT_stimuli/rescaled_final/1506_rv.mp4	0.0	108.7881269454956	
5	69.63347864151001	pulse	1	t		3.0	2.5	/experiments/knapen_AOT/AOT_stimuli/rescaled_final/1506_rv.mp4	0.0	110.38826179504395	
5	70.15191960334778	fix_post	2		12	3.0	2.5	/experiments/knapen_AOT/AOT_stimuli/rescaled_final/1506_rv.mp4	0.0	110.90670275688171	0.1000216007232666
6	70.25194120407104	fix_pre	0		119	4.0	2.5	/experiments/knapen_AOT/AOT_stimuli/rescaled_final/1042_fw.mp4	0.0	111.00672435760498	1.0001881122589111
6	71.23568844795227	pulse	0	t		4.0	2.5	/experiments/knapen_AOT/AOT_stimuli/rescaled_final/1042_fw.mp4	0.0	111.9904716014862	
6	71.25212931632996	movie	1		283	4.0	2.5	/experiments/knapen_AOT/AOT_stimuli/rescaled_final/1042_fw.mp4	0.0	112.00691246986389	2.500351905822754
6	72.83402156829834	pulse	1	t		4.0	2.5	/experiments/knapen_AOT/AOT_stimuli/rescaled_final/1042_fw.mp4	0.0	113.58880472183228	
6	73.75248122215271	fix_post	2		12	4.0	2.5	/experiments/knapen_AOT/AOT_stimuli/rescaled_final/1042_fw.mp4	0.0	114.50726437568665	0.1000051498413086
7	73.85248637199402	fix_pre	0		120	5.0	2.5	/experiments/knapen_AOT/AOT_stimuli/rescaled_final/1774_fw.mp4	0.0	114.60726952552795	1.0085673332214355
7	74.43648982048035	pulse	0	t		5.0	2.5	/experiments/knapen_AOT/AOT_stimuli/rescaled_final/1774_fw.mp4	0.0	115.19127297401428	
7	74.86105370521545	movie	1		278	5.0	2.5	/experiments/knapen_AOT/AOT_stimuli/rescaled_final/1774_fw.mp4	0.0	115.61583685874939	2.491957664489746
7	76.03433966636658	pulse	1	t		5.0	2.5	/experiments/knapen_AOT/AOT_stimuli/rescaled_final/1774_fw.mp4	0.0	116.78912281990051	
7	77.3530113697052	fix_post	2		12	5.0	2.5	/experiments/knapen_AOT/AOT_stimuli/rescaled_final/1774_fw.mp4	0.0	118.10779452323914	0.10013461112976074
8	77.45314598083496	fix_pre	0		120	6.0	2.5	blank	1.0	118.2079291343689	1.000028133392334
8	77.63662600517273	pulse	0	t		6.0	2.5	blank	1.0	118.39140915870667	
8	78.4531741142273	movie	1		300	6.0	2.5	blank	1.0	119.20795726776123	2.500370502471924
8	79.23675346374512	pulse	1	t		6.0	2.5	blank	1.0	119.99153661727905	
8	80.8370954990387	pulse	1	t		6.0	2.5	blank	1.0	121.59187865257263	
8	80.95354461669922	fix_post	2		12	6.0	2.5	blank	1.0	121.70832777023315	0.1000666618347168
9	81.05361127853394	fix_pre	0		120	7.0	2.5	/experiments/knapen_AOT/AOT_stimuli/rescaled_final/0424_fw.mp4	0.0	121.80839443206787	1.0084688663482666
9	82.0620801448822	movie	1		285	7.0	2.5	/experiments/knapen_AOT/AOT_stimuli/rescaled_final/0424_fw.mp4	0.0	122.81686329841614	2.4920613765716553
9	82.43613529205322	pulse	1	t		7.0	2.5	/experiments/knapen_AOT/AOT_stimuli/rescaled_final/0424_fw.mp4	0.0	123.19091844558716	
9	84.03764629364014	pulse	1	t		7.0	2.5	/experiments/knapen_AOT/AOT_stimuli/rescaled_final/0424_fw.mp4	0.0	124.79242944717407	
9	84.55414152145386	fix_post	2		12	7.0	2.5	/experiments/knapen_AOT/AOT_stimuli/rescaled_final/0424_fw.mp4	0.0	125.3089246749878	0.10001111030578613
10	84.65415263175964	fix_pre	0		119	8.0	2.5	/experiments/knapen_AOT/AOT_stimuli/rescaled_final/0799_rv.mp4	0.0	125.40893578529358	1.0001320838928223
10	85.63788151741028	pulse	0	t		8.0	2.5	/experiments/knapen_AOT/AOT_stimuli/rescaled_final/0799_rv.mp4	0.0	126.39266467094421	
10	85.65428471565247	movie	1		287	8.0	2.5	/experiments/knapen_AOT/AOT_stimuli/rescaled_final/0799_rv.mp4	0.0	126.4090678691864	2.5004055500030518
10	87.23767948150635	pulse	1	t		8.0	2.5	/experiments/knapen_AOT/AOT_stimuli/rescaled_final/0799_rv.mp4	0.0	127.99246263504028	
10	88.15469026565552	fix_post	2		12	8.0	2.5	/experiments/knapen_AOT/AOT_stimuli/rescaled_final/0799_rv.mp4	0.0	128.90947341918945	0.09997153282165527
11	88.25466179847717	fix_pre	0		120	9.0	2.5	/experiments/knapen_AOT/AOT_stimuli/rescaled_final/1024_rv.mp4	0.0	129.0094449520111	1.0085134506225586
11	88.8382978439331	pulse	0	t		9.0	2.5	/experiments/knapen_AOT/AOT_stimuli/rescaled_final/1024_rv.mp4	0.0	129.59308099746704	
11	89.26317524909973	movie	1		279	9.0	2.5	/experiments/knapen_AOT/AOT_stimuli/rescaled_final/1024_rv.mp4	0.0	130.01795840263367	2.4920108318328857
11	90.43736720085144	pulse	1	t		9.0	2.5	/experiments/knapen_AOT/AOT_stimuli/rescaled_final/1024_rv.mp4	0.0	131.19215035438538	
11	91.75518608093262	fix_post	2		12	9.0	2.5	/experiments/knapen_AOT/AOT_stimuli/rescaled_final/1024_rv.mp4	0.0	132.50996923446655	0.10003066062927246
12	91.85521674156189	fix_pre	0		120	10.0	2.5	/experiments/knapen_AOT/AOT_stimuli/rescaled_final/1492_rv.mp4	0.0	132.60999989509583	1.0085504055023193
12	92.03087162971497	pulse	0	t		10.0	2.5	/experiments/knapen_AOT/AOT_stimuli/rescaled_final/1492_rv.mp4	0.0	132.7856547832489	
12	92.86376714706421	movie	1		281	10.0	2.5	/experiments/knapen_AOT/AOT_stimuli/rescaled_final/1492_rv.mp4	0.0	133.61855030059814	2.4919540882110596
12	93.63910603523254	pulse	1	t		10.0	2.5	/experiments/knapen_AOT/AOT_stimuli/rescaled_final/1492_rv.mp4	0.0	134.39388918876648	
12	95.23095321655273	pulse	1	t		10.0	2.5	/experiments/knapen_AOT/AOT_stimuli/rescaled_final/1492_rv.mp4	0.0	135.98573637008667	
12	95.35572123527527	fix_post	2		12	10.0	2.5	/experiments/knapen_AOT/AOT_stimuli/rescaled_final/1492_rv.mp4	0.0	136.1105043888092	0.1000511646270752
13	95.45577239990234	fix_pre	0		120	11.0	2.5	/experiments/knapen_AOT/AOT_stimuli/rescaled_final/1547_rv.mp4	0.0	136.21055555343628	1.0085761547088623
13	96.4643485546112	movie	1		285	11.0	2.5	/experiments/knapen_AOT/AOT_stimuli/rescaled_final/1547_rv.mp4	0.0	137.21913170814514	2.4919307231903076
13	96.83085346221924	pulse	1	t		11.0	2.5	/experiments/knapen_AOT/AOT_stimuli/rescaled_final/1547_rv.mp4	0.0	137.58563661575317	
13	98.43139600753784	pulse	1	t		11.0	2.5	/experiments/knapen_AOT/AOT_stimuli/rescaled_final/1547_rv.mp4	0.0	139.18617916107178	
13	98.95627927780151	fix_post	2		12	11.0	2.5	/experiments/knapen_AOT/AOT_stimuli/rescaled_final/1547_rv.mp4	0.0	139.71106243133545	0.10019731521606445
14	99.05647659301758	fix_pre	0		118	12.0	2.5	blank	1.0	139.8112597465515	0.9832663536071777
14	100.03165698051453	pulse	0	t		12.0	2.5	blank	1.0	140.78644013404846	
14	100.03974294662476	movie	1		301	12.0	2.5	blank	1.0	140.7945261001587	2.508725166320801
14	101.63190388679504	pulse	1	t		12.0	2.5	blank	1.0	142.38668704032898	
14	102.54846811294556	fix_post	2		12	12.0	2.5	blank	1.0	143.3032512664795	0.10002350807189941
15	102.64849162101746	fix_pre	0		120	13.0	2.5	/experiments/knapen_AOT/AOT_stimuli/rescaled_final/1042_fw.mp4	0.0	143.4032747745514	1.0085148811340332
15	103.2321674823761	pulse	0	t		13.0	2.5	/experiments/knapen_AOT/AOT_stimuli/rescaled_final/1042_fw.mp4	0.0	143.98695063591003	
15	103.65700650215149	movie	1		286	13.0	2.5	/experiments/knapen_AOT/AOT_stimuli/rescaled_final/1042_fw.mp4	0.0	144.41178965568542	2.492046356201172
15	104.83214974403381	pulse	1	t		13.0	2.5	/experiments/knapen_AOT/AOT_stimuli/rescaled_final/1042_fw.mp4	0.0	145.58693289756775	
15	106.14905285835266	fix_post	2		12	13.0	2.5	/experiments/knapen_AOT/AOT_stimuli/rescaled_final/1042_fw.mp4	0.0	146.9038360118866	0.10001444816589355
16	106.24906730651855	fix_pre	0		120	14.0	2.5	/experiments/knapen_AOT/AOT_stimuli/rescaled_final/0138_fw.mp4	0.0	147.0038504600525	1.0084619522094727
16	106.43260431289673	pulse	0	t		14.0	2.5	/experiments/knapen_AOT/AOT_stimuli/rescaled_final/0138_fw.mp4	0.0	147.18738746643066	
16	107.25752925872803	movie	1		279	14.0	2.5	/experiments/knapen_AOT/AOT_stimuli/rescaled_final/0138_fw.mp4	0.0	148.01231241226196	2.4920313358306885
16	108.03285360336304	pulse	1	t		14.0	2.5	/experiments/knapen_AOT/AOT_stimuli/rescaled_final/0138_fw.mp4	0.0	148.78763675689697	
16	109.6309163570404	pulse	1	t		14.0	2.5	/experiments/knapen_AOT/AOT_stimuli/rescaled_final/0138_fw.mp4	0.0	150.38569951057434	
16	109.74956059455872	fix_post	2		12	14.0	2.5	/experiments/knapen_AOT/AOT_stimuli/rescaled_final/0138_fw.mp4	0.0	150.50434374809265	0.10001873970031738
17	109.84957933425903	fix_pre	0		120	15.0	2.5	/experiments/knapen_AOT/AOT_stimuli/rescaled_final/1650_fw.mp4	0.0	150.60436248779297	1.0085151195526123
17	110.85809445381165	movie	1		289	15.0	2.5	/experiments/knapen_AOT/AOT_stimuli/rescaled_final/1650_fw.mp4	0.0	151.61287760734558	2.492033004760742
17	111.23143744468689	pulse	1	t		15.0	2.5	/experiments/knapen_AOT/AOT_stimuli/rescaled_final/1650_fw.mp4	0.0	151.98622059822083	
17	112.8335952758789	pulse	1	t		15.0	2.5	/experiments/knapen_AOT/AOT_stimuli/rescaled_final/1650_fw.mp4	0.0	153.58837842941284	
17	113.35012745857239	fix_post	2		12	15.0	2.5	/experiments/knapen_AOT/AOT_stimuli/rescaled_final/1650_fw.mp4	0.0	154.10491061210632	0.10000729560852051
18	113.45013475418091	fix_pre	0		119	16.0	2.5	/experiments/knapen_AOT/AOT_stimuli/rescaled_final/1095_rv.mp4	0.0	154.20491790771484	1.0001349449157715
18	114.43415141105652	pulse	0	t		16.0	2.5	/experiments/knapen_AOT/AOT_stimuli/rescaled_final/1095_rv.mp4	0.0	155.18893456459045	
18	114.45026969909668	movie	1		290	16.0	2.5	/experiments/knapen_AOT/AOT_stimuli/rescaled_final/1095_rv.mp4	0.0	155.20505285263062	2.5003745555877686
18	116.0336058139801	pulse	1	t		16.0	2.5	/experiments/knapen_AOT/AOT_stimuli/rescaled_final/1095_rv.mp4	0.0	156.78838896751404	
18	116.95064425468445	fix_post	2		12	16.0	2.5	/experiments/knapen_AOT/AOT_stimuli/rescaled_final/1095_rv.mp4	0.0	157.70542740821838	0.10008907318115234
19	117.0507333278656	fix_pre	0		120	17.0	2.5	/experiments/knapen_AOT/AOT_stimuli/rescaled_final/1774_rv.mp4	0.0	157.80551648139954	1.0084753036499023
19	117.63427090644836	pulse	0	t		17.0	2.5	/experiments/knapen_AOT/AOT_stimuli/rescaled_final/1774_rv.mp4	0.0	158.3890540599823	
19	118.0592086315155	movie	1		286	17.0	2.5	/experiments/knapen_AOT/AOT_stimuli/rescaled_final/1774_rv.mp4	0.0	158.81399178504944	2.4919862747192383
19	119.23368382453918	pulse	1	t		17.0	2.5	/experiments/knapen_AOT/AOT_stimuli/rescaled_final/1774_rv.mp4	0.0	159.98846697807312	
19	120.55119490623474	fix_post	2		12	17.0	2.5	/experiments/knapen_AOT/AOT_stimuli/rescaled_final/1774_rv.mp4	0.0	161.30597805976868	0.10001611709594727
20	120.65121102333069	fix_pre	0		120	18.0	2.5	/experiments/knapen_AOT/AOT_stimuli/rescaled_final/0257_fw.mp4	0.0	161.40599417686462	1.008540153503418
20	120.83477687835693	pulse	0	t		18.0	2.5	/experiments/knapen_AOT/AOT_stimuli/rescaled_final/0257_fw.mp4	0.0	161.58956003189087	
20	121.6597511768341	movie	1		291	18.0	2.5	/experiments/knapen_AOT/AOT_stimuli/rescaled_final/0257_fw.mp4	0.0	162.41453433036804	2.492133855819702
20	122.43293452262878	pulse	1	t		18.0	2.5	/experiments/knapen_AOT/AOT_stimuli/rescaled_final/0257_fw.mp4	0.0	163.18771767616272	
20	124.03324389457703	pulse	1	t		18.0	2.5	/experiments/knapen_AOT/AOT_stimuli/rescaled_final/0257_fw.mp4	0.0	164.78802704811096	
20	124.15188503265381	fix_post	2		12	18.0	2.5	/experiments/knapen_AOT/AOT_stimuli/rescaled_final/0257_fw.mp4	0.0	164.90666818618774	0.09986472129821777
21	124.25174975395203	fix_pre	0		120	19.0	2.5	/experiments/knapen_AOT/AOT_stimuli/rescaled_final/1615_fw.mp4	0.0	165.00653290748596	1.008502721786499
21	125.26025247573853	movie	1		281	19.0	2.5	/experiments/knapen_AOT/AOT_stimuli/rescaled_final/1615_fw.mp4	0.0	166.01503562927246	2.4920098781585693
21	125.63392472267151	pulse	1	t		19.0	2.5	/experiments/knapen_AOT/AOT_stimuli/rescaled_final/1615_fw.mp4	0.0	166.38870787620544	
21	127.23380589485168	pulse	1	t		19.0	2.5	/experiments/knapen_AOT/AOT_stimuli/rescaled_final/1615_fw.mp4	0.0	167.98858904838562	
21	127.7522623538971	fix_post	2		12	19.0	2.5	/experiments/knapen_AOT/AOT_stimuli/rescaled_final/1615_fw.mp4	0.0	168.50704550743103	0.10012030601501465
22	127.85238265991211	fix_pre	0		119	20.0	2.5	blank	1.0	168.60716581344604	0.9917685985565186
22	128.83596229553223	pulse	0	t		20.0	2.5	blank	1.0	169.59074544906616	
22	128.84415125846863	movie	1		301	20.0	2.5	blank	1.0	169.59893441200256	2.5086848735809326
22	130.43622946739197	pulse	1	t		20.0	2.5	blank	1.0	171.1910126209259	
22	131.35283613204956	fix_post	2		12	20.0	2.5	blank	1.0	172.1076192855835	0.09999680519104004
23	131.4528329372406	fix_pre	0		120	21.0	2.5	/experiments/knapen_AOT/AOT_stimuli/rescaled_final/0099_rv.mp4	0.0	172.20761609077454	1.0084896087646484
23	132.03658628463745	pulse	0	t		21.0	2.5	/experiments/knapen_AOT/AOT_stimuli/rescaled_final/0099_rv.mp4	0.0	172.7913694381714	
23	132.46132254600525	movie	1		296	21.0	2.5	/experiments/knapen_AOT/AOT_stimuli/rescaled_final/0099_rv.mp4	0.0	173.21610569953918	2.4920265674591064
23	133.63482475280762	pulse	1	t		21.0	2.5	/experiments/knapen_AOT/AOT_stimuli/rescaled_final/0099_rv.mp4	0.0	174.38960790634155	
23	134.95334911346436	fix_post	2		12	21.0	2.5	/experiments/knapen_AOT/AOT_stimuli/rescaled_final/0099_rv.mp4	0.0	175.7081322669983	0.10004568099975586
24	135.0533947944641	fix_pre	0		120	22.0	2.5	/experiments/knapen_AOT/AOT_stimuli/rescaled_final/0427_fw.mp4	0.0	175.80817794799805	1.0084822177886963
24	135.23693203926086	pulse	0	t		22.0	2.5	/experiments/knapen_AOT/AOT_stimuli/rescaled_final/0427_fw.mp4	0.0	175.9917151927948	
24	136.0618770122528	movie	1		280	22.0	2.5	/experiments/knapen_AOT/AOT_stimuli/rescaled_final/0427_fw.mp4	0.0	176.81666016578674	2.492114305496216
24	136.8348503112793	pulse	1	t		22.0	2.5	/experiments/knapen_AOT/AOT_stimuli/rescaled_final/0427_fw.mp4	0.0	177.58963346481323	
24	138.43540740013123	pulse	1	t		22.0	2.5	/experiments/knapen_AOT/AOT_stimuli/rescaled_final/0427_fw.mp4	0.0	179.19019055366516	
24	138.55399131774902	fix_post	2		12	22.0	2.5	/experiments/knapen_AOT/AOT_stimuli/rescaled_final/0427_fw.mp4	0.0	179.30877447128296	0.09996938705444336
25	138.65396070480347	fix_pre	0		120	23.0	2.5	/experiments/knapen_AOT/AOT_stimuli/rescaled_final/1793_fw.mp4	0.0	179.4087438583374	1.008460521697998
25	139.66242122650146	movie	1		289	23.0	2.5	/experiments/knapen_AOT/AOT_stimuli/rescaled_final/1793_fw.mp4	0.0	180.4172043800354	2.4920153617858887
25	140.03614044189453	pulse	1	t		23.0	2.5	/experiments/knapen_AOT/AOT_stimuli/rescaled_final/1793_fw.mp4	0.0	180.79092359542847	
25	141.6357741355896	pulse	1	t		23.0	2.5	/experiments/knapen_AOT/AOT_stimuli/rescaled_final/1793_fw.mp4	0.0	182.39055728912354	
25	142.15443658828735	fix_post	2		12	23.0	2.5	/experiments/knapen_AOT/AOT_stimuli/rescaled_final/1793_fw.mp4	0.0	182.9092197418213	0.10002279281616211
26	142.25445938110352	fix_pre	0		119	24.0	2.5	/experiments/knapen_AOT/AOT_stimuli/rescaled_final/1550_rv.mp4	0.0	183.00924253463745	1.0001811981201172
26	143.2382206916809	pulse	0	t		24.0	2.5	/experiments/knapen_AOT/AOT_stimuli/rescaled_final/1550_rv.mp4	0.0	183.99300384521484	
26	143.25464057922363	movie	1		295	24.0	2.5	/experiments/knapen_AOT/AOT_stimuli/rescaled_final/1550_rv.mp4	0.0	184.00942373275757	2.50034761428833
26	144.8366448879242	pulse	1	t		24.0	2.5	/experiments/knapen_AOT/AOT_stimuli/rescaled_final/1550_rv.mp4	0.0	185.59142804145813	
26	145.75498819351196	fix_post	2		12	24.0	2.5	/experiments/knapen_AOT/AOT_stimuli/rescaled_final/1550_rv.mp4	0.0	186.5097713470459	0.10001468658447266
27	145.85500288009644	fix_pre	0		120	25.0	2.5	/experiments/knapen_AOT/AOT_stimuli/rescaled_final/1619_fw.mp4	0.0	186.60978603363037	1.0084962844848633
27	146.4385941028595	pulse	0	t		25.0	2.5	/experiments/knapen_AOT/AOT_stimuli/rescaled_final/1619_fw.mp4	0.0	187.19337725639343	
27	146.8634991645813	movie	1		289	25.0	2.5	/experiments/knapen_AOT/AOT_stimuli/rescaled_final/1619_fw.mp4	0.0	187.61828231811523	2.492034912109375
27	148.03700757026672	pulse	1	t		25.0	2.5	/experiments/knapen_AOT/AOT_stimuli/rescaled_final/1619_fw.mp4	0.0	188.79179072380066	
27	149.35553407669067	fix_post	2		12	25.0	2.5	/experiments/knapen_AOT/AOT_stimuli/rescaled_final/1619_fw.mp4	0.0	190.1103172302246	0.10001182556152344
28	149.4555459022522	fix_pre	0		120	26.0	2.5	blank	1.0	190.21032905578613	1.0001389980316162
28	149.63116598129272	pulse	0	t		26.0	2.5	blank	1.0	190.38594913482666	
28	150.4556849002838	movie	1		300	26.0	2.5	blank	1.0	191.21046805381775	2.5003902912139893
28	151.23118686676025	pulse	1	t		26.0	2.5	blank	1.0	191.9859700202942	
28	152.83136534690857	pulse	1	t		26.0	2.5	blank	1.0	193.5861485004425	
28	152.9560751914978	fix_post	2		12	26.0	2.5	blank	1.0	193.71085834503174	0.10004138946533203
29	153.05611658096313	fix_pre	0		120	27.0	2.5	/experiments/knapen_AOT/AOT_stimuli/rescaled_final/0114_rv.mp4	0.0	193.81089973449707	1.008474588394165
29	154.0645911693573	movie	1		284	27.0	2.5	/experiments/knapen_AOT/AOT_stimuli/rescaled_final/0114_rv.mp4	0.0	194.81937432289124	2.492077112197876
29	154.431560754776	pulse	1	t		27.0	2.5	/experiments/knapen_AOT/AOT_stimuli/rescaled_final/0114_rv.mp4	0.0	195.18634390830994	
29	156.0317370891571	pulse	1	t		27.0	2.5	/experiments/knapen_AOT/AOT_stimuli/rescaled_final/0114_rv.mp4	0.0	196.78652024269104	
29	156.55666828155518	fix_post	2		12	27.0	2.5	/experiments/knapen_AOT/AOT_stimuli/rescaled_final/0114_rv.mp4	0.0	197.3114514350891	0.10004210472106934
30	156.65671038627625	fix_pre	0		118	28.0	2.5	/experiments/knapen_AOT/AOT_stimuli/rescaled_final/0741_fw.mp4	0.0	197.41149353981018	0.9917490482330322
30	157.63201427459717	pulse	0	t		28.0	2.5	/experiments/knapen_AOT/AOT_stimuli/rescaled_final/0741_fw.mp4	0.0	198.3867974281311	
30	157.64845943450928	movie	1		293	28.0	2.5	/experiments/knapen_AOT/AOT_stimuli/rescaled_final/0741_fw.mp4	0.0	198.4032425880432	2.500392198562622
30	159.23227334022522	pulse	1	t		28.0	2.5	/experiments/knapen_AOT/AOT_stimuli/rescaled_final/0741_fw.mp4	0.0	199.98705649375916	
30	160.1488516330719	fix_post	2		12	28.0	2.5	/experiments/knapen_AOT/AOT_stimuli/rescaled_final/0741_fw.mp4	0.0	200.90363478660583	0.10001087188720703
31	160.2488625049591	fix_pre	0		120	29.0	2.5	/experiments/knapen_AOT/AOT_stimuli/rescaled_final/1860_fw.mp4	0.0	201.00364565849304	1.0084679126739502
31	160.83250784873962	pulse	0	t		29.0	2.5	/experiments/knapen_AOT/AOT_stimuli/rescaled_final/1860_fw.mp4	0.0	201.58729100227356	
31	161.25733041763306	movie	1		286	29.0	2.5	/experiments/knapen_AOT/AOT_stimuli/rescaled_final/1860_fw.mp4	0.0	202.012113571167	2.4922726154327393
31	162.43272042274475	pulse	1	t		29.0	2.5	/experiments/knapen_AOT/AOT_stimuli/rescaled_final/1860_fw.mp4	0.0	203.1875035762787	
31	163.7496030330658	fix_post	2		12	29.0	2.5	/experiments/knapen_AOT/AOT_stimuli/rescaled_final/1860_fw.mp4	0.0	204.50438618659973	0.09993171691894531
32	163.84953474998474	fix_pre	0		120	30.0	2.5	/experiments/knapen_AOT/AOT_stimuli/rescaled_final/0730_rv.mp4	0.0	204.60431790351868	1.0083351135253906
32	164.03296065330505	pulse	0	t		30.0	2.5	/experiments/knapen_AOT/AOT_stimuli/rescaled_final/0730_rv.mp4	0.0	204.787743806839	
32	164.85786986351013	movie	1		277	30.0	2.5	/experiments/knapen_AOT/AOT_stimuli/rescaled_final/0730_rv.mp4	0.0	205.61265301704407	2.4920365810394287
32	165.63317251205444	pulse	1	t		30.0	2.5	/experiments/knapen_AOT/AOT_stimuli/rescaled_final/0730_rv.mp4	0.0	206.38795566558838	
32	167.23254132270813	pulse	1	t		30.0	2.5	/experiments/knapen_AOT/AOT_stimuli/rescaled_final/0730_rv.mp4	0.0	207.98732447624207	
32	167.34990644454956	fix_post	2		12	30.0	2.5	/experiments/knapen_AOT/AOT_stimuli/rescaled_final/0730_rv.mp4	0.0	208.1046895980835	0.1000218391418457
33	167.4499282836914	fix_pre	0		120	31.0	2.5	/experiments/knapen_AOT/AOT_stimuli/rescaled_final/1646_fw.mp4	0.0	208.20471143722534	1.008474349975586
33	168.458402633667	movie	1		287	31.0	2.5	/experiments/knapen_AOT/AOT_stimuli/rescaled_final/1646_fw.mp4	0.0	209.21318578720093	2.4920718669891357
33	168.83172941207886	pulse	1	t		31.0	2.5	/experiments/knapen_AOT/AOT_stimuli/rescaled_final/1646_fw.mp4	0.0	209.5865125656128	
33	170.43157052993774	pulse	1	t		31.0	2.5	/experiments/knapen_AOT/AOT_stimuli/rescaled_final/1646_fw.mp4	0.0	211.18635368347168	
33	170.95047450065613	fix_post	2		12	31.0	2.5	/experiments/knapen_AOT/AOT_stimuli/rescaled_final/1646_fw.mp4	0.0	211.70525765419006	0.10000419616699219
34	171.05047869682312	fix_pre	0		119	32.0	2.5	/experiments/knapen_AOT/AOT_stimuli/rescaled_final/1277_rv.mp4	0.0	211.80526185035706	1.000152587890625
34	172.03413009643555	pulse	0	t		32.0	2.5	/experiments/knapen_AOT/AOT_stimuli/rescaled_final/1277_rv.mp4	0.0	212.78891324996948	
34	172.05063128471375	movie	1		288	32.0	2.5	/experiments/knapen_AOT/AOT_stimuli/rescaled_final/1277_rv.mp4	0.0	212.80541443824768	2.500361919403076
34	173.63443756103516	pulse	1	t		32.0	2.5	/experiments/knapen_AOT/AOT_stimuli/rescaled_final/1277_rv.mp4	0.0	214.3892207145691	
34	174.55099320411682	fix_post	2		12	32.0	2.5	/experiments/knapen_AOT/AOT_stimuli/rescaled_final/1277_rv.mp4	0.0	215.30577635765076	0.10016989707946777
35	174.6511631011963	fix_pre	0		120	33.0	2.5	/experiments/knapen_AOT/AOT_stimuli/rescaled_final/0387_fw.mp4	0.0	215.40594625473022	1.0083835124969482
35	175.23472261428833	pulse	0	t		33.0	2.5	/experiments/knapen_AOT/AOT_stimuli/rescaled_final/0387_fw.mp4	0.0	215.98950576782227	
35	175.65954661369324	movie	1		285	33.0	2.5	/experiments/knapen_AOT/AOT_stimuli/rescaled_final/0387_fw.mp4	0.0	216.41432976722717	2.4919891357421875
35	176.83301639556885	pulse	1	t		33.0	2.5	/experiments/knapen_AOT/AOT_stimuli/rescaled_final/0387_fw.mp4	0.0	217.58779954910278	
35	178.15153574943542	fix_post	2		12	33.0	2.5	/experiments/knapen_AOT/AOT_stimuli/rescaled_final/0387_fw.mp4	0.0	218.90631890296936	0.1000068187713623
36	178.2515425682068	fix_pre	0		120	34.0	2.5	blank	1.0	219.00632572174072	1.0001747608184814
36	178.4352262020111	pulse	0	t		34.0	2.5	blank	1.0	219.19000935554504	
36	179.25171732902527	movie	1		300	34.0	2.5	blank	1.0	220.0065004825592	2.5003669261932373
36	180.0353651046753	pulse	1	t		34.0	2.5	blank	1.0	220.79014825820923	
36	181.63565969467163	pulse	1	t		34.0	2.5	blank	1.0	222.39044284820557	
36	181.7520842552185	fix_post	2		12	34.0	2.5	blank	1.0	222.50686740875244	0.10002422332763672
37	181.85210847854614	fix_pre	0		120	35.0	2.5	/experiments/knapen_AOT/AOT_stimuli/rescaled_final/0419_fw.mp4	0.0	222.60689163208008	1.0085110664367676
37	182.8606195449829	movie	1		286	35.0	2.5	/experiments/knapen_AOT/AOT_stimuli/rescaled_final/0419_fw.mp4	0.0	223.61540269851685	2.492002487182617
37	183.2341549396515	pulse	1	t		35.0	2.5	/experiments/knapen_AOT/AOT_stimuli/rescaled_final/0419_fw.mp4	0.0	223.98893809318542	
37	184.83550786972046	pulse	1	t		35.0	2.5	/experiments/knapen_AOT/AOT_stimuli/rescaled_final/0419_fw.mp4	0.0	225.5902910232544	
37	185.35262203216553	fix_post	2		12	35.0	2.5	/experiments/knapen_AOT/AOT_stimuli/rescaled_final/0419_fw.mp4	0.0	226.10740518569946	0.10004925727844238
38	185.45267128944397	fix_pre	0		119	36.0	2.5	/experiments/knapen_AOT/AOT_stimuli/rescaled_final/1361_fw.mp4	0.0	226.2074544429779	1.0001075267791748
38	186.43637871742249	pulse	0	t		36.0	2.5	/experiments/knapen_AOT/AOT_stimuli/rescaled_final/1361_fw.mp4	0.0	227.19116187095642	
38	186.45277881622314	movie	1		287	36.0	2.5	/experiments/knapen_AOT/AOT_stimuli/rescaled_final/1361_fw.mp4	0.0	227.20756196975708	2.500382900238037
38	188.03491711616516	pulse	1	t		36.0	2.5	/experiments/knapen_AOT/AOT_stimuli/rescaled_final/1361_fw.mp4	0.0	228.7897002696991	
38	188.95316171646118	fix_post	2		12	36.0	2.5	/experiments/knapen_AOT/AOT_stimuli/rescaled_final/1361_fw.mp4	0.0	229.70794486999512	0.10002613067626953
39	189.05318784713745	fix_pre	0		120	37.0	2.5	/experiments/knapen_AOT/AOT_stimuli/rescaled_final/1174_rv.mp4	0.0	229.8079710006714	1.0084846019744873
39	189.63680458068848	pulse	0	t		37.0	2.5	/experiments/knapen_AOT/AOT_stimuli/rescaled_final/1174_rv.mp4	0.0	230.3915877342224	
39	190.06167244911194	movie	1		287	37.0	2.5	/experiments/knapen_AOT/AOT_stimuli/rescaled_final/1174_rv.mp4	0.0	230.81645560264587	2.4920265674591064
39	191.2349636554718	pulse	1	t		37.0	2.5	/experiments/knapen_AOT/AOT_stimuli/rescaled_final/1174_rv.mp4	0.0	231.98974680900574	
39	192.55369901657104	fix_post	2		12	37.0	2.5	/experiments/knapen_AOT/AOT_stimuli/rescaled_final/1174_rv.mp4	0.0	233.30848217010498	0.10002517700195312
40	192.653724193573	fix_pre	0		120	38.0	2.5	/experiments/knapen_AOT/AOT_stimuli/rescaled_final/0794_fw.mp4	0.0	233.40850734710693	1.0084946155548096
40	192.83738231658936	pulse	0	t		38.0	2.5	/experiments/knapen_AOT/AOT_stimuli/rescaled_final/0794_fw.mp4	0.0	233.5921654701233	
40	193.6622188091278	movie	1		287	38.0	2.5	/experiments/knapen_AOT/AOT_stimuli/rescaled_final/0794_fw.mp4	0.0	234.41700196266174	2.4920120239257812
40	194.43521428108215	pulse	1	t		38.0	2.5	/experiments/knapen_AOT/AOT_stimuli/rescaled_final/0794_fw.mp4	0.0	235.1899974346161	
40	196.0359182357788	pulse	1	t		38.0	2.5	/experiments/knapen_AOT/AOT_stimuli/rescaled_final/0794_fw.mp4	0.0	236.79070138931274	
40	196.1542308330536	fix_post	2		12	38.0	2.5	/experiments/knapen_AOT/AOT_stimuli/rescaled_final/0794_fw.mp4	0.0	236.90901398658752	0.10004138946533203
41	196.25427222251892	fix_pre	0		120	39.0	2.5	/experiments/knapen_AOT/AOT_stimuli/rescaled_final/1506_rv.mp4	0.0	237.00905537605286	1.0085117816925049
41	197.26278400421143	movie	1		288	39.0	2.5	/experiments/knapen_AOT/AOT_stimuli/rescaled_final/1506_rv.mp4	0.0	238.01756715774536	2.49200177192688
41	197.63625741004944	pulse	1	t		39.0	2.5	/experiments/knapen_AOT/AOT_stimuli/rescaled_final/1506_rv.mp4	0.0	238.39104056358337	
41	199.2359881401062	pulse	1	t		39.0	2.5	/experiments/knapen_AOT/AOT_stimuli/rescaled_final/1506_rv.mp4	0.0	239.99077129364014	
41	199.7547857761383	fix_post	2		12	39.0	2.5	/experiments/knapen_AOT/AOT_stimuli/rescaled_final/1506_rv.mp4	0.0	240.50956892967224	0.1000213623046875
42	199.854807138443	fix_pre	0		118	40.0	2.5	/experiments/knapen_AOT/AOT_stimuli/rescaled_final/1412_rv.mp4	0.0	240.60959029197693	0.9918038845062256
42	200.83095359802246	pulse	0	t		40.0	2.5	/experiments/knapen_AOT/AOT_stimuli/rescaled_final/1412_rv.mp4	0.0	241.5857367515564	
42	200.84661102294922	movie	1		286	40.0	2.5	/experiments/knapen_AOT/AOT_stimuli/rescaled_final/1412_rv.mp4	0.0	241.60139417648315	2.5004255771636963
42	202.43061685562134	pulse	1	t		40.0	2.5	/experiments/knapen_AOT/AOT_stimuli/rescaled_final/1412_rv.mp4	0.0	243.18540000915527	
42	203.34703660011292	fix_post	2		12	40.0	2.5	/experiments/knapen_AOT/AOT_stimuli/rescaled_final/1412_rv.mp4	0.0	244.10181975364685	0.10004019737243652
43	203.44707679748535	fix_pre	0		120	41.0	2.5	blank	1.0	244.2018599510193	1.0000808238983154
43	204.03063774108887	pulse	0	t		41.0	2.5	blank	1.0	244.7854208946228	
43	204.44715762138367	movie	1		300	41.0	2.5	blank	1.0	245.2019407749176	2.5003671646118164
43	205.6308913230896	pulse	1	t		41.0	2.5	blank	1.0	246.38567447662354	
43	206.94752478599548	fix_post	2		12	41.0	2.5	blank	1.0	247.70230793952942	0.09999895095825195
44	207.04752373695374	fix_pre	0		120	42.0	2.5	/experiments/knapen_AOT/AOT_stimuli/rescaled_final/0419_rv.mp4	0.0	247.80230689048767	1.008584976196289
44	207.2312433719635	pulse	0	t		42.0	2.5	/experiments/knapen_AOT/AOT_stimuli/rescaled_final/0419_rv.mp4	0.0	247.98602652549744	
44	208.05610871315002	movie	1		283	42.0	2.5	/experiments/knapen_AOT/AOT_stimuli/rescaled_final/0419_rv.mp4	0.0	248.81089186668396	2.492202043533325
44	208.8308243751526	pulse	1	t		42.0	2.5	/experiments/knapen_AOT/AOT_stimuli/rescaled_final/0419_rv.mp4	0.0	249.58560752868652	
44	210.43163228034973	pulse	1	t		42.0	2.5	/experiments/knapen_AOT/AOT_stimuli/rescaled_final/0419_rv.mp4	0.0	251.18641543388367	
44	210.54831075668335	fix_post	2		12	42.0	2.5	/experiments/knapen_AOT/AOT_stimuli/rescaled_final/0419_rv.mp4	0.0	251.30309391021729	0.09982991218566895
45	210.64814066886902	fix_pre	0		120	43.0	2.5	/experiments/knapen_AOT/AOT_stimuli/rescaled_final/2057_fw.mp4	0.0	251.40292382240295	1.0084552764892578
45	211.65659594535828	movie	1		283	43.0	2.5	/experiments/knapen_AOT/AOT_stimuli/rescaled_final/2057_fw.mp4	0.0	252.4113790988922	2.4920220375061035
45	212.03185844421387	pulse	1	t		43.0	2.5	/experiments/knapen_AOT/AOT_stimuli/rescaled_final/2057_fw.mp4	0.0	252.7866415977478	
45	213.63212180137634	pulse	1	t		43.0	2.5	/experiments/knapen_AOT/AOT_stimuli/rescaled_final/2057_fw.mp4	0.0	254.38690495491028	
45	214.14861798286438	fix_post	2		12	43.0	2.5	/experiments/knapen_AOT/AOT_stimuli/rescaled_final/2057_fw.mp4	0.0	254.90340113639832	0.1000206470489502
46	214.24863862991333	fix_pre	0		119	44.0	2.5	/experiments/knapen_AOT/AOT_stimuli/rescaled_final/0987_rv.mp4	0.0	255.00342178344727	1.0001633167266846
46	215.23247480392456	pulse	0	t		44.0	2.5	/experiments/knapen_AOT/AOT_stimuli/rescaled_final/0987_rv.mp4	0.0	255.9872579574585	
46	215.24880194664001	movie	1		263	44.0	2.5	/experiments/knapen_AOT/AOT_stimuli/rescaled_final/0987_rv.mp4	0.0	256.00358510017395	2.5003976821899414
46	216.83143162727356	pulse	1	t		44.0	2.5	/experiments/knapen_AOT/AOT_stimuli/rescaled_final/0987_rv.mp4	0.0	257.5862147808075	
46	217.74919962882996	fix_post	2		12	44.0	2.5	/experiments/knapen_AOT/AOT_stimuli/rescaled_final/0987_rv.mp4	0.0	258.5039827823639	0.1000068187713623
47	217.84920644760132	fix_pre	0		120	45.0	2.5	/experiments/knapen_AOT/AOT_stimuli/rescaled_final/1642_rv.mp4	0.0	258.60398960113525	1.0084662437438965
47	218.4328682422638	pulse	0	t		45.0	2.5	/experiments/knapen_AOT/AOT_stimuli/rescaled_final/1642_rv.mp4	0.0	259.18765139579773	
47	218.85767269134521	movie	1		278	45.0	2.5	/experiments/knapen_AOT/AOT_stimuli/rescaled_final/1642_rv.mp4	0.0	259.61245584487915	2.492039442062378
47	220.03105974197388	pulse	1	t		45.0	2.5	/experiments/knapen_AOT/AOT_stimuli/rescaled_final/1642_rv.mp4	0.0	260.7858428955078	
47	221.3497121334076	fix_post	2		12	45.0	2.5	/experiments/knapen_AOT/AOT_stimuli/rescaled_final/1642_rv.mp4	0.0	262.1044952869415	0.10000109672546387
48	221.44971323013306	fix_pre	0		120	46.0	2.5	/experiments/knapen_AOT/AOT_stimuli/rescaled_final/0293_fw.mp4	0.0	262.204496383667	1.0085594654083252
48	221.63340020179749	pulse	0	t		46.0	2.5	/experiments/knapen_AOT/AOT_stimuli/rescaled_final/0293_fw.mp4	0.0	262.3881833553314	
48	222.45827269554138	movie	1		279	46.0	2.5	/experiments/knapen_AOT/AOT_stimuli/rescaled_final/0293_fw.mp4	0.0	263.2130558490753	2.492008924484253
48	223.23436784744263	pulse	1	t		46.0	2.5	/experiments/knapen_AOT/AOT_stimuli/rescaled_final/0293_fw.mp4	0.0	263.98915100097656	
48	224.8317277431488	pulse	1	t		46.0	2.5	/experiments/knapen_AOT/AOT_stimuli/rescaled_final/0293_fw.mp4	0.0	265.58651089668274	
48	224.95028162002563	fix_post	2		12	46.0	2.5	/experiments/knapen_AOT/AOT_stimuli/rescaled_final/0293_fw.mp4	0.0	265.70506477355957	0.09998655319213867
49	225.05026817321777	fix_pre	0		120	47.0	2.5	blank	1.0	265.8050513267517	1.0001230239868164
49	226.0503911972046	movie	1		300	47.0	2.5	blank	1.0	266.8051743507385	2.500431537628174
49	226.43400740623474	pulse	1	t		47.0	2.5	blank	1.0	267.1887905597687	
49	228.03433847427368	pulse	1	t		47.0	2.5	blank	1.0	268.7891216278076	
49	228.55082273483276	fix_post	2		12	47.0	2.5	blank	1.0	269.3056058883667	0.09998154640197754
50	228.65080428123474	fix_pre	0		119	48.0	2.5	/experiments/knapen_AOT/AOT_stimuli/rescaled_final/0536_fw.mp4	0.0	269.4055874347687	1.0001354217529297
50	229.6345329284668	pulse	0	t		48.0	2.5	/experiments/knapen_AOT/AOT_stimuli/rescaled_final/0536_fw.mp4	0.0	270.38931608200073	
50	229.65093970298767	movie	1		281	48.0	2.5	/experiments/knapen_AOT/AOT_stimuli/rescaled_final/0536_fw.mp4	0.0	270.4057228565216	2.5004608631134033
50	231.23307418823242	pulse	1	t		48.0	2.5	/experiments/knapen_AOT/AOT_stimuli/rescaled_final/0536_fw.mp4	0.0	271.98785734176636	
50	232.15140056610107	fix_post	2		12	48.0	2.5	/experiments/knapen_AOT/AOT_stimuli/rescaled_final/0536_fw.mp4	0.0	272.906183719635	0.10001063346862793
51	232.2514111995697	fix_pre	0		120	49.0	2.5	/experiments/knapen_AOT/AOT_stimuli/rescaled_final/1950_fw.mp4	0.0	273.00619435310364	1.008523941040039
51	232.8349847793579	pulse	0	t		49.0	2.5	/experiments/knapen_AOT/AOT_stimuli/rescaled_final/1950_fw.mp4	0.0	273.58976793289185	
51	233.25993514060974	movie	1		284	49.0	2.5	/experiments/knapen_AOT/AOT_stimuli/rescaled_final/1950_fw.mp4	0.0	274.0147182941437	2.4919326305389404
51	234.43317770957947	pulse	1	t		49.0	2.5	/experiments/knapen_AOT/AOT_stimuli/rescaled_final/1950_fw.mp4	0.0	275.1879608631134	
51	235.75186777114868	fix_post	2		12	49.0	2.5	/experiments/knapen_AOT/AOT_stimuli/rescaled_final/1950_fw.mp4	0.0	276.5066509246826	0.10001540184020996
52	235.8518831729889	fix_pre	0		120	50.0	2.5	/experiments/knapen_AOT/AOT_stimuli/rescaled_final/1177_fw.mp4	0.0	276.6066663265228	1.008481502532959
52	236.03544211387634	pulse	0	t		50.0	2.5	/experiments/knapen_AOT/AOT_stimuli/rescaled_final/1177_fw.mp4	0.0	276.7902252674103	
52	236.86036467552185	movie	1		282	50.0	2.5	/experiments/knapen_AOT/AOT_stimuli/rescaled_final/1177_fw.mp4	0.0	277.6151478290558	2.4920828342437744
52	237.63369631767273	pulse	1	t		50.0	2.5	/experiments/knapen_AOT/AOT_stimuli/rescaled_final/1177_fw.mp4	0.0	278.38847947120667	
52	239.2340064048767	pulse	1	t		50.0	2.5	/experiments/knapen_AOT/AOT_stimuli/rescaled_final/1177_fw.mp4	0.0	279.98878955841064	
52	239.35244750976562	fix_post	2		12	50.0	2.5	/experiments/knapen_AOT/AOT_stimuli/rescaled_final/1177_fw.mp4	0.0	280.10723066329956	0.10000753402709961
53	239.45245504379272	fix_pre	0		120	51.0	2.5	/experiments/knapen_AOT/AOT_stimuli/rescaled_final/1239_rv.mp4	0.0	280.20723819732666	1.008469581604004
53	240.46092462539673	movie	1		287	51.0	2.5	/experiments/knapen_AOT/AOT_stimuli/rescaled_final/1239_rv.mp4	0.0	281.21570777893066	2.492044448852539
53	240.8344542980194	pulse	1	t		51.0	2.5	/experiments/knapen_AOT/AOT_stimuli/rescaled_final/1239_rv.mp4	0.0	281.58923745155334	
53	242.4342122077942	pulse	1	t		51.0	2.5	/experiments/knapen_AOT/AOT_stimuli/rescaled_final/1239_rv.mp4	0.0	283.1889953613281	
53	242.95296907424927	fix_post	2		12	51.0	2.5	/experiments/knapen_AOT/AOT_stimuli/rescaled_final/1239_rv.mp4	0.0	283.7077522277832	0.10015106201171875
54	243.053120136261	fix_pre	0		119	52.0	2.5	/experiments/knapen_AOT/AOT_stimuli/rescaled_final/1242_rv.mp4	0.0	283.8079032897949	1.008479356765747
54	244.03670573234558	pulse	0	t		52.0	2.5	/experiments/knapen_AOT/AOT_stimuli/rescaled_final/1242_rv.mp4	0.0	284.7914888858795	
54	244.06159949302673	movie	1		275	52.0	2.5	/experiments/knapen_AOT/AOT_stimuli/rescaled_final/1242_rv.mp4	0.0	284.81638264656067	2.4919605255126953
54	245.63536262512207	pulse	1	t		52.0	2.5	/experiments/knapen_AOT/AOT_stimuli/rescaled_final/1242_rv.mp4	0.0	286.390145778656	
54	246.55356001853943	fix_post	2		12	52.0	2.5	/experiments/knapen_AOT/AOT_stimuli/rescaled_final/1242_rv.mp4	0.0	287.30834317207336	0.09999704360961914
55	246.65355706214905	fix_pre	0		120	53.0	2.5	/experiments/knapen_AOT/AOT_stimuli/rescaled_final/1925_fw.mp4	0.0	287.408340215683	1.0084545612335205
55	247.23719239234924	pulse	0	t		53.0	2.5	/experiments/knapen_AOT/AOT_stimuli/rescaled_final/1925_fw.mp4	0.0	287.9919755458832	
55	247.66201162338257	movie	1		287	53.0	2.5	/experiments/knapen_AOT/AOT_stimuli/rescaled_final/1925_fw.mp4	0.0	288.4167947769165	2.492037296295166
55	248.83562397956848	pulse	1	t		53.0	2.5	/experiments/knapen_AOT/AOT_stimuli/rescaled_final/1925_fw.mp4	0.0	289.5904071331024	
55	250.15404891967773	fix_post	2		12	53.0	2.5	/experiments/knapen_AOT/AOT_stimuli/rescaled_final/1925_fw.mp4	0.0	290.90883207321167	0.10003900527954102
56	250.25408792495728	fix_pre	0		120	54.0	2.5	/experiments/knapen_AOT/AOT_stimuli/rescaled_final/1690_rv.mp4	0.0	291.0088710784912	1.0085110664367676
56	250.43760704994202	pulse	0	t		54.0	2.5	/experiments/knapen_AOT/AOT_stimuli/rescaled_final/1690_rv.mp4	0.0	291.19239020347595	
56	251.26259899139404	movie	1		282	54.0	2.5	/experiments/knapen_AOT/AOT_stimuli/rescaled_final/1690_rv.mp4	0.0	292.017382144928	2.4920125007629395
56	252.03793048858643	pulse	1	t		54.0	2.5	/experiments/knapen_AOT/AOT_stimuli/rescaled_final/1690_rv.mp4	0.0	292.79271364212036	
56	253.63614916801453	pulse	1	t		54.0	2.5	/experiments/knapen_AOT/AOT_stimuli/rescaled_final/1690_rv.mp4	0.0	294.39093232154846	
56	253.75461149215698	fix_post	2		12	54.0	2.5	/experiments/knapen_AOT/AOT_stimuli/rescaled_final/1690_rv.mp4	0.0	294.5093946456909	0.1000211238861084
57	253.8546326160431	fix_pre	0		120	55.0	2.5	/experiments/knapen_AOT/AOT_stimuli/rescaled_final/1690_fw.mp4	0.0	294.609415769577	1.0085136890411377
57	254.86314630508423	movie	1		286	55.0	2.5	/experiments/knapen_AOT/AOT_stimuli/rescaled_final/1690_fw.mp4	0.0	295.61792945861816	2.4919755458831787
57	255.23721146583557	pulse	1	t		55.0	2.5	/experiments/knapen_AOT/AOT_stimuli/rescaled_final/1690_fw.mp4	0.0	295.9919946193695	
57	256.83886766433716	pulse	1	t		55.0	2.5	/experiments/knapen_AOT/AOT_stimuli/rescaled_final/1690_fw.mp4	0.0	297.5936508178711	
57	257.3551218509674	fix_post	2		12	55.0	2.5	/experiments/knapen_AOT/AOT_stimuli/rescaled_final/1690_fw.mp4	0.0	298.10990500450134	0.10001492500305176
58	257.45513677597046	fix_pre	0		119	56.0	2.5	blank	1.0	298.2099199295044	0.9918079376220703
58	258.43091320991516	pulse	0	t		56.0	2.5	blank	1.0	299.1856963634491	
58	258.44694471359253	movie	1		301	56.0	2.5	blank	1.0	299.20172786712646	2.5087814331054688
58	260.0309295654297	pulse	1	t		56.0	2.5	blank	1.0	300.7857127189636	
58	260.955726146698	fix_post	2		12	56.0	2.5	blank	1.0	301.71050930023193	0.10000348091125488
59	261.05572962760925	fix_pre	0		120	57.0	2.5	/experiments/knapen_AOT/AOT_stimuli/rescaled_final/0112_fw.mp4	0.0	301.8105127811432	1.0084829330444336
59	261.6309733390808	pulse	0	t		57.0	2.5	/experiments/knapen_AOT/AOT_stimuli/rescaled_final/0112_fw.mp4	0.0	302.38575649261475	
59	262.0642125606537	movie	1		283	57.0	2.5	/experiments/knapen_AOT/AOT_stimuli/rescaled_final/0112_fw.mp4	0.0	302.8189957141876	2.491990566253662
59	263.23129081726074	pulse	1	t		57.0	2.5	/experiments/knapen_AOT/AOT_stimuli/rescaled_final/0112_fw.mp4	0.0	303.9860739707947	
59	264.55620312690735	fix_post	2		12	57.0	2.5	/experiments/knapen_AOT/AOT_stimuli/rescaled_final/0112_fw.mp4	0.0	305.3109862804413	0.10006380081176758
60	264.6562669277191	fix_pre	0		120	58.0	2.5	/experiments/knapen_AOT/AOT_stimuli/rescaled_final/1242_rv.mp4	0.0	305.41105008125305	1.0085227489471436
60	264.83153653144836	pulse	0	t		58.0	2.5	/experiments/knapen_AOT/AOT_stimuli/rescaled_final/1242_rv.mp4	0.0	305.5863196849823	
60	265.66478967666626	movie	1		284	58.0	2.5	/experiments/knapen_AOT/AOT_stimuli/rescaled_final/1242_rv.mp4	0.0	306.4195728302002	2.492042064666748
60	266.4326150417328	pulse	1	t		58.0	2.5	/experiments/knapen_AOT/AOT_stimuli/rescaled_final/1242_rv.mp4	0.0	307.1873981952667	
60	268.03192138671875	pulse	1	t		58.0	2.5	/experiments/knapen_AOT/AOT_stimuli/rescaled_final/1242_rv.mp4	0.0	308.7867045402527	
60	268.156831741333	fix_post	2		12	58.0	2.5	/experiments/knapen_AOT/AOT_stimuli/rescaled_final/1242_rv.mp4	0.0	308.91161489486694	0.0999753475189209
61	268.25680708885193	fix_pre	0		120	59.0	2.5	/experiments/knapen_AOT/AOT_stimuli/rescaled_final/1907_fw.mp4	0.0	309.01159024238586	1.0084702968597412
61	269.26527738571167	movie	1		285	59.0	2.5	/experiments/knapen_AOT/AOT_stimuli/rescaled_final/1907_fw.mp4	0.0	310.0200605392456	2.492016077041626
61	269.63232493400574	pulse	1	t		59.0	2.5	/experiments/knapen_AOT/AOT_stimuli/rescaled_final/1907_fw.mp4	0.0	310.3871080875397	
61	271.232435464859	pulse	1	t		59.0	2.5	/experiments/knapen_AOT/AOT_stimuli/rescaled_final/1907_fw.mp4	0.0	311.98721861839294	
61	271.7572934627533	fix_post	2		12	59.0	2.5	/experiments/knapen_AOT/AOT_stimuli/rescaled_final/1907_fw.mp4	0.0	312.51207661628723	0.10003924369812012
62	271.8573327064514	fix_pre	0		118	60.0	2.5	/experiments/knapen_AOT/AOT_stimuli/rescaled_final/0700_fw.mp4	0.0	312.61211585998535	0.9918413162231445
62	272.832665681839	pulse	0	t		60.0	2.5	/experiments/knapen_AOT/AOT_stimuli/rescaled_final/0700_fw.mp4	0.0	313.5874488353729	
62	272.84917402267456	movie	1		283	60.0	2.5	/experiments/knapen_AOT/AOT_stimuli/rescaled_final/0700_fw.mp4	0.0	313.6039571762085	2.500328779220581
62	274.4313712120056	pulse	1	t		60.0	2.5	/experiments/knapen_AOT/AOT_stimuli/rescaled_final/0700_fw.mp4	0.0	315.18615436553955	
62	275.34950280189514	fix_post	2		12	60.0	2.5	/experiments/knapen_AOT/AOT_stimuli/rescaled_final/0700_fw.mp4	0.0	316.1042859554291	0.10000991821289062
63	275.44951272010803	fix_pre	0		120	61.0	2.5	blank	1.0	316.20429587364197	1.0001370906829834
63	276.0331349372864	pulse	0	t		61.0	2.5	blank	1.0	316.7879180908203	
63	276.449649810791	movie	1		300	61.0	2.5	blank	1.0	317.20443296432495	2.500429630279541
63	277.63340640068054	pulse	1	t		61.0	2.5	blank	1.0	318.3881895542145	
63	278.95007944107056	fix_post	2		12	61.0	2.5	blank	1.0	319.7048625946045	0.09998655319213867
64	279.0500659942627	fix_pre	0		120	62.0	2.5	/experiments/knapen_AOT/AOT_stimuli/rescaled_final/1617_rv.mp4	0.0	319.80484914779663	1.0084974765777588
64	279.23367977142334	pulse	0	t		62.0	2.5	/experiments/knapen_AOT/AOT_stimuli/rescaled_final/1617_rv.mp4	0.0	319.9884629249573	
64	280.05856347084045	movie	1		283	62.0	2.5	/experiments/knapen_AOT/AOT_stimuli/rescaled_final/1617_rv.mp4	0.0	320.8133466243744	2.492023468017578
64	280.83201837539673	pulse	1	t		62.0	2.5	/experiments/knapen_AOT/AOT_stimuli/rescaled_final/1617_rv.mp4	0.0	321.58680152893066	
64	282.43202328681946	pulse	1	t		62.0	2.5	/experiments/knapen_AOT/AOT_stimuli/rescaled_final/1617_rv.mp4	0.0	323.1868064403534	
64	282.55058693885803	fix_post	2		12	62.0	2.5	/experiments/knapen_AOT/AOT_stimuli/rescaled_final/1617_rv.mp4	0.0	323.30537009239197	0.10006833076477051
65	282.6506552696228	fix_pre	0		120	63.0	2.5	/experiments/knapen_AOT/AOT_stimuli/rescaled_final/1662_fw.mp4	0.0	323.40543842315674	1.008458137512207
65	283.659113407135	movie	1		287	63.0	2.5	/experiments/knapen_AOT/AOT_stimuli/rescaled_final/1662_fw.mp4	0.0	324.41389656066895	2.4920079708099365
65	284.0328438282013	pulse	1	t		63.0	2.5	/experiments/knapen_AOT/AOT_stimuli/rescaled_final/1662_fw.mp4	0.0	324.78762698173523	
65	285.6324760913849	pulse	1	t		63.0	2.5	/experiments/knapen_AOT/AOT_stimuli/rescaled_final/1662_fw.mp4	0.0	326.3872592449188	
65	286.15112137794495	fix_post	2		12	63.0	2.5	/experiments/knapen_AOT/AOT_stimuli/rescaled_final/1662_fw.mp4	0.0	326.9059045314789	0.09998106956481934
66	286.25110244750977	fix_pre	0		119	64.0	2.5	/experiments/knapen_AOT/AOT_stimuli/rescaled_final/1181_fw.mp4	0.0	327.0058856010437	1.00022292137146
66	287.2349376678467	pulse	0	t		64.0	2.5	/experiments/knapen_AOT/AOT_stimuli/rescaled_final/1181_fw.mp4	0.0	327.9897208213806	
66	287.2513253688812	movie	1		285	64.0	2.5	/experiments/knapen_AOT/AOT_stimuli/rescaled_final/1181_fw.mp4	0.0	328.00610852241516	2.5003509521484375
66	288.83383560180664	pulse	1	t		64.0	2.5	/experiments/knapen_AOT/AOT_stimuli/rescaled_final/1181_fw.mp4	0.0	329.5886187553406	
66	289.75167632102966	fix_post	2		12	64.0	2.5	/experiments/knapen_AOT/AOT_stimuli/rescaled_final/1181_fw.mp4	0.0	330.5064594745636	0.10000205039978027
67	289.85167837142944	fix_pre	0		120	65.0	2.5	/experiments/knapen_AOT/AOT_stimuli/rescaled_final/1405_rv.mp4	0.0	330.6064615249634	1.008497714996338
67	290.43531012535095	pulse	0	t		65.0	2.5	/experiments/knapen_AOT/AOT_stimuli/rescaled_final/1405_rv.mp4	0.0	331.1900932788849	
67	290.8601760864258	movie	1		283	65.0	2.5	/experiments/knapen_AOT/AOT_stimuli/rescaled_final/1405_rv.mp4	0.0	331.6149592399597	2.4920263290405273
67	292.0335371494293	pulse	1	t		65.0	2.5	/experiments/knapen_AOT/AOT_stimuli/rescaled_final/1405_rv.mp4	0.0	332.78832030296326	
67	293.3522024154663	fix_post	2		12	65.0	2.5	/experiments/knapen_AOT/AOT_stimuli/rescaled_final/1405_rv.mp4	0.0	334.10698556900024	0.1000823974609375
68	293.45228481292725	fix_pre	0		120	66.0	2.5	/experiments/knapen_AOT/AOT_stimuli/rescaled_final/0521_rv.mp4	0.0	334.2070679664612	1.0084483623504639
68	293.6357796192169	pulse	0	t		66.0	2.5	/experiments/knapen_AOT/AOT_stimuli/rescaled_final/0521_rv.mp4	0.0	334.39056277275085	
68	294.4607331752777	movie	1		287	66.0	2.5	/experiments/knapen_AOT/AOT_stimuli/rescaled_final/0521_rv.mp4	0.0	335.21551632881165	2.4920122623443604
68	295.2359893321991	pulse	1	t		66.0	2.5	/experiments/knapen_AOT/AOT_stimuli/rescaled_final/0521_rv.mp4	0.0	335.99077248573303	
68	296.8343605995178	pulse	1	t		66.0	2.5	/experiments/knapen_AOT/AOT_stimuli/rescaled_final/0521_rv.mp4	0.0	337.58914375305176	
68	296.95274543762207	fix_post	2		12	66.0	2.5	/experiments/knapen_AOT/AOT_stimuli/rescaled_final/0521_rv.mp4	0.0	337.707528591156	0.09999775886535645
69	297.0527431964874	fix_pre	0		120	67.0	2.5	/experiments/knapen_AOT/AOT_stimuli/rescaled_final/0087_fw.mp4	0.0	337.80752635002136	1.0085091590881348
69	298.06125235557556	movie	1		289	67.0	2.5	/experiments/knapen_AOT/AOT_stimuli/rescaled_final/0087_fw.mp4	0.0	338.8160355091095	2.4920456409454346
69	298.434716463089	pulse	1	t		67.0	2.5	/experiments/knapen_AOT/AOT_stimuli/rescaled_final/0087_fw.mp4	0.0	339.1894996166229	
69	300.03481245040894	pulse	1	t		67.0	2.5	/experiments/knapen_AOT/AOT_stimuli/rescaled_final/0087_fw.mp4	0.0	340.78959560394287	
69	300.553297996521	fix_post	2		12	67.0	2.5	/experiments/knapen_AOT/AOT_stimuli/rescaled_final/0087_fw.mp4	0.0	341.30808115005493	0.10004568099975586
70	300.65334367752075	fix_pre	0		119	68.0	2.5	blank	1.0	341.4081268310547	0.9917874336242676
70	301.6369824409485	pulse	0	t		68.0	2.5	blank	1.0	342.3917655944824	
70	301.645131111145	movie	1		301	68.0	2.5	blank	1.0	342.39991426467896	2.5086963176727295
70	303.23753786087036	pulse	1	t		68.0	2.5	blank	1.0	343.9923210144043	
70	304.15382742881775	fix_post	2		12	68.0	2.5	blank	1.0	344.9086105823517	0.10006356239318848
71	304.25389099121094	fix_pre	0		120	69.0	2.5	/experiments/knapen_AOT/AOT_stimuli/rescaled_final/0953_fw.mp4	0.0	345.0086741447449	1.0084376335144043
71	304.83748841285706	pulse	0	t		69.0	2.5	/experiments/knapen_AOT/AOT_stimuli/rescaled_final/0953_fw.mp4	0.0	345.592271566391	
71	305.26232862472534	movie	1		292	69.0	2.5	/experiments/knapen_AOT/AOT_stimuli/rescaled_final/0953_fw.mp4	0.0	346.0171117782593	2.492046594619751
71	306.4366283416748	pulse	1	t		69.0	2.5	/experiments/knapen_AOT/AOT_stimuli/rescaled_final/0953_fw.mp4	0.0	347.19141149520874	
71	307.7543752193451	fix_post	2		12	69.0	2.5	/experiments/knapen_AOT/AOT_stimuli/rescaled_final/0953_fw.mp4	0.0	348.509158372879	0.10001540184020996
72	307.8543906211853	fix_pre	0		120	70.0	2.5	/experiments/knapen_AOT/AOT_stimuli/rescaled_final/2062_fw.mp4	0.0	348.60917377471924	1.0085067749023438
72	308.0379481315613	pulse	0	t		70.0	2.5	/experiments/knapen_AOT/AOT_stimuli/rescaled_final/2062_fw.mp4	0.0	348.7927312850952	
72	308.86289739608765	movie	1		285	70.0	2.5	/experiments/knapen_AOT/AOT_stimuli/rescaled_final/2062_fw.mp4	0.0	349.6176805496216	2.4920051097869873
72	309.63625836372375	pulse	1	t		70.0	2.5	/experiments/knapen_AOT/AOT_stimuli/rescaled_final/2062_fw.mp4	0.0	350.3910415172577	
72	311.2364127635956	pulse	1	t		70.0	2.5	/experiments/knapen_AOT/AOT_stimuli/rescaled_final/2062_fw.mp4	0.0	351.9911959171295	
72	311.35490250587463	fix_post	2		12	70.0	2.5	/experiments/knapen_AOT/AOT_stimuli/rescaled_final/2062_fw.mp4	0.0	352.10968565940857	0.10016584396362305
73	311.45506834983826	fix_pre	0		120	71.0	2.5	/experiments/knapen_AOT/AOT_stimuli/rescaled_final/2055_fw.mp4	0.0	352.2098515033722	1.008410930633545
73	312.4634792804718	movie	1		280	71.0	2.5	/experiments/knapen_AOT/AOT_stimuli/rescaled_final/2055_fw.mp4	0.0	353.21826243400574	2.4919803142547607
73	312.8384029865265	pulse	1	t		71.0	2.5	/experiments/knapen_AOT/AOT_stimuli/rescaled_final/2055_fw.mp4	0.0	353.5931861400604	
73	314.4369852542877	pulse	1	t		71.0	2.5	/experiments/knapen_AOT/AOT_stimuli/rescaled_final/2055_fw.mp4	0.0	355.19176840782166	
73	314.95545959472656	fix_post	2		12	71.0	2.5	/experiments/knapen_AOT/AOT_stimuli/rescaled_final/2055_fw.mp4	0.0	355.7102427482605	0.10002279281616211
74	315.0554823875427	fix_pre	0		119	72.0	2.5	/experiments/knapen_AOT/AOT_stimuli/rescaled_final/0700_rv.mp4	0.0	355.81026554107666	1.0001907348632812
74	316.0321614742279	pulse	0	t		72.0	2.5	/experiments/knapen_AOT/AOT_stimuli/rescaled_final/0700_rv.mp4	0.0	356.78694462776184	
74	316.055673122406	movie	1		283	72.0	2.5	/experiments/knapen_AOT/AOT_stimuli/rescaled_final/0700_rv.mp4	0.0	356.81045627593994	2.500342607498169
74	317.6315584182739	pulse	1	t		72.0	2.5	/experiments/knapen_AOT/AOT_stimuli/rescaled_final/0700_rv.mp4	0.0	358.38634157180786	
74	318.5560157299042	fix_post	2		12	72.0	2.5	/experiments/knapen_AOT/AOT_stimuli/rescaled_final/0700_rv.mp4	0.0	359.3107988834381	0.10002398490905762
75	318.65603971481323	fix_pre	0		120	73.0	2.5	/experiments/knapen_AOT/AOT_stimuli/rescaled_final/1638_fw.mp4	0.0	359.41082286834717	1.0084798336029053
75	319.23145389556885	pulse	0	t		73.0	2.5	/experiments/knapen_AOT/AOT_stimuli/rescaled_final/1638_fw.mp4	0.0	359.9862370491028	
75	319.66451954841614	movie	1		284	73.0	2.5	/experiments/knapen_AOT/AOT_stimuli/rescaled_final/1638_fw.mp4	0.0	360.4193027019501	2.4920268058776855
75	320.8315894603729	pulse	1	t		73.0	2.5	/experiments/knapen_AOT/AOT_stimuli/rescaled_final/1638_fw.mp4	0.0	361.58637261390686	
75	322.1565463542938	fix_post	2		12	73.0	2.5	/experiments/knapen_AOT/AOT_stimuli/rescaled_final/1638_fw.mp4	0.0	362.91132950782776	0.10001897811889648
76	322.2565653324127	fix_pre	0		120	74.0	2.5	/experiments/knapen_AOT/AOT_stimuli/rescaled_final/0424_rv.mp4	0.0	363.01134848594666	1.0085196495056152
76	322.43196964263916	pulse	0	t		74.0	2.5	/experiments/knapen_AOT/AOT_stimuli/rescaled_final/0424_rv.mp4	0.0	363.1867527961731	
76	323.26508498191833	movie	1		281	74.0	2.5	/experiments/knapen_AOT/AOT_stimuli/rescaled_final/0424_rv.mp4	0.0	364.01986813545227	2.4920198917388916
76	324.03208231925964	pulse	1	t		74.0	2.5	/experiments/knapen_AOT/AOT_stimuli/rescaled_final/0424_rv.mp4	0.0	364.7868654727936	
76	325.63227677345276	pulse	1	t		74.0	2.5	/experiments/knapen_AOT/AOT_stimuli/rescaled_final/0424_rv.mp4	0.0	366.3870599269867	
76	325.7571048736572	fix_post	2		12	74.0	2.5	/experiments/knapen_AOT/AOT_stimuli/rescaled_final/0424_rv.mp4	0.0	366.51188802719116	0.10005688667297363
77	325.8571617603302	fix_pre	0		120	75.0	2.5	/experiments/knapen_AOT/AOT_stimuli/rescaled_final/0741_fw.mp4	0.0	366.61194491386414	1.0084638595581055
77	326.8656256198883	movie	1		278	75.0	2.5	/experiments/knapen_AOT/AOT_stimuli/rescaled_final/0741_fw.mp4	0.0	367.62040877342224	2.4920036792755127
77	327.23258686065674	pulse	1	t		75.0	2.5	/experiments/knapen_AOT/AOT_stimuli/rescaled_final/0741_fw.mp4	0.0	367.9873700141907	
77	328.83280897140503	pulse	1	t		75.0	2.5	/experiments/knapen_AOT/AOT_stimuli/rescaled_final/0741_fw.mp4	0.0	369.58759212493896	
77	329.3576292991638	fix_post	2		12	75.0	2.5	/experiments/knapen_AOT/AOT_stimuli/rescaled_final/0741_fw.mp4	0.0	370.11241245269775	0.10001254081726074
78	329.4576418399811	fix_pre	0		118	76.0	2.5	blank	1.0	370.212424993515	0.9834685325622559
78	330.4330356121063	pulse	0	t		76.0	2.5	blank	1.0	371.18781876564026	
78	330.44111037254333	movie	1		301	76.0	2.5	blank	1.0	371.19589352607727	2.508713483810425
78	332.033314704895	pulse	1	t		76.0	2.5	blank	1.0	372.78809785842896	
78	332.94982385635376	fix_post	2		12	76.0	2.5	blank	1.0	373.7046070098877	0.10007405281066895
79	333.04989790916443	fix_pre	0		120	77.0	2.5	/experiments/knapen_AOT/AOT_stimuli/rescaled_final/2091_rv.mp4	0.0	373.80468106269836	1.0084466934204102
79	333.63349628448486	pulse	0	t		77.0	2.5	/experiments/knapen_AOT/AOT_stimuli/rescaled_final/2091_rv.mp4	0.0	374.3882794380188	
79	334.05834460258484	movie	1		279	77.0	2.5	/experiments/knapen_AOT/AOT_stimuli/rescaled_final/2091_rv.mp4	0.0	374.8131277561188	2.4920177459716797
79	335.2321684360504	pulse	1	t		77.0	2.5	/experiments/knapen_AOT/AOT_stimuli/rescaled_final/2091_rv.mp4	0.0	375.98695158958435	
79	336.5503623485565	fix_post	2		12	77.0	2.5	/experiments/knapen_AOT/AOT_stimuli/rescaled_final/2091_rv.mp4	0.0	377.30514550209045	0.10005354881286621
80	336.6504158973694	fix_pre	0		120	78.0	2.5	/experiments/knapen_AOT/AOT_stimuli/rescaled_final/1642_rv.mp4	0.0	377.4051990509033	1.0084800720214844
80	336.8340411186218	pulse	0	t		78.0	2.5	/experiments/knapen_AOT/AOT_stimuli/rescaled_final/1642_rv.mp4	0.0	377.58882427215576	
80	337.65889596939087	movie	1		286	78.0	2.5	/experiments/knapen_AOT/AOT_stimuli/rescaled_final/1642_rv.mp4	0.0	378.4136791229248	2.4920244216918945
80	338.4332821369171	pulse	1	t		78.0	2.5	/experiments/knapen_AOT/AOT_stimuli/rescaled_final/1642_rv.mp4	0.0	379.18806529045105	
80	340.0349540710449	pulse	1	t		78.0	2.5	/experiments/knapen_AOT/AOT_stimuli/rescaled_final/1642_rv.mp4	0.0	380.78973722457886	
80	340.15092039108276	fix_post	2		12	78.0	2.5	/experiments/knapen_AOT/AOT_stimuli/rescaled_final/1642_rv.mp4	0.0	380.9057035446167	0.10001683235168457
81	340.25093722343445	fix_pre	0		120	79.0	2.5	/experiments/knapen_AOT/AOT_stimuli/rescaled_final/1915_fw.mp4	0.0	381.0057203769684	1.0084760189056396
81	341.2594132423401	movie	1		282	79.0	2.5	/experiments/knapen_AOT/AOT_stimuli/rescaled_final/1915_fw.mp4	0.0	382.014196395874	2.492058515548706
81	341.6345262527466	pulse	1	t		79.0	2.5	/experiments/knapen_AOT/AOT_stimuli/rescaled_final/1915_fw.mp4	0.0	382.3893094062805	
81	343.2329571247101	pulse	1	t		79.0	2.5	/experiments/knapen_AOT/AOT_stimuli/rescaled_final/1915_fw.mp4	0.0	383.987740278244	
81	343.7514717578888	fix_post	2		12	79.0	2.5	/experiments/knapen_AOT/AOT_stimuli/rescaled_final/1915_fw.mp4	0.0	384.50625491142273	0.10005021095275879
82	343.85152196884155	fix_pre	0		119	80.0	2.5	/experiments/knapen_AOT/AOT_stimuli/rescaled_final/0304_fw.mp4	0.0	384.6063051223755	1.0001134872436523
82	344.8351891040802	pulse	0	t		80.0	2.5	/experiments/knapen_AOT/AOT_stimuli/rescaled_final/0304_fw.mp4	0.0	385.58997225761414	
82	344.8516354560852	movie	1		273	80.0	2.5	/experiments/knapen_AOT/AOT_stimuli/rescaled_final/0304_fw.mp4	0.0	385.60641860961914	2.5003750324249268
82	346.43563628196716	pulse	1	t		80.0	2.5	/experiments/knapen_AOT/AOT_stimuli/rescaled_final/0304_fw.mp4	0.0	387.1904194355011	
82	347.35201048851013	fix_post	2		12	80.0	2.5	/experiments/knapen_AOT/AOT_stimuli/rescaled_final/0304_fw.mp4	0.0	388.10679364204407	0.10000252723693848
83	347.45201301574707	fix_pre	0		120	81.0	2.5	/experiments/knapen_AOT/AOT_stimuli/rescaled_final/0804_rv.mp4	0.0	388.206796169281	1.0084891319274902
83	348.03561305999756	pulse	0	t		81.0	2.5	/experiments/knapen_AOT/AOT_stimuli/rescaled_final/0804_rv.mp4	0.0	388.7903962135315	
83	348.46050214767456	movie	1		282	81.0	2.5	/experiments/knapen_AOT/AOT_stimuli/rescaled_final/0804_rv.mp4	0.0	389.2152853012085	2.492051601409912
83	349.63425159454346	pulse	1	t		81.0	2.5	/experiments/knapen_AOT/AOT_stimuli/rescaled_final/0804_rv.mp4	0.0	390.3890347480774	
83	350.9525537490845	fix_post	2		12	81.0	2.5	/experiments/knapen_AOT/AOT_stimuli/rescaled_final/0804_rv.mp4	0.0	391.7073369026184	0.10001063346862793
84	351.0525643825531	fix_pre	0		120	82.0	2.5	/experiments/knapen_AOT/AOT_stimuli/rescaled_final/1662_rv.mp4	0.0	391.80734753608704	1.008558750152588
84	351.23622393608093	pulse	0	t		82.0	2.5	/experiments/knapen_AOT/AOT_stimuli/rescaled_final/1662_rv.mp4	0.0	391.99100708961487	
84	352.0611231327057	movie	1		286	82.0	2.5	/experiments/knapen_AOT/AOT_stimuli/rescaled_final/1662_rv.mp4	0.0	392.8159062862396	2.4920153617858887
84	352.83669781684875	pulse	1	t		82.0	2.5	/experiments/knapen_AOT/AOT_stimuli/rescaled_final/1662_rv.mp4	0.0	393.5914809703827	
84	354.4347651004791	pulse	1	t		82.0	2.5	/experiments/knapen_AOT/AOT_stimuli/rescaled_final/1662_rv.mp4	0.0	395.18954825401306	
84	354.5531384944916	fix_post	2		12	82.0	2.5	/experiments/knapen_AOT/AOT_stimuli/rescaled_final/1662_rv.mp4	0.0	395.3079216480255	0.1000213623046875
85	354.65315985679626	fix_pre	0		120	83.0	2.5	blank	1.0	395.4079430103302	1.0000817775726318
85	355.6532416343689	movie	1		300	83.0	2.5	blank	1.0	396.40802478790283	2.500537395477295
85	356.036869764328	pulse	1	t		83.0	2.5	blank	1.0	396.79165291786194	
85	357.6371479034424	pulse	1	t		83.0	2.5	blank	1.0	398.3919310569763	
85	358.1537790298462	fix_post	2		12	83.0	2.5	blank	1.0	398.9085621833801	0.09983944892883301
87	358.253618478775	stim	0		1715					399.00840163230896	14.293850898742676
87	359.2373683452606	pulse	0	t						399.99215149879456	
87	360.8375332355499	pulse	0	t						401.59231638908386	
87	362.43779730796814	pulse	0	t						403.1925804615021	
87	364.0381760597229	pulse	0	t						404.79295921325684	
87	365.63120579719543	pulse	0	t						406.38598895072937	
87	367.23075556755066	pulse	0	t						407.9855387210846	
87	368.8307135105133	pulse	0	t						409.58549666404724	
87	370.4307723045349	pulse	0	t						411.18555545806885	
87	372.0309329032898	pulse	0	t						412.78571605682373	
