trial_nr	onset	event_type	phase	response	nr_frames	movie_index	movie_duration	movie_file	blank	onset_abs	duration
0	0.1749119758605957	stim	0		12					21.0109121799469	0.09986495971679688
0	0.2666201591491699	response	0	space						21.102620363235474	
1	0.2747769355773926	stim	0		3665					21.110777139663696	30.556644201278687
1	30.822459936141968	pulse	0	t						51.65846014022827	
1	30.83142113685608	stim	1		1716					51.66742134094238	14.308462381362915
1	32.41340899467468	pulse	1	t						53.249409198760986	
1	34.01345419883728	pulse	1	t						54.849454402923584	
1	35.61368703842163	pulse	1	t						56.449687242507935	
1	37.213897466659546	pulse	1	t						58.04989767074585	
1	38.81413984298706	pulse	1	t						59.650140047073364	
1	40.41434717178345	pulse	1	t						61.25034737586975	
1	42.014580488204956	pulse	1	t						62.85058069229126	
1	43.614811420440674	pulse	1	t						64.45081162452698	
2	45.139883518218994	fix_pre	0		10	0.0	2.5	/experiments/Knapen_AOT/AOT_stimuli/rescaled_final/1068_rv.mp4	0.0	65.9758837223053	0.10017633438110352
2	45.215105295181274	pulse	0	t		0.0	2.5	/experiments/Knapen_AOT/AOT_stimuli/rescaled_final/1068_rv.mp4	0.0	66.05110549926758	
2	45.2400598526001	movie	1		290	0.0	2.5	/experiments/Knapen_AOT/AOT_stimuli/rescaled_final/1068_rv.mp4	0.0	66.0760600566864	2.4918506145477295
2	46.81383275985718	pulse	1	t		0.0	2.5	/experiments/Knapen_AOT/AOT_stimuli/rescaled_final/1068_rv.mp4	0.0	67.64983296394348	
2	47.73191046714783	fix_post	2		12	0.0	2.5	/experiments/Knapen_AOT/AOT_stimuli/rescaled_final/1068_rv.mp4	0.0	68.56791067123413	0.10006499290466309
3	47.83197546005249	fix_pre	0		120	1.0	2.5	/experiments/Knapen_AOT/AOT_stimuli/rescaled_final/1716_rv.mp4	0.0	68.6679756641388	1.0085253715515137
3	48.4156014919281	pulse	0	t		1.0	2.5	/experiments/Knapen_AOT/AOT_stimuli/rescaled_final/1716_rv.mp4	0.0	69.2516016960144	
3	48.840500831604004	movie	1		292	1.0	2.5	/experiments/Knapen_AOT/AOT_stimuli/rescaled_final/1716_rv.mp4	0.0	69.67650103569031	2.49202561378479
3	50.013131856918335	pulse	1	t		1.0	2.5	/experiments/Knapen_AOT/AOT_stimuli/rescaled_final/1716_rv.mp4	0.0	70.84913206100464	
3	51.332526445388794	fix_post	2		12	1.0	2.5	/experiments/Knapen_AOT/AOT_stimuli/rescaled_final/1716_rv.mp4	0.0	72.1685266494751	0.0999307632446289
4	51.43245720863342	fix_pre	0		120	2.0	2.5	/experiments/Knapen_AOT/AOT_stimuli/rescaled_final/0193_fw.mp4	0.0	72.26845741271973	1.0085349082946777
4	51.616002559661865	pulse	0	t		2.0	2.5	/experiments/Knapen_AOT/AOT_stimuli/rescaled_final/0193_fw.mp4	0.0	72.45200276374817	
4	52.4409921169281	movie	1		294	2.0	2.5	/experiments/Knapen_AOT/AOT_stimuli/rescaled_final/0193_fw.mp4	0.0	73.2769923210144	2.4919960498809814
4	53.213521242141724	pulse	1	t		2.0	2.5	/experiments/Knapen_AOT/AOT_stimuli/rescaled_final/0193_fw.mp4	0.0	74.04952144622803	
4	54.81233358383179	pulse	1	t		2.0	2.5	/experiments/Knapen_AOT/AOT_stimuli/rescaled_final/0193_fw.mp4	0.0	75.64833378791809	
4	54.93298816680908	fix_post	2		12	2.0	2.5	/experiments/Knapen_AOT/AOT_stimuli/rescaled_final/0193_fw.mp4	0.0	75.76898837089539	0.10016894340515137
5	55.03315711021423	fix_pre	0		120	3.0	2.5	/experiments/Knapen_AOT/AOT_stimuli/rescaled_final/1375_rv.mp4	0.0	75.86915731430054	1.0083682537078857
5	56.04152536392212	movie	1		290	3.0	2.5	/experiments/Knapen_AOT/AOT_stimuli/rescaled_final/1375_rv.mp4	0.0	76.87752556800842	2.492023468017578
5	56.412859201431274	pulse	1	t		3.0	2.5	/experiments/Knapen_AOT/AOT_stimuli/rescaled_final/1375_rv.mp4	0.0	77.24885940551758	
5	58.016921043395996	pulse	1	t		3.0	2.5	/experiments/Knapen_AOT/AOT_stimuli/rescaled_final/1375_rv.mp4	0.0	78.8529212474823	
5	58.5335488319397	fix_post	2		12	3.0	2.5	/experiments/Knapen_AOT/AOT_stimuli/rescaled_final/1375_rv.mp4	0.0	79.369549036026	0.10000801086425781
6	58.633556842803955	fix_pre	0		119	4.0	2.5	/experiments/Knapen_AOT/AOT_stimuli/rescaled_final/1796_fw.mp4	0.0	79.46955704689026	1.0001633167266846
6	59.617262840270996	pulse	0	t		4.0	2.5	/experiments/Knapen_AOT/AOT_stimuli/rescaled_final/1796_fw.mp4	0.0	80.4532630443573	
6	59.63372015953064	movie	1		296	4.0	2.5	/experiments/Knapen_AOT/AOT_stimuli/rescaled_final/1796_fw.mp4	0.0	80.46972036361694	2.5003983974456787
6	61.215094804763794	pulse	1	t		4.0	2.5	/experiments/Knapen_AOT/AOT_stimuli/rescaled_final/1796_fw.mp4	0.0	82.0510950088501	
6	62.13411855697632	fix_post	2		12	4.0	2.5	/experiments/Knapen_AOT/AOT_stimuli/rescaled_final/1796_fw.mp4	0.0	82.97011876106262	0.10009956359863281
7	62.23421812057495	fix_pre	0		120	5.0	2.5	/experiments/Knapen_AOT/AOT_stimuli/rescaled_final/0901_rv.mp4	0.0	83.07021832466125	1.008427619934082
7	62.80986142158508	pulse	0	t		5.0	2.5	/experiments/Knapen_AOT/AOT_stimuli/rescaled_final/0901_rv.mp4	0.0	83.64586162567139	
7	63.24264574050903	movie	1		275	5.0	2.5	/experiments/Knapen_AOT/AOT_stimuli/rescaled_final/0901_rv.mp4	0.0	84.07864594459534	2.492001533508301
7	64.41019248962402	pulse	1	t		5.0	2.5	/experiments/Knapen_AOT/AOT_stimuli/rescaled_final/0901_rv.mp4	0.0	85.24619269371033	
7	65.73464727401733	fix_post	2		12	5.0	2.5	/experiments/Knapen_AOT/AOT_stimuli/rescaled_final/0901_rv.mp4	0.0	86.57064747810364	0.10001230239868164
8	65.83465957641602	fix_pre	0		120	6.0	2.5	blank	1.0	86.67065978050232	1.0002148151397705
8	66.00994634628296	pulse	0	t		6.0	2.5	blank	1.0	86.84594655036926	
8	66.83487439155579	movie	1		300	6.0	2.5	blank	1.0	87.67087459564209	2.500337839126587
8	67.61024689674377	pulse	1	t		6.0	2.5	blank	1.0	88.44624710083008	
8	69.21049618721008	pulse	1	t		6.0	2.5	blank	1.0	90.04649639129639	
8	69.33521223068237	fix_post	2		12	6.0	2.5	blank	1.0	90.17121243476868	0.10002255439758301
9	69.43523478507996	fix_pre	0		120	7.0	2.5	/experiments/Knapen_AOT/AOT_stimuli/rescaled_final/1823_fw.mp4	0.0	90.27123498916626	1.0084612369537354
9	70.44369602203369	movie	1		282	7.0	2.5	/experiments/Knapen_AOT/AOT_stimuli/rescaled_final/1823_fw.mp4	0.0	91.27969622612	2.492041826248169
9	70.8109176158905	pulse	1	t		7.0	2.5	/experiments/Knapen_AOT/AOT_stimuli/rescaled_final/1823_fw.mp4	0.0	91.6469178199768	
9	72.41086220741272	pulse	1	t		7.0	2.5	/experiments/Knapen_AOT/AOT_stimuli/rescaled_final/1823_fw.mp4	0.0	93.24686241149902	
9	72.93573784828186	fix_post	2		12	7.0	2.5	/experiments/Knapen_AOT/AOT_stimuli/rescaled_final/1823_fw.mp4	0.0	93.77173805236816	0.10001993179321289
10	73.03575778007507	fix_pre	0		118	8.0	2.5	/experiments/Knapen_AOT/AOT_stimuli/rescaled_final/0833_fw.mp4	0.0	93.87175798416138	0.9918293952941895
10	74.01110410690308	pulse	0	t		8.0	2.5	/experiments/Knapen_AOT/AOT_stimuli/rescaled_final/0833_fw.mp4	0.0	94.84710431098938	
10	74.02758717536926	movie	1		288	8.0	2.5	/experiments/Knapen_AOT/AOT_stimuli/rescaled_final/0833_fw.mp4	0.0	94.86358737945557	2.5003538131713867
10	75.61159992218018	pulse	1	t		8.0	2.5	/experiments/Knapen_AOT/AOT_stimuli/rescaled_final/0833_fw.mp4	0.0	96.44760012626648	
10	76.52794098854065	fix_post	2		12	8.0	2.5	/experiments/Knapen_AOT/AOT_stimuli/rescaled_final/0833_fw.mp4	0.0	97.36394119262695	0.10002970695495605
11	76.6279706954956	fix_pre	0		120	9.0	2.5	/experiments/Knapen_AOT/AOT_stimuli/rescaled_final/1456_rv.mp4	0.0	97.46397089958191	1.0084946155548096
11	77.21165299415588	pulse	0	t		9.0	2.5	/experiments/Knapen_AOT/AOT_stimuli/rescaled_final/1456_rv.mp4	0.0	98.04765319824219	
11	77.63646531105042	movie	1		285	9.0	2.5	/experiments/Knapen_AOT/AOT_stimuli/rescaled_final/1456_rv.mp4	0.0	98.47246551513672	2.4920341968536377
11	78.81183314323425	pulse	1	t		9.0	2.5	/experiments/Knapen_AOT/AOT_stimuli/rescaled_final/1456_rv.mp4	0.0	99.64783334732056	
11	80.12849950790405	fix_post	2		12	9.0	2.5	/experiments/Knapen_AOT/AOT_stimuli/rescaled_final/1456_rv.mp4	0.0	100.96449971199036	0.10000801086425781
12	80.22850751876831	fix_pre	0		120	10.0	2.5	/experiments/Knapen_AOT/AOT_stimuli/rescaled_final/0727_rv.mp4	0.0	101.06450772285461	1.0085008144378662
12	80.41233992576599	pulse	0	t		10.0	2.5	/experiments/Knapen_AOT/AOT_stimuli/rescaled_final/0727_rv.mp4	0.0	101.2483401298523	
12	81.23700833320618	movie	1		286	10.0	2.5	/experiments/Knapen_AOT/AOT_stimuli/rescaled_final/0727_rv.mp4	0.0	102.07300853729248	2.4920263290405273
12	82.01020836830139	pulse	1	t		10.0	2.5	/experiments/Knapen_AOT/AOT_stimuli/rescaled_final/0727_rv.mp4	0.0	102.8462085723877	
12	83.61056923866272	pulse	1	t		10.0	2.5	/experiments/Knapen_AOT/AOT_stimuli/rescaled_final/0727_rv.mp4	0.0	104.44656944274902	
12	83.7290346622467	fix_post	2		12	10.0	2.5	/experiments/Knapen_AOT/AOT_stimuli/rescaled_final/0727_rv.mp4	0.0	104.56503486633301	0.10020709037780762
13	83.82924175262451	fix_pre	0		120	11.0	2.5	/experiments/Knapen_AOT/AOT_stimuli/rescaled_final/1380_rv.mp4	0.0	104.66524195671082	1.0083131790161133
13	84.83755493164062	movie	1		288	11.0	2.5	/experiments/Knapen_AOT/AOT_stimuli/rescaled_final/1380_rv.mp4	0.0	105.67355513572693	2.4920175075531006
13	85.21146869659424	pulse	1	t		11.0	2.5	/experiments/Knapen_AOT/AOT_stimuli/rescaled_final/1380_rv.mp4	0.0	106.04746890068054	
13	86.81099200248718	pulse	1	t		11.0	2.5	/experiments/Knapen_AOT/AOT_stimuli/rescaled_final/1380_rv.mp4	0.0	107.64699220657349	
13	87.32957243919373	fix_post	2		12	11.0	2.5	/experiments/Knapen_AOT/AOT_stimuli/rescaled_final/1380_rv.mp4	0.0	108.16557264328003	0.10003113746643066
14	87.42960357666016	fix_pre	0		119	12.0	2.5	/experiments/Knapen_AOT/AOT_stimuli/rescaled_final/0686_rv.mp4	0.0	108.26560378074646	1.000112533569336
14	88.4132969379425	pulse	0	t		12.0	2.5	/experiments/Knapen_AOT/AOT_stimuli/rescaled_final/0686_rv.mp4	0.0	109.24929714202881	
14	88.42971611022949	movie	1		282	12.0	2.5	/experiments/Knapen_AOT/AOT_stimuli/rescaled_final/0686_rv.mp4	0.0	109.2657163143158	2.5004336833953857
14	90.01196575164795	pulse	1	t		12.0	2.5	/experiments/Knapen_AOT/AOT_stimuli/rescaled_final/0686_rv.mp4	0.0	110.84796595573425	
14	90.93014979362488	fix_post	2		12	12.0	2.5	/experiments/Knapen_AOT/AOT_stimuli/rescaled_final/0686_rv.mp4	0.0	111.76614999771118	0.10006141662597656
15	91.03021121025085	fix_pre	0		120	13.0	2.5	blank	1.0	111.86621141433716	1.000112533569336
15	91.61377930641174	pulse	0	t		13.0	2.5	blank	1.0	112.44977951049805	
15	92.03032374382019	movie	1		300	13.0	2.5	blank	1.0	112.8663239479065	2.500340461730957
15	93.21401453018188	pulse	1	t		13.0	2.5	blank	1.0	114.05001473426819	
15	94.53066420555115	fix_post	2		12	13.0	2.5	blank	1.0	115.36666440963745	0.10003924369812012
16	94.63070344924927	fix_pre	0		120	14.0	2.5	/experiments/Knapen_AOT/AOT_stimuli/rescaled_final/1375_fw.mp4	0.0	115.46670365333557	1.008554220199585
16	94.81428647041321	pulse	0	t		14.0	2.5	/experiments/Knapen_AOT/AOT_stimuli/rescaled_final/1375_fw.mp4	0.0	115.65028667449951	
16	95.63925766944885	movie	1		279	14.0	2.5	/experiments/Knapen_AOT/AOT_stimuli/rescaled_final/1375_fw.mp4	0.0	116.47525787353516	2.491952419281006
16	96.41222214698792	pulse	1	t		14.0	2.5	/experiments/Knapen_AOT/AOT_stimuli/rescaled_final/1375_fw.mp4	0.0	117.24822235107422	
16	98.01267504692078	pulse	1	t		14.0	2.5	/experiments/Knapen_AOT/AOT_stimuli/rescaled_final/1375_fw.mp4	0.0	118.84867525100708	
16	98.13121008872986	fix_post	2		12	14.0	2.5	/experiments/Knapen_AOT/AOT_stimuli/rescaled_final/1375_fw.mp4	0.0	118.96721029281616	0.10001277923583984
17	98.2312228679657	fix_pre	0		120	15.0	2.5	/experiments/Knapen_AOT/AOT_stimuli/rescaled_final/1040_fw.mp4	0.0	119.067223072052	1.0085031986236572
17	99.23972606658936	movie	1		280	15.0	2.5	/experiments/Knapen_AOT/AOT_stimuli/rescaled_final/1040_fw.mp4	0.0	120.07572627067566	2.492021322250366
17	99.61533617973328	pulse	1	t		15.0	2.5	/experiments/Knapen_AOT/AOT_stimuli/rescaled_final/1040_fw.mp4	0.0	120.45133638381958	
17	101.2132625579834	pulse	1	t		15.0	2.5	/experiments/Knapen_AOT/AOT_stimuli/rescaled_final/1040_fw.mp4	0.0	122.0492627620697	
17	101.73174738883972	fix_post	2		12	15.0	2.5	/experiments/Knapen_AOT/AOT_stimuli/rescaled_final/1040_fw.mp4	0.0	122.56774759292603	0.10000157356262207
18	101.83174896240234	fix_pre	0		119	16.0	2.5	/experiments/Knapen_AOT/AOT_stimuli/rescaled_final/1612_fw.mp4	0.0	122.66774916648865	1.0001404285430908
18	102.81545162200928	pulse	0	t		16.0	2.5	/experiments/Knapen_AOT/AOT_stimuli/rescaled_final/1612_fw.mp4	0.0	123.65145182609558	
18	102.83188939094543	movie	1		289	16.0	2.5	/experiments/Knapen_AOT/AOT_stimuli/rescaled_final/1612_fw.mp4	0.0	123.66788959503174	2.5003881454467773
18	104.41426467895508	pulse	1	t		16.0	2.5	/experiments/Knapen_AOT/AOT_stimuli/rescaled_final/1612_fw.mp4	0.0	125.25026488304138	
18	105.33227753639221	fix_post	2		12	16.0	2.5	/experiments/Knapen_AOT/AOT_stimuli/rescaled_final/1612_fw.mp4	0.0	126.16827774047852	0.10002851486206055
19	105.43230605125427	fix_pre	0		120	17.0	2.5	/experiments/Knapen_AOT/AOT_stimuli/rescaled_final/0961_fw.mp4	0.0	126.26830625534058	1.0085244178771973
19	106.01598954200745	pulse	0	t		17.0	2.5	/experiments/Knapen_AOT/AOT_stimuli/rescaled_final/0961_fw.mp4	0.0	126.85198974609375	
19	106.44083046913147	movie	1		294	17.0	2.5	/experiments/Knapen_AOT/AOT_stimuli/rescaled_final/0961_fw.mp4	0.0	127.27683067321777	2.4920339584350586
19	107.6141471862793	pulse	1	t		17.0	2.5	/experiments/Knapen_AOT/AOT_stimuli/rescaled_final/0961_fw.mp4	0.0	128.4501473903656	
19	108.93286442756653	fix_post	2		12	17.0	2.5	/experiments/Knapen_AOT/AOT_stimuli/rescaled_final/0961_fw.mp4	0.0	129.76886463165283	0.10003471374511719
20	109.03289914131165	fix_pre	0		120	18.0	2.5	/experiments/Knapen_AOT/AOT_stimuli/rescaled_final/1796_rv.mp4	0.0	129.86889934539795	1.008519172668457
20	109.21639013290405	pulse	0	t		18.0	2.5	/experiments/Knapen_AOT/AOT_stimuli/rescaled_final/1796_rv.mp4	0.0	130.05239033699036	
20	110.0414183139801	movie	1		271	18.0	2.5	/experiments/Knapen_AOT/AOT_stimuli/rescaled_final/1796_rv.mp4	0.0	130.8774185180664	2.4920766353607178
20	110.81468391418457	pulse	1	t		18.0	2.5	/experiments/Knapen_AOT/AOT_stimuli/rescaled_final/1796_rv.mp4	0.0	131.65068411827087	
20	112.41612601280212	pulse	1	t		18.0	2.5	/experiments/Knapen_AOT/AOT_stimuli/rescaled_final/1796_rv.mp4	0.0	133.25212621688843	
20	112.53349494934082	fix_post	2		12	18.0	2.5	/experiments/Knapen_AOT/AOT_stimuli/rescaled_final/1796_rv.mp4	0.0	133.36949515342712	0.09987330436706543
21	112.63336825370789	fix_pre	0		120	19.0	2.5	/experiments/Knapen_AOT/AOT_stimuli/rescaled_final/1098_fw.mp4	0.0	133.4693684577942	1.0086030960083008
21	113.64197134971619	movie	1		280	19.0	2.5	/experiments/Knapen_AOT/AOT_stimuli/rescaled_final/1098_fw.mp4	0.0	134.4779715538025	2.491953134536743
21	114.01627779006958	pulse	1	t		19.0	2.5	/experiments/Knapen_AOT/AOT_stimuli/rescaled_final/1098_fw.mp4	0.0	134.85227799415588	
21	115.61542415618896	pulse	1	t		19.0	2.5	/experiments/Knapen_AOT/AOT_stimuli/rescaled_final/1098_fw.mp4	0.0	136.45142436027527	
21	116.13392448425293	fix_post	2		12	19.0	2.5	/experiments/Knapen_AOT/AOT_stimuli/rescaled_final/1098_fw.mp4	0.0	136.96992468833923	0.10002779960632324
22	116.23395228385925	fix_pre	0		119	20.0	2.5	/experiments/Knapen_AOT/AOT_stimuli/rescaled_final/2039_fw.mp4	0.0	137.06995248794556	1.0001726150512695
22	117.2176342010498	pulse	0	t		20.0	2.5	/experiments/Knapen_AOT/AOT_stimuli/rescaled_final/2039_fw.mp4	0.0	138.0536344051361	
22	117.23412489891052	movie	1		275	20.0	2.5	/experiments/Knapen_AOT/AOT_stimuli/rescaled_final/2039_fw.mp4	0.0	138.07012510299683	2.500356674194336
22	118.81639361381531	pulse	1	t		20.0	2.5	/experiments/Knapen_AOT/AOT_stimuli/rescaled_final/2039_fw.mp4	0.0	139.6523938179016	
22	119.73448157310486	fix_post	2		12	20.0	2.5	/experiments/Knapen_AOT/AOT_stimuli/rescaled_final/2039_fw.mp4	0.0	140.57048177719116	0.10006165504455566
23	119.83454322814941	fix_pre	0		120	21.0	2.5	blank	1.0	140.67054343223572	1.000096082687378
23	120.41038942337036	pulse	0	t		21.0	2.5	blank	1.0	141.24638962745667	
23	120.83463931083679	movie	1		300	21.0	2.5	blank	1.0	141.6706395149231	2.500509262084961
23	122.01057267189026	pulse	1	t		21.0	2.5	blank	1.0	142.84657287597656	
23	123.33514857292175	fix_post	2		12	21.0	2.5	blank	1.0	144.17114877700806	0.09986162185668945
24	123.43501019477844	fix_pre	0		120	22.0	2.5	/experiments/Knapen_AOT/AOT_stimuli/rescaled_final/0320_fw.mp4	0.0	144.27101039886475	1.0084896087646484
24	123.61052346229553	pulse	0	t		22.0	2.5	/experiments/Knapen_AOT/AOT_stimuli/rescaled_final/0320_fw.mp4	0.0	144.44652366638184	
24	124.44349980354309	movie	1		281	22.0	2.5	/experiments/Knapen_AOT/AOT_stimuli/rescaled_final/0320_fw.mp4	0.0	145.2795000076294	2.492039918899536
24	125.21053338050842	pulse	1	t		22.0	2.5	/experiments/Knapen_AOT/AOT_stimuli/rescaled_final/0320_fw.mp4	0.0	146.04653358459473	
24	126.81038355827332	pulse	1	t		22.0	2.5	/experiments/Knapen_AOT/AOT_stimuli/rescaled_final/0320_fw.mp4	0.0	147.64638376235962	
24	126.93553972244263	fix_post	2		12	22.0	2.5	/experiments/Knapen_AOT/AOT_stimuli/rescaled_final/0320_fw.mp4	0.0	147.77153992652893	0.10006451606750488
25	127.03560423851013	fix_pre	0		120	23.0	2.5	/experiments/Knapen_AOT/AOT_stimuli/rescaled_final/0804_rv.mp4	0.0	147.87160444259644	1.0084760189056396
25	128.04408025741577	movie	1		285	23.0	2.5	/experiments/Knapen_AOT/AOT_stimuli/rescaled_final/0804_rv.mp4	0.0	148.88008046150208	2.4920544624328613
25	128.41152477264404	pulse	1	t		23.0	2.5	/experiments/Knapen_AOT/AOT_stimuli/rescaled_final/0804_rv.mp4	0.0	149.24752497673035	
25	130.011234998703	pulse	1	t		23.0	2.5	/experiments/Knapen_AOT/AOT_stimuli/rescaled_final/0804_rv.mp4	0.0	150.8472352027893	
25	130.53613471984863	fix_post	2		12	23.0	2.5	/experiments/Knapen_AOT/AOT_stimuli/rescaled_final/0804_rv.mp4	0.0	151.37213492393494	0.09996414184570312
26	130.63609886169434	fix_pre	0		118	24.0	2.5	/experiments/Knapen_AOT/AOT_stimuli/rescaled_final/1028_fw.mp4	0.0	151.47209906578064	0.9918205738067627
26	131.61176919937134	pulse	0	t		24.0	2.5	/experiments/Knapen_AOT/AOT_stimuli/rescaled_final/1028_fw.mp4	0.0	152.44776940345764	
26	131.6279194355011	movie	1		287	24.0	2.5	/experiments/Knapen_AOT/AOT_stimuli/rescaled_final/1028_fw.mp4	0.0	152.4639196395874	2.5003812313079834
26	133.21054530143738	pulse	1	t		24.0	2.5	/experiments/Knapen_AOT/AOT_stimuli/rescaled_final/1028_fw.mp4	0.0	154.04654550552368	
26	134.12830066680908	fix_post	2		12	24.0	2.5	/experiments/Knapen_AOT/AOT_stimuli/rescaled_final/1028_fw.mp4	0.0	154.96430087089539	0.10006475448608398
27	134.22836542129517	fix_pre	0		120	25.0	2.5	/experiments/Knapen_AOT/AOT_stimuli/rescaled_final/0097_fw.mp4	0.0	155.06436562538147	1.0084764957427979
27	134.8118908405304	pulse	0	t		25.0	2.5	/experiments/Knapen_AOT/AOT_stimuli/rescaled_final/0097_fw.mp4	0.0	155.6478910446167	
27	135.23684191703796	movie	1		286	25.0	2.5	/experiments/Knapen_AOT/AOT_stimuli/rescaled_final/0097_fw.mp4	0.0	156.07284212112427	2.492011308670044
27	136.41164207458496	pulse	1	t		25.0	2.5	/experiments/Knapen_AOT/AOT_stimuli/rescaled_final/0097_fw.mp4	0.0	157.24764227867126	
27	137.728853225708	fix_post	2		12	25.0	2.5	/experiments/Knapen_AOT/AOT_stimuli/rescaled_final/0097_fw.mp4	0.0	158.5648534297943	0.09999513626098633
28	137.828848361969	fix_pre	0		120	26.0	2.5	blank	1.0	158.6648485660553	1.0001733303070068
28	138.0123507976532	pulse	0	t		26.0	2.5	blank	1.0	158.8483510017395	
28	138.829021692276	movie	1		300	26.0	2.5	blank	1.0	159.6650218963623	2.50038480758667
28	139.61267805099487	pulse	1	t		26.0	2.5	blank	1.0	160.44867825508118	
28	141.2133378982544	pulse	1	t		26.0	2.5	blank	1.0	162.0493381023407	
28	141.32940649986267	fix_post	2		12	26.0	2.5	blank	1.0	162.16540670394897	0.10004806518554688
29	141.42945456504822	fix_pre	0		120	27.0	2.5	/experiments/Knapen_AOT/AOT_stimuli/rescaled_final/1118_rv.mp4	0.0	162.26545476913452	1.008422613143921
29	142.43787717819214	movie	1		276	27.0	2.5	/experiments/Knapen_AOT/AOT_stimuli/rescaled_final/1118_rv.mp4	0.0	163.27387738227844	2.4920477867126465
29	142.8117995262146	pulse	1	t		27.0	2.5	/experiments/Knapen_AOT/AOT_stimuli/rescaled_final/1118_rv.mp4	0.0	163.6477997303009	
29	144.41116166114807	pulse	1	t		27.0	2.5	/experiments/Knapen_AOT/AOT_stimuli/rescaled_final/1118_rv.mp4	0.0	165.24716186523438	
29	144.92992496490479	fix_post	2		12	27.0	2.5	/experiments/Knapen_AOT/AOT_stimuli/rescaled_final/1118_rv.mp4	0.0	165.7659251689911	0.10006117820739746
30	145.02998614311218	fix_pre	0		119	28.0	2.5	/experiments/Knapen_AOT/AOT_stimuli/rescaled_final/2015_fw.mp4	0.0	165.8659863471985	1.0001380443572998
30	146.01387405395508	pulse	0	t		28.0	2.5	/experiments/Knapen_AOT/AOT_stimuli/rescaled_final/2015_fw.mp4	0.0	166.84987425804138	
30	146.03012418746948	movie	1		289	28.0	2.5	/experiments/Knapen_AOT/AOT_stimuli/rescaled_final/2015_fw.mp4	0.0	166.8661243915558	2.500387668609619
30	147.6124289035797	pulse	1	t		28.0	2.5	/experiments/Knapen_AOT/AOT_stimuli/rescaled_final/2015_fw.mp4	0.0	168.44842910766602	
30	148.5305118560791	fix_post	2		12	28.0	2.5	/experiments/Knapen_AOT/AOT_stimuli/rescaled_final/2015_fw.mp4	0.0	169.3665120601654	0.09999871253967285
31	148.63051056861877	fix_pre	0		120	29.0	2.5	/experiments/Knapen_AOT/AOT_stimuli/rescaled_final/1390_rv.mp4	0.0	169.46651077270508	1.0084617137908936
31	149.21417784690857	pulse	0	t		29.0	2.5	/experiments/Knapen_AOT/AOT_stimuli/rescaled_final/1390_rv.mp4	0.0	170.05017805099487	
31	149.63897228240967	movie	1		290	29.0	2.5	/experiments/Knapen_AOT/AOT_stimuli/rescaled_final/1390_rv.mp4	0.0	170.47497248649597	2.4920568466186523
31	150.81267046928406	pulse	1	t		29.0	2.5	/experiments/Knapen_AOT/AOT_stimuli/rescaled_final/1390_rv.mp4	0.0	171.64867067337036	
31	152.13102912902832	fix_post	2		12	29.0	2.5	/experiments/Knapen_AOT/AOT_stimuli/rescaled_final/1390_rv.mp4	0.0	172.96702933311462	0.1000509262084961
32	152.23108005523682	fix_pre	0		120	30.0	2.5	/experiments/Knapen_AOT/AOT_stimuli/rescaled_final/1934_rv.mp4	0.0	173.06708025932312	1.0084199905395508
32	152.41464161872864	pulse	0	t		30.0	2.5	/experiments/Knapen_AOT/AOT_stimuli/rescaled_final/1934_rv.mp4	0.0	173.25064182281494	
32	153.23950004577637	movie	1		285	30.0	2.5	/experiments/Knapen_AOT/AOT_stimuli/rescaled_final/1934_rv.mp4	0.0	174.07550024986267	2.4920830726623535
32	154.013014793396	pulse	1	t		30.0	2.5	/experiments/Knapen_AOT/AOT_stimuli/rescaled_final/1934_rv.mp4	0.0	174.8490149974823	
32	155.6133062839508	pulse	1	t		30.0	2.5	/experiments/Knapen_AOT/AOT_stimuli/rescaled_final/1934_rv.mp4	0.0	176.4493064880371	
32	155.73158311843872	fix_post	2		12	30.0	2.5	/experiments/Knapen_AOT/AOT_stimuli/rescaled_final/1934_rv.mp4	0.0	176.56758332252502	0.09997916221618652
33	155.8315622806549	fix_pre	0		120	31.0	2.5	/experiments/Knapen_AOT/AOT_stimuli/rescaled_final/0598_fw.mp4	0.0	176.6675624847412	1.0085194110870361
33	156.84008169174194	movie	1		282	31.0	2.5	/experiments/Knapen_AOT/AOT_stimuli/rescaled_final/0598_fw.mp4	0.0	177.67608189582825	2.4920151233673096
33	157.21485114097595	pulse	1	t		31.0	2.5	/experiments/Knapen_AOT/AOT_stimuli/rescaled_final/0598_fw.mp4	0.0	178.05085134506226	
33	158.8152153491974	pulse	1	t		31.0	2.5	/experiments/Knapen_AOT/AOT_stimuli/rescaled_final/0598_fw.mp4	0.0	179.6512155532837	
33	159.33209681510925	fix_post	2		12	31.0	2.5	/experiments/Knapen_AOT/AOT_stimuli/rescaled_final/0598_fw.mp4	0.0	180.16809701919556	0.10001850128173828
34	159.432115316391	fix_pre	0		119	32.0	2.5	/experiments/Knapen_AOT/AOT_stimuli/rescaled_final/0657_rv.mp4	0.0	180.2681155204773	1.000162124633789
34	160.41583132743835	pulse	0	t		32.0	2.5	/experiments/Knapen_AOT/AOT_stimuli/rescaled_final/0657_rv.mp4	0.0	181.25183153152466	
34	160.43227744102478	movie	1		290	32.0	2.5	/experiments/Knapen_AOT/AOT_stimuli/rescaled_final/0657_rv.mp4	0.0	181.26827764511108	2.5003414154052734
34	162.01465940475464	pulse	1	t		32.0	2.5	/experiments/Knapen_AOT/AOT_stimuli/rescaled_final/0657_rv.mp4	0.0	182.85065960884094	
34	162.93261885643005	fix_post	2		12	32.0	2.5	/experiments/Knapen_AOT/AOT_stimuli/rescaled_final/0657_rv.mp4	0.0	183.76861906051636	0.10004401206970215
35	163.03266286849976	fix_pre	0		120	33.0	2.5	/experiments/Knapen_AOT/AOT_stimuli/rescaled_final/1792_rv.mp4	0.0	183.86866307258606	1.0084831714630127
35	163.61625957489014	pulse	0	t		33.0	2.5	/experiments/Knapen_AOT/AOT_stimuli/rescaled_final/1792_rv.mp4	0.0	184.45225977897644	
35	164.04114603996277	movie	1		294	33.0	2.5	/experiments/Knapen_AOT/AOT_stimuli/rescaled_final/1792_rv.mp4	0.0	184.87714624404907	2.4920248985290527
35	165.21497750282288	pulse	1	t		33.0	2.5	/experiments/Knapen_AOT/AOT_stimuli/rescaled_final/1792_rv.mp4	0.0	186.05097770690918	
35	166.53317093849182	fix_post	2		12	33.0	2.5	/experiments/Knapen_AOT/AOT_stimuli/rescaled_final/1792_rv.mp4	0.0	187.36917114257812	0.10006093978881836
36	166.63323187828064	fix_pre	0		120	34.0	2.5	blank	1.0	187.46923208236694	1.0000944137573242
36	166.81696820259094	pulse	0	t		34.0	2.5	blank	1.0	187.65296840667725	
36	167.63332629203796	movie	1		300	34.0	2.5	blank	1.0	188.46932649612427	2.5004749298095703
36	168.4170024394989	pulse	1	t		34.0	2.5	blank	1.0	189.2530026435852	
36	170.01728558540344	pulse	1	t		34.0	2.5	blank	1.0	190.85328578948975	
36	170.13380122184753	fix_post	2		12	34.0	2.5	blank	1.0	190.96980142593384	0.0999457836151123
37	170.23374700546265	fix_pre	0		120	35.0	2.5	/experiments/Knapen_AOT/AOT_stimuli/rescaled_final/1776_rv.mp4	0.0	191.06974720954895	1.0085563659667969
37	171.24230337142944	movie	1		264	35.0	2.5	/experiments/Knapen_AOT/AOT_stimuli/rescaled_final/1776_rv.mp4	0.0	192.07830357551575	2.4919400215148926
37	171.6162097454071	pulse	1	t		35.0	2.5	/experiments/Knapen_AOT/AOT_stimuli/rescaled_final/1776_rv.mp4	0.0	192.4522099494934	
37	173.2155797481537	pulse	1	t		35.0	2.5	/experiments/Knapen_AOT/AOT_stimuli/rescaled_final/1776_rv.mp4	0.0	194.05157995224	
37	173.73424339294434	fix_post	2		12	35.0	2.5	/experiments/Knapen_AOT/AOT_stimuli/rescaled_final/1776_rv.mp4	0.0	194.57024359703064	0.10004115104675293
38	173.8342845439911	fix_pre	0		119	36.0	2.5	/experiments/Knapen_AOT/AOT_stimuli/rescaled_final/1439_fw.mp4	0.0	194.6702847480774	1.0001442432403564
38	174.81808257102966	pulse	0	t		36.0	2.5	/experiments/Knapen_AOT/AOT_stimuli/rescaled_final/1439_fw.mp4	0.0	195.65408277511597	
38	174.83442878723145	movie	1		287	36.0	2.5	/experiments/Knapen_AOT/AOT_stimuli/rescaled_final/1439_fw.mp4	0.0	195.67042899131775	2.500382900238037
38	176.416748046875	pulse	1	t		36.0	2.5	/experiments/Knapen_AOT/AOT_stimuli/rescaled_final/1439_fw.mp4	0.0	197.2527482509613	
38	177.33481168746948	fix_post	2		12	36.0	2.5	/experiments/Knapen_AOT/AOT_stimuli/rescaled_final/1439_fw.mp4	0.0	198.1708118915558	0.09999489784240723
39	177.4348065853119	fix_pre	0		120	37.0	2.5	/experiments/Knapen_AOT/AOT_stimuli/rescaled_final/0832_fw.mp4	0.0	198.2708067893982	1.0085313320159912
39	178.01853966712952	pulse	0	t		37.0	2.5	/experiments/Knapen_AOT/AOT_stimuli/rescaled_final/0832_fw.mp4	0.0	198.85453987121582	
39	178.44333791732788	movie	1		289	37.0	2.5	/experiments/Knapen_AOT/AOT_stimuli/rescaled_final/0832_fw.mp4	0.0	199.27933812141418	2.4919912815093994
39	179.61714911460876	pulse	1	t		37.0	2.5	/experiments/Knapen_AOT/AOT_stimuli/rescaled_final/0832_fw.mp4	0.0	200.45314931869507	
39	180.93532919883728	fix_post	2		12	37.0	2.5	/experiments/Knapen_AOT/AOT_stimuli/rescaled_final/0832_fw.mp4	0.0	201.77132940292358	0.10003256797790527
40	181.03536176681519	fix_pre	0		120	38.0	2.5	/experiments/Knapen_AOT/AOT_stimuli/rescaled_final/0899_rv.mp4	0.0	201.8713619709015	1.0084757804870605
40	181.2107698917389	pulse	0	t		38.0	2.5	/experiments/Knapen_AOT/AOT_stimuli/rescaled_final/0899_rv.mp4	0.0	202.0467700958252	
40	182.04383754730225	movie	1		287	38.0	2.5	/experiments/Knapen_AOT/AOT_stimuli/rescaled_final/0899_rv.mp4	0.0	202.87983775138855	2.492035388946533
40	182.81086826324463	pulse	1	t		38.0	2.5	/experiments/Knapen_AOT/AOT_stimuli/rescaled_final/0899_rv.mp4	0.0	203.64686846733093	
40	184.4110677242279	pulse	1	t		38.0	2.5	/experiments/Knapen_AOT/AOT_stimuli/rescaled_final/0899_rv.mp4	0.0	205.2470679283142	
40	184.53587293624878	fix_post	2		12	38.0	2.5	/experiments/Knapen_AOT/AOT_stimuli/rescaled_final/0899_rv.mp4	0.0	205.37187314033508	0.10008502006530762
41	184.6359579563141	fix_pre	0		120	39.0	2.5	/experiments/Knapen_AOT/AOT_stimuli/rescaled_final/0985_fw.mp4	0.0	205.4719581604004	1.0084559917449951
41	185.64441394805908	movie	1		284	39.0	2.5	/experiments/Knapen_AOT/AOT_stimuli/rescaled_final/0985_fw.mp4	0.0	206.48041415214539	2.492039442062378
41	186.01077604293823	pulse	1	t		39.0	2.5	/experiments/Knapen_AOT/AOT_stimuli/rescaled_final/0985_fw.mp4	0.0	206.84677624702454	
41	187.6110212802887	pulse	1	t		39.0	2.5	/experiments/Knapen_AOT/AOT_stimuli/rescaled_final/0985_fw.mp4	0.0	208.447021484375	
41	188.13645339012146	fix_post	2		12	39.0	2.5	/experiments/Knapen_AOT/AOT_stimuli/rescaled_final/0985_fw.mp4	0.0	208.97245359420776	0.09998083114624023
42	188.2364342212677	fix_pre	0		118	40.0	2.5	/experiments/Knapen_AOT/AOT_stimuli/rescaled_final/1449_fw.mp4	0.0	209.072434425354	0.9918375015258789
42	189.21181988716125	pulse	0	t		40.0	2.5	/experiments/Knapen_AOT/AOT_stimuli/rescaled_final/1449_fw.mp4	0.0	210.04782009124756	
42	189.22827172279358	movie	1		284	40.0	2.5	/experiments/Knapen_AOT/AOT_stimuli/rescaled_final/1449_fw.mp4	0.0	210.06427192687988	2.5003814697265625
42	190.81105756759644	pulse	1	t		40.0	2.5	/experiments/Knapen_AOT/AOT_stimuli/rescaled_final/1449_fw.mp4	0.0	211.64705777168274	
42	191.72865319252014	fix_post	2		12	40.0	2.5	/experiments/Knapen_AOT/AOT_stimuli/rescaled_final/1449_fw.mp4	0.0	212.56465339660645	0.09999918937683105
43	191.82865238189697	fix_pre	0		120	41.0	2.5	/experiments/Knapen_AOT/AOT_stimuli/rescaled_final/0021_fw.mp4	0.0	212.66465258598328	1.0085301399230957
43	192.4123775959015	pulse	0	t		41.0	2.5	/experiments/Knapen_AOT/AOT_stimuli/rescaled_final/0021_fw.mp4	0.0	213.2483777999878	
43	192.83718252182007	movie	1		275	41.0	2.5	/experiments/Knapen_AOT/AOT_stimuli/rescaled_final/0021_fw.mp4	0.0	213.67318272590637	2.492011308670044
43	194.01285338401794	pulse	1	t		41.0	2.5	/experiments/Knapen_AOT/AOT_stimuli/rescaled_final/0021_fw.mp4	0.0	214.84885358810425	
43	195.3291938304901	fix_post	2		12	41.0	2.5	/experiments/Knapen_AOT/AOT_stimuli/rescaled_final/0021_fw.mp4	0.0	216.16519403457642	0.09999418258666992
44	195.42918801307678	fix_pre	0		120	42.0	2.5	blank	1.0	216.2651882171631	1.000197172164917
44	195.61276125907898	pulse	0	t		42.0	2.5	blank	1.0	216.44876146316528	
44	196.4293851852417	movie	1		300	42.0	2.5	blank	1.0	217.265385389328	2.5003373622894287
44	197.21303462982178	pulse	1	t		42.0	2.5	blank	1.0	218.04903483390808	
44	198.8132448196411	pulse	1	t		42.0	2.5	blank	1.0	219.64924502372742	
44	198.92972254753113	fix_post	2		12	42.0	2.5	blank	1.0	219.76572275161743	0.10014748573303223
45	199.02987003326416	fix_pre	0		120	43.0	2.5	/experiments/Knapen_AOT/AOT_stimuli/rescaled_final/0154_rv.mp4	0.0	219.86587023735046	1.0083918571472168
45	200.03826189041138	movie	1		286	43.0	2.5	/experiments/Knapen_AOT/AOT_stimuli/rescaled_final/0154_rv.mp4	0.0	220.87426209449768	2.492002010345459
45	200.41155862808228	pulse	1	t		43.0	2.5	/experiments/Knapen_AOT/AOT_stimuli/rescaled_final/0154_rv.mp4	0.0	221.24755883216858	
45	202.0121386051178	pulse	1	t		43.0	2.5	/experiments/Knapen_AOT/AOT_stimuli/rescaled_final/0154_rv.mp4	0.0	222.8481388092041	
45	202.53026390075684	fix_post	2		12	43.0	2.5	/experiments/Knapen_AOT/AOT_stimuli/rescaled_final/0154_rv.mp4	0.0	223.36626410484314	0.10001182556152344
46	202.63027572631836	fix_pre	0		119	44.0	2.5	/experiments/Knapen_AOT/AOT_stimuli/rescaled_final/0961_fw.mp4	0.0	223.46627593040466	1.0002515316009521
46	203.6142852306366	pulse	0	t		44.0	2.5	/experiments/Knapen_AOT/AOT_stimuli/rescaled_final/0961_fw.mp4	0.0	224.4502854347229	
46	203.6305272579193	movie	1		285	44.0	2.5	/experiments/Knapen_AOT/AOT_stimuli/rescaled_final/0961_fw.mp4	0.0	224.46652746200562	2.5002987384796143
46	205.2128472328186	pulse	1	t		44.0	2.5	/experiments/Knapen_AOT/AOT_stimuli/rescaled_final/0961_fw.mp4	0.0	226.0488474369049	
46	206.13082599639893	fix_post	2		12	44.0	2.5	/experiments/Knapen_AOT/AOT_stimuli/rescaled_final/0961_fw.mp4	0.0	226.96682620048523	0.09999346733093262
47	206.23081946372986	fix_pre	0		120	45.0	2.5	/experiments/Knapen_AOT/AOT_stimuli/rescaled_final/1573_fw.mp4	0.0	227.06681966781616	1.008622646331787
47	206.81491231918335	pulse	0	t		45.0	2.5	/experiments/Knapen_AOT/AOT_stimuli/rescaled_final/1573_fw.mp4	0.0	227.65091252326965	
47	207.23944211006165	movie	1		280	45.0	2.5	/experiments/Knapen_AOT/AOT_stimuli/rescaled_final/1573_fw.mp4	0.0	228.07544231414795	2.4920220375061035
47	208.4154555797577	pulse	1	t		45.0	2.5	/experiments/Knapen_AOT/AOT_stimuli/rescaled_final/1573_fw.mp4	0.0	229.251455783844	
47	209.73146414756775	fix_post	2		12	45.0	2.5	/experiments/Knapen_AOT/AOT_stimuli/rescaled_final/1573_fw.mp4	0.0	230.56746435165405	0.09992718696594238
48	209.8313913345337	fix_pre	0		120	46.0	2.5	/experiments/Knapen_AOT/AOT_stimuli/rescaled_final/0404_fw.mp4	0.0	230.66739153862	1.0084881782531738
48	210.01494646072388	pulse	0	t		46.0	2.5	/experiments/Knapen_AOT/AOT_stimuli/rescaled_final/0404_fw.mp4	0.0	230.85094666481018	
48	210.83987951278687	movie	1		268	46.0	2.5	/experiments/Knapen_AOT/AOT_stimuli/rescaled_final/0404_fw.mp4	0.0	231.67587971687317	2.4919955730438232
48	211.61298847198486	pulse	1	t		46.0	2.5	/experiments/Knapen_AOT/AOT_stimuli/rescaled_final/0404_fw.mp4	0.0	232.44898867607117	
48	213.21421909332275	pulse	1	t		46.0	2.5	/experiments/Knapen_AOT/AOT_stimuli/rescaled_final/0404_fw.mp4	0.0	234.05021929740906	
48	213.3318750858307	fix_post	2		12	46.0	2.5	/experiments/Knapen_AOT/AOT_stimuli/rescaled_final/0404_fw.mp4	0.0	234.167875289917	0.10002756118774414
49	213.43190264701843	fix_pre	0		120	47.0	2.5	blank	1.0	234.26790285110474	1.0001614093780518
49	214.43206405639648	movie	1		300	47.0	2.5	blank	1.0	235.2680642604828	2.500354528427124
49	214.81555700302124	pulse	1	t		47.0	2.5	blank	1.0	235.65155720710754	
49	216.41581892967224	pulse	1	t		47.0	2.5	blank	1.0	237.25181913375854	
49	216.9324185848236	fix_post	2		12	47.0	2.5	blank	1.0	237.7684187889099	0.10007977485656738
50	217.03249835968018	fix_pre	0		103	48.0	2.5	/experiments/Knapen_AOT/AOT_stimuli/rescaled_final/1649_fw.mp4	0.0	237.86849856376648	1.0085747241973877
50	218.01617312431335	pulse	0	t		48.0	2.5	/experiments/Knapen_AOT/AOT_stimuli/rescaled_final/1649_fw.mp4	0.0	238.85217332839966	
50	218.04107308387756	movie	1		275	48.0	2.5	/experiments/Knapen_AOT/AOT_stimuli/rescaled_final/1649_fw.mp4	0.0	238.87707328796387	2.491893768310547
50	219.61488842964172	pulse	1	t		48.0	2.5	/experiments/Knapen_AOT/AOT_stimuli/rescaled_final/1649_fw.mp4	0.0	240.45088863372803	
50	220.5329668521881	fix_post	2		12	48.0	2.5	/experiments/Knapen_AOT/AOT_stimuli/rescaled_final/1649_fw.mp4	0.0	241.3689670562744	0.10001635551452637
51	220.63298320770264	fix_pre	0		120	49.0	2.5	/experiments/Knapen_AOT/AOT_stimuli/rescaled_final/1954_fw.mp4	0.0	241.46898341178894	1.0085060596466064
51	221.21666049957275	pulse	0	t		49.0	2.5	/experiments/Knapen_AOT/AOT_stimuli/rescaled_final/1954_fw.mp4	0.0	242.05266070365906	
51	221.64148926734924	movie	1		276	49.0	2.5	/experiments/Knapen_AOT/AOT_stimuli/rescaled_final/1954_fw.mp4	0.0	242.47748947143555	2.4919986724853516
51	222.81537580490112	pulse	1	t		49.0	2.5	/experiments/Knapen_AOT/AOT_stimuli/rescaled_final/1954_fw.mp4	0.0	243.65137600898743	
51	224.1334879398346	fix_post	2		12	49.0	2.5	/experiments/Knapen_AOT/AOT_stimuli/rescaled_final/1954_fw.mp4	0.0	244.9694881439209	0.10015034675598145
52	224.23363828659058	fix_pre	0		120	50.0	2.5	/experiments/Knapen_AOT/AOT_stimuli/rescaled_final/0097_rv.mp4	0.0	245.06963849067688	1.008375883102417
52	224.41715788841248	pulse	0	t		50.0	2.5	/experiments/Knapen_AOT/AOT_stimuli/rescaled_final/0097_rv.mp4	0.0	245.25315809249878	
52	225.242014169693	movie	1		278	50.0	2.5	/experiments/Knapen_AOT/AOT_stimuli/rescaled_final/0097_rv.mp4	0.0	246.0780143737793	2.492032527923584
52	226.01563501358032	pulse	1	t		50.0	2.5	/experiments/Knapen_AOT/AOT_stimuli/rescaled_final/0097_rv.mp4	0.0	246.85163521766663	
52	227.61550784111023	pulse	1	t		50.0	2.5	/experiments/Knapen_AOT/AOT_stimuli/rescaled_final/0097_rv.mp4	0.0	248.45150804519653	
52	227.73404669761658	fix_post	2		12	50.0	2.5	/experiments/Knapen_AOT/AOT_stimuli/rescaled_final/0097_rv.mp4	0.0	248.57004690170288	0.10002946853637695
53	227.83407616615295	fix_pre	0		120	51.0	2.5	/experiments/Knapen_AOT/AOT_stimuli/rescaled_final/0267_rv.mp4	0.0	248.67007637023926	1.0085043907165527
53	228.8425805568695	movie	1		282	51.0	2.5	/experiments/Knapen_AOT/AOT_stimuli/rescaled_final/0267_rv.mp4	0.0	249.6785807609558	2.4919989109039307
53	229.21638941764832	pulse	1	t		51.0	2.5	/experiments/Knapen_AOT/AOT_stimuli/rescaled_final/0267_rv.mp4	0.0	250.05238962173462	
53	230.81606936454773	pulse	1	t		51.0	2.5	/experiments/Knapen_AOT/AOT_stimuli/rescaled_final/0267_rv.mp4	0.0	251.65206956863403	
53	231.33457946777344	fix_post	2		12	51.0	2.5	/experiments/Knapen_AOT/AOT_stimuli/rescaled_final/0267_rv.mp4	0.0	252.17057967185974	0.10001301765441895
54	231.43459248542786	fix_pre	0		118	52.0	2.5	/experiments/Knapen_AOT/AOT_stimuli/rescaled_final/0117_rv.mp4	0.0	252.27059268951416	0.991896390914917
54	232.4102864265442	pulse	0	t		52.0	2.5	/experiments/Knapen_AOT/AOT_stimuli/rescaled_final/0117_rv.mp4	0.0	253.2462866306305	
54	232.42648887634277	movie	1		296	52.0	2.5	/experiments/Knapen_AOT/AOT_stimuli/rescaled_final/0117_rv.mp4	0.0	253.26248908042908	2.5003249645233154
54	234.01034879684448	pulse	1	t		52.0	2.5	/experiments/Knapen_AOT/AOT_stimuli/rescaled_final/0117_rv.mp4	0.0	254.8463490009308	
54	234.9268138408661	fix_post	2		12	52.0	2.5	/experiments/Knapen_AOT/AOT_stimuli/rescaled_final/0117_rv.mp4	0.0	255.7628140449524	0.10000729560852051
55	235.0268211364746	fix_pre	0		120	53.0	2.5	/experiments/Knapen_AOT/AOT_stimuli/rescaled_final/0095_fw.mp4	0.0	255.8628213405609	1.0084965229034424
55	235.61058497428894	pulse	0	t		53.0	2.5	/experiments/Knapen_AOT/AOT_stimuli/rescaled_final/0095_fw.mp4	0.0	256.44658517837524	
55	236.03531765937805	movie	1		281	53.0	2.5	/experiments/Knapen_AOT/AOT_stimuli/rescaled_final/0095_fw.mp4	0.0	256.87131786346436	2.492037057876587
55	237.2108507156372	pulse	1	t		53.0	2.5	/experiments/Knapen_AOT/AOT_stimuli/rescaled_final/0095_fw.mp4	0.0	258.0468509197235	
55	238.52735471725464	fix_post	2		12	53.0	2.5	/experiments/Knapen_AOT/AOT_stimuli/rescaled_final/0095_fw.mp4	0.0	259.36335492134094	0.10001802444458008
56	238.62737274169922	fix_pre	0		120	54.0	2.5	/experiments/Knapen_AOT/AOT_stimuli/rescaled_final/1296_fw.mp4	0.0	259.4633729457855	1.0084936618804932
56	238.8109848499298	pulse	0	t		54.0	2.5	/experiments/Knapen_AOT/AOT_stimuli/rescaled_final/1296_fw.mp4	0.0	259.6469850540161	
56	239.6358664035797	movie	1		276	54.0	2.5	/experiments/Knapen_AOT/AOT_stimuli/rescaled_final/1296_fw.mp4	0.0	260.471866607666	2.49204158782959
56	240.41130137443542	pulse	1	t		54.0	2.5	/experiments/Knapen_AOT/AOT_stimuli/rescaled_final/1296_fw.mp4	0.0	261.24730157852173	
56	242.01159501075745	pulse	1	t		54.0	2.5	/experiments/Knapen_AOT/AOT_stimuli/rescaled_final/1296_fw.mp4	0.0	262.84759521484375	
56	242.1279079914093	fix_post	2		12	54.0	2.5	/experiments/Knapen_AOT/AOT_stimuli/rescaled_final/1296_fw.mp4	0.0	262.9639081954956	0.10005640983581543
57	242.22796440124512	fix_pre	0		120	55.0	2.5	/experiments/Knapen_AOT/AOT_stimuli/rescaled_final/1509_rv.mp4	0.0	263.0639646053314	1.0084784030914307
57	243.23644280433655	movie	1		290	55.0	2.5	/experiments/Knapen_AOT/AOT_stimuli/rescaled_final/1509_rv.mp4	0.0	264.07244300842285	2.4919862747192383
57	243.6118049621582	pulse	1	t		55.0	2.5	/experiments/Knapen_AOT/AOT_stimuli/rescaled_final/1509_rv.mp4	0.0	264.4478051662445	
57	245.21187949180603	pulse	1	t		55.0	2.5	/experiments/Knapen_AOT/AOT_stimuli/rescaled_final/1509_rv.mp4	0.0	266.04787969589233	
57	245.7284290790558	fix_post	2		12	55.0	2.5	/experiments/Knapen_AOT/AOT_stimuli/rescaled_final/1509_rv.mp4	0.0	266.5644292831421	0.10002756118774414
58	245.82845664024353	fix_pre	0		119	56.0	2.5	blank	1.0	266.66445684432983	0.9917922019958496
58	246.81217908859253	pulse	0	t		56.0	2.5	blank	1.0	267.64817929267883	
58	246.82024884223938	movie	1		301	56.0	2.5	blank	1.0	267.6562490463257	2.508723497390747
58	248.41241121292114	pulse	1	t		56.0	2.5	blank	1.0	269.24841141700745	
58	249.32897233963013	fix_post	2		12	56.0	2.5	blank	1.0	270.16497254371643	0.10001587867736816
59	249.4289882183075	fix_pre	0		120	57.0	2.5	/experiments/Knapen_AOT/AOT_stimuli/rescaled_final/1439_fw.mp4	0.0	270.2649884223938	1.0085041522979736
59	250.01261687278748	pulse	0	t		57.0	2.5	/experiments/Knapen_AOT/AOT_stimuli/rescaled_final/1439_fw.mp4	0.0	270.8486170768738	
59	250.43749237060547	movie	1		269	57.0	2.5	/experiments/Knapen_AOT/AOT_stimuli/rescaled_final/1439_fw.mp4	0.0	271.2734925746918	2.492043972015381
59	251.61413669586182	pulse	1	t		57.0	2.5	/experiments/Knapen_AOT/AOT_stimuli/rescaled_final/1439_fw.mp4	0.0	272.4501368999481	
59	252.92953634262085	fix_post	2		12	57.0	2.5	/experiments/Knapen_AOT/AOT_stimuli/rescaled_final/1439_fw.mp4	0.0	273.76553654670715	0.1000056266784668
60	253.02954196929932	fix_pre	0		120	58.0	2.5	/experiments/Knapen_AOT/AOT_stimuli/rescaled_final/0727_rv.mp4	0.0	273.8655421733856	1.0085420608520508
60	253.21322751045227	pulse	0	t		58.0	2.5	/experiments/Knapen_AOT/AOT_stimuli/rescaled_final/0727_rv.mp4	0.0	274.0492277145386	
60	254.03808403015137	movie	1		282	58.0	2.5	/experiments/Knapen_AOT/AOT_stimuli/rescaled_final/0727_rv.mp4	0.0	274.87408423423767	2.4919815063476562
60	254.81125712394714	pulse	1	t		58.0	2.5	/experiments/Knapen_AOT/AOT_stimuli/rescaled_final/0727_rv.mp4	0.0	275.64725732803345	
60	256.41171383857727	pulse	1	t		58.0	2.5	/experiments/Knapen_AOT/AOT_stimuli/rescaled_final/0727_rv.mp4	0.0	277.2477140426636	
60	256.530065536499	fix_post	2		12	58.0	2.5	/experiments/Knapen_AOT/AOT_stimuli/rescaled_final/0727_rv.mp4	0.0	277.3660657405853	0.10003948211669922
61	256.6301050186157	fix_pre	0		120	59.0	2.5	/experiments/Knapen_AOT/AOT_stimuli/rescaled_final/1277_fw.mp4	0.0	277.466105222702	1.0085103511810303
61	257.63861536979675	movie	1		284	59.0	2.5	/experiments/Knapen_AOT/AOT_stimuli/rescaled_final/1277_fw.mp4	0.0	278.47461557388306	2.4920125007629395
61	258.0122854709625	pulse	1	t		59.0	2.5	/experiments/Knapen_AOT/AOT_stimuli/rescaled_final/1277_fw.mp4	0.0	278.8482856750488	
61	259.6119291782379	pulse	1	t		59.0	2.5	/experiments/Knapen_AOT/AOT_stimuli/rescaled_final/1277_fw.mp4	0.0	280.4479293823242	
61	260.1306278705597	fix_post	2		12	59.0	2.5	/experiments/Knapen_AOT/AOT_stimuli/rescaled_final/1277_fw.mp4	0.0	280.966628074646	0.09998869895935059
62	260.23061656951904	fix_pre	0		119	60.0	2.5	/experiments/Knapen_AOT/AOT_stimuli/rescaled_final/0408_rv.mp4	0.0	281.06661677360535	1.000148057937622
62	261.214697599411	pulse	0	t		60.0	2.5	/experiments/Knapen_AOT/AOT_stimuli/rescaled_final/0408_rv.mp4	0.0	282.0506978034973	
62	261.23076462745667	movie	1		289	60.0	2.5	/experiments/Knapen_AOT/AOT_stimuli/rescaled_final/0408_rv.mp4	0.0	282.06676483154297	2.50038480758667
62	262.8130314350128	pulse	1	t		60.0	2.5	/experiments/Knapen_AOT/AOT_stimuli/rescaled_final/0408_rv.mp4	0.0	283.6490316390991	
62	263.73114943504333	fix_post	2		12	60.0	2.5	/experiments/Knapen_AOT/AOT_stimuli/rescaled_final/0408_rv.mp4	0.0	284.56714963912964	0.1001737117767334
63	263.83132314682007	fix_pre	0		120	61.0	2.5	/experiments/Knapen_AOT/AOT_stimuli/rescaled_final/1716_rv.mp4	0.0	284.6673233509064	1.0083529949188232
63	264.41504526138306	pulse	0	t		61.0	2.5	/experiments/Knapen_AOT/AOT_stimuli/rescaled_final/1716_rv.mp4	0.0	285.25104546546936	
63	264.8396761417389	movie	1		282	61.0	2.5	/experiments/Knapen_AOT/AOT_stimuli/rescaled_final/1716_rv.mp4	0.0	285.6756763458252	2.492001533508301
63	266.0133719444275	pulse	1	t		61.0	2.5	/experiments/Knapen_AOT/AOT_stimuli/rescaled_final/1716_rv.mp4	0.0	286.8493721485138	
63	267.3316776752472	fix_post	2		12	61.0	2.5	/experiments/Knapen_AOT/AOT_stimuli/rescaled_final/1716_rv.mp4	0.0	288.1676778793335	0.10005450248718262
64	267.4317321777344	fix_pre	0		120	62.0	2.5	/experiments/Knapen_AOT/AOT_stimuli/rescaled_final/1082_rv.mp4	0.0	288.2677323818207	1.008521556854248
64	267.61557841300964	pulse	0	t		62.0	2.5	/experiments/Knapen_AOT/AOT_stimuli/rescaled_final/1082_rv.mp4	0.0	288.45157861709595	
64	268.4402537345886	movie	1		282	62.0	2.5	/experiments/Knapen_AOT/AOT_stimuli/rescaled_final/1082_rv.mp4	0.0	289.2762539386749	2.4919657707214355
64	269.21377515792847	pulse	1	t		62.0	2.5	/experiments/Knapen_AOT/AOT_stimuli/rescaled_final/1082_rv.mp4	0.0	290.04977536201477	
64	270.8137083053589	pulse	1	t		62.0	2.5	/experiments/Knapen_AOT/AOT_stimuli/rescaled_final/1082_rv.mp4	0.0	291.6497085094452	
64	270.93221950531006	fix_post	2		12	62.0	2.5	/experiments/Knapen_AOT/AOT_stimuli/rescaled_final/1082_rv.mp4	0.0	291.76821970939636	0.10006999969482422
65	271.0322895050049	fix_pre	0		120	63.0	2.5	blank	1.0	291.8682897090912	1.0001177787780762
65	272.03240728378296	movie	1		300	63.0	2.5	blank	1.0	292.86840748786926	2.5003926753997803
65	272.4159908294678	pulse	1	t		63.0	2.5	blank	1.0	293.2519910335541	
65	274.01620292663574	pulse	1	t		63.0	2.5	blank	1.0	294.85220313072205	
65	274.53279995918274	fix_post	2		12	63.0	2.5	blank	1.0	295.36880016326904	0.1000669002532959
66	274.63286685943604	fix_pre	0		119	64.0	2.5	/experiments/Knapen_AOT/AOT_stimuli/rescaled_final/1028_rv.mp4	0.0	295.46886706352234	1.0000932216644287
66	275.6165704727173	pulse	0	t		64.0	2.5	/experiments/Knapen_AOT/AOT_stimuli/rescaled_final/1028_rv.mp4	0.0	296.4525706768036	
66	275.63296008110046	movie	1		277	64.0	2.5	/experiments/Knapen_AOT/AOT_stimuli/rescaled_final/1028_rv.mp4	0.0	296.46896028518677	2.500331401824951
66	277.216992855072	pulse	1	t		64.0	2.5	/experiments/Knapen_AOT/AOT_stimuli/rescaled_final/1028_rv.mp4	0.0	298.0529930591583	
66	278.1332914829254	fix_post	2		12	64.0	2.5	/experiments/Knapen_AOT/AOT_stimuli/rescaled_final/1028_rv.mp4	0.0	298.9692916870117	0.10022330284118652
67	278.2335147857666	fix_pre	0		120	65.0	2.5	/experiments/Knapen_AOT/AOT_stimuli/rescaled_final/1736_fw.mp4	0.0	299.0695149898529	1.008366584777832
67	278.8171238899231	pulse	0	t		65.0	2.5	/experiments/Knapen_AOT/AOT_stimuli/rescaled_final/1736_fw.mp4	0.0	299.6531240940094	
67	279.24188137054443	movie	1		272	65.0	2.5	/experiments/Knapen_AOT/AOT_stimuli/rescaled_final/1736_fw.mp4	0.0	300.07788157463074	2.4919650554656982
67	280.41577649116516	pulse	1	t		65.0	2.5	/experiments/Knapen_AOT/AOT_stimuli/rescaled_final/1736_fw.mp4	0.0	301.25177669525146	
67	281.73384642601013	fix_post	2		12	65.0	2.5	/experiments/Knapen_AOT/AOT_stimuli/rescaled_final/1736_fw.mp4	0.0	302.56984663009644	0.10002374649047852
68	281.8338701725006	fix_pre	0		120	66.0	2.5	/experiments/Knapen_AOT/AOT_stimuli/rescaled_final/0033_fw.mp4	0.0	302.6698703765869	1.0085036754608154
68	282.0176668167114	pulse	0	t		66.0	2.5	/experiments/Knapen_AOT/AOT_stimuli/rescaled_final/0033_fw.mp4	0.0	302.85366702079773	
68	282.8423738479614	movie	1		289	66.0	2.5	/experiments/Knapen_AOT/AOT_stimuli/rescaled_final/0033_fw.mp4	0.0	303.67837405204773	2.492007255554199
68	283.61569714546204	pulse	1	t		66.0	2.5	/experiments/Knapen_AOT/AOT_stimuli/rescaled_final/0033_fw.mp4	0.0	304.45169734954834	
68	285.21616435050964	pulse	1	t		66.0	2.5	/experiments/Knapen_AOT/AOT_stimuli/rescaled_final/0033_fw.mp4	0.0	306.05216455459595	
68	285.3343811035156	fix_post	2		12	66.0	2.5	/experiments/Knapen_AOT/AOT_stimuli/rescaled_final/0033_fw.mp4	0.0	306.17038130760193	0.10003066062927246
69	285.4344117641449	fix_pre	0		120	67.0	2.5	/experiments/Knapen_AOT/AOT_stimuli/rescaled_final/1715_fw.mp4	0.0	306.2704119682312	1.0085127353668213
69	286.4429244995117	movie	1		261	67.0	2.5	/experiments/Knapen_AOT/AOT_stimuli/rescaled_final/1715_fw.mp4	0.0	307.278924703598	2.492000102996826
69	286.81630778312683	pulse	1	t		67.0	2.5	/experiments/Knapen_AOT/AOT_stimuli/rescaled_final/1715_fw.mp4	0.0	307.65230798721313	
69	288.4185140132904	pulse	1	t		67.0	2.5	/experiments/Knapen_AOT/AOT_stimuli/rescaled_final/1715_fw.mp4	0.0	309.2545142173767	
69	288.93492460250854	fix_post	2		12	67.0	2.5	/experiments/Knapen_AOT/AOT_stimuli/rescaled_final/1715_fw.mp4	0.0	309.77092480659485	0.10002851486206055
70	289.0349531173706	fix_pre	0		118	68.0	2.5	/experiments/Knapen_AOT/AOT_stimuli/rescaled_final/0598_fw.mp4	0.0	309.8709533214569	0.9919097423553467
70	290.01095271110535	pulse	0	t		68.0	2.5	/experiments/Knapen_AOT/AOT_stimuli/rescaled_final/0598_fw.mp4	0.0	310.84695291519165	
70	290.02686285972595	movie	1		278	68.0	2.5	/experiments/Knapen_AOT/AOT_stimuli/rescaled_final/0598_fw.mp4	0.0	310.86286306381226	2.5002989768981934
70	291.61077857017517	pulse	1	t		68.0	2.5	/experiments/Knapen_AOT/AOT_stimuli/rescaled_final/0598_fw.mp4	0.0	312.4467787742615	
70	292.52716183662415	fix_post	2		12	68.0	2.5	/experiments/Knapen_AOT/AOT_stimuli/rescaled_final/0598_fw.mp4	0.0	313.36316204071045	0.10001373291015625
71	292.6271755695343	fix_pre	0		120	69.0	2.5	blank	1.0	313.4631757736206	1.0002496242523193
71	293.2109639644623	pulse	0	t		69.0	2.5	blank	1.0	314.0469641685486	
71	293.6274251937866	movie	1		300	69.0	2.5	blank	1.0	314.4634253978729	2.5002551078796387
71	294.811331987381	pulse	1	t		69.0	2.5	blank	1.0	315.6473321914673	
71	296.12768030166626	fix_post	2		12	69.0	2.5	blank	1.0	316.96368050575256	0.10000896453857422
72	296.22768926620483	fix_pre	0		120	70.0	2.5	/experiments/Knapen_AOT/AOT_stimuli/rescaled_final/1120_fw.mp4	0.0	317.06368947029114	1.008542776107788
72	296.4112594127655	pulse	0	t		70.0	2.5	/experiments/Knapen_AOT/AOT_stimuli/rescaled_final/1120_fw.mp4	0.0	317.2472596168518	
72	297.2362320423126	movie	1		276	70.0	2.5	/experiments/Knapen_AOT/AOT_stimuli/rescaled_final/1120_fw.mp4	0.0	318.0722322463989	2.492044687271118
72	298.0115294456482	pulse	1	t		70.0	2.5	/experiments/Knapen_AOT/AOT_stimuli/rescaled_final/1120_fw.mp4	0.0	318.8475296497345	
72	299.61172699928284	pulse	1	t		70.0	2.5	/experiments/Knapen_AOT/AOT_stimuli/rescaled_final/1120_fw.mp4	0.0	320.44772720336914	
72	299.72827672958374	fix_post	2		12	70.0	2.5	/experiments/Knapen_AOT/AOT_stimuli/rescaled_final/1120_fw.mp4	0.0	320.56427693367004	0.10000371932983398
73	299.8282804489136	fix_pre	0		120	71.0	2.5	/experiments/Knapen_AOT/AOT_stimuli/rescaled_final/1586_rv.mp4	0.0	320.6642806529999	1.0084648132324219
73	300.836745262146	movie	1		265	71.0	2.5	/experiments/Knapen_AOT/AOT_stimuli/rescaled_final/1586_rv.mp4	0.0	321.6727454662323	2.492070436477661
73	301.21210289001465	pulse	1	t		71.0	2.5	/experiments/Knapen_AOT/AOT_stimuli/rescaled_final/1586_rv.mp4	0.0	322.04810309410095	
73	302.81283807754517	pulse	1	t		71.0	2.5	/experiments/Knapen_AOT/AOT_stimuli/rescaled_final/1586_rv.mp4	0.0	323.64883828163147	
73	303.32881569862366	fix_post	2		12	71.0	2.5	/experiments/Knapen_AOT/AOT_stimuli/rescaled_final/1586_rv.mp4	0.0	324.16481590270996	0.09997415542602539
74	303.4287898540497	fix_pre	0		119	72.0	2.5	/experiments/Knapen_AOT/AOT_stimuli/rescaled_final/1961_rv.mp4	0.0	324.264790058136	1.000284194946289
74	304.4127221107483	pulse	0	t		72.0	2.5	/experiments/Knapen_AOT/AOT_stimuli/rescaled_final/1961_rv.mp4	0.0	325.2487223148346	
74	304.429074048996	movie	1		267	72.0	2.5	/experiments/Knapen_AOT/AOT_stimuli/rescaled_final/1961_rv.mp4	0.0	325.2650742530823	2.500275135040283
74	306.0115399360657	pulse	1	t		72.0	2.5	/experiments/Knapen_AOT/AOT_stimuli/rescaled_final/1961_rv.mp4	0.0	326.847540140152	
74	306.92934918403625	fix_post	2		12	72.0	2.5	/experiments/Knapen_AOT/AOT_stimuli/rescaled_final/1961_rv.mp4	0.0	327.76534938812256	0.10000061988830566
75	307.02934980392456	fix_pre	0		120	73.0	2.5	/experiments/Knapen_AOT/AOT_stimuli/rescaled_final/0901_fw.mp4	0.0	327.86535000801086	1.0168802738189697
75	307.61297130584717	pulse	0	t		73.0	2.5	/experiments/Knapen_AOT/AOT_stimuli/rescaled_final/0901_fw.mp4	0.0	328.4489715099335	
75	308.04623007774353	movie	1		271	73.0	2.5	/experiments/Knapen_AOT/AOT_stimuli/rescaled_final/0901_fw.mp4	0.0	328.88223028182983	2.48362135887146
75	309.2112581729889	pulse	1	t		73.0	2.5	/experiments/Knapen_AOT/AOT_stimuli/rescaled_final/0901_fw.mp4	0.0	330.0472583770752	
75	310.529851436615	fix_post	2		12	73.0	2.5	/experiments/Knapen_AOT/AOT_stimuli/rescaled_final/0901_fw.mp4	0.0	331.3658516407013	0.10016441345214844
76	310.63001585006714	fix_pre	0		120	74.0	2.5	/experiments/Knapen_AOT/AOT_stimuli/rescaled_final/0556_rv.mp4	0.0	331.46601605415344	1.0083661079406738
76	310.8134663105011	pulse	0	t		74.0	2.5	/experiments/Knapen_AOT/AOT_stimuli/rescaled_final/0556_rv.mp4	0.0	331.6494665145874	
76	311.6383819580078	movie	1		278	74.0	2.5	/experiments/Knapen_AOT/AOT_stimuli/rescaled_final/0556_rv.mp4	0.0	332.4743821620941	2.492056131362915
76	312.41195940971375	pulse	1	t		74.0	2.5	/experiments/Knapen_AOT/AOT_stimuli/rescaled_final/0556_rv.mp4	0.0	333.24795961380005	
76	314.0120801925659	pulse	1	t		74.0	2.5	/experiments/Knapen_AOT/AOT_stimuli/rescaled_final/0556_rv.mp4	0.0	334.8480803966522	
76	314.1304380893707	fix_post	2		12	74.0	2.5	/experiments/Knapen_AOT/AOT_stimuli/rescaled_final/0556_rv.mp4	0.0	334.96643829345703	0.10000920295715332
77	314.2304472923279	fix_pre	0		120	75.0	2.5	/experiments/Knapen_AOT/AOT_stimuli/rescaled_final/1389_rv.mp4	0.0	335.0664474964142	1.0084502696990967
77	315.238897562027	movie	1		271	75.0	2.5	/experiments/Knapen_AOT/AOT_stimuli/rescaled_final/1389_rv.mp4	0.0	336.0748977661133	2.4921040534973145
77	315.61392617225647	pulse	1	t		75.0	2.5	/experiments/Knapen_AOT/AOT_stimuli/rescaled_final/1389_rv.mp4	0.0	336.4499263763428	
77	317.2127134799957	pulse	1	t		75.0	2.5	/experiments/Knapen_AOT/AOT_stimuli/rescaled_final/1389_rv.mp4	0.0	338.04871368408203	
77	317.7310016155243	fix_post	2		12	75.0	2.5	/experiments/Knapen_AOT/AOT_stimuli/rescaled_final/1389_rv.mp4	0.0	338.5670018196106	0.0999600887298584
78	317.83096170425415	fix_pre	0		119	76.0	2.5	blank	1.0	338.66696190834045	0.9917776584625244
78	318.8147540092468	pulse	0	t		76.0	2.5	blank	1.0	339.65075421333313	
78	318.8227393627167	movie	1		301	76.0	2.5	blank	1.0	339.658739566803	2.5087695121765137
78	320.41487884521484	pulse	1	t		76.0	2.5	blank	1.0	341.25087904930115	
78	321.3315088748932	fix_post	2		12	76.0	2.5	blank	1.0	342.1675090789795	0.10003232955932617
79	321.4315412044525	fix_pre	0		120	77.0	2.5	/experiments/Knapen_AOT/AOT_stimuli/rescaled_final/1776_fw.mp4	0.0	342.2675414085388	1.0084612369537354
79	322.01512598991394	pulse	0	t		77.0	2.5	/experiments/Knapen_AOT/AOT_stimuli/rescaled_final/1776_fw.mp4	0.0	342.85112619400024	
79	322.44000244140625	movie	1		274	77.0	2.5	/experiments/Knapen_AOT/AOT_stimuli/rescaled_final/1776_fw.mp4	0.0	343.27600264549255	2.4920713901519775
79	323.61579751968384	pulse	1	t		77.0	2.5	/experiments/Knapen_AOT/AOT_stimuli/rescaled_final/1776_fw.mp4	0.0	344.45179772377014	
79	324.9320738315582	fix_post	2		12	77.0	2.5	/experiments/Knapen_AOT/AOT_stimuli/rescaled_final/1776_fw.mp4	0.0	345.76807403564453	0.09998393058776855
80	325.032057762146	fix_pre	0		120	78.0	2.5	/experiments/Knapen_AOT/AOT_stimuli/rescaled_final/1972_fw.mp4	0.0	345.8680579662323	1.0085811614990234
80	325.2157938480377	pulse	0	t		78.0	2.5	/experiments/Knapen_AOT/AOT_stimuli/rescaled_final/1972_fw.mp4	0.0	346.051794052124	
80	326.040638923645	movie	1		273	78.0	2.5	/experiments/Knapen_AOT/AOT_stimuli/rescaled_final/1972_fw.mp4	0.0	346.8766391277313	2.4919843673706055
80	326.81433033943176	pulse	1	t		78.0	2.5	/experiments/Knapen_AOT/AOT_stimuli/rescaled_final/1972_fw.mp4	0.0	347.65033054351807	
80	328.414345741272	pulse	1	t		78.0	2.5	/experiments/Knapen_AOT/AOT_stimuli/rescaled_final/1972_fw.mp4	0.0	349.2503459453583	
80	328.5326232910156	fix_post	2		12	78.0	2.5	/experiments/Knapen_AOT/AOT_stimuli/rescaled_final/1972_fw.mp4	0.0	349.36862349510193	0.10005712509155273
81	328.6326804161072	fix_pre	0		120	79.0	2.5	/experiments/Knapen_AOT/AOT_stimuli/rescaled_final/1334_fw.mp4	0.0	349.4686806201935	1.0084352493286133
81	329.6411156654358	movie	1		265	79.0	2.5	/experiments/Knapen_AOT/AOT_stimuli/rescaled_final/1334_fw.mp4	0.0	350.4771158695221	2.4921414852142334
81	330.0155739784241	pulse	1	t		79.0	2.5	/experiments/Knapen_AOT/AOT_stimuli/rescaled_final/1334_fw.mp4	0.0	350.8515741825104	
81	331.61478781700134	pulse	1	t		79.0	2.5	/experiments/Knapen_AOT/AOT_stimuli/rescaled_final/1334_fw.mp4	0.0	352.45078802108765	
81	332.13325715065	fix_post	2		12	79.0	2.5	/experiments/Knapen_AOT/AOT_stimuli/rescaled_final/1334_fw.mp4	0.0	352.9692573547363	0.09991931915283203
82	332.23317646980286	fix_pre	0		119	80.0	2.5	/experiments/Knapen_AOT/AOT_stimuli/rescaled_final/0538_fw.mp4	0.0	353.06917667388916	1.000180959701538
82	333.21693682670593	pulse	0	t		80.0	2.5	/experiments/Knapen_AOT/AOT_stimuli/rescaled_final/0538_fw.mp4	0.0	354.05293703079224	
82	333.2333574295044	movie	1		276	80.0	2.5	/experiments/Knapen_AOT/AOT_stimuli/rescaled_final/0538_fw.mp4	0.0	354.0693576335907	2.500336170196533
82	334.815470457077	pulse	1	t		80.0	2.5	/experiments/Knapen_AOT/AOT_stimuli/rescaled_final/0538_fw.mp4	0.0	355.65147066116333	
82	335.7336935997009	fix_post	2		12	80.0	2.5	/experiments/Knapen_AOT/AOT_stimuli/rescaled_final/0538_fw.mp4	0.0	356.56969380378723	0.10001444816589355
83	335.8337080478668	fix_pre	0		120	81.0	2.5	/experiments/Knapen_AOT/AOT_stimuli/rescaled_final/1449_fw.mp4	0.0	356.6697082519531	1.0084354877471924
83	336.4172921180725	pulse	0	t		81.0	2.5	/experiments/Knapen_AOT/AOT_stimuli/rescaled_final/1449_fw.mp4	0.0	357.2532923221588	
83	336.842143535614	movie	1		257	81.0	2.5	/experiments/Knapen_AOT/AOT_stimuli/rescaled_final/1449_fw.mp4	0.0	357.6781437397003	2.4920570850372314
83	338.01554346084595	pulse	1	t		81.0	2.5	/experiments/Knapen_AOT/AOT_stimuli/rescaled_final/1449_fw.mp4	0.0	358.85154366493225	
83	339.33420062065125	fix_post	2		12	81.0	2.5	/experiments/Knapen_AOT/AOT_stimuli/rescaled_final/1449_fw.mp4	0.0	360.17020082473755	0.10001111030578613
84	339.43421173095703	fix_pre	0		120	82.0	2.5	/experiments/Knapen_AOT/AOT_stimuli/rescaled_final/1118_fw.mp4	0.0	360.27021193504333	1.008613109588623
84	339.6179106235504	pulse	0	t		82.0	2.5	/experiments/Knapen_AOT/AOT_stimuli/rescaled_final/1118_fw.mp4	0.0	360.4539108276367	
84	340.44282484054565	movie	1		276	82.0	2.5	/experiments/Knapen_AOT/AOT_stimuli/rescaled_final/1118_fw.mp4	0.0	361.27882504463196	2.492033004760742
84	341.2175123691559	pulse	1	t		82.0	2.5	/experiments/Knapen_AOT/AOT_stimuli/rescaled_final/1118_fw.mp4	0.0	362.0535125732422	
84	342.8163630962372	pulse	1	t		82.0	2.5	/experiments/Knapen_AOT/AOT_stimuli/rescaled_final/1118_fw.mp4	0.0	363.6523633003235	
84	342.9348578453064	fix_post	2		12	82.0	2.5	/experiments/Knapen_AOT/AOT_stimuli/rescaled_final/1118_fw.mp4	0.0	363.7708580493927	0.0999305248260498
85	343.03478837013245	fix_pre	0		120	83.0	2.5	blank	1.0	363.87078857421875	1.0000874996185303
85	344.034875869751	movie	1		300	83.0	2.5	blank	1.0	364.8708760738373	2.5004146099090576
85	344.4113607406616	pulse	1	t		83.0	2.5	blank	1.0	365.2473609447479	
85	346.01209831237793	pulse	1	t		83.0	2.5	blank	1.0	366.84809851646423	
85	346.53529047966003	fix_post	2		12	83.0	2.5	blank	1.0	367.37129068374634	0.13346552848815918
87	346.6687560081482	stim	0		1712					367.5047562122345	14.268672227859497
87	347.6113302707672	pulse	0	t						368.4473304748535	
87	349.2112150192261	pulse	0	t						370.0472152233124	
87	350.81122636795044	pulse	0	t						371.64722657203674	
87	352.41143226623535	pulse	0	t						373.24743247032166	
87	354.0117042064667	pulse	0	t						374.847704410553	
87	355.6119866371155	pulse	0	t						376.4479868412018	
87	357.21211647987366	pulse	0	t						378.04811668395996	
87	358.81246185302734	pulse	0	t						379.64846205711365	
87	360.41270422935486	pulse	0	t						381.24870443344116	
