trial_nr	onset	event_type	phase	response	nr_frames	movie_index	movie_duration	movie_file	blank	onset_abs	duration
0	0.14989900588989258	stim	0		23					20.490078926086426	0.1916651725769043
0	0.333510160446167	response	0	space						20.6736900806427	
1	0.3415641784667969	stim	0		4702					20.68174409866333	39.18318700790405
1	39.520599126815796	pulse	0	t						59.86077904701233	
1	39.52475118637085	stim	1		1717					59.86493110656738	14.308275938034058
1	41.11658811569214	pulse	1	t						61.45676803588867	
1	42.716538190841675	pulse	1	t						63.05671811103821	
1	44.316498041152954	pulse	1	t						64.65667796134949	
1	45.916465044021606	pulse	1	t						66.25664496421814	
1	47.5165810585022	pulse	1	t						67.85676097869873	
1	49.11648201942444	pulse	1	t						69.45666193962097	
1	50.71646213531494	pulse	1	t						71.05664205551147	
1	52.31646418571472	pulse	1	t						72.65664410591125	
2	53.83302712440491	fix_pre	0		11	0.0	2.5	/experiments/AOT/AOT_stimuli/rescaled_final/0385_rv.mp4	0.0	74.17320704460144	0.09157490730285645
2	53.91648602485657	pulse	0	t		0.0	2.5	/experiments/AOT/AOT_stimuli/rescaled_final/0385_rv.mp4	0.0	74.2566659450531	
2	53.924602031707764	movie	1		244	0.0	2.5	/experiments/AOT/AOT_stimuli/rescaled_final/0385_rv.mp4	0.0	74.2647819519043	2.508239984512329
2	55.51600098609924	pulse	1	t		0.0	2.5	/experiments/AOT/AOT_stimuli/rescaled_final/0385_rv.mp4	0.0	75.85618090629578	
2	56.43284201622009	fix_post	2		12	0.0	2.5	/experiments/AOT/AOT_stimuli/rescaled_final/0385_rv.mp4	0.0	76.77302193641663	0.1000821590423584
3	56.53292417526245	fix_pre	0		120	1.0	2.5	/experiments/AOT/AOT_stimuli/rescaled_final/1306_rv.mp4	0.0	76.87310409545898	1.0001308917999268
3	57.11642408370972	pulse	0	t		1.0	2.5	/experiments/AOT/AOT_stimuli/rescaled_final/1306_rv.mp4	0.0	77.45660400390625	
3	57.53305506706238	movie	1		245	1.0	2.5	/experiments/AOT/AOT_stimuli/rescaled_final/1306_rv.mp4	0.0	77.87323498725891	2.499444007873535
3	58.716637134552	pulse	1	t		1.0	2.5	/experiments/AOT/AOT_stimuli/rescaled_final/1306_rv.mp4	0.0	79.05681705474854	
3	60.03249907493591	fix_post	2		12	1.0	2.5	/experiments/AOT/AOT_stimuli/rescaled_final/1306_rv.mp4	0.0	80.37267899513245	0.10044002532958984
4	60.1329391002655	fix_pre	0		120	2.0	2.5	/experiments/AOT/AOT_stimuli/rescaled_final/1003_fw.mp4	0.0	80.47311902046204	1.0000269412994385
4	60.316500186920166	pulse	0	t		2.0	2.5	/experiments/AOT/AOT_stimuli/rescaled_final/1003_fw.mp4	0.0	80.6566801071167	
4	61.13296604156494	movie	1		246	2.0	2.5	/experiments/AOT/AOT_stimuli/rescaled_final/1003_fw.mp4	0.0	81.47314596176147	2.499572992324829
4	61.91651201248169	pulse	1	t		2.0	2.5	/experiments/AOT/AOT_stimuli/rescaled_final/1003_fw.mp4	0.0	82.25669193267822	
4	63.515280961990356	pulse	1	t		2.0	2.5	/experiments/AOT/AOT_stimuli/rescaled_final/1003_fw.mp4	0.0	83.85546088218689	
4	63.63253903388977	fix_post	2		12	2.0	2.5	/experiments/AOT/AOT_stimuli/rescaled_final/1003_fw.mp4	0.0	83.9727189540863	0.10047197341918945
5	63.73301100730896	fix_pre	0		120	3.0	2.5	/experiments/AOT/AOT_stimuli/rescaled_final/1773_rv.mp4	0.0	84.0731909275055	0.9999079704284668
5	64.73291897773743	movie	1		245	3.0	2.5	/experiments/AOT/AOT_stimuli/rescaled_final/1773_rv.mp4	0.0	85.07309889793396	2.499833106994629
5	65.11748909950256	pulse	1	t		3.0	2.5	/experiments/AOT/AOT_stimuli/rescaled_final/1773_rv.mp4	0.0	85.4576690196991	
5	66.71641111373901	pulse	1	t		3.0	2.5	/experiments/AOT/AOT_stimuli/rescaled_final/1773_rv.mp4	0.0	87.05659103393555	
5	67.23275208473206	fix_post	2		12	3.0	2.5	/experiments/AOT/AOT_stimuli/rescaled_final/1773_rv.mp4	0.0	87.57293200492859	0.1002190113067627
6	67.33297109603882	fix_pre	0		119	4.0	2.5	/experiments/AOT/AOT_stimuli/rescaled_final/1816_rv.mp4	0.0	87.67315101623535	0.9916539192199707
6	68.31646800041199	pulse	0	t		4.0	2.5	/experiments/AOT/AOT_stimuli/rescaled_final/1816_rv.mp4	0.0	88.65664792060852	
6	68.32462501525879	movie	1		245	4.0	2.5	/experiments/AOT/AOT_stimuli/rescaled_final/1816_rv.mp4	0.0	88.66480493545532	2.5082080364227295
6	69.91654706001282	pulse	1	t		4.0	2.5	/experiments/AOT/AOT_stimuli/rescaled_final/1816_rv.mp4	0.0	90.25672698020935	
6	70.83283305168152	fix_post	2		12	4.0	2.5	/experiments/AOT/AOT_stimuli/rescaled_final/1816_rv.mp4	0.0	91.17301297187805	0.09967207908630371
7	70.93250513076782	fix_pre	0		120	5.0	2.5	/experiments/AOT/AOT_stimuli/rescaled_final/1243_rv.mp4	0.0	91.27268505096436	1.0003879070281982
7	71.51645517349243	pulse	0	t		5.0	2.5	/experiments/AOT/AOT_stimuli/rescaled_final/1243_rv.mp4	0.0	91.85663509368896	
7	71.93289303779602	movie	1		245	5.0	2.5	/experiments/AOT/AOT_stimuli/rescaled_final/1243_rv.mp4	0.0	92.27307295799255	2.500088930130005
7	73.11645197868347	pulse	1	t		5.0	2.5	/experiments/AOT/AOT_stimuli/rescaled_final/1243_rv.mp4	0.0	93.45663189888	
7	74.43298196792603	fix_post	2		12	5.0	2.5	/experiments/AOT/AOT_stimuli/rescaled_final/1243_rv.mp4	0.0	94.77316188812256	0.0999600887298584
8	74.53294205665588	fix_pre	0		120	6.0	2.5	blank	1.0	94.87312197685242	1.000101089477539
8	74.71641206741333	pulse	0	t		6.0	2.5	blank	1.0	95.05659198760986	
8	75.53304314613342	movie	1		300	6.0	2.5	blank	1.0	95.87322306632996	2.4998738765716553
8	76.31643104553223	pulse	1	t		6.0	2.5	blank	1.0	96.65661096572876	
8	77.91641616821289	pulse	1	t		6.0	2.5	blank	1.0	98.25659608840942	
8	78.03291702270508	fix_post	2		12	6.0	2.5	blank	1.0	98.37309694290161	0.09998011589050293
9	78.13289713859558	fix_pre	0		120	7.0	2.5	/experiments/AOT/AOT_stimuli/rescaled_final/1023_fw.mp4	0.0	98.47307705879211	0.9999170303344727
9	79.13281416893005	movie	1		243	7.0	2.5	/experiments/AOT/AOT_stimuli/rescaled_final/1023_fw.mp4	0.0	99.47299408912659	2.500067949295044
9	79.51589608192444	pulse	1	t		7.0	2.5	/experiments/AOT/AOT_stimuli/rescaled_final/1023_fw.mp4	0.0	99.85607600212097	
9	81.1163980960846	pulse	1	t		7.0	2.5	/experiments/AOT/AOT_stimuli/rescaled_final/1023_fw.mp4	0.0	101.45657801628113	
9	81.6328821182251	fix_post	2		12	7.0	2.5	/experiments/AOT/AOT_stimuli/rescaled_final/1023_fw.mp4	0.0	101.97306203842163	0.09999489784240723
10	81.7328770160675	fix_pre	0		119	8.0	2.5	/experiments/AOT/AOT_stimuli/rescaled_final/1444_rv.mp4	0.0	102.07305693626404	0.9916601181030273
10	82.71638607978821	pulse	0	t		8.0	2.5	/experiments/AOT/AOT_stimuli/rescaled_final/1444_rv.mp4	0.0	103.05656599998474	
10	82.72453713417053	movie	1		246	8.0	2.5	/experiments/AOT/AOT_stimuli/rescaled_final/1444_rv.mp4	0.0	103.06471705436707	2.5084409713745117
10	84.31573605537415	pulse	1	t		8.0	2.5	/experiments/AOT/AOT_stimuli/rescaled_final/1444_rv.mp4	0.0	104.65591597557068	
10	85.23297810554504	fix_post	2		12	8.0	2.5	/experiments/AOT/AOT_stimuli/rescaled_final/1444_rv.mp4	0.0	105.57315802574158	0.0997159481048584
11	85.3326940536499	fix_pre	0		120	9.0	2.5	/experiments/AOT/AOT_stimuli/rescaled_final/0936_rv.mp4	0.0	105.67287397384644	1.0004210472106934
11	85.91614603996277	pulse	0	t		9.0	2.5	/experiments/AOT/AOT_stimuli/rescaled_final/0936_rv.mp4	0.0	106.2563259601593	
11	86.3331151008606	movie	1		246	9.0	2.5	/experiments/AOT/AOT_stimuli/rescaled_final/0936_rv.mp4	0.0	106.67329502105713	2.4996628761291504
11	87.51650714874268	pulse	1	t		9.0	2.5	/experiments/AOT/AOT_stimuli/rescaled_final/0936_rv.mp4	0.0	107.85668706893921	
11	88.83277797698975	fix_post	2		12	9.0	2.5	/experiments/AOT/AOT_stimuli/rescaled_final/0936_rv.mp4	0.0	109.17295789718628	0.10005021095275879
12	88.9328281879425	fix_pre	0		120	10.0	2.5	/experiments/AOT/AOT_stimuli/rescaled_final/0547_fw.mp4	0.0	109.27300810813904	1.0001108646392822
12	89.11635518074036	pulse	0	t		10.0	2.5	/experiments/AOT/AOT_stimuli/rescaled_final/0547_fw.mp4	0.0	109.45653510093689	
12	89.93293905258179	movie	1		246	10.0	2.5	/experiments/AOT/AOT_stimuli/rescaled_final/0547_fw.mp4	0.0	110.27311897277832	2.499885082244873
12	90.71634411811829	pulse	1	t		10.0	2.5	/experiments/AOT/AOT_stimuli/rescaled_final/0547_fw.mp4	0.0	111.05652403831482	
12	92.31479907035828	pulse	1	t		10.0	2.5	/experiments/AOT/AOT_stimuli/rescaled_final/0547_fw.mp4	0.0	112.65497899055481	
12	92.43282413482666	fix_post	2		12	10.0	2.5	/experiments/AOT/AOT_stimuli/rescaled_final/0547_fw.mp4	0.0	112.7730040550232	0.09995698928833008
13	92.53278112411499	fix_pre	0		120	11.0	2.5	/experiments/AOT/AOT_stimuli/rescaled_final/0409_rv.mp4	0.0	112.87296104431152	1.0000269412994385
13	93.53280806541443	movie	1		245	11.0	2.5	/experiments/AOT/AOT_stimuli/rescaled_final/0409_rv.mp4	0.0	113.87298798561096	2.4999430179595947
13	93.91590714454651	pulse	1	t		11.0	2.5	/experiments/AOT/AOT_stimuli/rescaled_final/0409_rv.mp4	0.0	114.25608706474304	
13	95.51626110076904	pulse	1	t		11.0	2.5	/experiments/AOT/AOT_stimuli/rescaled_final/0409_rv.mp4	0.0	115.85644102096558	
13	96.03275108337402	fix_post	2		12	11.0	2.5	/experiments/AOT/AOT_stimuli/rescaled_final/0409_rv.mp4	0.0	116.37293100357056	0.10001492500305176
14	96.13276600837708	fix_pre	0		119	12.0	2.5	/experiments/AOT/AOT_stimuli/rescaled_final/1880_rv.mp4	0.0	116.47294592857361	0.9916591644287109
14	97.11627912521362	pulse	0	t		12.0	2.5	/experiments/AOT/AOT_stimuli/rescaled_final/1880_rv.mp4	0.0	117.45645904541016	
14	97.12442517280579	movie	1		245	12.0	2.5	/experiments/AOT/AOT_stimuli/rescaled_final/1880_rv.mp4	0.0	117.46460509300232	2.5083229541778564
14	98.71568012237549	pulse	1	t		12.0	2.5	/experiments/AOT/AOT_stimuli/rescaled_final/1880_rv.mp4	0.0	119.05586004257202	
14	99.63274812698364	fix_post	2		12	12.0	2.5	/experiments/AOT/AOT_stimuli/rescaled_final/1880_rv.mp4	0.0	119.97292804718018	0.10003304481506348
15	99.7327811717987	fix_pre	0		120	13.0	2.5	/experiments/AOT/AOT_stimuli/rescaled_final/0677_rv.mp4	0.0	120.07296109199524	0.9999918937683105
15	100.31635999679565	pulse	0	t		13.0	2.5	/experiments/AOT/AOT_stimuli/rescaled_final/0677_rv.mp4	0.0	120.65653991699219	
15	100.73277306556702	movie	1		242	13.0	2.5	/experiments/AOT/AOT_stimuli/rescaled_final/0677_rv.mp4	0.0	121.07295298576355	2.4996609687805176
15	101.9163830280304	pulse	1	t		13.0	2.5	/experiments/AOT/AOT_stimuli/rescaled_final/0677_rv.mp4	0.0	122.25656294822693	
15	103.23243403434753	fix_post	2		12	13.0	2.5	/experiments/AOT/AOT_stimuli/rescaled_final/0677_rv.mp4	0.0	123.57261395454407	0.10028600692749023
16	103.33272004127502	fix_pre	0		120	14.0	2.5	blank	1.0	123.67289996147156	1.0000030994415283
16	103.51621913909912	pulse	0	t		14.0	2.5	blank	1.0	123.85639905929565	
16	104.33272314071655	movie	1		300	14.0	2.5	blank	1.0	124.67290306091309	2.500063896179199
16	105.11630916595459	pulse	1	t		14.0	2.5	blank	1.0	125.45648908615112	
16	106.71625900268555	pulse	1	t		14.0	2.5	blank	1.0	127.05643892288208	
16	106.83278703689575	fix_post	2		12	14.0	2.5	blank	1.0	127.17296695709229	0.09999608993530273
17	106.93278312683105	fix_pre	0		120	15.0	2.5	/experiments/AOT/AOT_stimuli/rescaled_final/1510_fw.mp4	0.0	127.27296304702759	0.9999148845672607
17	107.93269801139832	movie	1		243	15.0	2.5	/experiments/AOT/AOT_stimuli/rescaled_final/1510_fw.mp4	0.0	128.27287793159485	2.4999840259552
17	108.31642413139343	pulse	1	t		15.0	2.5	/experiments/AOT/AOT_stimuli/rescaled_final/1510_fw.mp4	0.0	128.65660405158997	
17	109.91631698608398	pulse	1	t		15.0	2.5	/experiments/AOT/AOT_stimuli/rescaled_final/1510_fw.mp4	0.0	130.25649690628052	
17	110.43268203735352	fix_post	2		12	15.0	2.5	/experiments/AOT/AOT_stimuli/rescaled_final/1510_fw.mp4	0.0	130.77286195755005	0.09998893737792969
18	110.53267097473145	fix_pre	0		119	16.0	2.5	/experiments/AOT/AOT_stimuli/rescaled_final/1426_fw.mp4	0.0	130.87285089492798	0.9916720390319824
18	111.51618313789368	pulse	0	t		16.0	2.5	/experiments/AOT/AOT_stimuli/rescaled_final/1426_fw.mp4	0.0	131.8563630580902	
18	111.52434301376343	movie	1		248	16.0	2.5	/experiments/AOT/AOT_stimuli/rescaled_final/1426_fw.mp4	0.0	131.86452293395996	2.5084309577941895
18	113.11600399017334	pulse	1	t		16.0	2.5	/experiments/AOT/AOT_stimuli/rescaled_final/1426_fw.mp4	0.0	133.45618391036987	
18	114.03277397155762	fix_post	2		12	16.0	2.5	/experiments/AOT/AOT_stimuli/rescaled_final/1426_fw.mp4	0.0	134.37295389175415	0.09988021850585938
19	114.13265419006348	fix_pre	0		120	17.0	2.5	/experiments/AOT/AOT_stimuli/rescaled_final/1773_rv.mp4	0.0	134.47283411026	1.0000238418579102
19	114.71614503860474	pulse	0	t		17.0	2.5	/experiments/AOT/AOT_stimuli/rescaled_final/1773_rv.mp4	0.0	135.05632495880127	
19	115.13267803192139	movie	1		245	17.0	2.5	/experiments/AOT/AOT_stimuli/rescaled_final/1773_rv.mp4	0.0	135.47285795211792	2.5000290870666504
19	116.31616997718811	pulse	1	t		17.0	2.5	/experiments/AOT/AOT_stimuli/rescaled_final/1773_rv.mp4	0.0	136.65634989738464	
19	117.63270711898804	fix_post	2		12	17.0	2.5	/experiments/AOT/AOT_stimuli/rescaled_final/1773_rv.mp4	0.0	137.97288703918457	0.10010600090026855
20	117.7328131198883	fix_pre	0		120	18.0	2.5	/experiments/AOT/AOT_stimuli/rescaled_final/1193_rv.mp4	0.0	138.07299304008484	0.9998700618743896
20	117.91624307632446	pulse	0	t		18.0	2.5	/experiments/AOT/AOT_stimuli/rescaled_final/1193_rv.mp4	0.0	138.256422996521	
20	118.7326831817627	movie	1		243	18.0	2.5	/experiments/AOT/AOT_stimuli/rescaled_final/1193_rv.mp4	0.0	139.07286310195923	2.5000438690185547
20	119.51617002487183	pulse	1	t		18.0	2.5	/experiments/AOT/AOT_stimuli/rescaled_final/1193_rv.mp4	0.0	139.85634994506836	
20	121.11458015441895	pulse	1	t		18.0	2.5	/experiments/AOT/AOT_stimuli/rescaled_final/1193_rv.mp4	0.0	141.45476007461548	
20	121.23272705078125	fix_post	2		12	18.0	2.5	/experiments/AOT/AOT_stimuli/rescaled_final/1193_rv.mp4	0.0	141.57290697097778	0.09953594207763672
21	121.33226299285889	fix_pre	0		120	19.0	2.5	blank	1.0	141.67244291305542	1.0004141330718994
21	122.33267712593079	movie	1		300	19.0	2.5	blank	1.0	142.67285704612732	2.5000510215759277
21	122.71616816520691	pulse	1	t		19.0	2.5	blank	1.0	143.05634808540344	
21	124.31620717048645	pulse	1	t		19.0	2.5	blank	1.0	144.65638709068298	
21	124.83272814750671	fix_post	2		12	19.0	2.5	blank	1.0	145.17290806770325	0.10005497932434082
22	124.93278312683105	fix_pre	0		119	20.0	2.5	/experiments/AOT/AOT_stimuli/rescaled_final/1634_fw.mp4	0.0	145.2729630470276	0.9915590286254883
22	125.91608214378357	pulse	0	t		20.0	2.5	/experiments/AOT/AOT_stimuli/rescaled_final/1634_fw.mp4	0.0	146.2562620639801	
22	125.92434215545654	movie	1		248	20.0	2.5	/experiments/AOT/AOT_stimuli/rescaled_final/1634_fw.mp4	0.0	146.26452207565308	2.5079169273376465
22	127.51612901687622	pulse	1	t		20.0	2.5	/experiments/AOT/AOT_stimuli/rescaled_final/1634_fw.mp4	0.0	147.85630893707275	
22	128.4322590827942	fix_post	2		12	20.0	2.5	/experiments/AOT/AOT_stimuli/rescaled_final/1634_fw.mp4	0.0	148.77243900299072	0.10051608085632324
23	128.5327751636505	fix_pre	0		120	21.0	2.5	/experiments/AOT/AOT_stimuli/rescaled_final/1003_fw.mp4	0.0	148.87295508384705	0.9998729228973389
23	129.1173961162567	pulse	0	t		21.0	2.5	/experiments/AOT/AOT_stimuli/rescaled_final/1003_fw.mp4	0.0	149.45757603645325	
23	129.53264808654785	movie	1		244	21.0	2.5	/experiments/AOT/AOT_stimuli/rescaled_final/1003_fw.mp4	0.0	149.87282800674438	2.5000600814819336
23	130.71619200706482	pulse	1	t		21.0	2.5	/experiments/AOT/AOT_stimuli/rescaled_final/1003_fw.mp4	0.0	151.05637192726135	
23	132.03270816802979	fix_post	2		12	21.0	2.5	/experiments/AOT/AOT_stimuli/rescaled_final/1003_fw.mp4	0.0	152.37288808822632	0.09989285469055176
24	132.13260102272034	fix_pre	0		120	22.0	2.5	/experiments/AOT/AOT_stimuli/rescaled_final/1421_fw.mp4	0.0	152.47278094291687	0.9995911121368408
24	132.31609296798706	pulse	0	t		22.0	2.5	/experiments/AOT/AOT_stimuli/rescaled_final/1421_fw.mp4	0.0	152.6562728881836	
24	133.13219213485718	movie	1		244	22.0	2.5	/experiments/AOT/AOT_stimuli/rescaled_final/1421_fw.mp4	0.0	153.4723720550537	2.5003769397735596
24	133.91614818572998	pulse	1	t		22.0	2.5	/experiments/AOT/AOT_stimuli/rescaled_final/1421_fw.mp4	0.0	154.2563281059265	
24	135.5145239830017	pulse	1	t		22.0	2.5	/experiments/AOT/AOT_stimuli/rescaled_final/1421_fw.mp4	0.0	155.85470390319824	
24	135.63256907463074	fix_post	2		12	22.0	2.5	/experiments/AOT/AOT_stimuli/rescaled_final/1421_fw.mp4	0.0	155.97274899482727	0.10010099411010742
25	135.73267006874084	fix_pre	0		120	23.0	2.5	/experiments/AOT/AOT_stimuli/rescaled_final/0102_rv.mp4	0.0	156.07284998893738	0.9998841285705566
25	136.7325541973114	movie	1		245	23.0	2.5	/experiments/AOT/AOT_stimuli/rescaled_final/0102_rv.mp4	0.0	157.07273411750793	2.4996747970581055
25	137.11570596694946	pulse	1	t		23.0	2.5	/experiments/AOT/AOT_stimuli/rescaled_final/0102_rv.mp4	0.0	157.455885887146	
25	138.7161180973053	pulse	1	t		23.0	2.5	/experiments/AOT/AOT_stimuli/rescaled_final/0102_rv.mp4	0.0	159.05629801750183	
25	139.2322289943695	fix_post	2		12	23.0	2.5	/experiments/AOT/AOT_stimuli/rescaled_final/0102_rv.mp4	0.0	159.57240891456604	0.0999910831451416
26	139.33222007751465	fix_pre	0		119	24.0	2.5	/experiments/AOT/AOT_stimuli/rescaled_final/0342_fw.mp4	0.0	159.67239999771118	0.9920608997344971
26	140.31577801704407	pulse	0	t		24.0	2.5	/experiments/AOT/AOT_stimuli/rescaled_final/0342_fw.mp4	0.0	160.6559579372406	
26	140.32428097724915	movie	1		247	24.0	2.5	/experiments/AOT/AOT_stimuli/rescaled_final/0342_fw.mp4	0.0	160.66446089744568	2.508235216140747
26	141.91602301597595	pulse	1	t		24.0	2.5	/experiments/AOT/AOT_stimuli/rescaled_final/0342_fw.mp4	0.0	162.25620293617249	
26	142.8325161933899	fix_post	2		12	24.0	2.5	/experiments/AOT/AOT_stimuli/rescaled_final/0342_fw.mp4	0.0	163.17269611358643	0.10007286071777344
27	142.93258905410767	fix_pre	0		120	25.0	2.5	/experiments/AOT/AOT_stimuli/rescaled_final/0238_fw.mp4	0.0	163.2727689743042	0.9999940395355225
27	143.51614499092102	pulse	0	t		25.0	2.5	/experiments/AOT/AOT_stimuli/rescaled_final/0238_fw.mp4	0.0	163.85632491111755	
27	143.9325830936432	movie	1		244	25.0	2.5	/experiments/AOT/AOT_stimuli/rescaled_final/0238_fw.mp4	0.0	164.27276301383972	2.499976873397827
27	145.1161811351776	pulse	1	t		25.0	2.5	/experiments/AOT/AOT_stimuli/rescaled_final/0238_fw.mp4	0.0	165.45636105537415	
27	146.43255996704102	fix_post	2		12	25.0	2.5	/experiments/AOT/AOT_stimuli/rescaled_final/0238_fw.mp4	0.0	166.77273988723755	0.10012221336364746
28	146.53268218040466	fix_pre	0		120	26.0	2.5	/experiments/AOT/AOT_stimuli/rescaled_final/0750_fw.mp4	0.0	166.8728621006012	0.9998648166656494
28	146.7161591053009	pulse	0	t		26.0	2.5	/experiments/AOT/AOT_stimuli/rescaled_final/0750_fw.mp4	0.0	167.05633902549744	
28	147.5325469970703	movie	1		244	26.0	2.5	/experiments/AOT/AOT_stimuli/rescaled_final/0750_fw.mp4	0.0	167.87272691726685	2.4999701976776123
28	148.3160080909729	pulse	1	t		26.0	2.5	/experiments/AOT/AOT_stimuli/rescaled_final/0750_fw.mp4	0.0	168.65618801116943	
28	149.91439700126648	pulse	1	t		26.0	2.5	/experiments/AOT/AOT_stimuli/rescaled_final/0750_fw.mp4	0.0	170.254576921463	
28	150.03251719474792	fix_post	2		12	26.0	2.5	/experiments/AOT/AOT_stimuli/rescaled_final/0750_fw.mp4	0.0	170.37269711494446	0.1000368595123291
29	150.13255405426025	fix_pre	0		120	27.0	2.5	/experiments/AOT/AOT_stimuli/rescaled_final/0582_fw.mp4	0.0	170.4727339744568	1.0000240802764893
29	151.13257813453674	movie	1		244	27.0	2.5	/experiments/AOT/AOT_stimuli/rescaled_final/0582_fw.mp4	0.0	171.47275805473328	2.4995779991149902
29	151.51561403274536	pulse	1	t		27.0	2.5	/experiments/AOT/AOT_stimuli/rescaled_final/0582_fw.mp4	0.0	171.8557939529419	
29	153.1159861087799	pulse	1	t		27.0	2.5	/experiments/AOT/AOT_stimuli/rescaled_final/0582_fw.mp4	0.0	173.45616602897644	
29	153.63215613365173	fix_post	2		12	27.0	2.5	/experiments/AOT/AOT_stimuli/rescaled_final/0582_fw.mp4	0.0	173.97233605384827	0.1003408432006836
30	153.73249697685242	fix_pre	0		119	28.0	2.5	blank	1.0	174.07267689704895	0.9917449951171875
30	154.71606302261353	pulse	0	t		28.0	2.5	blank	1.0	175.05624294281006	
30	154.7242419719696	movie	1		301	28.0	2.5	blank	1.0	175.06442189216614	2.507850170135498
30	156.3160309791565	pulse	1	t		28.0	2.5	blank	1.0	176.65621089935303	
30	157.2320921421051	fix_post	2		12	28.0	2.5	blank	1.0	177.57227206230164	0.10043692588806152
31	157.33252906799316	fix_pre	0		120	29.0	2.5	/experiments/AOT/AOT_stimuli/rescaled_final/0803_rv.mp4	0.0	177.6727089881897	1.0000231266021729
31	157.91607403755188	pulse	0	t		29.0	2.5	/experiments/AOT/AOT_stimuli/rescaled_final/0803_rv.mp4	0.0	178.2562539577484	
31	158.33255219459534	movie	1		243	29.0	2.5	/experiments/AOT/AOT_stimuli/rescaled_final/0803_rv.mp4	0.0	178.67273211479187	2.4999899864196777
31	159.51616501808167	pulse	1	t		29.0	2.5	/experiments/AOT/AOT_stimuli/rescaled_final/0803_rv.mp4	0.0	179.8563449382782	
31	160.83254218101501	fix_post	2		12	29.0	2.5	/experiments/AOT/AOT_stimuli/rescaled_final/0803_rv.mp4	0.0	181.17272210121155	0.10001778602600098
32	160.93255996704102	fix_pre	0		120	30.0	2.5	/experiments/AOT/AOT_stimuli/rescaled_final/2123_fw.mp4	0.0	181.27273988723755	0.9996151924133301
32	161.11617517471313	pulse	0	t		30.0	2.5	/experiments/AOT/AOT_stimuli/rescaled_final/2123_fw.mp4	0.0	181.45635509490967	
32	161.93217515945435	movie	1		243	30.0	2.5	/experiments/AOT/AOT_stimuli/rescaled_final/2123_fw.mp4	0.0	182.27235507965088	2.5003550052642822
32	162.71603417396545	pulse	1	t		30.0	2.5	/experiments/AOT/AOT_stimuli/rescaled_final/2123_fw.mp4	0.0	183.056214094162	
32	164.31439018249512	pulse	1	t		30.0	2.5	/experiments/AOT/AOT_stimuli/rescaled_final/2123_fw.mp4	0.0	184.65457010269165	
32	164.43253016471863	fix_post	2		12	30.0	2.5	/experiments/AOT/AOT_stimuli/rescaled_final/2123_fw.mp4	0.0	184.77271008491516	0.09996581077575684
33	164.53249597549438	fix_pre	0		120	31.0	2.5	/experiments/AOT/AOT_stimuli/rescaled_final/0396_rv.mp4	0.0	184.87267589569092	1.0000650882720947
33	165.53256106376648	movie	1		244	31.0	2.5	/experiments/AOT/AOT_stimuli/rescaled_final/0396_rv.mp4	0.0	185.872740983963	2.4995229244232178
33	165.91561698913574	pulse	1	t		31.0	2.5	/experiments/AOT/AOT_stimuli/rescaled_final/0396_rv.mp4	0.0	186.25579690933228	
33	167.51599597930908	pulse	1	t		31.0	2.5	/experiments/AOT/AOT_stimuli/rescaled_final/0396_rv.mp4	0.0	187.85617589950562	
33	168.0320839881897	fix_post	2		12	31.0	2.5	/experiments/AOT/AOT_stimuli/rescaled_final/0396_rv.mp4	0.0	188.37226390838623	0.10035204887390137
34	168.1324360370636	fix_pre	0		119	32.0	2.5	/experiments/AOT/AOT_stimuli/rescaled_final/2139_fw.mp4	0.0	188.47261595726013	0.9917330741882324
34	169.11601996421814	pulse	0	t		32.0	2.5	/experiments/AOT/AOT_stimuli/rescaled_final/2139_fw.mp4	0.0	189.45619988441467	
34	169.12416911125183	movie	1		245	32.0	2.5	/experiments/AOT/AOT_stimuli/rescaled_final/2139_fw.mp4	0.0	189.46434903144836	2.50827693939209
34	170.71573400497437	pulse	1	t		32.0	2.5	/experiments/AOT/AOT_stimuli/rescaled_final/2139_fw.mp4	0.0	191.0559139251709	
34	171.63244605064392	fix_post	2		12	32.0	2.5	/experiments/AOT/AOT_stimuli/rescaled_final/2139_fw.mp4	0.0	191.97262597084045	0.10005593299865723
35	171.73250198364258	fix_pre	0		120	33.0	2.5	blank	1.0	192.0726819038391	0.9999120235443115
35	172.31591606140137	pulse	0	t		33.0	2.5	blank	1.0	192.6560959815979	
35	172.7324140071869	movie	1		300	33.0	2.5	blank	1.0	193.07259392738342	2.500084161758423
35	173.91589999198914	pulse	1	t		33.0	2.5	blank	1.0	194.25607991218567	
35	175.2324981689453	fix_post	2		12	33.0	2.5	blank	1.0	195.57267808914185	0.10004901885986328
36	175.33254718780518	fix_pre	0		120	34.0	2.5	/experiments/AOT/AOT_stimuli/rescaled_final/0255_rv.mp4	0.0	195.6727271080017	0.9999759197235107
36	175.51593208312988	pulse	0	t		34.0	2.5	/experiments/AOT/AOT_stimuli/rescaled_final/0255_rv.mp4	0.0	195.85611200332642	
36	176.3325231075287	movie	1		242	34.0	2.5	/experiments/AOT/AOT_stimuli/rescaled_final/0255_rv.mp4	0.0	196.67270302772522	2.500062942504883
36	177.11592316627502	pulse	1	t		34.0	2.5	/experiments/AOT/AOT_stimuli/rescaled_final/0255_rv.mp4	0.0	197.45610308647156	
36	178.7144250869751	pulse	1	t		34.0	2.5	/experiments/AOT/AOT_stimuli/rescaled_final/0255_rv.mp4	0.0	199.05460500717163	
36	178.83258605003357	fix_post	2		12	34.0	2.5	/experiments/AOT/AOT_stimuli/rescaled_final/0255_rv.mp4	0.0	199.1727659702301	0.09985613822937012
37	178.93244218826294	fix_pre	0		120	35.0	2.5	/experiments/AOT/AOT_stimuli/rescaled_final/1285_fw.mp4	0.0	199.27262210845947	1.0000648498535156
37	179.93250703811646	movie	1		245	35.0	2.5	/experiments/AOT/AOT_stimuli/rescaled_final/1285_fw.mp4	0.0	200.272686958313	2.4995131492614746
37	180.317036151886	pulse	1	t		35.0	2.5	/experiments/AOT/AOT_stimuli/rescaled_final/1285_fw.mp4	0.0	200.65721607208252	
37	181.91589212417603	pulse	1	t		35.0	2.5	/experiments/AOT/AOT_stimuli/rescaled_final/1285_fw.mp4	0.0	202.25607204437256	
37	182.43202018737793	fix_post	2		12	35.0	2.5	/experiments/AOT/AOT_stimuli/rescaled_final/1285_fw.mp4	0.0	202.77220010757446	0.1003408432006836
38	182.5323610305786	fix_pre	0		119	36.0	2.5	/experiments/AOT/AOT_stimuli/rescaled_final/0768_rv.mp4	0.0	202.87254095077515	0.9918341636657715
38	183.5159411430359	pulse	0	t		36.0	2.5	/experiments/AOT/AOT_stimuli/rescaled_final/0768_rv.mp4	0.0	203.85612106323242	
38	183.52419519424438	movie	1		245	36.0	2.5	/experiments/AOT/AOT_stimuli/rescaled_final/0768_rv.mp4	0.0	203.86437511444092	2.508206844329834
38	185.11709213256836	pulse	1	t		36.0	2.5	/experiments/AOT/AOT_stimuli/rescaled_final/0768_rv.mp4	0.0	205.4572720527649	
38	186.03240203857422	fix_post	2		12	36.0	2.5	/experiments/AOT/AOT_stimuli/rescaled_final/0768_rv.mp4	0.0	206.37258195877075	0.09994292259216309
39	186.13234496116638	fix_pre	0		120	37.0	2.5	/experiments/AOT/AOT_stimuli/rescaled_final/1579_fw.mp4	0.0	206.47252488136292	1.000169038772583
39	186.71597409248352	pulse	0	t		37.0	2.5	/experiments/AOT/AOT_stimuli/rescaled_final/1579_fw.mp4	0.0	207.05615401268005	
39	187.13251399993896	movie	1		244	37.0	2.5	/experiments/AOT/AOT_stimuli/rescaled_final/1579_fw.mp4	0.0	207.4726939201355	2.4999279975891113
39	188.31597018241882	pulse	1	t		37.0	2.5	/experiments/AOT/AOT_stimuli/rescaled_final/1579_fw.mp4	0.0	208.65615010261536	
39	189.63244199752808	fix_post	2		12	37.0	2.5	/experiments/AOT/AOT_stimuli/rescaled_final/1579_fw.mp4	0.0	209.9726219177246	0.09955406188964844
40	189.73199605941772	fix_pre	0		120	38.0	2.5	/experiments/AOT/AOT_stimuli/rescaled_final/0060_fw.mp4	0.0	210.07217597961426	1.0002899169921875
40	189.91592001914978	pulse	0	t		38.0	2.5	/experiments/AOT/AOT_stimuli/rescaled_final/0060_fw.mp4	0.0	210.2560999393463	
40	190.7322859764099	movie	1		244	38.0	2.5	/experiments/AOT/AOT_stimuli/rescaled_final/0060_fw.mp4	0.0	211.07246589660645	2.5001800060272217
40	191.51598596572876	pulse	1	t		38.0	2.5	/experiments/AOT/AOT_stimuli/rescaled_final/0060_fw.mp4	0.0	211.8561658859253	
40	193.1145441532135	pulse	1	t		38.0	2.5	/experiments/AOT/AOT_stimuli/rescaled_final/0060_fw.mp4	0.0	213.45472407341003	
40	193.23246598243713	fix_post	2		12	38.0	2.5	/experiments/AOT/AOT_stimuli/rescaled_final/0060_fw.mp4	0.0	213.57264590263367	0.09992599487304688
41	193.33239197731018	fix_pre	0		120	39.0	2.5	/experiments/AOT/AOT_stimuli/rescaled_final/0433_rv.mp4	0.0	213.6725718975067	0.9999980926513672
41	194.33239006996155	movie	1		244	39.0	2.5	/experiments/AOT/AOT_stimuli/rescaled_final/0433_rv.mp4	0.0	214.67256999015808	2.5001020431518555
41	194.71567702293396	pulse	1	t		39.0	2.5	/experiments/AOT/AOT_stimuli/rescaled_final/0433_rv.mp4	0.0	215.0558569431305	
41	196.31549501419067	pulse	1	t		39.0	2.5	/experiments/AOT/AOT_stimuli/rescaled_final/0433_rv.mp4	0.0	216.6556749343872	
41	196.8324921131134	fix_post	2		12	39.0	2.5	/experiments/AOT/AOT_stimuli/rescaled_final/0433_rv.mp4	0.0	217.17267203330994	0.09996891021728516
42	196.9324610233307	fix_pre	0		119	40.0	2.5	/experiments/AOT/AOT_stimuli/rescaled_final/1773_fw.mp4	0.0	217.27264094352722	0.9918949604034424
42	197.91610097885132	pulse	0	t		40.0	2.5	/experiments/AOT/AOT_stimuli/rescaled_final/1773_fw.mp4	0.0	218.25628089904785	
42	197.92435598373413	movie	1		247	40.0	2.5	/experiments/AOT/AOT_stimuli/rescaled_final/1773_fw.mp4	0.0	218.26453590393066	2.508007049560547
42	199.51565217971802	pulse	1	t		40.0	2.5	/experiments/AOT/AOT_stimuli/rescaled_final/1773_fw.mp4	0.0	219.85583209991455	
42	200.43236303329468	fix_post	2		12	40.0	2.5	/experiments/AOT/AOT_stimuli/rescaled_final/1773_fw.mp4	0.0	220.7725429534912	0.09995102882385254
43	200.53231406211853	fix_pre	0		120	41.0	2.5	/experiments/AOT/AOT_stimuli/rescaled_final/1126_rv.mp4	0.0	220.87249398231506	0.9999880790710449
43	201.11592411994934	pulse	0	t		41.0	2.5	/experiments/AOT/AOT_stimuli/rescaled_final/1126_rv.mp4	0.0	221.45610404014587	
43	201.53230214118958	movie	1		248	41.0	2.5	/experiments/AOT/AOT_stimuli/rescaled_final/1126_rv.mp4	0.0	221.8724820613861	2.4999618530273438
43	202.7158441543579	pulse	1	t		41.0	2.5	/experiments/AOT/AOT_stimuli/rescaled_final/1126_rv.mp4	0.0	223.05602407455444	
43	204.03226399421692	fix_post	2		12	41.0	2.5	/experiments/AOT/AOT_stimuli/rescaled_final/1126_rv.mp4	0.0	224.37244391441345	0.10006403923034668
44	204.13232803344727	fix_pre	0		120	42.0	2.5	blank	1.0	224.4725079536438	0.9999330043792725
44	204.31575798988342	pulse	0	t		42.0	2.5	blank	1.0	224.65593791007996	
44	205.13226103782654	movie	1		300	42.0	2.5	blank	1.0	225.47244095802307	2.500056028366089
44	205.91578316688538	pulse	1	t		42.0	2.5	blank	1.0	226.2559630870819	
44	207.51574110984802	pulse	1	t		42.0	2.5	blank	1.0	227.85592103004456	
44	207.63231706619263	fix_post	2		12	42.0	2.5	blank	1.0	227.97249698638916	0.09992003440856934
45	207.7322371006012	fix_pre	0		120	43.0	2.5	/experiments/AOT/AOT_stimuli/rescaled_final/1110_rv.mp4	0.0	228.07241702079773	1.0000369548797607
45	208.73227405548096	movie	1		243	43.0	2.5	/experiments/AOT/AOT_stimuli/rescaled_final/1110_rv.mp4	0.0	229.0724539756775	2.499920129776001
45	209.11553597450256	pulse	1	t		43.0	2.5	/experiments/AOT/AOT_stimuli/rescaled_final/1110_rv.mp4	0.0	229.4557158946991	
45	210.71571111679077	pulse	1	t		43.0	2.5	/experiments/AOT/AOT_stimuli/rescaled_final/1110_rv.mp4	0.0	231.0558910369873	
45	211.23219418525696	fix_post	2		12	43.0	2.5	/experiments/AOT/AOT_stimuli/rescaled_final/1110_rv.mp4	0.0	231.5723741054535	0.09970784187316895
46	211.33190202713013	fix_pre	0		119	44.0	2.5	/experiments/AOT/AOT_stimuli/rescaled_final/0304_rv.mp4	0.0	231.67208194732666	0.9920840263366699
46	212.3158130645752	pulse	0	t		44.0	2.5	/experiments/AOT/AOT_stimuli/rescaled_final/0304_rv.mp4	0.0	232.65599298477173	
46	212.3239860534668	movie	1		244	44.0	2.5	/experiments/AOT/AOT_stimuli/rescaled_final/0304_rv.mp4	0.0	232.66416597366333	2.5083611011505127
46	213.91552996635437	pulse	1	t		44.0	2.5	/experiments/AOT/AOT_stimuli/rescaled_final/0304_rv.mp4	0.0	234.2557098865509	
46	214.8323471546173	fix_post	2		12	44.0	2.5	/experiments/AOT/AOT_stimuli/rescaled_final/0304_rv.mp4	0.0	235.17252707481384	0.09987783432006836
47	214.93222498893738	fix_pre	0		120	45.0	2.5	/experiments/AOT/AOT_stimuli/rescaled_final/0396_fw.mp4	0.0	235.2724049091339	1.000082015991211
47	215.51577711105347	pulse	0	t		45.0	2.5	/experiments/AOT/AOT_stimuli/rescaled_final/0396_fw.mp4	0.0	235.85595703125	
47	215.9323070049286	movie	1		244	45.0	2.5	/experiments/AOT/AOT_stimuli/rescaled_final/0396_fw.mp4	0.0	236.27248692512512	2.4998960494995117
47	217.1158549785614	pulse	1	t		45.0	2.5	/experiments/AOT/AOT_stimuli/rescaled_final/0396_fw.mp4	0.0	237.45603489875793	
47	218.4322030544281	fix_post	2		12	45.0	2.5	/experiments/AOT/AOT_stimuli/rescaled_final/0396_fw.mp4	0.0	238.77238297462463	0.10003805160522461
48	218.53224110603333	fix_pre	0		120	46.0	2.5	/experiments/AOT/AOT_stimuli/rescaled_final/1868_rv.mp4	0.0	238.87242102622986	0.9999580383300781
48	218.7157711982727	pulse	0	t		46.0	2.5	/experiments/AOT/AOT_stimuli/rescaled_final/1868_rv.mp4	0.0	239.05595111846924	
48	219.5321991443634	movie	1		245	46.0	2.5	/experiments/AOT/AOT_stimuli/rescaled_final/1868_rv.mp4	0.0	239.87237906455994	2.499656915664673
48	220.31577110290527	pulse	1	t		46.0	2.5	/experiments/AOT/AOT_stimuli/rescaled_final/1868_rv.mp4	0.0	240.6559510231018	
48	221.91422319412231	pulse	1	t		46.0	2.5	/experiments/AOT/AOT_stimuli/rescaled_final/1868_rv.mp4	0.0	242.25440311431885	
48	222.03185606002808	fix_post	2		12	46.0	2.5	/experiments/AOT/AOT_stimuli/rescaled_final/1868_rv.mp4	0.0	242.3720359802246	0.1004180908203125
49	222.1322741508484	fix_pre	0		120	47.0	2.5	/experiments/AOT/AOT_stimuli/rescaled_final/1324_fw.mp4	0.0	242.47245407104492	1.000011920928955
49	223.13228607177734	movie	1		245	47.0	2.5	/experiments/AOT/AOT_stimuli/rescaled_final/1324_fw.mp4	0.0	243.47246599197388	2.4999239444732666
49	223.51545119285583	pulse	1	t		47.0	2.5	/experiments/AOT/AOT_stimuli/rescaled_final/1324_fw.mp4	0.0	243.85563111305237	
49	225.11573219299316	pulse	1	t		47.0	2.5	/experiments/AOT/AOT_stimuli/rescaled_final/1324_fw.mp4	0.0	245.4559121131897	
49	225.6322100162506	fix_post	2		12	47.0	2.5	/experiments/AOT/AOT_stimuli/rescaled_final/1324_fw.mp4	0.0	245.97238993644714	0.09999394416809082
50	225.7322039604187	fix_pre	0		119	48.0	2.5	/experiments/AOT/AOT_stimuli/rescaled_final/1706_fw.mp4	0.0	246.07238388061523	0.9917051792144775
50	226.71580410003662	pulse	0	t		48.0	2.5	/experiments/AOT/AOT_stimuli/rescaled_final/1706_fw.mp4	0.0	247.05598402023315	
50	226.72390913963318	movie	1		246	48.0	2.5	/experiments/AOT/AOT_stimuli/rescaled_final/1706_fw.mp4	0.0	247.0640890598297	2.5083038806915283
50	228.31541514396667	pulse	1	t		48.0	2.5	/experiments/AOT/AOT_stimuli/rescaled_final/1706_fw.mp4	0.0	248.6555950641632	
50	229.2322130203247	fix_post	2		12	48.0	2.5	/experiments/AOT/AOT_stimuli/rescaled_final/1706_fw.mp4	0.0	249.57239294052124	0.10000395774841309
51	229.33221697807312	fix_pre	0		120	49.0	2.5	blank	1.0	249.67239689826965	0.9999980926513672
51	229.91576719284058	pulse	0	t		49.0	2.5	blank	1.0	250.2559471130371	
51	230.3322150707245	movie	1		300	49.0	2.5	blank	1.0	250.67239499092102	2.5000340938568115
51	231.5157811641693	pulse	1	t		49.0	2.5	blank	1.0	251.85596108436584	
51	232.8322491645813	fix_post	2		12	49.0	2.5	blank	1.0	253.17242908477783	0.09991979598999023
52	232.9321689605713	fix_pre	0		120	50.0	2.5	/experiments/AOT/AOT_stimuli/rescaled_final/0987_rv.mp4	0.0	253.27234888076782	1.0000050067901611
52	233.11569619178772	pulse	0	t		50.0	2.5	/experiments/AOT/AOT_stimuli/rescaled_final/0987_rv.mp4	0.0	253.45587611198425	
52	233.93217396736145	movie	1		244	50.0	2.5	/experiments/AOT/AOT_stimuli/rescaled_final/0987_rv.mp4	0.0	254.27235388755798	2.49997615814209
52	234.71568608283997	pulse	1	t		50.0	2.5	/experiments/AOT/AOT_stimuli/rescaled_final/0987_rv.mp4	0.0	255.0558660030365	
52	236.31422901153564	pulse	1	t		50.0	2.5	/experiments/AOT/AOT_stimuli/rescaled_final/0987_rv.mp4	0.0	256.6544089317322	
52	236.43215012550354	fix_post	2		12	50.0	2.5	/experiments/AOT/AOT_stimuli/rescaled_final/0987_rv.mp4	0.0	256.7723300457001	0.10000801086425781
53	236.5321581363678	fix_pre	0		120	51.0	2.5	/experiments/AOT/AOT_stimuli/rescaled_final/0901_fw.mp4	0.0	256.87233805656433	1.0000450611114502
53	237.53220319747925	movie	1		248	51.0	2.5	/experiments/AOT/AOT_stimuli/rescaled_final/0901_fw.mp4	0.0	257.8723831176758	2.500004768371582
53	237.916650056839	pulse	1	t		51.0	2.5	/experiments/AOT/AOT_stimuli/rescaled_final/0901_fw.mp4	0.0	258.2568299770355	
53	239.5156331062317	pulse	1	t		51.0	2.5	/experiments/AOT/AOT_stimuli/rescaled_final/0901_fw.mp4	0.0	259.8558130264282	
53	240.03220796585083	fix_post	2		12	51.0	2.5	/experiments/AOT/AOT_stimuli/rescaled_final/0901_fw.mp4	0.0	260.37238788604736	0.09995913505554199
54	240.13216710090637	fix_pre	0		119	52.0	2.5	/experiments/AOT/AOT_stimuli/rescaled_final/0889_rv.mp4	0.0	260.4723470211029	0.9916660785675049
54	241.11567902565002	pulse	0	t		52.0	2.5	/experiments/AOT/AOT_stimuli/rescaled_final/0889_rv.mp4	0.0	261.45585894584656	
54	241.12383317947388	movie	1		244	52.0	2.5	/experiments/AOT/AOT_stimuli/rescaled_final/0889_rv.mp4	0.0	261.4640130996704	2.5083539485931396
54	242.71688508987427	pulse	1	t		52.0	2.5	/experiments/AOT/AOT_stimuli/rescaled_final/0889_rv.mp4	0.0	263.0570650100708	
54	243.63218712806702	fix_post	2		12	52.0	2.5	/experiments/AOT/AOT_stimuli/rescaled_final/0889_rv.mp4	0.0	263.97236704826355	0.09994792938232422
55	243.73213505744934	fix_pre	0		120	53.0	2.5	/experiments/AOT/AOT_stimuli/rescaled_final/0608_rv.mp4	0.0	264.0723149776459	0.9999649524688721
55	244.31561517715454	pulse	0	t		53.0	2.5	/experiments/AOT/AOT_stimuli/rescaled_final/0608_rv.mp4	0.0	264.6557950973511	
55	244.7321000099182	movie	1		243	53.0	2.5	/experiments/AOT/AOT_stimuli/rescaled_final/0608_rv.mp4	0.0	265.07227993011475	2.499627113342285
55	245.91567397117615	pulse	1	t		53.0	2.5	/experiments/AOT/AOT_stimuli/rescaled_final/0608_rv.mp4	0.0	266.2558538913727	
55	247.2317271232605	fix_post	2		12	53.0	2.5	/experiments/AOT/AOT_stimuli/rescaled_final/0608_rv.mp4	0.0	267.57190704345703	0.10039806365966797
56	247.33212518692017	fix_pre	0		120	54.0	2.5	/experiments/AOT/AOT_stimuli/rescaled_final/0803_rv.mp4	0.0	267.6723051071167	1.0000348091125488
56	247.51567912101746	pulse	0	t		54.0	2.5	/experiments/AOT/AOT_stimuli/rescaled_final/0803_rv.mp4	0.0	267.855859041214	
56	248.33215999603271	movie	1		243	54.0	2.5	/experiments/AOT/AOT_stimuli/rescaled_final/0803_rv.mp4	0.0	268.67233991622925	2.499934196472168
56	249.11561799049377	pulse	1	t		54.0	2.5	/experiments/AOT/AOT_stimuli/rescaled_final/0803_rv.mp4	0.0	269.4557979106903	
56	250.71396207809448	pulse	1	t		54.0	2.5	/experiments/AOT/AOT_stimuli/rescaled_final/0803_rv.mp4	0.0	271.054141998291	
56	250.83209419250488	fix_post	2		12	54.0	2.5	/experiments/AOT/AOT_stimuli/rescaled_final/0803_rv.mp4	0.0	271.1722741127014	0.10009479522705078
57	250.93218898773193	fix_pre	0		120	55.0	2.5	/experiments/AOT/AOT_stimuli/rescaled_final/2123_rv.mp4	0.0	271.27236890792847	0.9999721050262451
57	251.93216109275818	movie	1		243	55.0	2.5	/experiments/AOT/AOT_stimuli/rescaled_final/2123_rv.mp4	0.0	272.2723410129547	2.4998979568481445
57	252.315495967865	pulse	1	t		55.0	2.5	/experiments/AOT/AOT_stimuli/rescaled_final/2123_rv.mp4	0.0	272.6556758880615	
57	253.91582107543945	pulse	1	t		55.0	2.5	/experiments/AOT/AOT_stimuli/rescaled_final/2123_rv.mp4	0.0	274.256000995636	
57	254.43205904960632	fix_post	2		12	55.0	2.5	/experiments/AOT/AOT_stimuli/rescaled_final/2123_rv.mp4	0.0	274.77223896980286	0.10007596015930176
58	254.53213500976562	fix_pre	0		119	56.0	2.5	blank	1.0	274.87231492996216	0.9916231632232666
58	255.51561999320984	pulse	0	t		56.0	2.5	blank	1.0	275.8557999134064	
58	255.5237581729889	movie	1		301	56.0	2.5	blank	1.0	275.8639380931854	2.508265972137451
58	257.1155490875244	pulse	1	t		56.0	2.5	blank	1.0	277.45572900772095	
58	258.03202414512634	fix_post	2		12	56.0	2.5	blank	1.0	278.3722040653229	0.1000518798828125
59	258.13207602500916	fix_pre	0		120	57.0	2.5	/experiments/AOT/AOT_stimuli/rescaled_final/1579_fw.mp4	0.0	278.4722559452057	1.0000650882720947
59	258.71560406684875	pulse	0	t		57.0	2.5	/experiments/AOT/AOT_stimuli/rescaled_final/1579_fw.mp4	0.0	279.0557839870453	
59	259.13214111328125	movie	1		244	57.0	2.5	/experiments/AOT/AOT_stimuli/rescaled_final/1579_fw.mp4	0.0	279.4723210334778	2.499964952468872
59	260.3155791759491	pulse	1	t		57.0	2.5	/experiments/AOT/AOT_stimuli/rescaled_final/1579_fw.mp4	0.0	280.65575909614563	
59	261.6321060657501	fix_post	2		12	57.0	2.5	/experiments/AOT/AOT_stimuli/rescaled_final/1579_fw.mp4	0.0	281.97228598594666	0.09996604919433594
60	261.73207211494446	fix_pre	0		120	58.0	2.5	/experiments/AOT/AOT_stimuli/rescaled_final/1560_fw.mp4	0.0	282.072252035141	0.9999408721923828
60	261.9156789779663	pulse	0	t		58.0	2.5	/experiments/AOT/AOT_stimuli/rescaled_final/1560_fw.mp4	0.0	282.25585889816284	
60	262.73201298713684	movie	1		247	58.0	2.5	/experiments/AOT/AOT_stimuli/rescaled_final/1560_fw.mp4	0.0	283.0721929073334	2.50003719329834
60	263.515496969223	pulse	1	t		58.0	2.5	/experiments/AOT/AOT_stimuli/rescaled_final/1560_fw.mp4	0.0	283.85567688941956	
60	265.1116371154785	pulse	1	t		58.0	2.5	/experiments/AOT/AOT_stimuli/rescaled_final/1560_fw.mp4	0.0	285.45181703567505	
60	265.2320501804352	fix_post	2		12	58.0	2.5	/experiments/AOT/AOT_stimuli/rescaled_final/1560_fw.mp4	0.0	285.5722301006317	0.09993791580200195
61	265.3319880962372	fix_pre	0		120	59.0	2.5	/experiments/AOT/AOT_stimuli/rescaled_final/1458_fw.mp4	0.0	285.6721680164337	1.0001249313354492
61	266.33211302757263	movie	1		247	59.0	2.5	/experiments/AOT/AOT_stimuli/rescaled_final/1458_fw.mp4	0.0	286.67229294776917	2.4999160766601562
61	266.7155981063843	pulse	1	t		59.0	2.5	/experiments/AOT/AOT_stimuli/rescaled_final/1458_fw.mp4	0.0	287.0557780265808	
61	268.31544303894043	pulse	1	t		59.0	2.5	/experiments/AOT/AOT_stimuli/rescaled_final/1458_fw.mp4	0.0	288.65562295913696	
61	268.8320291042328	fix_post	2		12	59.0	2.5	/experiments/AOT/AOT_stimuli/rescaled_final/1458_fw.mp4	0.0	289.1722090244293	0.09998393058776855
62	268.93201303482056	fix_pre	0		119	60.0	2.5	/experiments/AOT/AOT_stimuli/rescaled_final/0019_fw.mp4	0.0	289.2721929550171	0.9916460514068604
62	269.9155170917511	pulse	0	t		60.0	2.5	/experiments/AOT/AOT_stimuli/rescaled_final/0019_fw.mp4	0.0	290.25569701194763	
62	269.9236590862274	movie	1		246	60.0	2.5	/experiments/AOT/AOT_stimuli/rescaled_final/0019_fw.mp4	0.0	290.26383900642395	2.508769989013672
62	271.51580810546875	pulse	1	t		60.0	2.5	/experiments/AOT/AOT_stimuli/rescaled_final/0019_fw.mp4	0.0	291.8559880256653	
62	272.4324290752411	fix_post	2		12	60.0	2.5	/experiments/AOT/AOT_stimuli/rescaled_final/0019_fw.mp4	0.0	292.7726089954376	0.09957504272460938
63	272.5320041179657	fix_pre	0		120	61.0	2.5	/experiments/AOT/AOT_stimuli/rescaled_final/1597_fw.mp4	0.0	292.87218403816223	1.0000419616699219
63	273.11557602882385	pulse	0	t		61.0	2.5	/experiments/AOT/AOT_stimuli/rescaled_final/1597_fw.mp4	0.0	293.4557559490204	
63	273.5320460796356	movie	1		243	61.0	2.5	/experiments/AOT/AOT_stimuli/rescaled_final/1597_fw.mp4	0.0	293.87222599983215	2.4999430179595947
63	274.71554017066956	pulse	1	t		61.0	2.5	/experiments/AOT/AOT_stimuli/rescaled_final/1597_fw.mp4	0.0	295.0557200908661	
63	276.0319890975952	fix_post	2		12	61.0	2.5	/experiments/AOT/AOT_stimuli/rescaled_final/1597_fw.mp4	0.0	296.37216901779175	0.09998488426208496
64	276.1319739818573	fix_pre	0		120	62.0	2.5	blank	1.0	296.47215390205383	1.0001261234283447
64	276.3154900074005	pulse	0	t		62.0	2.5	blank	1.0	296.65566992759705	
64	277.13210010528564	movie	1		300	62.0	2.5	blank	1.0	297.4722800254822	2.4999170303344727
64	277.91543912887573	pulse	1	t		62.0	2.5	blank	1.0	298.25561904907227	
64	279.515506029129	pulse	1	t		62.0	2.5	blank	1.0	299.85568594932556	
64	279.6320171356201	fix_post	2		12	62.0	2.5	blank	1.0	299.97219705581665	0.09994983673095703
65	279.7319669723511	fix_pre	0		120	63.0	2.5	/experiments/AOT/AOT_stimuli/rescaled_final/2092_fw.mp4	0.0	300.0721468925476	0.9999871253967285
65	280.7319540977478	movie	1		245	63.0	2.5	/experiments/AOT/AOT_stimuli/rescaled_final/2092_fw.mp4	0.0	301.07213401794434	2.499562978744507
65	281.1154479980469	pulse	1	t		63.0	2.5	/experiments/AOT/AOT_stimuli/rescaled_final/2092_fw.mp4	0.0	301.4556279182434	
65	282.7155649662018	pulse	1	t		63.0	2.5	/experiments/AOT/AOT_stimuli/rescaled_final/2092_fw.mp4	0.0	303.0557448863983	
65	283.2315170764923	fix_post	2		12	63.0	2.5	/experiments/AOT/AOT_stimuli/rescaled_final/2092_fw.mp4	0.0	303.57169699668884	0.10044407844543457
66	283.33196115493774	fix_pre	0		119	64.0	2.5	/experiments/AOT/AOT_stimuli/rescaled_final/1324_rv.mp4	0.0	303.6721410751343	0.9916539192199707
66	284.3154671192169	pulse	0	t		64.0	2.5	/experiments/AOT/AOT_stimuli/rescaled_final/1324_rv.mp4	0.0	304.65564703941345	
66	284.3236150741577	movie	1		245	64.0	2.5	/experiments/AOT/AOT_stimuli/rescaled_final/1324_rv.mp4	0.0	304.66379499435425	2.508286952972412
66	285.915155172348	pulse	1	t		64.0	2.5	/experiments/AOT/AOT_stimuli/rescaled_final/1324_rv.mp4	0.0	306.25533509254456	
66	286.8319020271301	fix_post	2		12	64.0	2.5	/experiments/AOT/AOT_stimuli/rescaled_final/1324_rv.mp4	0.0	307.17208194732666	0.10007095336914062
67	286.93197298049927	fix_pre	0		120	65.0	2.5	/experiments/AOT/AOT_stimuli/rescaled_final/1594_rv.mp4	0.0	307.2721529006958	0.9999120235443115
67	287.5154480934143	pulse	0	t		65.0	2.5	/experiments/AOT/AOT_stimuli/rescaled_final/1594_rv.mp4	0.0	307.85562801361084	
67	287.9318850040436	movie	1		247	65.0	2.5	/experiments/AOT/AOT_stimuli/rescaled_final/1594_rv.mp4	0.0	308.2720649242401	2.499610185623169
67	289.11557507514954	pulse	1	t		65.0	2.5	/experiments/AOT/AOT_stimuli/rescaled_final/1594_rv.mp4	0.0	309.45575499534607	
67	290.43149518966675	fix_post	2		12	65.0	2.5	/experiments/AOT/AOT_stimuli/rescaled_final/1594_rv.mp4	0.0	310.7716751098633	0.10043478012084961
68	290.5319299697876	fix_pre	0		120	66.0	2.5	/experiments/AOT/AOT_stimuli/rescaled_final/2167_rv.mp4	0.0	310.87210988998413	1.000101089477539
68	290.71534299850464	pulse	0	t		66.0	2.5	/experiments/AOT/AOT_stimuli/rescaled_final/2167_rv.mp4	0.0	311.0555229187012	
68	291.53203105926514	movie	1		243	66.0	2.5	/experiments/AOT/AOT_stimuli/rescaled_final/2167_rv.mp4	0.0	311.87221097946167	2.499458074569702
68	292.3154511451721	pulse	1	t		66.0	2.5	/experiments/AOT/AOT_stimuli/rescaled_final/2167_rv.mp4	0.0	312.65563106536865	
68	293.9138240814209	pulse	1	t		66.0	2.5	/experiments/AOT/AOT_stimuli/rescaled_final/2167_rv.mp4	0.0	314.25400400161743	
68	294.03148913383484	fix_post	2		12	66.0	2.5	/experiments/AOT/AOT_stimuli/rescaled_final/2167_rv.mp4	0.0	314.3716690540314	0.10039186477661133
69	294.13188099861145	fix_pre	0		120	67.0	2.5	/experiments/AOT/AOT_stimuli/rescaled_final/0119_fw.mp4	0.0	314.472060918808	1.0000910758972168
69	295.13197207450867	movie	1		244	67.0	2.5	/experiments/AOT/AOT_stimuli/rescaled_final/0119_fw.mp4	0.0	315.4721519947052	2.4998939037323
69	295.5152790546417	pulse	1	t		67.0	2.5	/experiments/AOT/AOT_stimuli/rescaled_final/0119_fw.mp4	0.0	315.85545897483826	
69	297.11533212661743	pulse	1	t		67.0	2.5	/experiments/AOT/AOT_stimuli/rescaled_final/0119_fw.mp4	0.0	317.45551204681396	
69	297.63186597824097	fix_post	2		12	67.0	2.5	/experiments/AOT/AOT_stimuli/rescaled_final/0119_fw.mp4	0.0	317.9720458984375	0.09995007514953613
70	297.7318160533905	fix_pre	0		119	68.0	2.5	/experiments/AOT/AOT_stimuli/rescaled_final/0758_rv.mp4	0.0	318.07199597358704	0.9918100833892822
70	298.71545219421387	pulse	0	t		68.0	2.5	/experiments/AOT/AOT_stimuli/rescaled_final/0758_rv.mp4	0.0	319.0556321144104	
70	298.7236261367798	movie	1		247	68.0	2.5	/experiments/AOT/AOT_stimuli/rescaled_final/0758_rv.mp4	0.0	319.0638060569763	2.5082969665527344
70	300.31510615348816	pulse	1	t		68.0	2.5	/experiments/AOT/AOT_stimuli/rescaled_final/0758_rv.mp4	0.0	320.6552860736847	
70	301.2319231033325	fix_post	2		12	68.0	2.5	/experiments/AOT/AOT_stimuli/rescaled_final/0758_rv.mp4	0.0	321.57210302352905	0.09994292259216309
71	301.3318660259247	fix_pre	0		120	69.0	2.5	/experiments/AOT/AOT_stimuli/rescaled_final/2123_rv.mp4	0.0	321.6720459461212	1.0000419616699219
71	301.9154140949249	pulse	0	t		69.0	2.5	/experiments/AOT/AOT_stimuli/rescaled_final/2123_rv.mp4	0.0	322.25559401512146	
71	302.3319079875946	movie	1		243	69.0	2.5	/experiments/AOT/AOT_stimuli/rescaled_final/2123_rv.mp4	0.0	322.67208790779114	2.4999899864196777
71	303.51546812057495	pulse	1	t		69.0	2.5	/experiments/AOT/AOT_stimuli/rescaled_final/2123_rv.mp4	0.0	323.8556480407715	
71	304.8318979740143	fix_post	2		12	69.0	2.5	/experiments/AOT/AOT_stimuli/rescaled_final/2123_rv.mp4	0.0	325.1720778942108	0.10001516342163086
72	304.9319131374359	fix_pre	0		120	70.0	2.5	blank	1.0	325.27209305763245	0.9998970031738281
72	305.1153771877289	pulse	0	t		70.0	2.5	blank	1.0	325.4555571079254	
72	305.93181014060974	movie	1		300	70.0	2.5	blank	1.0	326.2719900608063	2.4996910095214844
72	306.7149131298065	pulse	1	t		70.0	2.5	blank	1.0	327.05509305000305	
72	308.3149161338806	pulse	1	t		70.0	2.5	blank	1.0	328.65509605407715	
72	308.4315011501312	fix_post	2		12	70.0	2.5	blank	1.0	328.77168107032776	0.10008001327514648
73	308.5315811634064	fix_pre	0		120	71.0	2.5	/experiments/AOT/AOT_stimuli/rescaled_final/2092_rv.mp4	0.0	328.8717610836029	1.0005319118499756
73	309.53211307525635	movie	1		247	71.0	2.5	/experiments/AOT/AOT_stimuli/rescaled_final/2092_rv.mp4	0.0	329.8722929954529	2.499727964401245
73	309.9167170524597	pulse	1	t		71.0	2.5	/experiments/AOT/AOT_stimuli/rescaled_final/2092_rv.mp4	0.0	330.25689697265625	
73	311.5153901576996	pulse	1	t		71.0	2.5	/experiments/AOT/AOT_stimuli/rescaled_final/2092_rv.mp4	0.0	331.8555700778961	
73	312.0318410396576	fix_post	2		12	71.0	2.5	/experiments/AOT/AOT_stimuli/rescaled_final/2092_rv.mp4	0.0	332.3720209598541	0.10003495216369629
74	312.1318759918213	fix_pre	0		119	72.0	2.5	/experiments/AOT/AOT_stimuli/rescaled_final/0889_rv.mp4	0.0	332.4720559120178	0.9916210174560547
74	313.1153860092163	pulse	0	t		72.0	2.5	/experiments/AOT/AOT_stimuli/rescaled_final/0889_rv.mp4	0.0	333.45556592941284	
74	313.12349700927734	movie	1		245	72.0	2.5	/experiments/AOT/AOT_stimuli/rescaled_final/0889_rv.mp4	0.0	333.4636769294739	2.508273124694824
74	314.7150881290436	pulse	1	t		72.0	2.5	/experiments/AOT/AOT_stimuli/rescaled_final/0889_rv.mp4	0.0	335.0552680492401	
74	315.63177013397217	fix_post	2		12	72.0	2.5	/experiments/AOT/AOT_stimuli/rescaled_final/0889_rv.mp4	0.0	335.9719500541687	0.09999585151672363
75	315.7317659854889	fix_pre	0		120	73.0	2.5	/experiments/AOT/AOT_stimuli/rescaled_final/2008_fw.mp4	0.0	336.0719459056854	1.0000991821289062
75	316.3153591156006	pulse	0	t		73.0	2.5	/experiments/AOT/AOT_stimuli/rescaled_final/2008_fw.mp4	0.0	336.6555390357971	
75	316.7318651676178	movie	1		245	73.0	2.5	/experiments/AOT/AOT_stimuli/rescaled_final/2008_fw.mp4	0.0	337.07204508781433	2.499539852142334
75	317.91534996032715	pulse	1	t		73.0	2.5	/experiments/AOT/AOT_stimuli/rescaled_final/2008_fw.mp4	0.0	338.2555298805237	
75	319.23140501976013	fix_post	2		12	73.0	2.5	/experiments/AOT/AOT_stimuli/rescaled_final/2008_fw.mp4	0.0	339.57158493995667	0.1003870964050293
76	319.33179211616516	fix_pre	0		120	74.0	2.5	/experiments/AOT/AOT_stimuli/rescaled_final/1036_fw.mp4	0.0	339.6719720363617	0.9999709129333496
76	319.5154001712799	pulse	0	t		74.0	2.5	/experiments/AOT/AOT_stimuli/rescaled_final/1036_fw.mp4	0.0	339.85558009147644	
76	320.3317630290985	movie	1		243	74.0	2.5	/experiments/AOT/AOT_stimuli/rescaled_final/1036_fw.mp4	0.0	340.67194294929504	2.499577045440674
76	321.11520314216614	pulse	1	t		74.0	2.5	/experiments/AOT/AOT_stimuli/rescaled_final/1036_fw.mp4	0.0	341.45538306236267	
76	322.71365904808044	pulse	1	t		74.0	2.5	/experiments/AOT/AOT_stimuli/rescaled_final/1036_fw.mp4	0.0	343.053838968277	
76	322.8313400745392	fix_post	2		12	74.0	2.5	/experiments/AOT/AOT_stimuli/rescaled_final/1036_fw.mp4	0.0	343.1715199947357	0.10043096542358398
77	322.93177103996277	fix_pre	0		120	75.0	2.5	/experiments/AOT/AOT_stimuli/rescaled_final/1579_rv.mp4	0.0	343.2719509601593	0.9999630451202393
77	323.931734085083	movie	1		244	75.0	2.5	/experiments/AOT/AOT_stimuli/rescaled_final/1579_rv.mp4	0.0	344.27191400527954	2.500113010406494
77	324.31490302085876	pulse	1	t		75.0	2.5	/experiments/AOT/AOT_stimuli/rescaled_final/1579_rv.mp4	0.0	344.6550829410553	
77	325.9151380062103	pulse	1	t		75.0	2.5	/experiments/AOT/AOT_stimuli/rescaled_final/1579_rv.mp4	0.0	346.25531792640686	
77	326.4318470954895	fix_post	2		12	75.0	2.5	/experiments/AOT/AOT_stimuli/rescaled_final/1579_rv.mp4	0.0	346.77202701568604	0.09994387626647949
78	326.531790971756	fix_pre	0		119	76.0	2.5	/experiments/AOT/AOT_stimuli/rescaled_final/0889_fw.mp4	0.0	346.8719708919525	0.9916601181030273
78	327.5153021812439	pulse	0	t		76.0	2.5	/experiments/AOT/AOT_stimuli/rescaled_final/0889_fw.mp4	0.0	347.85548210144043	
78	327.523451089859	movie	1		244	76.0	2.5	/experiments/AOT/AOT_stimuli/rescaled_final/0889_fw.mp4	0.0	347.86363101005554	2.5083460807800293
78	329.1149170398712	pulse	1	t		76.0	2.5	/experiments/AOT/AOT_stimuli/rescaled_final/0889_fw.mp4	0.0	349.45509696006775	
78	330.03179717063904	fix_post	2		12	76.0	2.5	/experiments/AOT/AOT_stimuli/rescaled_final/0889_fw.mp4	0.0	350.37197709083557	0.0999000072479248
79	330.13169717788696	fix_pre	0		120	77.0	2.5	blank	1.0	350.4718770980835	1.0000989437103271
79	330.71527314186096	pulse	0	t		77.0	2.5	blank	1.0	351.0554530620575	
79	331.1317961215973	movie	1		300	77.0	2.5	blank	1.0	351.4719760417938	2.499974012374878
79	332.3152861595154	pulse	1	t		77.0	2.5	blank	1.0	352.6554660797119	
79	333.63177013397217	fix_post	2		12	77.0	2.5	blank	1.0	353.9719500541687	0.10001802444458008
80	333.73178815841675	fix_pre	0		120	78.0	2.5	/experiments/AOT/AOT_stimuli/rescaled_final/0677_rv.mp4	0.0	354.0719680786133	0.9999229907989502
80	333.9152841567993	pulse	0	t		78.0	2.5	/experiments/AOT/AOT_stimuli/rescaled_final/0677_rv.mp4	0.0	354.25546407699585	
80	334.7317111492157	movie	1		244	78.0	2.5	/experiments/AOT/AOT_stimuli/rescaled_final/0677_rv.mp4	0.0	355.07189106941223	2.5000758171081543
80	335.51523518562317	pulse	1	t		78.0	2.5	/experiments/AOT/AOT_stimuli/rescaled_final/0677_rv.mp4	0.0	355.8554151058197	
80	337.1134731769562	pulse	1	t		78.0	2.5	/experiments/AOT/AOT_stimuli/rescaled_final/0677_rv.mp4	0.0	357.4536530971527	
80	337.23178696632385	fix_post	2		12	78.0	2.5	/experiments/AOT/AOT_stimuli/rescaled_final/0677_rv.mp4	0.0	357.5719668865204	0.09994912147521973
81	337.3317360877991	fix_pre	0		120	79.0	2.5	/experiments/AOT/AOT_stimuli/rescaled_final/1495_fw.mp4	0.0	357.6719160079956	0.9999439716339111
81	338.331680059433	movie	1		245	79.0	2.5	/experiments/AOT/AOT_stimuli/rescaled_final/1495_fw.mp4	0.0	358.6718599796295	2.4999771118164062
81	338.715145111084	pulse	1	t		79.0	2.5	/experiments/AOT/AOT_stimuli/rescaled_final/1495_fw.mp4	0.0	359.0553250312805	
81	340.3153541088104	pulse	1	t		79.0	2.5	/experiments/AOT/AOT_stimuli/rescaled_final/1495_fw.mp4	0.0	360.65553402900696	
81	340.8316571712494	fix_post	2		12	79.0	2.5	/experiments/AOT/AOT_stimuli/rescaled_final/1495_fw.mp4	0.0	361.1718370914459	0.10002398490905762
82	340.93168115615845	fix_pre	0		119	80.0	2.5	/experiments/AOT/AOT_stimuli/rescaled_final/0750_fw.mp4	0.0	361.271861076355	0.9916260242462158
82	341.91519713401794	pulse	0	t		80.0	2.5	/experiments/AOT/AOT_stimuli/rescaled_final/0750_fw.mp4	0.0	362.2553770542145	
82	341.92330718040466	movie	1		246	80.0	2.5	/experiments/AOT/AOT_stimuli/rescaled_final/0750_fw.mp4	0.0	362.2634871006012	2.5083978176116943
82	343.51488304138184	pulse	1	t		80.0	2.5	/experiments/AOT/AOT_stimuli/rescaled_final/0750_fw.mp4	0.0	363.85506296157837	
82	344.43170499801636	fix_post	2		12	80.0	2.5	/experiments/AOT/AOT_stimuli/rescaled_final/0750_fw.mp4	0.0	364.7718849182129	0.10001301765441895
83	344.5317180156708	fix_pre	0		120	81.0	2.5	/experiments/AOT/AOT_stimuli/rescaled_final/0385_fw.mp4	0.0	364.8718979358673	1.000020980834961
83	345.1164879798889	pulse	0	t		81.0	2.5	/experiments/AOT/AOT_stimuli/rescaled_final/0385_fw.mp4	0.0	365.45666790008545	
83	345.53173899650574	movie	1		245	81.0	2.5	/experiments/AOT/AOT_stimuli/rescaled_final/0385_fw.mp4	0.0	365.87191891670227	2.4999380111694336
83	346.71527218818665	pulse	1	t		81.0	2.5	/experiments/AOT/AOT_stimuli/rescaled_final/0385_fw.mp4	0.0	367.0554521083832	
83	348.03167700767517	fix_post	2		12	81.0	2.5	/experiments/AOT/AOT_stimuli/rescaled_final/0385_fw.mp4	0.0	368.3718569278717	0.09998703002929688
84	348.13166403770447	fix_pre	0		120	82.0	2.5	blank	1.0	368.471843957901	0.9996349811553955
84	348.3152220249176	pulse	0	t		82.0	2.5	blank	1.0	368.65540194511414	
84	349.13129901885986	movie	1		300	82.0	2.5	blank	1.0	369.4714789390564	2.5004220008850098
84	349.91522312164307	pulse	1	t		82.0	2.5	blank	1.0	370.2554030418396	
84	351.51523518562317	pulse	1	t		82.0	2.5	blank	1.0	371.8554151058197	
84	351.6317210197449	fix_post	2		12	82.0	2.5	blank	1.0	371.9719009399414	0.09993410110473633
85	351.7316551208496	fix_pre	0		120	83.0	2.5	/experiments/AOT/AOT_stimuli/rescaled_final/1719_fw.mp4	0.0	372.07183504104614	1.0000619888305664
85	352.7317171096802	movie	1		244	83.0	2.5	/experiments/AOT/AOT_stimuli/rescaled_final/1719_fw.mp4	0.0	373.0718970298767	2.499927043914795
85	353.1161961555481	pulse	1	t		83.0	2.5	/experiments/AOT/AOT_stimuli/rescaled_final/1719_fw.mp4	0.0	373.45637607574463	
85	354.7151629924774	pulse	1	t		83.0	2.5	/experiments/AOT/AOT_stimuli/rescaled_final/1719_fw.mp4	0.0	375.05534291267395	
85	355.23164415359497	fix_post	2		12	83.0	2.5	/experiments/AOT/AOT_stimuli/rescaled_final/1719_fw.mp4	0.0	375.5718240737915	0.10002803802490234
87	355.3316721916199	stim	0		1716					375.6718521118164	14.30008578300476
87	356.3151741027832	pulse	0	t						376.65535402297974	
87	357.91521406173706	pulse	0	t						378.2553939819336	
87	359.5151970386505	pulse	0	t						379.85537695884705	
87	361.11516308784485	pulse	0	t						381.4553430080414	
87	362.71465706825256	pulse	0	t						383.0548369884491	
87	364.3152060508728	pulse	0	t						384.65538597106934	
87	365.9150359630585	pulse	0	t						386.255215883255	
87	367.5150990486145	pulse	0	t						387.85527896881104	
87	369.1150550842285	pulse	0	t						389.45523500442505	
