trial_nr	onset	event_type	phase	response	nr_frames	movie_index	movie_duration	movie_file	blank	onset_abs	duration
0	0.14987897872924805	stim	0		73					22.131412982940674	0.6083719730377197
0	0.7502028942108154	response	0	space						22.73173689842224	
1	0.7582509517669678	stim	0		1959					22.739784955978394	16.324919939041138
1	17.078800916671753	pulse	0	t						39.06033492088318	
1	17.083170890808105	stim	1		1717					39.06470489501953	14.308197021484375
1	18.675017833709717	pulse	1	t						40.65655183792114	
1	20.274988889694214	pulse	1	t						42.25652289390564	
1	21.87447690963745	pulse	1	t						43.85601091384888	
1	23.475112915039062	pulse	1	t						45.45664691925049	
1	25.074949979782104	pulse	1	t						47.05648398399353	
1	26.674877882003784	pulse	1	t						48.65641188621521	
1	28.274946928024292	pulse	1	t						50.25648093223572	
1	29.87488889694214	pulse	1	t						51.856422901153564	
2	31.39136791229248	fix_pre	0		11	0.0	2.5	/experiments/AOT/AOT_stimuli/rescaled_final/1307_rv.mp4	0.0	53.372901916503906	0.09165310859680176
2	31.47481083869934	pulse	0	t		0.0	2.5	/experiments/AOT/AOT_stimuli/rescaled_final/1307_rv.mp4	0.0	53.45634484291077	
2	31.483021020889282	movie	1		247	0.0	2.5	/experiments/AOT/AOT_stimuli/rescaled_final/1307_rv.mp4	0.0	53.46455502510071	2.5083839893341064
2	33.074339866638184	pulse	1	t		0.0	2.5	/experiments/AOT/AOT_stimuli/rescaled_final/1307_rv.mp4	0.0	55.05587387084961	
2	33.99140501022339	fix_post	2		12	0.0	2.5	/experiments/AOT/AOT_stimuli/rescaled_final/1307_rv.mp4	0.0	55.972939014434814	0.09992194175720215
3	34.09132695198059	fix_pre	0		120	1.0	2.5	/experiments/AOT/AOT_stimuli/rescaled_final/1816_rv.mp4	0.0	56.07286095619202	1.000014066696167
3	34.674850940704346	pulse	0	t		1.0	2.5	/experiments/AOT/AOT_stimuli/rescaled_final/1816_rv.mp4	0.0	56.65638494491577	
3	35.09134101867676	movie	1		245	1.0	2.5	/experiments/AOT/AOT_stimuli/rescaled_final/1816_rv.mp4	0.0	57.072875022888184	2.500002861022949
3	36.27490592002869	pulse	1	t		1.0	2.5	/experiments/AOT/AOT_stimuli/rescaled_final/1816_rv.mp4	0.0	58.25643992424011	
3	37.59134387969971	fix_post	2		12	1.0	2.5	/experiments/AOT/AOT_stimuli/rescaled_final/1816_rv.mp4	0.0	59.57287788391113	0.09998703002929688
4	37.691330909729004	fix_pre	0		120	2.0	2.5	/experiments/AOT/AOT_stimuli/rescaled_final/1642_rv.mp4	0.0	59.67286491394043	0.9999780654907227
4	37.87478590011597	pulse	0	t		2.0	2.5	/experiments/AOT/AOT_stimuli/rescaled_final/1642_rv.mp4	0.0	59.85631990432739	
4	38.69130897521973	movie	1		246	2.0	2.5	/experiments/AOT/AOT_stimuli/rescaled_final/1642_rv.mp4	0.0	60.67284297943115	2.5000150203704834
4	39.47482204437256	pulse	1	t		2.0	2.5	/experiments/AOT/AOT_stimuli/rescaled_final/1642_rv.mp4	0.0	61.456356048583984	
4	41.07475304603577	pulse	1	t		2.0	2.5	/experiments/AOT/AOT_stimuli/rescaled_final/1642_rv.mp4	0.0	63.05628705024719	
4	41.19132399559021	fix_post	2		12	2.0	2.5	/experiments/AOT/AOT_stimuli/rescaled_final/1642_rv.mp4	0.0	63.172857999801636	0.10000491142272949
5	41.29132890701294	fix_pre	0		120	3.0	2.5	/experiments/AOT/AOT_stimuli/rescaled_final/0941_rv.mp4	0.0	63.272862911224365	0.9999830722808838
5	42.29131197929382	movie	1		247	3.0	2.5	/experiments/AOT/AOT_stimuli/rescaled_final/0941_rv.mp4	0.0	64.27284598350525	2.500014066696167
5	42.67473006248474	pulse	1	t		3.0	2.5	/experiments/AOT/AOT_stimuli/rescaled_final/0941_rv.mp4	0.0	64.65626406669617	
5	44.274765968322754	pulse	1	t		3.0	2.5	/experiments/AOT/AOT_stimuli/rescaled_final/0941_rv.mp4	0.0	66.25629997253418	
5	44.79132604598999	fix_post	2		12	3.0	2.5	/experiments/AOT/AOT_stimuli/rescaled_final/0941_rv.mp4	0.0	66.77286005020142	0.10002779960632324
6	44.89135384559631	fix_pre	0		119	4.0	2.5	/experiments/AOT/AOT_stimuli/rescaled_final/1174_rv.mp4	0.0	66.87288784980774	0.99163818359375
6	45.87485694885254	pulse	0	t		4.0	2.5	/experiments/AOT/AOT_stimuli/rescaled_final/1174_rv.mp4	0.0	67.85639095306396	
6	45.88299202919006	movie	1		246	4.0	2.5	/experiments/AOT/AOT_stimuli/rescaled_final/1174_rv.mp4	0.0	67.86452603340149	2.508288860321045
6	47.47470188140869	pulse	1	t		4.0	2.5	/experiments/AOT/AOT_stimuli/rescaled_final/1174_rv.mp4	0.0	69.45623588562012	
6	48.39128088951111	fix_post	2		12	4.0	2.5	/experiments/AOT/AOT_stimuli/rescaled_final/1174_rv.mp4	0.0	70.37281489372253	0.1002349853515625
7	48.49151587486267	fix_pre	0		120	5.0	2.5	blank	1.0	70.4730498790741	0.9998471736907959
7	49.07488703727722	pulse	0	t		5.0	2.5	blank	1.0	71.05642104148865	
7	49.49136304855347	movie	1		300	5.0	2.5	blank	1.0	71.47289705276489	2.4999678134918213
7	50.6747829914093	pulse	1	t		5.0	2.5	blank	1.0	72.65631699562073	
7	51.99133086204529	fix_post	2		12	5.0	2.5	blank	1.0	73.97286486625671	0.09999608993530273
8	52.09132695198059	fix_pre	0		120	6.0	2.5	/experiments/AOT/AOT_stimuli/rescaled_final/1870_rv.mp4	0.0	74.07286095619202	1.0000479221343994
8	52.274834871292114	pulse	0	t		6.0	2.5	/experiments/AOT/AOT_stimuli/rescaled_final/1870_rv.mp4	0.0	74.25636887550354	
8	53.09137487411499	movie	1		244	6.0	2.5	/experiments/AOT/AOT_stimuli/rescaled_final/1870_rv.mp4	0.0	75.07290887832642	2.4999940395355225
8	53.874783992767334	pulse	1	t		6.0	2.5	/experiments/AOT/AOT_stimuli/rescaled_final/1870_rv.mp4	0.0	75.85631799697876	
8	55.474343061447144	pulse	1	t		6.0	2.5	/experiments/AOT/AOT_stimuli/rescaled_final/1870_rv.mp4	0.0	77.45587706565857	
8	55.59136891365051	fix_post	2		12	6.0	2.5	/experiments/AOT/AOT_stimuli/rescaled_final/1870_rv.mp4	0.0	77.57290291786194	0.09992599487304688
9	55.69129490852356	fix_pre	0		120	7.0	2.5	/experiments/AOT/AOT_stimuli/rescaled_final/0584_rv.mp4	0.0	77.67282891273499	1.0
9	56.69129490852356	movie	1		246	7.0	2.5	/experiments/AOT/AOT_stimuli/rescaled_final/0584_rv.mp4	0.0	78.67282891273499	2.4995970726013184
9	57.07428598403931	pulse	1	t		7.0	2.5	/experiments/AOT/AOT_stimuli/rescaled_final/0584_rv.mp4	0.0	79.05581998825073	
9	58.67479205131531	pulse	1	t		7.0	2.5	/experiments/AOT/AOT_stimuli/rescaled_final/0584_rv.mp4	0.0	80.65632605552673	
9	59.19089198112488	fix_post	2		12	7.0	2.5	/experiments/AOT/AOT_stimuli/rescaled_final/0584_rv.mp4	0.0	81.1724259853363	0.10033988952636719
10	59.291231870651245	fix_pre	0		119	8.0	2.5	/experiments/AOT/AOT_stimuli/rescaled_final/0928_rv.mp4	0.0	81.27276587486267	0.9916701316833496
10	60.27475905418396	pulse	0	t		8.0	2.5	/experiments/AOT/AOT_stimuli/rescaled_final/0928_rv.mp4	0.0	82.25629305839539	
10	60.282902002334595	movie	1		245	8.0	2.5	/experiments/AOT/AOT_stimuli/rescaled_final/0928_rv.mp4	0.0	82.26443600654602	2.5083279609680176
10	61.87607383728027	pulse	1	t		8.0	2.5	/experiments/AOT/AOT_stimuli/rescaled_final/0928_rv.mp4	0.0	83.8576078414917	
10	62.79122996330261	fix_post	2		12	8.0	2.5	/experiments/AOT/AOT_stimuli/rescaled_final/0928_rv.mp4	0.0	84.77276396751404	0.10007309913635254
11	62.891303062438965	fix_pre	0		120	9.0	2.5	/experiments/AOT/AOT_stimuli/rescaled_final/0594_fw.mp4	0.0	84.87283706665039	0.9999029636383057
11	63.47472596168518	pulse	0	t		9.0	2.5	/experiments/AOT/AOT_stimuli/rescaled_final/0594_fw.mp4	0.0	85.4562599658966	
11	63.89120602607727	movie	1		244	9.0	2.5	/experiments/AOT/AOT_stimuli/rescaled_final/0594_fw.mp4	0.0	85.8727400302887	2.4996049404144287
11	65.0747549533844	pulse	1	t		9.0	2.5	/experiments/AOT/AOT_stimuli/rescaled_final/0594_fw.mp4	0.0	87.05628895759583	
11	66.3908109664917	fix_post	2		12	9.0	2.5	/experiments/AOT/AOT_stimuli/rescaled_final/0594_fw.mp4	0.0	88.37234497070312	0.10054898262023926
12	66.49135994911194	fix_pre	0		120	10.0	2.5	/experiments/AOT/AOT_stimuli/rescaled_final/0181_rv.mp4	0.0	88.47289395332336	0.9999001026153564
12	66.67468404769897	pulse	0	t		10.0	2.5	/experiments/AOT/AOT_stimuli/rescaled_final/0181_rv.mp4	0.0	88.6562180519104	
12	67.4912600517273	movie	1		245	10.0	2.5	/experiments/AOT/AOT_stimuli/rescaled_final/0181_rv.mp4	0.0	89.47279405593872	2.4995529651641846
12	68.2746639251709	pulse	1	t		10.0	2.5	/experiments/AOT/AOT_stimuli/rescaled_final/0181_rv.mp4	0.0	90.25619792938232	
12	69.87432098388672	pulse	1	t		10.0	2.5	/experiments/AOT/AOT_stimuli/rescaled_final/0181_rv.mp4	0.0	91.85585498809814	
12	69.99081301689148	fix_post	2		12	10.0	2.5	/experiments/AOT/AOT_stimuli/rescaled_final/0181_rv.mp4	0.0	91.9723470211029	0.1003568172454834
13	70.09116983413696	fix_pre	0		120	11.0	2.5	/experiments/AOT/AOT_stimuli/rescaled_final/1212_rv.mp4	0.0	92.07270383834839	1.0000691413879395
13	71.0912389755249	movie	1		243	11.0	2.5	/experiments/AOT/AOT_stimuli/rescaled_final/1212_rv.mp4	0.0	93.07277297973633	2.499948024749756
13	71.47569298744202	pulse	1	t		11.0	2.5	/experiments/AOT/AOT_stimuli/rescaled_final/1212_rv.mp4	0.0	93.45722699165344	
13	73.0746328830719	pulse	1	t		11.0	2.5	/experiments/AOT/AOT_stimuli/rescaled_final/1212_rv.mp4	0.0	95.05616688728333	
13	73.59118700027466	fix_post	2		12	11.0	2.5	/experiments/AOT/AOT_stimuli/rescaled_final/1212_rv.mp4	0.0	95.57272100448608	0.10000085830688477
14	73.69118785858154	fix_pre	0		119	12.0	2.5	/experiments/AOT/AOT_stimuli/rescaled_final/0911_fw.mp4	0.0	95.67272186279297	0.9916520118713379
14	74.67463302612305	pulse	0	t		12.0	2.5	/experiments/AOT/AOT_stimuli/rescaled_final/0911_fw.mp4	0.0	96.65616703033447	
14	74.68283987045288	movie	1		247	12.0	2.5	/experiments/AOT/AOT_stimuli/rescaled_final/0911_fw.mp4	0.0	96.6643738746643	2.508376121520996
14	76.27471995353699	pulse	1	t		12.0	2.5	/experiments/AOT/AOT_stimuli/rescaled_final/0911_fw.mp4	0.0	98.25625395774841	
14	77.19121599197388	fix_post	2		12	12.0	2.5	/experiments/AOT/AOT_stimuli/rescaled_final/0911_fw.mp4	0.0	99.1727499961853	0.09998798370361328
15	77.29120397567749	fix_pre	0		120	13.0	2.5	/experiments/AOT/AOT_stimuli/rescaled_final/0595_fw.mp4	0.0	99.27273797988892	0.9999990463256836
15	77.87431287765503	pulse	0	t		13.0	2.5	/experiments/AOT/AOT_stimuli/rescaled_final/0595_fw.mp4	0.0	99.85584688186646	
15	78.29120302200317	movie	1		243	13.0	2.5	/experiments/AOT/AOT_stimuli/rescaled_final/0595_fw.mp4	0.0	100.2727370262146	2.5000438690185547
15	79.47449898719788	pulse	1	t		13.0	2.5	/experiments/AOT/AOT_stimuli/rescaled_final/0595_fw.mp4	0.0	101.4560329914093	
15	80.79124689102173	fix_post	2		12	13.0	2.5	/experiments/AOT/AOT_stimuli/rescaled_final/0595_fw.mp4	0.0	102.77278089523315	0.0999460220336914
16	80.89119291305542	fix_pre	0		120	14.0	2.5	blank	1.0	102.87272691726685	0.9999990463256836
16	81.07463192939758	pulse	0	t		14.0	2.5	blank	1.0	103.05616593360901	
16	81.8911919593811	movie	1		300	14.0	2.5	blank	1.0	103.87272596359253	2.499527931213379
16	82.67462301254272	pulse	1	t		14.0	2.5	blank	1.0	104.65615701675415	
16	84.27468800544739	pulse	1	t		14.0	2.5	blank	1.0	106.25622200965881	
16	84.39071989059448	fix_post	2		12	14.0	2.5	blank	1.0	106.37225389480591	0.10046815872192383
17	84.4911880493164	fix_pre	0		120	15.0	2.5	/experiments/AOT/AOT_stimuli/rescaled_final/1790_fw.mp4	0.0	106.47272205352783	0.9999079704284668
17	85.49109601974487	movie	1		245	15.0	2.5	/experiments/AOT/AOT_stimuli/rescaled_final/1790_fw.mp4	0.0	107.4726300239563	2.500046968460083
17	85.88299894332886	pulse	1	t		15.0	2.5	/experiments/AOT/AOT_stimuli/rescaled_final/1790_fw.mp4	0.0	107.86453294754028	
17	87.47460985183716	pulse	1	t		15.0	2.5	/experiments/AOT/AOT_stimuli/rescaled_final/1790_fw.mp4	0.0	109.45614385604858	
17	87.99114298820496	fix_post	2		12	15.0	2.5	/experiments/AOT/AOT_stimuli/rescaled_final/1790_fw.mp4	0.0	109.97267699241638	0.0999908447265625
18	88.09113383293152	fix_pre	0		119	16.0	2.5	/experiments/AOT/AOT_stimuli/rescaled_final/2134_rv.mp4	0.0	110.07266783714294	0.9916231632232666
18	89.07461905479431	pulse	0	t		16.0	2.5	/experiments/AOT/AOT_stimuli/rescaled_final/2134_rv.mp4	0.0	111.05615305900574	
18	89.08275699615479	movie	1		246	16.0	2.5	/experiments/AOT/AOT_stimuli/rescaled_final/2134_rv.mp4	0.0	111.06429100036621	2.5083279609680176
18	90.67436289787292	pulse	1	t		16.0	2.5	/experiments/AOT/AOT_stimuli/rescaled_final/2134_rv.mp4	0.0	112.65589690208435	
18	91.5910849571228	fix_post	2		12	16.0	2.5	/experiments/AOT/AOT_stimuli/rescaled_final/2134_rv.mp4	0.0	113.57261896133423	0.10004210472106934
19	91.69112706184387	fix_pre	0		120	17.0	2.5	/experiments/AOT/AOT_stimuli/rescaled_final/1886_rv.mp4	0.0	113.6726610660553	0.9999918937683105
19	92.27464199066162	pulse	0	t		17.0	2.5	/experiments/AOT/AOT_stimuli/rescaled_final/1886_rv.mp4	0.0	114.25617599487305	
19	92.69111895561218	movie	1		243	17.0	2.5	/experiments/AOT/AOT_stimuli/rescaled_final/1886_rv.mp4	0.0	114.67265295982361	2.5000410079956055
19	93.87469792366028	pulse	1	t		17.0	2.5	/experiments/AOT/AOT_stimuli/rescaled_final/1886_rv.mp4	0.0	115.8562319278717	
19	95.19115996360779	fix_post	2		12	17.0	2.5	/experiments/AOT/AOT_stimuli/rescaled_final/1886_rv.mp4	0.0	117.17269396781921	0.099945068359375
20	95.29110503196716	fix_pre	0		120	18.0	2.5	/experiments/AOT/AOT_stimuli/rescaled_final/1178_rv.mp4	0.0	117.27263903617859	0.9999449253082275
20	95.47460198402405	pulse	0	t		18.0	2.5	/experiments/AOT/AOT_stimuli/rescaled_final/1178_rv.mp4	0.0	117.45613598823547	
20	96.29104995727539	movie	1		243	18.0	2.5	/experiments/AOT/AOT_stimuli/rescaled_final/1178_rv.mp4	0.0	118.27258396148682	2.4996581077575684
20	97.0745689868927	pulse	1	t		18.0	2.5	/experiments/AOT/AOT_stimuli/rescaled_final/1178_rv.mp4	0.0	119.05610299110413	
20	98.68295693397522	pulse	1	t		18.0	2.5	/experiments/AOT/AOT_stimuli/rescaled_final/1178_rv.mp4	0.0	120.66449093818665	
20	98.79070806503296	fix_post	2		12	18.0	2.5	/experiments/AOT/AOT_stimuli/rescaled_final/1178_rv.mp4	0.0	120.77224206924438	0.10032176971435547
21	98.89102983474731	fix_pre	0		120	19.0	2.5	blank	1.0	120.87256383895874	1.0000481605529785
21	99.8910779953003	movie	1		300	19.0	2.5	blank	1.0	121.87261199951172	2.500148057937622
21	100.2745840549469	pulse	1	t		19.0	2.5	blank	1.0	122.25611805915833	
21	101.87450695037842	pulse	1	t		19.0	2.5	blank	1.0	123.85604095458984	
21	102.39122605323792	fix_post	2		12	19.0	2.5	blank	1.0	124.37276005744934	0.09987783432006836
22	102.49110388755798	fix_pre	0		119	20.0	2.5	/experiments/AOT/AOT_stimuli/rescaled_final/1449_rv.mp4	0.0	124.47263789176941	0.9916019439697266
22	103.47454404830933	pulse	0	t		20.0	2.5	/experiments/AOT/AOT_stimuli/rescaled_final/1449_rv.mp4	0.0	125.45607805252075	
22	103.48270583152771	movie	1		248	20.0	2.5	/experiments/AOT/AOT_stimuli/rescaled_final/1449_rv.mp4	0.0	125.46423983573914	2.508378028869629
22	105.0743179321289	pulse	1	t		20.0	2.5	/experiments/AOT/AOT_stimuli/rescaled_final/1449_rv.mp4	0.0	127.05585193634033	
22	105.99108386039734	fix_post	2		12	20.0	2.5	/experiments/AOT/AOT_stimuli/rescaled_final/1449_rv.mp4	0.0	127.97261786460876	0.09998917579650879
23	106.09107303619385	fix_pre	0		120	21.0	2.5	/experiments/AOT/AOT_stimuli/rescaled_final/1347_rv.mp4	0.0	128.07260704040527	0.9999268054962158
23	106.67462301254272	pulse	0	t		21.0	2.5	/experiments/AOT/AOT_stimuli/rescaled_final/1347_rv.mp4	0.0	128.65615701675415	
23	107.09099984169006	movie	1		246	21.0	2.5	/experiments/AOT/AOT_stimuli/rescaled_final/1347_rv.mp4	0.0	129.0725338459015	2.5000979900360107
23	108.27462005615234	pulse	1	t		21.0	2.5	/experiments/AOT/AOT_stimuli/rescaled_final/1347_rv.mp4	0.0	130.25615406036377	
23	109.59109783172607	fix_post	2		12	21.0	2.5	/experiments/AOT/AOT_stimuli/rescaled_final/1347_rv.mp4	0.0	131.5726318359375	0.10008001327514648
24	109.69117784500122	fix_pre	0		120	22.0	2.5	/experiments/AOT/AOT_stimuli/rescaled_final/0314_rv.mp4	0.0	131.67271184921265	0.9999251365661621
24	109.8745949268341	pulse	0	t		22.0	2.5	/experiments/AOT/AOT_stimuli/rescaled_final/0314_rv.mp4	0.0	131.85612893104553	
24	110.69110298156738	movie	1		246	22.0	2.5	/experiments/AOT/AOT_stimuli/rescaled_final/0314_rv.mp4	0.0	132.6726369857788	2.499969959259033
24	111.4745409488678	pulse	1	t		22.0	2.5	/experiments/AOT/AOT_stimuli/rescaled_final/0314_rv.mp4	0.0	133.45607495307922	
24	113.08297300338745	pulse	1	t		22.0	2.5	/experiments/AOT/AOT_stimuli/rescaled_final/0314_rv.mp4	0.0	135.06450700759888	
24	113.19107294082642	fix_post	2		12	22.0	2.5	/experiments/AOT/AOT_stimuli/rescaled_final/0314_rv.mp4	0.0	135.17260694503784	0.1000070571899414
25	113.29107999801636	fix_pre	0		120	23.0	2.5	/experiments/AOT/AOT_stimuli/rescaled_final/0699_fw.mp4	0.0	135.27261400222778	0.9999790191650391
25	114.2910590171814	movie	1		246	23.0	2.5	/experiments/AOT/AOT_stimuli/rescaled_final/0699_fw.mp4	0.0	136.27259302139282	2.4995498657226562
25	114.67463803291321	pulse	1	t		23.0	2.5	/experiments/AOT/AOT_stimuli/rescaled_final/0699_fw.mp4	0.0	136.65617203712463	
25	116.27557897567749	pulse	1	t		23.0	2.5	/experiments/AOT/AOT_stimuli/rescaled_final/0699_fw.mp4	0.0	138.25711297988892	
25	116.79060888290405	fix_post	2		12	23.0	2.5	/experiments/AOT/AOT_stimuli/rescaled_final/0699_fw.mp4	0.0	138.77214288711548	0.10050010681152344
26	116.89110898971558	fix_pre	0		119	24.0	2.5	/experiments/AOT/AOT_stimuli/rescaled_final/2158_fw.mp4	0.0	138.872642993927	0.9914920330047607
26	117.87446188926697	pulse	0	t		24.0	2.5	/experiments/AOT/AOT_stimuli/rescaled_final/2158_fw.mp4	0.0	139.8559958934784	
26	117.88260102272034	movie	1		244	24.0	2.5	/experiments/AOT/AOT_stimuli/rescaled_final/2158_fw.mp4	0.0	139.86413502693176	2.5083389282226562
26	119.47474789619446	pulse	1	t		24.0	2.5	/experiments/AOT/AOT_stimuli/rescaled_final/2158_fw.mp4	0.0	141.45628190040588	
26	120.390939950943	fix_post	2		12	24.0	2.5	/experiments/AOT/AOT_stimuli/rescaled_final/2158_fw.mp4	0.0	142.37247395515442	0.10001993179321289
27	120.4909598827362	fix_pre	0		120	25.0	2.5	/experiments/AOT/AOT_stimuli/rescaled_final/1350_fw.mp4	0.0	142.47249388694763	1.0000519752502441
27	121.07444405555725	pulse	0	t		25.0	2.5	/experiments/AOT/AOT_stimuli/rescaled_final/1350_fw.mp4	0.0	143.05597805976868	
27	121.49101185798645	movie	1		244	25.0	2.5	/experiments/AOT/AOT_stimuli/rescaled_final/1350_fw.mp4	0.0	143.47254586219788	2.5000131130218506
27	122.67448782920837	pulse	1	t		25.0	2.5	/experiments/AOT/AOT_stimuli/rescaled_final/1350_fw.mp4	0.0	144.6560218334198	
27	123.9910249710083	fix_post	2		12	25.0	2.5	/experiments/AOT/AOT_stimuli/rescaled_final/1350_fw.mp4	0.0	145.97255897521973	0.09993886947631836
28	124.09096384048462	fix_pre	0		120	26.0	2.5	blank	1.0	146.07249784469604	0.9999840259552002
28	124.27463603019714	pulse	0	t		26.0	2.5	blank	1.0	146.25617003440857	
28	125.09094786643982	movie	1		300	26.0	2.5	blank	1.0	147.07248187065125	2.5000181198120117
28	125.87457299232483	pulse	1	t		26.0	2.5	blank	1.0	147.85610699653625	
28	127.47430992126465	pulse	1	t		26.0	2.5	blank	1.0	149.45584392547607	
28	127.59096598625183	fix_post	2		12	26.0	2.5	blank	1.0	149.57249999046326	0.09990692138671875
29	127.69087290763855	fix_pre	0		120	27.0	2.5	/experiments/AOT/AOT_stimuli/rescaled_final/0836_fw.mp4	0.0	149.67240691184998	1.000128984451294
29	128.69100189208984	movie	1		244	27.0	2.5	/experiments/AOT/AOT_stimuli/rescaled_final/0836_fw.mp4	0.0	150.67253589630127	2.499983072280884
29	129.07504391670227	pulse	1	t		27.0	2.5	/experiments/AOT/AOT_stimuli/rescaled_final/0836_fw.mp4	0.0	151.0565779209137	
29	130.6745250225067	pulse	1	t		27.0	2.5	/experiments/AOT/AOT_stimuli/rescaled_final/0836_fw.mp4	0.0	152.65605902671814	
29	131.19098496437073	fix_post	2		12	27.0	2.5	/experiments/AOT/AOT_stimuli/rescaled_final/0836_fw.mp4	0.0	153.17251896858215	0.1000518798828125
30	131.29103684425354	fix_pre	0		119	28.0	2.5	/experiments/AOT/AOT_stimuli/rescaled_final/2062_fw.mp4	0.0	153.27257084846497	0.9915821552276611
30	132.27439403533936	pulse	0	t		28.0	2.5	/experiments/AOT/AOT_stimuli/rescaled_final/2062_fw.mp4	0.0	154.25592803955078	
30	132.2826189994812	movie	1		246	28.0	2.5	/experiments/AOT/AOT_stimuli/rescaled_final/2062_fw.mp4	0.0	154.26415300369263	2.508017063140869
30	133.8824188709259	pulse	1	t		28.0	2.5	/experiments/AOT/AOT_stimuli/rescaled_final/2062_fw.mp4	0.0	155.86395287513733	
30	134.79063606262207	fix_post	2		12	28.0	2.5	/experiments/AOT/AOT_stimuli/rescaled_final/2062_fw.mp4	0.0	156.7721700668335	0.10044980049133301
31	134.8910858631134	fix_pre	0		120	29.0	2.5	/experiments/AOT/AOT_stimuli/rescaled_final/2075_fw.mp4	0.0	156.87261986732483	0.9997429847717285
31	135.47469902038574	pulse	0	t		29.0	2.5	/experiments/AOT/AOT_stimuli/rescaled_final/2075_fw.mp4	0.0	157.45623302459717	
31	135.89082884788513	movie	1		244	29.0	2.5	/experiments/AOT/AOT_stimuli/rescaled_final/2075_fw.mp4	0.0	157.87236285209656	2.500028133392334
31	137.0744218826294	pulse	1	t		29.0	2.5	/experiments/AOT/AOT_stimuli/rescaled_final/2075_fw.mp4	0.0	159.05595588684082	
31	138.39085698127747	fix_post	2		12	29.0	2.5	/experiments/AOT/AOT_stimuli/rescaled_final/2075_fw.mp4	0.0	160.3723909854889	0.10002589225769043
32	138.49088287353516	fix_pre	0		120	30.0	2.5	/experiments/AOT/AOT_stimuli/rescaled_final/1816_rv.mp4	0.0	160.47241687774658	0.9999439716339111
32	138.6743619441986	pulse	0	t		30.0	2.5	/experiments/AOT/AOT_stimuli/rescaled_final/1816_rv.mp4	0.0	160.65589594841003	
32	139.49082684516907	movie	1		243	30.0	2.5	/experiments/AOT/AOT_stimuli/rescaled_final/1816_rv.mp4	0.0	161.4723608493805	2.5000181198120117
32	140.27445793151855	pulse	1	t		30.0	2.5	/experiments/AOT/AOT_stimuli/rescaled_final/1816_rv.mp4	0.0	162.25599193572998	
32	141.88282084465027	pulse	1	t		30.0	2.5	/experiments/AOT/AOT_stimuli/rescaled_final/1816_rv.mp4	0.0	163.8643548488617	
32	141.99084496498108	fix_post	2		12	30.0	2.5	/experiments/AOT/AOT_stimuli/rescaled_final/1816_rv.mp4	0.0	163.9723789691925	0.10002994537353516
33	142.09087491035461	fix_pre	0		120	31.0	2.5	/experiments/AOT/AOT_stimuli/rescaled_final/1624_fw.mp4	0.0	164.07240891456604	0.9999570846557617
33	143.09083199501038	movie	1		245	31.0	2.5	/experiments/AOT/AOT_stimuli/rescaled_final/1624_fw.mp4	0.0	165.0723659992218	2.5000040531158447
33	143.47426104545593	pulse	1	t		31.0	2.5	/experiments/AOT/AOT_stimuli/rescaled_final/1624_fw.mp4	0.0	165.45579504966736	
33	145.07435584068298	pulse	1	t		31.0	2.5	/experiments/AOT/AOT_stimuli/rescaled_final/1624_fw.mp4	0.0	167.0558898448944	
33	145.59083604812622	fix_post	2		12	31.0	2.5	/experiments/AOT/AOT_stimuli/rescaled_final/1624_fw.mp4	0.0	167.57237005233765	0.10004401206970215
34	145.69088006019592	fix_pre	0		119	32.0	2.5	/experiments/AOT/AOT_stimuli/rescaled_final/1854_rv.mp4	0.0	167.67241406440735	0.9916808605194092
34	146.67437505722046	pulse	0	t		32.0	2.5	/experiments/AOT/AOT_stimuli/rescaled_final/1854_rv.mp4	0.0	168.65590906143188	
34	146.68256092071533	movie	1		244	32.0	2.5	/experiments/AOT/AOT_stimuli/rescaled_final/1854_rv.mp4	0.0	168.66409492492676	2.508289098739624
34	148.28275299072266	pulse	1	t		32.0	2.5	/experiments/AOT/AOT_stimuli/rescaled_final/1854_rv.mp4	0.0	170.26428699493408	
34	149.19085001945496	fix_post	2		12	32.0	2.5	/experiments/AOT/AOT_stimuli/rescaled_final/1854_rv.mp4	0.0	171.17238402366638	0.09994792938232422
35	149.29079794883728	fix_pre	0		120	33.0	2.5	/experiments/AOT/AOT_stimuli/rescaled_final/0066_fw.mp4	0.0	171.2723319530487	1.0000839233398438
35	149.87517094612122	pulse	0	t		33.0	2.5	/experiments/AOT/AOT_stimuli/rescaled_final/0066_fw.mp4	0.0	171.85670495033264	
35	150.29088187217712	movie	1		246	33.0	2.5	/experiments/AOT/AOT_stimuli/rescaled_final/0066_fw.mp4	0.0	172.27241587638855	2.4999680519104004
35	151.4743800163269	pulse	1	t		33.0	2.5	/experiments/AOT/AOT_stimuli/rescaled_final/0066_fw.mp4	0.0	173.45591402053833	
35	152.79084992408752	fix_post	2		12	33.0	2.5	/experiments/AOT/AOT_stimuli/rescaled_final/0066_fw.mp4	0.0	174.77238392829895	0.0999610424041748
36	152.8908109664917	fix_pre	0		120	34.0	2.5	blank	1.0	174.87234497070312	1.0000090599060059
36	153.07431983947754	pulse	0	t		34.0	2.5	blank	1.0	175.05585384368896	
36	153.8908200263977	movie	1		300	34.0	2.5	blank	1.0	175.87235403060913	2.5000438690185547
36	154.67428398132324	pulse	1	t		34.0	2.5	blank	1.0	176.65581798553467	
36	156.2742350101471	pulse	1	t		34.0	2.5	blank	1.0	178.25576901435852	
36	156.39086389541626	fix_post	2		12	34.0	2.5	blank	1.0	178.37239789962769	0.09990906715393066
37	156.4907729625702	fix_pre	0		120	35.0	2.5	/experiments/AOT/AOT_stimuli/rescaled_final/0227_fw.mp4	0.0	178.47230696678162	1.0000438690185547
37	157.49081683158875	movie	1		244	35.0	2.5	/experiments/AOT/AOT_stimuli/rescaled_final/0227_fw.mp4	0.0	179.47235083580017	2.5000550746917725
37	157.87399291992188	pulse	1	t		35.0	2.5	/experiments/AOT/AOT_stimuli/rescaled_final/0227_fw.mp4	0.0	179.8555269241333	
37	159.4742889404297	pulse	1	t		35.0	2.5	/experiments/AOT/AOT_stimuli/rescaled_final/0227_fw.mp4	0.0	181.4558229446411	
37	159.99087190628052	fix_post	2		12	35.0	2.5	/experiments/AOT/AOT_stimuli/rescaled_final/0227_fw.mp4	0.0	181.97240591049194	0.09993696212768555
38	160.0908088684082	fix_pre	0		119	36.0	2.5	/experiments/AOT/AOT_stimuli/rescaled_final/0074_rv.mp4	0.0	182.07234287261963	0.9915761947631836
38	161.07427501678467	pulse	0	t		36.0	2.5	/experiments/AOT/AOT_stimuli/rescaled_final/0074_rv.mp4	0.0	183.0558090209961	
38	161.0823850631714	movie	1		246	36.0	2.5	/experiments/AOT/AOT_stimuli/rescaled_final/0074_rv.mp4	0.0	183.0639190673828	2.5083799362182617
38	162.67406582832336	pulse	1	t		36.0	2.5	/experiments/AOT/AOT_stimuli/rescaled_final/0074_rv.mp4	0.0	184.6555998325348	
38	163.59076499938965	fix_post	2		12	36.0	2.5	/experiments/AOT/AOT_stimuli/rescaled_final/0074_rv.mp4	0.0	185.57229900360107	0.10000801086425781
39	163.6907730102539	fix_pre	0		120	37.0	2.5	/experiments/AOT/AOT_stimuli/rescaled_final/0234_rv.mp4	0.0	185.67230701446533	1.0000009536743164
39	164.27505087852478	pulse	0	t		37.0	2.5	/experiments/AOT/AOT_stimuli/rescaled_final/0234_rv.mp4	0.0	186.2565848827362	
39	164.69077396392822	movie	1		244	37.0	2.5	/experiments/AOT/AOT_stimuli/rescaled_final/0234_rv.mp4	0.0	186.67230796813965	2.499945878982544
39	165.87520790100098	pulse	1	t		37.0	2.5	/experiments/AOT/AOT_stimuli/rescaled_final/0234_rv.mp4	0.0	187.8567419052124	
39	167.19071984291077	fix_post	2		12	37.0	2.5	/experiments/AOT/AOT_stimuli/rescaled_final/0234_rv.mp4	0.0	189.1722538471222	0.09996509552001953
40	167.2906849384308	fix_pre	0		120	38.0	2.5	/experiments/AOT/AOT_stimuli/rescaled_final/0462_fw.mp4	0.0	189.2722189426422	1.0000901222229004
40	167.4751570224762	pulse	0	t		38.0	2.5	/experiments/AOT/AOT_stimuli/rescaled_final/0462_fw.mp4	0.0	189.45669102668762	
40	168.2907750606537	movie	1		244	38.0	2.5	/experiments/AOT/AOT_stimuli/rescaled_final/0462_fw.mp4	0.0	190.2723090648651	2.499908924102783
40	169.0743670463562	pulse	1	t		38.0	2.5	/experiments/AOT/AOT_stimuli/rescaled_final/0462_fw.mp4	0.0	191.05590105056763	
40	170.6742298603058	pulse	1	t		38.0	2.5	/experiments/AOT/AOT_stimuli/rescaled_final/0462_fw.mp4	0.0	192.6557638645172	
40	170.79068398475647	fix_post	2		12	38.0	2.5	/experiments/AOT/AOT_stimuli/rescaled_final/0462_fw.mp4	0.0	192.7722179889679	0.10003185272216797
41	170.89071583747864	fix_pre	0		120	39.0	2.5	/experiments/AOT/AOT_stimuli/rescaled_final/1095_rv.mp4	0.0	192.87224984169006	1.0000770092010498
41	171.8907928466797	movie	1		247	39.0	2.5	/experiments/AOT/AOT_stimuli/rescaled_final/1095_rv.mp4	0.0	193.8723268508911	2.4999539852142334
41	172.27495288848877	pulse	1	t		39.0	2.5	/experiments/AOT/AOT_stimuli/rescaled_final/1095_rv.mp4	0.0	194.2564868927002	
41	173.87419486045837	pulse	1	t		39.0	2.5	/experiments/AOT/AOT_stimuli/rescaled_final/1095_rv.mp4	0.0	195.8557288646698	
41	174.39074683189392	fix_post	2		12	39.0	2.5	/experiments/AOT/AOT_stimuli/rescaled_final/1095_rv.mp4	0.0	196.37228083610535	0.09988117218017578
42	174.4906280040741	fix_pre	0		119	40.0	2.5	blank	1.0	196.47216200828552	0.9916658401489258
42	175.47413301467896	pulse	0	t		40.0	2.5	blank	1.0	197.45566701889038	
42	175.48229384422302	movie	1		301	40.0	2.5	blank	1.0	197.46382784843445	2.5083630084991455
42	177.07414889335632	pulse	1	t		40.0	2.5	blank	1.0	199.05568289756775	
42	177.99065685272217	fix_post	2		12	40.0	2.5	blank	1.0	199.9721908569336	0.10004305839538574
43	178.09069991111755	fix_pre	0		120	41.0	2.5	/experiments/AOT/AOT_stimuli/rescaled_final/0070_rv.mp4	0.0	200.07223391532898	0.9999759197235107
43	178.674222946167	pulse	0	t		41.0	2.5	/experiments/AOT/AOT_stimuli/rescaled_final/0070_rv.mp4	0.0	200.65575695037842	
43	179.09067583084106	movie	1		247	41.0	2.5	/experiments/AOT/AOT_stimuli/rescaled_final/0070_rv.mp4	0.0	201.0722098350525	2.4995601177215576
43	180.27522802352905	pulse	1	t		41.0	2.5	/experiments/AOT/AOT_stimuli/rescaled_final/0070_rv.mp4	0.0	202.25676202774048	
43	181.59023594856262	fix_post	2		12	41.0	2.5	/experiments/AOT/AOT_stimuli/rescaled_final/0070_rv.mp4	0.0	203.57176995277405	0.10052204132080078
44	181.69075798988342	fix_pre	0		120	42.0	2.5	/experiments/AOT/AOT_stimuli/rescaled_final/1347_fw.mp4	0.0	203.67229199409485	0.9999048709869385
44	181.87493300437927	pulse	0	t		42.0	2.5	/experiments/AOT/AOT_stimuli/rescaled_final/1347_fw.mp4	0.0	203.8564670085907	
44	182.69066286087036	movie	1		244	42.0	2.5	/experiments/AOT/AOT_stimuli/rescaled_final/1347_fw.mp4	0.0	204.6721968650818	2.4999890327453613
44	183.47508001327515	pulse	1	t		42.0	2.5	/experiments/AOT/AOT_stimuli/rescaled_final/1347_fw.mp4	0.0	205.45661401748657	
44	185.078959941864	pulse	1	t		42.0	2.5	/experiments/AOT/AOT_stimuli/rescaled_final/1347_fw.mp4	0.0	207.06049394607544	
44	185.19065189361572	fix_post	2		12	42.0	2.5	/experiments/AOT/AOT_stimuli/rescaled_final/1347_fw.mp4	0.0	207.17218589782715	0.10003995895385742
45	185.29069185256958	fix_pre	0		120	43.0	2.5	/experiments/AOT/AOT_stimuli/rescaled_final/1016_rv.mp4	0.0	207.272225856781	0.9999420642852783
45	186.29063391685486	movie	1		244	43.0	2.5	/experiments/AOT/AOT_stimuli/rescaled_final/1016_rv.mp4	0.0	208.27216792106628	2.499603033065796
45	186.6751070022583	pulse	1	t		43.0	2.5	/experiments/AOT/AOT_stimuli/rescaled_final/1016_rv.mp4	0.0	208.65664100646973	
45	188.2741630077362	pulse	1	t		43.0	2.5	/experiments/AOT/AOT_stimuli/rescaled_final/1016_rv.mp4	0.0	210.25569701194763	
45	188.79023694992065	fix_post	2		12	43.0	2.5	/experiments/AOT/AOT_stimuli/rescaled_final/1016_rv.mp4	0.0	210.77177095413208	0.09996604919433594
46	188.890202999115	fix_pre	0		120	44.0	2.5	/experiments/AOT/AOT_stimuli/rescaled_final/1425_fw.mp4	0.0	210.87173700332642	1.000241994857788
46	189.87457084655762	pulse	0	t		44.0	2.5	/experiments/AOT/AOT_stimuli/rescaled_final/1425_fw.mp4	0.0	211.85610485076904	
46	189.89044499397278	movie	1		248	44.0	2.5	/experiments/AOT/AOT_stimuli/rescaled_final/1425_fw.mp4	0.0	211.8719789981842	2.5085909366607666
46	191.47390604019165	pulse	1	t		44.0	2.5	/experiments/AOT/AOT_stimuli/rescaled_final/1425_fw.mp4	0.0	213.45544004440308	
46	192.39903593063354	fix_post	2		12	44.0	2.5	/experiments/AOT/AOT_stimuli/rescaled_final/1425_fw.mp4	0.0	214.38056993484497	0.09993290901184082
47	192.49896883964539	fix_pre	0		120	45.0	2.5	/experiments/AOT/AOT_stimuli/rescaled_final/2051_rv.mp4	0.0	214.4805028438568	1.0000321865081787
47	193.07411193847656	pulse	0	t		45.0	2.5	/experiments/AOT/AOT_stimuli/rescaled_final/2051_rv.mp4	0.0	215.055645942688	
47	193.49900102615356	movie	1		246	45.0	2.5	/experiments/AOT/AOT_stimuli/rescaled_final/2051_rv.mp4	0.0	215.480535030365	2.499941825866699
47	194.67383003234863	pulse	1	t		45.0	2.5	/experiments/AOT/AOT_stimuli/rescaled_final/2051_rv.mp4	0.0	216.65536403656006	
47	195.99894285202026	fix_post	2		12	45.0	2.5	/experiments/AOT/AOT_stimuli/rescaled_final/2051_rv.mp4	0.0	217.9804768562317	0.10004901885986328
48	196.09899187088013	fix_pre	0		120	46.0	2.5	/experiments/AOT/AOT_stimuli/rescaled_final/1242_rv.mp4	0.0	218.08052587509155	0.9999079704284668
48	196.27482795715332	pulse	0	t		46.0	2.5	/experiments/AOT/AOT_stimuli/rescaled_final/1242_rv.mp4	0.0	218.25636196136475	
48	197.0988998413086	movie	1		248	46.0	2.5	/experiments/AOT/AOT_stimuli/rescaled_final/1242_rv.mp4	0.0	219.08043384552002	2.5000040531158447
48	197.8748550415039	pulse	1	t		46.0	2.5	/experiments/AOT/AOT_stimuli/rescaled_final/1242_rv.mp4	0.0	219.85638904571533	
48	199.47842597961426	pulse	1	t		46.0	2.5	/experiments/AOT/AOT_stimuli/rescaled_final/1242_rv.mp4	0.0	221.45995998382568	
48	199.59890389442444	fix_post	2		12	46.0	2.5	/experiments/AOT/AOT_stimuli/rescaled_final/1242_rv.mp4	0.0	221.58043789863586	0.0999901294708252
49	199.69889402389526	fix_pre	0		120	47.0	2.5	/experiments/AOT/AOT_stimuli/rescaled_final/1431_fw.mp4	0.0	221.6804280281067	1.0000028610229492
49	200.6988968849182	movie	1		247	47.0	2.5	/experiments/AOT/AOT_stimuli/rescaled_final/1431_fw.mp4	0.0	222.68043088912964	2.4999921321868896
49	201.08204102516174	pulse	1	t		47.0	2.5	/experiments/AOT/AOT_stimuli/rescaled_final/1431_fw.mp4	0.0	223.06357502937317	
49	202.67509984970093	pulse	1	t		47.0	2.5	/experiments/AOT/AOT_stimuli/rescaled_final/1431_fw.mp4	0.0	224.65663385391235	
49	203.1988890171051	fix_post	2		12	47.0	2.5	/experiments/AOT/AOT_stimuli/rescaled_final/1431_fw.mp4	0.0	225.18042302131653	0.1000528335571289
50	203.29894185066223	fix_pre	0		118	48.0	2.5	blank	1.0	225.28047585487366	0.9832780361175537
50	204.27406287193298	pulse	0	t		48.0	2.5	blank	1.0	226.2555968761444	
50	204.28221988677979	movie	1		301	48.0	2.5	blank	1.0	226.2637538909912	2.508308172225952
50	205.87402892112732	pulse	1	t		48.0	2.5	blank	1.0	227.85556292533875	
50	206.79052805900574	fix_post	2		12	48.0	2.5	blank	1.0	228.77206206321716	0.09999299049377441
51	206.8905210494995	fix_pre	0		120	49.0	2.5	/experiments/AOT/AOT_stimuli/rescaled_final/0299_fw.mp4	0.0	228.87205505371094	1.0000638961791992
51	207.47403383255005	pulse	0	t		49.0	2.5	/experiments/AOT/AOT_stimuli/rescaled_final/0299_fw.mp4	0.0	229.45556783676147	
51	207.8905849456787	movie	1		245	49.0	2.5	/experiments/AOT/AOT_stimuli/rescaled_final/0299_fw.mp4	0.0	229.87211894989014	2.499547004699707
51	209.07410883903503	pulse	1	t		49.0	2.5	/experiments/AOT/AOT_stimuli/rescaled_final/0299_fw.mp4	0.0	231.05564284324646	
51	210.39013195037842	fix_post	2		12	49.0	2.5	/experiments/AOT/AOT_stimuli/rescaled_final/0299_fw.mp4	0.0	232.37166595458984	0.10042810440063477
52	210.49056005477905	fix_pre	0		120	50.0	2.5	/experiments/AOT/AOT_stimuli/rescaled_final/1549_rv.mp4	0.0	232.47209405899048	0.9999368190765381
52	210.67399883270264	pulse	0	t		50.0	2.5	/experiments/AOT/AOT_stimuli/rescaled_final/1549_rv.mp4	0.0	232.65553283691406	
52	211.4904968738556	movie	1		244	50.0	2.5	/experiments/AOT/AOT_stimuli/rescaled_final/1549_rv.mp4	0.0	233.47203087806702	2.499997138977051
52	212.2749888896942	pulse	1	t		50.0	2.5	/experiments/AOT/AOT_stimuli/rescaled_final/1549_rv.mp4	0.0	234.25652289390564	
52	213.88240790367126	pulse	1	t		50.0	2.5	/experiments/AOT/AOT_stimuli/rescaled_final/1549_rv.mp4	0.0	235.8639419078827	
52	213.99049401283264	fix_post	2		12	50.0	2.5	/experiments/AOT/AOT_stimuli/rescaled_final/1549_rv.mp4	0.0	235.97202801704407	0.10001802444458008
53	214.09051203727722	fix_pre	0		120	51.0	2.5	/experiments/AOT/AOT_stimuli/rescaled_final/2010_rv.mp4	0.0	236.07204604148865	0.9999768733978271
53	215.09048891067505	movie	1		247	51.0	2.5	/experiments/AOT/AOT_stimuli/rescaled_final/2010_rv.mp4	0.0	237.07202291488647	2.500127077102661
53	215.48241591453552	pulse	1	t		51.0	2.5	/experiments/AOT/AOT_stimuli/rescaled_final/2010_rv.mp4	0.0	237.46394991874695	
53	217.07493805885315	pulse	1	t		51.0	2.5	/experiments/AOT/AOT_stimuli/rescaled_final/2010_rv.mp4	0.0	239.05647206306458	
53	217.5906159877777	fix_post	2		12	51.0	2.5	/experiments/AOT/AOT_stimuli/rescaled_final/2010_rv.mp4	0.0	239.57214999198914	0.09984588623046875
54	217.69046187400818	fix_pre	0		120	52.0	2.5	/experiments/AOT/AOT_stimuli/rescaled_final/0941_fw.mp4	0.0	239.6719958782196	0.9999740123748779
54	218.6748239994049	pulse	0	t		52.0	2.5	/experiments/AOT/AOT_stimuli/rescaled_final/0941_fw.mp4	0.0	240.65635800361633	
54	218.69043588638306	movie	1		248	52.0	2.5	/experiments/AOT/AOT_stimuli/rescaled_final/0941_fw.mp4	0.0	240.67196989059448	2.5083889961242676
54	220.27407789230347	pulse	1	t		52.0	2.5	/experiments/AOT/AOT_stimuli/rescaled_final/0941_fw.mp4	0.0	242.2556118965149	
54	221.19882488250732	fix_post	2		12	52.0	2.5	/experiments/AOT/AOT_stimuli/rescaled_final/0941_fw.mp4	0.0	243.18035888671875	0.1000821590423584
55	221.29890704154968	fix_pre	0		120	53.0	2.5	/experiments/AOT/AOT_stimuli/rescaled_final/1174_rv.mp4	0.0	243.2804410457611	0.9999449253082275
55	221.8747489452362	pulse	0	t		53.0	2.5	/experiments/AOT/AOT_stimuli/rescaled_final/1174_rv.mp4	0.0	243.85628294944763	
55	222.2988519668579	movie	1		245	53.0	2.5	/experiments/AOT/AOT_stimuli/rescaled_final/1174_rv.mp4	0.0	244.28038597106934	2.4999680519104004
55	223.4824059009552	pulse	1	t		53.0	2.5	/experiments/AOT/AOT_stimuli/rescaled_final/1174_rv.mp4	0.0	245.46393990516663	
55	224.7988200187683	fix_post	2		12	53.0	2.5	/experiments/AOT/AOT_stimuli/rescaled_final/1174_rv.mp4	0.0	246.78035402297974	0.0999298095703125
56	224.89874982833862	fix_pre	0		120	54.0	2.5	/experiments/AOT/AOT_stimuli/rescaled_final/0026_fw.mp4	0.0	246.88028383255005	1.0000720024108887
56	225.0739438533783	pulse	0	t		54.0	2.5	/experiments/AOT/AOT_stimuli/rescaled_final/0026_fw.mp4	0.0	247.05547785758972	
56	225.8988218307495	movie	1		246	54.0	2.5	/experiments/AOT/AOT_stimuli/rescaled_final/0026_fw.mp4	0.0	247.88035583496094	2.4999771118164062
56	226.67390704154968	pulse	1	t		54.0	2.5	/experiments/AOT/AOT_stimuli/rescaled_final/0026_fw.mp4	0.0	248.6554410457611	
56	228.27840995788574	pulse	1	t		54.0	2.5	/experiments/AOT/AOT_stimuli/rescaled_final/0026_fw.mp4	0.0	250.25994396209717	
56	228.39879894256592	fix_post	2		12	54.0	2.5	/experiments/AOT/AOT_stimuli/rescaled_final/0026_fw.mp4	0.0	250.38033294677734	0.09993696212768555
57	228.4987359046936	fix_pre	0		120	55.0	2.5	/experiments/AOT/AOT_stimuli/rescaled_final/0659_rv.mp4	0.0	250.48026990890503	1.000054121017456
57	229.49879002571106	movie	1		245	55.0	2.5	/experiments/AOT/AOT_stimuli/rescaled_final/0659_rv.mp4	0.0	251.48032402992249	2.4999918937683105
57	229.88199496269226	pulse	1	t		55.0	2.5	/experiments/AOT/AOT_stimuli/rescaled_final/0659_rv.mp4	0.0	251.8635289669037	
57	231.47492289543152	pulse	1	t		55.0	2.5	/experiments/AOT/AOT_stimuli/rescaled_final/0659_rv.mp4	0.0	253.45645689964294	
57	231.99878191947937	fix_post	2		12	55.0	2.5	/experiments/AOT/AOT_stimuli/rescaled_final/0659_rv.mp4	0.0	253.9803159236908	0.10004210472106934
58	232.09882402420044	fix_pre	0		119	56.0	2.5	blank	1.0	254.08035802841187	0.9916558265686035
58	233.07471299171448	pulse	0	t		56.0	2.5	blank	1.0	255.0562469959259	
58	233.09047985076904	movie	1		301	56.0	2.5	blank	1.0	255.07201385498047	2.50822114944458
58	234.6746699810028	pulse	1	t		56.0	2.5	blank	1.0	256.65620398521423	
58	235.59870100021362	fix_post	2		12	56.0	2.5	blank	1.0	257.58023500442505	0.10001587867736816
59	235.698716878891	fix_pre	0		120	57.0	2.5	/experiments/AOT/AOT_stimuli/rescaled_final/1926_rv.mp4	0.0	257.6802508831024	1.0000150203704834
59	236.27477383613586	pulse	0	t		57.0	2.5	/experiments/AOT/AOT_stimuli/rescaled_final/1926_rv.mp4	0.0	258.2563078403473	
59	236.69873189926147	movie	1		246	57.0	2.5	/experiments/AOT/AOT_stimuli/rescaled_final/1926_rv.mp4	0.0	258.6802659034729	2.4999611377716064
59	237.8823049068451	pulse	1	t		57.0	2.5	/experiments/AOT/AOT_stimuli/rescaled_final/1926_rv.mp4	0.0	259.8638389110565	
59	239.19869303703308	fix_post	2		12	57.0	2.5	/experiments/AOT/AOT_stimuli/rescaled_final/1926_rv.mp4	0.0	261.1802270412445	0.10006880760192871
60	239.298761844635	fix_pre	0		120	58.0	2.5	/experiments/AOT/AOT_stimuli/rescaled_final/0828_fw.mp4	0.0	261.28029584884644	0.9999501705169678
60	239.473886013031	pulse	0	t		58.0	2.5	/experiments/AOT/AOT_stimuli/rescaled_final/0828_fw.mp4	0.0	261.45542001724243	
60	240.29871201515198	movie	1		244	58.0	2.5	/experiments/AOT/AOT_stimuli/rescaled_final/0828_fw.mp4	0.0	262.2802460193634	2.5000360012054443
60	241.07389283180237	pulse	1	t		58.0	2.5	/experiments/AOT/AOT_stimuli/rescaled_final/0828_fw.mp4	0.0	263.0554268360138	
60	242.6738579273224	pulse	1	t		58.0	2.5	/experiments/AOT/AOT_stimuli/rescaled_final/0828_fw.mp4	0.0	264.6553919315338	
60	242.79874801635742	fix_post	2		12	58.0	2.5	/experiments/AOT/AOT_stimuli/rescaled_final/0828_fw.mp4	0.0	264.78028202056885	0.09997797012329102
61	242.8987259864807	fix_pre	0		120	59.0	2.5	/experiments/AOT/AOT_stimuli/rescaled_final/0286_fw.mp4	0.0	264.88025999069214	1.0000598430633545
61	243.89878582954407	movie	1		246	59.0	2.5	/experiments/AOT/AOT_stimuli/rescaled_final/0286_fw.mp4	0.0	265.8803198337555	2.4996840953826904
61	244.28130197525024	pulse	1	t		59.0	2.5	/experiments/AOT/AOT_stimuli/rescaled_final/0286_fw.mp4	0.0	266.26283597946167	
61	245.88182401657104	pulse	1	t		59.0	2.5	/experiments/AOT/AOT_stimuli/rescaled_final/0286_fw.mp4	0.0	267.86335802078247	
61	246.39846992492676	fix_post	2		12	59.0	2.5	/experiments/AOT/AOT_stimuli/rescaled_final/0286_fw.mp4	0.0	268.3800039291382	0.10042905807495117
62	246.4988989830017	fix_pre	0		119	60.0	2.5	/experiments/AOT/AOT_stimuli/rescaled_final/1523_rv.mp4	0.0	268.48043298721313	0.9912960529327393
62	247.4747760295868	pulse	0	t		60.0	2.5	/experiments/AOT/AOT_stimuli/rescaled_final/1523_rv.mp4	0.0	269.4563100337982	
62	247.49019503593445	movie	1		246	60.0	2.5	/experiments/AOT/AOT_stimuli/rescaled_final/1523_rv.mp4	0.0	269.4717290401459	2.5081980228424072
62	249.08183693885803	pulse	1	t		60.0	2.5	/experiments/AOT/AOT_stimuli/rescaled_final/1523_rv.mp4	0.0	271.06337094306946	
62	249.99839305877686	fix_post	2		12	60.0	2.5	/experiments/AOT/AOT_stimuli/rescaled_final/1523_rv.mp4	0.0	271.9799270629883	0.10027289390563965
63	250.0986659526825	fix_pre	0		120	61.0	2.5	/experiments/AOT/AOT_stimuli/rescaled_final/1879_rv.mp4	0.0	272.0801999568939	1.0001239776611328
63	250.67461800575256	pulse	0	t		61.0	2.5	/experiments/AOT/AOT_stimuli/rescaled_final/1879_rv.mp4	0.0	272.656152009964	
63	251.09878993034363	movie	1		245	61.0	2.5	/experiments/AOT/AOT_stimuli/rescaled_final/1879_rv.mp4	0.0	273.08032393455505	2.4998819828033447
63	252.28214597702026	pulse	1	t		61.0	2.5	/experiments/AOT/AOT_stimuli/rescaled_final/1879_rv.mp4	0.0	274.2636799812317	
63	253.59867191314697	fix_post	2		12	61.0	2.5	/experiments/AOT/AOT_stimuli/rescaled_final/1879_rv.mp4	0.0	275.5802059173584	0.09994101524353027
64	253.6986129283905	fix_pre	0		120	62.0	2.5	blank	1.0	275.68014693260193	1.000049114227295
64	253.8745059967041	pulse	0	t		62.0	2.5	blank	1.0	275.8560400009155	
64	254.6986620426178	movie	1		300	62.0	2.5	blank	1.0	276.6801960468292	2.499884843826294
64	255.47458696365356	pulse	1	t		62.0	2.5	blank	1.0	277.456120967865	
64	257.07379698753357	pulse	1	t		62.0	2.5	blank	1.0	279.055330991745	
64	257.1985468864441	fix_post	2		12	62.0	2.5	blank	1.0	279.1800808906555	0.0997171401977539
65	257.29826402664185	fix_pre	0		120	63.0	2.5	/experiments/AOT/AOT_stimuli/rescaled_final/2164_fw.mp4	0.0	279.27979803085327	1.0003418922424316
65	258.2986059188843	movie	1		245	63.0	2.5	/experiments/AOT/AOT_stimuli/rescaled_final/2164_fw.mp4	0.0	280.2801399230957	2.499993085861206
65	258.67375588417053	pulse	1	t		63.0	2.5	/experiments/AOT/AOT_stimuli/rescaled_final/2164_fw.mp4	0.0	280.65528988838196	
65	260.27474904060364	pulse	1	t		63.0	2.5	/experiments/AOT/AOT_stimuli/rescaled_final/2164_fw.mp4	0.0	282.25628304481506	
65	260.7985990047455	fix_post	2		12	63.0	2.5	/experiments/AOT/AOT_stimuli/rescaled_final/2164_fw.mp4	0.0	282.7801330089569	0.10001802444458008
66	260.89861702919006	fix_pre	0		119	64.0	2.5	/experiments/AOT/AOT_stimuli/rescaled_final/2051_rv.mp4	0.0	282.8801510334015	0.9916198253631592
66	261.8746180534363	pulse	0	t		64.0	2.5	/experiments/AOT/AOT_stimuli/rescaled_final/2051_rv.mp4	0.0	283.8561520576477	
66	261.8902368545532	movie	1		247	64.0	2.5	/experiments/AOT/AOT_stimuli/rescaled_final/2051_rv.mp4	0.0	283.87177085876465	2.5083701610565186
66	263.4822418689728	pulse	1	t		64.0	2.5	/experiments/AOT/AOT_stimuli/rescaled_final/2051_rv.mp4	0.0	285.4637758731842	
66	264.39860701560974	fix_post	2		12	64.0	2.5	/experiments/AOT/AOT_stimuli/rescaled_final/2051_rv.mp4	0.0	286.38014101982117	0.0999610424041748
67	264.4985680580139	fix_pre	0		120	65.0	2.5	/experiments/AOT/AOT_stimuli/rescaled_final/1081_fw.mp4	0.0	286.48010206222534	1.0000410079956055
67	265.07468485832214	pulse	0	t		65.0	2.5	/experiments/AOT/AOT_stimuli/rescaled_final/1081_fw.mp4	0.0	287.05621886253357	
67	265.4986090660095	movie	1		247	65.0	2.5	/experiments/AOT/AOT_stimuli/rescaled_final/1081_fw.mp4	0.0	287.48014307022095	2.4995157718658447
67	266.6823320388794	pulse	1	t		65.0	2.5	/experiments/AOT/AOT_stimuli/rescaled_final/1081_fw.mp4	0.0	288.6638660430908	
67	267.99812483787537	fix_post	2		12	65.0	2.5	/experiments/AOT/AOT_stimuli/rescaled_final/1081_fw.mp4	0.0	289.9796588420868	0.10034704208374023
68	268.0984718799591	fix_pre	0		120	66.0	2.5	/experiments/AOT/AOT_stimuli/rescaled_final/1313_fw.mp4	0.0	290.08000588417053	1.0001649856567383
68	268.2744619846344	pulse	0	t		66.0	2.5	/experiments/AOT/AOT_stimuli/rescaled_final/1313_fw.mp4	0.0	290.2559959888458	
68	269.09863686561584	movie	1		245	66.0	2.5	/experiments/AOT/AOT_stimuli/rescaled_final/1313_fw.mp4	0.0	291.08017086982727	2.4999630451202393
68	269.8746118545532	pulse	1	t		66.0	2.5	/experiments/AOT/AOT_stimuli/rescaled_final/1313_fw.mp4	0.0	291.85614585876465	
68	271.4805328845978	pulse	1	t		66.0	2.5	/experiments/AOT/AOT_stimuli/rescaled_final/1313_fw.mp4	0.0	293.4620668888092	
68	271.5985999107361	fix_post	2		12	66.0	2.5	/experiments/AOT/AOT_stimuli/rescaled_final/1313_fw.mp4	0.0	293.5801339149475	0.10000801086425781
69	271.69860792160034	fix_pre	0		120	67.0	2.5	/experiments/AOT/AOT_stimuli/rescaled_final/1396_fw.mp4	0.0	293.68014192581177	0.9999489784240723
69	272.6985569000244	movie	1		244	67.0	2.5	/experiments/AOT/AOT_stimuli/rescaled_final/1396_fw.mp4	0.0	294.68009090423584	2.499937057495117
69	273.0820848941803	pulse	1	t		67.0	2.5	/experiments/AOT/AOT_stimuli/rescaled_final/1396_fw.mp4	0.0	295.0636188983917	
69	274.6737208366394	pulse	1	t		67.0	2.5	/experiments/AOT/AOT_stimuli/rescaled_final/1396_fw.mp4	0.0	296.65525484085083	
69	275.19849395751953	fix_post	2		12	67.0	2.5	/experiments/AOT/AOT_stimuli/rescaled_final/1396_fw.mp4	0.0	297.18002796173096	0.10026693344116211
70	275.2987608909607	fix_pre	0		119	68.0	2.5	blank	1.0	297.2802948951721	0.9914181232452393
70	276.28204703330994	pulse	0	t		68.0	2.5	blank	1.0	298.26358103752136	
70	276.29017901420593	movie	1		301	68.0	2.5	blank	1.0	298.27171301841736	2.5083930492401123
70	277.8820629119873	pulse	1	t		68.0	2.5	blank	1.0	299.86359691619873	
70	278.79857206344604	fix_post	2		12	68.0	2.5	blank	1.0	300.78010606765747	0.09993481636047363
71	278.8985068798065	fix_pre	0		120	69.0	2.5	/experiments/AOT/AOT_stimuli/rescaled_final/1655_rv.mp4	0.0	300.88004088401794	1.0000581741333008
71	279.4744780063629	pulse	0	t		69.0	2.5	/experiments/AOT/AOT_stimuli/rescaled_final/1655_rv.mp4	0.0	301.45601201057434	
71	279.8985650539398	movie	1		246	69.0	2.5	/experiments/AOT/AOT_stimuli/rescaled_final/1655_rv.mp4	0.0	301.88009905815125	2.499941825866699
71	281.0821330547333	pulse	1	t		69.0	2.5	/experiments/AOT/AOT_stimuli/rescaled_final/1655_rv.mp4	0.0	303.0636670589447	
71	282.3985068798065	fix_post	2		12	69.0	2.5	/experiments/AOT/AOT_stimuli/rescaled_final/1655_rv.mp4	0.0	304.38004088401794	0.09998297691345215
72	282.49848985671997	fix_pre	0		120	70.0	2.5	/experiments/AOT/AOT_stimuli/rescaled_final/1564_rv.mp4	0.0	304.4800238609314	0.9999849796295166
72	282.6744990348816	pulse	0	t		70.0	2.5	/experiments/AOT/AOT_stimuli/rescaled_final/1564_rv.mp4	0.0	304.656033039093	
72	283.4984748363495	movie	1		248	70.0	2.5	/experiments/AOT/AOT_stimuli/rescaled_final/1564_rv.mp4	0.0	305.4800088405609	2.4999852180480957
72	284.27468705177307	pulse	1	t		70.0	2.5	/experiments/AOT/AOT_stimuli/rescaled_final/1564_rv.mp4	0.0	306.2562210559845	
72	285.8780789375305	pulse	1	t		70.0	2.5	/experiments/AOT/AOT_stimuli/rescaled_final/1564_rv.mp4	0.0	307.85961294174194	
72	285.9984600543976	fix_post	2		12	70.0	2.5	/experiments/AOT/AOT_stimuli/rescaled_final/1564_rv.mp4	0.0	307.979994058609	0.10001587867736816
73	286.09847593307495	fix_pre	0		120	71.0	2.5	/experiments/AOT/AOT_stimuli/rescaled_final/2155_rv.mp4	0.0	308.0800099372864	1.0000059604644775
73	287.09848189353943	movie	1		247	71.0	2.5	/experiments/AOT/AOT_stimuli/rescaled_final/2155_rv.mp4	0.0	309.08001589775085	2.5000030994415283
73	287.48185086250305	pulse	1	t		71.0	2.5	/experiments/AOT/AOT_stimuli/rescaled_final/2155_rv.mp4	0.0	309.4633848667145	
73	289.0746760368347	pulse	1	t		71.0	2.5	/experiments/AOT/AOT_stimuli/rescaled_final/2155_rv.mp4	0.0	311.05621004104614	
73	289.59848499298096	fix_post	2		12	71.0	2.5	/experiments/AOT/AOT_stimuli/rescaled_final/2155_rv.mp4	0.0	311.5800189971924	0.09993505477905273
74	289.69842004776	fix_pre	0		119	72.0	2.5	/experiments/AOT/AOT_stimuli/rescaled_final/1531_fw.mp4	0.0	311.67995405197144	0.9917259216308594
74	290.67434883117676	pulse	0	t		72.0	2.5	/experiments/AOT/AOT_stimuli/rescaled_final/1531_fw.mp4	0.0	312.6558828353882	
74	290.69014596939087	movie	1		246	72.0	2.5	/experiments/AOT/AOT_stimuli/rescaled_final/1531_fw.mp4	0.0	312.6716799736023	2.5078420639038086
74	292.2816309928894	pulse	1	t		72.0	2.5	/experiments/AOT/AOT_stimuli/rescaled_final/1531_fw.mp4	0.0	314.26316499710083	
74	293.1979880332947	fix_post	2		12	72.0	2.5	/experiments/AOT/AOT_stimuli/rescaled_final/1531_fw.mp4	0.0	315.1795220375061	0.10047483444213867
75	293.2984628677368	fix_pre	0		120	73.0	2.5	/experiments/AOT/AOT_stimuli/rescaled_final/0375_fw.mp4	0.0	315.27999687194824	0.9995150566101074
75	293.88198685646057	pulse	0	t		73.0	2.5	/experiments/AOT/AOT_stimuli/rescaled_final/0375_fw.mp4	0.0	315.863520860672	
75	294.2979779243469	movie	1		245	73.0	2.5	/experiments/AOT/AOT_stimuli/rescaled_final/0375_fw.mp4	0.0	316.27951192855835	2.500486135482788
75	295.48201990127563	pulse	1	t		73.0	2.5	/experiments/AOT/AOT_stimuli/rescaled_final/0375_fw.mp4	0.0	317.46355390548706	
75	296.7984640598297	fix_post	2		12	73.0	2.5	/experiments/AOT/AOT_stimuli/rescaled_final/0375_fw.mp4	0.0	318.77999806404114	0.09995079040527344
76	296.898414850235	fix_pre	0		120	74.0	2.5	/experiments/AOT/AOT_stimuli/rescaled_final/1769_fw.mp4	0.0	318.8799488544464	0.999993085861206
76	297.07446789741516	pulse	0	t		74.0	2.5	/experiments/AOT/AOT_stimuli/rescaled_final/1769_fw.mp4	0.0	319.0560019016266	
76	297.8984079360962	movie	1		245	74.0	2.5	/experiments/AOT/AOT_stimuli/rescaled_final/1769_fw.mp4	0.0	319.8799419403076	2.5000369548797607
76	298.6744110584259	pulse	1	t		74.0	2.5	/experiments/AOT/AOT_stimuli/rescaled_final/1769_fw.mp4	0.0	320.65594506263733	
76	300.28040599823	pulse	1	t		74.0	2.5	/experiments/AOT/AOT_stimuli/rescaled_final/1769_fw.mp4	0.0	322.2619400024414	
76	300.39844489097595	fix_post	2		12	74.0	2.5	/experiments/AOT/AOT_stimuli/rescaled_final/1769_fw.mp4	0.0	322.3799788951874	0.09998512268066406
77	300.4984300136566	fix_pre	0		120	75.0	2.5	/experiments/AOT/AOT_stimuli/rescaled_final/1048_fw.mp4	0.0	322.47996401786804	0.9996700286865234
77	301.49810004234314	movie	1		244	75.0	2.5	/experiments/AOT/AOT_stimuli/rescaled_final/1048_fw.mp4	0.0	323.47963404655457	2.500450849533081
77	301.8814718723297	pulse	1	t		75.0	2.5	/experiments/AOT/AOT_stimuli/rescaled_final/1048_fw.mp4	0.0	323.86300587654114	
77	303.4747169017792	pulse	1	t		75.0	2.5	/experiments/AOT/AOT_stimuli/rescaled_final/1048_fw.mp4	0.0	325.4562509059906	
77	303.9985508918762	fix_post	2		12	75.0	2.5	/experiments/AOT/AOT_stimuli/rescaled_final/1048_fw.mp4	0.0	325.98008489608765	0.09985995292663574
78	304.09841084480286	fix_pre	0		119	76.0	2.5	blank	1.0	326.0799448490143	0.9916501045227051
78	305.07434487342834	pulse	0	t		76.0	2.5	blank	1.0	327.05587887763977	
78	305.09006094932556	movie	1		301	76.0	2.5	blank	1.0	327.071594953537	2.5083510875701904
78	306.6742899417877	pulse	1	t		76.0	2.5	blank	1.0	328.65582394599915	
78	307.59841203689575	fix_post	2		12	76.0	2.5	blank	1.0	329.5799460411072	0.0999460220336914
79	307.69835805892944	fix_pre	0		120	77.0	2.5	/experiments/AOT/AOT_stimuli/rescaled_final/1175_fw.mp4	0.0	329.67989206314087	0.9999878406524658
79	308.28187584877014	pulse	0	t		77.0	2.5	/experiments/AOT/AOT_stimuli/rescaled_final/1175_fw.mp4	0.0	330.26340985298157	
79	308.6983458995819	movie	1		247	77.0	2.5	/experiments/AOT/AOT_stimuli/rescaled_final/1175_fw.mp4	0.0	330.67987990379333	2.499979019165039
79	309.8818860054016	pulse	1	t		77.0	2.5	/experiments/AOT/AOT_stimuli/rescaled_final/1175_fw.mp4	0.0	331.86342000961304	
79	311.19832491874695	fix_post	2		12	77.0	2.5	/experiments/AOT/AOT_stimuli/rescaled_final/1175_fw.mp4	0.0	333.1798589229584	0.10002803802490234
80	311.29835295677185	fix_pre	0		120	78.0	2.5	/experiments/AOT/AOT_stimuli/rescaled_final/0910_fw.mp4	0.0	333.2798869609833	1.0000500679016113
80	311.48183393478394	pulse	0	t		78.0	2.5	/experiments/AOT/AOT_stimuli/rescaled_final/0910_fw.mp4	0.0	333.46336793899536	
80	312.29840302467346	movie	1		244	78.0	2.5	/experiments/AOT/AOT_stimuli/rescaled_final/0910_fw.mp4	0.0	334.2799370288849	2.500025987625122
80	313.08183693885803	pulse	1	t		78.0	2.5	/experiments/AOT/AOT_stimuli/rescaled_final/0910_fw.mp4	0.0	335.06337094306946	
80	314.6800320148468	pulse	1	t		78.0	2.5	/experiments/AOT/AOT_stimuli/rescaled_final/0910_fw.mp4	0.0	336.6615660190582	
80	314.7984290122986	fix_post	2		12	78.0	2.5	/experiments/AOT/AOT_stimuli/rescaled_final/0910_fw.mp4	0.0	336.77996301651	0.09984803199768066
81	314.89827704429626	fix_pre	0		120	79.0	2.5	/experiments/AOT/AOT_stimuli/rescaled_final/0998_rv.mp4	0.0	336.8798110485077	1.0001029968261719
81	315.89838004112244	movie	1		245	79.0	2.5	/experiments/AOT/AOT_stimuli/rescaled_final/0998_rv.mp4	0.0	337.87991404533386	2.499871015548706
81	316.28169083595276	pulse	1	t		79.0	2.5	/experiments/AOT/AOT_stimuli/rescaled_final/0998_rv.mp4	0.0	338.2632248401642	
81	317.87441897392273	pulse	1	t		79.0	2.5	/experiments/AOT/AOT_stimuli/rescaled_final/0998_rv.mp4	0.0	339.85595297813416	
81	318.39825105667114	fix_post	2		12	79.0	2.5	/experiments/AOT/AOT_stimuli/rescaled_final/0998_rv.mp4	0.0	340.37978506088257	0.10004377365112305
82	318.49829483032227	fix_pre	0		119	80.0	2.5	/experiments/AOT/AOT_stimuli/rescaled_final/2007_rv.mp4	0.0	340.4798288345337	0.9917252063751221
82	319.4743318557739	pulse	0	t		80.0	2.5	/experiments/AOT/AOT_stimuli/rescaled_final/2007_rv.mp4	0.0	341.45586585998535	
82	319.4900200366974	movie	1		245	80.0	2.5	/experiments/AOT/AOT_stimuli/rescaled_final/2007_rv.mp4	0.0	341.4715540409088	2.5083420276641846
82	321.08167791366577	pulse	1	t		80.0	2.5	/experiments/AOT/AOT_stimuli/rescaled_final/2007_rv.mp4	0.0	343.0632119178772	
82	321.9983620643616	fix_post	2		12	80.0	2.5	/experiments/AOT/AOT_stimuli/rescaled_final/2007_rv.mp4	0.0	343.979896068573	0.09998679161071777
83	322.0983488559723	fix_pre	0		120	81.0	2.5	/experiments/AOT/AOT_stimuli/rescaled_final/2094_fw.mp4	0.0	344.0798828601837	0.9999229907989502
83	322.6818389892578	pulse	0	t		81.0	2.5	/experiments/AOT/AOT_stimuli/rescaled_final/2094_fw.mp4	0.0	344.66337299346924	
83	323.09827184677124	movie	1		244	81.0	2.5	/experiments/AOT/AOT_stimuli/rescaled_final/2094_fw.mp4	0.0	345.07980585098267	2.50004506111145
83	324.28186988830566	pulse	1	t		81.0	2.5	/experiments/AOT/AOT_stimuli/rescaled_final/2094_fw.mp4	0.0	346.2634038925171	
83	325.5983169078827	fix_post	2		12	81.0	2.5	/experiments/AOT/AOT_stimuli/rescaled_final/2094_fw.mp4	0.0	347.5798509120941	0.10003399848937988
84	325.69835090637207	fix_pre	0		120	82.0	2.5	blank	1.0	347.6798849105835	0.9999771118164062
84	325.88180589675903	pulse	0	t		82.0	2.5	blank	1.0	347.86333990097046	
84	326.6983280181885	movie	1		300	82.0	2.5	blank	1.0	348.6798620223999	2.5000648498535156
84	327.48182797431946	pulse	1	t		82.0	2.5	blank	1.0	349.4633619785309	
84	329.0817630290985	pulse	1	t		82.0	2.5	blank	1.0	351.06329703330994	
84	329.198392868042	fix_post	2		12	82.0	2.5	blank	1.0	351.1799268722534	0.0994570255279541
85	329.29784989356995	fix_pre	0		120	83.0	2.5	/experiments/AOT/AOT_stimuli/rescaled_final/0855_fw.mp4	0.0	351.2793838977814	1.0004301071166992
85	330.29828000068665	movie	1		246	83.0	2.5	/experiments/AOT/AOT_stimuli/rescaled_final/0855_fw.mp4	0.0	352.27981400489807	2.4995498657226562
85	330.68134689331055	pulse	1	t		83.0	2.5	/experiments/AOT/AOT_stimuli/rescaled_final/0855_fw.mp4	0.0	352.662880897522	
85	332.27444195747375	pulse	1	t		83.0	2.5	/experiments/AOT/AOT_stimuli/rescaled_final/0855_fw.mp4	0.0	354.2559759616852	
85	332.7978298664093	fix_post	2		12	83.0	2.5	/experiments/AOT/AOT_stimuli/rescaled_final/0855_fw.mp4	0.0	354.7793638706207	0.10055398941040039
87	332.8983838558197	stim	0		1716					354.8799178600311	14.299851179122925
87	333.8744468688965	pulse	0	t						355.8559808731079	
87	335.4744219779968	pulse	0	t						357.45595598220825	
87	337.0743160247803	pulse	0	t						359.0558500289917	
87	338.67437386512756	pulse	0	t						360.655907869339	
87	340.28169989585876	pulse	0	t						362.2632339000702	
87	341.88170886039734	pulse	0	t						363.86324286460876	
87	343.48168897628784	pulse	0	t						365.46322298049927	
87	345.0816719532013	pulse	0	t						367.0632059574127	
87	346.68173003196716	pulse	0	t						368.6632640361786	
