trial_nr	onset	event_type	phase	response	nr_frames	movie_index	movie_duration	movie_file	blank	onset_abs	duration
0	0.16654706001281738	stim	0		1					15.696223020553589	0.008360147476196289
0	0.10575461387634277	response	0	space						15.635430574417114	
1	0.17490720748901367	stim	0		3631					15.704583168029785	30.27457356452942
1	30.434948205947876	pulse	0	t						45.96462416648865	
1	30.449480772018433	stim	1		1714					45.979156732559204	14.298682928085327
1	32.029749155044556	pulse	1	t						47.55942511558533	
1	33.62996315956116	pulse	1	t						49.15963912010193	
1	35.230265855789185	pulse	1	t						50.759941816329956	
1	36.83066177368164	pulse	1	t						52.36033773422241	
1	38.430678367614746	pulse	1	t						53.96035432815552	
1	40.03116750717163	pulse	1	t						55.5608434677124	
1	41.63115191459656	pulse	1	t						57.16082787513733	
1	43.23153305053711	pulse	1	t						58.76120901107788	
2	44.74816370010376	fix_pre	0		11	0.0	2.5	/experiments/Knapen_AOT/AOT_stimuli/rescaled_final/1065_rv.mp4	0.0	60.27783966064453	0.10830545425415039
2	44.83180809020996	pulse	0	t		0.0	2.5	/experiments/Knapen_AOT/AOT_stimuli/rescaled_final/1065_rv.mp4	0.0	60.36148405075073	
2	44.85646915435791	movie	1		274	0.0	2.5	/experiments/Knapen_AOT/AOT_stimuli/rescaled_final/1065_rv.mp4	0.0	60.38614511489868	2.492189884185791
2	46.43081760406494	pulse	1	t		0.0	2.5	/experiments/Knapen_AOT/AOT_stimuli/rescaled_final/1065_rv.mp4	0.0	61.96049356460571	
2	47.3486590385437	fix_post	2		12	0.0	2.5	/experiments/Knapen_AOT/AOT_stimuli/rescaled_final/1065_rv.mp4	0.0	62.87833499908447	0.09984135627746582
3	47.44850039482117	fix_pre	0		120	1.0	2.5	/experiments/Knapen_AOT/AOT_stimuli/rescaled_final/0321_fw.mp4	0.0	62.97817635536194	1.008554220199585
3	48.032188177108765	pulse	0	t		1.0	2.5	/experiments/Knapen_AOT/AOT_stimuli/rescaled_final/0321_fw.mp4	0.0	63.561864137649536	
3	48.45705461502075	movie	1		273	1.0	2.5	/experiments/Knapen_AOT/AOT_stimuli/rescaled_final/0321_fw.mp4	0.0	63.98673057556152	2.491989850997925
3	49.63302779197693	pulse	1	t		1.0	2.5	/experiments/Knapen_AOT/AOT_stimuli/rescaled_final/0321_fw.mp4	0.0	65.1627037525177	
3	50.94904446601868	fix_post	2		12	1.0	2.5	/experiments/Knapen_AOT/AOT_stimuli/rescaled_final/0321_fw.mp4	0.0	66.47872042655945	0.1000216007232666
4	51.04906606674194	fix_pre	0		120	2.0	2.5	/experiments/Knapen_AOT/AOT_stimuli/rescaled_final/1211_fw.mp4	0.0	66.57874202728271	1.0084729194641113
4	51.23262572288513	pulse	0	t		2.0	2.5	/experiments/Knapen_AOT/AOT_stimuli/rescaled_final/1211_fw.mp4	0.0	66.7623016834259	
4	52.057538986206055	movie	1		287	2.0	2.5	/experiments/Knapen_AOT/AOT_stimuli/rescaled_final/1211_fw.mp4	0.0	67.58721494674683	2.492034673690796
4	52.8310546875	pulse	1	t		2.0	2.5	/experiments/Knapen_AOT/AOT_stimuli/rescaled_final/1211_fw.mp4	0.0	68.36073064804077	
4	54.43106985092163	pulse	1	t		2.0	2.5	/experiments/Knapen_AOT/AOT_stimuli/rescaled_final/1211_fw.mp4	0.0	69.9607458114624	
4	54.54957365989685	fix_post	2		12	2.0	2.5	/experiments/Knapen_AOT/AOT_stimuli/rescaled_final/1211_fw.mp4	0.0	70.07924962043762	0.10002613067626953
5	54.64959979057312	fix_pre	0		120	3.0	2.5	/experiments/Knapen_AOT/AOT_stimuli/rescaled_final/2116_rv.mp4	0.0	70.17927575111389	1.00850510597229
5	55.65810489654541	movie	1		280	3.0	2.5	/experiments/Knapen_AOT/AOT_stimuli/rescaled_final/2116_rv.mp4	0.0	71.18778085708618	2.4920365810394287
5	56.03175377845764	pulse	1	t		3.0	2.5	/experiments/Knapen_AOT/AOT_stimuli/rescaled_final/2116_rv.mp4	0.0	71.56142973899841	
5	57.63171148300171	pulse	1	t		3.0	2.5	/experiments/Knapen_AOT/AOT_stimuli/rescaled_final/2116_rv.mp4	0.0	73.16138744354248	
5	58.15014147758484	fix_post	2		12	3.0	2.5	/experiments/Knapen_AOT/AOT_stimuli/rescaled_final/2116_rv.mp4	0.0	73.67981743812561	0.09998679161071777
6	58.25012826919556	fix_pre	0		119	4.0	2.5	/experiments/Knapen_AOT/AOT_stimuli/rescaled_final/0419_fw.mp4	0.0	73.77980422973633	1.0001907348632812
6	59.23384165763855	pulse	0	t		4.0	2.5	/experiments/Knapen_AOT/AOT_stimuli/rescaled_final/0419_fw.mp4	0.0	74.76351761817932	
6	59.25031900405884	movie	1		275	4.0	2.5	/experiments/Knapen_AOT/AOT_stimuli/rescaled_final/0419_fw.mp4	0.0	74.77999496459961	2.500396251678467
6	60.83249115943909	pulse	1	t		4.0	2.5	/experiments/Knapen_AOT/AOT_stimuli/rescaled_final/0419_fw.mp4	0.0	76.36216711997986	
6	61.750715255737305	fix_post	2		12	4.0	2.5	/experiments/Knapen_AOT/AOT_stimuli/rescaled_final/0419_fw.mp4	0.0	77.28039121627808	0.10001993179321289
7	61.85073518753052	fix_pre	0		120	5.0	2.5	blank	1.0	77.38041114807129	1.0000641345977783
7	62.434321641922	pulse	0	t		5.0	2.5	blank	1.0	77.96399760246277	
7	62.850799322128296	movie	1		300	5.0	2.5	blank	1.0	78.38047528266907	2.500394344329834
7	64.03459525108337	pulse	1	t		5.0	2.5	blank	1.0	79.56427121162415	
7	65.35119366645813	fix_post	2		12	5.0	2.5	blank	1.0	80.8808696269989	0.10003185272216797
8	65.4512255191803	fix_pre	0		120	6.0	2.5	/experiments/Knapen_AOT/AOT_stimuli/rescaled_final/0352_rv.mp4	0.0	80.98090147972107	1.0085313320159912
8	65.63478493690491	pulse	0	t		6.0	2.5	/experiments/Knapen_AOT/AOT_stimuli/rescaled_final/0352_rv.mp4	0.0	81.16446089744568	
8	66.45975685119629	movie	1		287	6.0	2.5	/experiments/Knapen_AOT/AOT_stimuli/rescaled_final/0352_rv.mp4	0.0	81.98943281173706	2.4919745922088623
8	67.23374605178833	pulse	1	t		6.0	2.5	/experiments/Knapen_AOT/AOT_stimuli/rescaled_final/0352_rv.mp4	0.0	82.7634220123291	
8	68.8332622051239	pulse	1	t		6.0	2.5	/experiments/Knapen_AOT/AOT_stimuli/rescaled_final/0352_rv.mp4	0.0	84.36293816566467	
8	68.95173144340515	fix_post	2		12	6.0	2.5	/experiments/Knapen_AOT/AOT_stimuli/rescaled_final/0352_rv.mp4	0.0	84.48140740394592	0.10002660751342773
9	69.05175805091858	fix_pre	0		120	7.0	2.5	/experiments/Knapen_AOT/AOT_stimuli/rescaled_final/0605_rv.mp4	0.0	84.58143401145935	1.0085041522979736
9	70.06026220321655	movie	1		285	7.0	2.5	/experiments/Knapen_AOT/AOT_stimuli/rescaled_final/0605_rv.mp4	0.0	85.58993816375732	2.492004871368408
9	70.43567132949829	pulse	1	t		7.0	2.5	/experiments/Knapen_AOT/AOT_stimuli/rescaled_final/0605_rv.mp4	0.0	85.96534729003906	
9	72.03392243385315	pulse	1	t		7.0	2.5	/experiments/Knapen_AOT/AOT_stimuli/rescaled_final/0605_rv.mp4	0.0	87.56359839439392	
9	72.55226707458496	fix_post	2		12	7.0	2.5	/experiments/Knapen_AOT/AOT_stimuli/rescaled_final/0605_rv.mp4	0.0	88.08194303512573	0.10003542900085449
10	72.65230250358582	fix_pre	0		119	8.0	2.5	/experiments/Knapen_AOT/AOT_stimuli/rescaled_final/0309_rv.mp4	0.0	88.18197846412659	1.0001697540283203
10	73.6360547542572	pulse	0	t		8.0	2.5	/experiments/Knapen_AOT/AOT_stimuli/rescaled_final/0309_rv.mp4	0.0	89.16573071479797	
10	73.65247225761414	movie	1		286	8.0	2.5	/experiments/Knapen_AOT/AOT_stimuli/rescaled_final/0309_rv.mp4	0.0	89.18214821815491	2.500502824783325
10	75.2348084449768	pulse	1	t		8.0	2.5	/experiments/Knapen_AOT/AOT_stimuli/rescaled_final/0309_rv.mp4	0.0	90.76448440551758	
10	76.15297508239746	fix_post	2		12	8.0	2.5	/experiments/Knapen_AOT/AOT_stimuli/rescaled_final/0309_rv.mp4	0.0	91.68265104293823	0.09985947608947754
11	76.25283455848694	fix_pre	0		120	9.0	2.5	/experiments/Knapen_AOT/AOT_stimuli/rescaled_final/0735_rv.mp4	0.0	91.78251051902771	1.0085055828094482
11	76.83686828613281	pulse	0	t		9.0	2.5	/experiments/Knapen_AOT/AOT_stimuli/rescaled_final/0735_rv.mp4	0.0	92.36654424667358	
11	77.26134014129639	movie	1		280	9.0	2.5	/experiments/Knapen_AOT/AOT_stimuli/rescaled_final/0735_rv.mp4	0.0	92.79101610183716	2.4920239448547363
11	78.4363443851471	pulse	1	t		9.0	2.5	/experiments/Knapen_AOT/AOT_stimuli/rescaled_final/0735_rv.mp4	0.0	93.96602034568787	
11	79.75336408615112	fix_post	2		12	9.0	2.5	/experiments/Knapen_AOT/AOT_stimuli/rescaled_final/0735_rv.mp4	0.0	95.2830400466919	0.10000491142272949
12	79.85336899757385	fix_pre	0		120	10.0	2.5	/experiments/Knapen_AOT/AOT_stimuli/rescaled_final/0133_rv.mp4	0.0	95.38304495811462	1.0085325241088867
12	80.02942943572998	pulse	0	t		10.0	2.5	/experiments/Knapen_AOT/AOT_stimuli/rescaled_final/0133_rv.mp4	0.0	95.55910539627075	
12	80.86190152168274	movie	1		277	10.0	2.5	/experiments/Knapen_AOT/AOT_stimuli/rescaled_final/0133_rv.mp4	0.0	96.39157748222351	2.4921786785125732
12	81.63737201690674	pulse	1	t		10.0	2.5	/experiments/Knapen_AOT/AOT_stimuli/rescaled_final/0133_rv.mp4	0.0	97.16704797744751	
12	83.22944808006287	pulse	1	t		10.0	2.5	/experiments/Knapen_AOT/AOT_stimuli/rescaled_final/0133_rv.mp4	0.0	98.75912404060364	
12	83.35408020019531	fix_post	2		12	10.0	2.5	/experiments/Knapen_AOT/AOT_stimuli/rescaled_final/0133_rv.mp4	0.0	98.88375616073608	0.09982919692993164
13	83.45390939712524	fix_pre	0		120	11.0	2.5	/experiments/Knapen_AOT/AOT_stimuli/rescaled_final/0085_rv.mp4	0.0	98.98358535766602	1.0085058212280273
13	84.46241521835327	movie	1		289	11.0	2.5	/experiments/Knapen_AOT/AOT_stimuli/rescaled_final/0085_rv.mp4	0.0	99.99209117889404	2.492061138153076
13	84.82940912246704	pulse	1	t		11.0	2.5	/experiments/Knapen_AOT/AOT_stimuli/rescaled_final/0085_rv.mp4	0.0	100.35908508300781	
13	86.42965054512024	pulse	1	t		11.0	2.5	/experiments/Knapen_AOT/AOT_stimuli/rescaled_final/0085_rv.mp4	0.0	101.95932650566101	
13	86.95447635650635	fix_post	2		12	11.0	2.5	/experiments/Knapen_AOT/AOT_stimuli/rescaled_final/0085_rv.mp4	0.0	102.48415231704712	0.10004854202270508
14	87.05452489852905	fix_pre	0		118	12.0	2.5	/experiments/Knapen_AOT/AOT_stimuli/rescaled_final/1463_rv.mp4	0.0	102.58420085906982	0.9918270111083984
14	88.02991318702698	pulse	0	t		12.0	2.5	/experiments/Knapen_AOT/AOT_stimuli/rescaled_final/1463_rv.mp4	0.0	103.55958914756775	
14	88.04635190963745	movie	1		282	12.0	2.5	/experiments/Knapen_AOT/AOT_stimuli/rescaled_final/1463_rv.mp4	0.0	103.57602787017822	2.500347375869751
14	89.6307053565979	pulse	1	t		12.0	2.5	/experiments/Knapen_AOT/AOT_stimuli/rescaled_final/1463_rv.mp4	0.0	105.16038131713867	
14	90.5466992855072	fix_post	2		12	12.0	2.5	/experiments/Knapen_AOT/AOT_stimuli/rescaled_final/1463_rv.mp4	0.0	106.07637524604797	0.10006141662597656
15	90.64676070213318	fix_pre	0		120	13.0	2.5	blank	1.0	106.17643666267395	1.000049114227295
15	91.23033595085144	pulse	0	t		13.0	2.5	blank	1.0	106.76001191139221	
15	91.64680981636047	movie	1		300	13.0	2.5	blank	1.0	107.17648577690125	2.500396251678467
15	92.83060789108276	pulse	1	t		13.0	2.5	blank	1.0	108.36028385162354	
15	94.14720606803894	fix_post	2		12	13.0	2.5	blank	1.0	109.67688202857971	0.10001111030578613
16	94.24721717834473	fix_pre	0		120	14.0	2.5	/experiments/Knapen_AOT/AOT_stimuli/rescaled_final/1174_rv.mp4	0.0	109.7768931388855	1.0086524486541748
16	94.430828332901	pulse	0	t		14.0	2.5	/experiments/Knapen_AOT/AOT_stimuli/rescaled_final/1174_rv.mp4	0.0	109.96050429344177	
16	95.2558696269989	movie	1		270	14.0	2.5	/experiments/Knapen_AOT/AOT_stimuli/rescaled_final/1174_rv.mp4	0.0	110.78554558753967	2.491896867752075
16	96.02991199493408	pulse	1	t		14.0	2.5	/experiments/Knapen_AOT/AOT_stimuli/rescaled_final/1174_rv.mp4	0.0	111.55958795547485	
16	97.63068294525146	pulse	1	t		14.0	2.5	/experiments/Knapen_AOT/AOT_stimuli/rescaled_final/1174_rv.mp4	0.0	113.16035890579224	
16	97.74776649475098	fix_post	2		12	14.0	2.5	/experiments/Knapen_AOT/AOT_stimuli/rescaled_final/1174_rv.mp4	0.0	113.27744245529175	0.10003423690795898
17	97.84780073165894	fix_pre	0		120	15.0	2.5	/experiments/Knapen_AOT/AOT_stimuli/rescaled_final/1582_fw.mp4	0.0	113.3774766921997	1.0084502696990967
17	98.85625100135803	movie	1		283	15.0	2.5	/experiments/Knapen_AOT/AOT_stimuli/rescaled_final/1582_fw.mp4	0.0	114.3859269618988	2.492041826248169
17	99.23137092590332	pulse	1	t		15.0	2.5	/experiments/Knapen_AOT/AOT_stimuli/rescaled_final/1582_fw.mp4	0.0	114.76104688644409	
17	100.82964968681335	pulse	1	t		15.0	2.5	/experiments/Knapen_AOT/AOT_stimuli/rescaled_final/1582_fw.mp4	0.0	116.35932564735413	
17	101.3482928276062	fix_post	2		12	15.0	2.5	/experiments/Knapen_AOT/AOT_stimuli/rescaled_final/1582_fw.mp4	0.0	116.87796878814697	0.09999656677246094
18	101.44828939437866	fix_pre	0		119	16.0	2.5	/experiments/Knapen_AOT/AOT_stimuli/rescaled_final/1287_rv.mp4	0.0	116.97796535491943	1.000119924545288
18	102.43209314346313	pulse	0	t		16.0	2.5	/experiments/Knapen_AOT/AOT_stimuli/rescaled_final/1287_rv.mp4	0.0	117.9617691040039	
18	102.44840931892395	movie	1		284	16.0	2.5	/experiments/Knapen_AOT/AOT_stimuli/rescaled_final/1287_rv.mp4	0.0	117.97808527946472	2.500598430633545
18	104.03077840805054	pulse	1	t		16.0	2.5	/experiments/Knapen_AOT/AOT_stimuli/rescaled_final/1287_rv.mp4	0.0	119.56045436859131	
18	104.9490077495575	fix_post	2		12	16.0	2.5	/experiments/Knapen_AOT/AOT_stimuli/rescaled_final/1287_rv.mp4	0.0	120.47868371009827	0.09986090660095215
19	105.04886865615845	fix_pre	0		120	17.0	2.5	/experiments/Knapen_AOT/AOT_stimuli/rescaled_final/1994_rv.mp4	0.0	120.57854461669922	1.0084590911865234
19	105.63243365287781	pulse	0	t		17.0	2.5	/experiments/Knapen_AOT/AOT_stimuli/rescaled_final/1994_rv.mp4	0.0	121.16210961341858	
19	106.05732774734497	movie	1		284	17.0	2.5	/experiments/Knapen_AOT/AOT_stimuli/rescaled_final/1994_rv.mp4	0.0	121.58700370788574	2.492030382156372
19	107.23122906684875	pulse	1	t		17.0	2.5	/experiments/Knapen_AOT/AOT_stimuli/rescaled_final/1994_rv.mp4	0.0	122.76090502738953	
19	108.54935812950134	fix_post	2		12	17.0	2.5	/experiments/Knapen_AOT/AOT_stimuli/rescaled_final/1994_rv.mp4	0.0	124.07903409004211	0.1000070571899414
20	108.64936518669128	fix_pre	0		120	18.0	2.5	/experiments/Knapen_AOT/AOT_stimuli/rescaled_final/1102_fw.mp4	0.0	124.17904114723206	1.0084974765777588
20	108.83295059204102	pulse	0	t		18.0	2.5	/experiments/Knapen_AOT/AOT_stimuli/rescaled_final/1102_fw.mp4	0.0	124.36262655258179	
20	109.65786266326904	movie	1		271	18.0	2.5	/experiments/Knapen_AOT/AOT_stimuli/rescaled_final/1102_fw.mp4	0.0	125.18753862380981	2.4920835494995117
20	110.43280720710754	pulse	1	t		18.0	2.5	/experiments/Knapen_AOT/AOT_stimuli/rescaled_final/1102_fw.mp4	0.0	125.96248316764832	
20	112.0334587097168	pulse	1	t		18.0	2.5	/experiments/Knapen_AOT/AOT_stimuli/rescaled_final/1102_fw.mp4	0.0	127.56313467025757	
20	112.14994621276855	fix_post	2		12	18.0	2.5	/experiments/Knapen_AOT/AOT_stimuli/rescaled_final/1102_fw.mp4	0.0	127.67962217330933	0.1000053882598877
21	112.24995160102844	fix_pre	0		120	19.0	2.5	/experiments/Knapen_AOT/AOT_stimuli/rescaled_final/0791_fw.mp4	0.0	127.77962756156921	1.0084571838378906
21	113.25840878486633	movie	1		288	19.0	2.5	/experiments/Knapen_AOT/AOT_stimuli/rescaled_final/0791_fw.mp4	0.0	128.7880847454071	2.4920294284820557
21	113.63250923156738	pulse	1	t		19.0	2.5	/experiments/Knapen_AOT/AOT_stimuli/rescaled_final/0791_fw.mp4	0.0	129.16218519210815	
21	115.23224329948425	pulse	1	t		19.0	2.5	/experiments/Knapen_AOT/AOT_stimuli/rescaled_final/0791_fw.mp4	0.0	130.76191926002502	
21	115.75043821334839	fix_post	2		12	19.0	2.5	/experiments/Knapen_AOT/AOT_stimuli/rescaled_final/0791_fw.mp4	0.0	131.28011417388916	0.10001969337463379
22	115.85045790672302	fix_pre	0		119	20.0	2.5	/experiments/Knapen_AOT/AOT_stimuli/rescaled_final/1651_fw.mp4	0.0	131.3801338672638	1.0001673698425293
22	116.83417844772339	pulse	0	t		20.0	2.5	/experiments/Knapen_AOT/AOT_stimuli/rescaled_final/1651_fw.mp4	0.0	132.36385440826416	
22	116.85062527656555	movie	1		278	20.0	2.5	/experiments/Knapen_AOT/AOT_stimuli/rescaled_final/1651_fw.mp4	0.0	132.38030123710632	2.500469923019409
22	118.43284487724304	pulse	1	t		20.0	2.5	/experiments/Knapen_AOT/AOT_stimuli/rescaled_final/1651_fw.mp4	0.0	133.9625208377838	
22	119.35109519958496	fix_post	2		12	20.0	2.5	/experiments/Knapen_AOT/AOT_stimuli/rescaled_final/1651_fw.mp4	0.0	134.88077116012573	0.09999966621398926
23	119.45109486579895	fix_pre	0		120	21.0	2.5	blank	1.0	134.98077082633972	1.0001938343048096
23	120.03492331504822	pulse	0	t		21.0	2.5	blank	1.0	135.564599275589	
23	120.45128870010376	movie	1		300	21.0	2.5	blank	1.0	135.98096466064453	2.5002200603485107
23	121.63526749610901	pulse	1	t		21.0	2.5	blank	1.0	137.16494345664978	
23	122.95150876045227	fix_post	2		12	21.0	2.5	blank	1.0	138.48118472099304	0.10002636909484863
24	123.05153512954712	fix_pre	0		120	22.0	2.5	/experiments/Knapen_AOT/AOT_stimuli/rescaled_final/1755_rv.mp4	0.0	138.5812110900879	1.0085234642028809
24	123.23505163192749	pulse	0	t		22.0	2.5	/experiments/Knapen_AOT/AOT_stimuli/rescaled_final/1755_rv.mp4	0.0	138.76472759246826	
24	124.06005859375	movie	1		275	22.0	2.5	/experiments/Knapen_AOT/AOT_stimuli/rescaled_final/1755_rv.mp4	0.0	139.58973455429077	2.492004871368408
24	124.83331799507141	pulse	1	t		22.0	2.5	/experiments/Knapen_AOT/AOT_stimuli/rescaled_final/1755_rv.mp4	0.0	140.36299395561218	
24	126.43360257148743	pulse	1	t		22.0	2.5	/experiments/Knapen_AOT/AOT_stimuli/rescaled_final/1755_rv.mp4	0.0	141.9632785320282	
24	126.55206346511841	fix_post	2		12	22.0	2.5	/experiments/Knapen_AOT/AOT_stimuli/rescaled_final/1755_rv.mp4	0.0	142.08173942565918	0.10008883476257324
25	126.65215229988098	fix_pre	0		120	23.0	2.5	/experiments/Knapen_AOT/AOT_stimuli/rescaled_final/0749_rv.mp4	0.0	142.18182826042175	1.0084171295166016
25	127.66056942939758	movie	1		279	23.0	2.5	/experiments/Knapen_AOT/AOT_stimuli/rescaled_final/0749_rv.mp4	0.0	143.19024538993835	2.4920363426208496
25	128.0355281829834	pulse	1	t		23.0	2.5	/experiments/Knapen_AOT/AOT_stimuli/rescaled_final/0749_rv.mp4	0.0	143.56520414352417	
25	129.63398909568787	pulse	1	t		23.0	2.5	/experiments/Knapen_AOT/AOT_stimuli/rescaled_final/0749_rv.mp4	0.0	145.16366505622864	
25	130.15260577201843	fix_post	2		12	23.0	2.5	/experiments/Knapen_AOT/AOT_stimuli/rescaled_final/0749_rv.mp4	0.0	145.6822817325592	0.1000814437866211
26	130.25268721580505	fix_pre	0		119	24.0	2.5	/experiments/Knapen_AOT/AOT_stimuli/rescaled_final/0507_fw.mp4	0.0	145.78236317634583	1.0000853538513184
26	131.23637652397156	pulse	0	t		24.0	2.5	/experiments/Knapen_AOT/AOT_stimuli/rescaled_final/0507_fw.mp4	0.0	146.76605248451233	
26	131.25277256965637	movie	1		289	24.0	2.5	/experiments/Knapen_AOT/AOT_stimuli/rescaled_final/0507_fw.mp4	0.0	146.78244853019714	2.500422477722168
26	132.83548998832703	pulse	1	t		24.0	2.5	/experiments/Knapen_AOT/AOT_stimuli/rescaled_final/0507_fw.mp4	0.0	148.3651659488678	
26	133.75319504737854	fix_post	2		12	24.0	2.5	/experiments/Knapen_AOT/AOT_stimuli/rescaled_final/0507_fw.mp4	0.0	149.2828710079193	0.10000896453857422
27	133.85320401191711	fix_pre	0		120	25.0	2.5	/experiments/Knapen_AOT/AOT_stimuli/rescaled_final/0407_rv.mp4	0.0	149.38287997245789	1.0084738731384277
27	134.43680572509766	pulse	0	t		25.0	2.5	/experiments/Knapen_AOT/AOT_stimuli/rescaled_final/0407_rv.mp4	0.0	149.96648168563843	
27	134.86167788505554	movie	1		284	25.0	2.5	/experiments/Knapen_AOT/AOT_stimuli/rescaled_final/0407_rv.mp4	0.0	150.3913538455963	2.492083787918091
27	136.03532099723816	pulse	1	t		25.0	2.5	/experiments/Knapen_AOT/AOT_stimuli/rescaled_final/0407_rv.mp4	0.0	151.56499695777893	
27	137.35376167297363	fix_post	2		12	25.0	2.5	/experiments/Knapen_AOT/AOT_stimuli/rescaled_final/0407_rv.mp4	0.0	152.8834376335144	0.0999600887298584
28	137.4537217617035	fix_pre	0		120	26.0	2.5	/experiments/Knapen_AOT/AOT_stimuli/rescaled_final/2026_fw.mp4	0.0	152.98339772224426	1.0084609985351562
28	137.63735151290894	pulse	0	t		26.0	2.5	/experiments/Knapen_AOT/AOT_stimuli/rescaled_final/2026_fw.mp4	0.0	153.1670274734497	
28	138.46218276023865	movie	1		277	26.0	2.5	/experiments/Knapen_AOT/AOT_stimuli/rescaled_final/2026_fw.mp4	0.0	153.99185872077942	2.4920477867126465
28	139.23579049110413	pulse	1	t		26.0	2.5	/experiments/Knapen_AOT/AOT_stimuli/rescaled_final/2026_fw.mp4	0.0	154.7654664516449	
28	140.82998609542847	pulse	1	t		26.0	2.5	/experiments/Knapen_AOT/AOT_stimuli/rescaled_final/2026_fw.mp4	0.0	156.35966205596924	
28	140.9542305469513	fix_post	2		12	26.0	2.5	/experiments/Knapen_AOT/AOT_stimuli/rescaled_final/2026_fw.mp4	0.0	156.48390650749207	0.10009312629699707
29	141.0543236732483	fix_pre	0		120	27.0	2.5	/experiments/Knapen_AOT/AOT_stimuli/rescaled_final/0636_fw.mp4	0.0	156.58399963378906	1.0084059238433838
29	142.06272959709167	movie	1		279	27.0	2.5	/experiments/Knapen_AOT/AOT_stimuli/rescaled_final/0636_fw.mp4	0.0	157.59240555763245	2.4920246601104736
29	142.42994713783264	pulse	1	t		27.0	2.5	/experiments/Knapen_AOT/AOT_stimuli/rescaled_final/0636_fw.mp4	0.0	157.9596230983734	
29	144.03016924858093	pulse	1	t		27.0	2.5	/experiments/Knapen_AOT/AOT_stimuli/rescaled_final/0636_fw.mp4	0.0	159.5598452091217	
29	144.55475425720215	fix_post	2		12	27.0	2.5	/experiments/Knapen_AOT/AOT_stimuli/rescaled_final/0636_fw.mp4	0.0	160.08443021774292	0.10016846656799316
30	144.65492272377014	fix_pre	0		118	28.0	2.5	blank	1.0	160.1845986843109	0.983306884765625
30	145.63009905815125	pulse	0	t		28.0	2.5	blank	1.0	161.15977501869202	
30	145.63822960853577	movie	1		301	28.0	2.5	blank	1.0	161.16790556907654	2.5087437629699707
30	147.23056483268738	pulse	1	t		28.0	2.5	blank	1.0	162.76024079322815	
30	148.14697337150574	fix_post	2		12	28.0	2.5	blank	1.0	163.6766493320465	0.10001230239868164
31	148.24698567390442	fix_pre	0		120	29.0	2.5	/experiments/Knapen_AOT/AOT_stimuli/rescaled_final/0336_fw.mp4	0.0	163.7766616344452	1.008500099182129
31	148.83064794540405	pulse	0	t		29.0	2.5	/experiments/Knapen_AOT/AOT_stimuli/rescaled_final/0336_fw.mp4	0.0	164.36032390594482	
31	149.25548577308655	movie	1		284	29.0	2.5	/experiments/Knapen_AOT/AOT_stimuli/rescaled_final/0336_fw.mp4	0.0	164.78516173362732	2.492013931274414
31	150.43122053146362	pulse	1	t		29.0	2.5	/experiments/Knapen_AOT/AOT_stimuli/rescaled_final/0336_fw.mp4	0.0	165.9608964920044	
31	151.74749970436096	fix_post	2		12	29.0	2.5	/experiments/Knapen_AOT/AOT_stimuli/rescaled_final/0336_fw.mp4	0.0	167.27717566490173	0.10002303123474121
32	151.8475227355957	fix_pre	0		120	30.0	2.5	/experiments/Knapen_AOT/AOT_stimuli/rescaled_final/1214_fw.mp4	0.0	167.37719869613647	1.008558988571167
32	152.03113889694214	pulse	0	t		30.0	2.5	/experiments/Knapen_AOT/AOT_stimuli/rescaled_final/1214_fw.mp4	0.0	167.5608148574829	
32	152.85608172416687	movie	1		270	30.0	2.5	/experiments/Knapen_AOT/AOT_stimuli/rescaled_final/1214_fw.mp4	0.0	168.38575768470764	2.4919652938842773
32	153.6313591003418	pulse	1	t		30.0	2.5	/experiments/Knapen_AOT/AOT_stimuli/rescaled_final/1214_fw.mp4	0.0	169.16103506088257	
32	155.22971200942993	pulse	1	t		30.0	2.5	/experiments/Knapen_AOT/AOT_stimuli/rescaled_final/1214_fw.mp4	0.0	170.7593879699707	
32	155.34804701805115	fix_post	2		12	30.0	2.5	/experiments/Knapen_AOT/AOT_stimuli/rescaled_final/1214_fw.mp4	0.0	170.87772297859192	0.09998488426208496
33	155.44803190231323	fix_pre	0		120	31.0	2.5	/experiments/Knapen_AOT/AOT_stimuli/rescaled_final/1420_rv.mp4	0.0	170.977707862854	1.008516788482666
33	156.4565486907959	movie	1		279	31.0	2.5	/experiments/Knapen_AOT/AOT_stimuli/rescaled_final/1420_rv.mp4	0.0	171.98622465133667	2.4920613765716553
33	156.830384016037	pulse	1	t		31.0	2.5	/experiments/Knapen_AOT/AOT_stimuli/rescaled_final/1420_rv.mp4	0.0	172.36005997657776	
33	158.43024849891663	pulse	1	t		31.0	2.5	/experiments/Knapen_AOT/AOT_stimuli/rescaled_final/1420_rv.mp4	0.0	173.9599244594574	
33	158.94861006736755	fix_post	2		12	31.0	2.5	/experiments/Knapen_AOT/AOT_stimuli/rescaled_final/1420_rv.mp4	0.0	174.47828602790833	0.10003519058227539
34	159.04864525794983	fix_pre	0		119	32.0	2.5	/experiments/Knapen_AOT/AOT_stimuli/rescaled_final/1994_rv.mp4	0.0	174.5783212184906	1.0001521110534668
34	160.03250527381897	pulse	0	t		32.0	2.5	/experiments/Knapen_AOT/AOT_stimuli/rescaled_final/1994_rv.mp4	0.0	175.56218123435974	
34	160.0487973690033	movie	1		289	32.0	2.5	/experiments/Knapen_AOT/AOT_stimuli/rescaled_final/1994_rv.mp4	0.0	175.57847332954407	2.500365972518921
34	161.63128638267517	pulse	1	t		32.0	2.5	/experiments/Knapen_AOT/AOT_stimuli/rescaled_final/1994_rv.mp4	0.0	177.16096234321594	
34	162.54916334152222	fix_post	2		12	32.0	2.5	/experiments/Knapen_AOT/AOT_stimuli/rescaled_final/1994_rv.mp4	0.0	178.078839302063	0.09998774528503418
35	162.64915108680725	fix_pre	0		120	33.0	2.5	blank	1.0	178.17882704734802	1.0001535415649414
35	163.23278951644897	pulse	0	t		33.0	2.5	blank	1.0	178.76246547698975	
35	163.6493046283722	movie	1		300	33.0	2.5	blank	1.0	179.17898058891296	2.500464677810669
35	164.83302903175354	pulse	1	t		33.0	2.5	blank	1.0	180.3627049922943	
35	166.14976930618286	fix_post	2		12	33.0	2.5	blank	1.0	181.67944526672363	0.10007762908935547
36	166.24984693527222	fix_pre	0		120	34.0	2.5	/experiments/Knapen_AOT/AOT_stimuli/rescaled_final/0563_fw.mp4	0.0	181.779522895813	1.0083844661712646
36	166.43327379226685	pulse	0	t		34.0	2.5	/experiments/Knapen_AOT/AOT_stimuli/rescaled_final/0563_fw.mp4	0.0	181.96294975280762	
36	167.25823140144348	movie	1		289	34.0	2.5	/experiments/Knapen_AOT/AOT_stimuli/rescaled_final/0563_fw.mp4	0.0	182.78790736198425	2.4919891357421875
36	168.0319046974182	pulse	1	t		34.0	2.5	/experiments/Knapen_AOT/AOT_stimuli/rescaled_final/0563_fw.mp4	0.0	183.56158065795898	
36	169.6318016052246	pulse	1	t		34.0	2.5	/experiments/Knapen_AOT/AOT_stimuli/rescaled_final/0563_fw.mp4	0.0	185.16147756576538	
36	169.75022053718567	fix_post	2		12	34.0	2.5	/experiments/Knapen_AOT/AOT_stimuli/rescaled_final/0563_fw.mp4	0.0	185.27989649772644	0.10005545616149902
37	169.85027599334717	fix_pre	0		120	35.0	2.5	/experiments/Knapen_AOT/AOT_stimuli/rescaled_final/0120_fw.mp4	0.0	185.37995195388794	1.0085127353668213
37	170.858788728714	movie	1		272	35.0	2.5	/experiments/Knapen_AOT/AOT_stimuli/rescaled_final/0120_fw.mp4	0.0	186.38846468925476	2.4919934272766113
37	171.23249745368958	pulse	1	t		35.0	2.5	/experiments/Knapen_AOT/AOT_stimuli/rescaled_final/0120_fw.mp4	0.0	186.76217341423035	
37	172.83230924606323	pulse	1	t		35.0	2.5	/experiments/Knapen_AOT/AOT_stimuli/rescaled_final/0120_fw.mp4	0.0	188.361985206604	
37	173.3507821559906	fix_post	2		12	35.0	2.5	/experiments/Knapen_AOT/AOT_stimuli/rescaled_final/0120_fw.mp4	0.0	188.88045811653137	0.09999775886535645
38	173.45077991485596	fix_pre	0		119	36.0	2.5	/experiments/Knapen_AOT/AOT_stimuli/rescaled_final/0939_rv.mp4	0.0	188.98045587539673	1.0002284049987793
38	174.43455457687378	pulse	0	t		36.0	2.5	/experiments/Knapen_AOT/AOT_stimuli/rescaled_final/0939_rv.mp4	0.0	189.96423053741455	
38	174.45100831985474	movie	1		271	36.0	2.5	/experiments/Knapen_AOT/AOT_stimuli/rescaled_final/0939_rv.mp4	0.0	189.9806842803955	2.500286340713501
38	176.0345697402954	pulse	1	t		36.0	2.5	/experiments/Knapen_AOT/AOT_stimuli/rescaled_final/0939_rv.mp4	0.0	191.56424570083618	
38	176.95129466056824	fix_post	2		12	36.0	2.5	/experiments/Knapen_AOT/AOT_stimuli/rescaled_final/0939_rv.mp4	0.0	192.480970621109	0.10004925727844238
39	177.05134391784668	fix_pre	0		120	37.0	2.5	/experiments/Knapen_AOT/AOT_stimuli/rescaled_final/0321_rv.mp4	0.0	192.58101987838745	1.0084514617919922
39	177.63491320610046	pulse	0	t		37.0	2.5	/experiments/Knapen_AOT/AOT_stimuli/rescaled_final/0321_rv.mp4	0.0	193.16458916664124	
39	178.05979537963867	movie	1		277	37.0	2.5	/experiments/Knapen_AOT/AOT_stimuli/rescaled_final/0321_rv.mp4	0.0	193.58947134017944	2.4920437335968018
39	179.23336935043335	pulse	1	t		37.0	2.5	/experiments/Knapen_AOT/AOT_stimuli/rescaled_final/0321_rv.mp4	0.0	194.76304531097412	
39	180.55183911323547	fix_post	2		12	37.0	2.5	/experiments/Knapen_AOT/AOT_stimuli/rescaled_final/0321_rv.mp4	0.0	196.08151507377625	0.10001587867736816
40	180.65185499191284	fix_pre	0		120	38.0	2.5	/experiments/Knapen_AOT/AOT_stimuli/rescaled_final/1902_rv.mp4	0.0	196.1815309524536	1.008486032485962
40	180.8356409072876	pulse	0	t		38.0	2.5	/experiments/Knapen_AOT/AOT_stimuli/rescaled_final/1902_rv.mp4	0.0	196.36531686782837	
40	181.6603410243988	movie	1		282	38.0	2.5	/experiments/Knapen_AOT/AOT_stimuli/rescaled_final/1902_rv.mp4	0.0	197.19001698493958	2.4920504093170166
40	182.43378591537476	pulse	1	t		38.0	2.5	/experiments/Knapen_AOT/AOT_stimuli/rescaled_final/1902_rv.mp4	0.0	197.96346187591553	
40	184.03424859046936	pulse	1	t		38.0	2.5	/experiments/Knapen_AOT/AOT_stimuli/rescaled_final/1902_rv.mp4	0.0	199.56392455101013	
40	184.15239143371582	fix_post	2		12	38.0	2.5	/experiments/Knapen_AOT/AOT_stimuli/rescaled_final/1902_rv.mp4	0.0	199.6820673942566	0.09998321533203125
41	184.25237464904785	fix_pre	0		120	39.0	2.5	/experiments/Knapen_AOT/AOT_stimuli/rescaled_final/0636_fw.mp4	0.0	199.78205060958862	1.008530855178833
41	185.26090550422668	movie	1		270	39.0	2.5	/experiments/Knapen_AOT/AOT_stimuli/rescaled_final/0636_fw.mp4	0.0	200.79058146476746	2.4920198917388916
41	185.63513827323914	pulse	1	t		39.0	2.5	/experiments/Knapen_AOT/AOT_stimuli/rescaled_final/0636_fw.mp4	0.0	201.1648142337799	
41	187.23431873321533	pulse	1	t		39.0	2.5	/experiments/Knapen_AOT/AOT_stimuli/rescaled_final/0636_fw.mp4	0.0	202.7639946937561	
41	187.75292539596558	fix_post	2		12	39.0	2.5	/experiments/Knapen_AOT/AOT_stimuli/rescaled_final/0636_fw.mp4	0.0	203.28260135650635	0.10005044937133789
42	187.8529758453369	fix_pre	0		119	40.0	2.5	/experiments/Knapen_AOT/AOT_stimuli/rescaled_final/0417_fw.mp4	0.0	203.38265180587769	1.000135898590088
42	188.8368103504181	pulse	0	t		40.0	2.5	/experiments/Knapen_AOT/AOT_stimuli/rescaled_final/0417_fw.mp4	0.0	204.36648631095886	
42	188.853111743927	movie	1		282	40.0	2.5	/experiments/Knapen_AOT/AOT_stimuli/rescaled_final/0417_fw.mp4	0.0	204.38278770446777	2.5003678798675537
42	190.43566131591797	pulse	1	t		40.0	2.5	/experiments/Knapen_AOT/AOT_stimuli/rescaled_final/0417_fw.mp4	0.0	205.96533727645874	
42	191.35347962379456	fix_post	2		12	40.0	2.5	/experiments/Knapen_AOT/AOT_stimuli/rescaled_final/0417_fw.mp4	0.0	206.88315558433533	0.10003995895385742
43	191.4535195827484	fix_pre	0		120	41.0	2.5	blank	1.0	206.98319554328918	1.0001208782196045
43	192.029137134552	pulse	0	t		41.0	2.5	blank	1.0	207.55881309509277	
43	192.45364046096802	movie	1		300	41.0	2.5	blank	1.0	207.9833164215088	2.5003604888916016
43	193.6375093460083	pulse	1	t		41.0	2.5	blank	1.0	209.16718530654907	
43	194.95400094985962	fix_post	2		12	41.0	2.5	blank	1.0	210.4836769104004	0.10004734992980957
44	195.05404829978943	fix_pre	0		120	42.0	2.5	/experiments/Knapen_AOT/AOT_stimuli/rescaled_final/1541_fw.mp4	0.0	210.5837242603302	1.008512258529663
44	195.22922730445862	pulse	0	t		42.0	2.5	/experiments/Knapen_AOT/AOT_stimuli/rescaled_final/1541_fw.mp4	0.0	210.7589032649994	
44	196.0625605583191	movie	1		273	42.0	2.5	/experiments/Knapen_AOT/AOT_stimuli/rescaled_final/1541_fw.mp4	0.0	211.59223651885986	2.491992473602295
44	196.8298041820526	pulse	1	t		42.0	2.5	/experiments/Knapen_AOT/AOT_stimuli/rescaled_final/1541_fw.mp4	0.0	212.35948014259338	
44	198.4298415184021	pulse	1	t		42.0	2.5	/experiments/Knapen_AOT/AOT_stimuli/rescaled_final/1541_fw.mp4	0.0	213.95951747894287	
44	198.5545530319214	fix_post	2		12	42.0	2.5	/experiments/Knapen_AOT/AOT_stimuli/rescaled_final/1541_fw.mp4	0.0	214.08422899246216	0.1000523567199707
45	198.65460538864136	fix_pre	0		120	43.0	2.5	/experiments/Knapen_AOT/AOT_stimuli/rescaled_final/1270_fw.mp4	0.0	214.18428134918213	1.0085816383361816
45	199.66318702697754	movie	1		276	43.0	2.5	/experiments/Knapen_AOT/AOT_stimuli/rescaled_final/1270_fw.mp4	0.0	215.1928629875183	2.4919285774230957
45	200.0301628112793	pulse	1	t		43.0	2.5	/experiments/Knapen_AOT/AOT_stimuli/rescaled_final/1270_fw.mp4	0.0	215.55983877182007	
45	201.63028049468994	pulse	1	t		43.0	2.5	/experiments/Knapen_AOT/AOT_stimuli/rescaled_final/1270_fw.mp4	0.0	217.1599564552307	
45	202.15511560440063	fix_post	2		12	43.0	2.5	/experiments/Knapen_AOT/AOT_stimuli/rescaled_final/1270_fw.mp4	0.0	217.6847915649414	0.0999913215637207
46	202.25510692596436	fix_pre	0		118	44.0	2.5	/experiments/Knapen_AOT/AOT_stimuli/rescaled_final/1340_fw.mp4	0.0	217.78478288650513	0.9918196201324463
46	203.2305281162262	pulse	0	t		44.0	2.5	/experiments/Knapen_AOT/AOT_stimuli/rescaled_final/1340_fw.mp4	0.0	218.76020407676697	
46	203.2469265460968	movie	1		271	44.0	2.5	/experiments/Knapen_AOT/AOT_stimuli/rescaled_final/1340_fw.mp4	0.0	218.77660250663757	2.5003767013549805
46	204.8301522731781	pulse	1	t		44.0	2.5	/experiments/Knapen_AOT/AOT_stimuli/rescaled_final/1340_fw.mp4	0.0	220.35982823371887	
46	205.74730324745178	fix_post	2		12	44.0	2.5	/experiments/Knapen_AOT/AOT_stimuli/rescaled_final/1340_fw.mp4	0.0	221.27697920799255	0.1000361442565918
47	205.84733939170837	fix_pre	0		120	45.0	2.5	/experiments/Knapen_AOT/AOT_stimuli/rescaled_final/1155_rv.mp4	0.0	221.37701535224915	1.0085372924804688
47	206.43098497390747	pulse	0	t		45.0	2.5	/experiments/Knapen_AOT/AOT_stimuli/rescaled_final/1155_rv.mp4	0.0	221.96066093444824	
47	206.85587668418884	movie	1		268	45.0	2.5	/experiments/Knapen_AOT/AOT_stimuli/rescaled_final/1155_rv.mp4	0.0	222.38555264472961	2.491971731185913
47	208.03113651275635	pulse	1	t		45.0	2.5	/experiments/Knapen_AOT/AOT_stimuli/rescaled_final/1155_rv.mp4	0.0	223.56081247329712	
47	209.34784841537476	fix_post	2		12	45.0	2.5	/experiments/Knapen_AOT/AOT_stimuli/rescaled_final/1155_rv.mp4	0.0	224.87752437591553	0.1000678539276123
48	209.44791626930237	fix_pre	0		120	46.0	2.5	/experiments/Knapen_AOT/AOT_stimuli/rescaled_final/2010_fw.mp4	0.0	224.97759222984314	1.017122507095337
48	209.6314353942871	pulse	0	t		46.0	2.5	/experiments/Knapen_AOT/AOT_stimuli/rescaled_final/2010_fw.mp4	0.0	225.16111135482788	
48	210.4650387763977	movie	1		269	46.0	2.5	/experiments/Knapen_AOT/AOT_stimuli/rescaled_final/2010_fw.mp4	0.0	225.99471473693848	2.483349084854126
48	211.22998332977295	pulse	1	t		46.0	2.5	/experiments/Knapen_AOT/AOT_stimuli/rescaled_final/2010_fw.mp4	0.0	226.75965929031372	
48	212.83160066604614	pulse	1	t		46.0	2.5	/experiments/Knapen_AOT/AOT_stimuli/rescaled_final/2010_fw.mp4	0.0	228.3612766265869	
48	212.94838786125183	fix_post	2		12	46.0	2.5	/experiments/Knapen_AOT/AOT_stimuli/rescaled_final/2010_fw.mp4	0.0	228.4780638217926	0.10001206398010254
49	213.04839992523193	fix_pre	0		120	47.0	2.5	blank	1.0	228.5780758857727	1.0001966953277588
49	214.0485966205597	movie	1		300	47.0	2.5	blank	1.0	229.57827258110046	2.500373601913452
49	214.43215799331665	pulse	1	t		47.0	2.5	blank	1.0	229.96183395385742	
49	216.0323703289032	pulse	1	t		47.0	2.5	blank	1.0	231.56204628944397	
49	216.54897022247314	fix_post	2		12	47.0	2.5	blank	1.0	232.07864618301392	0.09998512268066406
50	216.6489553451538	fix_pre	0		119	48.0	2.5	/experiments/Knapen_AOT/AOT_stimuli/rescaled_final/0898_fw.mp4	0.0	232.17863130569458	1.0001459121704102
50	217.63260865211487	pulse	0	t		48.0	2.5	/experiments/Knapen_AOT/AOT_stimuli/rescaled_final/0898_fw.mp4	0.0	233.16228461265564	
50	217.64910125732422	movie	1		258	48.0	2.5	/experiments/Knapen_AOT/AOT_stimuli/rescaled_final/0898_fw.mp4	0.0	233.178777217865	2.5003645420074463
50	219.23330235481262	pulse	1	t		48.0	2.5	/experiments/Knapen_AOT/AOT_stimuli/rescaled_final/0898_fw.mp4	0.0	234.7629783153534	
50	220.14946579933167	fix_post	2		12	48.0	2.5	/experiments/Knapen_AOT/AOT_stimuli/rescaled_final/0898_fw.mp4	0.0	235.67914175987244	0.10001850128173828
51	220.2494843006134	fix_pre	0		120	49.0	2.5	/experiments/Knapen_AOT/AOT_stimuli/rescaled_final/0509_fw.mp4	0.0	235.77916026115417	1.0084779262542725
51	220.83309412002563	pulse	0	t		49.0	2.5	/experiments/Knapen_AOT/AOT_stimuli/rescaled_final/0509_fw.mp4	0.0	236.3627700805664	
51	221.25796222686768	movie	1		284	49.0	2.5	/experiments/Knapen_AOT/AOT_stimuli/rescaled_final/0509_fw.mp4	0.0	236.78763818740845	2.492044687271118
51	222.43213295936584	pulse	1	t		49.0	2.5	/experiments/Knapen_AOT/AOT_stimuli/rescaled_final/0509_fw.mp4	0.0	237.96180891990662	
51	223.7500069141388	fix_post	2		12	49.0	2.5	/experiments/Knapen_AOT/AOT_stimuli/rescaled_final/0509_fw.mp4	0.0	239.27968287467957	0.10012435913085938
52	223.85013127326965	fix_pre	0		120	50.0	2.5	/experiments/Knapen_AOT/AOT_stimuli/rescaled_final/1651_fw.mp4	0.0	239.37980723381042	1.0083844661712646
52	224.0336172580719	pulse	0	t		50.0	2.5	/experiments/Knapen_AOT/AOT_stimuli/rescaled_final/1651_fw.mp4	0.0	239.56329321861267	
52	224.85851573944092	movie	1		286	50.0	2.5	/experiments/Knapen_AOT/AOT_stimuli/rescaled_final/1651_fw.mp4	0.0	240.3881916999817	2.492039442062378
52	225.6320824623108	pulse	1	t		50.0	2.5	/experiments/Knapen_AOT/AOT_stimuli/rescaled_final/1651_fw.mp4	0.0	241.16175842285156	
52	227.2322793006897	pulse	1	t		50.0	2.5	/experiments/Knapen_AOT/AOT_stimuli/rescaled_final/1651_fw.mp4	0.0	242.76195526123047	
52	227.3505551815033	fix_post	2		12	50.0	2.5	/experiments/Knapen_AOT/AOT_stimuli/rescaled_final/1651_fw.mp4	0.0	242.88023114204407	0.1000204086303711
53	227.45057559013367	fix_pre	0		120	51.0	2.5	/experiments/Knapen_AOT/AOT_stimuli/rescaled_final/0595_rv.mp4	0.0	242.98025155067444	1.0085127353668213
53	228.4590883255005	movie	1		274	51.0	2.5	/experiments/Knapen_AOT/AOT_stimuli/rescaled_final/0595_rv.mp4	0.0	243.98876428604126	2.492021083831787
53	228.83471274375916	pulse	1	t		51.0	2.5	/experiments/Knapen_AOT/AOT_stimuli/rescaled_final/0595_rv.mp4	0.0	244.36438870429993	
53	230.4330108165741	pulse	1	t		51.0	2.5	/experiments/Knapen_AOT/AOT_stimuli/rescaled_final/0595_rv.mp4	0.0	245.96268677711487	
53	230.95110940933228	fix_post	2		12	51.0	2.5	/experiments/Knapen_AOT/AOT_stimuli/rescaled_final/0595_rv.mp4	0.0	246.48078536987305	0.10018372535705566
54	231.05129313468933	fix_pre	0		119	52.0	2.5	/experiments/Knapen_AOT/AOT_stimuli/rescaled_final/1659_rv.mp4	0.0	246.5809690952301	0.9999830722808838
54	232.03486609458923	pulse	0	t		52.0	2.5	/experiments/Knapen_AOT/AOT_stimuli/rescaled_final/1659_rv.mp4	0.0	247.56454205513	
54	232.05127620697021	movie	1		280	52.0	2.5	/experiments/Knapen_AOT/AOT_stimuli/rescaled_final/1659_rv.mp4	0.0	247.580952167511	2.500363826751709
54	233.6335186958313	pulse	1	t		52.0	2.5	/experiments/Knapen_AOT/AOT_stimuli/rescaled_final/1659_rv.mp4	0.0	249.16319465637207	
54	234.55164003372192	fix_post	2		12	52.0	2.5	/experiments/Knapen_AOT/AOT_stimuli/rescaled_final/1659_rv.mp4	0.0	250.0813159942627	0.10027241706848145
55	234.6519124507904	fix_pre	0		120	53.0	2.5	/experiments/Knapen_AOT/AOT_stimuli/rescaled_final/1388_rv.mp4	0.0	250.18158841133118	1.0082223415374756
55	235.236022233963	pulse	0	t		53.0	2.5	/experiments/Knapen_AOT/AOT_stimuli/rescaled_final/1388_rv.mp4	0.0	250.76569819450378	
55	235.66013479232788	movie	1		283	53.0	2.5	/experiments/Knapen_AOT/AOT_stimuli/rescaled_final/1388_rv.mp4	0.0	251.18981075286865	2.492046594619751
55	236.83395195007324	pulse	1	t		53.0	2.5	/experiments/Knapen_AOT/AOT_stimuli/rescaled_final/1388_rv.mp4	0.0	252.363627910614	
55	238.15218138694763	fix_post	2		12	53.0	2.5	/experiments/Knapen_AOT/AOT_stimuli/rescaled_final/1388_rv.mp4	0.0	253.6818573474884	0.10002851486206055
56	238.2522099018097	fix_pre	0		120	54.0	2.5	/experiments/Knapen_AOT/AOT_stimuli/rescaled_final/1254_fw.mp4	0.0	253.78188586235046	1.0085151195526123
56	238.4360749721527	pulse	0	t		54.0	2.5	/experiments/Knapen_AOT/AOT_stimuli/rescaled_final/1254_fw.mp4	0.0	253.96575093269348	
56	239.2607250213623	movie	1		281	54.0	2.5	/experiments/Knapen_AOT/AOT_stimuli/rescaled_final/1254_fw.mp4	0.0	254.79040098190308	2.4920108318328857
56	240.03455018997192	pulse	1	t		54.0	2.5	/experiments/Knapen_AOT/AOT_stimuli/rescaled_final/1254_fw.mp4	0.0	255.5642261505127	
56	241.63457083702087	pulse	1	t		54.0	2.5	/experiments/Knapen_AOT/AOT_stimuli/rescaled_final/1254_fw.mp4	0.0	257.16424679756165	
56	241.7527358531952	fix_post	2		12	54.0	2.5	/experiments/Knapen_AOT/AOT_stimuli/rescaled_final/1254_fw.mp4	0.0	257.28241181373596	0.10010576248168945
57	241.85284161567688	fix_pre	0		120	55.0	2.5	blank	1.0	257.38251757621765	1.0000379085540771
57	242.85287952423096	movie	1		300	55.0	2.5	blank	1.0	258.38255548477173	2.5004208087921143
57	243.2367241382599	pulse	1	t		55.0	2.5	blank	1.0	258.76640009880066	
57	244.83699369430542	pulse	1	t		55.0	2.5	blank	1.0	260.3666696548462	
57	245.35330033302307	fix_post	2		12	55.0	2.5	blank	1.0	260.88297629356384	0.10004234313964844
58	245.45334267616272	fix_pre	0		119	56.0	2.5	/experiments/Knapen_AOT/AOT_stimuli/rescaled_final/1572_rv.mp4	0.0	260.9830186367035	1.0001530647277832
58	246.43695902824402	pulse	0	t		56.0	2.5	/experiments/Knapen_AOT/AOT_stimuli/rescaled_final/1572_rv.mp4	0.0	261.9666349887848	
58	246.4534957408905	movie	1		278	56.0	2.5	/experiments/Knapen_AOT/AOT_stimuli/rescaled_final/1572_rv.mp4	0.0	261.9831717014313	2.500307083129883
58	248.03722286224365	pulse	1	t		56.0	2.5	/experiments/Knapen_AOT/AOT_stimuli/rescaled_final/1572_rv.mp4	0.0	263.5668988227844	
58	248.95380282402039	fix_post	2		12	56.0	2.5	/experiments/Knapen_AOT/AOT_stimuli/rescaled_final/1572_rv.mp4	0.0	264.48347878456116	0.10003781318664551
59	249.05384063720703	fix_pre	0		120	57.0	2.5	/experiments/Knapen_AOT/AOT_stimuli/rescaled_final/2014_fw.mp4	0.0	264.5835165977478	1.0084972381591797
59	249.62950682640076	pulse	0	t		57.0	2.5	/experiments/Knapen_AOT/AOT_stimuli/rescaled_final/2014_fw.mp4	0.0	265.1591827869415	
59	250.0623378753662	movie	1		283	57.0	2.5	/experiments/Knapen_AOT/AOT_stimuli/rescaled_final/2014_fw.mp4	0.0	265.592013835907	2.5005431175231934
59	251.2379810810089	pulse	1	t		57.0	2.5	/experiments/Knapen_AOT/AOT_stimuli/rescaled_final/2014_fw.mp4	0.0	266.7676570415497	
59	252.5628809928894	fix_post	2		11	57.0	2.5	/experiments/Knapen_AOT/AOT_stimuli/rescaled_final/2014_fw.mp4	0.0	268.0925569534302	0.09148216247558594
60	252.654363155365	fix_pre	0		120	58.0	2.5	/experiments/Knapen_AOT/AOT_stimuli/rescaled_final/0980_rv.mp4	0.0	268.18403911590576	1.008493423461914
60	252.82975959777832	pulse	0	t		58.0	2.5	/experiments/Knapen_AOT/AOT_stimuli/rescaled_final/0980_rv.mp4	0.0	268.3594355583191	
60	253.6628565788269	movie	1		285	58.0	2.5	/experiments/Knapen_AOT/AOT_stimuli/rescaled_final/0980_rv.mp4	0.0	269.1925325393677	2.4920341968536377
60	254.42987322807312	pulse	1	t		58.0	2.5	/experiments/Knapen_AOT/AOT_stimuli/rescaled_final/0980_rv.mp4	0.0	269.9595491886139	
60	256.03019404411316	pulse	1	t		58.0	2.5	/experiments/Knapen_AOT/AOT_stimuli/rescaled_final/0980_rv.mp4	0.0	271.55987000465393	
60	256.15489077568054	fix_post	2		12	58.0	2.5	/experiments/Knapen_AOT/AOT_stimuli/rescaled_final/0980_rv.mp4	0.0	271.6845667362213	0.10005950927734375
61	256.2549502849579	fix_pre	0		120	59.0	2.5	/experiments/Knapen_AOT/AOT_stimuli/rescaled_final/2176_fw.mp4	0.0	271.78462624549866	1.0085036754608154
61	257.2634539604187	movie	1		273	59.0	2.5	/experiments/Knapen_AOT/AOT_stimuli/rescaled_final/2176_fw.mp4	0.0	272.7931299209595	2.491990327835083
61	257.6301078796387	pulse	1	t		59.0	2.5	/experiments/Knapen_AOT/AOT_stimuli/rescaled_final/2176_fw.mp4	0.0	273.15978384017944	
61	259.2306327819824	pulse	1	t		59.0	2.5	/experiments/Knapen_AOT/AOT_stimuli/rescaled_final/2176_fw.mp4	0.0	274.7603087425232	
61	259.7554442882538	fix_post	2		12	59.0	2.5	/experiments/Knapen_AOT/AOT_stimuli/rescaled_final/2176_fw.mp4	0.0	275.28512024879456	0.10000467300415039
62	259.85544896125793	fix_pre	0		118	60.0	2.5	/experiments/Knapen_AOT/AOT_stimuli/rescaled_final/1924_fw.mp4	0.0	275.3851249217987	1.0002844333648682
62	260.8311188220978	pulse	0	t		60.0	2.5	/experiments/Knapen_AOT/AOT_stimuli/rescaled_final/1924_fw.mp4	0.0	276.36079478263855	
62	260.8557333946228	movie	1		275	60.0	2.5	/experiments/Knapen_AOT/AOT_stimuli/rescaled_final/1924_fw.mp4	0.0	276.3854093551636	2.4920260906219482
62	262.4294936656952	pulse	1	t		60.0	2.5	/experiments/Knapen_AOT/AOT_stimuli/rescaled_final/1924_fw.mp4	0.0	277.95916962623596	
62	263.34775948524475	fix_post	2		12	60.0	2.5	/experiments/Knapen_AOT/AOT_stimuli/rescaled_final/1924_fw.mp4	0.0	278.8774354457855	0.09993743896484375
63	263.4476969242096	fix_pre	0		120	61.0	2.5	/experiments/Knapen_AOT/AOT_stimuli/rescaled_final/0336_rv.mp4	0.0	278.97737288475037	1.0084519386291504
63	264.0313582420349	pulse	0	t		61.0	2.5	/experiments/Knapen_AOT/AOT_stimuli/rescaled_final/0336_rv.mp4	0.0	279.5610342025757	
63	264.45614886283875	movie	1		267	61.0	2.5	/experiments/Knapen_AOT/AOT_stimuli/rescaled_final/0336_rv.mp4	0.0	279.9858248233795	2.492018222808838
63	265.6321315765381	pulse	1	t		61.0	2.5	/experiments/Knapen_AOT/AOT_stimuli/rescaled_final/0336_rv.mp4	0.0	281.16180753707886	
63	266.9481670856476	fix_post	2		12	61.0	2.5	/experiments/Knapen_AOT/AOT_stimuli/rescaled_final/0336_rv.mp4	0.0	282.47784304618835	0.10002303123474121
64	267.0481901168823	fix_pre	0		120	62.0	2.5	blank	1.0	282.5778660774231	1.0001389980316162
64	267.23176527023315	pulse	0	t		62.0	2.5	blank	1.0	282.7614412307739	
64	268.04832911491394	movie	1		300	62.0	2.5	blank	1.0	283.5780050754547	2.5004074573516846
64	268.8320953845978	pulse	1	t		62.0	2.5	blank	1.0	284.36177134513855	
64	270.4324007034302	pulse	1	t		62.0	2.5	blank	1.0	285.96207666397095	
64	270.5487365722656	fix_post	2		12	62.0	2.5	blank	1.0	286.0784125328064	0.10002279281616211
65	270.6487593650818	fix_pre	0		120	63.0	2.5	/experiments/Knapen_AOT/AOT_stimuli/rescaled_final/2112_fw.mp4	0.0	286.17843532562256	1.008446455001831
65	271.6572058200836	movie	1		274	63.0	2.5	/experiments/Knapen_AOT/AOT_stimuli/rescaled_final/2112_fw.mp4	0.0	287.1868817806244	2.492060661315918
65	272.032648563385	pulse	1	t		63.0	2.5	/experiments/Knapen_AOT/AOT_stimuli/rescaled_final/2112_fw.mp4	0.0	287.5623245239258	
65	273.6311762332916	pulse	1	t		63.0	2.5	/experiments/Knapen_AOT/AOT_stimuli/rescaled_final/2112_fw.mp4	0.0	289.1608521938324	
65	274.14926648139954	fix_post	2		12	63.0	2.5	/experiments/Knapen_AOT/AOT_stimuli/rescaled_final/2112_fw.mp4	0.0	289.6789424419403	0.10001873970031738
66	274.24928522109985	fix_pre	0		119	64.0	2.5	/experiments/Knapen_AOT/AOT_stimuli/rescaled_final/2058_fw.mp4	0.0	289.7789611816406	1.0003976821899414
66	275.2330436706543	pulse	0	t		64.0	2.5	/experiments/Knapen_AOT/AOT_stimuli/rescaled_final/2058_fw.mp4	0.0	290.76271963119507	
66	275.2496829032898	movie	1		260	64.0	2.5	/experiments/Knapen_AOT/AOT_stimuli/rescaled_final/2058_fw.mp4	0.0	290.77935886383057	2.5001325607299805
66	276.83236145973206	pulse	1	t		64.0	2.5	/experiments/Knapen_AOT/AOT_stimuli/rescaled_final/2058_fw.mp4	0.0	292.3620374202728	
66	277.7498154640198	fix_post	2		12	64.0	2.5	/experiments/Knapen_AOT/AOT_stimuli/rescaled_final/2058_fw.mp4	0.0	293.27949142456055	0.10013031959533691
67	277.8499457836151	fix_pre	0		120	65.0	2.5	/experiments/Knapen_AOT/AOT_stimuli/rescaled_final/2102_fw.mp4	0.0	293.3796217441559	1.008364200592041
67	278.4335663318634	pulse	0	t		65.0	2.5	/experiments/Knapen_AOT/AOT_stimuli/rescaled_final/2102_fw.mp4	0.0	293.9632422924042	
67	278.85830998420715	movie	1		279	65.0	2.5	/experiments/Knapen_AOT/AOT_stimuli/rescaled_final/2102_fw.mp4	0.0	294.3879859447479	2.492039442062378
67	280.03443121910095	pulse	1	t		65.0	2.5	/experiments/Knapen_AOT/AOT_stimuli/rescaled_final/2102_fw.mp4	0.0	295.5641071796417	
67	281.35034942626953	fix_post	2		12	65.0	2.5	/experiments/Knapen_AOT/AOT_stimuli/rescaled_final/2102_fw.mp4	0.0	296.8800253868103	0.10009765625
68	281.45044708251953	fix_pre	0		120	66.0	2.5	/experiments/Knapen_AOT/AOT_stimuli/rescaled_final/0924_fw.mp4	0.0	296.9801230430603	1.0083913803100586
68	281.63404846191406	pulse	0	t		66.0	2.5	/experiments/Knapen_AOT/AOT_stimuli/rescaled_final/0924_fw.mp4	0.0	297.16372442245483	
68	282.4588384628296	movie	1		285	66.0	2.5	/experiments/Knapen_AOT/AOT_stimuli/rescaled_final/0924_fw.mp4	0.0	297.98851442337036	2.4920458793640137
68	283.2320373058319	pulse	1	t		66.0	2.5	/experiments/Knapen_AOT/AOT_stimuli/rescaled_final/0924_fw.mp4	0.0	298.7617132663727	
68	284.83254957199097	pulse	1	t		66.0	2.5	/experiments/Knapen_AOT/AOT_stimuli/rescaled_final/0924_fw.mp4	0.0	300.36222553253174	
68	284.9508843421936	fix_post	2		12	66.0	2.5	/experiments/Knapen_AOT/AOT_stimuli/rescaled_final/0924_fw.mp4	0.0	300.4805603027344	0.10001254081726074
69	285.05089688301086	fix_pre	0		120	67.0	2.5	/experiments/Knapen_AOT/AOT_stimuli/rescaled_final/0136_rv.mp4	0.0	300.58057284355164	1.0085551738739014
69	286.05945205688477	movie	1		273	67.0	2.5	/experiments/Knapen_AOT/AOT_stimuli/rescaled_final/0136_rv.mp4	0.0	301.58912801742554	2.4920315742492676
69	286.4346697330475	pulse	1	t		67.0	2.5	/experiments/Knapen_AOT/AOT_stimuli/rescaled_final/0136_rv.mp4	0.0	301.96434569358826	
69	288.03440618515015	pulse	1	t		67.0	2.5	/experiments/Knapen_AOT/AOT_stimuli/rescaled_final/0136_rv.mp4	0.0	303.5640821456909	
69	288.55148363113403	fix_post	2		12	67.0	2.5	/experiments/Knapen_AOT/AOT_stimuli/rescaled_final/0136_rv.mp4	0.0	304.0811595916748	0.09996151924133301
70	288.65144515037537	fix_pre	0		119	68.0	2.5	/experiments/Knapen_AOT/AOT_stimuli/rescaled_final/1355_fw.mp4	0.0	304.18112111091614	1.0086338520050049
70	289.6353487968445	pulse	0	t		68.0	2.5	/experiments/Knapen_AOT/AOT_stimuli/rescaled_final/1355_fw.mp4	0.0	305.16502475738525	
70	289.66007900238037	movie	1		274	68.0	2.5	/experiments/Knapen_AOT/AOT_stimuli/rescaled_final/1355_fw.mp4	0.0	305.18975496292114	2.4919357299804688
70	291.2339391708374	pulse	1	t		68.0	2.5	/experiments/Knapen_AOT/AOT_stimuli/rescaled_final/1355_fw.mp4	0.0	306.7636151313782	
70	292.15201473236084	fix_post	2		12	68.0	2.5	/experiments/Knapen_AOT/AOT_stimuli/rescaled_final/1355_fw.mp4	0.0	307.6816906929016	0.10004305839538574
71	292.2520577907562	fix_pre	0		120	69.0	2.5	/experiments/Knapen_AOT/AOT_stimuli/rescaled_final/2116_fw.mp4	0.0	307.781733751297	1.0084185600280762
71	292.8356170654297	pulse	0	t		69.0	2.5	/experiments/Knapen_AOT/AOT_stimuli/rescaled_final/2116_fw.mp4	0.0	308.36529302597046	
71	293.2604763507843	movie	1		279	69.0	2.5	/experiments/Knapen_AOT/AOT_stimuli/rescaled_final/2116_fw.mp4	0.0	308.7901523113251	2.4920220375061035
71	294.43541646003723	pulse	1	t		69.0	2.5	/experiments/Knapen_AOT/AOT_stimuli/rescaled_final/2116_fw.mp4	0.0	309.965092420578	
71	295.7524983882904	fix_post	2		12	69.0	2.5	/experiments/Knapen_AOT/AOT_stimuli/rescaled_final/2116_fw.mp4	0.0	311.2821743488312	0.10003423690795898
72	295.85253262519836	fix_pre	0		120	70.0	2.5	blank	1.0	311.38220858573914	1.0001556873321533
72	296.0362422466278	pulse	0	t		70.0	2.5	blank	1.0	311.5659182071686	
72	296.8526883125305	movie	1		300	70.0	2.5	blank	1.0	312.3823642730713	2.5003533363342285
72	297.63639211654663	pulse	1	t		70.0	2.5	blank	1.0	313.1660680770874	
72	299.2366032600403	pulse	1	t		70.0	2.5	blank	1.0	314.76627922058105	
72	299.35304164886475	fix_post	2		12	70.0	2.5	blank	1.0	314.8827176094055	0.10003209114074707
73	299.4530737400055	fix_pre	0		120	71.0	2.5	/experiments/Knapen_AOT/AOT_stimuli/rescaled_final/2058_rv.mp4	0.0	314.98274970054626	1.0084726810455322
73	300.461546421051	movie	1		274	71.0	2.5	/experiments/Knapen_AOT/AOT_stimuli/rescaled_final/2058_rv.mp4	0.0	315.9912223815918	2.492058277130127
73	300.83520889282227	pulse	1	t		71.0	2.5	/experiments/Knapen_AOT/AOT_stimuli/rescaled_final/2058_rv.mp4	0.0	316.36488485336304	
73	302.43862771987915	pulse	1	t		71.0	2.5	/experiments/Knapen_AOT/AOT_stimuli/rescaled_final/2058_rv.mp4	0.0	317.9683036804199	
73	302.95360469818115	fix_post	2		12	71.0	2.5	/experiments/Knapen_AOT/AOT_stimuli/rescaled_final/2058_rv.mp4	0.0	318.4832806587219	0.10002470016479492
74	303.05362939834595	fix_pre	0		119	72.0	2.5	/experiments/Knapen_AOT/AOT_stimuli/rescaled_final/1457_rv.mp4	0.0	318.5833053588867	1.0001435279846191
74	304.0304162502289	pulse	0	t		72.0	2.5	/experiments/Knapen_AOT/AOT_stimuli/rescaled_final/1457_rv.mp4	0.0	319.56009221076965	
74	304.05377292633057	movie	1		265	72.0	2.5	/experiments/Knapen_AOT/AOT_stimuli/rescaled_final/1457_rv.mp4	0.0	319.58344888687134	2.5003769397735596
74	305.6362648010254	pulse	1	t		72.0	2.5	/experiments/Knapen_AOT/AOT_stimuli/rescaled_final/1457_rv.mp4	0.0	321.16594076156616	
74	306.5541498661041	fix_post	2		12	72.0	2.5	/experiments/Knapen_AOT/AOT_stimuli/rescaled_final/1457_rv.mp4	0.0	322.0838258266449	0.10001540184020996
75	306.65416526794434	fix_pre	0		120	73.0	2.5	/experiments/Knapen_AOT/AOT_stimuli/rescaled_final/0029_rv.mp4	0.0	322.1838412284851	1.0084798336029053
75	307.23013496398926	pulse	0	t		73.0	2.5	/experiments/Knapen_AOT/AOT_stimuli/rescaled_final/0029_rv.mp4	0.0	322.75981092453003	
75	307.66264510154724	movie	1		281	73.0	2.5	/experiments/Knapen_AOT/AOT_stimuli/rescaled_final/0029_rv.mp4	0.0	323.192321062088	2.4920589923858643
75	308.83035135269165	pulse	1	t		73.0	2.5	/experiments/Knapen_AOT/AOT_stimuli/rescaled_final/0029_rv.mp4	0.0	324.3600273132324	
75	310.1547040939331	fix_post	2		12	73.0	2.5	/experiments/Knapen_AOT/AOT_stimuli/rescaled_final/0029_rv.mp4	0.0	325.6843800544739	0.1000208854675293
76	310.25472497940063	fix_pre	0		120	74.0	2.5	/experiments/Knapen_AOT/AOT_stimuli/rescaled_final/1311_rv.mp4	0.0	325.7844009399414	1.008491039276123
76	310.43007373809814	pulse	0	t		74.0	2.5	/experiments/Knapen_AOT/AOT_stimuli/rescaled_final/1311_rv.mp4	0.0	325.9597496986389	
76	311.26321601867676	movie	1		272	74.0	2.5	/experiments/Knapen_AOT/AOT_stimuli/rescaled_final/1311_rv.mp4	0.0	326.79289197921753	2.4920427799224854
76	312.0303030014038	pulse	1	t		74.0	2.5	/experiments/Knapen_AOT/AOT_stimuli/rescaled_final/1311_rv.mp4	0.0	327.5599789619446	
76	313.6299605369568	pulse	1	t		74.0	2.5	/experiments/Knapen_AOT/AOT_stimuli/rescaled_final/1311_rv.mp4	0.0	329.15963649749756	
76	313.75525879859924	fix_post	2		12	74.0	2.5	/experiments/Knapen_AOT/AOT_stimuli/rescaled_final/1311_rv.mp4	0.0	329.28493475914	0.09998106956481934
77	313.85523986816406	fix_pre	0		120	75.0	2.5	blank	1.0	329.38491582870483	1.0002682209014893
77	314.85550808906555	movie	1		300	75.0	2.5	blank	1.0	330.3851840496063	2.5002503395080566
77	315.23074221611023	pulse	1	t		75.0	2.5	blank	1.0	330.760418176651	
77	316.83114790916443	pulse	1	t		75.0	2.5	blank	1.0	332.3608238697052	
77	317.3557584285736	fix_post	2		12	75.0	2.5	blank	1.0	332.8854343891144	0.10002756118774414
78	317.45578598976135	fix_pre	0		118	76.0	2.5	/experiments/Knapen_AOT/AOT_stimuli/rescaled_final/1420_fw.mp4	0.0	332.9854619503021	0.9918527603149414
78	318.43123173713684	pulse	0	t		76.0	2.5	/experiments/Knapen_AOT/AOT_stimuli/rescaled_final/1420_fw.mp4	0.0	333.9609076976776	
78	318.4476387500763	movie	1		262	76.0	2.5	/experiments/Knapen_AOT/AOT_stimuli/rescaled_final/1420_fw.mp4	0.0	333.97731471061707	2.5003304481506348
78	320.03017020225525	pulse	1	t		76.0	2.5	/experiments/Knapen_AOT/AOT_stimuli/rescaled_final/1420_fw.mp4	0.0	335.559846162796	
78	320.94796919822693	fix_post	2		12	76.0	2.5	/experiments/Knapen_AOT/AOT_stimuli/rescaled_final/1420_fw.mp4	0.0	336.4776451587677	0.10001540184020996
79	321.04798460006714	fix_pre	0		120	77.0	2.5	/experiments/Knapen_AOT/AOT_stimuli/rescaled_final/1924_rv.mp4	0.0	336.5776605606079	1.0085935592651367
79	321.6319303512573	pulse	0	t		77.0	2.5	/experiments/Knapen_AOT/AOT_stimuli/rescaled_final/1924_rv.mp4	0.0	337.1616063117981	
79	322.0565781593323	movie	1		278	77.0	2.5	/experiments/Knapen_AOT/AOT_stimuli/rescaled_final/1924_rv.mp4	0.0	337.58625411987305	2.4919285774230957
79	323.2318820953369	pulse	1	t		77.0	2.5	/experiments/Knapen_AOT/AOT_stimuli/rescaled_final/1924_rv.mp4	0.0	338.7615580558777	
79	324.54850673675537	fix_post	2		12	77.0	2.5	/experiments/Knapen_AOT/AOT_stimuli/rescaled_final/1924_rv.mp4	0.0	340.07818269729614	0.10002994537353516
80	324.6485366821289	fix_pre	0		120	78.0	2.5	/experiments/Knapen_AOT/AOT_stimuli/rescaled_final/1350_fw.mp4	0.0	340.1782126426697	1.0085155963897705
80	324.83211374282837	pulse	0	t		78.0	2.5	/experiments/Knapen_AOT/AOT_stimuli/rescaled_final/1350_fw.mp4	0.0	340.36178970336914	
80	325.6570522785187	movie	1		266	78.0	2.5	/experiments/Knapen_AOT/AOT_stimuli/rescaled_final/1350_fw.mp4	0.0	341.18672823905945	2.492011785507202
80	326.43144607543945	pulse	1	t		78.0	2.5	/experiments/Knapen_AOT/AOT_stimuli/rescaled_final/1350_fw.mp4	0.0	341.9611220359802	
80	328.0309109687805	pulse	1	t		78.0	2.5	/experiments/Knapen_AOT/AOT_stimuli/rescaled_final/1350_fw.mp4	0.0	343.5605869293213	
80	328.1490640640259	fix_post	2		12	78.0	2.5	/experiments/Knapen_AOT/AOT_stimuli/rescaled_final/1350_fw.mp4	0.0	343.67874002456665	0.09999322891235352
81	328.24905729293823	fix_pre	0		120	79.0	2.5	/experiments/Knapen_AOT/AOT_stimuli/rescaled_final/1372_fw.mp4	0.0	343.778733253479	1.008500576019287
81	329.2575578689575	movie	1		277	79.0	2.5	/experiments/Knapen_AOT/AOT_stimuli/rescaled_final/1372_fw.mp4	0.0	344.7872338294983	2.4920530319213867
81	329.6314911842346	pulse	1	t		79.0	2.5	/experiments/Knapen_AOT/AOT_stimuli/rescaled_final/1372_fw.mp4	0.0	345.1611671447754	
81	331.23118329048157	pulse	1	t		79.0	2.5	/experiments/Knapen_AOT/AOT_stimuli/rescaled_final/1372_fw.mp4	0.0	346.76085925102234	
81	331.7496109008789	fix_post	2		12	79.0	2.5	/experiments/Knapen_AOT/AOT_stimuli/rescaled_final/1372_fw.mp4	0.0	347.2792868614197	0.10001659393310547
82	331.849627494812	fix_pre	0		119	80.0	2.5	/experiments/Knapen_AOT/AOT_stimuli/rescaled_final/0622_rv.mp4	0.0	347.3793034553528	1.0001676082611084
82	332.8333261013031	pulse	0	t		80.0	2.5	/experiments/Knapen_AOT/AOT_stimuli/rescaled_final/0622_rv.mp4	0.0	348.3630020618439	
82	332.8497951030731	movie	1		270	80.0	2.5	/experiments/Knapen_AOT/AOT_stimuli/rescaled_final/0622_rv.mp4	0.0	348.3794710636139	2.5003440380096436
82	334.43222761154175	pulse	1	t		80.0	2.5	/experiments/Knapen_AOT/AOT_stimuli/rescaled_final/0622_rv.mp4	0.0	349.9619035720825	
82	335.35013914108276	fix_post	2		12	80.0	2.5	/experiments/Knapen_AOT/AOT_stimuli/rescaled_final/0622_rv.mp4	0.0	350.87981510162354	0.10002446174621582
83	335.450163602829	fix_pre	0		120	81.0	2.5	/experiments/Knapen_AOT/AOT_stimuli/rescaled_final/1651_rv.mp4	0.0	350.97983956336975	1.0085680484771729
83	336.03384733200073	pulse	0	t		81.0	2.5	/experiments/Knapen_AOT/AOT_stimuli/rescaled_final/1651_rv.mp4	0.0	351.5635232925415	
83	336.45873165130615	movie	1		262	81.0	2.5	/experiments/Knapen_AOT/AOT_stimuli/rescaled_final/1651_rv.mp4	0.0	351.9884076118469	2.492009401321411
83	337.63245701789856	pulse	1	t		81.0	2.5	/experiments/Knapen_AOT/AOT_stimuli/rescaled_final/1651_rv.mp4	0.0	353.16213297843933	
83	338.95074105262756	fix_post	2		12	81.0	2.5	/experiments/Knapen_AOT/AOT_stimuli/rescaled_final/1651_rv.mp4	0.0	354.48041701316833	0.10002660751342773
84	339.050767660141	fix_pre	0		120	82.0	2.5	blank	1.0	354.58044362068176	1.0000731945037842
84	339.2343444824219	pulse	0	t		82.0	2.5	blank	1.0	354.76402044296265	
84	340.0508408546448	movie	1		300	82.0	2.5	blank	1.0	355.58051681518555	2.5003795623779297
84	340.83451437950134	pulse	1	t		82.0	2.5	blank	1.0	356.3641903400421	
84	342.4347939491272	pulse	1	t		82.0	2.5	blank	1.0	357.96446990966797	
84	342.5512204170227	fix_post	2		12	82.0	2.5	blank	1.0	358.0808963775635	0.10003423690795898
85	342.65125465393066	fix_pre	0		120	83.0	2.5	/experiments/Knapen_AOT/AOT_stimuli/rescaled_final/1811_rv.mp4	0.0	358.18093061447144	1.0085055828094482
85	343.6597602367401	movie	1		273	83.0	2.5	/experiments/Knapen_AOT/AOT_stimuli/rescaled_final/1811_rv.mp4	0.0	359.1894361972809	2.491988182067871
85	344.0335075855255	pulse	1	t		83.0	2.5	/experiments/Knapen_AOT/AOT_stimuli/rescaled_final/1811_rv.mp4	0.0	359.5631835460663	
85	345.63528299331665	pulse	1	t		83.0	2.5	/experiments/Knapen_AOT/AOT_stimuli/rescaled_final/1811_rv.mp4	0.0	361.1649589538574	
85	346.151748418808	fix_post	2		12	83.0	2.5	/experiments/Knapen_AOT/AOT_stimuli/rescaled_final/1811_rv.mp4	0.0	361.68142437934875	0.1000375747680664
87	346.25178599357605	stim	0		1715					361.7814619541168	14.293829441070557
87	347.23554944992065	pulse	0	t						362.7652254104614	
87	348.8357377052307	pulse	0	t						364.3654136657715	
87	350.43606424331665	pulse	0	t						365.9657402038574	
87	352.03627705574036	pulse	0	t						367.5659530162811	
87	353.63644218444824	pulse	0	t						369.166118144989	
87	355.23661947250366	pulse	0	t						370.76629543304443	
87	356.83723878860474	pulse	0	t						372.3669147491455	
87	358.4373393058777	pulse	0	t						373.96701526641846	
87	360.03749775886536	pulse	0	t						375.5671737194061	
