trial_nr	onset	event_type	phase	response	nr_frames	movie_index	movie_duration	movie_file	blank	onset_abs	duration
0	0.19162392616271973	stim	0		1941					21.435256004333496	16.193931102752686
0	16.377362966537476	response	0	space						37.62099504470825	
1	16.385555028915405	stim	0		3291					37.62918710708618	27.43972086906433
1	43.81518793106079	pulse	0	t						65.05882000923157	
1	43.825275897979736	stim	1		1715					65.06890797615051	14.299821138381958
1	45.40671491622925	pulse	1	t						66.65034699440002	
1	47.007086992263794	pulse	1	t						68.25071907043457	
1	48.607117891311646	pulse	1	t						69.85074996948242	
1	50.20743489265442	pulse	1	t						71.4510669708252	
1	51.80774688720703	pulse	1	t						73.05137896537781	
1	53.40795588493347	pulse	1	t						74.65158796310425	
1	55.0081889629364	pulse	1	t						76.25182104110718	
1	56.608388900756836	pulse	1	t						77.85202097892761	
2	58.125097036361694	fix_pre	0		11	0.0	2.5	/experiments/knapen_AOT/AOT_stimuli/rescaled_final/0281_rv.mp4	0.0	79.36872911453247	0.0917348861694336
2	58.20864295959473	pulse	0	t		0.0	2.5	/experiments/knapen_AOT/AOT_stimuli/rescaled_final/0281_rv.mp4	0.0	79.4522750377655	
2	58.21683192253113	movie	1		243	0.0	2.5	/experiments/knapen_AOT/AOT_stimuli/rescaled_final/0281_rv.mp4	0.0	79.4604640007019	2.508664131164551
2	59.80938005447388	pulse	1	t		0.0	2.5	/experiments/knapen_AOT/AOT_stimuli/rescaled_final/0281_rv.mp4	0.0	81.05301213264465	
2	60.72549605369568	fix_post	2		12	0.0	2.5	/experiments/knapen_AOT/AOT_stimuli/rescaled_final/0281_rv.mp4	0.0	81.96912813186646	0.10002779960632324
3	60.825523853302	fix_pre	0		120	1.0	2.5	/experiments/knapen_AOT/AOT_stimuli/rescaled_final/1490_fw.mp4	0.0	82.06915593147278	1.0001440048217773
3	61.40912985801697	pulse	0	t		1.0	2.5	/experiments/knapen_AOT/AOT_stimuli/rescaled_final/1490_fw.mp4	0.0	82.65276193618774	
3	61.82566785812378	movie	1		242	1.0	2.5	/experiments/knapen_AOT/AOT_stimuli/rescaled_final/1490_fw.mp4	0.0	83.06929993629456	2.500566005706787
3	63.00944495201111	pulse	1	t		1.0	2.5	/experiments/knapen_AOT/AOT_stimuli/rescaled_final/1490_fw.mp4	0.0	84.25307703018188	
3	64.32623386383057	fix_post	2		12	1.0	2.5	/experiments/knapen_AOT/AOT_stimuli/rescaled_final/1490_fw.mp4	0.0	85.56986594200134	0.09982013702392578
4	64.42605400085449	fix_pre	0		120	2.0	2.5	/experiments/knapen_AOT/AOT_stimuli/rescaled_final/1579_rv.mp4	0.0	85.66968607902527	1.0002150535583496
4	64.60965895652771	pulse	0	t		2.0	2.5	/experiments/knapen_AOT/AOT_stimuli/rescaled_final/1579_rv.mp4	0.0	85.85329103469849	
4	65.42626905441284	movie	1		243	2.0	2.5	/experiments/knapen_AOT/AOT_stimuli/rescaled_final/1579_rv.mp4	0.0	86.66990113258362	2.5005369186401367
4	66.20989990234375	pulse	1	t		2.0	2.5	/experiments/knapen_AOT/AOT_stimuli/rescaled_final/1579_rv.mp4	0.0	87.45353198051453	
4	67.81006503105164	pulse	1	t		2.0	2.5	/experiments/knapen_AOT/AOT_stimuli/rescaled_final/1579_rv.mp4	0.0	89.05369710922241	
4	67.92680597305298	fix_post	2		12	2.0	2.5	/experiments/knapen_AOT/AOT_stimuli/rescaled_final/1579_rv.mp4	0.0	89.17043805122375	0.0998070240020752
5	68.02661299705505	fix_pre	0		120	3.0	2.5	/experiments/knapen_AOT/AOT_stimuli/rescaled_final/1416_fw.mp4	0.0	89.27024507522583	1.0001530647277832
5	69.02676606178284	movie	1		242	3.0	2.5	/experiments/knapen_AOT/AOT_stimuli/rescaled_final/1416_fw.mp4	0.0	90.27039813995361	2.49224591255188
5	69.41081404685974	pulse	1	t		3.0	2.5	/experiments/knapen_AOT/AOT_stimuli/rescaled_final/1416_fw.mp4	0.0	90.65444612503052	
5	71.01058602333069	pulse	1	t		3.0	2.5	/experiments/knapen_AOT/AOT_stimuli/rescaled_final/1416_fw.mp4	0.0	92.25421810150146	
5	71.51901197433472	fix_post	2		12	3.0	2.5	/experiments/knapen_AOT/AOT_stimuli/rescaled_final/1416_fw.mp4	0.0	92.7626440525055	0.0998220443725586
6	71.61883401870728	fix_pre	0		120	4.0	2.5	/experiments/knapen_AOT/AOT_stimuli/rescaled_final/0039_rv.mp4	0.0	92.86246609687805	1.0000998973846436
6	72.61077785491943	pulse	0	t		4.0	2.5	/experiments/knapen_AOT/AOT_stimuli/rescaled_final/0039_rv.mp4	0.0	93.85440993309021	
6	72.61893391609192	movie	1		244	4.0	2.5	/experiments/knapen_AOT/AOT_stimuli/rescaled_final/0039_rv.mp4	0.0	93.8625659942627	2.508754014968872
6	74.21248197555542	pulse	1	t		4.0	2.5	/experiments/knapen_AOT/AOT_stimuli/rescaled_final/0039_rv.mp4	0.0	95.4561140537262	
6	75.12768793106079	fix_post	2		12	4.0	2.5	/experiments/knapen_AOT/AOT_stimuli/rescaled_final/0039_rv.mp4	0.0	96.37132000923157	0.10003304481506348
7	75.22772097587585	fix_pre	0		120	5.0	2.5	/experiments/knapen_AOT/AOT_stimuli/rescaled_final/1942_fw.mp4	0.0	96.47135305404663	1.0000839233398438
7	75.81124186515808	pulse	0	t		5.0	2.5	/experiments/knapen_AOT/AOT_stimuli/rescaled_final/1942_fw.mp4	0.0	97.05487394332886	
7	76.2278048992157	movie	1		242	5.0	2.5	/experiments/knapen_AOT/AOT_stimuli/rescaled_final/1942_fw.mp4	0.0	97.47143697738647	2.5004830360412598
7	77.41167187690735	pulse	1	t		5.0	2.5	/experiments/knapen_AOT/AOT_stimuli/rescaled_final/1942_fw.mp4	0.0	98.65530395507812	
7	78.72828793525696	fix_post	2		12	5.0	2.5	/experiments/knapen_AOT/AOT_stimuli/rescaled_final/1942_fw.mp4	0.0	99.97192001342773	0.09995794296264648
8	78.8282458782196	fix_pre	0		120	6.0	2.5	blank	1.0	100.07187795639038	1.0001280307769775
8	79.0117838382721	pulse	0	t		6.0	2.5	blank	1.0	100.25541591644287	
8	79.82837390899658	movie	1		300	6.0	2.5	blank	1.0	101.07200598716736	2.5003559589385986
8	80.61206388473511	pulse	1	t		6.0	2.5	blank	1.0	101.85569596290588	
8	82.21219205856323	pulse	1	t		6.0	2.5	blank	1.0	103.45582413673401	
8	82.32872986793518	fix_post	2		12	6.0	2.5	blank	1.0	103.57236194610596	0.10003209114074707
9	82.42876195907593	fix_pre	0		120	7.0	2.5	/experiments/knapen_AOT/AOT_stimuli/rescaled_final/0299_fw.mp4	0.0	103.6723940372467	1.0001709461212158
9	83.42893290519714	movie	1		242	7.0	2.5	/experiments/knapen_AOT/AOT_stimuli/rescaled_final/0299_fw.mp4	0.0	104.67256498336792	2.492105007171631
9	83.81319785118103	pulse	1	t		7.0	2.5	/experiments/knapen_AOT/AOT_stimuli/rescaled_final/0299_fw.mp4	0.0	105.0568299293518	
9	85.40546202659607	pulse	1	t		7.0	2.5	/experiments/knapen_AOT/AOT_stimuli/rescaled_final/0299_fw.mp4	0.0	106.64909410476685	
9	85.92103791236877	fix_post	2		12	7.0	2.5	/experiments/knapen_AOT/AOT_stimuli/rescaled_final/0299_fw.mp4	0.0	107.16466999053955	0.09996199607849121
10	86.02099990844727	fix_pre	0		119	8.0	2.5	/experiments/knapen_AOT/AOT_stimuli/rescaled_final/1915_rv.mp4	0.0	107.26463198661804	0.9918100833892822
10	87.00458288192749	pulse	0	t		8.0	2.5	/experiments/knapen_AOT/AOT_stimuli/rescaled_final/1915_rv.mp4	0.0	108.24821496009827	
10	87.01280999183655	movie	1		243	8.0	2.5	/experiments/knapen_AOT/AOT_stimuli/rescaled_final/1915_rv.mp4	0.0	108.25644207000732	2.508744955062866
10	88.60968804359436	pulse	1	t		8.0	2.5	/experiments/knapen_AOT/AOT_stimuli/rescaled_final/1915_rv.mp4	0.0	109.85332012176514	
10	89.52155494689941	fix_post	2		12	8.0	2.5	/experiments/knapen_AOT/AOT_stimuli/rescaled_final/1915_rv.mp4	0.0	110.76518702507019	0.09994697570800781
11	89.62150192260742	fix_pre	0		120	9.0	2.5	/experiments/knapen_AOT/AOT_stimuli/rescaled_final/0421_fw.mp4	0.0	110.8651340007782	1.0001530647277832
11	90.20512986183167	pulse	0	t		9.0	2.5	/experiments/knapen_AOT/AOT_stimuli/rescaled_final/0421_fw.mp4	0.0	111.44876194000244	
11	90.6216549873352	movie	1		242	9.0	2.5	/experiments/knapen_AOT/AOT_stimuli/rescaled_final/0421_fw.mp4	0.0	111.86528706550598	2.5004608631134033
11	91.80538702011108	pulse	1	t		9.0	2.5	/experiments/knapen_AOT/AOT_stimuli/rescaled_final/0421_fw.mp4	0.0	113.04901909828186	
11	93.12211585044861	fix_post	2		12	9.0	2.5	/experiments/knapen_AOT/AOT_stimuli/rescaled_final/0421_fw.mp4	0.0	114.36574792861938	0.09991717338562012
12	93.22203302383423	fix_pre	0		120	10.0	2.5	/experiments/knapen_AOT/AOT_stimuli/rescaled_final/1924_rv.mp4	0.0	114.465665102005	1.0001239776611328
12	93.40567803382874	pulse	0	t		10.0	2.5	/experiments/knapen_AOT/AOT_stimuli/rescaled_final/1924_rv.mp4	0.0	114.64931011199951	
12	94.22215700149536	movie	1		243	10.0	2.5	/experiments/knapen_AOT/AOT_stimuli/rescaled_final/1924_rv.mp4	0.0	115.46578907966614	2.500654935836792
12	95.00583505630493	pulse	1	t		10.0	2.5	/experiments/knapen_AOT/AOT_stimuli/rescaled_final/1924_rv.mp4	0.0	116.24946713447571	
12	96.60664105415344	pulse	1	t		10.0	2.5	/experiments/knapen_AOT/AOT_stimuli/rescaled_final/1924_rv.mp4	0.0	117.85027313232422	
12	96.72281193733215	fix_post	2		12	10.0	2.5	/experiments/knapen_AOT/AOT_stimuli/rescaled_final/1924_rv.mp4	0.0	117.96644401550293	0.09981012344360352
13	96.82262206077576	fix_pre	0		120	11.0	2.5	/experiments/knapen_AOT/AOT_stimuli/rescaled_final/0805_fw.mp4	0.0	118.06625413894653	1.0000829696655273
13	97.82270503044128	movie	1		242	11.0	2.5	/experiments/knapen_AOT/AOT_stimuli/rescaled_final/0805_fw.mp4	0.0	119.06633710861206	2.4922118186950684
13	98.20675086975098	pulse	1	t		11.0	2.5	/experiments/knapen_AOT/AOT_stimuli/rescaled_final/0805_fw.mp4	0.0	119.45038294792175	
13	99.80661702156067	pulse	1	t		11.0	2.5	/experiments/knapen_AOT/AOT_stimuli/rescaled_final/0805_fw.mp4	0.0	121.05024909973145	
13	100.31491684913635	fix_post	2		12	11.0	2.5	/experiments/knapen_AOT/AOT_stimuli/rescaled_final/0805_fw.mp4	0.0	121.55854892730713	0.09985017776489258
14	100.41476702690125	fix_pre	0		120	12.0	2.5	blank	1.0	121.65839910507202	1.000169038772583
14	101.40676784515381	pulse	0	t		12.0	2.5	blank	1.0	122.65039992332458	
14	101.41493606567383	movie	1		301	12.0	2.5	blank	1.0	122.6585681438446	2.5087318420410156
14	103.00701594352722	pulse	1	t		12.0	2.5	blank	1.0	124.250648021698	
14	103.92366790771484	fix_post	2		12	12.0	2.5	blank	1.0	125.16729998588562	0.1000831127166748
15	104.02375102043152	fix_pre	0		120	13.0	2.5	/experiments/knapen_AOT/AOT_stimuli/rescaled_final/0481_rv.mp4	0.0	125.2673830986023	1.0001249313354492
15	104.60733699798584	pulse	0	t		13.0	2.5	/experiments/knapen_AOT/AOT_stimuli/rescaled_final/0481_rv.mp4	0.0	125.85096907615662	
15	105.02387595176697	movie	1		243	13.0	2.5	/experiments/knapen_AOT/AOT_stimuli/rescaled_final/0481_rv.mp4	0.0	126.26750802993774	2.500438928604126
15	106.2075629234314	pulse	1	t		13.0	2.5	/experiments/knapen_AOT/AOT_stimuli/rescaled_final/0481_rv.mp4	0.0	127.45119500160217	
15	107.5243148803711	fix_post	2		12	13.0	2.5	/experiments/knapen_AOT/AOT_stimuli/rescaled_final/0481_rv.mp4	0.0	128.76794695854187	0.09991216659545898
16	107.62422704696655	fix_pre	0		120	14.0	2.5	/experiments/knapen_AOT/AOT_stimuli/rescaled_final/0832_rv.mp4	0.0	128.86785912513733	1.0001039505004883
16	107.80785703659058	pulse	0	t		14.0	2.5	/experiments/knapen_AOT/AOT_stimuli/rescaled_final/0832_rv.mp4	0.0	129.05148911476135	
16	108.62433099746704	movie	1		242	14.0	2.5	/experiments/knapen_AOT/AOT_stimuli/rescaled_final/0832_rv.mp4	0.0	129.86796307563782	2.5003738403320312
16	109.40803790092468	pulse	1	t		14.0	2.5	/experiments/knapen_AOT/AOT_stimuli/rescaled_final/0832_rv.mp4	0.0	130.65166997909546	
16	111.00827503204346	pulse	1	t		14.0	2.5	/experiments/knapen_AOT/AOT_stimuli/rescaled_final/0832_rv.mp4	0.0	132.25190711021423	
16	111.12470483779907	fix_post	2		12	14.0	2.5	/experiments/knapen_AOT/AOT_stimuli/rescaled_final/0832_rv.mp4	0.0	132.36833691596985	0.10002923011779785
17	111.22473406791687	fix_pre	0		119	15.0	2.5	/experiments/knapen_AOT/AOT_stimuli/rescaled_final/0284_fw.mp4	0.0	132.46836614608765	0.9918429851531982
17	112.21657705307007	movie	1		242	15.0	2.5	/experiments/knapen_AOT/AOT_stimuli/rescaled_final/0284_fw.mp4	0.0	133.46020913124084	2.500436782836914
17	112.60859203338623	pulse	1	t		15.0	2.5	/experiments/knapen_AOT/AOT_stimuli/rescaled_final/0284_fw.mp4	0.0	133.852224111557	
17	114.20863699913025	pulse	1	t		15.0	2.5	/experiments/knapen_AOT/AOT_stimuli/rescaled_final/0284_fw.mp4	0.0	135.45226907730103	
17	114.71701383590698	fix_post	2		12	15.0	2.5	/experiments/knapen_AOT/AOT_stimuli/rescaled_final/0284_fw.mp4	0.0	135.96064591407776	0.09997010231018066
18	114.81698393821716	fix_pre	0		118	16.0	2.5	/experiments/knapen_AOT/AOT_stimuli/rescaled_final/1087_rv.mp4	0.0	136.06061601638794	1.0000450611114502
18	115.80903387069702	pulse	0	t		16.0	2.5	/experiments/knapen_AOT/AOT_stimuli/rescaled_final/1087_rv.mp4	0.0	137.0526659488678	
18	115.81702899932861	movie	1		244	16.0	2.5	/experiments/knapen_AOT/AOT_stimuli/rescaled_final/1087_rv.mp4	0.0	137.0606610774994	2.5088560581207275
18	117.41047191619873	pulse	1	t		16.0	2.5	/experiments/knapen_AOT/AOT_stimuli/rescaled_final/1087_rv.mp4	0.0	138.6541039943695	
18	118.32588505744934	fix_post	2		12	16.0	2.5	/experiments/knapen_AOT/AOT_stimuli/rescaled_final/1087_rv.mp4	0.0	139.56951713562012	0.09991979598999023
19	118.42580485343933	fix_pre	0		120	17.0	2.5	/experiments/knapen_AOT/AOT_stimuli/rescaled_final/1234_rv.mp4	0.0	139.6694369316101	1.000128984451294
19	119.00931406021118	pulse	0	t		17.0	2.5	/experiments/knapen_AOT/AOT_stimuli/rescaled_final/1234_rv.mp4	0.0	140.25294613838196	
19	119.42593383789062	movie	1		243	17.0	2.5	/experiments/knapen_AOT/AOT_stimuli/rescaled_final/1234_rv.mp4	0.0	140.6695659160614	2.5003931522369385
19	120.6052918434143	pulse	1	t		17.0	2.5	/experiments/knapen_AOT/AOT_stimuli/rescaled_final/1234_rv.mp4	0.0	141.84892392158508	
19	121.92632699012756	fix_post	2		12	17.0	2.5	/experiments/knapen_AOT/AOT_stimuli/rescaled_final/1234_rv.mp4	0.0	143.16995906829834	0.09999799728393555
20	122.0263249874115	fix_pre	0		120	18.0	2.5	/experiments/knapen_AOT/AOT_stimuli/rescaled_final/1729_rv.mp4	0.0	143.26995706558228	1.0001380443572998
20	122.20999383926392	pulse	0	t		18.0	2.5	/experiments/knapen_AOT/AOT_stimuli/rescaled_final/1729_rv.mp4	0.0	143.4536259174347	
20	123.0264630317688	movie	1		242	18.0	2.5	/experiments/knapen_AOT/AOT_stimuli/rescaled_final/1729_rv.mp4	0.0	144.27009510993958	2.5006768703460693
20	123.81013298034668	pulse	1	t		18.0	2.5	/experiments/knapen_AOT/AOT_stimuli/rescaled_final/1729_rv.mp4	0.0	145.05376505851746	
20	125.41010689735413	pulse	1	t		18.0	2.5	/experiments/knapen_AOT/AOT_stimuli/rescaled_final/1729_rv.mp4	0.0	146.6537389755249	
20	125.52713990211487	fix_post	2		12	18.0	2.5	/experiments/knapen_AOT/AOT_stimuli/rescaled_final/1729_rv.mp4	0.0	146.77077198028564	0.09976005554199219
21	125.62689995765686	fix_pre	0		120	19.0	2.5	/experiments/knapen_AOT/AOT_stimuli/rescaled_final/1942_rv.mp4	0.0	146.87053203582764	1.0000839233398438
21	126.6269838809967	movie	1		241	19.0	2.5	/experiments/knapen_AOT/AOT_stimuli/rescaled_final/1942_rv.mp4	0.0	147.87061595916748	2.4920921325683594
21	127.01519799232483	pulse	1	t		19.0	2.5	/experiments/knapen_AOT/AOT_stimuli/rescaled_final/1942_rv.mp4	0.0	148.2588300704956	
21	128.61081194877625	pulse	1	t		19.0	2.5	/experiments/knapen_AOT/AOT_stimuli/rescaled_final/1942_rv.mp4	0.0	149.85444402694702	
21	129.11907601356506	fix_post	2		12	19.0	2.5	/experiments/knapen_AOT/AOT_stimuli/rescaled_final/1942_rv.mp4	0.0	150.36270809173584	0.09995698928833008
22	129.2190330028534	fix_pre	0		120	20.0	2.5	/experiments/knapen_AOT/AOT_stimuli/rescaled_final/0742_fw.mp4	0.0	150.46266508102417	1.0001850128173828
22	130.21108102798462	pulse	0	t		20.0	2.5	/experiments/knapen_AOT/AOT_stimuli/rescaled_final/0742_fw.mp4	0.0	151.4547131061554	
22	130.21921801567078	movie	1		243	20.0	2.5	/experiments/knapen_AOT/AOT_stimuli/rescaled_final/0742_fw.mp4	0.0	151.46285009384155	2.508821964263916
22	131.81263184547424	pulse	1	t		20.0	2.5	/experiments/knapen_AOT/AOT_stimuli/rescaled_final/0742_fw.mp4	0.0	153.05626392364502	
22	132.7280399799347	fix_post	2		12	20.0	2.5	/experiments/knapen_AOT/AOT_stimuli/rescaled_final/0742_fw.mp4	0.0	153.97167205810547	0.09990692138671875
23	132.8279469013214	fix_pre	0		120	21.0	2.5	blank	1.0	154.0715789794922	1.0001220703125
23	133.41159200668335	pulse	0	t		21.0	2.5	blank	1.0	154.65522408485413	
23	133.8280689716339	movie	1		300	21.0	2.5	blank	1.0	155.0717010498047	2.5004429817199707
23	135.01190090179443	pulse	1	t		21.0	2.5	blank	1.0	156.2555329799652	
23	136.32851195335388	fix_post	2		12	21.0	2.5	blank	1.0	157.57214403152466	0.09999799728393555
24	136.42850995063782	fix_pre	0		120	22.0	2.5	/experiments/knapen_AOT/AOT_stimuli/rescaled_final/0364_rv.mp4	0.0	157.6721420288086	1.0000879764556885
24	136.61211800575256	pulse	0	t		22.0	2.5	/experiments/knapen_AOT/AOT_stimuli/rescaled_final/0364_rv.mp4	0.0	157.85575008392334	
24	137.4285979270935	movie	1		243	22.0	2.5	/experiments/knapen_AOT/AOT_stimuli/rescaled_final/0364_rv.mp4	0.0	158.67223000526428	2.5005180835723877
24	138.2049388885498	pulse	1	t		22.0	2.5	/experiments/knapen_AOT/AOT_stimuli/rescaled_final/0364_rv.mp4	0.0	159.44857096672058	
24	139.81247687339783	pulse	1	t		22.0	2.5	/experiments/knapen_AOT/AOT_stimuli/rescaled_final/0364_rv.mp4	0.0	161.0561089515686	
24	139.9291160106659	fix_post	2		12	22.0	2.5	/experiments/knapen_AOT/AOT_stimuli/rescaled_final/0364_rv.mp4	0.0	161.17274808883667	0.09989595413208008
25	140.02901196479797	fix_pre	0		119	23.0	2.5	/experiments/knapen_AOT/AOT_stimuli/rescaled_final/0817_rv.mp4	0.0	161.27264404296875	0.9918620586395264
25	141.0208740234375	movie	1		242	23.0	2.5	/experiments/knapen_AOT/AOT_stimuli/rescaled_final/0817_rv.mp4	0.0	162.26450610160828	2.5004189014434814
25	141.40497183799744	pulse	1	t		23.0	2.5	/experiments/knapen_AOT/AOT_stimuli/rescaled_final/0817_rv.mp4	0.0	162.6486039161682	
25	143.00554704666138	pulse	1	t		23.0	2.5	/experiments/knapen_AOT/AOT_stimuli/rescaled_final/0817_rv.mp4	0.0	164.24917912483215	
25	143.52129292488098	fix_post	2		12	23.0	2.5	/experiments/knapen_AOT/AOT_stimuli/rescaled_final/0817_rv.mp4	0.0	164.76492500305176	0.09993505477905273
26	143.62122797966003	fix_pre	0		119	24.0	2.5	/experiments/knapen_AOT/AOT_stimuli/rescaled_final/0229_rv.mp4	0.0	164.8648600578308	0.9917759895324707
26	144.60502099990845	pulse	0	t		24.0	2.5	/experiments/knapen_AOT/AOT_stimuli/rescaled_final/0229_rv.mp4	0.0	165.84865307807922	
26	144.6130039691925	movie	1		243	24.0	2.5	/experiments/knapen_AOT/AOT_stimuli/rescaled_final/0229_rv.mp4	0.0	165.85663604736328	2.5088489055633545
26	146.20567989349365	pulse	1	t		24.0	2.5	/experiments/knapen_AOT/AOT_stimuli/rescaled_final/0229_rv.mp4	0.0	167.44931197166443	
26	147.12185287475586	fix_post	2		12	24.0	2.5	/experiments/knapen_AOT/AOT_stimuli/rescaled_final/0229_rv.mp4	0.0	168.36548495292664	0.09992504119873047
27	147.2217779159546	fix_pre	0		120	25.0	2.5	/experiments/knapen_AOT/AOT_stimuli/rescaled_final/0281_rv.mp4	0.0	168.46540999412537	1.0001440048217773
27	147.80528903007507	pulse	0	t		25.0	2.5	/experiments/knapen_AOT/AOT_stimuli/rescaled_final/0281_rv.mp4	0.0	169.04892110824585	
27	148.22192192077637	movie	1		243	25.0	2.5	/experiments/knapen_AOT/AOT_stimuli/rescaled_final/0281_rv.mp4	0.0	169.46555399894714	2.5003881454467773
27	149.40565705299377	pulse	1	t		25.0	2.5	/experiments/knapen_AOT/AOT_stimuli/rescaled_final/0281_rv.mp4	0.0	170.64928913116455	
27	150.72231006622314	fix_post	2		12	25.0	2.5	/experiments/knapen_AOT/AOT_stimuli/rescaled_final/0281_rv.mp4	0.0	171.96594214439392	0.10004782676696777
28	150.8223578929901	fix_pre	0		120	26.0	2.5	blank	1.0	172.0659899711609	1.0001111030578613
28	151.0058238506317	pulse	0	t		26.0	2.5	blank	1.0	172.2494559288025	
28	151.82246899604797	movie	1		300	26.0	2.5	blank	1.0	173.06610107421875	2.5003929138183594
28	152.60611486434937	pulse	1	t		26.0	2.5	blank	1.0	173.84974694252014	
28	154.20625400543213	pulse	1	t		26.0	2.5	blank	1.0	175.4498860836029	
28	154.32286190986633	fix_post	2		12	26.0	2.5	blank	1.0	175.5664939880371	0.10001802444458008
29	154.4228799343109	fix_pre	0		120	27.0	2.5	/experiments/knapen_AOT/AOT_stimuli/rescaled_final/0052_rv.mp4	0.0	175.6665120124817	1.0000720024108887
29	155.4229519367218	movie	1		242	27.0	2.5	/experiments/knapen_AOT/AOT_stimuli/rescaled_final/0052_rv.mp4	0.0	176.66658401489258	2.4920430183410645
29	155.80717706680298	pulse	1	t		27.0	2.5	/experiments/knapen_AOT/AOT_stimuli/rescaled_final/0052_rv.mp4	0.0	177.05080914497375	
29	157.40676999092102	pulse	1	t		27.0	2.5	/experiments/knapen_AOT/AOT_stimuli/rescaled_final/0052_rv.mp4	0.0	178.6504020690918	
29	157.91499495506287	fix_post	2		12	27.0	2.5	/experiments/knapen_AOT/AOT_stimuli/rescaled_final/0052_rv.mp4	0.0	179.15862703323364	0.1000370979309082
30	158.01503205299377	fix_pre	0		120	28.0	2.5	/experiments/knapen_AOT/AOT_stimuli/rescaled_final/0052_fw.mp4	0.0	179.25866413116455	1.0001459121704102
30	159.0071358680725	pulse	0	t		28.0	2.5	/experiments/knapen_AOT/AOT_stimuli/rescaled_final/0052_fw.mp4	0.0	180.2507679462433	
30	159.01517796516418	movie	1		245	28.0	2.5	/experiments/knapen_AOT/AOT_stimuli/rescaled_final/0052_fw.mp4	0.0	180.25881004333496	2.508749008178711
30	160.60794305801392	pulse	1	t		28.0	2.5	/experiments/knapen_AOT/AOT_stimuli/rescaled_final/0052_fw.mp4	0.0	181.8515751361847	
30	161.5239269733429	fix_post	2		12	28.0	2.5	/experiments/knapen_AOT/AOT_stimuli/rescaled_final/0052_fw.mp4	0.0	182.76755905151367	0.09999489784240723
31	161.6239218711853	fix_pre	0		120	29.0	2.5	/experiments/knapen_AOT/AOT_stimuli/rescaled_final/1161_fw.mp4	0.0	182.86755394935608	1.0001530647277832
31	162.20760107040405	pulse	0	t		29.0	2.5	/experiments/knapen_AOT/AOT_stimuli/rescaled_final/1161_fw.mp4	0.0	183.45123314857483	
31	162.6240749359131	movie	1		242	29.0	2.5	/experiments/knapen_AOT/AOT_stimuli/rescaled_final/1161_fw.mp4	0.0	183.86770701408386	2.500540018081665
31	163.80783486366272	pulse	1	t		29.0	2.5	/experiments/knapen_AOT/AOT_stimuli/rescaled_final/1161_fw.mp4	0.0	185.0514669418335	
31	165.12461495399475	fix_post	2		12	29.0	2.5	/experiments/knapen_AOT/AOT_stimuli/rescaled_final/1161_fw.mp4	0.0	186.36824703216553	0.09986305236816406
32	165.22447800636292	fix_pre	0		120	30.0	2.5	/experiments/knapen_AOT/AOT_stimuli/rescaled_final/1225_rv.mp4	0.0	186.4681100845337	1.0001308917999268
32	165.40800285339355	pulse	0	t		30.0	2.5	/experiments/knapen_AOT/AOT_stimuli/rescaled_final/1225_rv.mp4	0.0	186.65163493156433	
32	166.22460889816284	movie	1		243	30.0	2.5	/experiments/knapen_AOT/AOT_stimuli/rescaled_final/1225_rv.mp4	0.0	187.46824097633362	2.5004730224609375
32	167.00823187828064	pulse	1	t		30.0	2.5	/experiments/knapen_AOT/AOT_stimuli/rescaled_final/1225_rv.mp4	0.0	188.25186395645142	
32	168.60852885246277	pulse	1	t		30.0	2.5	/experiments/knapen_AOT/AOT_stimuli/rescaled_final/1225_rv.mp4	0.0	189.85216093063354	
32	168.72508192062378	fix_post	2		12	30.0	2.5	/experiments/knapen_AOT/AOT_stimuli/rescaled_final/1225_rv.mp4	0.0	189.96871399879456	0.09989404678344727
33	168.82497596740723	fix_pre	0		120	31.0	2.5	/experiments/knapen_AOT/AOT_stimuli/rescaled_final/0435_rv.mp4	0.0	190.068608045578	1.0002110004425049
33	169.82518696784973	movie	1		242	31.0	2.5	/experiments/knapen_AOT/AOT_stimuli/rescaled_final/0435_rv.mp4	0.0	191.0688190460205	2.4921510219573975
33	170.20945596694946	pulse	1	t		31.0	2.5	/experiments/knapen_AOT/AOT_stimuli/rescaled_final/0435_rv.mp4	0.0	191.45308804512024	
33	171.80898904800415	pulse	1	t		31.0	2.5	/experiments/knapen_AOT/AOT_stimuli/rescaled_final/0435_rv.mp4	0.0	193.05262112617493	
33	172.31733798980713	fix_post	2		12	31.0	2.5	/experiments/knapen_AOT/AOT_stimuli/rescaled_final/0435_rv.mp4	0.0	193.5609700679779	0.0998530387878418
34	172.41719102859497	fix_pre	0		120	32.0	2.5	/experiments/knapen_AOT/AOT_stimuli/rescaled_final/0936_fw.mp4	0.0	193.66082310676575	1.0001749992370605
34	173.40920400619507	pulse	0	t		32.0	2.5	/experiments/knapen_AOT/AOT_stimuli/rescaled_final/0936_fw.mp4	0.0	194.65283608436584	
34	173.41736602783203	movie	1		244	32.0	2.5	/experiments/knapen_AOT/AOT_stimuli/rescaled_final/0936_fw.mp4	0.0	194.6609981060028	2.508711814880371
34	175.01010084152222	pulse	1	t		32.0	2.5	/experiments/knapen_AOT/AOT_stimuli/rescaled_final/0936_fw.mp4	0.0	196.253732919693	
34	175.9260778427124	fix_post	2		12	32.0	2.5	/experiments/knapen_AOT/AOT_stimuli/rescaled_final/0936_fw.mp4	0.0	197.16970992088318	0.09995818138122559
35	176.02603602409363	fix_pre	0		120	33.0	2.5	blank	1.0	197.2696681022644	1.0001659393310547
35	176.6097960472107	pulse	0	t		33.0	2.5	blank	1.0	197.85342812538147	
35	177.02620196342468	movie	1		300	33.0	2.5	blank	1.0	198.26983404159546	2.5003819465637207
35	178.20990586280823	pulse	1	t		33.0	2.5	blank	1.0	199.453537940979	
35	179.5265839099884	fix_post	2		12	33.0	2.5	blank	1.0	200.77021598815918	0.10008811950683594
36	179.62667202949524	fix_pre	0		118	34.0	2.5	/experiments/knapen_AOT/AOT_stimuli/rescaled_final/1416_rv.mp4	0.0	200.87030410766602	1.0000548362731934
36	179.8101110458374	pulse	0	t		34.0	2.5	/experiments/knapen_AOT/AOT_stimuli/rescaled_final/1416_rv.mp4	0.0	201.05374312400818	
36	180.62672686576843	movie	1		243	34.0	2.5	/experiments/knapen_AOT/AOT_stimuli/rescaled_final/1416_rv.mp4	0.0	201.8703589439392	2.500490188598633
36	181.4104928970337	pulse	1	t		34.0	2.5	/experiments/knapen_AOT/AOT_stimuli/rescaled_final/1416_rv.mp4	0.0	202.65412497520447	
36	183.01043701171875	pulse	1	t		34.0	2.5	/experiments/knapen_AOT/AOT_stimuli/rescaled_final/1416_rv.mp4	0.0	204.25406908988953	
36	183.12721705436707	fix_post	2		11	34.0	2.5	/experiments/knapen_AOT/AOT_stimuli/rescaled_final/1416_rv.mp4	0.0	204.37084913253784	0.09158897399902344
37	183.2188060283661	fix_pre	0		121	35.0	2.5	/experiments/knapen_AOT/AOT_stimuli/rescaled_final/0872_rv.mp4	0.0	204.46243810653687	1.0085139274597168
37	184.2273199558258	movie	1		242	35.0	2.5	/experiments/knapen_AOT/AOT_stimuli/rescaled_final/0872_rv.mp4	0.0	205.47095203399658	2.4921700954437256
37	184.61147499084473	pulse	1	t		35.0	2.5	/experiments/knapen_AOT/AOT_stimuli/rescaled_final/0872_rv.mp4	0.0	205.8551070690155	
37	186.21106004714966	pulse	1	t		35.0	2.5	/experiments/knapen_AOT/AOT_stimuli/rescaled_final/0872_rv.mp4	0.0	207.45469212532043	
37	186.71949005126953	fix_post	2		12	35.0	2.5	/experiments/knapen_AOT/AOT_stimuli/rescaled_final/0872_rv.mp4	0.0	207.9631221294403	0.09987497329711914
38	186.81936502456665	fix_pre	0		120	36.0	2.5	/experiments/knapen_AOT/AOT_stimuli/rescaled_final/0653_fw.mp4	0.0	208.06299710273743	1.0001640319824219
38	187.81131792068481	pulse	0	t		36.0	2.5	/experiments/knapen_AOT/AOT_stimuli/rescaled_final/0653_fw.mp4	0.0	209.0549499988556	
38	187.81952905654907	movie	1		243	36.0	2.5	/experiments/knapen_AOT/AOT_stimuli/rescaled_final/0653_fw.mp4	0.0	209.06316113471985	2.5087218284606934
38	189.412260055542	pulse	1	t		36.0	2.5	/experiments/knapen_AOT/AOT_stimuli/rescaled_final/0653_fw.mp4	0.0	210.65589213371277	
38	190.32825088500977	fix_post	2		12	36.0	2.5	/experiments/knapen_AOT/AOT_stimuli/rescaled_final/0653_fw.mp4	0.0	211.57188296318054	0.0999751091003418
39	190.4282259941101	fix_pre	0		120	37.0	2.5	/experiments/knapen_AOT/AOT_stimuli/rescaled_final/1269_rv.mp4	0.0	211.67185807228088	1.0001919269561768
39	191.01192903518677	pulse	0	t		37.0	2.5	/experiments/knapen_AOT/AOT_stimuli/rescaled_final/1269_rv.mp4	0.0	212.25556111335754	
39	191.42841792106628	movie	1		243	37.0	2.5	/experiments/knapen_AOT/AOT_stimuli/rescaled_final/1269_rv.mp4	0.0	212.67204999923706	2.5003700256347656
39	192.61213493347168	pulse	1	t		37.0	2.5	/experiments/knapen_AOT/AOT_stimuli/rescaled_final/1269_rv.mp4	0.0	213.85576701164246	
39	193.92878794670105	fix_post	2		12	37.0	2.5	/experiments/knapen_AOT/AOT_stimuli/rescaled_final/1269_rv.mp4	0.0	215.17242002487183	0.09995198249816895
40	194.02873992919922	fix_pre	0		120	38.0	2.5	/experiments/knapen_AOT/AOT_stimuli/rescaled_final/0339_fw.mp4	0.0	215.27237200737	1.0001580715179443
40	194.20479488372803	pulse	0	t		38.0	2.5	/experiments/knapen_AOT/AOT_stimuli/rescaled_final/0339_fw.mp4	0.0	215.4484269618988	
40	195.02889800071716	movie	1		244	38.0	2.5	/experiments/knapen_AOT/AOT_stimuli/rescaled_final/0339_fw.mp4	0.0	216.27253007888794	2.500396966934204
40	195.8051300048828	pulse	1	t		38.0	2.5	/experiments/knapen_AOT/AOT_stimuli/rescaled_final/0339_fw.mp4	0.0	217.0487620830536	
40	197.41273093223572	pulse	1	t		38.0	2.5	/experiments/knapen_AOT/AOT_stimuli/rescaled_final/0339_fw.mp4	0.0	218.6563630104065	
40	197.52929496765137	fix_post	2		12	38.0	2.5	/experiments/knapen_AOT/AOT_stimuli/rescaled_final/0339_fw.mp4	0.0	218.77292704582214	0.10001397132873535
41	197.6293089389801	fix_pre	0		119	39.0	2.5	/experiments/knapen_AOT/AOT_stimuli/rescaled_final/0282_rv.mp4	0.0	218.87294101715088	0.9918079376220703
41	198.62111687660217	movie	1		242	39.0	2.5	/experiments/knapen_AOT/AOT_stimuli/rescaled_final/0282_rv.mp4	0.0	219.86474895477295	2.500576972961426
41	199.00516486167908	pulse	1	t		39.0	2.5	/experiments/knapen_AOT/AOT_stimuli/rescaled_final/0282_rv.mp4	0.0	220.24879693984985	
41	200.6048719882965	pulse	1	t		39.0	2.5	/experiments/knapen_AOT/AOT_stimuli/rescaled_final/0282_rv.mp4	0.0	221.84850406646729	
41	201.1216938495636	fix_post	2		12	39.0	2.5	/experiments/knapen_AOT/AOT_stimuli/rescaled_final/0282_rv.mp4	0.0	222.36532592773438	0.09977006912231445
42	201.2214639186859	fix_pre	0		119	40.0	2.5	blank	1.0	222.4650959968567	0.9919359683990479
42	202.2050769329071	pulse	0	t		40.0	2.5	blank	1.0	223.44870901107788	
42	202.21339988708496	movie	1		301	40.0	2.5	blank	1.0	223.45703196525574	2.5086021423339844
42	203.80535197257996	pulse	1	t		40.0	2.5	blank	1.0	225.04898405075073	
42	204.72200202941895	fix_post	2		12	40.0	2.5	blank	1.0	225.96563410758972	0.10000491142272949
43	204.82200694084167	fix_pre	0		120	41.0	2.5	/experiments/knapen_AOT/AOT_stimuli/rescaled_final/0340_fw.mp4	0.0	226.06563901901245	1.000291109085083
43	205.4057469367981	pulse	0	t		41.0	2.5	/experiments/knapen_AOT/AOT_stimuli/rescaled_final/0340_fw.mp4	0.0	226.64937901496887	
43	205.82229804992676	movie	1		243	41.0	2.5	/experiments/knapen_AOT/AOT_stimuli/rescaled_final/0340_fw.mp4	0.0	227.06593012809753	2.500264883041382
43	207.00594806671143	pulse	1	t		41.0	2.5	/experiments/knapen_AOT/AOT_stimuli/rescaled_final/0340_fw.mp4	0.0	228.2495801448822	
43	208.32256293296814	fix_post	2		12	41.0	2.5	/experiments/knapen_AOT/AOT_stimuli/rescaled_final/0340_fw.mp4	0.0	229.56619501113892	0.10006213188171387
44	208.42262506484985	fix_pre	0		120	42.0	2.5	/experiments/knapen_AOT/AOT_stimuli/rescaled_final/0280_rv.mp4	0.0	229.66625714302063	1.000147819519043
44	208.60609006881714	pulse	0	t		42.0	2.5	/experiments/knapen_AOT/AOT_stimuli/rescaled_final/0280_rv.mp4	0.0	229.84972214698792	
44	209.4227728843689	movie	1		242	42.0	2.5	/experiments/knapen_AOT/AOT_stimuli/rescaled_final/0280_rv.mp4	0.0	230.66640496253967	2.500488042831421
44	210.2063329219818	pulse	1	t		42.0	2.5	/experiments/knapen_AOT/AOT_stimuli/rescaled_final/0280_rv.mp4	0.0	231.4499650001526	
44	211.80645084381104	pulse	1	t		42.0	2.5	/experiments/knapen_AOT/AOT_stimuli/rescaled_final/0280_rv.mp4	0.0	233.0500829219818	
44	211.92326092720032	fix_post	2		12	42.0	2.5	/experiments/knapen_AOT/AOT_stimuli/rescaled_final/0280_rv.mp4	0.0	233.1668930053711	0.09985899925231934
45	212.02311992645264	fix_pre	0		119	43.0	2.5	/experiments/knapen_AOT/AOT_stimuli/rescaled_final/0170_rv.mp4	0.0	233.2667520046234	0.9918029308319092
45	213.01492285728455	movie	1		242	43.0	2.5	/experiments/knapen_AOT/AOT_stimuli/rescaled_final/0170_rv.mp4	0.0	234.25855493545532	2.5004940032958984
45	213.4069209098816	pulse	1	t		43.0	2.5	/experiments/knapen_AOT/AOT_stimuli/rescaled_final/0170_rv.mp4	0.0	234.65055298805237	
45	215.0070948600769	pulse	1	t		43.0	2.5	/experiments/knapen_AOT/AOT_stimuli/rescaled_final/0170_rv.mp4	0.0	236.25072693824768	
45	215.51541686058044	fix_post	2		12	43.0	2.5	/experiments/knapen_AOT/AOT_stimuli/rescaled_final/0170_rv.mp4	0.0	236.75904893875122	0.09987497329711914
46	215.61529183387756	fix_pre	0		120	44.0	2.5	/experiments/knapen_AOT/AOT_stimuli/rescaled_final/0734_rv.mp4	0.0	236.85892391204834	1.000218152999878
46	216.60729098320007	pulse	0	t		44.0	2.5	/experiments/knapen_AOT/AOT_stimuli/rescaled_final/0734_rv.mp4	0.0	237.85092306137085	
46	216.61550998687744	movie	1		244	44.0	2.5	/experiments/knapen_AOT/AOT_stimuli/rescaled_final/0734_rv.mp4	0.0	237.85914206504822	2.508676052093506
46	218.20810103416443	pulse	1	t		44.0	2.5	/experiments/knapen_AOT/AOT_stimuli/rescaled_final/0734_rv.mp4	0.0	239.4517331123352	
46	219.12418603897095	fix_post	2		12	44.0	2.5	/experiments/knapen_AOT/AOT_stimuli/rescaled_final/0734_rv.mp4	0.0	240.36781811714172	0.09998393058776855
47	219.22416996955872	fix_pre	0		120	45.0	2.5	/experiments/knapen_AOT/AOT_stimuli/rescaled_final/1814_fw.mp4	0.0	240.4678020477295	1.0002450942993164
47	219.8078908920288	pulse	0	t		45.0	2.5	/experiments/knapen_AOT/AOT_stimuli/rescaled_final/1814_fw.mp4	0.0	241.05152297019958	
47	220.22441506385803	movie	1		243	45.0	2.5	/experiments/knapen_AOT/AOT_stimuli/rescaled_final/1814_fw.mp4	0.0	241.4680471420288	2.500520944595337
47	221.408185005188	pulse	1	t		45.0	2.5	/experiments/knapen_AOT/AOT_stimuli/rescaled_final/1814_fw.mp4	0.0	242.65181708335876	
47	222.72493600845337	fix_post	2		12	45.0	2.5	/experiments/knapen_AOT/AOT_stimuli/rescaled_final/1814_fw.mp4	0.0	243.96856808662415	0.09978103637695312
48	222.82471704483032	fix_pre	0		120	46.0	2.5	/experiments/knapen_AOT/AOT_stimuli/rescaled_final/1875_rv.mp4	0.0	244.0683491230011	1.0001277923583984
48	223.00819396972656	pulse	0	t		46.0	2.5	/experiments/knapen_AOT/AOT_stimuli/rescaled_final/1875_rv.mp4	0.0	244.25182604789734	
48	223.82484483718872	movie	1		242	46.0	2.5	/experiments/knapen_AOT/AOT_stimuli/rescaled_final/1875_rv.mp4	0.0	245.0684769153595	2.500498056411743
48	224.6086130142212	pulse	1	t		46.0	2.5	/experiments/knapen_AOT/AOT_stimuli/rescaled_final/1875_rv.mp4	0.0	245.85224509239197	
48	226.20859694480896	pulse	1	t		46.0	2.5	/experiments/knapen_AOT/AOT_stimuli/rescaled_final/1875_rv.mp4	0.0	247.45222902297974	
48	226.32534289360046	fix_post	2		12	46.0	2.5	/experiments/knapen_AOT/AOT_stimuli/rescaled_final/1875_rv.mp4	0.0	247.56897497177124	0.09991312026977539
49	226.42525601387024	fix_pre	0		119	47.0	2.5	blank	1.0	247.66888809204102	0.9917960166931152
49	227.41705203056335	movie	1		300	47.0	2.5	blank	1.0	248.66068410873413	2.500483989715576
49	227.80910205841064	pulse	1	t		47.0	2.5	blank	1.0	249.05273413658142	
49	229.40924406051636	pulse	1	t		47.0	2.5	blank	1.0	250.65287613868713	
49	229.91753602027893	fix_post	2		12	47.0	2.5	blank	1.0	251.1611680984497	0.09992504119873047
50	230.01746106147766	fix_pre	0		120	48.0	2.5	/experiments/knapen_AOT/AOT_stimuli/rescaled_final/1276_fw.mp4	0.0	251.26109313964844	1.0001249313354492
50	231.0095009803772	pulse	0	t		48.0	2.5	/experiments/knapen_AOT/AOT_stimuli/rescaled_final/1276_fw.mp4	0.0	252.25313305854797	
50	231.0175859928131	movie	1		244	48.0	2.5	/experiments/knapen_AOT/AOT_stimuli/rescaled_final/1276_fw.mp4	0.0	252.2612180709839	2.5088038444519043
50	232.61016297340393	pulse	1	t		48.0	2.5	/experiments/knapen_AOT/AOT_stimuli/rescaled_final/1276_fw.mp4	0.0	253.8537950515747	
50	233.52638983726501	fix_post	2		12	48.0	2.5	/experiments/knapen_AOT/AOT_stimuli/rescaled_final/1276_fw.mp4	0.0	254.7700219154358	0.09996700286865234
51	233.62635684013367	fix_pre	0		120	49.0	2.5	/experiments/knapen_AOT/AOT_stimuli/rescaled_final/1468_fw.mp4	0.0	254.86998891830444	1.0001940727233887
51	234.2099289894104	pulse	0	t		49.0	2.5	/experiments/knapen_AOT/AOT_stimuli/rescaled_final/1468_fw.mp4	0.0	255.45356106758118	
51	234.62655091285706	movie	1		242	49.0	2.5	/experiments/knapen_AOT/AOT_stimuli/rescaled_final/1468_fw.mp4	0.0	255.87018299102783	2.500483989715576
51	235.81033897399902	pulse	1	t		49.0	2.5	/experiments/knapen_AOT/AOT_stimuli/rescaled_final/1468_fw.mp4	0.0	257.0539710521698	
51	237.12703490257263	fix_post	2		12	49.0	2.5	/experiments/knapen_AOT/AOT_stimuli/rescaled_final/1468_fw.mp4	0.0	258.3706669807434	0.09990501403808594
52	237.22693991661072	fix_pre	0		120	50.0	2.5	/experiments/knapen_AOT/AOT_stimuli/rescaled_final/1158_fw.mp4	0.0	258.4705719947815	1.0000779628753662
52	237.41039896011353	pulse	0	t		50.0	2.5	/experiments/knapen_AOT/AOT_stimuli/rescaled_final/1158_fw.mp4	0.0	258.6540310382843	
52	238.22701787948608	movie	1		243	50.0	2.5	/experiments/knapen_AOT/AOT_stimuli/rescaled_final/1158_fw.mp4	0.0	259.47064995765686	2.500499963760376
52	239.0106430053711	pulse	1	t		50.0	2.5	/experiments/knapen_AOT/AOT_stimuli/rescaled_final/1158_fw.mp4	0.0	260.25427508354187	
52	240.6108100414276	pulse	1	t		50.0	2.5	/experiments/knapen_AOT/AOT_stimuli/rescaled_final/1158_fw.mp4	0.0	261.8544421195984	
52	240.72751784324646	fix_post	2		12	50.0	2.5	/experiments/knapen_AOT/AOT_stimuli/rescaled_final/1158_fw.mp4	0.0	261.97114992141724	0.09992599487304688
53	240.8274438381195	fix_pre	0		120	51.0	2.5	/experiments/knapen_AOT/AOT_stimuli/rescaled_final/1416_fw.mp4	0.0	262.0710759162903	1.0001451969146729
53	241.82758903503418	movie	1		238	51.0	2.5	/experiments/knapen_AOT/AOT_stimuli/rescaled_final/1416_fw.mp4	0.0	263.07122111320496	2.492137908935547
53	242.21174502372742	pulse	1	t		51.0	2.5	/experiments/knapen_AOT/AOT_stimuli/rescaled_final/1416_fw.mp4	0.0	263.4553771018982	
53	243.81139087677002	pulse	1	t		51.0	2.5	/experiments/knapen_AOT/AOT_stimuli/rescaled_final/1416_fw.mp4	0.0	265.0550229549408	
53	244.31972694396973	fix_post	2		12	51.0	2.5	/experiments/knapen_AOT/AOT_stimuli/rescaled_final/1416_fw.mp4	0.0	265.5633590221405	0.09998893737792969
54	244.41971588134766	fix_pre	0		120	52.0	2.5	/experiments/knapen_AOT/AOT_stimuli/rescaled_final/0713_fw.mp4	0.0	265.66334795951843	1.0000150203704834
54	245.41166806221008	pulse	0	t		52.0	2.5	/experiments/knapen_AOT/AOT_stimuli/rescaled_final/0713_fw.mp4	0.0	266.65530014038086	
54	245.41973090171814	movie	1		245	52.0	2.5	/experiments/knapen_AOT/AOT_stimuli/rescaled_final/0713_fw.mp4	0.0	266.6633629798889	2.508744955062866
54	247.01268005371094	pulse	1	t		52.0	2.5	/experiments/knapen_AOT/AOT_stimuli/rescaled_final/0713_fw.mp4	0.0	268.2563121318817	
54	247.928475856781	fix_post	2		12	52.0	2.5	/experiments/knapen_AOT/AOT_stimuli/rescaled_final/0713_fw.mp4	0.0	269.1721079349518	0.1000051498413086
55	248.02848100662231	fix_pre	0		120	53.0	2.5	/experiments/knapen_AOT/AOT_stimuli/rescaled_final/0021_rv.mp4	0.0	269.2721130847931	1.0002670288085938
55	248.61213898658752	pulse	0	t		53.0	2.5	/experiments/knapen_AOT/AOT_stimuli/rescaled_final/0021_rv.mp4	0.0	269.8557710647583	
55	249.0287480354309	movie	1		243	53.0	2.5	/experiments/knapen_AOT/AOT_stimuli/rescaled_final/0021_rv.mp4	0.0	270.2723801136017	2.500372886657715
55	250.20861792564392	pulse	1	t		53.0	2.5	/experiments/knapen_AOT/AOT_stimuli/rescaled_final/0021_rv.mp4	0.0	271.4522500038147	
55	251.52912092208862	fix_post	2		12	53.0	2.5	/experiments/knapen_AOT/AOT_stimuli/rescaled_final/0021_rv.mp4	0.0	272.7727530002594	0.09986591339111328
56	251.62898683547974	fix_pre	0		120	54.0	2.5	/experiments/knapen_AOT/AOT_stimuli/rescaled_final/1749_rv.mp4	0.0	272.8726189136505	1.0001771450042725
56	251.8126208782196	pulse	0	t		54.0	2.5	/experiments/knapen_AOT/AOT_stimuli/rescaled_final/1749_rv.mp4	0.0	273.0562529563904	
56	252.629163980484	movie	1		242	54.0	2.5	/experiments/knapen_AOT/AOT_stimuli/rescaled_final/1749_rv.mp4	0.0	273.8727960586548	2.5005929470062256
56	253.4054570198059	pulse	1	t		54.0	2.5	/experiments/knapen_AOT/AOT_stimuli/rescaled_final/1749_rv.mp4	0.0	274.6490890979767	
56	255.0129668712616	pulse	1	t		54.0	2.5	/experiments/knapen_AOT/AOT_stimuli/rescaled_final/1749_rv.mp4	0.0	276.2565989494324	
56	255.12975692749023	fix_post	2		12	54.0	2.5	/experiments/knapen_AOT/AOT_stimuli/rescaled_final/1749_rv.mp4	0.0	276.373389005661	0.09981608390808105
57	255.22957301139832	fix_pre	0		120	55.0	2.5	/experiments/knapen_AOT/AOT_stimuli/rescaled_final/0477_fw.mp4	0.0	276.4732050895691	1.0001840591430664
57	256.2297570705414	movie	1		242	55.0	2.5	/experiments/knapen_AOT/AOT_stimuli/rescaled_final/0477_fw.mp4	0.0	277.47338914871216	2.4921979904174805
57	256.6138298511505	pulse	1	t		55.0	2.5	/experiments/knapen_AOT/AOT_stimuli/rescaled_final/0477_fw.mp4	0.0	277.8574619293213	
57	258.2061870098114	pulse	1	t		55.0	2.5	/experiments/knapen_AOT/AOT_stimuli/rescaled_final/0477_fw.mp4	0.0	279.4498190879822	
57	258.72195506095886	fix_post	2		12	55.0	2.5	/experiments/knapen_AOT/AOT_stimuli/rescaled_final/0477_fw.mp4	0.0	279.96558713912964	0.09987688064575195
58	258.8218319416046	fix_pre	0		119	56.0	2.5	blank	1.0	280.0654640197754	0.9917190074920654
58	259.80538606643677	pulse	0	t		56.0	2.5	blank	1.0	281.04901814460754	
58	259.8135509490967	movie	1		301	56.0	2.5	blank	1.0	281.05718302726746	2.5087380409240723
58	261.40561985969543	pulse	1	t		56.0	2.5	blank	1.0	282.6492519378662	
58	262.32228899002075	fix_post	2		12	56.0	2.5	blank	1.0	283.5659210681915	0.10005497932434082
59	262.4223439693451	fix_pre	0		120	57.0	2.5	/experiments/knapen_AOT/AOT_stimuli/rescaled_final/0618_rv.mp4	0.0	283.66597604751587	1.0001568794250488
59	263.0059690475464	pulse	0	t		57.0	2.5	/experiments/knapen_AOT/AOT_stimuli/rescaled_final/0618_rv.mp4	0.0	284.24960112571716	
59	263.42250084877014	movie	1		245	57.0	2.5	/experiments/knapen_AOT/AOT_stimuli/rescaled_final/0618_rv.mp4	0.0	284.6661329269409	2.5004332065582275
59	264.6062078475952	pulse	1	t		57.0	2.5	/experiments/knapen_AOT/AOT_stimuli/rescaled_final/0618_rv.mp4	0.0	285.849839925766	
59	265.92293405532837	fix_post	2		12	57.0	2.5	/experiments/knapen_AOT/AOT_stimuli/rescaled_final/0618_rv.mp4	0.0	287.16656613349915	0.09998393058776855
60	266.02291798591614	fix_pre	0		120	58.0	2.5	/experiments/knapen_AOT/AOT_stimuli/rescaled_final/0125_fw.mp4	0.0	287.2665500640869	1.0000560283660889
60	266.2064459323883	pulse	0	t		58.0	2.5	/experiments/knapen_AOT/AOT_stimuli/rescaled_final/0125_fw.mp4	0.0	287.4500780105591	
60	267.0229740142822	movie	1		242	58.0	2.5	/experiments/knapen_AOT/AOT_stimuli/rescaled_final/0125_fw.mp4	0.0	288.266606092453	2.500546932220459
60	267.8066740036011	pulse	1	t		58.0	2.5	/experiments/knapen_AOT/AOT_stimuli/rescaled_final/0125_fw.mp4	0.0	289.05030608177185	
60	269.4075849056244	pulse	1	t		58.0	2.5	/experiments/knapen_AOT/AOT_stimuli/rescaled_final/0125_fw.mp4	0.0	290.65121698379517	
60	269.5235209465027	fix_post	2		12	58.0	2.5	/experiments/knapen_AOT/AOT_stimuli/rescaled_final/0125_fw.mp4	0.0	290.76715302467346	0.09987401962280273
61	269.6233949661255	fix_pre	0		120	59.0	2.5	/experiments/knapen_AOT/AOT_stimuli/rescaled_final/1279_fw.mp4	0.0	290.86702704429626	1.000143051147461
61	270.62353801727295	movie	1		242	59.0	2.5	/experiments/knapen_AOT/AOT_stimuli/rescaled_final/1279_fw.mp4	0.0	291.8671700954437	2.492194890975952
61	271.00777888298035	pulse	1	t		59.0	2.5	/experiments/knapen_AOT/AOT_stimuli/rescaled_final/1279_fw.mp4	0.0	292.2514109611511	
61	272.60732102394104	pulse	1	t		59.0	2.5	/experiments/knapen_AOT/AOT_stimuli/rescaled_final/1279_fw.mp4	0.0	293.8509531021118	
61	273.1157329082489	fix_post	2		12	59.0	2.5	/experiments/knapen_AOT/AOT_stimuli/rescaled_final/1279_fw.mp4	0.0	294.3593649864197	0.09988808631896973
62	273.21562099456787	fix_pre	0		120	60.0	2.5	/experiments/knapen_AOT/AOT_stimuli/rescaled_final/0256_rv.mp4	0.0	294.45925307273865	1.0000860691070557
62	274.2075209617615	pulse	0	t		60.0	2.5	/experiments/knapen_AOT/AOT_stimuli/rescaled_final/0256_rv.mp4	0.0	295.45115303993225	
62	274.2157070636749	movie	1		243	60.0	2.5	/experiments/knapen_AOT/AOT_stimuli/rescaled_final/0256_rv.mp4	0.0	295.4593391418457	2.50882887840271
62	275.80844593048096	pulse	1	t		60.0	2.5	/experiments/knapen_AOT/AOT_stimuli/rescaled_final/0256_rv.mp4	0.0	297.05207800865173	
62	276.72453594207764	fix_post	2		12	60.0	2.5	/experiments/knapen_AOT/AOT_stimuli/rescaled_final/0256_rv.mp4	0.0	297.9681680202484	0.0999751091003418
63	276.824511051178	fix_pre	0		120	61.0	2.5	/experiments/knapen_AOT/AOT_stimuli/rescaled_final/1373_fw.mp4	0.0	298.06814312934875	1.000121831893921
63	277.4080379009247	pulse	0	t		61.0	2.5	/experiments/knapen_AOT/AOT_stimuli/rescaled_final/1373_fw.mp4	0.0	298.65166997909546	
63	277.8246328830719	movie	1		242	61.0	2.5	/experiments/knapen_AOT/AOT_stimuli/rescaled_final/1373_fw.mp4	0.0	299.0682649612427	2.5004639625549316
63	279.00844407081604	pulse	1	t		61.0	2.5	/experiments/knapen_AOT/AOT_stimuli/rescaled_final/1373_fw.mp4	0.0	300.2520761489868	
63	280.32509684562683	fix_post	2		12	61.0	2.5	/experiments/knapen_AOT/AOT_stimuli/rescaled_final/1373_fw.mp4	0.0	301.5687289237976	0.09990406036376953
64	280.4250009059906	fix_pre	0		120	62.0	2.5	/experiments/knapen_AOT/AOT_stimuli/rescaled_final/1534_rv.mp4	0.0	301.6686329841614	1.000108003616333
64	280.6086218357086	pulse	0	t		62.0	2.5	/experiments/knapen_AOT/AOT_stimuli/rescaled_final/1534_rv.mp4	0.0	301.8522539138794	
64	281.42510890960693	movie	1		242	62.0	2.5	/experiments/knapen_AOT/AOT_stimuli/rescaled_final/1534_rv.mp4	0.0	302.6687409877777	2.5005991458892822
64	282.20884895324707	pulse	1	t		62.0	2.5	/experiments/knapen_AOT/AOT_stimuli/rescaled_final/1534_rv.mp4	0.0	303.45248103141785	
64	283.8089509010315	pulse	1	t		62.0	2.5	/experiments/knapen_AOT/AOT_stimuli/rescaled_final/1534_rv.mp4	0.0	305.05258297920227	
64	283.9257080554962	fix_post	2		12	62.0	2.5	/experiments/knapen_AOT/AOT_stimuli/rescaled_final/1534_rv.mp4	0.0	305.169340133667	0.09986591339111328
65	284.02557396888733	fix_pre	0		120	63.0	2.5	blank	1.0	305.2692060470581	1.0001308917999268
65	285.02570486068726	movie	1		299	63.0	2.5	blank	1.0	306.26933693885803	2.4920220375061035
65	285.4091958999634	pulse	1	t		63.0	2.5	blank	1.0	306.65282797813416	
65	287.0095520019531	pulse	1	t		63.0	2.5	blank	1.0	308.2531840801239	
65	287.51772689819336	fix_post	2		12	63.0	2.5	blank	1.0	308.76135897636414	0.10005712509155273
66	287.6177840232849	fix_pre	0		120	64.0	2.5	/experiments/knapen_AOT/AOT_stimuli/rescaled_final/1471_fw.mp4	0.0	308.8614161014557	1.0000879764556885
66	288.60983896255493	pulse	0	t		64.0	2.5	/experiments/knapen_AOT/AOT_stimuli/rescaled_final/1471_fw.mp4	0.0	309.8534710407257	
66	288.6178719997406	movie	1		243	64.0	2.5	/experiments/knapen_AOT/AOT_stimuli/rescaled_final/1471_fw.mp4	0.0	309.8615040779114	2.508744955062866
66	290.21057200431824	pulse	1	t		64.0	2.5	/experiments/knapen_AOT/AOT_stimuli/rescaled_final/1471_fw.mp4	0.0	311.454204082489	
66	291.12661695480347	fix_post	2		12	64.0	2.5	/experiments/knapen_AOT/AOT_stimuli/rescaled_final/1471_fw.mp4	0.0	312.37024903297424	0.09994888305664062
67	291.2265658378601	fix_pre	0		120	65.0	2.5	/experiments/knapen_AOT/AOT_stimuli/rescaled_final/0533_fw.mp4	0.0	312.4701979160309	1.0002110004425049
67	291.81017303466797	pulse	0	t		65.0	2.5	/experiments/knapen_AOT/AOT_stimuli/rescaled_final/0533_fw.mp4	0.0	313.05380511283875	
67	292.2267768383026	movie	1		243	65.0	2.5	/experiments/knapen_AOT/AOT_stimuli/rescaled_final/0533_fw.mp4	0.0	313.4704089164734	2.50045108795166
67	293.4105679988861	pulse	1	t		65.0	2.5	/experiments/knapen_AOT/AOT_stimuli/rescaled_final/0533_fw.mp4	0.0	314.6542000770569	
67	294.7272279262543	fix_post	2		12	65.0	2.5	/experiments/knapen_AOT/AOT_stimuli/rescaled_final/0533_fw.mp4	0.0	315.97086000442505	0.10004305839538574
68	294.82727098464966	fix_pre	0		120	66.0	2.5	/experiments/knapen_AOT/AOT_stimuli/rescaled_final/0211_fw.mp4	0.0	316.07090306282043	1.0001170635223389
68	295.0106909275055	pulse	0	t		66.0	2.5	/experiments/knapen_AOT/AOT_stimuli/rescaled_final/0211_fw.mp4	0.0	316.25432300567627	
68	295.827388048172	movie	1		243	66.0	2.5	/experiments/knapen_AOT/AOT_stimuli/rescaled_final/0211_fw.mp4	0.0	317.0710201263428	2.5004918575286865
68	296.61105704307556	pulse	1	t		66.0	2.5	/experiments/knapen_AOT/AOT_stimuli/rescaled_final/0211_fw.mp4	0.0	317.85468912124634	
68	298.211021900177	pulse	1	t		66.0	2.5	/experiments/knapen_AOT/AOT_stimuli/rescaled_final/0211_fw.mp4	0.0	319.4546539783478	
68	298.3278799057007	fix_post	2		12	66.0	2.5	/experiments/knapen_AOT/AOT_stimuli/rescaled_final/0211_fw.mp4	0.0	319.57151198387146	0.0998380184173584
69	298.42771792411804	fix_pre	0		120	67.0	2.5	/experiments/knapen_AOT/AOT_stimuli/rescaled_final/1878_fw.mp4	0.0	319.6713500022888	1.000154972076416
69	299.42787289619446	movie	1		243	67.0	2.5	/experiments/knapen_AOT/AOT_stimuli/rescaled_final/1878_fw.mp4	0.0	320.67150497436523	2.4919650554656982
69	299.81180906295776	pulse	1	t		67.0	2.5	/experiments/knapen_AOT/AOT_stimuli/rescaled_final/1878_fw.mp4	0.0	321.05544114112854	
69	301.4117360115051	pulse	1	t		67.0	2.5	/experiments/knapen_AOT/AOT_stimuli/rescaled_final/1878_fw.mp4	0.0	322.6553680896759	
69	301.91983795166016	fix_post	2		12	67.0	2.5	/experiments/knapen_AOT/AOT_stimuli/rescaled_final/1878_fw.mp4	0.0	323.16347002983093	0.10004091262817383
70	302.01987886428833	fix_pre	0		120	68.0	2.5	blank	1.0	323.2635109424591	1.0001230239868164
70	303.0119528770447	pulse	0	t		68.0	2.5	blank	1.0	324.25558495521545	
70	303.02000188827515	movie	1		301	68.0	2.5	blank	1.0	324.2636339664459	2.5087809562683105
70	304.61213183403015	pulse	1	t		68.0	2.5	blank	1.0	325.8557639122009	
70	305.52878284454346	fix_post	2		10	68.0	2.5	blank	1.0	326.77241492271423	0.09998512268066406
71	305.6287679672241	fix_pre	0		120	69.0	2.5	/experiments/knapen_AOT/AOT_stimuli/rescaled_final/0408_rv.mp4	0.0	326.8724000453949	1.000190019607544
71	306.2048308849335	pulse	0	t		69.0	2.5	/experiments/knapen_AOT/AOT_stimuli/rescaled_final/0408_rv.mp4	0.0	327.44846296310425	
71	306.62895798683167	movie	1		243	69.0	2.5	/experiments/knapen_AOT/AOT_stimuli/rescaled_final/0408_rv.mp4	0.0	327.87259006500244	2.500443935394287
71	307.8085079193115	pulse	1	t		69.0	2.5	/experiments/knapen_AOT/AOT_stimuli/rescaled_final/0408_rv.mp4	0.0	329.0521399974823	
71	309.12940192222595	fix_post	2		12	69.0	2.5	/experiments/knapen_AOT/AOT_stimuli/rescaled_final/0408_rv.mp4	0.0	330.37303400039673	0.0999751091003418
72	309.2293770313263	fix_pre	0		120	70.0	2.5	/experiments/knapen_AOT/AOT_stimuli/rescaled_final/0256_fw.mp4	0.0	330.47300910949707	1.0000848770141602
72	309.4054388999939	pulse	0	t		70.0	2.5	/experiments/knapen_AOT/AOT_stimuli/rescaled_final/0256_fw.mp4	0.0	330.6490709781647	
72	310.22946190834045	movie	1		242	70.0	2.5	/experiments/knapen_AOT/AOT_stimuli/rescaled_final/0256_fw.mp4	0.0	331.47309398651123	2.5004870891571045
72	311.00562286376953	pulse	1	t		70.0	2.5	/experiments/knapen_AOT/AOT_stimuli/rescaled_final/0256_fw.mp4	0.0	332.2492549419403	
72	312.60511088371277	pulse	1	t		70.0	2.5	/experiments/knapen_AOT/AOT_stimuli/rescaled_final/0256_fw.mp4	0.0	333.84874296188354	
72	312.72994899749756	fix_post	2		12	70.0	2.5	/experiments/knapen_AOT/AOT_stimuli/rescaled_final/0256_fw.mp4	0.0	333.97358107566833	0.09987902641296387
73	312.8298280239105	fix_pre	0		120	71.0	2.5	/experiments/knapen_AOT/AOT_stimuli/rescaled_final/1336_fw.mp4	0.0	334.0734601020813	1.000152826309204
73	313.8299808502197	movie	1		242	71.0	2.5	/experiments/knapen_AOT/AOT_stimuli/rescaled_final/1336_fw.mp4	0.0	335.0736129283905	2.4920132160186768
73	314.20517086982727	pulse	1	t		71.0	2.5	/experiments/knapen_AOT/AOT_stimuli/rescaled_final/1336_fw.mp4	0.0	335.44880294799805	
73	315.8054530620575	pulse	1	t		71.0	2.5	/experiments/knapen_AOT/AOT_stimuli/rescaled_final/1336_fw.mp4	0.0	337.04908514022827	
73	316.3219940662384	fix_post	2		12	71.0	2.5	/experiments/knapen_AOT/AOT_stimuli/rescaled_final/1336_fw.mp4	0.0	337.5656261444092	0.10002994537353516
74	316.42202401161194	fix_pre	0		119	72.0	2.5	/experiments/knapen_AOT/AOT_stimuli/rescaled_final/0284_fw.mp4	0.0	337.6656560897827	0.9919319152832031
74	317.40570306777954	pulse	0	t		72.0	2.5	/experiments/knapen_AOT/AOT_stimuli/rescaled_final/0284_fw.mp4	0.0	338.6493351459503	
74	317.41395592689514	movie	1		243	72.0	2.5	/experiments/knapen_AOT/AOT_stimuli/rescaled_final/0284_fw.mp4	0.0	338.6575880050659	2.5086231231689453
74	319.0073969364166	pulse	1	t		72.0	2.5	/experiments/knapen_AOT/AOT_stimuli/rescaled_final/0284_fw.mp4	0.0	340.2510290145874	
74	319.9225790500641	fix_post	2		12	72.0	2.5	/experiments/knapen_AOT/AOT_stimuli/rescaled_final/0284_fw.mp4	0.0	341.16621112823486	0.10004281997680664
75	320.0226218700409	fix_pre	0		120	73.0	2.5	/experiments/knapen_AOT/AOT_stimuli/rescaled_final/0666_fw.mp4	0.0	341.26625394821167	1.000157117843628
75	320.60616087913513	pulse	0	t		73.0	2.5	/experiments/knapen_AOT/AOT_stimuli/rescaled_final/0666_fw.mp4	0.0	341.8497929573059	
75	321.0227789878845	movie	1		242	73.0	2.5	/experiments/knapen_AOT/AOT_stimuli/rescaled_final/0666_fw.mp4	0.0	342.2664110660553	2.5004050731658936
75	322.2064108848572	pulse	1	t		73.0	2.5	/experiments/knapen_AOT/AOT_stimuli/rescaled_final/0666_fw.mp4	0.0	343.45004296302795	
75	323.5231840610504	fix_post	2		12	73.0	2.5	/experiments/knapen_AOT/AOT_stimuli/rescaled_final/0666_fw.mp4	0.0	344.7668161392212	0.09990191459655762
76	323.623085975647	fix_pre	0		120	74.0	2.5	/experiments/knapen_AOT/AOT_stimuli/rescaled_final/0832_fw.mp4	0.0	344.86671805381775	1.000236988067627
76	323.8066608905792	pulse	0	t		74.0	2.5	/experiments/knapen_AOT/AOT_stimuli/rescaled_final/0832_fw.mp4	0.0	345.05029296875	
76	324.6233229637146	movie	1		243	74.0	2.5	/experiments/knapen_AOT/AOT_stimuli/rescaled_final/0832_fw.mp4	0.0	345.8669550418854	2.5005850791931152
76	325.40699791908264	pulse	1	t		74.0	2.5	/experiments/knapen_AOT/AOT_stimuli/rescaled_final/0832_fw.mp4	0.0	346.6506299972534	
76	327.00696301460266	pulse	1	t		74.0	2.5	/experiments/knapen_AOT/AOT_stimuli/rescaled_final/0832_fw.mp4	0.0	348.25059509277344	
76	327.1239080429077	fix_post	2		12	74.0	2.5	/experiments/knapen_AOT/AOT_stimuli/rescaled_final/0832_fw.mp4	0.0	348.3675401210785	0.09975886344909668
77	327.2236669063568	fix_pre	0		120	75.0	2.5	blank	1.0	348.4672989845276	1.000128984451294
77	328.2237958908081	movie	1		299	75.0	2.5	blank	1.0	349.4674279689789	2.4920260906219482
77	328.6074080467224	pulse	1	t		75.0	2.5	blank	1.0	349.8510401248932	
77	330.2075798511505	pulse	1	t		75.0	2.5	blank	1.0	351.4512119293213	
77	330.71582198143005	fix_post	2		12	75.0	2.5	blank	1.0	351.95945405960083	0.10007905960083008
78	330.8159010410309	fix_pre	0		120	76.0	2.5	/experiments/knapen_AOT/AOT_stimuli/rescaled_final/2053_fw.mp4	0.0	352.05953311920166	1.0000948905944824
78	331.8078360557556	pulse	0	t		76.0	2.5	/experiments/knapen_AOT/AOT_stimuli/rescaled_final/2053_fw.mp4	0.0	353.0514681339264	
78	331.81599593162537	movie	1		244	76.0	2.5	/experiments/knapen_AOT/AOT_stimuli/rescaled_final/2053_fw.mp4	0.0	353.05962800979614	2.50887393951416
78	333.4086740016937	pulse	1	t		76.0	2.5	/experiments/knapen_AOT/AOT_stimuli/rescaled_final/2053_fw.mp4	0.0	354.6523060798645	
78	334.3248698711395	fix_post	2		12	76.0	2.5	/experiments/knapen_AOT/AOT_stimuli/rescaled_final/2053_fw.mp4	0.0	355.5685019493103	0.09994101524353027
79	334.42481088638306	fix_pre	0		120	77.0	2.5	/experiments/knapen_AOT/AOT_stimuli/rescaled_final/1942_fw.mp4	0.0	355.66844296455383	1.0000791549682617
79	335.0082769393921	pulse	0	t		77.0	2.5	/experiments/knapen_AOT/AOT_stimuli/rescaled_final/1942_fw.mp4	0.0	356.25190901756287	
79	335.4248900413513	movie	1		242	77.0	2.5	/experiments/knapen_AOT/AOT_stimuli/rescaled_final/1942_fw.mp4	0.0	356.6685221195221	2.500408887863159
79	336.60872888565063	pulse	1	t		77.0	2.5	/experiments/knapen_AOT/AOT_stimuli/rescaled_final/1942_fw.mp4	0.0	357.8523609638214	
79	337.9252989292145	fix_post	2		12	77.0	2.5	/experiments/knapen_AOT/AOT_stimuli/rescaled_final/1942_fw.mp4	0.0	359.16893100738525	0.10004997253417969
80	338.02534890174866	fix_pre	0		120	78.0	2.5	/experiments/knapen_AOT/AOT_stimuli/rescaled_final/0655_rv.mp4	0.0	359.26898097991943	1.000040054321289
80	338.20889592170715	pulse	0	t		78.0	2.5	/experiments/knapen_AOT/AOT_stimuli/rescaled_final/0655_rv.mp4	0.0	359.45252799987793	
80	339.02538895606995	movie	1		244	78.0	2.5	/experiments/knapen_AOT/AOT_stimuli/rescaled_final/0655_rv.mp4	0.0	360.2690210342407	2.500359058380127
80	339.80912804603577	pulse	1	t		78.0	2.5	/experiments/knapen_AOT/AOT_stimuli/rescaled_final/0655_rv.mp4	0.0	361.05276012420654	
80	341.4093680381775	pulse	1	t		78.0	2.5	/experiments/knapen_AOT/AOT_stimuli/rescaled_final/0655_rv.mp4	0.0	362.65300011634827	
80	341.5257480144501	fix_post	2		12	78.0	2.5	/experiments/knapen_AOT/AOT_stimuli/rescaled_final/0655_rv.mp4	0.0	362.76938009262085	0.10004281997680664
81	341.6257908344269	fix_pre	0		120	79.0	2.5	/experiments/knapen_AOT/AOT_stimuli/rescaled_final/0017_fw.mp4	0.0	362.86942291259766	1.0001351833343506
81	342.62592601776123	movie	1		243	79.0	2.5	/experiments/knapen_AOT/AOT_stimuli/rescaled_final/0017_fw.mp4	0.0	363.869558095932	2.492090940475464
81	343.0101339817047	pulse	1	t		79.0	2.5	/experiments/knapen_AOT/AOT_stimuli/rescaled_final/0017_fw.mp4	0.0	364.2537660598755	
81	344.6097948551178	pulse	1	t		79.0	2.5	/experiments/knapen_AOT/AOT_stimuli/rescaled_final/0017_fw.mp4	0.0	365.8534269332886	
81	345.1180169582367	fix_post	2		12	79.0	2.5	/experiments/knapen_AOT/AOT_stimuli/rescaled_final/0017_fw.mp4	0.0	366.36164903640747	0.09995007514953613
82	345.21796703338623	fix_pre	0		120	80.0	2.5	/experiments/knapen_AOT/AOT_stimuli/rescaled_final/1693_fw.mp4	0.0	366.461599111557	1.0001449584960938
82	346.21000504493713	pulse	0	t		80.0	2.5	/experiments/knapen_AOT/AOT_stimuli/rescaled_final/1693_fw.mp4	0.0	367.4536371231079	
82	346.2181119918823	movie	1		245	80.0	2.5	/experiments/knapen_AOT/AOT_stimuli/rescaled_final/1693_fw.mp4	0.0	367.4617440700531	2.5087640285491943
82	347.81076884269714	pulse	1	t		80.0	2.5	/experiments/knapen_AOT/AOT_stimuli/rescaled_final/1693_fw.mp4	0.0	369.0544009208679	
82	348.7268760204315	fix_post	2		12	80.0	2.5	/experiments/knapen_AOT/AOT_stimuli/rescaled_final/1693_fw.mp4	0.0	369.9705080986023	0.10002803802490234
83	348.8269040584564	fix_pre	0		120	81.0	2.5	/experiments/knapen_AOT/AOT_stimuli/rescaled_final/1726_rv.mp4	0.0	370.0705361366272	1.000128984451294
83	349.4105658531189	pulse	0	t		81.0	2.5	/experiments/knapen_AOT/AOT_stimuli/rescaled_final/1726_rv.mp4	0.0	370.6541979312897	
83	349.8270330429077	movie	1		242	81.0	2.5	/experiments/knapen_AOT/AOT_stimuli/rescaled_final/1726_rv.mp4	0.0	371.0706651210785	2.5006139278411865
83	351.01084995269775	pulse	1	t		81.0	2.5	/experiments/knapen_AOT/AOT_stimuli/rescaled_final/1726_rv.mp4	0.0	372.25448203086853	
83	352.3276469707489	fix_post	2		12	81.0	2.5	/experiments/knapen_AOT/AOT_stimuli/rescaled_final/1726_rv.mp4	0.0	373.5712790489197	0.09982490539550781
84	352.4274718761444	fix_pre	0		120	82.0	2.5	/experiments/knapen_AOT/AOT_stimuli/rescaled_final/1295_fw.mp4	0.0	373.6711039543152	1.0000779628753662
84	352.6109809875488	pulse	0	t		82.0	2.5	/experiments/knapen_AOT/AOT_stimuli/rescaled_final/1295_fw.mp4	0.0	373.8546130657196	
84	353.4275498390198	movie	1		243	82.0	2.5	/experiments/knapen_AOT/AOT_stimuli/rescaled_final/1295_fw.mp4	0.0	374.67118191719055	2.500479221343994
84	354.2111189365387	pulse	1	t		82.0	2.5	/experiments/knapen_AOT/AOT_stimuli/rescaled_final/1295_fw.mp4	0.0	375.4547510147095	
84	355.8112750053406	pulse	1	t		82.0	2.5	/experiments/knapen_AOT/AOT_stimuli/rescaled_final/1295_fw.mp4	0.0	377.05490708351135	
84	355.92802906036377	fix_post	2		12	82.0	2.5	/experiments/knapen_AOT/AOT_stimuli/rescaled_final/1295_fw.mp4	0.0	377.17166113853455	0.09990692138671875
85	356.0279359817505	fix_pre	0		120	83.0	2.5	blank	1.0	377.27156805992126	1.0001349449157715
85	357.02807092666626	movie	1		299	83.0	2.5	blank	1.0	378.27170300483704	2.4920411109924316
85	357.41163992881775	pulse	1	t		83.0	2.5	blank	1.0	378.6552720069885	
85	359.0119090080261	pulse	1	t		83.0	2.5	blank	1.0	380.2555410861969	
85	359.5201120376587	fix_post	2		12	83.0	2.5	blank	1.0	380.76374411582947	0.1000368595123291
87	359.620148897171	stim	0		1716					380.8637809753418	14.302211046218872
87	360.6120948791504	pulse	0	t						381.85572695732117	
87	362.21241092681885	pulse	0	t						383.4560430049896	
87	363.8127119541168	pulse	0	t						385.0563440322876	
87	365.40555787086487	pulse	0	t						386.64918994903564	
87	367.00572896003723	pulse	0	t						388.249361038208	
87	368.6059398651123	pulse	0	t						389.8495719432831	
87	370.20609283447266	pulse	0	t						391.44972491264343	
87	371.8063678741455	pulse	0	t						393.0499999523163	
87	373.4058129787445	pulse	0	t						394.6494450569153	
