trial_nr	onset	event_type	phase	response	nr_frames	movie_index	movie_duration	movie_file	blank	onset_abs	duration
0	0.14998483657836914	stim	0		115					26.614266872406006	0.9582400321960449
0	1.0929570198059082	response	0	space						27.557239055633545	
1	1.108224868774414	stim	0		12912					27.57250690460205	107.59953212738037
1	108.70341682434082	pulse	0	t						135.16769886016846	
1	108.70775699615479	stim	1		1717					135.17203903198242	14.308210849761963
1	110.29973101615906	pulse	1	t						136.7640130519867	
1	111.89952898025513	pulse	1	t						138.36381101608276	
1	113.49956488609314	pulse	1	t						139.96384692192078	
1	115.09953784942627	pulse	1	t						141.5638198852539	
1	116.69954204559326	pulse	1	t						143.1638240814209	
1	118.29946303367615	pulse	1	t						144.76374506950378	
1	119.89953398704529	pulse	1	t						146.36381602287292	
1	121.49953603744507	pulse	1	t						147.9638180732727	
2	123.01596784591675	fix_pre	0		11	0.0	2.5	/experiments/AOT/AOT_stimuli/rescaled_final/0532_rv.mp4	0.0	149.48024988174438	0.0916910171508789
2	123.09945893287659	pulse	0	t		0.0	2.5	/experiments/AOT/AOT_stimuli/rescaled_final/0532_rv.mp4	0.0	149.56374096870422	
2	123.10765886306763	movie	1		243	0.0	2.5	/experiments/AOT/AOT_stimuli/rescaled_final/0532_rv.mp4	0.0	149.57194089889526	2.508380174636841
2	124.70056891441345	pulse	1	t		0.0	2.5	/experiments/AOT/AOT_stimuli/rescaled_final/0532_rv.mp4	0.0	151.1648509502411	
2	125.61603903770447	fix_post	2		12	0.0	2.5	/experiments/AOT/AOT_stimuli/rescaled_final/0532_rv.mp4	0.0	152.0803210735321	0.09995889663696289
3	125.71599793434143	fix_pre	0		120	1.0	2.5	/experiments/AOT/AOT_stimuli/rescaled_final/1468_fw.mp4	0.0	152.18027997016907	0.9999630451202393
3	126.29949402809143	pulse	0	t		1.0	2.5	/experiments/AOT/AOT_stimuli/rescaled_final/1468_fw.mp4	0.0	152.76377606391907	
3	126.71596097946167	movie	1		243	1.0	2.5	/experiments/AOT/AOT_stimuli/rescaled_final/1468_fw.mp4	0.0	153.1802430152893	2.5000879764556885
3	127.89960384368896	pulse	1	t		1.0	2.5	/experiments/AOT/AOT_stimuli/rescaled_final/1468_fw.mp4	0.0	154.3638858795166	
3	129.21604895591736	fix_post	2		12	1.0	2.5	/experiments/AOT/AOT_stimuli/rescaled_final/1468_fw.mp4	0.0	155.680330991745	0.09992194175720215
4	129.31597089767456	fix_pre	0		120	2.0	2.5	/experiments/AOT/AOT_stimuli/rescaled_final/0800_rv.mp4	0.0	155.7802529335022	1.0000100135803223
4	129.49945282936096	pulse	0	t		2.0	2.5	/experiments/AOT/AOT_stimuli/rescaled_final/0800_rv.mp4	0.0	155.9637348651886	
4	130.31598091125488	movie	1		244	2.0	2.5	/experiments/AOT/AOT_stimuli/rescaled_final/0800_rv.mp4	0.0	156.78026294708252	2.4998841285705566
4	131.0994210243225	pulse	1	t		2.0	2.5	/experiments/AOT/AOT_stimuli/rescaled_final/0800_rv.mp4	0.0	157.56370306015015	
4	132.69834899902344	pulse	1	t		2.0	2.5	/experiments/AOT/AOT_stimuli/rescaled_final/0800_rv.mp4	0.0	159.16263103485107	
4	132.81586503982544	fix_post	2		12	2.0	2.5	/experiments/AOT/AOT_stimuli/rescaled_final/0800_rv.mp4	0.0	159.28014707565308	0.10007691383361816
5	132.91594195365906	fix_pre	0		120	3.0	2.5	/experiments/AOT/AOT_stimuli/rescaled_final/0223_rv.mp4	0.0	159.3802239894867	0.9999480247497559
5	133.9158899784088	movie	1		242	3.0	2.5	/experiments/AOT/AOT_stimuli/rescaled_final/0223_rv.mp4	0.0	160.38017201423645	2.499598979949951
5	134.29909586906433	pulse	1	t		3.0	2.5	/experiments/AOT/AOT_stimuli/rescaled_final/0223_rv.mp4	0.0	160.76337790489197	
5	135.89940190315247	pulse	1	t		3.0	2.5	/experiments/AOT/AOT_stimuli/rescaled_final/0223_rv.mp4	0.0	162.3636839389801	
5	136.41548895835876	fix_post	2		12	3.0	2.5	/experiments/AOT/AOT_stimuli/rescaled_final/0223_rv.mp4	0.0	162.8797709941864	0.10045909881591797
6	136.51594805717468	fix_pre	0		119	4.0	2.5	/experiments/AOT/AOT_stimuli/rescaled_final/1287_fw.mp4	0.0	162.98023009300232	0.9916579723358154
6	137.49946093559265	pulse	0	t		4.0	2.5	/experiments/AOT/AOT_stimuli/rescaled_final/1287_fw.mp4	0.0	163.9637429714203	
6	137.5076060295105	movie	1		245	4.0	2.5	/experiments/AOT/AOT_stimuli/rescaled_final/1287_fw.mp4	0.0	163.97188806533813	2.5082788467407227
6	139.0989649295807	pulse	1	t		4.0	2.5	/experiments/AOT/AOT_stimuli/rescaled_final/1287_fw.mp4	0.0	165.56324696540833	
6	140.01588487625122	fix_post	2		12	4.0	2.5	/experiments/AOT/AOT_stimuli/rescaled_final/1287_fw.mp4	0.0	166.48016691207886	0.10008096694946289
7	140.11596584320068	fix_pre	0		120	5.0	2.5	/experiments/AOT/AOT_stimuli/rescaled_final/0182_rv.mp4	0.0	166.58024787902832	0.9999470710754395
7	140.69932794570923	pulse	0	t		5.0	2.5	/experiments/AOT/AOT_stimuli/rescaled_final/0182_rv.mp4	0.0	167.16360998153687	
7	141.11591291427612	movie	1		243	5.0	2.5	/experiments/AOT/AOT_stimuli/rescaled_final/0182_rv.mp4	0.0	167.58019495010376	2.5000550746917725
7	142.2994339466095	pulse	1	t		5.0	2.5	/experiments/AOT/AOT_stimuli/rescaled_final/0182_rv.mp4	0.0	168.76371598243713	
7	143.6159679889679	fix_post	2		12	5.0	2.5	/experiments/AOT/AOT_stimuli/rescaled_final/0182_rv.mp4	0.0	170.08025002479553	0.09993696212768555
8	143.71590495109558	fix_pre	0		120	6.0	2.5	blank	1.0	170.18018698692322	1.000082015991211
8	143.89938187599182	pulse	0	t		6.0	2.5	blank	1.0	170.36366391181946	
8	144.7159869670868	movie	1		300	6.0	2.5	blank	1.0	171.18026900291443	2.5002219676971436
8	145.49942588806152	pulse	1	t		6.0	2.5	blank	1.0	171.96370792388916	
8	147.09900999069214	pulse	1	t		6.0	2.5	blank	1.0	173.56329202651978	
8	147.21620893478394	fix_post	2		12	6.0	2.5	blank	1.0	173.68049097061157	0.09930801391601562
9	147.31551694869995	fix_pre	0		120	7.0	2.5	/experiments/AOT/AOT_stimuli/rescaled_final/2138_fw.mp4	0.0	173.7797989845276	1.00018310546875
9	148.3157000541687	movie	1		245	7.0	2.5	/experiments/AOT/AOT_stimuli/rescaled_final/2138_fw.mp4	0.0	174.77998208999634	2.5002079010009766
9	148.69884204864502	pulse	1	t		7.0	2.5	/experiments/AOT/AOT_stimuli/rescaled_final/2138_fw.mp4	0.0	175.16312408447266	
9	150.2993779182434	pulse	1	t		7.0	2.5	/experiments/AOT/AOT_stimuli/rescaled_final/2138_fw.mp4	0.0	176.76365995407104	
9	150.81590795516968	fix_post	2		12	7.0	2.5	/experiments/AOT/AOT_stimuli/rescaled_final/2138_fw.mp4	0.0	177.28018999099731	0.10005903244018555
10	150.91596698760986	fix_pre	0		119	8.0	2.5	/experiments/AOT/AOT_stimuli/rescaled_final/1995_fw.mp4	0.0	177.3802490234375	0.9916279315948486
10	151.89936804771423	pulse	0	t		8.0	2.5	/experiments/AOT/AOT_stimuli/rescaled_final/1995_fw.mp4	0.0	178.36365008354187	
10	151.9075949192047	movie	1		246	8.0	2.5	/experiments/AOT/AOT_stimuli/rescaled_final/1995_fw.mp4	0.0	178.37187695503235	2.508331060409546
10	153.4990530014038	pulse	1	t		8.0	2.5	/experiments/AOT/AOT_stimuli/rescaled_final/1995_fw.mp4	0.0	179.96333503723145	
10	154.41592597961426	fix_post	2		12	8.0	2.5	/experiments/AOT/AOT_stimuli/rescaled_final/1995_fw.mp4	0.0	180.8802080154419	0.09988188743591309
11	154.51580786705017	fix_pre	0		120	9.0	2.5	/experiments/AOT/AOT_stimuli/rescaled_final/1712_rv.mp4	0.0	180.9800899028778	1.0000181198120117
11	155.09927892684937	pulse	0	t		9.0	2.5	/experiments/AOT/AOT_stimuli/rescaled_final/1712_rv.mp4	0.0	181.563560962677	
11	155.51582598686218	movie	1		243	9.0	2.5	/experiments/AOT/AOT_stimuli/rescaled_final/1712_rv.mp4	0.0	181.98010802268982	2.500030040740967
11	156.69929885864258	pulse	1	t		9.0	2.5	/experiments/AOT/AOT_stimuli/rescaled_final/1712_rv.mp4	0.0	183.16358089447021	
11	158.01585602760315	fix_post	2		12	9.0	2.5	/experiments/AOT/AOT_stimuli/rescaled_final/1712_rv.mp4	0.0	184.4801380634308	0.10008883476257324
12	158.11594486236572	fix_pre	0		120	10.0	2.5	/experiments/AOT/AOT_stimuli/rescaled_final/0671_fw.mp4	0.0	184.58022689819336	0.9998691082000732
12	158.2994349002838	pulse	0	t		10.0	2.5	/experiments/AOT/AOT_stimuli/rescaled_final/0671_fw.mp4	0.0	184.76371693611145	
12	159.1158139705658	movie	1		246	10.0	2.5	/experiments/AOT/AOT_stimuli/rescaled_final/0671_fw.mp4	0.0	185.58009600639343	2.5000078678131104
12	159.8992509841919	pulse	1	t		10.0	2.5	/experiments/AOT/AOT_stimuli/rescaled_final/0671_fw.mp4	0.0	186.36353302001953	
12	161.4992949962616	pulse	1	t		10.0	2.5	/experiments/AOT/AOT_stimuli/rescaled_final/0671_fw.mp4	0.0	187.96357703208923	
12	161.6158218383789	fix_post	2		12	10.0	2.5	/experiments/AOT/AOT_stimuli/rescaled_final/0671_fw.mp4	0.0	188.08010387420654	0.0999441146850586
13	161.71576595306396	fix_pre	0		120	11.0	2.5	/experiments/AOT/AOT_stimuli/rescaled_final/0280_rv.mp4	0.0	188.1800479888916	1.0000290870666504
13	162.71579504013062	movie	1		245	11.0	2.5	/experiments/AOT/AOT_stimuli/rescaled_final/0280_rv.mp4	0.0	189.18007707595825	2.499997854232788
13	163.0987310409546	pulse	1	t		11.0	2.5	/experiments/AOT/AOT_stimuli/rescaled_final/0280_rv.mp4	0.0	189.56301307678223	
13	164.6993179321289	pulse	1	t		11.0	2.5	/experiments/AOT/AOT_stimuli/rescaled_final/0280_rv.mp4	0.0	191.16359996795654	
13	165.2157928943634	fix_post	2		12	11.0	2.5	/experiments/AOT/AOT_stimuli/rescaled_final/0280_rv.mp4	0.0	191.68007493019104	0.09997916221618652
14	165.3157720565796	fix_pre	0		119	12.0	2.5	/experiments/AOT/AOT_stimuli/rescaled_final/0199_rv.mp4	0.0	191.78005409240723	0.991722822189331
14	166.29932284355164	pulse	0	t		12.0	2.5	/experiments/AOT/AOT_stimuli/rescaled_final/0199_rv.mp4	0.0	192.76360487937927	
14	166.30749487876892	movie	1		247	12.0	2.5	/experiments/AOT/AOT_stimuli/rescaled_final/0199_rv.mp4	0.0	192.77177691459656	2.5083091259002686
14	167.8990399837494	pulse	1	t		12.0	2.5	/experiments/AOT/AOT_stimuli/rescaled_final/0199_rv.mp4	0.0	194.36332201957703	
14	168.8158040046692	fix_post	2		12	12.0	2.5	/experiments/AOT/AOT_stimuli/rescaled_final/0199_rv.mp4	0.0	195.28008604049683	0.09999895095825195
15	168.91580295562744	fix_pre	0		120	13.0	2.5	blank	1.0	195.38008499145508	1.0000059604644775
15	169.4992790222168	pulse	0	t		13.0	2.5	blank	1.0	195.96356105804443	
15	169.91580891609192	movie	1		300	13.0	2.5	blank	1.0	196.38009095191956	2.499871015548706
15	171.09929084777832	pulse	1	t		13.0	2.5	blank	1.0	197.56357288360596	
15	172.41567993164062	fix_post	2		12	13.0	2.5	blank	1.0	198.87996196746826	0.10010290145874023
16	172.51578283309937	fix_pre	0		120	14.0	2.5	/experiments/AOT/AOT_stimuli/rescaled_final/1179_rv.mp4	0.0	198.980064868927	1.0000030994415283
16	172.69928288459778	pulse	0	t		14.0	2.5	/experiments/AOT/AOT_stimuli/rescaled_final/1179_rv.mp4	0.0	199.16356492042542	
16	173.5157859325409	movie	1		243	14.0	2.5	/experiments/AOT/AOT_stimuli/rescaled_final/1179_rv.mp4	0.0	199.98006796836853	2.499903917312622
16	174.2992148399353	pulse	1	t		14.0	2.5	/experiments/AOT/AOT_stimuli/rescaled_final/1179_rv.mp4	0.0	200.76349687576294	
16	175.90757989883423	pulse	1	t		14.0	2.5	/experiments/AOT/AOT_stimuli/rescaled_final/1179_rv.mp4	0.0	202.37186193466187	
16	176.01568984985352	fix_post	2		12	14.0	2.5	/experiments/AOT/AOT_stimuli/rescaled_final/1179_rv.mp4	0.0	202.47997188568115	0.10003209114074707
17	176.11572194099426	fix_pre	0		120	15.0	2.5	/experiments/AOT/AOT_stimuli/rescaled_final/1356_rv.mp4	0.0	202.5800039768219	1.0000290870666504
17	177.1157510280609	movie	1		243	15.0	2.5	/experiments/AOT/AOT_stimuli/rescaled_final/1356_rv.mp4	0.0	203.58003306388855	2.499931812286377
17	177.49892592430115	pulse	1	t		15.0	2.5	/experiments/AOT/AOT_stimuli/rescaled_final/1356_rv.mp4	0.0	203.96320796012878	
17	179.09931683540344	pulse	1	t		15.0	2.5	/experiments/AOT/AOT_stimuli/rescaled_final/1356_rv.mp4	0.0	205.56359887123108	
17	179.6156828403473	fix_post	2		12	15.0	2.5	/experiments/AOT/AOT_stimuli/rescaled_final/1356_rv.mp4	0.0	206.07996487617493	0.10008907318115234
18	179.71577191352844	fix_pre	0		119	16.0	2.5	/experiments/AOT/AOT_stimuli/rescaled_final/0354_rv.mp4	0.0	206.18005394935608	0.9916350841522217
18	180.69918084144592	pulse	0	t		16.0	2.5	/experiments/AOT/AOT_stimuli/rescaled_final/0354_rv.mp4	0.0	207.16346287727356	
18	180.70740699768066	movie	1		247	16.0	2.5	/experiments/AOT/AOT_stimuli/rescaled_final/0354_rv.mp4	0.0	207.1716890335083	2.507935047149658
18	182.30034589767456	pulse	1	t		16.0	2.5	/experiments/AOT/AOT_stimuli/rescaled_final/0354_rv.mp4	0.0	208.7646279335022	
18	183.21534204483032	fix_post	2		12	16.0	2.5	/experiments/AOT/AOT_stimuli/rescaled_final/0354_rv.mp4	0.0	209.67962408065796	0.10039496421813965
19	183.31573700904846	fix_pre	0		120	17.0	2.5	/experiments/AOT/AOT_stimuli/rescaled_final/1520_rv.mp4	0.0	209.7800190448761	1.0000019073486328
19	183.8992178440094	pulse	0	t		17.0	2.5	/experiments/AOT/AOT_stimuli/rescaled_final/1520_rv.mp4	0.0	210.36349987983704	
19	184.3157389163971	movie	1		245	17.0	2.5	/experiments/AOT/AOT_stimuli/rescaled_final/1520_rv.mp4	0.0	210.78002095222473	2.5000290870666504
19	185.49922585487366	pulse	1	t		17.0	2.5	/experiments/AOT/AOT_stimuli/rescaled_final/1520_rv.mp4	0.0	211.9635078907013	
19	186.81576800346375	fix_post	2		12	17.0	2.5	/experiments/AOT/AOT_stimuli/rescaled_final/1520_rv.mp4	0.0	213.28005003929138	0.09995603561401367
20	186.91572403907776	fix_pre	0		120	18.0	2.5	/experiments/AOT/AOT_stimuli/rescaled_final/0026_fw.mp4	0.0	213.3800060749054	1.0000028610229492
20	187.09910798072815	pulse	0	t		18.0	2.5	/experiments/AOT/AOT_stimuli/rescaled_final/0026_fw.mp4	0.0	213.5633900165558	
20	187.9157269001007	movie	1		245	18.0	2.5	/experiments/AOT/AOT_stimuli/rescaled_final/0026_fw.mp4	0.0	214.38000893592834	2.499964952468872
20	188.6992118358612	pulse	1	t		18.0	2.5	/experiments/AOT/AOT_stimuli/rescaled_final/0026_fw.mp4	0.0	215.16349387168884	
20	190.297917842865	pulse	1	t		18.0	2.5	/experiments/AOT/AOT_stimuli/rescaled_final/0026_fw.mp4	0.0	216.76219987869263	
20	190.41569185256958	fix_post	2		12	18.0	2.5	/experiments/AOT/AOT_stimuli/rescaled_final/0026_fw.mp4	0.0	216.87997388839722	0.1000661849975586
21	190.51575803756714	fix_pre	0		120	19.0	2.5	/experiments/AOT/AOT_stimuli/rescaled_final/1518_rv.mp4	0.0	216.98004007339478	0.9999268054962158
21	191.51568484306335	movie	1		244	19.0	2.5	/experiments/AOT/AOT_stimuli/rescaled_final/1518_rv.mp4	0.0	217.979966878891	2.500058174133301
21	191.8986349105835	pulse	1	t		19.0	2.5	/experiments/AOT/AOT_stimuli/rescaled_final/1518_rv.mp4	0.0	218.36291694641113	
21	193.49907183647156	pulse	1	t		19.0	2.5	/experiments/AOT/AOT_stimuli/rescaled_final/1518_rv.mp4	0.0	219.9633538722992	
21	194.01574301719666	fix_post	2		12	19.0	2.5	/experiments/AOT/AOT_stimuli/rescaled_final/1518_rv.mp4	0.0	220.4800250530243	0.09999489784240723
22	194.11573791503906	fix_pre	0		119	20.0	2.5	/experiments/AOT/AOT_stimuli/rescaled_final/0676_rv.mp4	0.0	220.5800199508667	0.991569995880127
22	195.09913992881775	pulse	0	t		20.0	2.5	/experiments/AOT/AOT_stimuli/rescaled_final/0676_rv.mp4	0.0	221.56342196464539	
22	195.1073079109192	movie	1		243	20.0	2.5	/experiments/AOT/AOT_stimuli/rescaled_final/0676_rv.mp4	0.0	221.57158994674683	2.5084221363067627
22	196.7005259990692	pulse	1	t		20.0	2.5	/experiments/AOT/AOT_stimuli/rescaled_final/0676_rv.mp4	0.0	223.16480803489685	
22	197.61573004722595	fix_post	2		12	20.0	2.5	/experiments/AOT/AOT_stimuli/rescaled_final/0676_rv.mp4	0.0	224.0800120830536	0.09995079040527344
23	197.71568083763123	fix_pre	0		120	21.0	2.5	blank	1.0	224.17996287345886	1.0001270771026611
23	198.2991189956665	pulse	0	t		21.0	2.5	blank	1.0	224.76340103149414	
23	198.7158079147339	movie	1		300	21.0	2.5	blank	1.0	225.18008995056152	2.499925136566162
23	199.89919686317444	pulse	1	t		21.0	2.5	blank	1.0	226.36347889900208	
23	201.21573305130005	fix_post	2		12	21.0	2.5	blank	1.0	227.68001508712769	0.09990882873535156
24	201.3156418800354	fix_pre	0		120	22.0	2.5	/experiments/AOT/AOT_stimuli/rescaled_final/0354_rv.mp4	0.0	227.77992391586304	0.9995911121368408
24	201.49916005134583	pulse	0	t		22.0	2.5	/experiments/AOT/AOT_stimuli/rescaled_final/0354_rv.mp4	0.0	227.96344208717346	
24	202.31523299217224	movie	1		247	22.0	2.5	/experiments/AOT/AOT_stimuli/rescaled_final/0354_rv.mp4	0.0	228.77951502799988	2.5002269744873047
24	203.0990879535675	pulse	1	t		22.0	2.5	/experiments/AOT/AOT_stimuli/rescaled_final/0354_rv.mp4	0.0	229.56336998939514	
24	204.69924187660217	pulse	1	t		22.0	2.5	/experiments/AOT/AOT_stimuli/rescaled_final/0354_rv.mp4	0.0	231.1635239124298	
24	204.81545996665955	fix_post	2		12	22.0	2.5	/experiments/AOT/AOT_stimuli/rescaled_final/0354_rv.mp4	0.0	231.27974200248718	0.10004687309265137
25	204.9155068397522	fix_pre	0		120	23.0	2.5	/experiments/AOT/AOT_stimuli/rescaled_final/1735_fw.mp4	0.0	231.37978887557983	1.000218152999878
25	205.91572499275208	movie	1		246	23.0	2.5	/experiments/AOT/AOT_stimuli/rescaled_final/1735_fw.mp4	0.0	232.3800070285797	2.499871015548706
25	206.29866886138916	pulse	1	t		23.0	2.5	/experiments/AOT/AOT_stimuli/rescaled_final/1735_fw.mp4	0.0	232.7629508972168	
25	207.8990080356598	pulse	1	t		23.0	2.5	/experiments/AOT/AOT_stimuli/rescaled_final/1735_fw.mp4	0.0	234.36329007148743	
25	208.41559600830078	fix_post	2		12	23.0	2.5	/experiments/AOT/AOT_stimuli/rescaled_final/1735_fw.mp4	0.0	234.87987804412842	0.10010600090026855
26	208.51570200920105	fix_pre	0		119	24.0	2.5	/experiments/AOT/AOT_stimuli/rescaled_final/0611_fw.mp4	0.0	234.9799840450287	0.9916260242462158
26	209.49904799461365	pulse	0	t		24.0	2.5	/experiments/AOT/AOT_stimuli/rescaled_final/0611_fw.mp4	0.0	235.96333003044128	
26	209.50732803344727	movie	1		246	24.0	2.5	/experiments/AOT/AOT_stimuli/rescaled_final/0611_fw.mp4	0.0	235.9716100692749	2.507882833480835
26	211.0984480381012	pulse	1	t		24.0	2.5	/experiments/AOT/AOT_stimuli/rescaled_final/0611_fw.mp4	0.0	237.56273007392883	
26	212.0152108669281	fix_post	2		12	24.0	2.5	/experiments/AOT/AOT_stimuli/rescaled_final/0611_fw.mp4	0.0	238.47949290275574	0.10038304328918457
27	212.11559391021729	fix_pre	0		120	25.0	2.5	/experiments/AOT/AOT_stimuli/rescaled_final/0693_rv.mp4	0.0	238.57987594604492	0.9999980926513672
27	212.69901585578918	pulse	0	t		25.0	2.5	/experiments/AOT/AOT_stimuli/rescaled_final/0693_rv.mp4	0.0	239.16329789161682	
27	213.11559200286865	movie	1		244	25.0	2.5	/experiments/AOT/AOT_stimuli/rescaled_final/0693_rv.mp4	0.0	239.5798740386963	2.500560998916626
27	214.29914689064026	pulse	1	t		25.0	2.5	/experiments/AOT/AOT_stimuli/rescaled_final/0693_rv.mp4	0.0	240.7634289264679	
27	215.61615300178528	fix_post	2		12	25.0	2.5	/experiments/AOT/AOT_stimuli/rescaled_final/0693_rv.mp4	0.0	242.08043503761292	0.09952592849731445
28	215.7156789302826	fix_pre	0		120	26.0	2.5	/experiments/AOT/AOT_stimuli/rescaled_final/0163_fw.mp4	0.0	242.17996096611023	0.9998550415039062
28	215.8990499973297	pulse	0	t		26.0	2.5	/experiments/AOT/AOT_stimuli/rescaled_final/0163_fw.mp4	0.0	242.36333203315735	
28	216.7155339717865	movie	1		244	26.0	2.5	/experiments/AOT/AOT_stimuli/rescaled_final/0163_fw.mp4	0.0	243.17981600761414	2.499950885772705
28	217.49902391433716	pulse	1	t		26.0	2.5	/experiments/AOT/AOT_stimuli/rescaled_final/0163_fw.mp4	0.0	243.9633059501648	
28	219.10743284225464	pulse	1	t		26.0	2.5	/experiments/AOT/AOT_stimuli/rescaled_final/0163_fw.mp4	0.0	245.57171487808228	
28	219.2154848575592	fix_post	2		12	26.0	2.5	/experiments/AOT/AOT_stimuli/rescaled_final/0163_fw.mp4	0.0	245.67976689338684	0.10002613067626953
29	219.31551098823547	fix_pre	0		120	27.0	2.5	/experiments/AOT/AOT_stimuli/rescaled_final/1720_fw.mp4	0.0	245.7797930240631	1.0001108646392822
29	220.31562185287476	movie	1		243	27.0	2.5	/experiments/AOT/AOT_stimuli/rescaled_final/1720_fw.mp4	0.0	246.7799038887024	2.5000061988830566
29	220.69870495796204	pulse	1	t		27.0	2.5	/experiments/AOT/AOT_stimuli/rescaled_final/1720_fw.mp4	0.0	247.16298699378967	
29	222.29903101921082	pulse	1	t		27.0	2.5	/experiments/AOT/AOT_stimuli/rescaled_final/1720_fw.mp4	0.0	248.76331305503845	
29	222.8156280517578	fix_post	2		12	27.0	2.5	/experiments/AOT/AOT_stimuli/rescaled_final/1720_fw.mp4	0.0	249.27991008758545	0.09996700286865234
30	222.91559505462646	fix_pre	0		119	28.0	2.5	blank	1.0	249.3798770904541	0.9915719032287598
30	223.89910888671875	pulse	0	t		28.0	2.5	blank	1.0	250.3633909225464	
30	223.90716695785522	movie	1		301	28.0	2.5	blank	1.0	250.37144899368286	2.5083320140838623
30	225.49900484085083	pulse	1	t		28.0	2.5	blank	1.0	251.96328687667847	
30	226.4154989719391	fix_post	2		12	28.0	2.5	blank	1.0	252.87978100776672	0.09998798370361328
31	226.5154869556427	fix_pre	0		120	29.0	2.5	/experiments/AOT/AOT_stimuli/rescaled_final/0101_rv.mp4	0.0	252.97976899147034	0.9995920658111572
31	227.0990219116211	pulse	0	t		29.0	2.5	/experiments/AOT/AOT_stimuli/rescaled_final/0101_rv.mp4	0.0	253.56330394744873	
31	227.51507902145386	movie	1		245	29.0	2.5	/experiments/AOT/AOT_stimuli/rescaled_final/0101_rv.mp4	0.0	253.9793610572815	2.5003910064697266
31	228.69904398918152	pulse	1	t		29.0	2.5	/experiments/AOT/AOT_stimuli/rescaled_final/0101_rv.mp4	0.0	255.16332602500916	
31	230.01547002792358	fix_post	2		12	29.0	2.5	/experiments/AOT/AOT_stimuli/rescaled_final/0101_rv.mp4	0.0	256.4797520637512	0.1000669002532959
32	230.11553692817688	fix_pre	0		120	30.0	2.5	/experiments/AOT/AOT_stimuli/rescaled_final/0053_fw.mp4	0.0	256.5798189640045	0.9999799728393555
32	230.29900097846985	pulse	0	t		30.0	2.5	/experiments/AOT/AOT_stimuli/rescaled_final/0053_fw.mp4	0.0	256.7632830142975	
32	231.11551690101624	movie	1		245	30.0	2.5	/experiments/AOT/AOT_stimuli/rescaled_final/0053_fw.mp4	0.0	257.5797989368439	2.499591112136841
32	231.8989770412445	pulse	1	t		30.0	2.5	/experiments/AOT/AOT_stimuli/rescaled_final/0053_fw.mp4	0.0	258.36325907707214	
32	233.5073709487915	pulse	1	t		30.0	2.5	/experiments/AOT/AOT_stimuli/rescaled_final/0053_fw.mp4	0.0	259.97165298461914	
32	233.61510801315308	fix_post	2		12	30.0	2.5	/experiments/AOT/AOT_stimuli/rescaled_final/0053_fw.mp4	0.0	260.0793900489807	0.10037899017333984
33	233.71548700332642	fix_pre	0		120	31.0	2.5	/experiments/AOT/AOT_stimuli/rescaled_final/0999_fw.mp4	0.0	260.17976903915405	1.0001139640808105
33	234.71560096740723	movie	1		245	31.0	2.5	/experiments/AOT/AOT_stimuli/rescaled_final/0999_fw.mp4	0.0	261.17988300323486	2.499758005142212
33	235.09867787361145	pulse	1	t		31.0	2.5	/experiments/AOT/AOT_stimuli/rescaled_final/0999_fw.mp4	0.0	261.5629599094391	
33	236.69894194602966	pulse	1	t		31.0	2.5	/experiments/AOT/AOT_stimuli/rescaled_final/0999_fw.mp4	0.0	263.1632239818573	
33	237.21535897254944	fix_post	2		12	31.0	2.5	/experiments/AOT/AOT_stimuli/rescaled_final/0999_fw.mp4	0.0	263.6796410083771	0.1001138687133789
34	237.31547284126282	fix_pre	0		119	32.0	2.5	/experiments/AOT/AOT_stimuli/rescaled_final/1346_rv.mp4	0.0	263.77975487709045	0.9917011260986328
34	238.29895496368408	pulse	0	t		32.0	2.5	/experiments/AOT/AOT_stimuli/rescaled_final/1346_rv.mp4	0.0	264.7632369995117	
34	238.30717396736145	movie	1		245	32.0	2.5	/experiments/AOT/AOT_stimuli/rescaled_final/1346_rv.mp4	0.0	264.7714560031891	2.5082199573516846
34	239.89848494529724	pulse	1	t		32.0	2.5	/experiments/AOT/AOT_stimuli/rescaled_final/1346_rv.mp4	0.0	266.3627669811249	
34	240.81539392471313	fix_post	2		12	32.0	2.5	/experiments/AOT/AOT_stimuli/rescaled_final/1346_rv.mp4	0.0	267.27967596054077	0.10017991065979004
35	240.91557383537292	fix_pre	0		120	33.0	2.5	/experiments/AOT/AOT_stimuli/rescaled_final/0698_rv.mp4	0.0	267.37985587120056	0.9998681545257568
35	241.49896597862244	pulse	0	t		33.0	2.5	/experiments/AOT/AOT_stimuli/rescaled_final/0698_rv.mp4	0.0	267.9632480144501	
35	241.91544198989868	movie	1		244	33.0	2.5	/experiments/AOT/AOT_stimuli/rescaled_final/0698_rv.mp4	0.0	268.3797240257263	2.4997658729553223
35	243.0989499092102	pulse	1	t		33.0	2.5	/experiments/AOT/AOT_stimuli/rescaled_final/0698_rv.mp4	0.0	269.56323194503784	
35	244.415207862854	fix_post	2		12	33.0	2.5	/experiments/AOT/AOT_stimuli/rescaled_final/0698_rv.mp4	0.0	270.87948989868164	0.10017609596252441
36	244.51538395881653	fix_pre	0		120	34.0	2.5	blank	1.0	270.97966599464417	1.000079870223999
36	244.6988868713379	pulse	0	t		34.0	2.5	blank	1.0	271.1631689071655	
36	245.51546382904053	movie	1		300	34.0	2.5	blank	1.0	271.97974586486816	2.499859094619751
36	246.29897904396057	pulse	1	t		34.0	2.5	blank	1.0	272.7632610797882	
36	247.89887404441833	pulse	1	t		34.0	2.5	blank	1.0	274.363156080246	
36	248.01532292366028	fix_post	2		12	34.0	2.5	blank	1.0	274.4796049594879	0.10007309913635254
37	248.11539602279663	fix_pre	0		120	35.0	2.5	/experiments/AOT/AOT_stimuli/rescaled_final/1388_fw.mp4	0.0	274.57967805862427	0.9999029636383057
37	249.11529898643494	movie	1		245	35.0	2.5	/experiments/AOT/AOT_stimuli/rescaled_final/1388_fw.mp4	0.0	275.5795810222626	2.5001609325408936
37	249.49840092658997	pulse	1	t		35.0	2.5	/experiments/AOT/AOT_stimuli/rescaled_final/1388_fw.mp4	0.0	275.9626829624176	
37	251.09891486167908	pulse	1	t		35.0	2.5	/experiments/AOT/AOT_stimuli/rescaled_final/1388_fw.mp4	0.0	277.5631968975067	
37	251.61545991897583	fix_post	2		12	35.0	2.5	/experiments/AOT/AOT_stimuli/rescaled_final/1388_fw.mp4	0.0	278.07974195480347	0.09997892379760742
38	251.71543884277344	fix_pre	0		119	36.0	2.5	/experiments/AOT/AOT_stimuli/rescaled_final/1537_rv.mp4	0.0	278.1797208786011	0.9915931224822998
38	252.69898200035095	pulse	0	t		36.0	2.5	/experiments/AOT/AOT_stimuli/rescaled_final/1537_rv.mp4	0.0	279.1632640361786	
38	252.70703196525574	movie	1		244	36.0	2.5	/experiments/AOT/AOT_stimuli/rescaled_final/1537_rv.mp4	0.0	279.1713140010834	2.508357048034668
38	254.29830694198608	pulse	1	t		36.0	2.5	/experiments/AOT/AOT_stimuli/rescaled_final/1537_rv.mp4	0.0	280.7625889778137	
38	255.2153890132904	fix_post	2		12	36.0	2.5	/experiments/AOT/AOT_stimuli/rescaled_final/1537_rv.mp4	0.0	281.67967104911804	0.09997081756591797
39	255.31535983085632	fix_pre	0		120	37.0	2.5	/experiments/AOT/AOT_stimuli/rescaled_final/0827_fw.mp4	0.0	281.77964186668396	0.9999940395355225
39	255.89880990982056	pulse	0	t		37.0	2.5	/experiments/AOT/AOT_stimuli/rescaled_final/0827_fw.mp4	0.0	282.3630919456482	
39	256.31535387039185	movie	1		248	37.0	2.5	/experiments/AOT/AOT_stimuli/rescaled_final/0827_fw.mp4	0.0	282.7796359062195	2.500035047531128
39	257.4988670349121	pulse	1	t		37.0	2.5	/experiments/AOT/AOT_stimuli/rescaled_final/0827_fw.mp4	0.0	283.96314907073975	
39	258.815388917923	fix_post	2		12	37.0	2.5	/experiments/AOT/AOT_stimuli/rescaled_final/0827_fw.mp4	0.0	285.2796709537506	0.09954214096069336
40	258.91493105888367	fix_pre	0		120	38.0	2.5	/experiments/AOT/AOT_stimuli/rescaled_final/1592_rv.mp4	0.0	285.3792130947113	1.0005738735198975
40	259.0984740257263	pulse	0	t		38.0	2.5	/experiments/AOT/AOT_stimuli/rescaled_final/1592_rv.mp4	0.0	285.56275606155396	
40	259.91550493240356	movie	1		245	38.0	2.5	/experiments/AOT/AOT_stimuli/rescaled_final/1592_rv.mp4	0.0	286.3797869682312	2.4998979568481445
40	260.6991970539093	pulse	1	t		38.0	2.5	/experiments/AOT/AOT_stimuli/rescaled_final/1592_rv.mp4	0.0	287.16347908973694	
40	262.3072509765625	pulse	1	t		38.0	2.5	/experiments/AOT/AOT_stimuli/rescaled_final/1592_rv.mp4	0.0	288.77153301239014	
40	262.4154028892517	fix_post	2		12	38.0	2.5	/experiments/AOT/AOT_stimuli/rescaled_final/1592_rv.mp4	0.0	288.87968492507935	0.09997105598449707
41	262.5153739452362	fix_pre	0		120	39.0	2.5	/experiments/AOT/AOT_stimuli/rescaled_final/1321_fw.mp4	0.0	288.97965598106384	1.000014066696167
41	263.5153880119324	movie	1		244	39.0	2.5	/experiments/AOT/AOT_stimuli/rescaled_final/1321_fw.mp4	0.0	289.97967004776	2.499985933303833
41	263.89884400367737	pulse	1	t		39.0	2.5	/experiments/AOT/AOT_stimuli/rescaled_final/1321_fw.mp4	0.0	290.363126039505	
41	265.4988000392914	pulse	1	t		39.0	2.5	/experiments/AOT/AOT_stimuli/rescaled_final/1321_fw.mp4	0.0	291.963082075119	
41	266.0153739452362	fix_post	2		12	39.0	2.5	/experiments/AOT/AOT_stimuli/rescaled_final/1321_fw.mp4	0.0	292.47965598106384	0.09999299049377441
42	266.11536693573	fix_pre	0		119	40.0	2.5	/experiments/AOT/AOT_stimuli/rescaled_final/0583_rv.mp4	0.0	292.5796489715576	0.9915049076080322
42	267.0987310409546	pulse	0	t		40.0	2.5	/experiments/AOT/AOT_stimuli/rescaled_final/0583_rv.mp4	0.0	293.5630130767822	
42	267.106871843338	movie	1		244	40.0	2.5	/experiments/AOT/AOT_stimuli/rescaled_final/0583_rv.mp4	0.0	293.57115387916565	2.508496046066284
42	268.69829297065735	pulse	1	t		40.0	2.5	/experiments/AOT/AOT_stimuli/rescaled_final/0583_rv.mp4	0.0	295.162575006485	
42	269.6153678894043	fix_post	2		12	40.0	2.5	/experiments/AOT/AOT_stimuli/rescaled_final/0583_rv.mp4	0.0	296.07964992523193	0.09993505477905273
43	269.71530294418335	fix_pre	0		120	41.0	2.5	/experiments/AOT/AOT_stimuli/rescaled_final/0611_rv.mp4	0.0	296.179584980011	0.9999120235443115
43	270.2987599372864	pulse	0	t		41.0	2.5	/experiments/AOT/AOT_stimuli/rescaled_final/0611_rv.mp4	0.0	296.763041973114	
43	270.71521496772766	movie	1		243	41.0	2.5	/experiments/AOT/AOT_stimuli/rescaled_final/0611_rv.mp4	0.0	297.1794970035553	2.5000429153442383
43	271.89874291419983	pulse	1	t		41.0	2.5	/experiments/AOT/AOT_stimuli/rescaled_final/0611_rv.mp4	0.0	298.36302495002747	
43	273.2152578830719	fix_post	2		12	41.0	2.5	/experiments/AOT/AOT_stimuli/rescaled_final/0611_rv.mp4	0.0	299.67953991889954	0.10003399848937988
44	273.3152918815613	fix_pre	0		120	42.0	2.5	blank	1.0	299.7795739173889	0.9999680519104004
44	273.4987030029297	pulse	0	t		42.0	2.5	blank	1.0	299.9629850387573	
44	274.3152599334717	movie	1		300	42.0	2.5	blank	1.0	300.7795419692993	2.4999680519104004
44	275.0987470149994	pulse	1	t		42.0	2.5	blank	1.0	301.563029050827	
44	276.698637008667	pulse	1	t		42.0	2.5	blank	1.0	303.16291904449463	
44	276.8152279853821	fix_post	2		12	42.0	2.5	blank	1.0	303.2795100212097	0.10005998611450195
45	276.9152879714966	fix_pre	0		120	43.0	2.5	/experiments/AOT/AOT_stimuli/rescaled_final/1007_rv.mp4	0.0	303.3795700073242	0.999993085861206
45	277.9152810573578	movie	1		246	43.0	2.5	/experiments/AOT/AOT_stimuli/rescaled_final/1007_rv.mp4	0.0	304.3795630931854	2.4996237754821777
45	278.2983729839325	pulse	1	t		43.0	2.5	/experiments/AOT/AOT_stimuli/rescaled_final/1007_rv.mp4	0.0	304.76265501976013	
45	279.8986978530884	pulse	1	t		43.0	2.5	/experiments/AOT/AOT_stimuli/rescaled_final/1007_rv.mp4	0.0	306.362979888916	
45	280.41490483283997	fix_post	2		12	43.0	2.5	/experiments/AOT/AOT_stimuli/rescaled_final/1007_rv.mp4	0.0	306.8791868686676	0.10031914710998535
46	280.51522397994995	fix_pre	0		119	44.0	2.5	/experiments/AOT/AOT_stimuli/rescaled_final/1356_fw.mp4	0.0	306.9795060157776	0.9916489124298096
46	281.4987168312073	pulse	0	t		44.0	2.5	/experiments/AOT/AOT_stimuli/rescaled_final/1356_fw.mp4	0.0	307.9629988670349	
46	281.50687289237976	movie	1		244	44.0	2.5	/experiments/AOT/AOT_stimuli/rescaled_final/1356_fw.mp4	0.0	307.9711549282074	2.5084011554718018
46	283.09883093833923	pulse	1	t		44.0	2.5	/experiments/AOT/AOT_stimuli/rescaled_final/1356_fw.mp4	0.0	309.56311297416687	
46	284.01527404785156	fix_post	2		12	44.0	2.5	/experiments/AOT/AOT_stimuli/rescaled_final/1356_fw.mp4	0.0	310.4795560836792	0.10000896453857422
47	284.11528301239014	fix_pre	0		120	45.0	2.5	/experiments/AOT/AOT_stimuli/rescaled_final/1509_fw.mp4	0.0	310.5795650482178	1.0000159740447998
47	284.69872403144836	pulse	0	t		45.0	2.5	/experiments/AOT/AOT_stimuli/rescaled_final/1509_fw.mp4	0.0	311.163006067276	
47	285.11529898643494	movie	1		244	45.0	2.5	/experiments/AOT/AOT_stimuli/rescaled_final/1509_fw.mp4	0.0	311.5795810222626	2.499903917312622
47	286.29879999160767	pulse	1	t		45.0	2.5	/experiments/AOT/AOT_stimuli/rescaled_final/1509_fw.mp4	0.0	312.7630820274353	
47	287.61520290374756	fix_post	2		12	45.0	2.5	/experiments/AOT/AOT_stimuli/rescaled_final/1509_fw.mp4	0.0	314.0794849395752	0.10008001327514648
48	287.7152829170227	fix_pre	0		120	46.0	2.5	/experiments/AOT/AOT_stimuli/rescaled_final/1031_fw.mp4	0.0	314.17956495285034	0.9994890689849854
48	287.89871287345886	pulse	0	t		46.0	2.5	/experiments/AOT/AOT_stimuli/rescaled_final/1031_fw.mp4	0.0	314.3629949092865	
48	288.7147719860077	movie	1		244	46.0	2.5	/experiments/AOT/AOT_stimuli/rescaled_final/1031_fw.mp4	0.0	315.1790540218353	2.500462055206299
48	289.49860882759094	pulse	1	t		46.0	2.5	/experiments/AOT/AOT_stimuli/rescaled_final/1031_fw.mp4	0.0	315.9628908634186	
48	291.1070659160614	pulse	1	t		46.0	2.5	/experiments/AOT/AOT_stimuli/rescaled_final/1031_fw.mp4	0.0	317.57134795188904	
48	291.215234041214	fix_post	2		12	46.0	2.5	/experiments/AOT/AOT_stimuli/rescaled_final/1031_fw.mp4	0.0	317.6795160770416	0.09987998008728027
49	291.31511402130127	fix_pre	0		120	47.0	2.5	blank	1.0	317.7793960571289	1.0000958442687988
49	292.31520986557007	movie	1		300	47.0	2.5	blank	1.0	318.7794919013977	2.500046968460083
49	292.69863295555115	pulse	1	t		47.0	2.5	blank	1.0	319.1629149913788	
49	294.2988200187683	pulse	1	t		47.0	2.5	blank	1.0	320.76310205459595	
49	294.81525683403015	fix_post	2		12	47.0	2.5	blank	1.0	321.2795388698578	0.09998321533203125
50	294.9152400493622	fix_pre	0		119	48.0	2.5	/experiments/AOT/AOT_stimuli/rescaled_final/0040_rv.mp4	0.0	321.3795220851898	0.9915947914123535
50	295.89859795570374	pulse	0	t		48.0	2.5	/experiments/AOT/AOT_stimuli/rescaled_final/0040_rv.mp4	0.0	322.3628799915314	
50	295.90683484077454	movie	1		246	48.0	2.5	/experiments/AOT/AOT_stimuli/rescaled_final/0040_rv.mp4	0.0	322.3711168766022	2.50839900970459
50	297.50709104537964	pulse	1	t		48.0	2.5	/experiments/AOT/AOT_stimuli/rescaled_final/0040_rv.mp4	0.0	323.9713730812073	
50	298.4152338504791	fix_post	2		12	48.0	2.5	/experiments/AOT/AOT_stimuli/rescaled_final/0040_rv.mp4	0.0	324.87951588630676	0.099945068359375
51	298.5151789188385	fix_pre	0		120	49.0	2.5	/experiments/AOT/AOT_stimuli/rescaled_final/1570_rv.mp4	0.0	324.97946095466614	1.000020980834961
51	299.09861993789673	pulse	0	t		49.0	2.5	/experiments/AOT/AOT_stimuli/rescaled_final/1570_rv.mp4	0.0	325.56290197372437	
51	299.51519989967346	movie	1		246	49.0	2.5	/experiments/AOT/AOT_stimuli/rescaled_final/1570_rv.mp4	0.0	325.9794819355011	2.499967098236084
51	300.69872784614563	pulse	1	t		49.0	2.5	/experiments/AOT/AOT_stimuli/rescaled_final/1570_rv.mp4	0.0	327.16300988197327	
51	302.01516699790955	fix_post	2		12	49.0	2.5	/experiments/AOT/AOT_stimuli/rescaled_final/1570_rv.mp4	0.0	328.4794490337372	0.10002994537353516
52	302.1151969432831	fix_pre	0		120	50.0	2.5	/experiments/AOT/AOT_stimuli/rescaled_final/0400_rv.mp4	0.0	328.5794789791107	0.9999558925628662
52	302.2987060546875	pulse	0	t		50.0	2.5	/experiments/AOT/AOT_stimuli/rescaled_final/0400_rv.mp4	0.0	328.76298809051514	
52	303.11515283584595	movie	1		244	50.0	2.5	/experiments/AOT/AOT_stimuli/rescaled_final/0400_rv.mp4	0.0	329.5794348716736	2.4999911785125732
52	303.8986518383026	pulse	1	t		50.0	2.5	/experiments/AOT/AOT_stimuli/rescaled_final/0400_rv.mp4	0.0	330.36293387413025	
52	305.4987008571625	pulse	1	t		50.0	2.5	/experiments/AOT/AOT_stimuli/rescaled_final/0400_rv.mp4	0.0	331.9629828929901	
52	305.6151440143585	fix_post	2		12	50.0	2.5	/experiments/AOT/AOT_stimuli/rescaled_final/0400_rv.mp4	0.0	332.07942605018616	0.1000828742980957
53	305.7152268886566	fix_pre	0		120	51.0	2.5	/experiments/AOT/AOT_stimuli/rescaled_final/0609_rv.mp4	0.0	332.17950892448425	0.9998559951782227
53	306.71508288383484	movie	1		244	51.0	2.5	/experiments/AOT/AOT_stimuli/rescaled_final/0609_rv.mp4	0.0	333.1793649196625	2.499588966369629
53	307.0997579097748	pulse	1	t		51.0	2.5	/experiments/AOT/AOT_stimuli/rescaled_final/0609_rv.mp4	0.0	333.5640399456024	
53	308.69859504699707	pulse	1	t		51.0	2.5	/experiments/AOT/AOT_stimuli/rescaled_final/0609_rv.mp4	0.0	335.1628770828247	
53	309.21467185020447	fix_post	2		12	51.0	2.5	/experiments/AOT/AOT_stimuli/rescaled_final/0609_rv.mp4	0.0	335.6789538860321	0.10038113594055176
54	309.315052986145	fix_pre	0		119	52.0	2.5	/experiments/AOT/AOT_stimuli/rescaled_final/1014_rv.mp4	0.0	335.77933502197266	0.991736888885498
54	310.2986629009247	pulse	0	t		52.0	2.5	/experiments/AOT/AOT_stimuli/rescaled_final/1014_rv.mp4	0.0	336.7629449367523	
54	310.3067898750305	movie	1		244	52.0	2.5	/experiments/AOT/AOT_stimuli/rescaled_final/1014_rv.mp4	0.0	336.77107191085815	2.508308172225952
54	311.8985450267792	pulse	1	t		52.0	2.5	/experiments/AOT/AOT_stimuli/rescaled_final/1014_rv.mp4	0.0	338.3628270626068	
54	312.81509804725647	fix_post	2		12	52.0	2.5	/experiments/AOT/AOT_stimuli/rescaled_final/1014_rv.mp4	0.0	339.2793800830841	0.09998583793640137
55	312.91508388519287	fix_pre	0		120	53.0	2.5	/experiments/AOT/AOT_stimuli/rescaled_final/1309_fw.mp4	0.0	339.3793659210205	0.9999990463256836
55	313.49864196777344	pulse	0	t		53.0	2.5	/experiments/AOT/AOT_stimuli/rescaled_final/1309_fw.mp4	0.0	339.9629240036011	
55	313.91508293151855	movie	1		244	53.0	2.5	/experiments/AOT/AOT_stimuli/rescaled_final/1309_fw.mp4	0.0	340.3793649673462	2.5002360343933105
55	315.0982758998871	pulse	1	t		53.0	2.5	/experiments/AOT/AOT_stimuli/rescaled_final/1309_fw.mp4	0.0	341.5625579357147	
55	316.41531896591187	fix_post	2		12	53.0	2.5	/experiments/AOT/AOT_stimuli/rescaled_final/1309_fw.mp4	0.0	342.8796010017395	0.09965085983276367
56	316.51496982574463	fix_pre	0		120	54.0	2.5	/experiments/AOT/AOT_stimuli/rescaled_final/1014_rv.mp4	0.0	342.97925186157227	1.0000991821289062
56	316.69847893714905	pulse	0	t		54.0	2.5	/experiments/AOT/AOT_stimuli/rescaled_final/1014_rv.mp4	0.0	343.1627609729767	
56	317.51506900787354	movie	1		245	54.0	2.5	/experiments/AOT/AOT_stimuli/rescaled_final/1014_rv.mp4	0.0	343.9793510437012	2.499495029449463
56	318.29852390289307	pulse	1	t		54.0	2.5	/experiments/AOT/AOT_stimuli/rescaled_final/1014_rv.mp4	0.0	344.7628059387207	
56	319.89850187301636	pulse	1	t		54.0	2.5	/experiments/AOT/AOT_stimuli/rescaled_final/1014_rv.mp4	0.0	346.362783908844	
56	320.014564037323	fix_post	2		12	54.0	2.5	/experiments/AOT/AOT_stimuli/rescaled_final/1014_rv.mp4	0.0	346.47884607315063	0.10048079490661621
57	320.1150448322296	fix_pre	0		120	55.0	2.5	/experiments/AOT/AOT_stimuli/rescaled_final/1425_rv.mp4	0.0	346.57932686805725	0.9999821186065674
57	321.1150269508362	movie	1		248	55.0	2.5	/experiments/AOT/AOT_stimuli/rescaled_final/1425_rv.mp4	0.0	347.5793089866638	2.49960994720459
57	321.49798488616943	pulse	1	t		55.0	2.5	/experiments/AOT/AOT_stimuli/rescaled_final/1425_rv.mp4	0.0	347.96226692199707	
57	323.09843492507935	pulse	1	t		55.0	2.5	/experiments/AOT/AOT_stimuli/rescaled_final/1425_rv.mp4	0.0	349.562716960907	
57	323.61463689804077	fix_post	2		12	55.0	2.5	/experiments/AOT/AOT_stimuli/rescaled_final/1425_rv.mp4	0.0	350.0789189338684	0.10032510757446289
58	323.71496200561523	fix_pre	0		119	56.0	2.5	blank	1.0	350.17924404144287	0.9917030334472656
58	324.6985399723053	pulse	0	t		56.0	2.5	blank	1.0	351.16282200813293	
58	324.7066650390625	movie	1		301	56.0	2.5	blank	1.0	351.17094707489014	2.508314847946167
58	326.29849886894226	pulse	1	t		56.0	2.5	blank	1.0	352.7627809047699	
58	327.21497988700867	fix_post	2		12	56.0	2.5	blank	1.0	353.6792619228363	0.10013413429260254
59	327.31511402130127	fix_pre	0		120	57.0	2.5	/experiments/AOT/AOT_stimuli/rescaled_final/1130_fw.mp4	0.0	353.7793960571289	0.9998888969421387
59	327.89847898483276	pulse	0	t		57.0	2.5	/experiments/AOT/AOT_stimuli/rescaled_final/1130_fw.mp4	0.0	354.3627610206604	
59	328.3150029182434	movie	1		244	57.0	2.5	/experiments/AOT/AOT_stimuli/rescaled_final/1130_fw.mp4	0.0	354.77928495407104	2.4996111392974854
59	329.4986448287964	pulse	1	t		57.0	2.5	/experiments/AOT/AOT_stimuli/rescaled_final/1130_fw.mp4	0.0	355.962926864624	
59	330.8146140575409	fix_post	2		12	57.0	2.5	/experiments/AOT/AOT_stimuli/rescaled_final/1130_fw.mp4	0.0	357.27889609336853	0.10041093826293945
60	330.91502499580383	fix_pre	0		120	58.0	2.5	/experiments/AOT/AOT_stimuli/rescaled_final/1389_rv.mp4	0.0	357.37930703163147	0.9999690055847168
60	331.0984139442444	pulse	0	t		58.0	2.5	/experiments/AOT/AOT_stimuli/rescaled_final/1389_rv.mp4	0.0	357.562695980072	
60	331.91499400138855	movie	1		243	58.0	2.5	/experiments/AOT/AOT_stimuli/rescaled_final/1389_rv.mp4	0.0	358.3792760372162	2.499565839767456
60	332.69847297668457	pulse	1	t		58.0	2.5	/experiments/AOT/AOT_stimuli/rescaled_final/1389_rv.mp4	0.0	359.1627550125122	
60	334.3068799972534	pulse	1	t		58.0	2.5	/experiments/AOT/AOT_stimuli/rescaled_final/1389_rv.mp4	0.0	360.77116203308105	
60	334.414559841156	fix_post	2		12	58.0	2.5	/experiments/AOT/AOT_stimuli/rescaled_final/1389_rv.mp4	0.0	360.87884187698364	0.10043501853942871
61	334.51499485969543	fix_pre	0		120	59.0	2.5	/experiments/AOT/AOT_stimuli/rescaled_final/1178_rv.mp4	0.0	360.97927689552307	1.0000450611114502
61	335.5150399208069	movie	1		242	59.0	2.5	/experiments/AOT/AOT_stimuli/rescaled_final/1178_rv.mp4	0.0	361.9793219566345	2.5000200271606445
61	335.8980619907379	pulse	1	t		59.0	2.5	/experiments/AOT/AOT_stimuli/rescaled_final/1178_rv.mp4	0.0	362.36234402656555	
61	337.4985189437866	pulse	1	t		59.0	2.5	/experiments/AOT/AOT_stimuli/rescaled_final/1178_rv.mp4	0.0	363.96280097961426	
61	338.01505994796753	fix_post	2		12	59.0	2.5	/experiments/AOT/AOT_stimuli/rescaled_final/1178_rv.mp4	0.0	364.47934198379517	0.09992194175720215
62	338.11498188972473	fix_pre	0		119	60.0	2.5	/experiments/AOT/AOT_stimuli/rescaled_final/0182_rv.mp4	0.0	364.57926392555237	0.9916660785675049
62	339.09848189353943	pulse	0	t		60.0	2.5	/experiments/AOT/AOT_stimuli/rescaled_final/0182_rv.mp4	0.0	365.56276392936707	
62	339.10664796829224	movie	1		246	60.0	2.5	/experiments/AOT/AOT_stimuli/rescaled_final/0182_rv.mp4	0.0	365.5709300041199	2.508212089538574
62	340.69951605796814	pulse	1	t		60.0	2.5	/experiments/AOT/AOT_stimuli/rescaled_final/0182_rv.mp4	0.0	367.1637980937958	
62	341.6148600578308	fix_post	2		12	60.0	2.5	/experiments/AOT/AOT_stimuli/rescaled_final/0182_rv.mp4	0.0	368.07914209365845	0.10011577606201172
63	341.7149758338928	fix_pre	0		120	61.0	2.5	blank	1.0	368.17925786972046	0.9999771118164062
63	342.2984459400177	pulse	0	t		61.0	2.5	blank	1.0	368.76272797584534	
63	342.71495294570923	movie	1		300	61.0	2.5	blank	1.0	369.17923498153687	2.4999771118164062
63	343.89858889579773	pulse	1	t		61.0	2.5	blank	1.0	370.36287093162537	
63	345.21493005752563	fix_post	2		12	61.0	2.5	blank	1.0	371.67921209335327	0.09991788864135742
64	345.314847946167	fix_pre	0		120	62.0	2.5	/experiments/AOT/AOT_stimuli/rescaled_final/0127_rv.mp4	0.0	371.77912998199463	1.000108003616333
64	345.4983808994293	pulse	0	t		62.0	2.5	/experiments/AOT/AOT_stimuli/rescaled_final/0127_rv.mp4	0.0	371.96266293525696	
64	346.3149559497833	movie	1		244	62.0	2.5	/experiments/AOT/AOT_stimuli/rescaled_final/0127_rv.mp4	0.0	372.77923798561096	2.5000100135803223
64	347.09839701652527	pulse	1	t		62.0	2.5	/experiments/AOT/AOT_stimuli/rescaled_final/0127_rv.mp4	0.0	373.5626790523529	
64	348.70678186416626	pulse	1	t		62.0	2.5	/experiments/AOT/AOT_stimuli/rescaled_final/0127_rv.mp4	0.0	375.1710638999939	
64	348.81496596336365	fix_post	2		12	62.0	2.5	/experiments/AOT/AOT_stimuli/rescaled_final/0127_rv.mp4	0.0	375.2792479991913	0.09993195533752441
65	348.9148979187012	fix_pre	0		120	63.0	2.5	/experiments/AOT/AOT_stimuli/rescaled_final/1539_rv.mp4	0.0	375.3791799545288	1.0000050067901611
65	349.91490292549133	movie	1		243	63.0	2.5	/experiments/AOT/AOT_stimuli/rescaled_final/1539_rv.mp4	0.0	376.37918496131897	2.4999749660491943
65	350.3067879676819	pulse	1	t		63.0	2.5	/experiments/AOT/AOT_stimuli/rescaled_final/1539_rv.mp4	0.0	376.7710700035095	
65	351.8983509540558	pulse	1	t		63.0	2.5	/experiments/AOT/AOT_stimuli/rescaled_final/1539_rv.mp4	0.0	378.3626329898834	
65	352.4148778915405	fix_post	2		12	63.0	2.5	/experiments/AOT/AOT_stimuli/rescaled_final/1539_rv.mp4	0.0	378.87915992736816	0.1000070571899414
66	352.51488494873047	fix_pre	0		119	64.0	2.5	/experiments/AOT/AOT_stimuli/rescaled_final/0003_fw.mp4	0.0	378.9791669845581	0.9917778968811035
66	353.4983959197998	pulse	0	t		64.0	2.5	/experiments/AOT/AOT_stimuli/rescaled_final/0003_fw.mp4	0.0	379.96267795562744	
66	353.5066628456116	movie	1		244	64.0	2.5	/experiments/AOT/AOT_stimuli/rescaled_final/0003_fw.mp4	0.0	379.9709448814392	2.5082521438598633
66	355.09825897216797	pulse	1	t		64.0	2.5	/experiments/AOT/AOT_stimuli/rescaled_final/0003_fw.mp4	0.0	381.5625410079956	
66	356.01491498947144	fix_post	2		12	64.0	2.5	/experiments/AOT/AOT_stimuli/rescaled_final/0003_fw.mp4	0.0	382.4791970252991	0.09996604919433594
67	356.11488103866577	fix_pre	0		120	65.0	2.5	/experiments/AOT/AOT_stimuli/rescaled_final/1748_rv.mp4	0.0	382.5791630744934	1.0000150203704834
67	356.6983759403229	pulse	0	t		65.0	2.5	/experiments/AOT/AOT_stimuli/rescaled_final/1748_rv.mp4	0.0	383.1626579761505	
67	357.11489605903625	movie	1		242	65.0	2.5	/experiments/AOT/AOT_stimuli/rescaled_final/1748_rv.mp4	0.0	383.5791780948639	2.499546766281128
67	358.29842805862427	pulse	1	t		65.0	2.5	/experiments/AOT/AOT_stimuli/rescaled_final/1748_rv.mp4	0.0	384.7627100944519	
67	359.6144428253174	fix_post	2		12	65.0	2.5	/experiments/AOT/AOT_stimuli/rescaled_final/1748_rv.mp4	0.0	386.078724861145	0.10051321983337402
68	359.71495604515076	fix_pre	0		120	66.0	2.5	/experiments/AOT/AOT_stimuli/rescaled_final/0302_rv.mp4	0.0	386.1792380809784	0.9998300075531006
68	359.8984179496765	pulse	0	t		66.0	2.5	/experiments/AOT/AOT_stimuli/rescaled_final/0302_rv.mp4	0.0	386.36269998550415	
68	360.71478605270386	movie	1		243	66.0	2.5	/experiments/AOT/AOT_stimuli/rescaled_final/0302_rv.mp4	0.0	387.1790680885315	2.499664783477783
68	361.4992048740387	pulse	1	t		66.0	2.5	/experiments/AOT/AOT_stimuli/rescaled_final/0302_rv.mp4	0.0	387.96348690986633	
68	363.1067428588867	pulse	1	t		66.0	2.5	/experiments/AOT/AOT_stimuli/rescaled_final/0302_rv.mp4	0.0	389.57102489471436	
68	363.21445083618164	fix_post	2		12	66.0	2.5	/experiments/AOT/AOT_stimuli/rescaled_final/0302_rv.mp4	0.0	389.6787328720093	0.10045814514160156
69	363.31490898132324	fix_pre	0		120	67.0	2.5	/experiments/AOT/AOT_stimuli/rescaled_final/0993_rv.mp4	0.0	389.7791910171509	0.9999749660491943
69	364.31488394737244	movie	1		243	67.0	2.5	/experiments/AOT/AOT_stimuli/rescaled_final/0993_rv.mp4	0.0	390.7791659832001	2.500048875808716
69	364.7067189216614	pulse	1	t		67.0	2.5	/experiments/AOT/AOT_stimuli/rescaled_final/0993_rv.mp4	0.0	391.171000957489	
69	366.2983889579773	pulse	1	t		67.0	2.5	/experiments/AOT/AOT_stimuli/rescaled_final/0993_rv.mp4	0.0	392.76267099380493	
69	366.81493282318115	fix_post	2		12	67.0	2.5	/experiments/AOT/AOT_stimuli/rescaled_final/0993_rv.mp4	0.0	393.2792148590088	0.1000070571899414
70	366.9149398803711	fix_pre	0		119	68.0	2.5	blank	1.0	393.37922191619873	0.9916131496429443
70	367.89831590652466	pulse	0	t		68.0	2.5	blank	1.0	394.3625979423523	
70	367.90655303001404	movie	1		301	68.0	2.5	blank	1.0	394.3708350658417	2.508330821990967
70	369.49838304519653	pulse	1	t		68.0	2.5	blank	1.0	395.96266508102417	
70	370.414883852005	fix_post	2		12	68.0	2.5	blank	1.0	396.87916588783264	0.10000014305114746
71	370.51488399505615	fix_pre	0		120	69.0	2.5	/experiments/AOT/AOT_stimuli/rescaled_final/1781_rv.mp4	0.0	396.9791660308838	1.0000629425048828
71	371.09795784950256	pulse	0	t		69.0	2.5	/experiments/AOT/AOT_stimuli/rescaled_final/1781_rv.mp4	0.0	397.5622398853302	
71	371.51494693756104	movie	1		244	69.0	2.5	/experiments/AOT/AOT_stimuli/rescaled_final/1781_rv.mp4	0.0	397.9792289733887	2.499829053878784
71	372.6985960006714	pulse	1	t		69.0	2.5	/experiments/AOT/AOT_stimuli/rescaled_final/1781_rv.mp4	0.0	399.162878036499	
71	374.0147759914398	fix_post	2		12	69.0	2.5	/experiments/AOT/AOT_stimuli/rescaled_final/1781_rv.mp4	0.0	400.47905802726746	0.10002589225769043
72	374.1148018836975	fix_pre	0		120	70.0	2.5	/experiments/AOT/AOT_stimuli/rescaled_final/2115_rv.mp4	0.0	400.57908391952515	1.0000360012054443
72	374.2983248233795	pulse	0	t		70.0	2.5	/experiments/AOT/AOT_stimuli/rescaled_final/2115_rv.mp4	0.0	400.76260685920715	
72	375.11483788490295	movie	1		244	70.0	2.5	/experiments/AOT/AOT_stimuli/rescaled_final/2115_rv.mp4	0.0	401.5791199207306	2.4999520778656006
72	375.8981728553772	pulse	1	t		70.0	2.5	/experiments/AOT/AOT_stimuli/rescaled_final/2115_rv.mp4	0.0	402.36245489120483	
72	377.5066158771515	pulse	1	t		70.0	2.5	/experiments/AOT/AOT_stimuli/rescaled_final/2115_rv.mp4	0.0	403.9708979129791	
72	377.61478996276855	fix_post	2		12	70.0	2.5	/experiments/AOT/AOT_stimuli/rescaled_final/2115_rv.mp4	0.0	404.0790719985962	0.09993791580200195
73	377.71472787857056	fix_pre	0		120	71.0	2.5	/experiments/AOT/AOT_stimuli/rescaled_final/1379_fw.mp4	0.0	404.1790099143982	1.0000510215759277
73	378.7147789001465	movie	1		244	71.0	2.5	/experiments/AOT/AOT_stimuli/rescaled_final/1379_fw.mp4	0.0	405.1790609359741	2.499958038330078
73	379.09859895706177	pulse	1	t		71.0	2.5	/experiments/AOT/AOT_stimuli/rescaled_final/1379_fw.mp4	0.0	405.5628809928894	
73	380.6990330219269	pulse	1	t		71.0	2.5	/experiments/AOT/AOT_stimuli/rescaled_final/1379_fw.mp4	0.0	407.1633150577545	
73	381.21473693847656	fix_post	2		12	71.0	2.5	/experiments/AOT/AOT_stimuli/rescaled_final/1379_fw.mp4	0.0	407.6790189743042	0.10001707077026367
74	381.3147540092468	fix_pre	0		119	72.0	2.5	/experiments/AOT/AOT_stimuli/rescaled_final/1321_rv.mp4	0.0	407.77903604507446	0.9916939735412598
74	382.2982380390167	pulse	0	t		72.0	2.5	/experiments/AOT/AOT_stimuli/rescaled_final/1321_rv.mp4	0.0	408.76252007484436	
74	382.3064479827881	movie	1		248	72.0	2.5	/experiments/AOT/AOT_stimuli/rescaled_final/1321_rv.mp4	0.0	408.7707300186157	2.5083248615264893
74	383.9065818786621	pulse	1	t		72.0	2.5	/experiments/AOT/AOT_stimuli/rescaled_final/1321_rv.mp4	0.0	410.37086391448975	
74	384.8147728443146	fix_post	2		12	72.0	2.5	/experiments/AOT/AOT_stimuli/rescaled_final/1321_rv.mp4	0.0	411.2790548801422	0.09996509552001953
75	384.9147379398346	fix_pre	0		120	73.0	2.5	/experiments/AOT/AOT_stimuli/rescaled_final/1570_rv.mp4	0.0	411.37901997566223	0.9999809265136719
75	385.49815797805786	pulse	0	t		73.0	2.5	/experiments/AOT/AOT_stimuli/rescaled_final/1570_rv.mp4	0.0	411.9624400138855	
75	385.91471886634827	movie	1		246	73.0	2.5	/experiments/AOT/AOT_stimuli/rescaled_final/1570_rv.mp4	0.0	412.3790009021759	2.4999639987945557
75	387.0982298851013	pulse	1	t		73.0	2.5	/experiments/AOT/AOT_stimuli/rescaled_final/1570_rv.mp4	0.0	413.56251192092896	
75	388.4146828651428	fix_post	2		12	73.0	2.5	/experiments/AOT/AOT_stimuli/rescaled_final/1570_rv.mp4	0.0	414.87896490097046	0.10003399848937988
76	388.5147168636322	fix_pre	0		120	74.0	2.5	/experiments/AOT/AOT_stimuli/rescaled_final/0457_rv.mp4	0.0	414.97899889945984	0.9996600151062012
76	388.6981179714203	pulse	0	t		74.0	2.5	/experiments/AOT/AOT_stimuli/rescaled_final/0457_rv.mp4	0.0	415.1624000072479	
76	389.5143768787384	movie	1		246	74.0	2.5	/experiments/AOT/AOT_stimuli/rescaled_final/0457_rv.mp4	0.0	415.97865891456604	2.499972105026245
76	390.2982349395752	pulse	1	t		74.0	2.5	/experiments/AOT/AOT_stimuli/rescaled_final/0457_rv.mp4	0.0	416.76251697540283	
76	391.9065890312195	pulse	1	t		74.0	2.5	/experiments/AOT/AOT_stimuli/rescaled_final/0457_rv.mp4	0.0	418.3708710670471	
76	392.01434898376465	fix_post	2		12	74.0	2.5	/experiments/AOT/AOT_stimuli/rescaled_final/0457_rv.mp4	0.0	418.4786310195923	0.10044693946838379
77	392.11479592323303	fix_pre	0		120	75.0	2.5	/experiments/AOT/AOT_stimuli/rescaled_final/0097_fw.mp4	0.0	418.57907795906067	0.999859094619751
77	393.1146550178528	movie	1		247	75.0	2.5	/experiments/AOT/AOT_stimuli/rescaled_final/0097_fw.mp4	0.0	419.5789370536804	2.500105857849121
77	393.5066318511963	pulse	1	t		75.0	2.5	/experiments/AOT/AOT_stimuli/rescaled_final/0097_fw.mp4	0.0	419.9709138870239	
77	395.0990869998932	pulse	1	t		75.0	2.5	/experiments/AOT/AOT_stimuli/rescaled_final/0097_fw.mp4	0.0	421.5633690357208	
77	395.6147608757019	fix_post	2		12	75.0	2.5	/experiments/AOT/AOT_stimuli/rescaled_final/0097_fw.mp4	0.0	422.07904291152954	0.0995180606842041
78	395.7142789363861	fix_pre	0		119	76.0	2.5	/experiments/AOT/AOT_stimuli/rescaled_final/1942_fw.mp4	0.0	422.17856097221375	0.9920461177825928
78	396.6982238292694	pulse	0	t		76.0	2.5	/experiments/AOT/AOT_stimuli/rescaled_final/1942_fw.mp4	0.0	423.16250586509705	
78	396.7063250541687	movie	1		244	76.0	2.5	/experiments/AOT/AOT_stimuli/rescaled_final/1942_fw.mp4	0.0	423.17060708999634	2.507924795150757
78	398.3065948486328	pulse	1	t		76.0	2.5	/experiments/AOT/AOT_stimuli/rescaled_final/1942_fw.mp4	0.0	424.77087688446045	
78	399.21424984931946	fix_post	2		12	76.0	2.5	/experiments/AOT/AOT_stimuli/rescaled_final/1942_fw.mp4	0.0	425.6785318851471	0.10037708282470703
79	399.31462693214417	fix_pre	0		120	77.0	2.5	blank	1.0	425.7789089679718	1.000046968460083
79	399.8981628417969	pulse	0	t		77.0	2.5	blank	1.0	426.3624448776245	
79	400.31467390060425	movie	1		300	77.0	2.5	blank	1.0	426.7789559364319	2.4999489784240723
79	401.4981508255005	pulse	1	t		77.0	2.5	blank	1.0	427.9624328613281	
79	402.8146228790283	fix_post	2		12	77.0	2.5	blank	1.0	429.27890491485596	0.09997916221618652
80	402.9146020412445	fix_pre	0		120	78.0	2.5	/experiments/AOT/AOT_stimuli/rescaled_final/1252_fw.mp4	0.0	429.37888407707214	0.999992847442627
80	403.0981779098511	pulse	0	t		78.0	2.5	/experiments/AOT/AOT_stimuli/rescaled_final/1252_fw.mp4	0.0	429.5624599456787	
80	403.91459488868713	movie	1		243	78.0	2.5	/experiments/AOT/AOT_stimuli/rescaled_final/1252_fw.mp4	0.0	430.37887692451477	2.500102996826172
80	404.6981608867645	pulse	1	t		78.0	2.5	/experiments/AOT/AOT_stimuli/rescaled_final/1252_fw.mp4	0.0	431.16244292259216	
80	406.3065848350525	pulse	1	t		78.0	2.5	/experiments/AOT/AOT_stimuli/rescaled_final/1252_fw.mp4	0.0	432.7708668708801	
80	406.4146978855133	fix_post	2		12	78.0	2.5	/experiments/AOT/AOT_stimuli/rescaled_final/1252_fw.mp4	0.0	432.87897992134094	0.09946703910827637
81	406.5141649246216	fix_pre	0		120	79.0	2.5	/experiments/AOT/AOT_stimuli/rescaled_final/0594_fw.mp4	0.0	432.9784469604492	1.0004639625549316
81	407.5146288871765	movie	1		244	79.0	2.5	/experiments/AOT/AOT_stimuli/rescaled_final/0594_fw.mp4	0.0	433.97891092300415	2.4995031356811523
81	407.89818501472473	pulse	1	t		79.0	2.5	/experiments/AOT/AOT_stimuli/rescaled_final/0594_fw.mp4	0.0	434.36246705055237	
81	409.49903297424316	pulse	1	t		79.0	2.5	/experiments/AOT/AOT_stimuli/rescaled_final/0594_fw.mp4	0.0	435.9633150100708	
81	410.01413202285767	fix_post	2		12	79.0	2.5	/experiments/AOT/AOT_stimuli/rescaled_final/0594_fw.mp4	0.0	436.4784140586853	0.10051894187927246
82	410.11465096473694	fix_pre	0		120	80.0	2.5	/experiments/AOT/AOT_stimuli/rescaled_final/1538_rv.mp4	0.0	436.5789330005646	0.999924898147583
82	411.0988600254059	pulse	0	t		80.0	2.5	/experiments/AOT/AOT_stimuli/rescaled_final/1538_rv.mp4	0.0	437.5631420612335	
82	411.1145758628845	movie	1		246	80.0	2.5	/experiments/AOT/AOT_stimuli/rescaled_final/1538_rv.mp4	0.0	437.57885789871216	2.508392095565796
82	412.70598697662354	pulse	1	t		80.0	2.5	/experiments/AOT/AOT_stimuli/rescaled_final/1538_rv.mp4	0.0	439.1702690124512	
82	413.6229679584503	fix_post	2		12	80.0	2.5	/experiments/AOT/AOT_stimuli/rescaled_final/1538_rv.mp4	0.0	440.08724999427795	0.09998893737792969
83	413.72295689582825	fix_pre	0		120	81.0	2.5	/experiments/AOT/AOT_stimuli/rescaled_final/0895_rv.mp4	0.0	440.1872389316559	1.0000360012054443
83	414.2988510131836	pulse	0	t		81.0	2.5	/experiments/AOT/AOT_stimuli/rescaled_final/0895_rv.mp4	0.0	440.76313304901123	
83	414.7229928970337	movie	1		245	81.0	2.5	/experiments/AOT/AOT_stimuli/rescaled_final/0895_rv.mp4	0.0	441.1872749328613	2.4995901584625244
83	415.9064898490906	pulse	1	t		81.0	2.5	/experiments/AOT/AOT_stimuli/rescaled_final/0895_rv.mp4	0.0	442.3707718849182	
83	417.2225830554962	fix_post	2		12	81.0	2.5	/experiments/AOT/AOT_stimuli/rescaled_final/0895_rv.mp4	0.0	443.68686509132385	0.10039186477661133
84	417.3229749202728	fix_pre	0		120	82.0	2.5	blank	1.0	443.78725695610046	0.999967098236084
84	417.49807691574097	pulse	0	t		82.0	2.5	blank	1.0	443.9623589515686	
84	418.3229420185089	movie	1		300	82.0	2.5	blank	1.0	444.78722405433655	2.500006914138794
84	419.0980019569397	pulse	1	t		82.0	2.5	blank	1.0	445.56228399276733	
84	420.69806599617004	pulse	1	t		82.0	2.5	blank	1.0	447.1623480319977	
84	420.8229489326477	fix_post	2		12	82.0	2.5	blank	1.0	447.28723096847534	0.10000896453857422
85	420.9229578971863	fix_pre	0		120	83.0	2.5	/experiments/AOT/AOT_stimuli/rescaled_final/0058_rv.mp4	0.0	447.3872399330139	1.0000219345092773
85	421.92297983169556	movie	1		244	83.0	2.5	/experiments/AOT/AOT_stimuli/rescaled_final/0058_rv.mp4	0.0	448.3872618675232	2.5000460147857666
85	422.29810190200806	pulse	1	t		83.0	2.5	/experiments/AOT/AOT_stimuli/rescaled_final/0058_rv.mp4	0.0	448.7623839378357	
85	423.89821195602417	pulse	1	t		83.0	2.5	/experiments/AOT/AOT_stimuli/rescaled_final/0058_rv.mp4	0.0	450.3624939918518	
85	424.4230258464813	fix_post	2		12	83.0	2.5	/experiments/AOT/AOT_stimuli/rescaled_final/0058_rv.mp4	0.0	450.88730788230896	0.09991812705993652
87	424.52294397354126	stim	0		1716					450.9872260093689	14.299916982650757
87	425.4985809326172	pulse	0	t						451.9628629684448	
87	427.0986349582672	pulse	0	t						453.56291699409485	
87	428.69886803627014	pulse	0	t						455.1631500720978	
87	430.29904103279114	pulse	0	t						456.7633230686188	
87	431.89807295799255	pulse	0	t						458.3623549938202	
87	433.49801683425903	pulse	0	t						459.96229887008667	
87	435.0978899002075	pulse	0	t						461.56217193603516	
87	436.6978759765625	pulse	0	t						463.16215801239014	
87	438.2979118824005	pulse	0	t						464.76219391822815	
