trial_nr	onset	event_type	phase	response	nr_frames	movie_index	movie_duration	movie_file	blank	onset_abs	duration
0	0.1918010711669922	stim	0		5					57.8778600692749	0.04152488708496094
0	0.22538399696350098	response	0	space						57.91144299507141	
1	0.23332595825195312	stim	0		4687					57.91938495635986	39.08335995674133
1	39.28709101676941	pulse	0	t						96.97315001487732	
1	39.316685914993286	stim	1		1716					97.0027449131012	14.299606084823608
1	40.88130593299866	pulse	1	t						98.56736493110657	
1	42.48144507408142	pulse	1	t						100.16750407218933	
1	44.08166193962097	pulse	1	t						101.76772093772888	
1	45.682316064834595	pulse	1	t						103.3683750629425	
1	47.282252073287964	pulse	1	t						104.96831107139587	
1	48.882363080978394	pulse	1	t						106.5684220790863	
1	50.482605934143066	pulse	1	t						108.16866493225098	
1	52.08293294906616	pulse	1	t						109.76899194717407	
2	53.616291999816895	fix_pre	0		9	0.0	2.5	/experiments/knapen_AOT/AOT_stimuli/rescaled_final/1809_rv.mp4	0.0	111.3023509979248	0.15010595321655273
2	53.68326687812805	pulse	0	t		0.0	2.5	/experiments/knapen_AOT/AOT_stimuli/rescaled_final/1809_rv.mp4	0.0	111.36932587623596	
2	53.76639795303345	movie	1		233	0.0	2.5	/experiments/knapen_AOT/AOT_stimuli/rescaled_final/1809_rv.mp4	0.0	111.45245695114136	2.433651924133301
2	55.28168606758118	pulse	1	t		0.0	2.5	/experiments/knapen_AOT/AOT_stimuli/rescaled_final/1809_rv.mp4	0.0	112.96774506568909	
2	56.20004987716675	fix_post	2		12	0.0	2.5	/experiments/knapen_AOT/AOT_stimuli/rescaled_final/1809_rv.mp4	0.0	113.88610887527466	0.09998106956481934
3	56.30003094673157	fix_pre	0		120	1.0	2.5	/experiments/knapen_AOT/AOT_stimuli/rescaled_final/1817_fw.mp4	0.0	113.98608994483948	1.0501909255981445
3	56.883601903915405	pulse	0	t		1.0	2.5	/experiments/knapen_AOT/AOT_stimuli/rescaled_final/1817_fw.mp4	0.0	114.56966090202332	
3	57.35022187232971	movie	1		228	1.0	2.5	/experiments/knapen_AOT/AOT_stimuli/rescaled_final/1817_fw.mp4	0.0	115.03628087043762	2.4503531455993652
3	58.48398804664612	pulse	1	t		1.0	2.5	/experiments/knapen_AOT/AOT_stimuli/rescaled_final/1817_fw.mp4	0.0	116.17004704475403	
3	59.80057501792908	fix_post	2		12	1.0	2.5	/experiments/knapen_AOT/AOT_stimuli/rescaled_final/1817_fw.mp4	0.0	117.48663401603699	0.09996390342712402
4	59.9005389213562	fix_pre	0		120	2.0	2.5	/experiments/knapen_AOT/AOT_stimuli/rescaled_final/1740_rv.mp4	0.0	117.58659791946411	1.0919239521026611
4	60.08409786224365	pulse	0	t		2.0	2.5	/experiments/knapen_AOT/AOT_stimuli/rescaled_final/1740_rv.mp4	0.0	117.77015686035156	
4	60.99246287345886	movie	1		221	2.0	2.5	/experiments/knapen_AOT/AOT_stimuli/rescaled_final/1740_rv.mp4	0.0	118.67852187156677	2.4086151123046875
4	61.68382692337036	pulse	1	t		2.0	2.5	/experiments/knapen_AOT/AOT_stimuli/rescaled_final/1740_rv.mp4	0.0	119.36988592147827	
4	63.28375196456909	pulse	1	t		2.0	2.5	/experiments/knapen_AOT/AOT_stimuli/rescaled_final/1740_rv.mp4	0.0	120.969810962677	
4	63.40107798576355	fix_post	2		12	2.0	2.5	/experiments/knapen_AOT/AOT_stimuli/rescaled_final/1740_rv.mp4	0.0	121.08713698387146	0.10830402374267578
5	63.509382009506226	fix_pre	0		119	3.0	2.5	/experiments/knapen_AOT/AOT_stimuli/rescaled_final/0310_fw.mp4	0.0	121.19544100761414	1.067072868347168
5	64.5764548778534	movie	1		232	3.0	2.5	/experiments/knapen_AOT/AOT_stimuli/rescaled_final/0310_fw.mp4	0.0	122.2625138759613	2.4168100357055664
5	64.88386297225952	pulse	1	t		3.0	2.5	/experiments/knapen_AOT/AOT_stimuli/rescaled_final/0310_fw.mp4	0.0	122.56992197036743	
5	66.4845700263977	pulse	1	t		3.0	2.5	/experiments/knapen_AOT/AOT_stimuli/rescaled_final/0310_fw.mp4	0.0	124.17062902450562	
5	66.99326491355896	fix_post	2		12	3.0	2.5	/experiments/knapen_AOT/AOT_stimuli/rescaled_final/0310_fw.mp4	0.0	124.67932391166687	0.10003900527954102
6	67.0933039188385	fix_pre	0		120	4.0	2.5	/experiments/knapen_AOT/AOT_stimuli/rescaled_final/0750_fw.mp4	0.0	124.77936291694641	1.0751690864562988
6	68.08532404899597	pulse	0	t		4.0	2.5	/experiments/knapen_AOT/AOT_stimuli/rescaled_final/0750_fw.mp4	0.0	125.77138304710388	
6	68.1684730052948	movie	1		223	4.0	2.5	/experiments/knapen_AOT/AOT_stimuli/rescaled_final/0750_fw.mp4	0.0	125.85453200340271	2.433706045150757
6	69.68426990509033	pulse	1	t		4.0	2.5	/experiments/knapen_AOT/AOT_stimuli/rescaled_final/0750_fw.mp4	0.0	127.37032890319824	
6	70.60217905044556	fix_post	2		12	4.0	2.5	/experiments/knapen_AOT/AOT_stimuli/rescaled_final/0750_fw.mp4	0.0	128.28823804855347	0.10024690628051758
7	70.70242595672607	fix_pre	0		120	5.0	2.5	/experiments/knapen_AOT/AOT_stimuli/rescaled_final/1403_rv.mp4	0.0	128.38848495483398	1.058424949645996
7	71.28575086593628	pulse	0	t		5.0	2.5	/experiments/knapen_AOT/AOT_stimuli/rescaled_final/1403_rv.mp4	0.0	128.9718098640442	
7	71.76085090637207	movie	1		229	5.0	2.5	/experiments/knapen_AOT/AOT_stimuli/rescaled_final/1403_rv.mp4	0.0	129.44690990447998	2.4418351650238037
7	72.8862190246582	pulse	1	t		5.0	2.5	/experiments/knapen_AOT/AOT_stimuli/rescaled_final/1403_rv.mp4	0.0	130.5722780227661	
7	74.20268607139587	fix_post	2		12	5.0	2.5	/experiments/knapen_AOT/AOT_stimuli/rescaled_final/1403_rv.mp4	0.0	131.88874506950378	0.1000678539276123
8	74.30275392532349	fix_pre	0		120	6.0	2.5	/experiments/knapen_AOT/AOT_stimuli/rescaled_final/1958_rv.mp4	0.0	131.9888129234314	1.0502140522003174
8	74.48630595207214	pulse	0	t		6.0	2.5	/experiments/knapen_AOT/AOT_stimuli/rescaled_final/1958_rv.mp4	0.0	132.17236495018005	
8	75.3529679775238	movie	1		221	6.0	2.5	/experiments/knapen_AOT/AOT_stimuli/rescaled_final/1958_rv.mp4	0.0	133.0390269756317	2.450269937515259
8	76.08505892753601	pulse	1	t		6.0	2.5	/experiments/knapen_AOT/AOT_stimuli/rescaled_final/1958_rv.mp4	0.0	133.77111792564392	
8	77.6865348815918	pulse	1	t		6.0	2.5	/experiments/knapen_AOT/AOT_stimuli/rescaled_final/1958_rv.mp4	0.0	135.3725938796997	
8	77.80323791503906	fix_post	2		12	6.0	2.5	/experiments/knapen_AOT/AOT_stimuli/rescaled_final/1958_rv.mp4	0.0	135.48929691314697	0.10002398490905762
9	77.90326189994812	fix_pre	0		120	7.0	2.5	blank	1.0	135.58932089805603	1.000133991241455
9	78.90339589118958	movie	1		299	7.0	2.5	blank	1.0	136.58945488929749	2.4920380115509033
9	79.28699803352356	pulse	1	t		7.0	2.5	blank	1.0	136.97305703163147	
9	80.8873279094696	pulse	1	t		7.0	2.5	blank	1.0	138.57338690757751	
9	81.39543390274048	fix_post	2		12	7.0	2.5	blank	1.0	139.0814929008484	0.10007214546203613
10	81.49550604820251	fix_pre	0		120	8.0	2.5	/experiments/knapen_AOT/AOT_stimuli/rescaled_final/0548_rv.mp4	0.0	139.18156504631042	1.0835449695587158
10	82.4874620437622	pulse	0	t		8.0	2.5	/experiments/knapen_AOT/AOT_stimuli/rescaled_final/0548_rv.mp4	0.0	140.17352104187012	
10	82.57905101776123	movie	1		223	8.0	2.5	/experiments/knapen_AOT/AOT_stimuli/rescaled_final/0548_rv.mp4	0.0	140.26511001586914	2.4252779483795166
10	84.08789706230164	pulse	1	t		8.0	2.5	/experiments/knapen_AOT/AOT_stimuli/rescaled_final/0548_rv.mp4	0.0	141.77395606040955	
10	85.00432896614075	fix_post	2		12	8.0	2.5	/experiments/knapen_AOT/AOT_stimuli/rescaled_final/0548_rv.mp4	0.0	142.69038796424866	0.09997797012329102
11	85.10430693626404	fix_pre	0		120	9.0	2.5	/experiments/knapen_AOT/AOT_stimuli/rescaled_final/0641_rv.mp4	0.0	142.79036593437195	1.0669000148773193
11	85.6879620552063	pulse	0	t		9.0	2.5	/experiments/knapen_AOT/AOT_stimuli/rescaled_final/0641_rv.mp4	0.0	143.3740210533142	
11	86.17120695114136	movie	1		216	9.0	2.5	/experiments/knapen_AOT/AOT_stimuli/rescaled_final/0641_rv.mp4	0.0	143.85726594924927	2.433612108230591
11	87.28833103179932	pulse	1	t		9.0	2.5	/experiments/knapen_AOT/AOT_stimuli/rescaled_final/0641_rv.mp4	0.0	144.97439002990723	
11	88.60481905937195	fix_post	2		12	9.0	2.5	/experiments/knapen_AOT/AOT_stimuli/rescaled_final/0641_rv.mp4	0.0	146.29087805747986	0.10007786750793457
12	88.70489692687988	fix_pre	0		120	10.0	2.5	/experiments/knapen_AOT/AOT_stimuli/rescaled_final/1293_rv.mp4	0.0	146.3909559249878	1.0669441223144531
12	88.88829493522644	pulse	0	t		10.0	2.5	/experiments/knapen_AOT/AOT_stimuli/rescaled_final/1293_rv.mp4	0.0	146.57435393333435	
12	89.77184104919434	movie	1		221	10.0	2.5	/experiments/knapen_AOT/AOT_stimuli/rescaled_final/1293_rv.mp4	0.0	147.45790004730225	2.433539867401123
12	90.48750495910645	pulse	1	t		10.0	2.5	/experiments/knapen_AOT/AOT_stimuli/rescaled_final/1293_rv.mp4	0.0	148.17356395721436	
12	92.08774209022522	pulse	1	t		10.0	2.5	/experiments/knapen_AOT/AOT_stimuli/rescaled_final/1293_rv.mp4	0.0	149.77380108833313	
12	92.20538091659546	fix_post	2		12	10.0	2.5	/experiments/knapen_AOT/AOT_stimuli/rescaled_final/1293_rv.mp4	0.0	149.89143991470337	0.10002708435058594
13	92.30540800094604	fix_pre	0		120	11.0	2.5	/experiments/knapen_AOT/AOT_stimuli/rescaled_final/1821_fw.mp4	0.0	149.99146699905396	1.0585448741912842
13	93.36395287513733	movie	1		222	11.0	2.5	/experiments/knapen_AOT/AOT_stimuli/rescaled_final/1821_fw.mp4	0.0	151.05001187324524	2.4336202144622803
13	93.68870091438293	pulse	1	t		11.0	2.5	/experiments/knapen_AOT/AOT_stimuli/rescaled_final/1821_fw.mp4	0.0	151.37475991249084	
13	95.28789806365967	pulse	1	t		11.0	2.5	/experiments/knapen_AOT/AOT_stimuli/rescaled_final/1821_fw.mp4	0.0	152.97395706176758	
13	95.79757308959961	fix_post	2		12	11.0	2.5	/experiments/knapen_AOT/AOT_stimuli/rescaled_final/1821_fw.mp4	0.0	153.48363208770752	0.10004091262817383
14	95.89761400222778	fix_pre	0		120	12.0	2.5	/experiments/knapen_AOT/AOT_stimuli/rescaled_final/0054_rv.mp4	0.0	153.5836730003357	1.0501980781555176
14	96.88201189041138	pulse	0	t		12.0	2.5	/experiments/knapen_AOT/AOT_stimuli/rescaled_final/0054_rv.mp4	0.0	154.5680708885193	
14	96.9478120803833	movie	1		222	12.0	2.5	/experiments/knapen_AOT/AOT_stimuli/rescaled_final/0054_rv.mp4	0.0	154.6338710784912	2.458643913269043
14	98.48984789848328	pulse	1	t		12.0	2.5	/experiments/knapen_AOT/AOT_stimuli/rescaled_final/0054_rv.mp4	0.0	156.1759068965912	
14	99.40645599365234	fix_post	2		12	12.0	2.5	/experiments/knapen_AOT/AOT_stimuli/rescaled_final/0054_rv.mp4	0.0	157.09251499176025	0.09999608993530273
15	99.50645208358765	fix_pre	0		120	13.0	2.5	/experiments/knapen_AOT/AOT_stimuli/rescaled_final/1483_rv.mp4	0.0	157.19251108169556	1.0752158164978027
15	100.08191108703613	pulse	0	t		13.0	2.5	/experiments/knapen_AOT/AOT_stimuli/rescaled_final/1483_rv.mp4	0.0	157.76797008514404	
15	100.58166790008545	movie	1		229	13.0	2.5	/experiments/knapen_AOT/AOT_stimuli/rescaled_final/1483_rv.mp4	0.0	158.26772689819336	2.425318956375122
15	101.68196606636047	pulse	1	t		13.0	2.5	/experiments/knapen_AOT/AOT_stimuli/rescaled_final/1483_rv.mp4	0.0	159.36802506446838	
15	103.00698685646057	fix_post	2		8	13.0	2.5	/experiments/knapen_AOT/AOT_stimuli/rescaled_final/1483_rv.mp4	0.0	160.69304585456848	0.10006022453308105
16	103.10704708099365	fix_pre	0		120	14.0	2.5	blank	1.0	160.79310607910156	1.000135898590088
16	103.28225088119507	pulse	0	t		14.0	2.5	blank	1.0	160.96830987930298	
16	104.10718297958374	movie	1		300	14.0	2.5	blank	1.0	161.79324197769165	2.5003819465637207
16	104.88248896598816	pulse	1	t		14.0	2.5	blank	1.0	162.56854796409607	
16	106.48270606994629	pulse	1	t		14.0	2.5	blank	1.0	164.1687650680542	
16	106.60756492614746	fix_post	2		11	14.0	2.5	blank	1.0	164.29362392425537	0.09165096282958984
17	106.69921588897705	fix_pre	0		120	15.0	2.5	/experiments/knapen_AOT/AOT_stimuli/rescaled_final/1248_fw.mp4	0.0	164.38527488708496	1.0668821334838867
17	107.76609802246094	movie	1		219	15.0	2.5	/experiments/knapen_AOT/AOT_stimuli/rescaled_final/1248_fw.mp4	0.0	165.45215702056885	2.433640956878662
17	108.08285808563232	pulse	1	t		15.0	2.5	/experiments/knapen_AOT/AOT_stimuli/rescaled_final/1248_fw.mp4	0.0	165.76891708374023	
17	109.68321704864502	pulse	1	t		15.0	2.5	/experiments/knapen_AOT/AOT_stimuli/rescaled_final/1248_fw.mp4	0.0	167.36927604675293	
17	110.1997389793396	fix_post	2		12	15.0	2.5	/experiments/knapen_AOT/AOT_stimuli/rescaled_final/1248_fw.mp4	0.0	167.8857979774475	0.10004305839538574
18	110.29978203773499	fix_pre	0		119	16.0	2.5	/experiments/knapen_AOT/AOT_stimuli/rescaled_final/1649_rv.mp4	0.0	167.9858410358429	1.0585179328918457
18	111.28337597846985	pulse	0	t		16.0	2.5	/experiments/knapen_AOT/AOT_stimuli/rescaled_final/1649_rv.mp4	0.0	168.96943497657776	
18	111.35829997062683	movie	1		221	16.0	2.5	/experiments/knapen_AOT/AOT_stimuli/rescaled_final/1649_rv.mp4	0.0	169.04435896873474	2.4419939517974854
18	112.88201594352722	pulse	1	t		16.0	2.5	/experiments/knapen_AOT/AOT_stimuli/rescaled_final/1649_rv.mp4	0.0	170.56807494163513	
18	113.80029392242432	fix_post	2		12	16.0	2.5	/experiments/knapen_AOT/AOT_stimuli/rescaled_final/1649_rv.mp4	0.0	171.48635292053223	0.0999760627746582
19	113.90026998519897	fix_pre	0		120	17.0	2.5	/experiments/knapen_AOT/AOT_stimuli/rescaled_final/0641_fw.mp4	0.0	171.58632898330688	1.0502779483795166
19	114.48385405540466	pulse	0	t		17.0	2.5	/experiments/knapen_AOT/AOT_stimuli/rescaled_final/0641_fw.mp4	0.0	172.16991305351257	
19	114.95054793357849	movie	1		238	17.0	2.5	/experiments/knapen_AOT/AOT_stimuli/rescaled_final/0641_fw.mp4	0.0	172.6366069316864	2.4502580165863037
19	116.0831549167633	pulse	1	t		17.0	2.5	/experiments/knapen_AOT/AOT_stimuli/rescaled_final/0641_fw.mp4	0.0	173.76921391487122	
19	117.4008059501648	fix_post	2		12	17.0	2.5	/experiments/knapen_AOT/AOT_stimuli/rescaled_final/0641_fw.mp4	0.0	175.0868649482727	0.10001707077026367
20	117.50082302093506	fix_pre	0		120	18.0	2.5	/experiments/knapen_AOT/AOT_stimuli/rescaled_final/1124_fw.mp4	0.0	175.18688201904297	1.0835750102996826
20	117.68435597419739	pulse	0	t		18.0	2.5	/experiments/knapen_AOT/AOT_stimuli/rescaled_final/1124_fw.mp4	0.0	175.3704149723053	
20	118.58439803123474	movie	1		242	18.0	2.5	/experiments/knapen_AOT/AOT_stimuli/rescaled_final/1124_fw.mp4	0.0	176.27045702934265	2.416969060897827
20	119.28358387947083	pulse	1	t		18.0	2.5	/experiments/knapen_AOT/AOT_stimuli/rescaled_final/1124_fw.mp4	0.0	176.96964287757874	
20	120.8836190700531	pulse	1	t		18.0	2.5	/experiments/knapen_AOT/AOT_stimuli/rescaled_final/1124_fw.mp4	0.0	178.569678068161	
20	121.00136709213257	fix_post	2		12	18.0	2.5	/experiments/knapen_AOT/AOT_stimuli/rescaled_final/1124_fw.mp4	0.0	178.68742609024048	0.10000085830688477
21	121.10136795043945	fix_pre	0		120	19.0	2.5	blank	1.0	178.78742694854736	1.0001609325408936
21	122.10152888298035	movie	1		299	19.0	2.5	blank	1.0	179.78758788108826	2.492051124572754
21	122.48519897460938	pulse	1	t		19.0	2.5	blank	1.0	180.17125797271729	
21	124.08527994155884	pulse	1	t		19.0	2.5	blank	1.0	181.77133893966675	
21	124.5935800075531	fix_post	2		12	19.0	2.5	blank	1.0	182.279639005661	0.0999898910522461
22	124.69356989860535	fix_pre	0		120	20.0	2.5	/experiments/knapen_AOT/AOT_stimuli/rescaled_final/0259_fw.mp4	0.0	182.37962889671326	1.07529616355896
22	125.68554496765137	pulse	0	t		20.0	2.5	/experiments/knapen_AOT/AOT_stimuli/rescaled_final/0259_fw.mp4	0.0	183.37160396575928	
22	125.7688660621643	movie	1		232	20.0	2.5	/experiments/knapen_AOT/AOT_stimuli/rescaled_final/0259_fw.mp4	0.0	183.45492506027222	2.4335439205169678
22	127.28442597389221	pulse	1	t		20.0	2.5	/experiments/knapen_AOT/AOT_stimuli/rescaled_final/0259_fw.mp4	0.0	184.97048497200012	
22	128.20240998268127	fix_post	2		12	20.0	2.5	/experiments/knapen_AOT/AOT_stimuli/rescaled_final/0259_fw.mp4	0.0	185.88846898078918	0.1000370979309082
23	128.30244708061218	fix_pre	0		120	21.0	2.5	/experiments/knapen_AOT/AOT_stimuli/rescaled_final/1478_rv.mp4	0.0	185.9885060787201	1.0585048198699951
23	128.88617300987244	pulse	0	t		21.0	2.5	/experiments/knapen_AOT/AOT_stimuli/rescaled_final/1478_rv.mp4	0.0	186.57223200798035	
23	129.36095190048218	movie	1		246	21.0	2.5	/experiments/knapen_AOT/AOT_stimuli/rescaled_final/1478_rv.mp4	0.0	187.0470108985901	2.442005157470703
23	130.4863839149475	pulse	1	t		21.0	2.5	/experiments/knapen_AOT/AOT_stimuli/rescaled_final/1478_rv.mp4	0.0	188.17244291305542	
23	131.80295705795288	fix_post	2		12	21.0	2.5	/experiments/knapen_AOT/AOT_stimuli/rescaled_final/1478_rv.mp4	0.0	189.4890160560608	0.10001802444458008
24	131.90297508239746	fix_pre	0		120	22.0	2.5	/experiments/knapen_AOT/AOT_stimuli/rescaled_final/0823_rv.mp4	0.0	189.58903408050537	1.0840058326721191
24	132.08647108078003	pulse	0	t		22.0	2.5	/experiments/knapen_AOT/AOT_stimuli/rescaled_final/0823_rv.mp4	0.0	189.77253007888794	
24	132.98698091506958	movie	1		228	22.0	2.5	/experiments/knapen_AOT/AOT_stimuli/rescaled_final/0823_rv.mp4	0.0	190.6730399131775	2.416512966156006
24	133.68509101867676	pulse	1	t		22.0	2.5	/experiments/knapen_AOT/AOT_stimuli/rescaled_final/0823_rv.mp4	0.0	191.37115001678467	
24	135.28594589233398	pulse	1	t		22.0	2.5	/experiments/knapen_AOT/AOT_stimuli/rescaled_final/0823_rv.mp4	0.0	192.9720048904419	
24	135.4034938812256	fix_post	2		12	22.0	2.5	/experiments/knapen_AOT/AOT_stimuli/rescaled_final/0823_rv.mp4	0.0	193.0895528793335	0.10003018379211426
25	135.5035240650177	fix_pre	0		120	23.0	2.5	/experiments/knapen_AOT/AOT_stimuli/rescaled_final/0759_rv.mp4	0.0	193.1895830631256	1.083570957183838
25	136.58709502220154	movie	1		236	23.0	2.5	/experiments/knapen_AOT/AOT_stimuli/rescaled_final/0759_rv.mp4	0.0	194.27315402030945	2.4086110591888428
25	136.88587403297424	pulse	1	t		23.0	2.5	/experiments/knapen_AOT/AOT_stimuli/rescaled_final/0759_rv.mp4	0.0	194.57193303108215	
25	138.48597598075867	pulse	1	t		23.0	2.5	/experiments/knapen_AOT/AOT_stimuli/rescaled_final/0759_rv.mp4	0.0	196.17203497886658	
25	138.99570608139038	fix_post	2		12	23.0	2.5	/experiments/knapen_AOT/AOT_stimuli/rescaled_final/0759_rv.mp4	0.0	196.6817650794983	0.1000359058380127
26	139.0957419872284	fix_pre	0		120	24.0	2.5	/experiments/knapen_AOT/AOT_stimuli/rescaled_final/1215_rv.mp4	0.0	196.7818009853363	1.0835390090942383
26	140.08765602111816	pulse	0	t		24.0	2.5	/experiments/knapen_AOT/AOT_stimuli/rescaled_final/1215_rv.mp4	0.0	197.77371501922607	
26	140.17928099632263	movie	1		239	24.0	2.5	/experiments/knapen_AOT/AOT_stimuli/rescaled_final/1215_rv.mp4	0.0	197.86533999443054	2.425286054611206
26	141.6894609928131	pulse	1	t		24.0	2.5	/experiments/knapen_AOT/AOT_stimuli/rescaled_final/1215_rv.mp4	0.0	199.37551999092102	
26	142.60456705093384	fix_post	2		12	24.0	2.5	/experiments/knapen_AOT/AOT_stimuli/rescaled_final/1215_rv.mp4	0.0	200.29062604904175	0.10001802444458008
27	142.70458507537842	fix_pre	0		120	25.0	2.5	/experiments/knapen_AOT/AOT_stimuli/rescaled_final/0070_fw.mp4	0.0	200.39064407348633	1.0669047832489014
27	143.28830099105835	pulse	0	t		25.0	2.5	/experiments/knapen_AOT/AOT_stimuli/rescaled_final/0070_fw.mp4	0.0	200.97435998916626	
27	143.77148985862732	movie	1		250	25.0	2.5	/experiments/knapen_AOT/AOT_stimuli/rescaled_final/0070_fw.mp4	0.0	201.45754885673523	2.4335780143737793
27	144.88819408416748	pulse	1	t		25.0	2.5	/experiments/knapen_AOT/AOT_stimuli/rescaled_final/0070_fw.mp4	0.0	202.5742530822754	
27	146.2050678730011	fix_post	2		12	25.0	2.5	/experiments/knapen_AOT/AOT_stimuli/rescaled_final/0070_fw.mp4	0.0	203.891126871109	0.10010099411010742
28	146.3051688671112	fix_pre	0		120	26.0	2.5	blank	1.0	203.99122786521912	1.0001070499420166
28	146.48862195014954	pulse	0	t		26.0	2.5	blank	1.0	204.17468094825745	
28	147.30527591705322	movie	1		300	26.0	2.5	blank	1.0	204.99133491516113	2.500368118286133
28	148.08132600784302	pulse	1	t		26.0	2.5	blank	1.0	205.76738500595093	
28	149.68176293373108	pulse	1	t		26.0	2.5	blank	1.0	207.367821931839	
28	149.80564403533936	fix_post	2		12	26.0	2.5	blank	1.0	207.49170303344727	0.09999585151672363
29	149.90563988685608	fix_pre	0		120	27.0	2.5	/experiments/knapen_AOT/AOT_stimuli/rescaled_final/1304_fw.mp4	0.0	207.591698884964	1.0504040718078613
29	150.95604395866394	movie	1		249	27.0	2.5	/experiments/knapen_AOT/AOT_stimuli/rescaled_final/1304_fw.mp4	0.0	208.64210295677185	2.441805124282837
29	151.28869795799255	pulse	1	t		27.0	2.5	/experiments/knapen_AOT/AOT_stimuli/rescaled_final/1304_fw.mp4	0.0	208.97475695610046	
29	152.88803696632385	pulse	1	t		27.0	2.5	/experiments/knapen_AOT/AOT_stimuli/rescaled_final/1304_fw.mp4	0.0	210.57409596443176	
29	153.39784908294678	fix_post	2		12	27.0	2.5	/experiments/knapen_AOT/AOT_stimuli/rescaled_final/1304_fw.mp4	0.0	211.0839080810547	0.10000300407409668
30	153.49785208702087	fix_pre	0		119	28.0	2.5	/experiments/knapen_AOT/AOT_stimuli/rescaled_final/0926_rv.mp4	0.0	211.18391108512878	1.041862964630127
30	154.48168301582336	pulse	0	t		28.0	2.5	/experiments/knapen_AOT/AOT_stimuli/rescaled_final/0926_rv.mp4	0.0	212.16774201393127	
30	154.539715051651	movie	1		248	28.0	2.5	/experiments/knapen_AOT/AOT_stimuli/rescaled_final/0926_rv.mp4	0.0	212.2257740497589	2.45868182182312
30	156.08296489715576	pulse	1	t		28.0	2.5	/experiments/knapen_AOT/AOT_stimuli/rescaled_final/0926_rv.mp4	0.0	213.76902389526367	
30	156.99839687347412	fix_post	2		12	28.0	2.5	/experiments/knapen_AOT/AOT_stimuli/rescaled_final/0926_rv.mp4	0.0	214.68445587158203	0.09998703002929688
31	157.09838390350342	fix_pre	0		120	29.0	2.5	/experiments/knapen_AOT/AOT_stimuli/rescaled_final/0942_fw.mp4	0.0	214.78444290161133	1.0837430953979492
31	157.68199706077576	pulse	0	t		29.0	2.5	/experiments/knapen_AOT/AOT_stimuli/rescaled_final/0942_fw.mp4	0.0	215.36805605888367	
31	158.18212699890137	movie	1		253	29.0	2.5	/experiments/knapen_AOT/AOT_stimuli/rescaled_final/0942_fw.mp4	0.0	215.86818599700928	2.4167869091033936
31	159.28226590156555	pulse	1	t		29.0	2.5	/experiments/knapen_AOT/AOT_stimuli/rescaled_final/0942_fw.mp4	0.0	216.96832489967346	
31	160.59891390800476	fix_post	2		12	29.0	2.5	/experiments/knapen_AOT/AOT_stimuli/rescaled_final/0942_fw.mp4	0.0	218.28497290611267	0.10000395774841309
32	160.69891786575317	fix_pre	0		120	30.0	2.5	/experiments/knapen_AOT/AOT_stimuli/rescaled_final/0964_rv.mp4	0.0	218.38497686386108	1.0753021240234375
32	160.88244199752808	pulse	0	t		30.0	2.5	/experiments/knapen_AOT/AOT_stimuli/rescaled_final/0964_rv.mp4	0.0	218.568500995636	
32	161.7742199897766	movie	1		228	30.0	2.5	/experiments/knapen_AOT/AOT_stimuli/rescaled_final/0964_rv.mp4	0.0	219.46027898788452	2.4169039726257324
32	162.4828040599823	pulse	1	t		30.0	2.5	/experiments/knapen_AOT/AOT_stimuli/rescaled_final/0964_rv.mp4	0.0	220.1688630580902	
32	164.08297491073608	pulse	1	t		30.0	2.5	/experiments/knapen_AOT/AOT_stimuli/rescaled_final/0964_rv.mp4	0.0	221.769033908844	
32	164.19112396240234	fix_post	2		13	30.0	2.5	/experiments/knapen_AOT/AOT_stimuli/rescaled_final/0964_rv.mp4	0.0	221.87718296051025	0.10835790634155273
33	164.2994818687439	fix_pre	0		120	31.0	2.5	/experiments/knapen_AOT/AOT_stimuli/rescaled_final/2005_fw.mp4	0.0	221.9855408668518	1.0668821334838867
33	165.36636400222778	movie	1		226	31.0	2.5	/experiments/knapen_AOT/AOT_stimuli/rescaled_final/2005_fw.mp4	0.0	223.0524230003357	2.4253110885620117
33	165.68160200119019	pulse	1	t		31.0	2.5	/experiments/knapen_AOT/AOT_stimuli/rescaled_final/2005_fw.mp4	0.0	223.3676609992981	
33	167.2829189300537	pulse	1	t		31.0	2.5	/experiments/knapen_AOT/AOT_stimuli/rescaled_final/2005_fw.mp4	0.0	224.96897792816162	
33	167.7916750907898	fix_post	2		12	31.0	2.5	/experiments/knapen_AOT/AOT_stimuli/rescaled_final/2005_fw.mp4	0.0	225.4777340888977	0.10003495216369629
34	167.8917100429535	fix_pre	0		120	32.0	2.5	/experiments/knapen_AOT/AOT_stimuli/rescaled_final/2162_fw.mp4	0.0	225.5777690410614	1.0585169792175293
34	168.88362097740173	pulse	0	t		32.0	2.5	/experiments/knapen_AOT/AOT_stimuli/rescaled_final/2162_fw.mp4	0.0	226.56967997550964	
34	168.95022702217102	movie	1		233	32.0	2.5	/experiments/knapen_AOT/AOT_stimuli/rescaled_final/2162_fw.mp4	0.0	226.63628602027893	2.450307846069336
34	170.48261904716492	pulse	1	t		32.0	2.5	/experiments/knapen_AOT/AOT_stimuli/rescaled_final/2162_fw.mp4	0.0	228.16867804527283	
34	171.40053486824036	fix_post	2		12	32.0	2.5	/experiments/knapen_AOT/AOT_stimuli/rescaled_final/2162_fw.mp4	0.0	229.08659386634827	0.09999918937683105
35	171.5005340576172	fix_pre	0		120	33.0	2.5	/experiments/knapen_AOT/AOT_stimuli/rescaled_final/1644_fw.mp4	0.0	229.1865930557251	1.0919218063354492
35	172.084321975708	pulse	0	t		33.0	2.5	/experiments/knapen_AOT/AOT_stimuli/rescaled_final/1644_fw.mp4	0.0	229.77038097381592	
35	172.59245586395264	movie	1		221	33.0	2.5	/experiments/knapen_AOT/AOT_stimuli/rescaled_final/1644_fw.mp4	0.0	230.27851486206055	2.4086291790008545
35	173.68337106704712	pulse	1	t		33.0	2.5	/experiments/knapen_AOT/AOT_stimuli/rescaled_final/1644_fw.mp4	0.0	231.36943006515503	
35	175.0010850429535	fix_post	2		12	33.0	2.5	/experiments/knapen_AOT/AOT_stimuli/rescaled_final/1644_fw.mp4	0.0	232.6871440410614	0.09999394416809082
36	175.10107898712158	fix_pre	0		120	34.0	2.5	blank	1.0	232.7871379852295	1.0001800060272217
36	175.2846438884735	pulse	0	t		34.0	2.5	blank	1.0	232.97070288658142	
36	176.1012589931488	movie	1		300	34.0	2.5	blank	1.0	233.7873179912567	2.500372886657715
36	176.88490295410156	pulse	1	t		34.0	2.5	blank	1.0	234.57096195220947	
36	178.4850730895996	pulse	1	t		34.0	2.5	blank	1.0	236.17113208770752	
36	178.60163187980652	fix_post	2		12	34.0	2.5	blank	1.0	236.28769087791443	0.0999751091003418
37	178.70160698890686	fix_pre	0		120	35.0	2.5	/experiments/knapen_AOT/AOT_stimuli/rescaled_final/0888_fw.mp4	0.0	236.38766598701477	1.075218915939331
37	179.7768259048462	movie	1		230	35.0	2.5	/experiments/knapen_AOT/AOT_stimuli/rescaled_final/0888_fw.mp4	0.0	237.4628849029541	2.416978120803833
37	180.08391904830933	pulse	1	t		35.0	2.5	/experiments/knapen_AOT/AOT_stimuli/rescaled_final/0888_fw.mp4	0.0	237.76997804641724	
37	181.68986105918884	pulse	1	t		35.0	2.5	/experiments/knapen_AOT/AOT_stimuli/rescaled_final/0888_fw.mp4	0.0	239.37592005729675	
37	182.19380402565002	fix_post	2		12	35.0	2.5	/experiments/knapen_AOT/AOT_stimuli/rescaled_final/0888_fw.mp4	0.0	239.87986302375793	0.10000300407409668
38	182.29380702972412	fix_pre	0		120	36.0	2.5	/experiments/knapen_AOT/AOT_stimuli/rescaled_final/0657_fw.mp4	0.0	239.97986602783203	1.0671069622039795
38	183.28580808639526	pulse	0	t		36.0	2.5	/experiments/knapen_AOT/AOT_stimuli/rescaled_final/0657_fw.mp4	0.0	240.97186708450317	
38	183.3609139919281	movie	1		228	36.0	2.5	/experiments/knapen_AOT/AOT_stimuli/rescaled_final/0657_fw.mp4	0.0	241.046972990036	2.441770076751709
38	184.88463592529297	pulse	1	t		36.0	2.5	/experiments/knapen_AOT/AOT_stimuli/rescaled_final/0657_fw.mp4	0.0	242.57069492340088	
38	185.8026840686798	fix_post	2		12	36.0	2.5	/experiments/knapen_AOT/AOT_stimuli/rescaled_final/0657_fw.mp4	0.0	243.48874306678772	0.10000085830688477
39	185.9026849269867	fix_pre	0		120	37.0	2.5	/experiments/knapen_AOT/AOT_stimuli/rescaled_final/1208_rv.mp4	0.0	243.5887439250946	1.050184965133667
39	186.48643589019775	pulse	0	t		37.0	2.5	/experiments/knapen_AOT/AOT_stimuli/rescaled_final/1208_rv.mp4	0.0	244.17249488830566	
39	186.95286989212036	movie	1		236	37.0	2.5	/experiments/knapen_AOT/AOT_stimuli/rescaled_final/1208_rv.mp4	0.0	244.63892889022827	2.450371026992798
39	188.08656907081604	pulse	1	t		37.0	2.5	/experiments/knapen_AOT/AOT_stimuli/rescaled_final/1208_rv.mp4	0.0	245.77262806892395	
39	189.40324091911316	fix_post	2		12	37.0	2.5	/experiments/knapen_AOT/AOT_stimuli/rescaled_final/1208_rv.mp4	0.0	247.08929991722107	0.10000896453857422
40	189.50324988365173	fix_pre	0		120	38.0	2.5	/experiments/knapen_AOT/AOT_stimuli/rescaled_final/1408_fw.mp4	0.0	247.18930888175964	1.0835461616516113
40	189.6868770122528	pulse	0	t		38.0	2.5	/experiments/knapen_AOT/AOT_stimuli/rescaled_final/1408_fw.mp4	0.0	247.37293601036072	
40	190.58679604530334	movie	1		226	38.0	2.5	/experiments/knapen_AOT/AOT_stimuli/rescaled_final/1408_fw.mp4	0.0	248.27285504341125	2.4169719219207764
40	191.28587794303894	pulse	1	t		38.0	2.5	/experiments/knapen_AOT/AOT_stimuli/rescaled_final/1408_fw.mp4	0.0	248.97193694114685	
40	192.88740706443787	pulse	1	t		38.0	2.5	/experiments/knapen_AOT/AOT_stimuli/rescaled_final/1408_fw.mp4	0.0	250.57346606254578	
40	193.00376796722412	fix_post	2		12	38.0	2.5	/experiments/knapen_AOT/AOT_stimuli/rescaled_final/1408_fw.mp4	0.0	250.68982696533203	0.10004091262817383
41	193.1038088798523	fix_pre	0		120	39.0	2.5	/experiments/knapen_AOT/AOT_stimuli/rescaled_final/0046_fw.mp4	0.0	250.7898678779602	1.075188159942627
41	194.17899703979492	movie	1		223	39.0	2.5	/experiments/knapen_AOT/AOT_stimuli/rescaled_final/0046_fw.mp4	0.0	251.86505603790283	2.4169788360595703
41	194.48614501953125	pulse	1	t		39.0	2.5	/experiments/knapen_AOT/AOT_stimuli/rescaled_final/0046_fw.mp4	0.0	252.17220401763916	
41	196.08659386634827	pulse	1	t		39.0	2.5	/experiments/knapen_AOT/AOT_stimuli/rescaled_final/0046_fw.mp4	0.0	253.77265286445618	
41	196.5959758758545	fix_post	2		12	39.0	2.5	/experiments/knapen_AOT/AOT_stimuli/rescaled_final/0046_fw.mp4	0.0	254.2820348739624	0.0999610424041748
42	196.69593691825867	fix_pre	0		120	40.0	2.5	/experiments/knapen_AOT/AOT_stimuli/rescaled_final/1507_rv.mp4	0.0	254.38199591636658	1.0752530097961426
42	197.68795585632324	pulse	0	t		40.0	2.5	/experiments/knapen_AOT/AOT_stimuli/rescaled_final/1507_rv.mp4	0.0	255.37401485443115	
42	197.7711899280548	movie	1		224	40.0	2.5	/experiments/knapen_AOT/AOT_stimuli/rescaled_final/1507_rv.mp4	0.0	255.45724892616272	2.4336330890655518
42	199.28698706626892	pulse	1	t		40.0	2.5	/experiments/knapen_AOT/AOT_stimuli/rescaled_final/1507_rv.mp4	0.0	256.97304606437683	
42	200.20482301712036	fix_post	2		12	40.0	2.5	/experiments/knapen_AOT/AOT_stimuli/rescaled_final/1507_rv.mp4	0.0	257.89088201522827	0.10001707077026367
43	200.30484008789062	fix_pre	0		120	41.0	2.5	blank	1.0	257.99089908599854	1.0001568794250488
43	200.88851499557495	pulse	0	t		41.0	2.5	blank	1.0	258.57457399368286	
43	201.30499696731567	movie	1		300	41.0	2.5	blank	1.0	258.9910559654236	2.500382900238037
43	202.48868608474731	pulse	1	t		41.0	2.5	blank	1.0	260.1747450828552	
43	203.8053798675537	fix_post	2		12	41.0	2.5	blank	1.0	261.4914388656616	0.09999704360961914
44	203.90537691116333	fix_pre	0		120	42.0	2.5	/experiments/knapen_AOT/AOT_stimuli/rescaled_final/1182_fw.mp4	0.0	261.59143590927124	1.050300121307373
44	204.088928937912	pulse	0	t		42.0	2.5	/experiments/knapen_AOT/AOT_stimuli/rescaled_final/1182_fw.mp4	0.0	261.7749879360199	
44	204.9556770324707	movie	1		234	42.0	2.5	/experiments/knapen_AOT/AOT_stimuli/rescaled_final/1182_fw.mp4	0.0	262.6417360305786	2.450244903564453
44	205.68760991096497	pulse	1	t		42.0	2.5	/experiments/knapen_AOT/AOT_stimuli/rescaled_final/1182_fw.mp4	0.0	263.3736689090729	
44	207.28920197486877	pulse	1	t		42.0	2.5	/experiments/knapen_AOT/AOT_stimuli/rescaled_final/1182_fw.mp4	0.0	264.9752609729767	
44	207.40592193603516	fix_post	2		12	42.0	2.5	/experiments/knapen_AOT/AOT_stimuli/rescaled_final/1182_fw.mp4	0.0	265.09198093414307	0.09999203681945801
45	207.50591397285461	fix_pre	0		120	43.0	2.5	/experiments/knapen_AOT/AOT_stimuli/rescaled_final/2075_fw.mp4	0.0	265.1919729709625	1.0835580825805664
45	208.58947205543518	movie	1		233	43.0	2.5	/experiments/knapen_AOT/AOT_stimuli/rescaled_final/2075_fw.mp4	0.0	266.2755310535431	2.408653974533081
45	208.88116097450256	pulse	1	t		43.0	2.5	/experiments/knapen_AOT/AOT_stimuli/rescaled_final/2075_fw.mp4	0.0	266.5672199726105	
45	210.4814739227295	pulse	1	t		43.0	2.5	/experiments/knapen_AOT/AOT_stimuli/rescaled_final/2075_fw.mp4	0.0	268.1675329208374	
45	210.99812602996826	fix_post	2		12	43.0	2.5	/experiments/knapen_AOT/AOT_stimuli/rescaled_final/2075_fw.mp4	0.0	268.6841850280762	0.09999203681945801
46	211.09811806678772	fix_pre	0		119	44.0	2.5	/experiments/knapen_AOT/AOT_stimuli/rescaled_final/1699_fw.mp4	0.0	268.78417706489563	1.0418908596038818
46	212.08184099197388	pulse	0	t		44.0	2.5	/experiments/knapen_AOT/AOT_stimuli/rescaled_final/1699_fw.mp4	0.0	269.7678999900818	
46	212.1400089263916	movie	1		237	44.0	2.5	/experiments/knapen_AOT/AOT_stimuli/rescaled_final/1699_fw.mp4	0.0	269.8260679244995	2.4586610794067383
46	213.68172192573547	pulse	1	t		44.0	2.5	/experiments/knapen_AOT/AOT_stimuli/rescaled_final/1699_fw.mp4	0.0	271.3677809238434	
46	214.59867000579834	fix_post	2		12	44.0	2.5	/experiments/knapen_AOT/AOT_stimuli/rescaled_final/1699_fw.mp4	0.0	272.28472900390625	0.09997987747192383
47	214.69864988327026	fix_pre	0		120	45.0	2.5	/experiments/knapen_AOT/AOT_stimuli/rescaled_final/1248_fw.mp4	0.0	272.3847088813782	1.0752551555633545
47	215.28234887123108	pulse	0	t		45.0	2.5	/experiments/knapen_AOT/AOT_stimuli/rescaled_final/1248_fw.mp4	0.0	272.968407869339	
47	215.77390503883362	movie	1		251	45.0	2.5	/experiments/knapen_AOT/AOT_stimuli/rescaled_final/1248_fw.mp4	0.0	273.4599640369415	2.4336140155792236
47	216.88253688812256	pulse	1	t		45.0	2.5	/experiments/knapen_AOT/AOT_stimuli/rescaled_final/1248_fw.mp4	0.0	274.56859588623047	
47	218.20751905441284	fix_post	2		11	45.0	2.5	/experiments/knapen_AOT/AOT_stimuli/rescaled_final/1248_fw.mp4	0.0	275.89357805252075	0.09168386459350586
48	218.29920291900635	fix_pre	0		120	46.0	2.5	/experiments/knapen_AOT/AOT_stimuli/rescaled_final/0090_fw.mp4	0.0	275.98526191711426	1.0835211277008057
48	218.48271894454956	pulse	0	t		46.0	2.5	/experiments/knapen_AOT/AOT_stimuli/rescaled_final/0090_fw.mp4	0.0	276.16877794265747	
48	219.38272404670715	movie	1		231	46.0	2.5	/experiments/knapen_AOT/AOT_stimuli/rescaled_final/0090_fw.mp4	0.0	277.06878304481506	2.4170138835906982
48	220.08601093292236	pulse	1	t		46.0	2.5	/experiments/knapen_AOT/AOT_stimuli/rescaled_final/0090_fw.mp4	0.0	277.7720699310303	
48	221.68177604675293	pulse	1	t		46.0	2.5	/experiments/knapen_AOT/AOT_stimuli/rescaled_final/0090_fw.mp4	0.0	279.36783504486084	
48	221.79973793029785	fix_post	2		12	46.0	2.5	/experiments/knapen_AOT/AOT_stimuli/rescaled_final/0090_fw.mp4	0.0	279.48579692840576	0.09995794296264648
49	221.8996958732605	fix_pre	0		120	47.0	2.5	blank	1.0	279.5857548713684	1.0001780986785889
49	222.8998739719391	movie	1		299	47.0	2.5	blank	1.0	280.585932970047	2.492074966430664
49	223.2834129333496	pulse	1	t		47.0	2.5	blank	1.0	280.9694719314575	
49	224.8837230205536	pulse	1	t		47.0	2.5	blank	1.0	282.5697820186615	
49	225.39194893836975	fix_post	2		12	47.0	2.5	blank	1.0	283.07800793647766	0.0999751091003418
50	225.4919240474701	fix_pre	0		120	48.0	2.5	/experiments/knapen_AOT/AOT_stimuli/rescaled_final/0881_fw.mp4	0.0	283.177983045578	1.0585148334503174
50	226.48406505584717	pulse	0	t		48.0	2.5	/experiments/knapen_AOT/AOT_stimuli/rescaled_final/0881_fw.mp4	0.0	284.1701240539551	
50	226.5504388809204	movie	1		244	48.0	2.5	/experiments/knapen_AOT/AOT_stimuli/rescaled_final/0881_fw.mp4	0.0	284.2364978790283	2.4503681659698486
50	228.08304500579834	pulse	1	t		48.0	2.5	/experiments/knapen_AOT/AOT_stimuli/rescaled_final/0881_fw.mp4	0.0	285.76910400390625	
50	229.00080704689026	fix_post	2		12	48.0	2.5	/experiments/knapen_AOT/AOT_stimuli/rescaled_final/0881_fw.mp4	0.0	286.68686604499817	0.10002493858337402
51	229.10083198547363	fix_pre	0		120	49.0	2.5	/experiments/knapen_AOT/AOT_stimuli/rescaled_final/1089_fw.mp4	0.0	286.78689098358154	1.0919229984283447
51	229.68445086479187	pulse	0	t		49.0	2.5	/experiments/knapen_AOT/AOT_stimuli/rescaled_final/1089_fw.mp4	0.0	287.3705098628998	
51	230.19275498390198	movie	1		231	49.0	2.5	/experiments/knapen_AOT/AOT_stimuli/rescaled_final/1089_fw.mp4	0.0	287.8788139820099	2.4085850715637207
51	231.28331303596497	pulse	1	t		49.0	2.5	/experiments/knapen_AOT/AOT_stimuli/rescaled_final/1089_fw.mp4	0.0	288.9693720340729	
51	232.6013400554657	fix_post	2		12	49.0	2.5	/experiments/knapen_AOT/AOT_stimuli/rescaled_final/1089_fw.mp4	0.0	290.2873990535736	0.10000300407409668
52	232.7013430595398	fix_pre	0		120	50.0	2.5	/experiments/knapen_AOT/AOT_stimuli/rescaled_final/0314_rv.mp4	0.0	290.3874020576477	1.0835669040679932
52	232.88499999046326	pulse	0	t		50.0	2.5	/experiments/knapen_AOT/AOT_stimuli/rescaled_final/0314_rv.mp4	0.0	290.57105898857117	
52	233.7849099636078	movie	1		223	50.0	2.5	/experiments/knapen_AOT/AOT_stimuli/rescaled_final/0314_rv.mp4	0.0	291.4709689617157	2.416969060897827
52	234.4852418899536	pulse	1	t		50.0	2.5	/experiments/knapen_AOT/AOT_stimuli/rescaled_final/0314_rv.mp4	0.0	292.1713008880615	
52	236.08405303955078	pulse	1	t		50.0	2.5	/experiments/knapen_AOT/AOT_stimuli/rescaled_final/0314_rv.mp4	0.0	293.7701120376587	
52	236.20187902450562	fix_post	2		12	50.0	2.5	/experiments/knapen_AOT/AOT_stimuli/rescaled_final/0314_rv.mp4	0.0	293.8879380226135	0.1000070571899414
53	236.30188608169556	fix_pre	0		120	51.0	2.5	/experiments/knapen_AOT/AOT_stimuli/rescaled_final/1155_fw.mp4	0.0	293.98794507980347	1.0752758979797363
53	237.3771619796753	movie	1		225	51.0	2.5	/experiments/knapen_AOT/AOT_stimuli/rescaled_final/1155_fw.mp4	0.0	295.0632209777832	2.4169371128082275
53	237.68408489227295	pulse	1	t		51.0	2.5	/experiments/knapen_AOT/AOT_stimuli/rescaled_final/1155_fw.mp4	0.0	295.37014389038086	
53	239.28557896614075	pulse	1	t		51.0	2.5	/experiments/knapen_AOT/AOT_stimuli/rescaled_final/1155_fw.mp4	0.0	296.97163796424866	
53	239.79409909248352	fix_post	2		12	51.0	2.5	/experiments/knapen_AOT/AOT_stimuli/rescaled_final/1155_fw.mp4	0.0	297.48015809059143	0.09999990463256836
54	239.8940989971161	fix_pre	0		120	52.0	2.5	/experiments/knapen_AOT/AOT_stimuli/rescaled_final/1243_fw.mp4	0.0	297.580157995224	1.0752170085906982
54	240.8862500190735	pulse	0	t		52.0	2.5	/experiments/knapen_AOT/AOT_stimuli/rescaled_final/1243_fw.mp4	0.0	298.5723090171814	
54	240.9693160057068	movie	1		224	52.0	2.5	/experiments/knapen_AOT/AOT_stimuli/rescaled_final/1243_fw.mp4	0.0	298.6553750038147	2.433647871017456
54	242.48475098609924	pulse	1	t		52.0	2.5	/experiments/knapen_AOT/AOT_stimuli/rescaled_final/1243_fw.mp4	0.0	300.17080998420715	
54	243.40296387672424	fix_post	2		9	52.0	2.5	/experiments/knapen_AOT/AOT_stimuli/rescaled_final/1243_fw.mp4	0.0	301.08902287483215	0.09999608993530273
55	243.50295996665955	fix_pre	0		120	53.0	2.5	/experiments/knapen_AOT/AOT_stimuli/rescaled_final/1232_fw.mp4	0.0	301.18901896476746	1.0585339069366455
55	244.08652091026306	pulse	0	t		53.0	2.5	/experiments/knapen_AOT/AOT_stimuli/rescaled_final/1232_fw.mp4	0.0	301.772579908371	
55	244.5614938735962	movie	1		247	53.0	2.5	/experiments/knapen_AOT/AOT_stimuli/rescaled_final/1232_fw.mp4	0.0	302.2475528717041	2.4420080184936523
55	245.68634295463562	pulse	1	t		53.0	2.5	/experiments/knapen_AOT/AOT_stimuli/rescaled_final/1232_fw.mp4	0.0	303.37240195274353	
55	247.00350189208984	fix_post	2		12	53.0	2.5	/experiments/knapen_AOT/AOT_stimuli/rescaled_final/1232_fw.mp4	0.0	304.68956089019775	0.0999751091003418
56	247.10347700119019	fix_pre	0		120	54.0	2.5	blank	1.0	304.7895359992981	1.000180959701538
56	247.28714990615845	pulse	0	t		54.0	2.5	blank	1.0	304.97320890426636	
56	248.10365796089172	movie	1		300	54.0	2.5	blank	1.0	305.78971695899963	2.5004029273986816
56	248.88728499412537	pulse	1	t		54.0	2.5	blank	1.0	306.5733439922333	
56	250.4875259399414	pulse	1	t		54.0	2.5	blank	1.0	308.1735849380493	
56	250.6040608882904	fix_post	2		12	54.0	2.5	blank	1.0	308.2901198863983	0.09998011589050293
57	250.7040410041809	fix_pre	0		120	55.0	2.5	/experiments/knapen_AOT/AOT_stimuli/rescaled_final/0432_rv.mp4	0.0	308.3901000022888	1.0835459232330322
57	251.78758692741394	movie	1		237	55.0	2.5	/experiments/knapen_AOT/AOT_stimuli/rescaled_final/0432_rv.mp4	0.0	309.47364592552185	2.40863299369812
57	252.08642101287842	pulse	1	t		55.0	2.5	/experiments/knapen_AOT/AOT_stimuli/rescaled_final/0432_rv.mp4	0.0	309.7724800109863	
57	253.68637990951538	pulse	1	t		55.0	2.5	/experiments/knapen_AOT/AOT_stimuli/rescaled_final/0432_rv.mp4	0.0	311.3724389076233	
57	254.19621992111206	fix_post	2		12	55.0	2.5	/experiments/knapen_AOT/AOT_stimuli/rescaled_final/0432_rv.mp4	0.0	311.88227891921997	0.1000370979309082
58	254.29625701904297	fix_pre	0		120	56.0	2.5	/experiments/knapen_AOT/AOT_stimuli/rescaled_final/1807_rv.mp4	0.0	311.9823160171509	1.0836029052734375
58	255.28837704658508	pulse	0	t		56.0	2.5	/experiments/knapen_AOT/AOT_stimuli/rescaled_final/1807_rv.mp4	0.0	312.974436044693	
58	255.3798599243164	movie	1		233	56.0	2.5	/experiments/knapen_AOT/AOT_stimuli/rescaled_final/1807_rv.mp4	0.0	313.0659189224243	2.425291061401367
58	256.88856506347656	pulse	1	t		56.0	2.5	/experiments/knapen_AOT/AOT_stimuli/rescaled_final/1807_rv.mp4	0.0	314.5746240615845	
58	257.8051509857178	fix_post	2		12	56.0	2.5	/experiments/knapen_AOT/AOT_stimuli/rescaled_final/1807_rv.mp4	0.0	315.4912099838257	0.09993600845336914
59	257.90508699417114	fix_pre	0		120	57.0	2.5	/experiments/knapen_AOT/AOT_stimuli/rescaled_final/0302_fw.mp4	0.0	315.59114599227905	1.067080020904541
59	258.48869490623474	pulse	0	t		57.0	2.5	/experiments/knapen_AOT/AOT_stimuli/rescaled_final/0302_fw.mp4	0.0	316.17475390434265	
59	258.9721670150757	movie	1		218	57.0	2.5	/experiments/knapen_AOT/AOT_stimuli/rescaled_final/0302_fw.mp4	0.0	316.6582260131836	2.433475971221924
59	260.08779788017273	pulse	1	t		57.0	2.5	/experiments/knapen_AOT/AOT_stimuli/rescaled_final/0302_fw.mp4	0.0	317.77385687828064	
59	261.4056429862976	fix_post	2		12	57.0	2.5	/experiments/knapen_AOT/AOT_stimuli/rescaled_final/0302_fw.mp4	0.0	319.0917019844055	0.10001206398010254
60	261.5056550502777	fix_pre	0		120	58.0	2.5	/experiments/knapen_AOT/AOT_stimuli/rescaled_final/1644_rv.mp4	0.0	319.1917140483856	1.058562994003296
60	261.68168091773987	pulse	0	t		58.0	2.5	/experiments/knapen_AOT/AOT_stimuli/rescaled_final/1644_rv.mp4	0.0	319.3677399158478	
60	262.564218044281	movie	1		227	58.0	2.5	/experiments/knapen_AOT/AOT_stimuli/rescaled_final/1644_rv.mp4	0.0	320.2502770423889	2.4419448375701904
60	263.287987947464	pulse	1	t		58.0	2.5	/experiments/knapen_AOT/AOT_stimuli/rescaled_final/1644_rv.mp4	0.0	320.9740469455719	
60	264.8893129825592	pulse	1	t		58.0	2.5	/experiments/knapen_AOT/AOT_stimuli/rescaled_final/1644_rv.mp4	0.0	322.5753719806671	
60	265.0061628818512	fix_post	2		12	58.0	2.5	/experiments/knapen_AOT/AOT_stimuli/rescaled_final/1644_rv.mp4	0.0	322.6922218799591	0.10007214546203613
61	265.10623502731323	fix_pre	0		120	59.0	2.5	/experiments/knapen_AOT/AOT_stimuli/rescaled_final/0736_rv.mp4	0.0	322.79229402542114	1.0918660163879395
61	266.1981010437012	movie	1		216	59.0	2.5	/experiments/knapen_AOT/AOT_stimuli/rescaled_final/0736_rv.mp4	0.0	323.8841600418091	2.4002559185028076
61	266.4899830818176	pulse	1	t		59.0	2.5	/experiments/knapen_AOT/AOT_stimuli/rescaled_final/0736_rv.mp4	0.0	324.17604207992554	
61	268.08192706108093	pulse	1	t		59.0	2.5	/experiments/knapen_AOT/AOT_stimuli/rescaled_final/0736_rv.mp4	0.0	325.76798605918884	
61	268.598356962204	fix_post	2		12	59.0	2.5	/experiments/knapen_AOT/AOT_stimuli/rescaled_final/0736_rv.mp4	0.0	326.2844159603119	0.10002303123474121
62	268.6983799934387	fix_pre	0		119	60.0	2.5	/experiments/knapen_AOT/AOT_stimuli/rescaled_final/1018_fw.mp4	0.0	326.38443899154663	1.050239086151123
62	269.6819920539856	pulse	0	t		60.0	2.5	/experiments/knapen_AOT/AOT_stimuli/rescaled_final/1018_fw.mp4	0.0	327.3680510520935	
62	269.74861907958984	movie	1		227	60.0	2.5	/experiments/knapen_AOT/AOT_stimuli/rescaled_final/1018_fw.mp4	0.0	327.43467807769775	2.450284957885742
62	271.2820348739624	pulse	1	t		60.0	2.5	/experiments/knapen_AOT/AOT_stimuli/rescaled_final/1018_fw.mp4	0.0	328.9680938720703	
62	272.1989040374756	fix_post	2		12	60.0	2.5	/experiments/knapen_AOT/AOT_stimuli/rescaled_final/1018_fw.mp4	0.0	329.8849630355835	0.10004186630249023
63	272.2989459037781	fix_pre	0		120	61.0	2.5	blank	1.0	329.985004901886	1.0001020431518555
63	272.8824989795685	pulse	0	t		61.0	2.5	blank	1.0	330.5685579776764	
63	273.29904794692993	movie	1		300	61.0	2.5	blank	1.0	330.98510694503784	2.5004000663757324
63	274.48289608955383	pulse	1	t		61.0	2.5	blank	1.0	332.16895508766174	
63	275.79944801330566	fix_post	2		12	61.0	2.5	blank	1.0	333.4855070114136	0.10000205039978027
64	275.89945006370544	fix_pre	0		120	62.0	2.5	/experiments/knapen_AOT/AOT_stimuli/rescaled_final/1959_rv.mp4	0.0	333.58550906181335	1.0751819610595703
64	276.08293890953064	pulse	0	t		62.0	2.5	/experiments/knapen_AOT/AOT_stimuli/rescaled_final/1959_rv.mp4	0.0	333.76899790763855	
64	276.974632024765	movie	1		233	62.0	2.5	/experiments/knapen_AOT/AOT_stimuli/rescaled_final/1959_rv.mp4	0.0	334.6606910228729	2.417006015777588
64	277.68337202072144	pulse	1	t		62.0	2.5	/experiments/knapen_AOT/AOT_stimuli/rescaled_final/1959_rv.mp4	0.0	335.36943101882935	
64	279.2834780216217	pulse	1	t		62.0	2.5	/experiments/knapen_AOT/AOT_stimuli/rescaled_final/1959_rv.mp4	0.0	336.9695370197296	
64	279.3916380405426	fix_post	2		13	62.0	2.5	/experiments/knapen_AOT/AOT_stimuli/rescaled_final/1959_rv.mp4	0.0	337.0776970386505	0.10837101936340332
65	279.500009059906	fix_pre	0		120	63.0	2.5	/experiments/knapen_AOT/AOT_stimuli/rescaled_final/0432_fw.mp4	0.0	337.1860680580139	1.066924810409546
65	280.56693387031555	movie	1		224	63.0	2.5	/experiments/knapen_AOT/AOT_stimuli/rescaled_final/0432_fw.mp4	0.0	338.25299286842346	2.4252631664276123
65	280.8821060657501	pulse	1	t		63.0	2.5	/experiments/knapen_AOT/AOT_stimuli/rescaled_final/0432_fw.mp4	0.0	338.56816506385803	
65	282.48301696777344	pulse	1	t		63.0	2.5	/experiments/knapen_AOT/AOT_stimuli/rescaled_final/0432_fw.mp4	0.0	340.16907596588135	
65	282.99219703674316	fix_post	2		12	63.0	2.5	/experiments/knapen_AOT/AOT_stimuli/rescaled_final/0432_fw.mp4	0.0	340.6782560348511	0.10001683235168457
66	283.09221386909485	fix_pre	0		120	64.0	2.5	/experiments/knapen_AOT/AOT_stimuli/rescaled_final/0291_fw.mp4	0.0	340.77827286720276	1.0668861865997314
66	284.0842480659485	pulse	0	t		64.0	2.5	/experiments/knapen_AOT/AOT_stimuli/rescaled_final/0291_fw.mp4	0.0	341.7703070640564	
66	284.1591000556946	movie	1		249	64.0	2.5	/experiments/knapen_AOT/AOT_stimuli/rescaled_final/0291_fw.mp4	0.0	341.8451590538025	2.441948890686035
66	285.68279004096985	pulse	1	t		64.0	2.5	/experiments/knapen_AOT/AOT_stimuli/rescaled_final/0291_fw.mp4	0.0	343.36884903907776	
66	286.6010489463806	fix_post	2		12	64.0	2.5	/experiments/knapen_AOT/AOT_stimuli/rescaled_final/0291_fw.mp4	0.0	344.2871079444885	0.10004091262817383
67	286.7010898590088	fix_pre	0		120	65.0	2.5	/experiments/knapen_AOT/AOT_stimuli/rescaled_final/1050_rv.mp4	0.0	344.3871488571167	1.0919320583343506
67	287.2846939563751	pulse	0	t		65.0	2.5	/experiments/knapen_AOT/AOT_stimuli/rescaled_final/1050_rv.mp4	0.0	344.97075295448303	
67	287.79302191734314	movie	1		239	65.0	2.5	/experiments/knapen_AOT/AOT_stimuli/rescaled_final/1050_rv.mp4	0.0	345.47908091545105	2.4085941314697266
67	288.88323187828064	pulse	1	t		65.0	2.5	/experiments/knapen_AOT/AOT_stimuli/rescaled_final/1050_rv.mp4	0.0	346.56929087638855	
67	290.20161604881287	fix_post	2		12	65.0	2.5	/experiments/knapen_AOT/AOT_stimuli/rescaled_final/1050_rv.mp4	0.0	347.8876750469208	0.09999799728393555
68	290.3016140460968	fix_pre	0		120	66.0	2.5	/experiments/knapen_AOT/AOT_stimuli/rescaled_final/1048_rv.mp4	0.0	347.9876730442047	1.075232982635498
68	290.4851920604706	pulse	0	t		66.0	2.5	/experiments/knapen_AOT/AOT_stimuli/rescaled_final/1048_rv.mp4	0.0	348.1712510585785	
68	291.3768470287323	movie	1		235	66.0	2.5	/experiments/knapen_AOT/AOT_stimuli/rescaled_final/1048_rv.mp4	0.0	349.0629060268402	2.4252779483795166
68	292.08500695228577	pulse	1	t		66.0	2.5	/experiments/knapen_AOT/AOT_stimuli/rescaled_final/1048_rv.mp4	0.0	349.7710659503937	
68	293.68424892425537	pulse	1	t		66.0	2.5	/experiments/knapen_AOT/AOT_stimuli/rescaled_final/1048_rv.mp4	0.0	351.3703079223633	
68	293.8021249771118	fix_post	2		12	66.0	2.5	/experiments/knapen_AOT/AOT_stimuli/rescaled_final/1048_rv.mp4	0.0	351.4881839752197	0.1000370979309082
69	293.9021620750427	fix_pre	0		120	67.0	2.5	/experiments/knapen_AOT/AOT_stimuli/rescaled_final/1313_fw.mp4	0.0	351.58822107315063	1.07529878616333
69	294.97746086120605	movie	1		252	67.0	2.5	/experiments/knapen_AOT/AOT_stimuli/rescaled_final/1313_fw.mp4	0.0	352.66351985931396	2.4168832302093506
69	295.28432989120483	pulse	1	t		67.0	2.5	/experiments/knapen_AOT/AOT_stimuli/rescaled_final/1313_fw.mp4	0.0	352.97038888931274	
69	296.88577103614807	pulse	1	t		67.0	2.5	/experiments/knapen_AOT/AOT_stimuli/rescaled_final/1313_fw.mp4	0.0	354.571830034256	
69	297.3943440914154	fix_post	2		12	67.0	2.5	/experiments/knapen_AOT/AOT_stimuli/rescaled_final/1313_fw.mp4	0.0	355.0804030895233	0.09997987747192383
70	297.49432396888733	fix_pre	0		120	68.0	2.5	/experiments/knapen_AOT/AOT_stimuli/rescaled_final/1762_fw.mp4	0.0	355.18038296699524	1.0752520561218262
70	298.48638701438904	pulse	0	t		68.0	2.5	/experiments/knapen_AOT/AOT_stimuli/rescaled_final/1762_fw.mp4	0.0	356.17244601249695	
70	298.56957602500916	movie	1		235	68.0	2.5	/experiments/knapen_AOT/AOT_stimuli/rescaled_final/1762_fw.mp4	0.0	356.25563502311707	2.4336190223693848
70	300.08519101142883	pulse	1	t		68.0	2.5	/experiments/knapen_AOT/AOT_stimuli/rescaled_final/1762_fw.mp4	0.0	357.77125000953674	
70	301.00319504737854	fix_post	2		12	68.0	2.5	/experiments/knapen_AOT/AOT_stimuli/rescaled_final/1762_fw.mp4	0.0	358.68925404548645	0.10003900527954102
71	301.1032340526581	fix_pre	0		120	69.0	2.5	blank	1.0	358.789293050766	1.000140905380249
71	301.68684792518616	pulse	0	t		69.0	2.5	blank	1.0	359.37290692329407	
71	302.10337495803833	movie	1		300	69.0	2.5	blank	1.0	359.78943395614624	2.5004141330718994
71	303.2871289253235	pulse	1	t		69.0	2.5	blank	1.0	360.9731879234314	
71	304.60378909111023	fix_post	2		12	69.0	2.5	blank	1.0	362.28984808921814	0.10002493858337402
72	304.7038140296936	fix_pre	0		120	70.0	2.5	/experiments/knapen_AOT/AOT_stimuli/rescaled_final/1507_rv.mp4	0.0	362.3898730278015	1.0918679237365723
72	304.88738989830017	pulse	0	t		70.0	2.5	/experiments/knapen_AOT/AOT_stimuli/rescaled_final/1507_rv.mp4	0.0	362.5734488964081	
72	305.7956819534302	movie	1		228	70.0	2.5	/experiments/knapen_AOT/AOT_stimuli/rescaled_final/1507_rv.mp4	0.0	363.4817409515381	2.408596992492676
72	306.4859199523926	pulse	1	t		70.0	2.5	/experiments/knapen_AOT/AOT_stimuli/rescaled_final/1507_rv.mp4	0.0	364.1719789505005	
72	308.08662390708923	pulse	1	t		70.0	2.5	/experiments/knapen_AOT/AOT_stimuli/rescaled_final/1507_rv.mp4	0.0	365.77268290519714	
72	308.20427894592285	fix_post	2		12	70.0	2.5	/experiments/knapen_AOT/AOT_stimuli/rescaled_final/1507_rv.mp4	0.0	365.89033794403076	0.10003399848937988
73	308.30431294441223	fix_pre	0		120	71.0	2.5	/experiments/knapen_AOT/AOT_stimuli/rescaled_final/0046_rv.mp4	0.0	365.99037194252014	1.0836679935455322
73	309.38798093795776	movie	1		249	71.0	2.5	/experiments/knapen_AOT/AOT_stimuli/rescaled_final/0046_rv.mp4	0.0	367.0740399360657	2.4085121154785156
73	309.6868040561676	pulse	1	t		71.0	2.5	/experiments/knapen_AOT/AOT_stimuli/rescaled_final/0046_rv.mp4	0.0	367.3728630542755	
73	311.2867510318756	pulse	1	t		71.0	2.5	/experiments/knapen_AOT/AOT_stimuli/rescaled_final/0046_rv.mp4	0.0	368.9728100299835	
73	311.7964930534363	fix_post	2		12	71.0	2.5	/experiments/knapen_AOT/AOT_stimuli/rescaled_final/0046_rv.mp4	0.0	369.4825520515442	0.10006880760192871
74	311.8965618610382	fix_pre	0		120	72.0	2.5	/experiments/knapen_AOT/AOT_stimuli/rescaled_final/1119_rv.mp4	0.0	369.5826208591461	1.0835270881652832
74	312.88848900794983	pulse	0	t		72.0	2.5	/experiments/knapen_AOT/AOT_stimuli/rescaled_final/1119_rv.mp4	0.0	370.57454800605774	
74	312.9800889492035	movie	1		219	72.0	2.5	/experiments/knapen_AOT/AOT_stimuli/rescaled_final/1119_rv.mp4	0.0	370.6661479473114	2.4252800941467285
74	314.4872770309448	pulse	1	t		72.0	2.5	/experiments/knapen_AOT/AOT_stimuli/rescaled_final/1119_rv.mp4	0.0	372.17333602905273	
74	315.4053690433502	fix_post	2		12	72.0	2.5	/experiments/knapen_AOT/AOT_stimuli/rescaled_final/1119_rv.mp4	0.0	373.09142804145813	0.10000991821289062
75	315.5053789615631	fix_pre	0		120	73.0	2.5	/experiments/knapen_AOT/AOT_stimuli/rescaled_final/1208_fw.mp4	0.0	373.191437959671	1.06691312789917
75	316.0815370082855	pulse	0	t		73.0	2.5	/experiments/knapen_AOT/AOT_stimuli/rescaled_final/1208_fw.mp4	0.0	373.76759600639343	
75	316.5722920894623	movie	1		240	73.0	2.5	/experiments/knapen_AOT/AOT_stimuli/rescaled_final/1208_fw.mp4	0.0	374.2583510875702	2.4335968494415283
75	317.6884469985962	pulse	1	t		73.0	2.5	/experiments/knapen_AOT/AOT_stimuli/rescaled_final/1208_fw.mp4	0.0	375.3745059967041	
75	319.0058889389038	fix_post	2		12	73.0	2.5	/experiments/knapen_AOT/AOT_stimuli/rescaled_final/1208_fw.mp4	0.0	376.6919479370117	0.10000205039978027
76	319.1058909893036	fix_pre	0		120	74.0	2.5	/experiments/knapen_AOT/AOT_stimuli/rescaled_final/0046_rv.mp4	0.0	376.7919499874115	1.0585699081420898
76	319.28208589553833	pulse	0	t		74.0	2.5	/experiments/knapen_AOT/AOT_stimuli/rescaled_final/0046_rv.mp4	0.0	376.96814489364624	
76	320.1644608974457	movie	1		253	74.0	2.5	/experiments/knapen_AOT/AOT_stimuli/rescaled_final/0046_rv.mp4	0.0	377.8505198955536	2.433688163757324
76	320.8883709907532	pulse	1	t		74.0	2.5	/experiments/knapen_AOT/AOT_stimuli/rescaled_final/0046_rv.mp4	0.0	378.5744299888611	
76	322.48157596588135	pulse	1	t		74.0	2.5	/experiments/knapen_AOT/AOT_stimuli/rescaled_final/0046_rv.mp4	0.0	380.16763496398926	
76	322.598149061203	fix_post	2		8	74.0	2.5	/experiments/knapen_AOT/AOT_stimuli/rescaled_final/0046_rv.mp4	0.0	380.2842080593109	0.10830402374267578
77	322.7064530849457	fix_pre	0		119	75.0	2.5	/experiments/knapen_AOT/AOT_stimuli/rescaled_final/1182_fw.mp4	0.0	380.3925120830536	1.050257921218872
77	323.75671100616455	movie	1		249	75.0	2.5	/experiments/knapen_AOT/AOT_stimuli/rescaled_final/1182_fw.mp4	0.0	381.44277000427246	2.44199800491333
77	324.08186388015747	pulse	1	t		75.0	2.5	/experiments/knapen_AOT/AOT_stimuli/rescaled_final/1182_fw.mp4	0.0	381.7679228782654	
77	325.6816899776459	pulse	1	t		75.0	2.5	/experiments/knapen_AOT/AOT_stimuli/rescaled_final/1182_fw.mp4	0.0	383.3677489757538	
77	326.1987090110779	fix_post	2		12	75.0	2.5	/experiments/knapen_AOT/AOT_stimuli/rescaled_final/1182_fw.mp4	0.0	383.8847680091858	0.09995603561401367
78	326.2986650466919	fix_pre	0		119	76.0	2.5	/experiments/knapen_AOT/AOT_stimuli/rescaled_final/1628_fw.mp4	0.0	383.9847240447998	1.0504329204559326
78	327.28237295150757	pulse	0	t		76.0	2.5	/experiments/knapen_AOT/AOT_stimuli/rescaled_final/1628_fw.mp4	0.0	384.9684319496155	
78	327.3490979671478	movie	1		263	76.0	2.5	/experiments/knapen_AOT/AOT_stimuli/rescaled_final/1628_fw.mp4	0.0	385.03515696525574	2.4500789642333984
78	328.88255286216736	pulse	1	t		76.0	2.5	/experiments/knapen_AOT/AOT_stimuli/rescaled_final/1628_fw.mp4	0.0	386.56861186027527	
78	329.7991769313812	fix_post	2		12	76.0	2.5	/experiments/knapen_AOT/AOT_stimuli/rescaled_final/1628_fw.mp4	0.0	387.48523592948914	0.10001015663146973
79	329.8991870880127	fix_pre	0		120	77.0	2.5	blank	1.0	387.5852460861206	1.0001509189605713
79	330.4828898906708	pulse	0	t		77.0	2.5	blank	1.0	388.1689488887787	
79	330.89933800697327	movie	1		300	77.0	2.5	blank	1.0	388.5853970050812	2.5003929138183594
79	332.08304595947266	pulse	1	t		77.0	2.5	blank	1.0	389.76910495758057	
79	333.3997309207916	fix_post	2		12	77.0	2.5	blank	1.0	391.08578991889954	0.10002493858337402
80	333.499755859375	fix_pre	0		120	78.0	2.5	/experiments/knapen_AOT/AOT_stimuli/rescaled_final/1191_fw.mp4	0.0	391.1858148574829	1.0836360454559326
80	333.683296918869	pulse	0	t		78.0	2.5	/experiments/knapen_AOT/AOT_stimuli/rescaled_final/1191_fw.mp4	0.0	391.36935591697693	
80	334.58339190483093	movie	1		254	78.0	2.5	/experiments/knapen_AOT/AOT_stimuli/rescaled_final/1191_fw.mp4	0.0	392.26945090293884	2.416857957839966
80	335.2832028865814	pulse	1	t		78.0	2.5	/experiments/knapen_AOT/AOT_stimuli/rescaled_final/1191_fw.mp4	0.0	392.96926188468933	
80	336.8819959163666	pulse	1	t		78.0	2.5	/experiments/knapen_AOT/AOT_stimuli/rescaled_final/1191_fw.mp4	0.0	394.5680549144745	
80	337.0002498626709	fix_post	2		12	78.0	2.5	/experiments/knapen_AOT/AOT_stimuli/rescaled_final/1191_fw.mp4	0.0	394.6863088607788	0.10001111030578613
81	337.1002609729767	fix_pre	0		120	79.0	2.5	/experiments/knapen_AOT/AOT_stimuli/rescaled_final/0473_rv.mp4	0.0	394.7863199710846	1.067033052444458
81	338.16729402542114	movie	1		255	79.0	2.5	/experiments/knapen_AOT/AOT_stimuli/rescaled_final/0473_rv.mp4	0.0	395.85335302352905	2.425139904022217
81	338.48225808143616	pulse	1	t		79.0	2.5	/experiments/knapen_AOT/AOT_stimuli/rescaled_final/0473_rv.mp4	0.0	396.16831707954407	
81	340.08372497558594	pulse	1	t		79.0	2.5	/experiments/knapen_AOT/AOT_stimuli/rescaled_final/0473_rv.mp4	0.0	397.76978397369385	
81	340.59243392944336	fix_post	2		12	79.0	2.5	/experiments/knapen_AOT/AOT_stimuli/rescaled_final/0473_rv.mp4	0.0	398.27849292755127	0.10001802444458008
82	340.69245195388794	fix_pre	0		120	80.0	2.5	/experiments/knapen_AOT/AOT_stimuli/rescaled_final/1894_fw.mp4	0.0	398.37851095199585	1.0836560726165771
82	341.6844880580902	pulse	0	t		80.0	2.5	/experiments/knapen_AOT/AOT_stimuli/rescaled_final/1894_fw.mp4	0.0	399.3705470561981	
82	341.7761080265045	movie	1		248	80.0	2.5	/experiments/knapen_AOT/AOT_stimuli/rescaled_final/1894_fw.mp4	0.0	399.4621670246124	2.4252078533172607
82	343.28303503990173	pulse	1	t		80.0	2.5	/experiments/knapen_AOT/AOT_stimuli/rescaled_final/1894_fw.mp4	0.0	400.96909403800964	
82	344.2013158798218	fix_post	2		12	80.0	2.5	/experiments/knapen_AOT/AOT_stimuli/rescaled_final/1894_fw.mp4	0.0	401.8873748779297	0.09999299049377441
83	344.30130887031555	fix_pre	0		120	81.0	2.5	/experiments/knapen_AOT/AOT_stimuli/rescaled_final/1050_rv.mp4	0.0	401.98736786842346	1.050288200378418
83	344.8849229812622	pulse	0	t		81.0	2.5	/experiments/knapen_AOT/AOT_stimuli/rescaled_final/1050_rv.mp4	0.0	402.5709819793701	
83	345.35159707069397	movie	1		242	81.0	2.5	/experiments/knapen_AOT/AOT_stimuli/rescaled_final/1050_rv.mp4	0.0	403.0376560688019	2.4502718448638916
83	346.48488903045654	pulse	1	t		81.0	2.5	/experiments/knapen_AOT/AOT_stimuli/rescaled_final/1050_rv.mp4	0.0	404.17094802856445	
83	347.80186891555786	fix_post	2		12	81.0	2.5	/experiments/knapen_AOT/AOT_stimuli/rescaled_final/1050_rv.mp4	0.0	405.48792791366577	0.10004806518554688
84	347.9019169807434	fix_pre	0		120	82.0	2.5	/experiments/knapen_AOT/AOT_stimuli/rescaled_final/1018_rv.mp4	0.0	405.5879759788513	1.083791971206665
84	348.0854330062866	pulse	0	t		82.0	2.5	/experiments/knapen_AOT/AOT_stimuli/rescaled_final/1018_rv.mp4	0.0	405.77149200439453	
84	348.9857089519501	movie	1		236	82.0	2.5	/experiments/knapen_AOT/AOT_stimuli/rescaled_final/1018_rv.mp4	0.0	406.671767950058	2.416701078414917
84	349.68454694747925	pulse	1	t		82.0	2.5	/experiments/knapen_AOT/AOT_stimuli/rescaled_final/1018_rv.mp4	0.0	407.37060594558716	
84	351.28595900535583	pulse	1	t		82.0	2.5	/experiments/knapen_AOT/AOT_stimuli/rescaled_final/1018_rv.mp4	0.0	408.97201800346375	
84	351.402410030365	fix_post	2		12	82.0	2.5	/experiments/knapen_AOT/AOT_stimuli/rescaled_final/1018_rv.mp4	0.0	409.0884690284729	0.09999299049377441
85	351.50240302085876	fix_pre	0		120	83.0	2.5	blank	1.0	409.1884620189667	1.0001718997955322
85	352.5025749206543	movie	1		299	83.0	2.5	blank	1.0	410.1886339187622	2.4920289516448975
85	352.8862979412079	pulse	1	t		83.0	2.5	blank	1.0	410.5723569393158	
85	354.4863839149475	pulse	1	t		83.0	2.5	blank	1.0	412.1724429130554	
85	354.9946038722992	fix_post	2		12	83.0	2.5	blank	1.0	412.6806628704071	0.10001420974731445
87	355.0946180820465	stim	0		1716					412.7806770801544	14.302182912826538
87	356.08658504486084	pulse	0	t						413.77264404296875	
87	357.6868748664856	pulse	0	t						415.3729338645935	
87	359.2870969772339	pulse	0	t						416.9731559753418	
87	360.8872900009155	pulse	0	t						418.57334899902344	
87	362.4874849319458	pulse	0	t						420.1735439300537	
87	364.0878210067749	pulse	0	t						421.7738800048828	
87	365.68798208236694	pulse	0	t						423.37404108047485	
87	367.28843688964844	pulse	0	t						424.97449588775635	
87	368.88856196403503	pulse	0	t						426.57462096214294	
