trial_nr	onset	event_type	phase	response	nr_frames	movie_index	movie_duration	movie_file	blank	onset_abs	duration
0	0.19998502731323242	stim	0		56					20.53534770011902	0.48321080207824707
0	0.6751549243927002	response	0	space						21.010517597198486	
1	0.6831958293914795	stim	0		4256					21.018558502197266	35.48043966293335
1	36.15369439125061	pulse	0	t						56.4890570640564	
1	36.16363549232483	stim	1		1715					56.498998165130615	14.302114248275757
1	37.74726319313049	pulse	1	t						58.08262586593628	
1	39.34762096405029	pulse	1	t						59.68298363685608	
1	40.94773626327515	pulse	1	t						61.28309893608093	
1	42.548054695129395	pulse	1	t						62.88341736793518	
1	44.1482892036438	pulse	1	t						64.48365187644958	
1	45.74850010871887	pulse	1	t						66.08386278152466	
1	47.34869360923767	pulse	1	t						67.68405628204346	
1	48.94898748397827	pulse	1	t						69.28435015678406	
2	50.465749740600586	fix_pre	0		7	0.0	2.5	/experiments/knapen_AOT/AOT_stimuli/rescaled_final/1893_fw.mp4	0.0	70.80111241340637	0.15007567405700684
2	50.549245834350586	pulse	0	t		0.0	2.5	/experiments/knapen_AOT/AOT_stimuli/rescaled_final/1893_fw.mp4	0.0	70.88460850715637	
2	50.61582541465759	movie	1		291	0.0	2.5	/experiments/knapen_AOT/AOT_stimuli/rescaled_final/1893_fw.mp4	0.0	70.95118808746338	2.4586069583892822
2	52.145471811294556	pulse	1	t		0.0	2.5	/experiments/knapen_AOT/AOT_stimuli/rescaled_final/1893_fw.mp4	0.0	72.48083448410034	
2	53.074432373046875	fix_post	2		12	0.0	2.5	/experiments/knapen_AOT/AOT_stimuli/rescaled_final/1893_fw.mp4	0.0	73.40979504585266	0.10004162788391113
3	53.174474000930786	fix_pre	0		120	1.0	2.5	/experiments/knapen_AOT/AOT_stimuli/rescaled_final/0320_fw.mp4	0.0	73.50983667373657	1.0000920295715332
3	53.74971914291382	pulse	0	t		1.0	2.5	/experiments/knapen_AOT/AOT_stimuli/rescaled_final/0320_fw.mp4	0.0	74.0850818157196	
3	54.17456603050232	movie	1		296	1.0	2.5	/experiments/knapen_AOT/AOT_stimuli/rescaled_final/0320_fw.mp4	0.0	74.5099287033081	2.5003843307495117
3	55.3468337059021	pulse	1	t		1.0	2.5	/experiments/knapen_AOT/AOT_stimuli/rescaled_final/0320_fw.mp4	0.0	75.68219637870789	
3	56.67495036125183	fix_post	2		12	1.0	2.5	/experiments/knapen_AOT/AOT_stimuli/rescaled_final/0320_fw.mp4	0.0	77.01031303405762	0.10004925727844238
4	56.77499961853027	fix_pre	0		120	2.0	2.5	/experiments/knapen_AOT/AOT_stimuli/rescaled_final/0773_rv.mp4	0.0	77.11036229133606	1.008531093597412
4	56.95019865036011	pulse	0	t		2.0	2.5	/experiments/knapen_AOT/AOT_stimuli/rescaled_final/0773_rv.mp4	0.0	77.2855613231659	
4	57.783530712127686	movie	1		295	2.0	2.5	/experiments/knapen_AOT/AOT_stimuli/rescaled_final/0773_rv.mp4	0.0	78.11889338493347	2.4919891357421875
4	58.546902656555176	pulse	1	t		2.0	2.5	/experiments/knapen_AOT/AOT_stimuli/rescaled_final/0773_rv.mp4	0.0	78.88226532936096	
4	60.14740800857544	pulse	1	t		2.0	2.5	/experiments/knapen_AOT/AOT_stimuli/rescaled_final/0773_rv.mp4	0.0	80.48277068138123	
4	60.27551984786987	fix_post	2		12	2.0	2.5	/experiments/knapen_AOT/AOT_stimuli/rescaled_final/0773_rv.mp4	0.0	80.61088252067566	0.10004329681396484
5	60.37556314468384	fix_pre	0		120	3.0	2.5	/experiments/knapen_AOT/AOT_stimuli/rescaled_final/2144_rv.mp4	0.0	80.71092581748962	1.0084824562072754
5	61.38404560089111	movie	1		297	3.0	2.5	/experiments/knapen_AOT/AOT_stimuli/rescaled_final/2144_rv.mp4	0.0	81.7194082736969	2.4919979572296143
5	61.74724626541138	pulse	1	t		3.0	2.5	/experiments/knapen_AOT/AOT_stimuli/rescaled_final/2144_rv.mp4	0.0	82.08260893821716	
5	63.34763741493225	pulse	1	t		3.0	2.5	/experiments/knapen_AOT/AOT_stimuli/rescaled_final/2144_rv.mp4	0.0	83.68300008773804	
5	63.87604355812073	fix_post	2		12	3.0	2.5	/experiments/knapen_AOT/AOT_stimuli/rescaled_final/2144_rv.mp4	0.0	84.21140623092651	0.10003471374511719
6	63.976078271865845	fix_pre	0		118	4.0	2.5	/experiments/knapen_AOT/AOT_stimuli/rescaled_final/0351_rv.mp4	0.0	84.31144094467163	1.0001835823059082
6	64.95148777961731	pulse	0	t		4.0	2.5	/experiments/knapen_AOT/AOT_stimuli/rescaled_final/0351_rv.mp4	0.0	85.2868504524231	
6	64.97626185417175	movie	1		295	4.0	2.5	/experiments/knapen_AOT/AOT_stimuli/rescaled_final/0351_rv.mp4	0.0	85.31162452697754	2.492032527923584
6	66.55107140541077	pulse	1	t		4.0	2.5	/experiments/knapen_AOT/AOT_stimuli/rescaled_final/0351_rv.mp4	0.0	86.88643407821655	
6	67.46829438209534	fix_post	2		12	4.0	2.5	/experiments/knapen_AOT/AOT_stimuli/rescaled_final/0351_rv.mp4	0.0	87.80365705490112	0.10001420974731445
7	67.56830859184265	fix_pre	0		120	5.0	2.5	/experiments/knapen_AOT/AOT_stimuli/rescaled_final/1891_rv.mp4	0.0	87.90367126464844	1.0001029968261719
7	68.15195560455322	pulse	0	t		5.0	2.5	/experiments/knapen_AOT/AOT_stimuli/rescaled_final/1891_rv.mp4	0.0	88.48731827735901	
7	68.56841158866882	movie	1		298	5.0	2.5	/experiments/knapen_AOT/AOT_stimuli/rescaled_final/1891_rv.mp4	0.0	88.90377426147461	2.5004093647003174
7	69.7478837966919	pulse	1	t		5.0	2.5	/experiments/knapen_AOT/AOT_stimuli/rescaled_final/1891_rv.mp4	0.0	90.08324646949768	
7	71.06882095336914	fix_post	2		12	5.0	2.5	/experiments/knapen_AOT/AOT_stimuli/rescaled_final/1891_rv.mp4	0.0	91.40418362617493	0.10000991821289062
8	71.16883087158203	fix_pre	0		120	6.0	2.5	blank	1.0	91.50419354438782	1.0001261234283447
8	71.35237526893616	pulse	0	t		6.0	2.5	blank	1.0	91.68773794174194	
8	72.16895699501038	movie	1		300	6.0	2.5	blank	1.0	92.50431966781616	2.5004351139068604
8	72.95258283615112	pulse	1	t		6.0	2.5	blank	1.0	93.28794550895691	
8	74.54581999778748	pulse	1	t		6.0	2.5	blank	1.0	94.88118267059326	
8	74.66939210891724	fix_post	2		12	6.0	2.5	blank	1.0	95.00475478172302	0.10001134872436523
9	74.7694034576416	fix_pre	0		120	7.0	2.5	/experiments/knapen_AOT/AOT_stimuli/rescaled_final/0762_rv.mp4	0.0	95.10476613044739	1.008573293685913
9	75.77797675132751	movie	1		291	7.0	2.5	/experiments/knapen_AOT/AOT_stimuli/rescaled_final/0762_rv.mp4	0.0	96.1133394241333	2.491912364959717
9	76.15222096443176	pulse	1	t		7.0	2.5	/experiments/knapen_AOT/AOT_stimuli/rescaled_final/0762_rv.mp4	0.0	96.48758363723755	
9	77.7488751411438	pulse	1	t		7.0	2.5	/experiments/knapen_AOT/AOT_stimuli/rescaled_final/0762_rv.mp4	0.0	98.08423781394958	
9	78.26988911628723	fix_post	2		12	7.0	2.5	/experiments/knapen_AOT/AOT_stimuli/rescaled_final/0762_rv.mp4	0.0	98.60525178909302	0.10000824928283691
10	78.36989736557007	fix_pre	0		118	8.0	2.5	/experiments/knapen_AOT/AOT_stimuli/rescaled_final/1617_rv.mp4	0.0	98.70526003837585	0.9919271469116211
10	79.34547805786133	pulse	0	t		8.0	2.5	/experiments/knapen_AOT/AOT_stimuli/rescaled_final/1617_rv.mp4	0.0	99.68084073066711	
10	79.36182451248169	movie	1		297	8.0	2.5	/experiments/knapen_AOT/AOT_stimuli/rescaled_final/1617_rv.mp4	0.0	99.69718718528748	2.500272512435913
10	80.94547414779663	pulse	1	t		8.0	2.5	/experiments/knapen_AOT/AOT_stimuli/rescaled_final/1617_rv.mp4	0.0	101.28083682060242	
10	81.8620970249176	fix_post	2		12	8.0	2.5	/experiments/knapen_AOT/AOT_stimuli/rescaled_final/1617_rv.mp4	0.0	102.19745969772339	0.10001087188720703
11	81.96210789680481	fix_pre	0		120	9.0	2.5	/experiments/knapen_AOT/AOT_stimuli/rescaled_final/0997_rv.mp4	0.0	102.2974705696106	1.0001401901245117
11	82.54570651054382	pulse	0	t		9.0	2.5	/experiments/knapen_AOT/AOT_stimuli/rescaled_final/0997_rv.mp4	0.0	102.88106918334961	
11	82.96224808692932	movie	1		296	9.0	2.5	/experiments/knapen_AOT/AOT_stimuli/rescaled_final/0997_rv.mp4	0.0	103.29761075973511	2.5003857612609863
11	84.14591670036316	pulse	1	t		9.0	2.5	/experiments/knapen_AOT/AOT_stimuli/rescaled_final/0997_rv.mp4	0.0	104.48127937316895	
11	85.46263384819031	fix_post	2		12	9.0	2.5	/experiments/knapen_AOT/AOT_stimuli/rescaled_final/0997_rv.mp4	0.0	105.7979965209961	0.10003089904785156
12	85.56266474723816	fix_pre	0		120	10.0	2.5	/experiments/knapen_AOT/AOT_stimuli/rescaled_final/0814_rv.mp4	0.0	105.89802742004395	1.0003395080566406
12	85.7462089061737	pulse	0	t		10.0	2.5	/experiments/knapen_AOT/AOT_stimuli/rescaled_final/0814_rv.mp4	0.0	106.08157157897949	
12	86.5630042552948	movie	1		294	10.0	2.5	/experiments/knapen_AOT/AOT_stimuli/rescaled_final/0814_rv.mp4	0.0	106.89836692810059	2.5001931190490723
12	87.34645009040833	pulse	1	t		10.0	2.5	/experiments/knapen_AOT/AOT_stimuli/rescaled_final/0814_rv.mp4	0.0	107.68181276321411	
12	88.94667959213257	pulse	1	t		10.0	2.5	/experiments/knapen_AOT/AOT_stimuli/rescaled_final/0814_rv.mp4	0.0	109.28204226493835	
12	89.06319737434387	fix_post	2		12	10.0	2.5	/experiments/knapen_AOT/AOT_stimuli/rescaled_final/0814_rv.mp4	0.0	109.39856004714966	0.0999908447265625
13	89.16318821907043	fix_pre	0		120	11.0	2.5	/experiments/knapen_AOT/AOT_stimuli/rescaled_final/2065_fw.mp4	0.0	109.49855089187622	1.0001368522644043
13	90.16332507133484	movie	1		298	11.0	2.5	/experiments/knapen_AOT/AOT_stimuli/rescaled_final/2065_fw.mp4	0.0	110.49868774414062	2.500396490097046
13	90.54714131355286	pulse	1	t		11.0	2.5	/experiments/knapen_AOT/AOT_stimuli/rescaled_final/2065_fw.mp4	0.0	110.88250398635864	
13	92.14711451530457	pulse	1	t		11.0	2.5	/experiments/knapen_AOT/AOT_stimuli/rescaled_final/2065_fw.mp4	0.0	112.48247718811035	
13	92.66372156143188	fix_post	2		12	11.0	2.5	/experiments/knapen_AOT/AOT_stimuli/rescaled_final/2065_fw.mp4	0.0	112.99908423423767	0.10002374649047852
14	92.76374530792236	fix_pre	0		119	12.0	2.5	/experiments/knapen_AOT/AOT_stimuli/rescaled_final/1544_fw.mp4	0.0	113.09910798072815	1.0001835823059082
14	93.74749612808228	pulse	0	t		12.0	2.5	/experiments/knapen_AOT/AOT_stimuli/rescaled_final/1544_fw.mp4	0.0	114.08285880088806	
14	93.76392889022827	movie	1		298	12.0	2.5	/experiments/knapen_AOT/AOT_stimuli/rescaled_final/1544_fw.mp4	0.0	114.09929156303406	2.500326633453369
14	95.34762048721313	pulse	1	t		12.0	2.5	/experiments/knapen_AOT/AOT_stimuli/rescaled_final/1544_fw.mp4	0.0	115.68298316001892	
14	96.26425552368164	fix_post	2		12	12.0	2.5	/experiments/knapen_AOT/AOT_stimuli/rescaled_final/1544_fw.mp4	0.0	116.59961819648743	0.10001683235168457
15	96.36427235603333	fix_pre	0		120	13.0	2.5	blank	1.0	116.69963502883911	1.000182867050171
15	96.94791388511658	pulse	0	t		13.0	2.5	blank	1.0	117.28327655792236	
15	97.3644552230835	movie	1		300	13.0	2.5	blank	1.0	117.69981789588928	2.50038743019104
15	98.54820823669434	pulse	1	t		13.0	2.5	blank	1.0	118.88357090950012	
15	99.86484265327454	fix_post	2		12	13.0	2.5	blank	1.0	120.20020532608032	0.10004496574401855
16	99.96488761901855	fix_pre	0		120	14.0	2.5	/experiments/knapen_AOT/AOT_stimuli/rescaled_final/1491_rv.mp4	0.0	120.30025029182434	1.0084648132324219
16	100.14882588386536	pulse	0	t		14.0	2.5	/experiments/knapen_AOT/AOT_stimuli/rescaled_final/1491_rv.mp4	0.0	120.48418855667114	
16	100.97335243225098	movie	1		278	14.0	2.5	/experiments/knapen_AOT/AOT_stimuli/rescaled_final/1491_rv.mp4	0.0	121.30871510505676	2.4920060634613037
16	101.74669241905212	pulse	1	t		14.0	2.5	/experiments/knapen_AOT/AOT_stimuli/rescaled_final/1491_rv.mp4	0.0	122.08205509185791	
16	103.34686136245728	pulse	1	t		14.0	2.5	/experiments/knapen_AOT/AOT_stimuli/rescaled_final/1491_rv.mp4	0.0	123.68222403526306	
16	103.46535849571228	fix_post	2		12	14.0	2.5	/experiments/knapen_AOT/AOT_stimuli/rescaled_final/1491_rv.mp4	0.0	123.80072116851807	0.10004806518554688
17	103.56540656089783	fix_pre	0		120	15.0	2.5	/experiments/knapen_AOT/AOT_stimuli/rescaled_final/0454_fw.mp4	0.0	123.90076923370361	1.008631706237793
17	104.57403826713562	movie	1		254	15.0	2.5	/experiments/knapen_AOT/AOT_stimuli/rescaled_final/0454_fw.mp4	0.0	124.9094009399414	2.491870641708374
17	104.94712901115417	pulse	1	t		15.0	2.5	/experiments/knapen_AOT/AOT_stimuli/rescaled_final/0454_fw.mp4	0.0	125.28249168395996	
17	106.54735016822815	pulse	1	t		15.0	2.5	/experiments/knapen_AOT/AOT_stimuli/rescaled_final/0454_fw.mp4	0.0	126.88271284103394	
17	107.065908908844	fix_post	2		12	15.0	2.5	/experiments/knapen_AOT/AOT_stimuli/rescaled_final/0454_fw.mp4	0.0	127.40127158164978	0.1000523567199707
18	107.16596126556396	fix_pre	0		119	16.0	2.5	/experiments/knapen_AOT/AOT_stimuli/rescaled_final/1519_fw.mp4	0.0	127.50132393836975	1.016855001449585
18	108.14971446990967	pulse	0	t		16.0	2.5	/experiments/knapen_AOT/AOT_stimuli/rescaled_final/1519_fw.mp4	0.0	128.48507714271545	
18	108.18281626701355	movie	1		274	16.0	2.5	/experiments/knapen_AOT/AOT_stimuli/rescaled_final/1519_fw.mp4	0.0	128.51817893981934	2.4840474128723145
18	109.74807715415955	pulse	1	t		16.0	2.5	/experiments/knapen_AOT/AOT_stimuli/rescaled_final/1519_fw.mp4	0.0	130.08343982696533	
18	110.66686367988586	fix_post	2		12	16.0	2.5	/experiments/knapen_AOT/AOT_stimuli/rescaled_final/1519_fw.mp4	0.0	131.00222635269165	0.09967041015625
19	110.76653409004211	fix_pre	0		120	17.0	2.5	/experiments/knapen_AOT/AOT_stimuli/rescaled_final/0545_rv.mp4	0.0	131.1018967628479	1.0167627334594727
19	111.35011172294617	pulse	0	t		17.0	2.5	/experiments/knapen_AOT/AOT_stimuli/rescaled_final/0545_rv.mp4	0.0	131.68547439575195	
19	111.78329682350159	movie	1		275	17.0	2.5	/experiments/knapen_AOT/AOT_stimuli/rescaled_final/0545_rv.mp4	0.0	132.11865949630737	2.483700752258301
19	112.9486632347107	pulse	1	t		17.0	2.5	/experiments/knapen_AOT/AOT_stimuli/rescaled_final/0545_rv.mp4	0.0	133.28402590751648	
19	114.26699757575989	fix_post	2		12	17.0	2.5	/experiments/knapen_AOT/AOT_stimuli/rescaled_final/0545_rv.mp4	0.0	134.60236024856567	0.10004425048828125
20	114.36704182624817	fix_pre	0		120	18.0	2.5	/experiments/knapen_AOT/AOT_stimuli/rescaled_final/0802_fw.mp4	0.0	134.70240449905396	1.0168321132659912
20	114.550612449646	pulse	0	t		18.0	2.5	/experiments/knapen_AOT/AOT_stimuli/rescaled_final/0802_fw.mp4	0.0	134.88597512245178	
20	115.38387393951416	movie	1		268	18.0	2.5	/experiments/knapen_AOT/AOT_stimuli/rescaled_final/0802_fw.mp4	0.0	135.71923661231995	2.484114408493042
20	116.1488778591156	pulse	1	t		18.0	2.5	/experiments/knapen_AOT/AOT_stimuli/rescaled_final/0802_fw.mp4	0.0	136.4842405319214	
20	117.7492036819458	pulse	1	t		18.0	2.5	/experiments/knapen_AOT/AOT_stimuli/rescaled_final/0802_fw.mp4	0.0	138.0845663547516	
20	117.8679883480072	fix_post	2		12	18.0	2.5	/experiments/knapen_AOT/AOT_stimuli/rescaled_final/0802_fw.mp4	0.0	138.203351020813	0.09956645965576172
21	117.96755480766296	fix_pre	0		120	19.0	2.5	blank	1.0	138.30291748046875	1.0001518726348877
21	118.96770668029785	movie	1		300	19.0	2.5	blank	1.0	139.30306935310364	2.5003912448883057
21	119.35127305984497	pulse	1	t		19.0	2.5	blank	1.0	139.68663573265076	
21	120.9516372680664	pulse	1	t		19.0	2.5	blank	1.0	141.2869999408722	
21	121.46809792518616	fix_post	2		12	19.0	2.5	blank	1.0	141.80346059799194	0.10004711151123047
22	121.56814503669739	fix_pre	0		119	20.0	2.5	/experiments/knapen_AOT/AOT_stimuli/rescaled_final/1337_rv.mp4	0.0	141.90350770950317	1.0169610977172852
22	122.55186986923218	pulse	0	t		20.0	2.5	/experiments/knapen_AOT/AOT_stimuli/rescaled_final/1337_rv.mp4	0.0	142.88723254203796	
22	122.58510613441467	movie	1		264	20.0	2.5	/experiments/knapen_AOT/AOT_stimuli/rescaled_final/1337_rv.mp4	0.0	142.92046880722046	2.4835445880889893
22	124.15056872367859	pulse	1	t		20.0	2.5	/experiments/knapen_AOT/AOT_stimuli/rescaled_final/1337_rv.mp4	0.0	144.48593139648438	
22	125.06865072250366	fix_post	2		12	20.0	2.5	/experiments/knapen_AOT/AOT_stimuli/rescaled_final/1337_rv.mp4	0.0	145.40401339530945	0.10002255439758301
23	125.16867327690125	fix_pre	0		120	21.0	2.5	/experiments/knapen_AOT/AOT_stimuli/rescaled_final/1219_fw.mp4	0.0	145.50403594970703	1.0168037414550781
23	125.7522714138031	pulse	0	t		21.0	2.5	/experiments/knapen_AOT/AOT_stimuli/rescaled_final/1219_fw.mp4	0.0	146.0876340866089	
23	126.18547701835632	movie	1		255	21.0	2.5	/experiments/knapen_AOT/AOT_stimuli/rescaled_final/1219_fw.mp4	0.0	146.5208396911621	2.4921138286590576
23	127.3503315448761	pulse	1	t		21.0	2.5	/experiments/knapen_AOT/AOT_stimuli/rescaled_final/1219_fw.mp4	0.0	147.68569421768188	
23	128.67759084701538	fix_post	2		11	21.0	2.5	/experiments/knapen_AOT/AOT_stimuli/rescaled_final/1219_fw.mp4	0.0	149.01295351982117	0.09168577194213867
24	128.76927661895752	fix_pre	0		120	22.0	2.5	/experiments/knapen_AOT/AOT_stimuli/rescaled_final/0311_rv.mp4	0.0	149.1046392917633	1.0250952243804932
24	128.9527518749237	pulse	0	t		22.0	2.5	/experiments/knapen_AOT/AOT_stimuli/rescaled_final/0311_rv.mp4	0.0	149.2881145477295	
24	129.794371843338	movie	1		247	22.0	2.5	/experiments/knapen_AOT/AOT_stimuli/rescaled_final/0311_rv.mp4	0.0	150.1297345161438	2.475477457046509
24	130.55333042144775	pulse	1	t		22.0	2.5	/experiments/knapen_AOT/AOT_stimuli/rescaled_final/0311_rv.mp4	0.0	150.88869309425354	
24	132.15265917778015	pulse	1	t		22.0	2.5	/experiments/knapen_AOT/AOT_stimuli/rescaled_final/0311_rv.mp4	0.0	152.48802185058594	
24	132.26984930038452	fix_post	2		12	22.0	2.5	/experiments/knapen_AOT/AOT_stimuli/rescaled_final/0311_rv.mp4	0.0	152.6052119731903	0.09987354278564453
25	132.36972284317017	fix_pre	0		120	23.0	2.5	/experiments/knapen_AOT/AOT_stimuli/rescaled_final/1317_rv.mp4	0.0	152.70508551597595	1.0253078937530518
25	133.39503073692322	movie	1		264	23.0	2.5	/experiments/knapen_AOT/AOT_stimuli/rescaled_final/1317_rv.mp4	0.0	153.730393409729	2.4752190113067627
25	133.75245785713196	pulse	1	t		23.0	2.5	/experiments/knapen_AOT/AOT_stimuli/rescaled_final/1317_rv.mp4	0.0	154.08782052993774	
25	135.35157012939453	pulse	1	t		23.0	2.5	/experiments/knapen_AOT/AOT_stimuli/rescaled_final/1317_rv.mp4	0.0	155.68693280220032	
25	135.87024974822998	fix_post	2		12	23.0	2.5	/experiments/knapen_AOT/AOT_stimuli/rescaled_final/1317_rv.mp4	0.0	156.20561242103577	0.10003829002380371
26	135.97028803825378	fix_pre	0		118	24.0	2.5	/experiments/knapen_AOT/AOT_stimuli/rescaled_final/0351_fw.mp4	0.0	156.30565071105957	1.016922950744629
26	136.9465835094452	pulse	0	t		24.0	2.5	/experiments/knapen_AOT/AOT_stimuli/rescaled_final/0351_fw.mp4	0.0	157.28194618225098	
26	136.9872109889984	movie	1		257	24.0	2.5	/experiments/knapen_AOT/AOT_stimuli/rescaled_final/0351_fw.mp4	0.0	157.3225736618042	2.4753875732421875
26	138.54611086845398	pulse	1	t		24.0	2.5	/experiments/knapen_AOT/AOT_stimuli/rescaled_final/0351_fw.mp4	0.0	158.88147354125977	
26	139.4625985622406	fix_post	2		12	24.0	2.5	/experiments/knapen_AOT/AOT_stimuli/rescaled_final/0351_fw.mp4	0.0	159.7979612350464	0.09993743896484375
27	139.56253600120544	fix_pre	0		120	25.0	2.5	/experiments/knapen_AOT/AOT_stimuli/rescaled_final/1683_rv.mp4	0.0	159.89789867401123	1.0252032279968262
27	140.1463508605957	pulse	0	t		25.0	2.5	/experiments/knapen_AOT/AOT_stimuli/rescaled_final/1683_rv.mp4	0.0	160.4817135334015	
27	140.58773922920227	movie	1		235	25.0	2.5	/experiments/knapen_AOT/AOT_stimuli/rescaled_final/1683_rv.mp4	0.0	160.92310190200806	2.4757003784179688
27	141.74642539024353	pulse	1	t		25.0	2.5	/experiments/knapen_AOT/AOT_stimuli/rescaled_final/1683_rv.mp4	0.0	162.08178806304932	
27	143.06343960762024	fix_post	2		12	25.0	2.5	/experiments/knapen_AOT/AOT_stimuli/rescaled_final/1683_rv.mp4	0.0	163.39880228042603	0.09964656829833984
28	143.16308617591858	fix_pre	0		120	26.0	2.5	/experiments/knapen_AOT/AOT_stimuli/rescaled_final/1550_rv.mp4	0.0	163.49844884872437	1.016826868057251
28	143.34679508209229	pulse	0	t		26.0	2.5	/experiments/knapen_AOT/AOT_stimuli/rescaled_final/1550_rv.mp4	0.0	163.68215775489807	
28	144.17991304397583	movie	1		241	26.0	2.5	/experiments/knapen_AOT/AOT_stimuli/rescaled_final/1550_rv.mp4	0.0	164.51527571678162	2.4839818477630615
28	144.94687223434448	pulse	1	t		26.0	2.5	/experiments/knapen_AOT/AOT_stimuli/rescaled_final/1550_rv.mp4	0.0	165.28223490715027	
28	146.54721879959106	pulse	1	t		26.0	2.5	/experiments/knapen_AOT/AOT_stimuli/rescaled_final/1550_rv.mp4	0.0	166.88258147239685	
28	146.6638948917389	fix_post	2		12	26.0	2.5	/experiments/knapen_AOT/AOT_stimuli/rescaled_final/1550_rv.mp4	0.0	166.99925756454468	0.09973287582397461
29	146.76362776756287	fix_pre	0		120	27.0	2.5	blank	1.0	167.09899044036865	1.0000646114349365
29	147.7636923789978	movie	1		300	27.0	2.5	blank	1.0	168.0990550518036	2.500394821166992
29	148.14737796783447	pulse	1	t		27.0	2.5	blank	1.0	168.48274064064026	
29	149.74761652946472	pulse	1	t		27.0	2.5	blank	1.0	170.0829792022705	
29	150.2640872001648	fix_post	2		12	27.0	2.5	blank	1.0	170.59944987297058	0.10001158714294434
30	150.36409878730774	fix_pre	0		119	28.0	2.5	/experiments/knapen_AOT/AOT_stimuli/rescaled_final/1018_rv.mp4	0.0	170.69946146011353	1.017049789428711
30	151.3479039669037	pulse	0	t		28.0	2.5	/experiments/knapen_AOT/AOT_stimuli/rescaled_final/1018_rv.mp4	0.0	171.68326663970947	
30	151.38114857673645	movie	1		254	28.0	2.5	/experiments/knapen_AOT/AOT_stimuli/rescaled_final/1018_rv.mp4	0.0	171.71651124954224	2.48347544670105
30	152.9476354122162	pulse	1	t		28.0	2.5	/experiments/knapen_AOT/AOT_stimuli/rescaled_final/1018_rv.mp4	0.0	173.28299808502197	
30	153.8646240234375	fix_post	2		12	28.0	2.5	/experiments/knapen_AOT/AOT_stimuli/rescaled_final/1018_rv.mp4	0.0	174.1999866962433	0.10012531280517578
31	153.96474933624268	fix_pre	0		120	29.0	2.5	/experiments/knapen_AOT/AOT_stimuli/rescaled_final/2004_rv.mp4	0.0	174.30011200904846	1.0252985954284668
31	154.5484116077423	pulse	0	t		29.0	2.5	/experiments/knapen_AOT/AOT_stimuli/rescaled_final/2004_rv.mp4	0.0	174.8837742805481	
31	154.99004793167114	movie	1		255	29.0	2.5	/experiments/knapen_AOT/AOT_stimuli/rescaled_final/2004_rv.mp4	0.0	175.32541060447693	2.475252151489258
31	156.146639585495	pulse	1	t		29.0	2.5	/experiments/knapen_AOT/AOT_stimuli/rescaled_final/2004_rv.mp4	0.0	176.48200225830078	
31	157.4653000831604	fix_post	2		12	29.0	2.5	/experiments/knapen_AOT/AOT_stimuli/rescaled_final/2004_rv.mp4	0.0	177.8006627559662	0.09995365142822266
32	157.56525373458862	fix_pre	0		120	30.0	2.5	/experiments/knapen_AOT/AOT_stimuli/rescaled_final/1821_rv.mp4	0.0	177.9006164073944	1.0168519020080566
32	157.74883699417114	pulse	0	t		30.0	2.5	/experiments/knapen_AOT/AOT_stimuli/rescaled_final/1821_rv.mp4	0.0	178.08419966697693	
32	158.58210563659668	movie	1		267	30.0	2.5	/experiments/knapen_AOT/AOT_stimuli/rescaled_final/1821_rv.mp4	0.0	178.91746830940247	2.4837939739227295
32	159.34703040122986	pulse	1	t		30.0	2.5	/experiments/knapen_AOT/AOT_stimuli/rescaled_final/1821_rv.mp4	0.0	179.68239307403564	
32	160.94715929031372	pulse	1	t		30.0	2.5	/experiments/knapen_AOT/AOT_stimuli/rescaled_final/1821_rv.mp4	0.0	181.2825219631195	
32	161.0658996105194	fix_post	2		12	30.0	2.5	/experiments/knapen_AOT/AOT_stimuli/rescaled_final/1821_rv.mp4	0.0	181.4012622833252	0.09982919692993164
33	161.16572880744934	fix_pre	0		120	31.0	2.5	/experiments/knapen_AOT/AOT_stimuli/rescaled_final/1988_fw.mp4	0.0	181.50109148025513	1.0168514251708984
33	162.18258023262024	movie	1		266	31.0	2.5	/experiments/knapen_AOT/AOT_stimuli/rescaled_final/1988_fw.mp4	0.0	182.51794290542603	2.484097480773926
33	162.54973435401917	pulse	1	t		31.0	2.5	/experiments/knapen_AOT/AOT_stimuli/rescaled_final/1988_fw.mp4	0.0	182.88509702682495	
33	164.14763355255127	pulse	1	t		31.0	2.5	/experiments/knapen_AOT/AOT_stimuli/rescaled_final/1988_fw.mp4	0.0	184.48299622535706	
33	164.66667771339417	fix_post	2		12	31.0	2.5	/experiments/knapen_AOT/AOT_stimuli/rescaled_final/1988_fw.mp4	0.0	185.00204038619995	0.09960770606994629
34	164.7662854194641	fix_pre	0		119	32.0	2.5	/experiments/knapen_AOT/AOT_stimuli/rescaled_final/1739_rv.mp4	0.0	185.1016480922699	1.016808271408081
34	165.75022864341736	pulse	0	t		32.0	2.5	/experiments/knapen_AOT/AOT_stimuli/rescaled_final/1739_rv.mp4	0.0	186.08559131622314	
34	165.7830936908722	movie	1		254	32.0	2.5	/experiments/knapen_AOT/AOT_stimuli/rescaled_final/1739_rv.mp4	0.0	186.11845636367798	2.4843854904174805
34	167.35032176971436	pulse	1	t		32.0	2.5	/experiments/knapen_AOT/AOT_stimuli/rescaled_final/1739_rv.mp4	0.0	187.68568444252014	
34	168.26747918128967	fix_post	2		12	32.0	2.5	/experiments/knapen_AOT/AOT_stimuli/rescaled_final/1739_rv.mp4	0.0	188.60284185409546	0.09939074516296387
35	168.36686992645264	fix_pre	0		120	33.0	2.5	/experiments/knapen_AOT/AOT_stimuli/rescaled_final/0853_fw.mp4	0.0	188.70223259925842	1.016763687133789
35	168.95038199424744	pulse	0	t		33.0	2.5	/experiments/knapen_AOT/AOT_stimuli/rescaled_final/0853_fw.mp4	0.0	189.28574466705322	
35	169.38363361358643	movie	1		276	33.0	2.5	/experiments/knapen_AOT/AOT_stimuli/rescaled_final/0853_fw.mp4	0.0	189.7189962863922	2.4837279319763184
35	170.54973244667053	pulse	1	t		33.0	2.5	/experiments/knapen_AOT/AOT_stimuli/rescaled_final/0853_fw.mp4	0.0	190.88509511947632	
35	171.86736154556274	fix_post	2		12	33.0	2.5	/experiments/knapen_AOT/AOT_stimuli/rescaled_final/0853_fw.mp4	0.0	192.20272421836853	0.09998726844787598
36	171.96734881401062	fix_pre	0		120	34.0	2.5	/experiments/knapen_AOT/AOT_stimuli/rescaled_final/1940_fw.mp4	0.0	192.3027114868164	1.0253760814666748
36	172.15094089508057	pulse	0	t		34.0	2.5	/experiments/knapen_AOT/AOT_stimuli/rescaled_final/1940_fw.mp4	0.0	192.48630356788635	
36	172.9927248954773	movie	1		253	34.0	2.5	/experiments/knapen_AOT/AOT_stimuli/rescaled_final/1940_fw.mp4	0.0	193.32808756828308	2.475196599960327
36	173.748920917511	pulse	1	t		34.0	2.5	/experiments/knapen_AOT/AOT_stimuli/rescaled_final/1940_fw.mp4	0.0	194.08428359031677	
36	175.34959411621094	pulse	1	t		34.0	2.5	/experiments/knapen_AOT/AOT_stimuli/rescaled_final/1940_fw.mp4	0.0	195.68495678901672	
36	175.46792149543762	fix_post	2		12	34.0	2.5	/experiments/knapen_AOT/AOT_stimuli/rescaled_final/1940_fw.mp4	0.0	195.8032841682434	0.09998011589050293
37	175.56790161132812	fix_pre	0		120	35.0	2.5	blank	1.0	195.9032642841339	1.000147819519043
37	176.56804943084717	movie	1		300	35.0	2.5	blank	1.0	196.90341210365295	2.5004143714904785
37	176.95161414146423	pulse	1	t		35.0	2.5	blank	1.0	197.28697681427002	
37	178.5518455505371	pulse	1	t		35.0	2.5	blank	1.0	198.8872082233429	
37	179.06846380233765	fix_post	2		12	35.0	2.5	blank	1.0	199.40382647514343	0.10000443458557129
38	179.16846823692322	fix_pre	0		119	36.0	2.5	/experiments/knapen_AOT/AOT_stimuli/rescaled_final/2107_fw.mp4	0.0	199.503830909729	1.0084962844848633
38	180.15224623680115	pulse	0	t		36.0	2.5	/experiments/knapen_AOT/AOT_stimuli/rescaled_final/2107_fw.mp4	0.0	200.48760890960693	
38	180.17696452140808	movie	1		273	36.0	2.5	/experiments/knapen_AOT/AOT_stimuli/rescaled_final/2107_fw.mp4	0.0	200.51232719421387	2.4920480251312256
38	181.75171327590942	pulse	1	t		36.0	2.5	/experiments/knapen_AOT/AOT_stimuli/rescaled_final/2107_fw.mp4	0.0	202.0870759487152	
38	182.6690125465393	fix_post	2		12	36.0	2.5	/experiments/knapen_AOT/AOT_stimuli/rescaled_final/2107_fw.mp4	0.0	203.0043752193451	0.09995508193969727
39	182.768967628479	fix_pre	0		120	37.0	2.5	/experiments/knapen_AOT/AOT_stimuli/rescaled_final/1891_rv.mp4	0.0	203.1043303012848	1.025404453277588
39	183.35265827178955	pulse	0	t		37.0	2.5	/experiments/knapen_AOT/AOT_stimuli/rescaled_final/1891_rv.mp4	0.0	203.68802094459534	
39	183.7943720817566	movie	1		261	37.0	2.5	/experiments/knapen_AOT/AOT_stimuli/rescaled_final/1891_rv.mp4	0.0	204.12973475456238	2.475334644317627
39	184.9508936405182	pulse	1	t		37.0	2.5	/experiments/knapen_AOT/AOT_stimuli/rescaled_final/1891_rv.mp4	0.0	205.28625631332397	
39	186.26970672607422	fix_post	2		12	37.0	2.5	/experiments/knapen_AOT/AOT_stimuli/rescaled_final/1891_rv.mp4	0.0	206.60506939888	0.09982156753540039
40	186.36952829360962	fix_pre	0		120	38.0	2.5	/experiments/knapen_AOT/AOT_stimuli/rescaled_final/1192_fw.mp4	0.0	206.7048909664154	1.0252959728240967
40	186.55317211151123	pulse	0	t		38.0	2.5	/experiments/knapen_AOT/AOT_stimuli/rescaled_final/1192_fw.mp4	0.0	206.88853478431702	
40	187.39482426643372	movie	1		256	38.0	2.5	/experiments/knapen_AOT/AOT_stimuli/rescaled_final/1192_fw.mp4	0.0	207.7301869392395	2.475440263748169
40	188.15140414237976	pulse	1	t		38.0	2.5	/experiments/knapen_AOT/AOT_stimuli/rescaled_final/1192_fw.mp4	0.0	208.48676681518555	
40	189.75169682502747	pulse	1	t		38.0	2.5	/experiments/knapen_AOT/AOT_stimuli/rescaled_final/1192_fw.mp4	0.0	210.08705949783325	
40	189.87026453018188	fix_post	2		12	38.0	2.5	/experiments/knapen_AOT/AOT_stimuli/rescaled_final/1192_fw.mp4	0.0	210.20562720298767	0.09981679916381836
41	189.9700813293457	fix_pre	0		120	39.0	2.5	/experiments/knapen_AOT/AOT_stimuli/rescaled_final/1469_fw.mp4	0.0	210.3054440021515	1.02516508102417
41	190.99524641036987	movie	1		269	39.0	2.5	/experiments/knapen_AOT/AOT_stimuli/rescaled_final/1469_fw.mp4	0.0	211.33060908317566	2.4755606651306152
41	191.34582114219666	pulse	1	t		39.0	2.5	/experiments/knapen_AOT/AOT_stimuli/rescaled_final/1469_fw.mp4	0.0	211.68118381500244	
41	192.94575023651123	pulse	1	t		39.0	2.5	/experiments/knapen_AOT/AOT_stimuli/rescaled_final/1469_fw.mp4	0.0	213.28111290931702	
41	193.4708070755005	fix_post	2		12	39.0	2.5	/experiments/knapen_AOT/AOT_stimuli/rescaled_final/1469_fw.mp4	0.0	213.80616974830627	0.09981131553649902
42	193.570618391037	fix_pre	0		119	40.0	2.5	/experiments/knapen_AOT/AOT_stimuli/rescaled_final/1617_fw.mp4	0.0	213.90598106384277	1.0253863334655762
42	194.5466969013214	pulse	0	t		40.0	2.5	/experiments/knapen_AOT/AOT_stimuli/rescaled_final/1617_fw.mp4	0.0	214.8820595741272	
42	194.59600472450256	movie	1		253	40.0	2.5	/experiments/knapen_AOT/AOT_stimuli/rescaled_final/1617_fw.mp4	0.0	214.93136739730835	2.475292444229126
42	196.14637923240662	pulse	1	t		40.0	2.5	/experiments/knapen_AOT/AOT_stimuli/rescaled_final/1617_fw.mp4	0.0	216.4817419052124	
42	197.0712971687317	fix_post	2		12	40.0	2.5	/experiments/knapen_AOT/AOT_stimuli/rescaled_final/1617_fw.mp4	0.0	217.40665984153748	0.09986376762390137
43	197.1711609363556	fix_pre	0		120	41.0	2.5	/experiments/knapen_AOT/AOT_stimuli/rescaled_final/1022_fw.mp4	0.0	217.50652360916138	1.0168440341949463
43	197.74649596214294	pulse	0	t		41.0	2.5	/experiments/knapen_AOT/AOT_stimuli/rescaled_final/1022_fw.mp4	0.0	218.08185863494873	
43	198.18800497055054	movie	1		258	41.0	2.5	/experiments/knapen_AOT/AOT_stimuli/rescaled_final/1022_fw.mp4	0.0	218.52336764335632	2.4838333129882812
43	199.34702444076538	pulse	1	t		41.0	2.5	/experiments/knapen_AOT/AOT_stimuli/rescaled_final/1022_fw.mp4	0.0	219.68238711357117	
43	200.67183828353882	fix_post	2		12	41.0	2.5	/experiments/knapen_AOT/AOT_stimuli/rescaled_final/1022_fw.mp4	0.0	221.0072009563446	0.09984111785888672
44	200.7716794013977	fix_pre	0		120	42.0	2.5	blank	1.0	221.1070420742035	1.0003330707550049
44	200.94687676429749	pulse	0	t		42.0	2.5	blank	1.0	221.28223943710327	
44	201.7720124721527	movie	1		300	42.0	2.5	blank	1.0	222.1073751449585	2.500221014022827
44	202.54723501205444	pulse	1	t		42.0	2.5	blank	1.0	222.88259768486023	
44	204.14744520187378	pulse	1	t		42.0	2.5	blank	1.0	224.48280787467957	
44	204.27223348617554	fix_post	2		12	42.0	2.5	blank	1.0	224.60759615898132	0.10000967979431152
45	204.37224316596985	fix_pre	0		120	43.0	2.5	/experiments/knapen_AOT/AOT_stimuli/rescaled_final/0335_rv.mp4	0.0	224.70760583877563	1.0251755714416504
45	205.3974187374115	movie	1		249	43.0	2.5	/experiments/knapen_AOT/AOT_stimuli/rescaled_final/0335_rv.mp4	0.0	225.73278141021729	2.47554087638855
45	205.7478859424591	pulse	1	t		43.0	2.5	/experiments/knapen_AOT/AOT_stimuli/rescaled_final/0335_rv.mp4	0.0	226.0832486152649	
45	207.34611058235168	pulse	1	t		43.0	2.5	/experiments/knapen_AOT/AOT_stimuli/rescaled_final/0335_rv.mp4	0.0	227.68147325515747	
45	207.87295961380005	fix_post	2		12	43.0	2.5	/experiments/knapen_AOT/AOT_stimuli/rescaled_final/0335_rv.mp4	0.0	228.20832228660583	0.09979772567749023
46	207.97275733947754	fix_pre	0		118	44.0	2.5	/experiments/knapen_AOT/AOT_stimuli/rescaled_final/1022_fw.mp4	0.0	228.30812001228333	1.0002565383911133
46	208.94819593429565	pulse	0	t		44.0	2.5	/experiments/knapen_AOT/AOT_stimuli/rescaled_final/1022_fw.mp4	0.0	229.28355860710144	
46	208.97301387786865	movie	1		269	44.0	2.5	/experiments/knapen_AOT/AOT_stimuli/rescaled_final/1022_fw.mp4	0.0	229.30837655067444	2.4920997619628906
46	210.54700326919556	pulse	1	t		44.0	2.5	/experiments/knapen_AOT/AOT_stimuli/rescaled_final/1022_fw.mp4	0.0	230.88236594200134	
46	211.46511363983154	fix_post	2		12	44.0	2.5	/experiments/knapen_AOT/AOT_stimuli/rescaled_final/1022_fw.mp4	0.0	231.80047631263733	0.09987664222717285
47	211.56499028205872	fix_pre	0		120	45.0	2.5	/experiments/knapen_AOT/AOT_stimuli/rescaled_final/1361_rv.mp4	0.0	231.9003529548645	1.01694655418396
47	212.14865279197693	pulse	0	t		45.0	2.5	/experiments/knapen_AOT/AOT_stimuli/rescaled_final/1361_rv.mp4	0.0	232.48401546478271	
47	212.58193683624268	movie	1		266	45.0	2.5	/experiments/knapen_AOT/AOT_stimuli/rescaled_final/1361_rv.mp4	0.0	232.91729950904846	2.483783006668091
47	213.747163772583	pulse	1	t		45.0	2.5	/experiments/knapen_AOT/AOT_stimuli/rescaled_final/1361_rv.mp4	0.0	234.0825264453888	
47	215.06571984291077	fix_post	2		12	45.0	2.5	/experiments/knapen_AOT/AOT_stimuli/rescaled_final/1361_rv.mp4	0.0	235.40108251571655	0.09980344772338867
48	215.16552329063416	fix_pre	0		120	46.0	2.5	/experiments/knapen_AOT/AOT_stimuli/rescaled_final/1739_rv.mp4	0.0	235.50088596343994	1.0169217586517334
48	215.34909772872925	pulse	0	t		46.0	2.5	/experiments/knapen_AOT/AOT_stimuli/rescaled_final/1739_rv.mp4	0.0	235.68446040153503	
48	216.1824450492859	movie	1		263	46.0	2.5	/experiments/knapen_AOT/AOT_stimuli/rescaled_final/1739_rv.mp4	0.0	236.51780772209167	2.4839017391204834
48	216.95024394989014	pulse	1	t		46.0	2.5	/experiments/knapen_AOT/AOT_stimuli/rescaled_final/1739_rv.mp4	0.0	237.28560662269592	
48	218.5482108592987	pulse	1	t		46.0	2.5	/experiments/knapen_AOT/AOT_stimuli/rescaled_final/1739_rv.mp4	0.0	238.8835735321045	
48	218.66634678840637	fix_post	2		12	46.0	2.5	/experiments/knapen_AOT/AOT_stimuli/rescaled_final/1739_rv.mp4	0.0	239.00170946121216	0.09978532791137695
49	218.76613211631775	fix_pre	0		120	47.0	2.5	blank	1.0	239.10149478912354	1.0000877380371094
49	219.76621985435486	movie	1		284	47.0	2.5	blank	1.0	240.10158252716064	3.0756731033325195
49	220.14980220794678	pulse	1	t		47.0	2.5	blank	1.0	240.48516488075256	
49	221.75009441375732	pulse	1	t		47.0	2.5	blank	1.0	242.0854570865631	
49	222.84189295768738	fix_post	2		0	47.0	2.5	blank	1.0	243.17725563049316	0.0029098987579345703
50	222.8448028564453	fix_pre	0		61	48.0	2.5	/experiments/knapen_AOT/AOT_stimuli/rescaled_final/1295_fw.mp4	0.0	243.1801655292511	0.5473253726959229
50	223.35029649734497	pulse	0	t		48.0	2.5	/experiments/knapen_AOT/AOT_stimuli/rescaled_final/1295_fw.mp4	0.0	243.68565917015076	
50	223.39212822914124	movie	1		251	48.0	2.5	/experiments/knapen_AOT/AOT_stimuli/rescaled_final/1295_fw.mp4	0.0	243.72749090194702	2.475004196166992
50	224.94877886772156	pulse	1	t		48.0	2.5	/experiments/knapen_AOT/AOT_stimuli/rescaled_final/1295_fw.mp4	0.0	245.28414154052734	
50	225.86713242530823	fix_post	2		12	48.0	2.5	/experiments/knapen_AOT/AOT_stimuli/rescaled_final/1295_fw.mp4	0.0	246.202495098114	0.10001516342163086
51	225.96714758872986	fix_pre	0		120	49.0	2.5	/experiments/knapen_AOT/AOT_stimuli/rescaled_final/1037_rv.mp4	0.0	246.30251026153564	1.009000301361084
51	226.55104732513428	pulse	0	t		49.0	2.5	/experiments/knapen_AOT/AOT_stimuli/rescaled_final/1037_rv.mp4	0.0	246.88640999794006	
51	226.97614789009094	movie	1		269	49.0	2.5	/experiments/knapen_AOT/AOT_stimuli/rescaled_final/1037_rv.mp4	0.0	247.31151056289673	2.4917562007904053
51	228.15146827697754	pulse	1	t		49.0	2.5	/experiments/knapen_AOT/AOT_stimuli/rescaled_final/1037_rv.mp4	0.0	248.48683094978333	
51	229.46790409088135	fix_post	2		12	49.0	2.5	/experiments/knapen_AOT/AOT_stimuli/rescaled_final/1037_rv.mp4	0.0	249.80326676368713	0.09992766380310059
52	229.56783175468445	fix_pre	0		120	50.0	2.5	/experiments/knapen_AOT/AOT_stimuli/rescaled_final/1251_fw.mp4	0.0	249.90319442749023	1.025089979171753
52	229.75123238563538	pulse	0	t		50.0	2.5	/experiments/knapen_AOT/AOT_stimuli/rescaled_final/1251_fw.mp4	0.0	250.08659505844116	
52	230.5929217338562	movie	1		265	50.0	2.5	/experiments/knapen_AOT/AOT_stimuli/rescaled_final/1251_fw.mp4	0.0	250.928284406662	2.4756133556365967
52	231.34976172447205	pulse	1	t		50.0	2.5	/experiments/knapen_AOT/AOT_stimuli/rescaled_final/1251_fw.mp4	0.0	251.68512439727783	
52	232.94959592819214	pulse	1	t		50.0	2.5	/experiments/knapen_AOT/AOT_stimuli/rescaled_final/1251_fw.mp4	0.0	253.28495860099792	
52	233.0685350894928	fix_post	2		12	50.0	2.5	/experiments/knapen_AOT/AOT_stimuli/rescaled_final/1251_fw.mp4	0.0	253.40389776229858	0.09970736503601074
53	233.1682424545288	fix_pre	0		120	51.0	2.5	/experiments/knapen_AOT/AOT_stimuli/rescaled_final/1106_fw.mp4	0.0	253.5036051273346	1.0168092250823975
53	234.1850516796112	movie	1		272	51.0	2.5	/experiments/knapen_AOT/AOT_stimuli/rescaled_final/1106_fw.mp4	0.0	254.520414352417	2.484056234359741
53	234.5519917011261	pulse	1	t		51.0	2.5	/experiments/knapen_AOT/AOT_stimuli/rescaled_final/1106_fw.mp4	0.0	254.88735437393188	
53	236.15016770362854	pulse	1	t		51.0	2.5	/experiments/knapen_AOT/AOT_stimuli/rescaled_final/1106_fw.mp4	0.0	256.4855303764343	
53	236.66910791397095	fix_post	2		12	51.0	2.5	/experiments/knapen_AOT/AOT_stimuli/rescaled_final/1106_fw.mp4	0.0	257.00447058677673	0.09988832473754883
54	236.7689962387085	fix_pre	0		119	52.0	2.5	/experiments/knapen_AOT/AOT_stimuli/rescaled_final/1345_fw.mp4	0.0	257.1043589115143	1.0165903568267822
54	237.75247931480408	pulse	0	t		52.0	2.5	/experiments/knapen_AOT/AOT_stimuli/rescaled_final/1345_fw.mp4	0.0	258.08784198760986	
54	237.78558659553528	movie	1		272	52.0	2.5	/experiments/knapen_AOT/AOT_stimuli/rescaled_final/1345_fw.mp4	0.0	258.12094926834106	2.4839229583740234
54	239.3512740135193	pulse	1	t		52.0	2.5	/experiments/knapen_AOT/AOT_stimuli/rescaled_final/1345_fw.mp4	0.0	259.6866366863251	
54	240.2695095539093	fix_post	2		12	52.0	2.5	/experiments/knapen_AOT/AOT_stimuli/rescaled_final/1345_fw.mp4	0.0	260.6048722267151	0.10011625289916992
55	240.36962580680847	fix_pre	0		120	53.0	2.5	/experiments/knapen_AOT/AOT_stimuli/rescaled_final/0354_rv.mp4	0.0	260.70498847961426	1.025148630142212
55	240.9532036781311	pulse	0	t		53.0	2.5	/experiments/knapen_AOT/AOT_stimuli/rescaled_final/0354_rv.mp4	0.0	261.2885663509369	
55	241.39477443695068	movie	1		262	53.0	2.5	/experiments/knapen_AOT/AOT_stimuli/rescaled_final/0354_rv.mp4	0.0	261.73013710975647	2.4750847816467285
55	242.5522289276123	pulse	1	t		53.0	2.5	/experiments/knapen_AOT/AOT_stimuli/rescaled_final/0354_rv.mp4	0.0	262.8875916004181	
55	243.8698592185974	fix_post	2		12	53.0	2.5	/experiments/knapen_AOT/AOT_stimuli/rescaled_final/0354_rv.mp4	0.0	264.2052218914032	0.10001802444458008
56	243.969877243042	fix_pre	0		120	54.0	2.5	/experiments/knapen_AOT/AOT_stimuli/rescaled_final/0671_fw.mp4	0.0	264.3052399158478	1.0253324508666992
56	244.14586234092712	pulse	0	t		54.0	2.5	/experiments/knapen_AOT/AOT_stimuli/rescaled_final/0671_fw.mp4	0.0	264.4812250137329	
56	244.9952096939087	movie	1		278	54.0	2.5	/experiments/knapen_AOT/AOT_stimuli/rescaled_final/0671_fw.mp4	0.0	265.3305723667145	2.4753599166870117
56	245.75337481498718	pulse	1	t		54.0	2.5	/experiments/knapen_AOT/AOT_stimuli/rescaled_final/0671_fw.mp4	0.0	266.08873748779297	
56	247.34584641456604	pulse	1	t		54.0	2.5	/experiments/knapen_AOT/AOT_stimuli/rescaled_final/0671_fw.mp4	0.0	267.6812090873718	
56	247.4705696105957	fix_post	2		12	54.0	2.5	/experiments/knapen_AOT/AOT_stimuli/rescaled_final/0671_fw.mp4	0.0	267.8059322834015	0.09983396530151367
57	247.57040357589722	fix_pre	0		120	55.0	2.5	/experiments/knapen_AOT/AOT_stimuli/rescaled_final/0431_rv.mp4	0.0	267.905766248703	1.0168347358703613
57	248.58723831176758	movie	1		283	55.0	2.5	/experiments/knapen_AOT/AOT_stimuli/rescaled_final/0431_rv.mp4	0.0	268.92260098457336	2.4838531017303467
57	248.94594883918762	pulse	1	t		55.0	2.5	/experiments/knapen_AOT/AOT_stimuli/rescaled_final/0431_rv.mp4	0.0	269.2813115119934	
57	250.54613280296326	pulse	1	t		55.0	2.5	/experiments/knapen_AOT/AOT_stimuli/rescaled_final/0431_rv.mp4	0.0	270.88149547576904	
57	251.07109141349792	fix_post	2		12	55.0	2.5	/experiments/knapen_AOT/AOT_stimuli/rescaled_final/0431_rv.mp4	0.0	271.4064540863037	0.0999908447265625
58	251.1710822582245	fix_pre	0		118	56.0	2.5	blank	1.0	271.5064449310303	0.9833402633666992
58	252.14634609222412	pulse	0	t		56.0	2.5	blank	1.0	272.4817087650299	
58	252.1544225215912	movie	1		301	56.0	2.5	blank	1.0	272.489785194397	2.5087015628814697
58	253.74657940864563	pulse	1	t		56.0	2.5	blank	1.0	274.0819420814514	
58	254.66312408447266	fix_post	2		12	56.0	2.5	blank	1.0	274.99848675727844	0.10002946853637695
59	254.76315355300903	fix_pre	0		120	57.0	2.5	/experiments/knapen_AOT/AOT_stimuli/rescaled_final/1452_rv.mp4	0.0	275.0985162258148	1.0169124603271484
59	255.34702825546265	pulse	0	t		57.0	2.5	/experiments/knapen_AOT/AOT_stimuli/rescaled_final/1452_rv.mp4	0.0	275.68239092826843	
59	255.78006601333618	movie	1		285	57.0	2.5	/experiments/knapen_AOT/AOT_stimuli/rescaled_final/1452_rv.mp4	0.0	276.11542868614197	2.483811378479004
59	256.94708228111267	pulse	1	t		57.0	2.5	/experiments/knapen_AOT/AOT_stimuli/rescaled_final/1452_rv.mp4	0.0	277.28244495391846	
59	258.2638773918152	fix_post	2		12	57.0	2.5	/experiments/knapen_AOT/AOT_stimuli/rescaled_final/1452_rv.mp4	0.0	278.599240064621	0.09984111785888672
60	258.3637185096741	fix_pre	0		120	58.0	2.5	/experiments/knapen_AOT/AOT_stimuli/rescaled_final/1489_fw.mp4	0.0	278.69908118247986	1.0252184867858887
60	258.5473074913025	pulse	0	t		58.0	2.5	/experiments/knapen_AOT/AOT_stimuli/rescaled_final/1489_fw.mp4	0.0	278.8826701641083	
60	259.38893699645996	movie	1		265	58.0	2.5	/experiments/knapen_AOT/AOT_stimuli/rescaled_final/1489_fw.mp4	0.0	279.72429966926575	2.475578784942627
60	260.1477291584015	pulse	1	t		58.0	2.5	/experiments/knapen_AOT/AOT_stimuli/rescaled_final/1489_fw.mp4	0.0	280.4830918312073	
60	261.74596762657166	pulse	1	t		58.0	2.5	/experiments/knapen_AOT/AOT_stimuli/rescaled_final/1489_fw.mp4	0.0	282.08133029937744	
60	261.8645157814026	fix_post	2		12	58.0	2.5	/experiments/knapen_AOT/AOT_stimuli/rescaled_final/1489_fw.mp4	0.0	282.1998784542084	0.09970927238464355
61	261.96422505378723	fix_pre	0		120	59.0	2.5	/experiments/knapen_AOT/AOT_stimuli/rescaled_final/1617_rv.mp4	0.0	282.299587726593	1.0253331661224365
61	262.98955821990967	movie	1		270	59.0	2.5	/experiments/knapen_AOT/AOT_stimuli/rescaled_final/1617_rv.mp4	0.0	283.32492089271545	2.475396156311035
61	263.3464343547821	pulse	1	t		59.0	2.5	/experiments/knapen_AOT/AOT_stimuli/rescaled_final/1617_rv.mp4	0.0	283.6817970275879	
61	264.94595861434937	pulse	1	t		59.0	2.5	/experiments/knapen_AOT/AOT_stimuli/rescaled_final/1617_rv.mp4	0.0	285.28132128715515	
61	265.4649543762207	fix_post	2		12	59.0	2.5	/experiments/knapen_AOT/AOT_stimuli/rescaled_final/1617_rv.mp4	0.0	285.8003170490265	0.09982705116271973
62	265.5647814273834	fix_pre	0		119	60.0	2.5	/experiments/knapen_AOT/AOT_stimuli/rescaled_final/1387_fw.mp4	0.0	285.9001441001892	1.0168583393096924
62	266.54871010780334	pulse	0	t		60.0	2.5	/experiments/knapen_AOT/AOT_stimuli/rescaled_final/1387_fw.mp4	0.0	286.88407278060913	
62	266.5816397666931	movie	1		281	60.0	2.5	/experiments/knapen_AOT/AOT_stimuli/rescaled_final/1387_fw.mp4	0.0	286.9170024394989	2.483672857284546
62	268.14779686927795	pulse	1	t		60.0	2.5	/experiments/knapen_AOT/AOT_stimuli/rescaled_final/1387_fw.mp4	0.0	288.48315954208374	
62	269.06531262397766	fix_post	2		12	60.0	2.5	/experiments/knapen_AOT/AOT_stimuli/rescaled_final/1387_fw.mp4	0.0	289.40067529678345	0.1000070571899414
63	269.1653196811676	fix_pre	0		120	61.0	2.5	/experiments/knapen_AOT/AOT_stimuli/rescaled_final/0534_fw.mp4	0.0	289.5006823539734	1.0169615745544434
63	269.7491281032562	pulse	0	t		61.0	2.5	/experiments/knapen_AOT/AOT_stimuli/rescaled_final/0534_fw.mp4	0.0	290.084490776062	
63	270.18228125572205	movie	1		281	61.0	2.5	/experiments/knapen_AOT/AOT_stimuli/rescaled_final/0534_fw.mp4	0.0	290.51764392852783	2.4838597774505615
63	271.34953713417053	pulse	1	t		61.0	2.5	/experiments/knapen_AOT/AOT_stimuli/rescaled_final/0534_fw.mp4	0.0	291.6848998069763	
63	272.6661410331726	fix_post	2		11	61.0	2.5	/experiments/knapen_AOT/AOT_stimuli/rescaled_final/0534_fw.mp4	0.0	293.0015037059784	0.09971857070922852
64	272.76585960388184	fix_pre	0		120	62.0	2.5	/experiments/knapen_AOT/AOT_stimuli/rescaled_final/0044_rv.mp4	0.0	293.1012222766876	1.0251920223236084
64	272.949419260025	pulse	0	t		62.0	2.5	/experiments/knapen_AOT/AOT_stimuli/rescaled_final/0044_rv.mp4	0.0	293.2847819328308	
64	273.79105162620544	movie	1		284	62.0	2.5	/experiments/knapen_AOT/AOT_stimuli/rescaled_final/0044_rv.mp4	0.0	294.12641429901123	2.4756181240081787
64	274.5474650859833	pulse	1	t		62.0	2.5	/experiments/knapen_AOT/AOT_stimuli/rescaled_final/0044_rv.mp4	0.0	294.88282775878906	
64	276.1482455730438	pulse	1	t		62.0	2.5	/experiments/knapen_AOT/AOT_stimuli/rescaled_final/0044_rv.mp4	0.0	296.4836082458496	
64	276.2666697502136	fix_post	2		12	62.0	2.5	/experiments/knapen_AOT/AOT_stimuli/rescaled_final/0044_rv.mp4	0.0	296.6020324230194	0.09973883628845215
65	276.3664085865021	fix_pre	0		120	63.0	2.5	blank	1.0	296.70177125930786	1.0001633167266846
65	277.36657190322876	movie	1		300	63.0	2.5	blank	1.0	297.70193457603455	2.500354766845703
65	277.7501447200775	pulse	1	t		63.0	2.5	blank	1.0	298.0855073928833	
65	279.35044598579407	pulse	1	t		63.0	2.5	blank	1.0	299.68580865859985	
65	279.86692667007446	fix_post	2		12	63.0	2.5	blank	1.0	300.20228934288025	0.10008120536804199
66	279.9670078754425	fix_pre	0		119	64.0	2.5	/experiments/knapen_AOT/AOT_stimuli/rescaled_final/1354_fw.mp4	0.0	300.3023705482483	1.0167453289031982
66	280.9506356716156	pulse	0	t		64.0	2.5	/experiments/knapen_AOT/AOT_stimuli/rescaled_final/1354_fw.mp4	0.0	301.2859983444214	
66	280.9837532043457	movie	1		278	64.0	2.5	/experiments/knapen_AOT/AOT_stimuli/rescaled_final/1354_fw.mp4	0.0	301.3191158771515	2.492480516433716
66	282.5494935512543	pulse	1	t		64.0	2.5	/experiments/knapen_AOT/AOT_stimuli/rescaled_final/1354_fw.mp4	0.0	302.88485622406006	
66	283.4762337207794	fix_post	2		11	64.0	2.5	/experiments/knapen_AOT/AOT_stimuli/rescaled_final/1354_fw.mp4	0.0	303.8115963935852	0.0912468433380127
67	283.56748056411743	fix_pre	0		120	65.0	2.5	/experiments/knapen_AOT/AOT_stimuli/rescaled_final/0787_fw.mp4	0.0	303.9028432369232	1.0168037414550781
67	284.1511266231537	pulse	0	t		65.0	2.5	/experiments/knapen_AOT/AOT_stimuli/rescaled_final/0787_fw.mp4	0.0	304.4864892959595	
67	284.5842843055725	movie	1		283	65.0	2.5	/experiments/knapen_AOT/AOT_stimuli/rescaled_final/0787_fw.mp4	0.0	304.9196469783783	2.4839324951171875
67	285.7496988773346	pulse	1	t		65.0	2.5	/experiments/knapen_AOT/AOT_stimuli/rescaled_final/0787_fw.mp4	0.0	306.0850615501404	
67	287.0682168006897	fix_post	2		12	65.0	2.5	/experiments/knapen_AOT/AOT_stimuli/rescaled_final/0787_fw.mp4	0.0	307.4035794734955	0.09981608390808105
68	287.1680328845978	fix_pre	0		120	66.0	2.5	/experiments/knapen_AOT/AOT_stimuli/rescaled_final/2049_fw.mp4	0.0	307.50339555740356	1.0253877639770508
68	287.35159182548523	pulse	0	t		66.0	2.5	/experiments/knapen_AOT/AOT_stimuli/rescaled_final/2049_fw.mp4	0.0	307.686954498291	
68	288.19342064857483	movie	1		280	66.0	2.5	/experiments/knapen_AOT/AOT_stimuli/rescaled_final/2049_fw.mp4	0.0	308.5287833213806	2.4753265380859375
68	288.94960927963257	pulse	1	t		66.0	2.5	/experiments/knapen_AOT/AOT_stimuli/rescaled_final/2049_fw.mp4	0.0	309.28497195243835	
68	290.55017137527466	pulse	1	t		66.0	2.5	/experiments/knapen_AOT/AOT_stimuli/rescaled_final/2049_fw.mp4	0.0	310.88553404808044	
68	290.66874718666077	fix_post	2		12	66.0	2.5	/experiments/knapen_AOT/AOT_stimuli/rescaled_final/2049_fw.mp4	0.0	311.00410985946655	0.09999370574951172
69	290.7687408924103	fix_pre	0		120	67.0	2.5	/experiments/knapen_AOT/AOT_stimuli/rescaled_final/0545_fw.mp4	0.0	311.10410356521606	1.0253112316131592
69	291.79405212402344	movie	1		273	67.0	2.5	/experiments/knapen_AOT/AOT_stimuli/rescaled_final/0545_fw.mp4	0.0	312.1294147968292	2.475052833557129
69	292.1504023075104	pulse	1	t		67.0	2.5	/experiments/knapen_AOT/AOT_stimuli/rescaled_final/0545_fw.mp4	0.0	312.48576498031616	
69	293.75153851509094	pulse	1	t		67.0	2.5	/experiments/knapen_AOT/AOT_stimuli/rescaled_final/0545_fw.mp4	0.0	314.08690118789673	
69	294.26910495758057	fix_post	2		12	67.0	2.5	/experiments/knapen_AOT/AOT_stimuli/rescaled_final/0545_fw.mp4	0.0	314.60446763038635	0.10002350807189941
70	294.36912846565247	fix_pre	0		119	68.0	2.5	/experiments/knapen_AOT/AOT_stimuli/rescaled_final/1891_fw.mp4	0.0	314.70449113845825	1.0168569087982178
70	295.35292887687683	pulse	0	t		68.0	2.5	/experiments/knapen_AOT/AOT_stimuli/rescaled_final/1891_fw.mp4	0.0	315.6882915496826	
70	295.3859853744507	movie	1		284	68.0	2.5	/experiments/knapen_AOT/AOT_stimuli/rescaled_final/1891_fw.mp4	0.0	315.72134804725647	2.4836769104003906
70	296.9514436721802	pulse	1	t		68.0	2.5	/experiments/knapen_AOT/AOT_stimuli/rescaled_final/1891_fw.mp4	0.0	317.28680634498596	
70	297.8696622848511	fix_post	2		12	68.0	2.5	/experiments/knapen_AOT/AOT_stimuli/rescaled_final/1891_fw.mp4	0.0	318.20502495765686	0.09999203681945801
71	297.96965432167053	fix_pre	0		120	69.0	2.5	blank	1.0	318.3050169944763	1.0001554489135742
71	298.5534381866455	pulse	0	t		69.0	2.5	blank	1.0	318.8888008594513	
71	298.9698097705841	movie	1		300	69.0	2.5	blank	1.0	319.3051724433899	2.500372886657715
71	300.1536662578583	pulse	1	t		69.0	2.5	blank	1.0	320.48902893066406	
71	301.4701826572418	fix_post	2		12	69.0	2.5	blank	1.0	321.8055453300476	0.10006999969482422
72	301.57025265693665	fix_pre	0		120	70.0	2.5	/experiments/knapen_AOT/AOT_stimuli/rescaled_final/1205_fw.mp4	0.0	321.90561532974243	1.025245189666748
72	301.7470724582672	pulse	0	t		70.0	2.5	/experiments/knapen_AOT/AOT_stimuli/rescaled_final/1205_fw.mp4	0.0	322.082435131073	
72	302.5954978466034	movie	1		284	70.0	2.5	/experiments/knapen_AOT/AOT_stimuli/rescaled_final/1205_fw.mp4	0.0	322.9308605194092	2.475358247756958
72	303.3517427444458	pulse	1	t		70.0	2.5	/experiments/knapen_AOT/AOT_stimuli/rescaled_final/1205_fw.mp4	0.0	323.6871054172516	
72	304.9462540149689	pulse	1	t		70.0	2.5	/experiments/knapen_AOT/AOT_stimuli/rescaled_final/1205_fw.mp4	0.0	325.28161668777466	
72	305.07085609436035	fix_post	2		12	70.0	2.5	/experiments/knapen_AOT/AOT_stimuli/rescaled_final/1205_fw.mp4	0.0	325.40621876716614	0.09992051124572754
73	305.1707766056061	fix_pre	0		120	71.0	2.5	/experiments/knapen_AOT/AOT_stimuli/rescaled_final/1527_fw.mp4	0.0	325.50613927841187	1.0085196495056152
73	306.1792962551117	movie	1		277	71.0	2.5	/experiments/knapen_AOT/AOT_stimuli/rescaled_final/1527_fw.mp4	0.0	326.5146589279175	2.492058753967285
73	306.54651069641113	pulse	1	t		71.0	2.5	/experiments/knapen_AOT/AOT_stimuli/rescaled_final/1527_fw.mp4	0.0	326.8818733692169	
73	308.14640188217163	pulse	1	t		71.0	2.5	/experiments/knapen_AOT/AOT_stimuli/rescaled_final/1527_fw.mp4	0.0	328.4817645549774	
73	308.671355009079	fix_post	2		12	71.0	2.5	/experiments/knapen_AOT/AOT_stimuli/rescaled_final/1527_fw.mp4	0.0	329.00671768188477	0.10005331039428711
74	308.77140831947327	fix_pre	0		118	72.0	2.5	/experiments/knapen_AOT/AOT_stimuli/rescaled_final/0210_fw.mp4	0.0	329.10677099227905	1.0000696182250977
74	309.7467246055603	pulse	0	t		72.0	2.5	/experiments/knapen_AOT/AOT_stimuli/rescaled_final/0210_fw.mp4	0.0	330.0820872783661	
74	309.77147793769836	movie	1		283	72.0	2.5	/experiments/knapen_AOT/AOT_stimuli/rescaled_final/0210_fw.mp4	0.0	330.10684061050415	2.5005619525909424
74	311.3469605445862	pulse	1	t		72.0	2.5	/experiments/knapen_AOT/AOT_stimuli/rescaled_final/0210_fw.mp4	0.0	331.68232321739197	
74	312.2720398902893	fix_post	2		11	72.0	2.5	/experiments/knapen_AOT/AOT_stimuli/rescaled_final/0210_fw.mp4	0.0	332.6074025630951	0.09152770042419434
75	312.3635675907135	fix_pre	0		120	73.0	2.5	/experiments/knapen_AOT/AOT_stimuli/rescaled_final/0289_rv.mp4	0.0	332.6989302635193	1.0084292888641357
75	312.9471969604492	pulse	0	t		73.0	2.5	/experiments/knapen_AOT/AOT_stimuli/rescaled_final/0289_rv.mp4	0.0	333.282559633255	
75	313.37199687957764	movie	1		287	73.0	2.5	/experiments/knapen_AOT/AOT_stimuli/rescaled_final/0289_rv.mp4	0.0	333.7073595523834	2.4920096397399902
75	314.5476930141449	pulse	1	t		73.0	2.5	/experiments/knapen_AOT/AOT_stimuli/rescaled_final/0289_rv.mp4	0.0	334.8830556869507	
75	315.8640065193176	fix_post	2		12	73.0	2.5	/experiments/knapen_AOT/AOT_stimuli/rescaled_final/0289_rv.mp4	0.0	336.1993691921234	0.10003018379211426
76	315.96403670310974	fix_pre	0		120	74.0	2.5	/experiments/knapen_AOT/AOT_stimuli/rescaled_final/0787_rv.mp4	0.0	336.2993993759155	1.0085656642913818
76	316.1476526260376	pulse	0	t		74.0	2.5	/experiments/knapen_AOT/AOT_stimuli/rescaled_final/0787_rv.mp4	0.0	336.4830152988434	
76	316.9726023674011	movie	1		264	74.0	2.5	/experiments/knapen_AOT/AOT_stimuli/rescaled_final/0787_rv.mp4	0.0	337.3079650402069	2.4920480251312256
76	317.7479684352875	pulse	1	t		74.0	2.5	/experiments/knapen_AOT/AOT_stimuli/rescaled_final/0787_rv.mp4	0.0	338.08333110809326	
76	319.348402261734	pulse	1	t		74.0	2.5	/experiments/knapen_AOT/AOT_stimuli/rescaled_final/0787_rv.mp4	0.0	339.6837649345398	
76	319.46465039253235	fix_post	2		12	74.0	2.5	/experiments/knapen_AOT/AOT_stimuli/rescaled_final/0787_rv.mp4	0.0	339.80001306533813	0.09996795654296875
77	319.5646183490753	fix_pre	0		120	75.0	2.5	blank	1.0	339.8999810218811	1.0000982284545898
77	320.5647165775299	movie	1		300	75.0	2.5	blank	1.0	340.9000792503357	2.500415802001953
77	320.9483473300934	pulse	1	t		75.0	2.5	blank	1.0	341.28371000289917	
77	322.54861855506897	pulse	1	t		75.0	2.5	blank	1.0	342.88398122787476	
77	323.06513237953186	fix_post	2		12	75.0	2.5	blank	1.0	343.40049505233765	0.10000443458557129
78	323.16513681411743	fix_pre	0		119	76.0	2.5	/experiments/knapen_AOT/AOT_stimuli/rescaled_final/1476_rv.mp4	0.0	343.5004994869232	1.000112533569336
78	324.148889541626	pulse	0	t		76.0	2.5	/experiments/knapen_AOT/AOT_stimuli/rescaled_final/1476_rv.mp4	0.0	344.48425221443176	
78	324.16524934768677	movie	1		283	76.0	2.5	/experiments/knapen_AOT/AOT_stimuli/rescaled_final/1476_rv.mp4	0.0	344.50061202049255	2.5004723072052
78	325.7474858760834	pulse	1	t		76.0	2.5	/experiments/knapen_AOT/AOT_stimuli/rescaled_final/1476_rv.mp4	0.0	346.08284854888916	
78	326.66572165489197	fix_post	2		12	76.0	2.5	/experiments/knapen_AOT/AOT_stimuli/rescaled_final/1476_rv.mp4	0.0	347.00108432769775	0.1000063419342041
79	326.7657279968262	fix_pre	0		120	77.0	2.5	/experiments/knapen_AOT/AOT_stimuli/rescaled_final/1317_rv.mp4	0.0	347.10109066963196	1.0085031986236572
79	327.3494372367859	pulse	0	t		77.0	2.5	/experiments/knapen_AOT/AOT_stimuli/rescaled_final/1317_rv.mp4	0.0	347.6847999095917	
79	327.77423119544983	movie	1		280	77.0	2.5	/experiments/knapen_AOT/AOT_stimuli/rescaled_final/1317_rv.mp4	0.0	348.1095938682556	2.4922196865081787
79	328.9482102394104	pulse	1	t		77.0	2.5	/experiments/knapen_AOT/AOT_stimuli/rescaled_final/1317_rv.mp4	0.0	349.2835729122162	
79	330.266450881958	fix_post	2		12	77.0	2.5	/experiments/knapen_AOT/AOT_stimuli/rescaled_final/1317_rv.mp4	0.0	350.6018135547638	0.09976053237915039
80	330.36621141433716	fix_pre	0		120	78.0	2.5	/experiments/knapen_AOT/AOT_stimuli/rescaled_final/1669_rv.mp4	0.0	350.70157408714294	1.0084993839263916
80	330.54977464675903	pulse	0	t		78.0	2.5	/experiments/knapen_AOT/AOT_stimuli/rescaled_final/1669_rv.mp4	0.0	350.8851373195648	
80	331.37471079826355	movie	1		262	78.0	2.5	/experiments/knapen_AOT/AOT_stimuli/rescaled_final/1669_rv.mp4	0.0	351.71007347106934	2.492159366607666
80	332.1493103504181	pulse	1	t		78.0	2.5	/experiments/knapen_AOT/AOT_stimuli/rescaled_final/1669_rv.mp4	0.0	352.4846730232239	
80	333.74851179122925	pulse	1	t		78.0	2.5	/experiments/knapen_AOT/AOT_stimuli/rescaled_final/1669_rv.mp4	0.0	354.08387446403503	
80	333.8668701648712	fix_post	2		12	78.0	2.5	/experiments/knapen_AOT/AOT_stimuli/rescaled_final/1669_rv.mp4	0.0	354.202232837677	0.0999295711517334
81	333.96679973602295	fix_pre	0		120	79.0	2.5	/experiments/knapen_AOT/AOT_stimuli/rescaled_final/2049_rv.mp4	0.0	354.30216240882874	1.008469820022583
81	334.97526955604553	movie	1		286	79.0	2.5	/experiments/knapen_AOT/AOT_stimuli/rescaled_final/2049_rv.mp4	0.0	355.3106322288513	2.4923384189605713
81	335.34893798828125	pulse	1	t		79.0	2.5	/experiments/knapen_AOT/AOT_stimuli/rescaled_final/2049_rv.mp4	0.0	355.68430066108704	
81	336.94881868362427	pulse	1	t		79.0	2.5	/experiments/knapen_AOT/AOT_stimuli/rescaled_final/2049_rv.mp4	0.0	357.28418135643005	
81	337.4676079750061	fix_post	2		12	79.0	2.5	/experiments/knapen_AOT/AOT_stimuli/rescaled_final/2049_rv.mp4	0.0	357.8029706478119	0.09967947006225586
82	337.56728744506836	fix_pre	0		119	80.0	2.5	/experiments/knapen_AOT/AOT_stimuli/rescaled_final/0763_fw.mp4	0.0	357.90265011787415	1.0001490116119385
82	338.5510194301605	pulse	0	t		80.0	2.5	/experiments/knapen_AOT/AOT_stimuli/rescaled_final/0763_fw.mp4	0.0	358.8863821029663	
82	338.5674364566803	movie	1		272	80.0	2.5	/experiments/knapen_AOT/AOT_stimuli/rescaled_final/0763_fw.mp4	0.0	358.9027991294861	2.5003793239593506
82	340.14973187446594	pulse	1	t		80.0	2.5	/experiments/knapen_AOT/AOT_stimuli/rescaled_final/0763_fw.mp4	0.0	360.48509454727173	
82	341.06781578063965	fix_post	2		12	80.0	2.5	/experiments/knapen_AOT/AOT_stimuli/rescaled_final/0763_fw.mp4	0.0	361.40317845344543	0.10004901885986328
83	341.1678647994995	fix_pre	0		120	81.0	2.5	/experiments/knapen_AOT/AOT_stimuli/rescaled_final/0390_fw.mp4	0.0	361.5032274723053	1.0085875988006592
83	341.75144481658936	pulse	0	t		81.0	2.5	/experiments/knapen_AOT/AOT_stimuli/rescaled_final/0390_fw.mp4	0.0	362.08680748939514	
83	342.17645239830017	movie	1		263	81.0	2.5	/experiments/knapen_AOT/AOT_stimuli/rescaled_final/0390_fw.mp4	0.0	362.51181507110596	2.491952896118164
83	343.34983682632446	pulse	1	t		81.0	2.5	/experiments/knapen_AOT/AOT_stimuli/rescaled_final/0390_fw.mp4	0.0	363.68519949913025	
83	344.66840529441833	fix_post	2		12	81.0	2.5	/experiments/knapen_AOT/AOT_stimuli/rescaled_final/0390_fw.mp4	0.0	365.0037679672241	0.09996438026428223
84	344.7683696746826	fix_pre	0		120	82.0	2.5	/experiments/knapen_AOT/AOT_stimuli/rescaled_final/2083_fw.mp4	0.0	365.1037323474884	1.0084738731384277
84	344.9519486427307	pulse	0	t		82.0	2.5	/experiments/knapen_AOT/AOT_stimuli/rescaled_final/2083_fw.mp4	0.0	365.2873113155365	
84	345.77684354782104	movie	1		279	82.0	2.5	/experiments/knapen_AOT/AOT_stimuli/rescaled_final/2083_fw.mp4	0.0	366.11220622062683	2.4923179149627686
84	346.5506021976471	pulse	1	t		82.0	2.5	/experiments/knapen_AOT/AOT_stimuli/rescaled_final/2083_fw.mp4	0.0	366.8859648704529	
84	348.1506416797638	pulse	1	t		82.0	2.5	/experiments/knapen_AOT/AOT_stimuli/rescaled_final/2083_fw.mp4	0.0	368.4860043525696	
84	348.2691614627838	fix_post	2		12	82.0	2.5	/experiments/knapen_AOT/AOT_stimuli/rescaled_final/2083_fw.mp4	0.0	368.6045241355896	0.09986162185668945
85	348.3690230846405	fix_pre	0		120	83.0	2.5	blank	1.0	368.7043857574463	1.0001773834228516
85	349.36920046806335	movie	1		300	83.0	2.5	blank	1.0	369.70456314086914	2.5002450942993164
85	349.7526304721832	pulse	1	t		83.0	2.5	blank	1.0	370.087993144989	
85	351.352876663208	pulse	1	t		83.0	2.5	blank	1.0	371.6882393360138	
85	351.86944556236267	fix_post	2		12	83.0	2.5	blank	1.0	372.20480823516846	0.10833287239074707
87	351.9777784347534	stim	0		1714					372.3131411075592	14.28557825088501
87	352.9532675743103	pulse	0	t						373.2886302471161	
87	354.5534887313843	pulse	0	t						374.88885140419006	
87	356.1536943912506	pulse	0	t						376.4890570640564	
87	357.75387263298035	pulse	0	t						378.08923530578613	
87	359.3464605808258	pulse	0	t						379.6818232536316	
87	360.94738507270813	pulse	0	t						381.2827477455139	
87	362.546578168869	pulse	0	t						382.8819408416748	
87	364.14657330513	pulse	0	t						384.4819359779358	
87	365.74672961235046	pulse	0	t						386.08209228515625	
