trial_nr	onset	event_type	phase	response	nr_frames	movie_index	movie_duration	movie_file	blank	onset_abs	duration
0	0.20831012725830078	stim	0		88					22.35114812850952	0.7332348823547363
0	0.9335281848907471	response	0	space						23.076366186141968	
1	0.9415450096130371	stim	0		4675					23.084383010864258	38.97620606422424
1	39.90303111076355	pulse	0	t						62.04586911201477	
1	39.91775107383728	stim	1		1715					62.0605890750885	14.298450946807861
1	41.49783205986023	pulse	1	t						63.64067006111145	
1	43.09815216064453	pulse	1	t						65.24099016189575	
1	44.69836401939392	pulse	1	t						66.84120202064514	
1	46.29846215248108	pulse	1	t						68.4413001537323	
1	47.89869499206543	pulse	1	t						70.04153299331665	
1	49.49906802177429	pulse	1	t						71.64190602302551	
1	51.09929609298706	pulse	1	t						73.24213409423828	
1	52.6993989944458	pulse	1	t						74.84223699569702	
2	54.21620202064514	fix_pre	0		11	0.0	2.5	/experiments/knapen_AOT/AOT_stimuli/rescaled_final/2043_rv.mp4	0.0	76.35904002189636	0.09165096282958984
2	54.29965305328369	pulse	0	t		0.0	2.5	/experiments/knapen_AOT/AOT_stimuli/rescaled_final/2043_rv.mp4	0.0	76.44249105453491	
2	54.30785298347473	movie	1		244	0.0	2.5	/experiments/knapen_AOT/AOT_stimuli/rescaled_final/2043_rv.mp4	0.0	76.45069098472595	2.5087060928344727
2	55.90042209625244	pulse	1	t		0.0	2.5	/experiments/knapen_AOT/AOT_stimuli/rescaled_final/2043_rv.mp4	0.0	78.04326009750366	
2	56.816559076309204	fix_post	2		12	0.0	2.5	/experiments/knapen_AOT/AOT_stimuli/rescaled_final/2043_rv.mp4	0.0	78.95939707756042	0.10000801086425781
3	56.91656708717346	fix_pre	0		120	1.0	2.5	/experiments/knapen_AOT/AOT_stimuli/rescaled_final/0079_fw.mp4	0.0	79.05940508842468	1.0001730918884277
3	57.492783069610596	pulse	0	t		1.0	2.5	/experiments/knapen_AOT/AOT_stimuli/rescaled_final/0079_fw.mp4	0.0	79.63562107086182	
3	57.91674017906189	movie	1		243	1.0	2.5	/experiments/knapen_AOT/AOT_stimuli/rescaled_final/0079_fw.mp4	0.0	80.05957818031311	2.5003647804260254
3	59.100526094436646	pulse	1	t		1.0	2.5	/experiments/knapen_AOT/AOT_stimuli/rescaled_final/0079_fw.mp4	0.0	81.24336409568787	
3	60.417104959487915	fix_post	2		12	1.0	2.5	/experiments/knapen_AOT/AOT_stimuli/rescaled_final/0079_fw.mp4	0.0	82.55994296073914	0.10009312629699707
4	60.51719808578491	fix_pre	0		120	2.0	2.5	/experiments/knapen_AOT/AOT_stimuli/rescaled_final/1963_rv.mp4	0.0	82.66003608703613	1.0000779628753662
4	60.69328713417053	pulse	0	t		2.0	2.5	/experiments/knapen_AOT/AOT_stimuli/rescaled_final/1963_rv.mp4	0.0	82.83612513542175	
4	61.51727604866028	movie	1		243	2.0	2.5	/experiments/knapen_AOT/AOT_stimuli/rescaled_final/1963_rv.mp4	0.0	83.6601140499115	2.5003321170806885
4	62.292729139328	pulse	1	t		2.0	2.5	/experiments/knapen_AOT/AOT_stimuli/rescaled_final/1963_rv.mp4	0.0	84.43556714057922	
4	63.892765045166016	pulse	1	t		2.0	2.5	/experiments/knapen_AOT/AOT_stimuli/rescaled_final/1963_rv.mp4	0.0	86.03560304641724	
4	64.01760816574097	fix_post	2		12	2.0	2.5	/experiments/knapen_AOT/AOT_stimuli/rescaled_final/1963_rv.mp4	0.0	86.16044616699219	0.10005497932434082
5	64.11766314506531	fix_pre	0		119	3.0	2.5	/experiments/knapen_AOT/AOT_stimuli/rescaled_final/1416_fw.mp4	0.0	86.26050114631653	0.991811990737915
5	65.10947513580322	movie	1		244	3.0	2.5	/experiments/knapen_AOT/AOT_stimuli/rescaled_final/1416_fw.mp4	0.0	87.25231313705444	2.500365972518921
5	65.49328398704529	pulse	1	t		3.0	2.5	/experiments/knapen_AOT/AOT_stimuli/rescaled_final/1416_fw.mp4	0.0	87.63612198829651	
5	67.09357500076294	pulse	1	t		3.0	2.5	/experiments/knapen_AOT/AOT_stimuli/rescaled_final/1416_fw.mp4	0.0	89.23641300201416	
5	67.60984110832214	fix_post	2		12	3.0	2.5	/experiments/knapen_AOT/AOT_stimuli/rescaled_final/1416_fw.mp4	0.0	89.75267910957336	0.10007405281066895
6	67.70991516113281	fix_pre	0		119	4.0	2.5	/experiments/knapen_AOT/AOT_stimuli/rescaled_final/0192_fw.mp4	0.0	89.85275316238403	0.9917678833007812
6	68.69352602958679	pulse	0	t		4.0	2.5	/experiments/knapen_AOT/AOT_stimuli/rescaled_final/0192_fw.mp4	0.0	90.83636403083801	
6	68.7016830444336	movie	1		246	4.0	2.5	/experiments/knapen_AOT/AOT_stimuli/rescaled_final/0192_fw.mp4	0.0	90.84452104568481	2.5087239742279053
6	70.29450607299805	pulse	1	t		4.0	2.5	/experiments/knapen_AOT/AOT_stimuli/rescaled_final/0192_fw.mp4	0.0	92.43734407424927	
6	71.2104070186615	fix_post	2		12	4.0	2.5	/experiments/knapen_AOT/AOT_stimuli/rescaled_final/0192_fw.mp4	0.0	93.35324501991272	0.10001802444458008
7	71.31042504310608	fix_pre	0		120	5.0	2.5	/experiments/knapen_AOT/AOT_stimuli/rescaled_final/0008_rv.mp4	0.0	93.4532630443573	1.000133991241455
7	71.89403200149536	pulse	0	t		5.0	2.5	/experiments/knapen_AOT/AOT_stimuli/rescaled_final/0008_rv.mp4	0.0	94.03687000274658	
7	72.31055903434753	movie	1		243	5.0	2.5	/experiments/knapen_AOT/AOT_stimuli/rescaled_final/0008_rv.mp4	0.0	94.45339703559875	2.5003769397735596
7	73.4943060874939	pulse	1	t		5.0	2.5	/experiments/knapen_AOT/AOT_stimuli/rescaled_final/0008_rv.mp4	0.0	95.63714408874512	
7	74.8109359741211	fix_post	2		12	5.0	2.5	/experiments/knapen_AOT/AOT_stimuli/rescaled_final/0008_rv.mp4	0.0	96.95377397537231	0.10000419616699219
8	74.91094017028809	fix_pre	0		120	6.0	2.5	/experiments/knapen_AOT/AOT_stimuli/rescaled_final/0588_rv.mp4	0.0	97.0537781715393	1.000236988067627
8	75.09453296661377	pulse	0	t		6.0	2.5	/experiments/knapen_AOT/AOT_stimuli/rescaled_final/0588_rv.mp4	0.0	97.23737096786499	
8	75.91117715835571	movie	1		243	6.0	2.5	/experiments/knapen_AOT/AOT_stimuli/rescaled_final/0588_rv.mp4	0.0	98.05401515960693	2.500260829925537
8	76.69463396072388	pulse	1	t		6.0	2.5	/experiments/knapen_AOT/AOT_stimuli/rescaled_final/0588_rv.mp4	0.0	98.8374719619751	
8	78.29482316970825	pulse	1	t		6.0	2.5	/experiments/knapen_AOT/AOT_stimuli/rescaled_final/0588_rv.mp4	0.0	100.43766117095947	
8	78.41143798828125	fix_post	2		12	6.0	2.5	/experiments/knapen_AOT/AOT_stimuli/rescaled_final/0588_rv.mp4	0.0	100.55427598953247	0.10003018379211426
9	78.51146817207336	fix_pre	0		119	7.0	2.5	blank	1.0	100.65430617332458	0.9918270111083984
9	79.50329518318176	movie	1		300	7.0	2.5	blank	1.0	101.64613318443298	2.5003819465637207
9	79.89520502090454	pulse	1	t		7.0	2.5	blank	1.0	102.03804302215576	
9	81.49541711807251	pulse	1	t		7.0	2.5	blank	1.0	103.63825511932373	
9	82.00367712974548	fix_post	2		12	7.0	2.5	blank	1.0	104.1465151309967	0.09999704360961914
10	82.1036741733551	fix_pre	0		120	8.0	2.5	/experiments/knapen_AOT/AOT_stimuli/rescaled_final/0697_rv.mp4	0.0	104.24651217460632	1.0001637935638428
10	83.0956289768219	pulse	0	t		8.0	2.5	/experiments/knapen_AOT/AOT_stimuli/rescaled_final/0697_rv.mp4	0.0	105.23846697807312	
10	83.10383796691895	movie	1		244	8.0	2.5	/experiments/knapen_AOT/AOT_stimuli/rescaled_final/0697_rv.mp4	0.0	105.24667596817017	2.5086700916290283
10	84.69634914398193	pulse	1	t		8.0	2.5	/experiments/knapen_AOT/AOT_stimuli/rescaled_final/0697_rv.mp4	0.0	106.83918714523315	
10	85.61250805854797	fix_post	2		12	8.0	2.5	/experiments/knapen_AOT/AOT_stimuli/rescaled_final/0697_rv.mp4	0.0	107.7553460597992	0.10002493858337402
11	85.71253299713135	fix_pre	0		120	9.0	2.5	/experiments/knapen_AOT/AOT_stimuli/rescaled_final/1225_fw.mp4	0.0	107.85537099838257	1.0001959800720215
11	86.29628396034241	pulse	0	t		9.0	2.5	/experiments/knapen_AOT/AOT_stimuli/rescaled_final/1225_fw.mp4	0.0	108.43912196159363	
11	86.71272897720337	movie	1		244	9.0	2.5	/experiments/knapen_AOT/AOT_stimuli/rescaled_final/1225_fw.mp4	0.0	108.85556697845459	2.500354051589966
11	87.89650106430054	pulse	1	t		9.0	2.5	/experiments/knapen_AOT/AOT_stimuli/rescaled_final/1225_fw.mp4	0.0	110.03933906555176	
11	89.21308302879333	fix_post	2		12	9.0	2.5	/experiments/knapen_AOT/AOT_stimuli/rescaled_final/1225_fw.mp4	0.0	111.35592103004456	0.09999513626098633
12	89.31307816505432	fix_pre	0		120	10.0	2.5	/experiments/knapen_AOT/AOT_stimuli/rescaled_final/1957_fw.mp4	0.0	111.45591616630554	1.0001277923583984
12	89.4966471195221	pulse	0	t		10.0	2.5	/experiments/knapen_AOT/AOT_stimuli/rescaled_final/1957_fw.mp4	0.0	111.63948512077332	
12	90.31320595741272	movie	1		243	10.0	2.5	/experiments/knapen_AOT/AOT_stimuli/rescaled_final/1957_fw.mp4	0.0	112.45604395866394	2.500387191772461
12	91.09682416915894	pulse	1	t		10.0	2.5	/experiments/knapen_AOT/AOT_stimuli/rescaled_final/1957_fw.mp4	0.0	113.23966217041016	
12	92.69692301750183	pulse	1	t		10.0	2.5	/experiments/knapen_AOT/AOT_stimuli/rescaled_final/1957_fw.mp4	0.0	114.83976101875305	
12	92.81359314918518	fix_post	2		12	10.0	2.5	/experiments/knapen_AOT/AOT_stimuli/rescaled_final/1957_fw.mp4	0.0	114.9564311504364	0.10002589225769043
13	92.91361904144287	fix_pre	0		119	11.0	2.5	/experiments/knapen_AOT/AOT_stimuli/rescaled_final/0990_rv.mp4	0.0	115.05645704269409	0.9918229579925537
13	93.90544199943542	movie	1		244	11.0	2.5	/experiments/knapen_AOT/AOT_stimuli/rescaled_final/0990_rv.mp4	0.0	116.04828000068665	2.500396966934204
13	94.29745507240295	pulse	1	t		11.0	2.5	/experiments/knapen_AOT/AOT_stimuli/rescaled_final/0990_rv.mp4	0.0	116.44029307365417	
13	95.89760398864746	pulse	1	t		11.0	2.5	/experiments/knapen_AOT/AOT_stimuli/rescaled_final/0990_rv.mp4	0.0	118.04044198989868	
13	96.40583896636963	fix_post	2		12	11.0	2.5	/experiments/knapen_AOT/AOT_stimuli/rescaled_final/0990_rv.mp4	0.0	118.54867696762085	0.09999704360961914
14	96.50583600997925	fix_pre	0		120	12.0	2.5	blank	1.0	118.64867401123047	1.000136137008667
14	97.49783396720886	pulse	0	t		12.0	2.5	blank	1.0	119.64067196846008	
14	97.50597214698792	movie	1		301	12.0	2.5	blank	1.0	119.64881014823914	2.5087549686431885
14	99.0980429649353	pulse	1	t		12.0	2.5	blank	1.0	121.24088096618652	
14	100.0147271156311	fix_post	2		12	12.0	2.5	blank	1.0	122.15756511688232	0.10003185272216797
15	100.11475896835327	fix_pre	0		120	13.0	2.5	/experiments/knapen_AOT/AOT_stimuli/rescaled_final/1338_rv.mp4	0.0	122.25759696960449	1.0000801086425781
15	100.69839310646057	pulse	0	t		13.0	2.5	/experiments/knapen_AOT/AOT_stimuli/rescaled_final/1338_rv.mp4	0.0	122.84123110771179	
15	101.11483907699585	movie	1		239	13.0	2.5	/experiments/knapen_AOT/AOT_stimuli/rescaled_final/1338_rv.mp4	0.0	123.25767707824707	2.500372886657715
15	102.29872798919678	pulse	1	t		13.0	2.5	/experiments/knapen_AOT/AOT_stimuli/rescaled_final/1338_rv.mp4	0.0	124.441565990448	
15	103.61521196365356	fix_post	2		12	13.0	2.5	/experiments/knapen_AOT/AOT_stimuli/rescaled_final/1338_rv.mp4	0.0	125.75804996490479	0.10002017021179199
16	103.71523213386536	fix_pre	0		120	14.0	2.5	/experiments/knapen_AOT/AOT_stimuli/rescaled_final/0726_fw.mp4	0.0	125.85807013511658	1.0001709461212158
16	103.89884209632874	pulse	0	t		14.0	2.5	/experiments/knapen_AOT/AOT_stimuli/rescaled_final/0726_fw.mp4	0.0	126.04168009757996	
16	104.71540307998657	movie	1		246	14.0	2.5	/experiments/knapen_AOT/AOT_stimuli/rescaled_final/0726_fw.mp4	0.0	126.8582410812378	2.5003600120544434
16	105.49897599220276	pulse	1	t		14.0	2.5	/experiments/knapen_AOT/AOT_stimuli/rescaled_final/0726_fw.mp4	0.0	127.64181399345398	
16	107.09930109977722	pulse	1	t		14.0	2.5	/experiments/knapen_AOT/AOT_stimuli/rescaled_final/0726_fw.mp4	0.0	129.24213910102844	
16	107.21576309204102	fix_post	2		12	14.0	2.5	/experiments/knapen_AOT/AOT_stimuli/rescaled_final/0726_fw.mp4	0.0	129.35860109329224	0.10001897811889648
17	107.31578207015991	fix_pre	0		119	15.0	2.5	/experiments/knapen_AOT/AOT_stimuli/rescaled_final/1224_rv.mp4	0.0	129.45862007141113	0.9918019771575928
17	108.3075840473175	movie	1		244	15.0	2.5	/experiments/knapen_AOT/AOT_stimuli/rescaled_final/1224_rv.mp4	0.0	130.45042204856873	2.5003929138183594
17	108.69955897331238	pulse	1	t		15.0	2.5	/experiments/knapen_AOT/AOT_stimuli/rescaled_final/1224_rv.mp4	0.0	130.8423969745636	
17	110.29967617988586	pulse	1	t		15.0	2.5	/experiments/knapen_AOT/AOT_stimuli/rescaled_final/1224_rv.mp4	0.0	132.44251418113708	
17	110.80797696113586	fix_post	2		12	15.0	2.5	/experiments/knapen_AOT/AOT_stimuli/rescaled_final/1224_rv.mp4	0.0	132.95081496238708	0.1000211238861084
18	110.90799808502197	fix_pre	0		120	16.0	2.5	/experiments/knapen_AOT/AOT_stimuli/rescaled_final/0891_rv.mp4	0.0	133.0508360862732	1.0001099109649658
18	111.90005612373352	pulse	0	t		16.0	2.5	/experiments/knapen_AOT/AOT_stimuli/rescaled_final/0891_rv.mp4	0.0	134.04289412498474	
18	111.90810799598694	movie	1		244	16.0	2.5	/experiments/knapen_AOT/AOT_stimuli/rescaled_final/0891_rv.mp4	0.0	134.05094599723816	2.508737087249756
18	113.50086116790771	pulse	1	t		16.0	2.5	/experiments/knapen_AOT/AOT_stimuli/rescaled_final/0891_rv.mp4	0.0	135.64369916915894	
18	114.4168450832367	fix_post	2		12	16.0	2.5	/experiments/knapen_AOT/AOT_stimuli/rescaled_final/0891_rv.mp4	0.0	136.55968308448792	0.10005497932434082
19	114.51690006256104	fix_pre	0		120	17.0	2.5	/experiments/knapen_AOT/AOT_stimuli/rescaled_final/0910_rv.mp4	0.0	136.65973806381226	1.000096082687378
19	115.10047602653503	pulse	0	t		17.0	2.5	/experiments/knapen_AOT/AOT_stimuli/rescaled_final/0910_rv.mp4	0.0	137.24331402778625	
19	115.51699614524841	movie	1		242	17.0	2.5	/experiments/knapen_AOT/AOT_stimuli/rescaled_final/0910_rv.mp4	0.0	137.65983414649963	2.500560998916626
19	116.69299912452698	pulse	1	t		17.0	2.5	/experiments/knapen_AOT/AOT_stimuli/rescaled_final/0910_rv.mp4	0.0	138.8358371257782	
19	118.01755714416504	fix_post	2		12	17.0	2.5	/experiments/knapen_AOT/AOT_stimuli/rescaled_final/0910_rv.mp4	0.0	140.16039514541626	0.09981393814086914
20	118.11737108230591	fix_pre	0		120	18.0	2.5	/experiments/knapen_AOT/AOT_stimuli/rescaled_final/0932_rv.mp4	0.0	140.26020908355713	1.0001699924468994
20	118.29336309432983	pulse	0	t		18.0	2.5	/experiments/knapen_AOT/AOT_stimuli/rescaled_final/0932_rv.mp4	0.0	140.43620109558105	
20	119.11754107475281	movie	1		244	18.0	2.5	/experiments/knapen_AOT/AOT_stimuli/rescaled_final/0932_rv.mp4	0.0	141.26037907600403	2.5005130767822266
20	119.8929271697998	pulse	1	t		18.0	2.5	/experiments/knapen_AOT/AOT_stimuli/rescaled_final/0932_rv.mp4	0.0	142.03576517105103	
20	121.49317407608032	pulse	1	t		18.0	2.5	/experiments/knapen_AOT/AOT_stimuli/rescaled_final/0932_rv.mp4	0.0	143.63601207733154	
20	121.61805415153503	fix_post	2		12	18.0	2.5	/experiments/knapen_AOT/AOT_stimuli/rescaled_final/0932_rv.mp4	0.0	143.76089215278625	0.09987282752990723
21	121.71792697906494	fix_pre	0		120	19.0	2.5	/experiments/knapen_AOT/AOT_stimuli/rescaled_final/1450_rv.mp4	0.0	143.86076498031616	1.0001530647277832
21	122.71808004379272	movie	1		242	19.0	2.5	/experiments/knapen_AOT/AOT_stimuli/rescaled_final/1450_rv.mp4	0.0	144.86091804504395	2.492033004760742
21	123.09330296516418	pulse	1	t		19.0	2.5	/experiments/knapen_AOT/AOT_stimuli/rescaled_final/1450_rv.mp4	0.0	145.2361409664154	
21	124.69362902641296	pulse	1	t		19.0	2.5	/experiments/knapen_AOT/AOT_stimuli/rescaled_final/1450_rv.mp4	0.0	146.83646702766418	
21	125.21011304855347	fix_post	2		12	19.0	2.5	/experiments/knapen_AOT/AOT_stimuli/rescaled_final/1450_rv.mp4	0.0	147.3529510498047	0.1000521183013916
22	125.31016516685486	fix_pre	0		119	20.0	2.5	blank	1.0	147.45300316810608	0.9917728900909424
22	126.29379916191101	pulse	0	t		20.0	2.5	blank	1.0	148.43663716316223	
22	126.3019380569458	movie	1		301	20.0	2.5	blank	1.0	148.44477605819702	2.508729934692383
22	127.89411902427673	pulse	1	t		20.0	2.5	blank	1.0	150.03695702552795	
22	128.81066799163818	fix_post	2		12	20.0	2.5	blank	1.0	150.9535059928894	0.10008597373962402
23	128.9107539653778	fix_pre	0		120	21.0	2.5	/experiments/knapen_AOT/AOT_stimuli/rescaled_final/1690_rv.mp4	0.0	151.05359196662903	1.0001220703125
23	129.4942820072174	pulse	0	t		21.0	2.5	/experiments/knapen_AOT/AOT_stimuli/rescaled_final/1690_rv.mp4	0.0	151.63712000846863	
23	129.9108760356903	movie	1		244	21.0	2.5	/experiments/knapen_AOT/AOT_stimuli/rescaled_final/1690_rv.mp4	0.0	152.05371403694153	2.5003139972686768
23	131.0946180820465	pulse	1	t		21.0	2.5	/experiments/knapen_AOT/AOT_stimuli/rescaled_final/1690_rv.mp4	0.0	153.23745608329773	
23	132.41119003295898	fix_post	2		12	21.0	2.5	/experiments/knapen_AOT/AOT_stimuli/rescaled_final/1690_rv.mp4	0.0	154.5540280342102	0.10001492500305176
24	132.51120495796204	fix_pre	0		120	22.0	2.5	/experiments/knapen_AOT/AOT_stimuli/rescaled_final/0108_fw.mp4	0.0	154.65404295921326	1.0001389980316162
24	132.6948001384735	pulse	0	t		22.0	2.5	/experiments/knapen_AOT/AOT_stimuli/rescaled_final/0108_fw.mp4	0.0	154.83763813972473	
24	133.51134395599365	movie	1		249	22.0	2.5	/experiments/knapen_AOT/AOT_stimuli/rescaled_final/0108_fw.mp4	0.0	155.65418195724487	2.5004122257232666
24	134.29511499404907	pulse	1	t		22.0	2.5	/experiments/knapen_AOT/AOT_stimuli/rescaled_final/0108_fw.mp4	0.0	156.4379529953003	
24	135.8952820301056	pulse	1	t		22.0	2.5	/experiments/knapen_AOT/AOT_stimuli/rescaled_final/0108_fw.mp4	0.0	158.0381200313568	
24	136.01175618171692	fix_post	2		12	22.0	2.5	/experiments/knapen_AOT/AOT_stimuli/rescaled_final/0108_fw.mp4	0.0	158.15459418296814	0.09998893737792969
25	136.11174511909485	fix_pre	0		120	23.0	2.5	/experiments/knapen_AOT/AOT_stimuli/rescaled_final/0028_fw.mp4	0.0	158.25458312034607	1.0001599788665771
25	137.11190509796143	movie	1		242	23.0	2.5	/experiments/knapen_AOT/AOT_stimuli/rescaled_final/0028_fw.mp4	0.0	159.25474309921265	2.4920239448547363
25	137.49658012390137	pulse	1	t		23.0	2.5	/experiments/knapen_AOT/AOT_stimuli/rescaled_final/0028_fw.mp4	0.0	159.6394181251526	
25	139.09569096565247	pulse	1	t		23.0	2.5	/experiments/knapen_AOT/AOT_stimuli/rescaled_final/0028_fw.mp4	0.0	161.2385289669037	
25	139.60392904281616	fix_post	2		12	23.0	2.5	/experiments/knapen_AOT/AOT_stimuli/rescaled_final/0028_fw.mp4	0.0	161.74676704406738	0.10007214546203613
26	139.7040011882782	fix_pre	0		120	24.0	2.5	/experiments/knapen_AOT/AOT_stimuli/rescaled_final/0762_fw.mp4	0.0	161.84683918952942	1.0000929832458496
26	140.696063041687	pulse	0	t		24.0	2.5	/experiments/knapen_AOT/AOT_stimuli/rescaled_final/0762_fw.mp4	0.0	162.83890104293823	
26	140.70409417152405	movie	1		246	24.0	2.5	/experiments/knapen_AOT/AOT_stimuli/rescaled_final/0762_fw.mp4	0.0	162.84693217277527	2.508737802505493
26	142.29651308059692	pulse	1	t		24.0	2.5	/experiments/knapen_AOT/AOT_stimuli/rescaled_final/0762_fw.mp4	0.0	164.43935108184814	
26	143.21283197402954	fix_post	2		12	24.0	2.5	/experiments/knapen_AOT/AOT_stimuli/rescaled_final/0762_fw.mp4	0.0	165.35566997528076	0.10008120536804199
27	143.31291317939758	fix_pre	0		120	25.0	2.5	/experiments/knapen_AOT/AOT_stimuli/rescaled_final/1301_fw.mp4	0.0	165.4557511806488	1.0000698566436768
27	143.8963930606842	pulse	0	t		25.0	2.5	/experiments/knapen_AOT/AOT_stimuli/rescaled_final/1301_fw.mp4	0.0	166.03923106193542	
27	144.31298303604126	movie	1		245	25.0	2.5	/experiments/knapen_AOT/AOT_stimuli/rescaled_final/1301_fw.mp4	0.0	166.45582103729248	2.500370979309082
27	145.49332404136658	pulse	1	t		25.0	2.5	/experiments/knapen_AOT/AOT_stimuli/rescaled_final/1301_fw.mp4	0.0	167.6361620426178	
27	146.81335401535034	fix_post	2		12	25.0	2.5	/experiments/knapen_AOT/AOT_stimuli/rescaled_final/1301_fw.mp4	0.0	168.95619201660156	0.10001111030578613
28	146.91336512565613	fix_pre	0		120	26.0	2.5	/experiments/knapen_AOT/AOT_stimuli/rescaled_final/2133_fw.mp4	0.0	169.05620312690735	1.0001449584960938
28	147.09700202941895	pulse	0	t		26.0	2.5	/experiments/knapen_AOT/AOT_stimuli/rescaled_final/2133_fw.mp4	0.0	169.23984003067017	
28	147.91351008415222	movie	1		243	26.0	2.5	/experiments/knapen_AOT/AOT_stimuli/rescaled_final/2133_fw.mp4	0.0	170.05634808540344	2.5004520416259766
28	148.69716501235962	pulse	1	t		26.0	2.5	/experiments/knapen_AOT/AOT_stimuli/rescaled_final/2133_fw.mp4	0.0	170.84000301361084	
28	150.29718208312988	pulse	1	t		26.0	2.5	/experiments/knapen_AOT/AOT_stimuli/rescaled_final/2133_fw.mp4	0.0	172.4400200843811	
28	150.4139621257782	fix_post	2		12	26.0	2.5	/experiments/knapen_AOT/AOT_stimuli/rescaled_final/2133_fw.mp4	0.0	172.55680012702942	0.09991288185119629
29	150.5138750076294	fix_pre	0		120	27.0	2.5	blank	1.0	172.65671300888062	1.0002331733703613
29	151.51410818099976	movie	1		299	27.0	2.5	blank	1.0	173.65694618225098	2.491999864578247
29	151.8975601196289	pulse	1	t		27.0	2.5	blank	1.0	174.04039812088013	
29	153.49790406227112	pulse	1	t		27.0	2.5	blank	1.0	175.64074206352234	
29	154.006108045578	fix_post	2		12	27.0	2.5	blank	1.0	176.14894604682922	0.10000801086425781
30	154.10611605644226	fix_pre	0		120	28.0	2.5	/experiments/knapen_AOT/AOT_stimuli/rescaled_final/1474_rv.mp4	0.0	176.24895405769348	1.0001709461212158
30	155.09811902046204	pulse	0	t		28.0	2.5	/experiments/knapen_AOT/AOT_stimuli/rescaled_final/1474_rv.mp4	0.0	177.24095702171326	
30	155.10628700256348	movie	1		245	28.0	2.5	/experiments/knapen_AOT/AOT_stimuli/rescaled_final/1474_rv.mp4	0.0	177.2491250038147	2.5086920261383057
30	156.70008301734924	pulse	1	t		28.0	2.5	/experiments/knapen_AOT/AOT_stimuli/rescaled_final/1474_rv.mp4	0.0	178.84292101860046	
30	157.61497902870178	fix_post	2		12	28.0	2.5	/experiments/knapen_AOT/AOT_stimuli/rescaled_final/1474_rv.mp4	0.0	179.757817029953	0.10004615783691406
31	157.7150251865387	fix_pre	0		120	29.0	2.5	/experiments/knapen_AOT/AOT_stimuli/rescaled_final/1761_fw.mp4	0.0	179.85786318778992	1.00010085105896
31	158.2985441684723	pulse	0	t		29.0	2.5	/experiments/knapen_AOT/AOT_stimuli/rescaled_final/1761_fw.mp4	0.0	180.4413821697235	
31	158.71512603759766	movie	1		244	29.0	2.5	/experiments/knapen_AOT/AOT_stimuli/rescaled_final/1761_fw.mp4	0.0	180.85796403884888	2.5003740787506104
31	159.8988161087036	pulse	1	t		29.0	2.5	/experiments/knapen_AOT/AOT_stimuli/rescaled_final/1761_fw.mp4	0.0	182.04165410995483	
31	161.21550011634827	fix_post	2		9	29.0	2.5	/experiments/knapen_AOT/AOT_stimuli/rescaled_final/1761_fw.mp4	0.0	183.3583381175995	0.10000801086425781
32	161.31550812721252	fix_pre	0		120	30.0	2.5	/experiments/knapen_AOT/AOT_stimuli/rescaled_final/0709_rv.mp4	0.0	183.45834612846375	1.000180959701538
32	161.49918413162231	pulse	0	t		30.0	2.5	/experiments/knapen_AOT/AOT_stimuli/rescaled_final/0709_rv.mp4	0.0	183.64202213287354	
32	162.31568908691406	movie	1		244	30.0	2.5	/experiments/knapen_AOT/AOT_stimuli/rescaled_final/0709_rv.mp4	0.0	184.45852708816528	2.5003440380096436
32	163.09934401512146	pulse	1	t		30.0	2.5	/experiments/knapen_AOT/AOT_stimuli/rescaled_final/0709_rv.mp4	0.0	185.24218201637268	
32	164.69960713386536	pulse	1	t		30.0	2.5	/experiments/knapen_AOT/AOT_stimuli/rescaled_final/0709_rv.mp4	0.0	186.84244513511658	
32	164.8160331249237	fix_post	2		12	30.0	2.5	/experiments/knapen_AOT/AOT_stimuli/rescaled_final/0709_rv.mp4	0.0	186.95887112617493	0.10001087188720703
33	164.9160439968109	fix_pre	0		120	31.0	2.5	/experiments/knapen_AOT/AOT_stimuli/rescaled_final/0390_rv.mp4	0.0	187.05888199806213	1.0001871585845947
33	165.9162311553955	movie	1		243	31.0	2.5	/experiments/knapen_AOT/AOT_stimuli/rescaled_final/0390_rv.mp4	0.0	188.05906915664673	2.491990804672241
33	166.3002381324768	pulse	1	t		31.0	2.5	/experiments/knapen_AOT/AOT_stimuli/rescaled_final/0390_rv.mp4	0.0	188.44307613372803	
33	167.90014815330505	pulse	1	t		31.0	2.5	/experiments/knapen_AOT/AOT_stimuli/rescaled_final/0390_rv.mp4	0.0	190.04298615455627	
33	168.40822196006775	fix_post	2		12	31.0	2.5	/experiments/knapen_AOT/AOT_stimuli/rescaled_final/0390_rv.mp4	0.0	190.55105996131897	0.10001301765441895
34	168.50823497772217	fix_pre	0		120	32.0	2.5	/experiments/knapen_AOT/AOT_stimuli/rescaled_final/0246_rv.mp4	0.0	190.6510729789734	1.0001540184020996
34	169.5003581047058	pulse	0	t		32.0	2.5	/experiments/knapen_AOT/AOT_stimuli/rescaled_final/0246_rv.mp4	0.0	191.64319610595703	
34	169.50838899612427	movie	1		245	32.0	2.5	/experiments/knapen_AOT/AOT_stimuli/rescaled_final/0246_rv.mp4	0.0	191.6512269973755	2.508735179901123
34	171.1016891002655	pulse	1	t		32.0	2.5	/experiments/knapen_AOT/AOT_stimuli/rescaled_final/0246_rv.mp4	0.0	193.24452710151672	
34	172.0171241760254	fix_post	2		12	32.0	2.5	/experiments/knapen_AOT/AOT_stimuli/rescaled_final/0246_rv.mp4	0.0	194.1599621772766	0.09999489784240723
35	172.1171190738678	fix_pre	0		120	33.0	2.5	/experiments/knapen_AOT/AOT_stimuli/rescaled_final/1715_fw.mp4	0.0	194.25995707511902	1.0001630783081055
35	172.69328808784485	pulse	0	t		33.0	2.5	/experiments/knapen_AOT/AOT_stimuli/rescaled_final/1715_fw.mp4	0.0	194.83612608909607	
35	173.1172821521759	movie	1		246	33.0	2.5	/experiments/knapen_AOT/AOT_stimuli/rescaled_final/1715_fw.mp4	0.0	195.26012015342712	2.5003700256347656
35	174.2932150363922	pulse	1	t		33.0	2.5	/experiments/knapen_AOT/AOT_stimuli/rescaled_final/1715_fw.mp4	0.0	196.43605303764343	
35	175.61765217781067	fix_post	2		12	33.0	2.5	/experiments/knapen_AOT/AOT_stimuli/rescaled_final/1715_fw.mp4	0.0	197.7604901790619	0.10002493858337402
36	175.71767711639404	fix_pre	0		120	34.0	2.5	/experiments/knapen_AOT/AOT_stimuli/rescaled_final/1667_rv.mp4	0.0	197.86051511764526	1.0001449584960938
36	175.89355611801147	pulse	0	t		34.0	2.5	/experiments/knapen_AOT/AOT_stimuli/rescaled_final/1667_rv.mp4	0.0	198.0363941192627	
36	176.71782207489014	movie	1		244	34.0	2.5	/experiments/knapen_AOT/AOT_stimuli/rescaled_final/1667_rv.mp4	0.0	198.86066007614136	2.5003700256347656
36	177.49301600456238	pulse	1	t		34.0	2.5	/experiments/knapen_AOT/AOT_stimuli/rescaled_final/1667_rv.mp4	0.0	199.6358540058136	
36	179.09329509735107	pulse	1	t		34.0	2.5	/experiments/knapen_AOT/AOT_stimuli/rescaled_final/1667_rv.mp4	0.0	201.2361330986023	
36	179.2181921005249	fix_post	2		12	34.0	2.5	/experiments/knapen_AOT/AOT_stimuli/rescaled_final/1667_rv.mp4	0.0	201.36103010177612	0.10001301765441895
37	179.31820511817932	fix_pre	0		120	35.0	2.5	blank	1.0	201.46104311943054	1.000180959701538
37	180.31838607788086	movie	1		299	35.0	2.5	blank	1.0	202.46122407913208	2.4920120239257812
37	180.69354605674744	pulse	1	t		35.0	2.5	blank	1.0	202.83638405799866	
37	182.2937731742859	pulse	1	t		35.0	2.5	blank	1.0	204.4366111755371	
37	182.81039810180664	fix_post	2		12	35.0	2.5	blank	1.0	204.95323610305786	0.09999299049377441
38	182.91039109230042	fix_pre	0		119	36.0	2.5	/experiments/knapen_AOT/AOT_stimuli/rescaled_final/0137_rv.mp4	0.0	205.05322909355164	0.9918069839477539
38	183.8940839767456	pulse	0	t		36.0	2.5	/experiments/knapen_AOT/AOT_stimuli/rescaled_final/0137_rv.mp4	0.0	206.03692197799683	
38	183.90219807624817	movie	1		244	36.0	2.5	/experiments/knapen_AOT/AOT_stimuli/rescaled_final/0137_rv.mp4	0.0	206.0450360774994	2.5087389945983887
38	185.49526715278625	pulse	1	t		36.0	2.5	/experiments/knapen_AOT/AOT_stimuli/rescaled_final/0137_rv.mp4	0.0	207.63810515403748	
38	186.41093707084656	fix_post	2		12	36.0	2.5	/experiments/knapen_AOT/AOT_stimuli/rescaled_final/0137_rv.mp4	0.0	208.55377507209778	0.0999898910522461
39	186.5109269618988	fix_pre	0		120	37.0	2.5	/experiments/knapen_AOT/AOT_stimuli/rescaled_final/0743_fw.mp4	0.0	208.65376496315002	1.0001840591430664
39	187.0945520401001	pulse	0	t		37.0	2.5	/experiments/knapen_AOT/AOT_stimuli/rescaled_final/0743_fw.mp4	0.0	209.23739004135132	
39	187.51111102104187	movie	1		244	37.0	2.5	/experiments/knapen_AOT/AOT_stimuli/rescaled_final/0743_fw.mp4	0.0	209.6539490222931	2.500304937362671
39	188.69480895996094	pulse	1	t		37.0	2.5	/experiments/knapen_AOT/AOT_stimuli/rescaled_final/0743_fw.mp4	0.0	210.83764696121216	
39	190.01141595840454	fix_post	2		12	37.0	2.5	/experiments/knapen_AOT/AOT_stimuli/rescaled_final/0743_fw.mp4	0.0	212.15425395965576	0.1000361442565918
40	190.11145210266113	fix_pre	0		120	38.0	2.5	/experiments/knapen_AOT/AOT_stimuli/rescaled_final/1946_fw.mp4	0.0	212.25429010391235	1.000175952911377
40	190.2949559688568	pulse	0	t		38.0	2.5	/experiments/knapen_AOT/AOT_stimuli/rescaled_final/1946_fw.mp4	0.0	212.43779397010803	
40	191.1116280555725	movie	1		245	38.0	2.5	/experiments/knapen_AOT/AOT_stimuli/rescaled_final/1946_fw.mp4	0.0	213.25446605682373	2.500375986099243
40	191.89528703689575	pulse	1	t		38.0	2.5	/experiments/knapen_AOT/AOT_stimuli/rescaled_final/1946_fw.mp4	0.0	214.03812503814697	
40	193.4954710006714	pulse	1	t		38.0	2.5	/experiments/knapen_AOT/AOT_stimuli/rescaled_final/1946_fw.mp4	0.0	215.6383090019226	
40	193.61200404167175	fix_post	2		12	38.0	2.5	/experiments/knapen_AOT/AOT_stimuli/rescaled_final/1946_fw.mp4	0.0	215.75484204292297	0.10002398490905762
41	193.7120280265808	fix_pre	0		120	39.0	2.5	/experiments/knapen_AOT/AOT_stimuli/rescaled_final/0553_fw.mp4	0.0	215.85486602783203	1.000148057937622
41	194.71217608451843	movie	1		243	39.0	2.5	/experiments/knapen_AOT/AOT_stimuli/rescaled_final/0553_fw.mp4	0.0	216.85501408576965	2.492011070251465
41	195.09722018241882	pulse	1	t		39.0	2.5	/experiments/knapen_AOT/AOT_stimuli/rescaled_final/0553_fw.mp4	0.0	217.24005818367004	
41	196.69602799415588	pulse	1	t		39.0	2.5	/experiments/knapen_AOT/AOT_stimuli/rescaled_final/0553_fw.mp4	0.0	218.8388659954071	
41	197.2041871547699	fix_post	2		12	39.0	2.5	/experiments/knapen_AOT/AOT_stimuli/rescaled_final/0553_fw.mp4	0.0	219.34702515602112	0.10001397132873535
42	197.30420112609863	fix_pre	0		120	40.0	2.5	/experiments/knapen_AOT/AOT_stimuli/rescaled_final/1636_rv.mp4	0.0	219.44703912734985	1.0001709461212158
42	198.2961461544037	pulse	0	t		40.0	2.5	/experiments/knapen_AOT/AOT_stimuli/rescaled_final/1636_rv.mp4	0.0	220.4389841556549	
42	198.30437207221985	movie	1		246	40.0	2.5	/experiments/knapen_AOT/AOT_stimuli/rescaled_final/1636_rv.mp4	0.0	220.44721007347107	2.508697032928467
42	199.89718103408813	pulse	1	t		40.0	2.5	/experiments/knapen_AOT/AOT_stimuli/rescaled_final/1636_rv.mp4	0.0	222.04001903533936	
42	200.81306910514832	fix_post	2		12	40.0	2.5	/experiments/knapen_AOT/AOT_stimuli/rescaled_final/1636_rv.mp4	0.0	222.95590710639954	0.1000208854675293
43	200.91308999061584	fix_pre	0		120	41.0	2.5	/experiments/knapen_AOT/AOT_stimuli/rescaled_final/2154_rv.mp4	0.0	223.05592799186707	1.0001800060272217
43	201.49666714668274	pulse	0	t		41.0	2.5	/experiments/knapen_AOT/AOT_stimuli/rescaled_final/2154_rv.mp4	0.0	223.63950514793396	
43	201.91326999664307	movie	1		244	41.0	2.5	/experiments/knapen_AOT/AOT_stimuli/rescaled_final/2154_rv.mp4	0.0	224.0561079978943	2.5003390312194824
43	203.09705710411072	pulse	1	t		41.0	2.5	/experiments/knapen_AOT/AOT_stimuli/rescaled_final/2154_rv.mp4	0.0	225.23989510536194	
43	204.41360902786255	fix_post	2		12	41.0	2.5	/experiments/knapen_AOT/AOT_stimuli/rescaled_final/2154_rv.mp4	0.0	226.55644702911377	0.1000511646270752
44	204.51366019248962	fix_pre	0		120	42.0	2.5	blank	1.0	226.65649819374084	1.0001099109649658
44	204.69711804389954	pulse	0	t		42.0	2.5	blank	1.0	226.83995604515076	
44	205.5137701034546	movie	1		300	42.0	2.5	blank	1.0	227.6566081047058	2.5003859996795654
44	206.297443151474	pulse	1	t		42.0	2.5	blank	1.0	228.44028115272522	
44	207.89758706092834	pulse	1	t		42.0	2.5	blank	1.0	230.04042506217957	
44	208.01415610313416	fix_post	2		12	42.0	2.5	blank	1.0	230.15699410438538	0.09998488426208496
45	208.11414098739624	fix_pre	0		119	43.0	2.5	/experiments/knapen_AOT/AOT_stimuli/rescaled_final/1988_rv.mp4	0.0	230.25697898864746	0.9918651580810547
45	209.1060061454773	movie	1		244	43.0	2.5	/experiments/knapen_AOT/AOT_stimuli/rescaled_final/1988_rv.mp4	0.0	231.24884414672852	2.5003669261932373
45	209.4980239868164	pulse	1	t		43.0	2.5	/experiments/knapen_AOT/AOT_stimuli/rescaled_final/1988_rv.mp4	0.0	231.64086198806763	
45	211.09819507598877	pulse	1	t		43.0	2.5	/experiments/knapen_AOT/AOT_stimuli/rescaled_final/1988_rv.mp4	0.0	233.24103307724	
45	211.60637307167053	fix_post	2		12	43.0	2.5	/experiments/knapen_AOT/AOT_stimuli/rescaled_final/1988_rv.mp4	0.0	233.74921107292175	0.09998703002929688
46	211.70636010169983	fix_pre	0		120	44.0	2.5	/experiments/knapen_AOT/AOT_stimuli/rescaled_final/1829_fw.mp4	0.0	233.84919810295105	1.000140905380249
46	212.69832301139832	pulse	0	t		44.0	2.5	/experiments/knapen_AOT/AOT_stimuli/rescaled_final/1829_fw.mp4	0.0	234.84116101264954	
46	212.70650100708008	movie	1		246	44.0	2.5	/experiments/knapen_AOT/AOT_stimuli/rescaled_final/1829_fw.mp4	0.0	234.8493390083313	2.5088441371917725
46	214.30315518379211	pulse	1	t		44.0	2.5	/experiments/knapen_AOT/AOT_stimuli/rescaled_final/1829_fw.mp4	0.0	236.44599318504333	
46	215.21534514427185	fix_post	2		12	44.0	2.5	/experiments/knapen_AOT/AOT_stimuli/rescaled_final/1829_fw.mp4	0.0	237.35818314552307	0.09989285469055176
47	215.3152379989624	fix_pre	0		120	45.0	2.5	/experiments/knapen_AOT/AOT_stimuli/rescaled_final/0932_fw.mp4	0.0	237.45807600021362	1.0001990795135498
47	215.8988630771637	pulse	0	t		45.0	2.5	/experiments/knapen_AOT/AOT_stimuli/rescaled_final/0932_fw.mp4	0.0	238.04170107841492	
47	216.31543707847595	movie	1		244	45.0	2.5	/experiments/knapen_AOT/AOT_stimuli/rescaled_final/0932_fw.mp4	0.0	238.45827507972717	2.5003530979156494
47	217.49921917915344	pulse	1	t		45.0	2.5	/experiments/knapen_AOT/AOT_stimuli/rescaled_final/0932_fw.mp4	0.0	239.64205718040466	
47	218.8157901763916	fix_post	2		12	45.0	2.5	/experiments/knapen_AOT/AOT_stimuli/rescaled_final/0932_fw.mp4	0.0	240.95862817764282	0.10004186630249023
48	218.9158320426941	fix_pre	0		120	46.0	2.5	/experiments/knapen_AOT/AOT_stimuli/rescaled_final/0439_fw.mp4	0.0	241.0586700439453	1.0001239776611328
48	219.09930896759033	pulse	0	t		46.0	2.5	/experiments/knapen_AOT/AOT_stimuli/rescaled_final/0439_fw.mp4	0.0	241.24214696884155	
48	219.91595602035522	movie	1		242	46.0	2.5	/experiments/knapen_AOT/AOT_stimuli/rescaled_final/0439_fw.mp4	0.0	242.05879402160645	2.500352144241333
48	220.69952011108398	pulse	1	t		46.0	2.5	/experiments/knapen_AOT/AOT_stimuli/rescaled_final/0439_fw.mp4	0.0	242.8423581123352	
48	222.29979705810547	pulse	1	t		46.0	2.5	/experiments/knapen_AOT/AOT_stimuli/rescaled_final/0439_fw.mp4	0.0	244.4426350593567	
48	222.41630816459656	fix_post	2		12	46.0	2.5	/experiments/knapen_AOT/AOT_stimuli/rescaled_final/0439_fw.mp4	0.0	244.55914616584778	0.10003185272216797
49	222.51634001731873	fix_pre	0		119	47.0	2.5	blank	1.0	244.65917801856995	0.9917681217193604
49	223.5081081390381	movie	1		300	47.0	2.5	blank	1.0	245.6509461402893	2.500391960144043
49	223.8924651145935	pulse	1	t		47.0	2.5	blank	1.0	246.03530311584473	
49	225.4928081035614	pulse	1	t		47.0	2.5	blank	1.0	247.63564610481262	
49	226.00850009918213	fix_post	2		12	47.0	2.5	blank	1.0	248.15133810043335	0.09999990463256836
50	226.1085000038147	fix_pre	0		120	48.0	2.5	/experiments/knapen_AOT/AOT_stimuli/rescaled_final/1186_fw.mp4	0.0	248.25133800506592	1.0001649856567383
50	227.09317111968994	pulse	0	t		48.0	2.5	/experiments/knapen_AOT/AOT_stimuli/rescaled_final/1186_fw.mp4	0.0	249.23600912094116	
50	227.10866498947144	movie	1		245	48.0	2.5	/experiments/knapen_AOT/AOT_stimuli/rescaled_final/1186_fw.mp4	0.0	249.25150299072266	2.508721113204956
50	228.70189499855042	pulse	1	t		48.0	2.5	/experiments/knapen_AOT/AOT_stimuli/rescaled_final/1186_fw.mp4	0.0	250.84473299980164	
50	229.6173861026764	fix_post	2		12	48.0	2.5	/experiments/knapen_AOT/AOT_stimuli/rescaled_final/1186_fw.mp4	0.0	251.7602241039276	0.09999203681945801
51	229.71737813949585	fix_pre	0		120	49.0	2.5	/experiments/knapen_AOT/AOT_stimuli/rescaled_final/1007_fw.mp4	0.0	251.86021614074707	1.0001678466796875
51	230.29266810417175	pulse	0	t		49.0	2.5	/experiments/knapen_AOT/AOT_stimuli/rescaled_final/1007_fw.mp4	0.0	252.43550610542297	
51	230.71754598617554	movie	1		245	49.0	2.5	/experiments/knapen_AOT/AOT_stimuli/rescaled_final/1007_fw.mp4	0.0	252.86038398742676	2.500333070755005
51	231.89346599578857	pulse	1	t		49.0	2.5	/experiments/knapen_AOT/AOT_stimuli/rescaled_final/1007_fw.mp4	0.0	254.0363039970398	
51	233.21787905693054	fix_post	2		12	49.0	2.5	/experiments/knapen_AOT/AOT_stimuli/rescaled_final/1007_fw.mp4	0.0	255.36071705818176	0.10004711151123047
52	233.31792616844177	fix_pre	0		120	50.0	2.5	/experiments/knapen_AOT/AOT_stimuli/rescaled_final/0719_fw.mp4	0.0	255.460764169693	1.0001428127288818
52	233.49316215515137	pulse	0	t		50.0	2.5	/experiments/knapen_AOT/AOT_stimuli/rescaled_final/0719_fw.mp4	0.0	255.6360001564026	
52	234.31806898117065	movie	1		243	50.0	2.5	/experiments/knapen_AOT/AOT_stimuli/rescaled_final/0719_fw.mp4	0.0	256.4609069824219	2.4920601844787598
52	235.09343910217285	pulse	1	t		50.0	2.5	/experiments/knapen_AOT/AOT_stimuli/rescaled_final/0719_fw.mp4	0.0	257.2362771034241	
52	236.693510055542	pulse	1	t		50.0	2.5	/experiments/knapen_AOT/AOT_stimuli/rescaled_final/0719_fw.mp4	0.0	258.8363480567932	
52	236.8101291656494	fix_post	2		12	50.0	2.5	/experiments/knapen_AOT/AOT_stimuli/rescaled_final/0719_fw.mp4	0.0	258.95296716690063	0.10001087188720703
53	236.91014003753662	fix_pre	0		120	51.0	2.5	/experiments/knapen_AOT/AOT_stimuli/rescaled_final/0735_fw.mp4	0.0	259.05297803878784	1.0001280307769775
53	237.9102680683136	movie	1		246	51.0	2.5	/experiments/knapen_AOT/AOT_stimuli/rescaled_final/0735_fw.mp4	0.0	260.0531060695648	2.5004029273986816
53	238.29798007011414	pulse	1	t		51.0	2.5	/experiments/knapen_AOT/AOT_stimuli/rescaled_final/0735_fw.mp4	0.0	260.44081807136536	
53	239.89409708976746	pulse	1	t		51.0	2.5	/experiments/knapen_AOT/AOT_stimuli/rescaled_final/0735_fw.mp4	0.0	262.0369350910187	
53	240.41067099571228	fix_post	2		12	51.0	2.5	/experiments/knapen_AOT/AOT_stimuli/rescaled_final/0735_fw.mp4	0.0	262.5535089969635	0.10000109672546387
54	240.51067209243774	fix_pre	0		119	52.0	2.5	/experiments/knapen_AOT/AOT_stimuli/rescaled_final/0192_fw.mp4	0.0	262.65351009368896	0.9917988777160645
54	241.49440097808838	pulse	0	t		52.0	2.5	/experiments/knapen_AOT/AOT_stimuli/rescaled_final/0192_fw.mp4	0.0	263.6372389793396	
54	241.5024709701538	movie	1		246	52.0	2.5	/experiments/knapen_AOT/AOT_stimuli/rescaled_final/0192_fw.mp4	0.0	263.64530897140503	2.508707046508789
54	243.09516501426697	pulse	1	t		52.0	2.5	/experiments/knapen_AOT/AOT_stimuli/rescaled_final/0192_fw.mp4	0.0	265.2380030155182	
54	244.0111780166626	fix_post	2		12	52.0	2.5	/experiments/knapen_AOT/AOT_stimuli/rescaled_final/0192_fw.mp4	0.0	266.1540160179138	0.10003995895385742
55	244.11121797561646	fix_pre	0		120	53.0	2.5	/experiments/knapen_AOT/AOT_stimuli/rescaled_final/0917_rv.mp4	0.0	266.2540559768677	1.0001420974731445
55	244.6947910785675	pulse	0	t		53.0	2.5	/experiments/knapen_AOT/AOT_stimuli/rescaled_final/0917_rv.mp4	0.0	266.8376290798187	
55	245.1113600730896	movie	1		243	53.0	2.5	/experiments/knapen_AOT/AOT_stimuli/rescaled_final/0917_rv.mp4	0.0	267.2541980743408	2.500354051589966
55	246.29522514343262	pulse	1	t		53.0	2.5	/experiments/knapen_AOT/AOT_stimuli/rescaled_final/0917_rv.mp4	0.0	268.43806314468384	
55	247.61171412467957	fix_post	2		12	53.0	2.5	/experiments/knapen_AOT/AOT_stimuli/rescaled_final/0917_rv.mp4	0.0	269.7545521259308	0.10001993179321289
56	247.71173405647278	fix_pre	0		120	54.0	2.5	blank	1.0	269.854572057724	1.0001981258392334
56	247.89524698257446	pulse	0	t		54.0	2.5	blank	1.0	270.0380849838257	
56	248.711932182312	movie	1		300	54.0	2.5	blank	1.0	270.85477018356323	2.500372886657715
56	249.495539188385	pulse	1	t		54.0	2.5	blank	1.0	271.63837718963623	
56	251.09567499160767	pulse	1	t		54.0	2.5	blank	1.0	273.2385129928589	
56	251.21230506896973	fix_post	2		12	54.0	2.5	blank	1.0	273.35514307022095	0.10001993179321289
57	251.31232500076294	fix_pre	0		120	55.0	2.5	/experiments/knapen_AOT/AOT_stimuli/rescaled_final/1553_rv.mp4	0.0	273.45516300201416	1.0000910758972168
57	252.31241607666016	movie	1		243	55.0	2.5	/experiments/knapen_AOT/AOT_stimuli/rescaled_final/1553_rv.mp4	0.0	274.4552540779114	2.492058038711548
57	252.69654297828674	pulse	1	t		55.0	2.5	/experiments/knapen_AOT/AOT_stimuli/rescaled_final/1553_rv.mp4	0.0	274.83938097953796	
57	254.29637908935547	pulse	1	t		55.0	2.5	/experiments/knapen_AOT/AOT_stimuli/rescaled_final/1553_rv.mp4	0.0	276.4392170906067	
57	254.8044741153717	fix_post	2		12	55.0	2.5	/experiments/knapen_AOT/AOT_stimuli/rescaled_final/1553_rv.mp4	0.0	276.9473121166229	0.09996199607849121
58	254.9044361114502	fix_pre	0		120	56.0	2.5	/experiments/knapen_AOT/AOT_stimuli/rescaled_final/0553_fw.mp4	0.0	277.0472741127014	1.0002079010009766
58	255.89656805992126	pulse	0	t		56.0	2.5	/experiments/knapen_AOT/AOT_stimuli/rescaled_final/0553_fw.mp4	0.0	278.0394060611725	
58	255.90464401245117	movie	1		245	56.0	2.5	/experiments/knapen_AOT/AOT_stimuli/rescaled_final/0553_fw.mp4	0.0	278.0474820137024	2.508707046508789
58	257.4970631599426	pulse	1	t		56.0	2.5	/experiments/knapen_AOT/AOT_stimuli/rescaled_final/0553_fw.mp4	0.0	279.63990116119385	
58	258.41335105895996	fix_post	2		12	56.0	2.5	/experiments/knapen_AOT/AOT_stimuli/rescaled_final/0553_fw.mp4	0.0	280.5561890602112	0.10001206398010254
59	258.51336312294006	fix_pre	0		120	57.0	2.5	/experiments/knapen_AOT/AOT_stimuli/rescaled_final/0029_fw.mp4	0.0	280.6562011241913	1.000135898590088
59	259.0968961715698	pulse	0	t		57.0	2.5	/experiments/knapen_AOT/AOT_stimuli/rescaled_final/0029_fw.mp4	0.0	281.23973417282104	
59	259.51349902153015	movie	1		245	57.0	2.5	/experiments/knapen_AOT/AOT_stimuli/rescaled_final/0029_fw.mp4	0.0	281.6563370227814	2.50034499168396
59	260.6972551345825	pulse	1	t		57.0	2.5	/experiments/knapen_AOT/AOT_stimuli/rescaled_final/0029_fw.mp4	0.0	282.84009313583374	
59	262.0138440132141	fix_post	2		12	57.0	2.5	/experiments/knapen_AOT/AOT_stimuli/rescaled_final/0029_fw.mp4	0.0	284.15668201446533	0.1000370979309082
60	262.113881111145	fix_pre	0		120	58.0	2.5	/experiments/knapen_AOT/AOT_stimuli/rescaled_final/1774_rv.mp4	0.0	284.25671911239624	1.0001580715179443
60	262.2975401878357	pulse	0	t		58.0	2.5	/experiments/knapen_AOT/AOT_stimuli/rescaled_final/1774_rv.mp4	0.0	284.4403781890869	
60	263.11403918266296	movie	1		244	58.0	2.5	/experiments/knapen_AOT/AOT_stimuli/rescaled_final/1774_rv.mp4	0.0	285.2568771839142	2.5003697872161865
60	263.8976330757141	pulse	1	t		58.0	2.5	/experiments/knapen_AOT/AOT_stimuli/rescaled_final/1774_rv.mp4	0.0	286.04047107696533	
60	265.49787402153015	pulse	1	t		58.0	2.5	/experiments/knapen_AOT/AOT_stimuli/rescaled_final/1774_rv.mp4	0.0	287.6407120227814	
60	265.61440896987915	fix_post	2		12	58.0	2.5	/experiments/knapen_AOT/AOT_stimuli/rescaled_final/1774_rv.mp4	0.0	287.75724697113037	0.10002303123474121
61	265.7144320011139	fix_pre	0		120	59.0	2.5	/experiments/knapen_AOT/AOT_stimuli/rescaled_final/1228_fw.mp4	0.0	287.8572700023651	1.0001580715179443
61	266.71459007263184	movie	1		242	59.0	2.5	/experiments/knapen_AOT/AOT_stimuli/rescaled_final/1228_fw.mp4	0.0	288.85742807388306	2.492018938064575
61	267.10241413116455	pulse	1	t		59.0	2.5	/experiments/knapen_AOT/AOT_stimuli/rescaled_final/1228_fw.mp4	0.0	289.24525213241577	
61	268.6984701156616	pulse	1	t		59.0	2.5	/experiments/knapen_AOT/AOT_stimuli/rescaled_final/1228_fw.mp4	0.0	290.84130811691284	
61	269.2066090106964	fix_post	2		12	59.0	2.5	/experiments/knapen_AOT/AOT_stimuli/rescaled_final/1228_fw.mp4	0.0	291.34944701194763	0.10001802444458008
62	269.306627035141	fix_pre	0		120	60.0	2.5	/experiments/knapen_AOT/AOT_stimuli/rescaled_final/0684_rv.mp4	0.0	291.4494650363922	1.0001440048217773
62	270.29854106903076	pulse	0	t		60.0	2.5	/experiments/knapen_AOT/AOT_stimuli/rescaled_final/0684_rv.mp4	0.0	292.441379070282	
62	270.30677103996277	movie	1		244	60.0	2.5	/experiments/knapen_AOT/AOT_stimuli/rescaled_final/0684_rv.mp4	0.0	292.449609041214	2.5087101459503174
62	271.89928102493286	pulse	1	t		60.0	2.5	/experiments/knapen_AOT/AOT_stimuli/rescaled_final/0684_rv.mp4	0.0	294.0421190261841	
62	272.8154811859131	fix_post	2		12	60.0	2.5	/experiments/knapen_AOT/AOT_stimuli/rescaled_final/0684_rv.mp4	0.0	294.9583191871643	0.10001182556152344
63	272.9154930114746	fix_pre	0		120	61.0	2.5	blank	1.0	295.05833101272583	1.0001540184020996
63	273.4992461204529	pulse	0	t		61.0	2.5	blank	1.0	295.6420841217041	
63	273.9156470298767	movie	1		300	61.0	2.5	blank	1.0	296.05848503112793	2.50040602684021
63	275.0994119644165	pulse	1	t		61.0	2.5	blank	1.0	297.2422499656677	
63	276.4160530567169	fix_post	2		12	61.0	2.5	blank	1.0	298.55889105796814	0.09998106956481934
64	276.51603412628174	fix_pre	0		120	62.0	2.5	/experiments/knapen_AOT/AOT_stimuli/rescaled_final/0206_rv.mp4	0.0	298.65887212753296	1.000196933746338
64	276.6996121406555	pulse	0	t		62.0	2.5	/experiments/knapen_AOT/AOT_stimuli/rescaled_final/0206_rv.mp4	0.0	298.84245014190674	
64	277.5162310600281	movie	1		244	62.0	2.5	/experiments/knapen_AOT/AOT_stimuli/rescaled_final/0206_rv.mp4	0.0	299.6590690612793	2.5003371238708496
64	278.29983711242676	pulse	1	t		62.0	2.5	/experiments/knapen_AOT/AOT_stimuli/rescaled_final/0206_rv.mp4	0.0	300.442675113678	
64	279.9003710746765	pulse	1	t		62.0	2.5	/experiments/knapen_AOT/AOT_stimuli/rescaled_final/0206_rv.mp4	0.0	302.04320907592773	
64	280.0165681838989	fix_post	2		12	62.0	2.5	/experiments/knapen_AOT/AOT_stimuli/rescaled_final/0206_rv.mp4	0.0	302.15940618515015	0.10002398490905762
65	280.116592168808	fix_pre	0		120	63.0	2.5	/experiments/knapen_AOT/AOT_stimuli/rescaled_final/2174_rv.mp4	0.0	302.2594301700592	1.000135898590088
65	281.11672806739807	movie	1		243	63.0	2.5	/experiments/knapen_AOT/AOT_stimuli/rescaled_final/2174_rv.mp4	0.0	303.2595660686493	2.4928460121154785
65	281.5007920265198	pulse	1	t		63.0	2.5	/experiments/knapen_AOT/AOT_stimuli/rescaled_final/2174_rv.mp4	0.0	303.643630027771	
65	283.1006450653076	pulse	1	t		63.0	2.5	/experiments/knapen_AOT/AOT_stimuli/rescaled_final/2174_rv.mp4	0.0	305.24348306655884	
65	283.60957407951355	fix_post	2		10	63.0	2.5	/experiments/knapen_AOT/AOT_stimuli/rescaled_final/2174_rv.mp4	0.0	305.75241208076477	0.09923100471496582
66	283.7088050842285	fix_pre	0		120	64.0	2.5	/experiments/knapen_AOT/AOT_stimuli/rescaled_final/0137_fw.mp4	0.0	305.85164308547974	1.0001208782196045
66	284.69335198402405	pulse	0	t		64.0	2.5	/experiments/knapen_AOT/AOT_stimuli/rescaled_final/0137_fw.mp4	0.0	306.83618998527527	
66	284.7089259624481	movie	1		244	64.0	2.5	/experiments/knapen_AOT/AOT_stimuli/rescaled_final/0137_fw.mp4	0.0	306.85176396369934	2.5087051391601562
66	286.3014199733734	pulse	1	t		64.0	2.5	/experiments/knapen_AOT/AOT_stimuli/rescaled_final/0137_fw.mp4	0.0	308.44425797462463	
66	287.2176311016083	fix_post	2		12	64.0	2.5	/experiments/knapen_AOT/AOT_stimuli/rescaled_final/0137_fw.mp4	0.0	309.3604691028595	0.10005903244018555
67	287.31769013404846	fix_pre	0		120	65.0	2.5	/experiments/knapen_AOT/AOT_stimuli/rescaled_final/0892_rv.mp4	0.0	309.4605281352997	1.0001659393310547
67	287.8937840461731	pulse	0	t		65.0	2.5	/experiments/knapen_AOT/AOT_stimuli/rescaled_final/0892_rv.mp4	0.0	310.0366220474243	
67	288.3178560733795	movie	1		243	65.0	2.5	/experiments/knapen_AOT/AOT_stimuli/rescaled_final/0892_rv.mp4	0.0	310.46069407463074	2.5003530979156494
67	289.4943799972534	pulse	1	t		65.0	2.5	/experiments/knapen_AOT/AOT_stimuli/rescaled_final/0892_rv.mp4	0.0	311.63721799850464	
67	290.81820917129517	fix_post	2		12	65.0	2.5	/experiments/knapen_AOT/AOT_stimuli/rescaled_final/0892_rv.mp4	0.0	312.9610471725464	0.09996294975280762
68	290.918172121048	fix_pre	0		120	66.0	2.5	/experiments/knapen_AOT/AOT_stimuli/rescaled_final/0594_rv.mp4	0.0	313.0610101222992	1.0001778602600098
68	291.0933871269226	pulse	0	t		66.0	2.5	/experiments/knapen_AOT/AOT_stimuli/rescaled_final/0594_rv.mp4	0.0	313.2362251281738	
68	291.918349981308	movie	1		243	66.0	2.5	/experiments/knapen_AOT/AOT_stimuli/rescaled_final/0594_rv.mp4	0.0	314.0611879825592	2.500380039215088
68	292.6935591697693	pulse	1	t		66.0	2.5	/experiments/knapen_AOT/AOT_stimuli/rescaled_final/0594_rv.mp4	0.0	314.8363971710205	
68	294.2938771247864	pulse	1	t		66.0	2.5	/experiments/knapen_AOT/AOT_stimuli/rescaled_final/0594_rv.mp4	0.0	316.4367151260376	
68	294.41873002052307	fix_post	2		12	66.0	2.5	/experiments/knapen_AOT/AOT_stimuli/rescaled_final/0594_rv.mp4	0.0	316.5615680217743	0.10000205039978027
69	294.51873207092285	fix_pre	0		119	67.0	2.5	/experiments/knapen_AOT/AOT_stimuli/rescaled_final/1796_fw.mp4	0.0	316.6615700721741	0.9918100833892822
69	295.51054215431213	movie	1		245	67.0	2.5	/experiments/knapen_AOT/AOT_stimuli/rescaled_final/1796_fw.mp4	0.0	317.65338015556335	2.5004029273986816
69	295.89459109306335	pulse	1	t		67.0	2.5	/experiments/knapen_AOT/AOT_stimuli/rescaled_final/1796_fw.mp4	0.0	318.0374290943146	
69	297.49431705474854	pulse	1	t		67.0	2.5	/experiments/knapen_AOT/AOT_stimuli/rescaled_final/1796_fw.mp4	0.0	319.63715505599976	
69	298.0109450817108	fix_post	2		12	67.0	2.5	/experiments/knapen_AOT/AOT_stimuli/rescaled_final/1796_fw.mp4	0.0	320.15378308296204	0.09997296333312988
70	298.11091804504395	fix_pre	0		119	68.0	2.5	/experiments/knapen_AOT/AOT_stimuli/rescaled_final/1103_rv.mp4	0.0	320.25375604629517	0.9918460845947266
70	299.09453201293945	pulse	0	t		68.0	2.5	/experiments/knapen_AOT/AOT_stimuli/rescaled_final/1103_rv.mp4	0.0	321.2373700141907	
70	299.1027641296387	movie	1		244	68.0	2.5	/experiments/knapen_AOT/AOT_stimuli/rescaled_final/1103_rv.mp4	0.0	321.2456021308899	2.5086638927459717
70	300.6951479911804	pulse	1	t		68.0	2.5	/experiments/knapen_AOT/AOT_stimuli/rescaled_final/1103_rv.mp4	0.0	322.83798599243164	
70	301.61142802238464	fix_post	2		12	68.0	2.5	/experiments/knapen_AOT/AOT_stimuli/rescaled_final/1103_rv.mp4	0.0	323.75426602363586	0.10002994537353516
71	301.7114579677582	fix_pre	0		120	69.0	2.5	/experiments/knapen_AOT/AOT_stimuli/rescaled_final/0729_fw.mp4	0.0	323.8542959690094	1.0001540184020996
71	302.2951250076294	pulse	0	t		69.0	2.5	/experiments/knapen_AOT/AOT_stimuli/rescaled_final/0729_fw.mp4	0.0	324.4379630088806	
71	302.7116119861603	movie	1		243	69.0	2.5	/experiments/knapen_AOT/AOT_stimuli/rescaled_final/0729_fw.mp4	0.0	324.8544499874115	2.500352144241333
71	303.89534997940063	pulse	1	t		69.0	2.5	/experiments/knapen_AOT/AOT_stimuli/rescaled_final/0729_fw.mp4	0.0	326.03818798065186	
71	305.2119641304016	fix_post	2		12	69.0	2.5	/experiments/knapen_AOT/AOT_stimuli/rescaled_final/0729_fw.mp4	0.0	327.35480213165283	0.10006594657897949
72	305.3120300769806	fix_pre	0		120	70.0	2.5	blank	1.0	327.4548680782318	1.0001399517059326
72	305.49557995796204	pulse	0	t		70.0	2.5	blank	1.0	327.63841795921326	
72	306.3121700286865	movie	1		300	70.0	2.5	blank	1.0	328.45500802993774	2.5003819465637207
72	307.0957610607147	pulse	1	t		70.0	2.5	blank	1.0	329.23859906196594	
72	308.696084022522	pulse	1	t		70.0	2.5	blank	1.0	330.8389220237732	
72	308.81255197525024	fix_post	2		12	70.0	2.5	blank	1.0	330.95538997650146	0.0999910831451416
73	308.9125430583954	fix_pre	0		119	71.0	2.5	/experiments/knapen_AOT/AOT_stimuli/rescaled_final/1641_fw.mp4	0.0	331.0553810596466	0.991818904876709
73	309.9043619632721	movie	1		243	71.0	2.5	/experiments/knapen_AOT/AOT_stimuli/rescaled_final/1641_fw.mp4	0.0	332.0471999645233	2.500383138656616
73	310.29636216163635	pulse	1	t		71.0	2.5	/experiments/knapen_AOT/AOT_stimuli/rescaled_final/1641_fw.mp4	0.0	332.4392001628876	
73	311.8964581489563	pulse	1	t		71.0	2.5	/experiments/knapen_AOT/AOT_stimuli/rescaled_final/1641_fw.mp4	0.0	334.0392961502075	
73	312.4047451019287	fix_post	2		12	71.0	2.5	/experiments/knapen_AOT/AOT_stimuli/rescaled_final/1641_fw.mp4	0.0	334.54758310317993	0.1000058650970459
74	312.50475096702576	fix_pre	0		120	72.0	2.5	/experiments/knapen_AOT/AOT_stimuli/rescaled_final/0684_fw.mp4	0.0	334.647588968277	1.0001420974731445
74	313.4967710971832	pulse	0	t		72.0	2.5	/experiments/knapen_AOT/AOT_stimuli/rescaled_final/0684_fw.mp4	0.0	335.63960909843445	
74	313.5048930644989	movie	1		244	72.0	2.5	/experiments/knapen_AOT/AOT_stimuli/rescaled_final/0684_fw.mp4	0.0	335.6477310657501	2.5087039470672607
74	315.0973720550537	pulse	1	t		72.0	2.5	/experiments/knapen_AOT/AOT_stimuli/rescaled_final/0684_fw.mp4	0.0	337.24021005630493	
74	316.01359701156616	fix_post	2		12	72.0	2.5	/experiments/knapen_AOT/AOT_stimuli/rescaled_final/0684_fw.mp4	0.0	338.1564350128174	0.10002899169921875
75	316.1136260032654	fix_pre	0		120	73.0	2.5	/experiments/knapen_AOT/AOT_stimuli/rescaled_final/1424_rv.mp4	0.0	338.2564640045166	1.0001389980316162
75	316.69731998443604	pulse	0	t		73.0	2.5	/experiments/knapen_AOT/AOT_stimuli/rescaled_final/1424_rv.mp4	0.0	338.84015798568726	
75	317.113765001297	movie	1		244	73.0	2.5	/experiments/knapen_AOT/AOT_stimuli/rescaled_final/1424_rv.mp4	0.0	339.2566030025482	2.5003821849823
75	318.29754304885864	pulse	1	t		73.0	2.5	/experiments/knapen_AOT/AOT_stimuli/rescaled_final/1424_rv.mp4	0.0	340.44038105010986	
75	319.6141471862793	fix_post	2		12	73.0	2.5	/experiments/knapen_AOT/AOT_stimuli/rescaled_final/1424_rv.mp4	0.0	341.7569851875305	0.09999489784240723
76	319.7141420841217	fix_pre	0		120	74.0	2.5	/experiments/knapen_AOT/AOT_stimuli/rescaled_final/0439_fw.mp4	0.0	341.8569800853729	1.0001859664916992
76	319.89764308929443	pulse	0	t		74.0	2.5	/experiments/knapen_AOT/AOT_stimuli/rescaled_final/0439_fw.mp4	0.0	342.04048109054565	
76	320.7143280506134	movie	1		244	74.0	2.5	/experiments/knapen_AOT/AOT_stimuli/rescaled_final/0439_fw.mp4	0.0	342.8571660518646	2.5004069805145264
76	321.4980540275574	pulse	1	t		74.0	2.5	/experiments/knapen_AOT/AOT_stimuli/rescaled_final/0439_fw.mp4	0.0	343.6408920288086	
76	323.09834814071655	pulse	1	t		74.0	2.5	/experiments/knapen_AOT/AOT_stimuli/rescaled_final/0439_fw.mp4	0.0	345.2411861419678	
76	323.21473503112793	fix_post	2		12	74.0	2.5	/experiments/knapen_AOT/AOT_stimuli/rescaled_final/0439_fw.mp4	0.0	345.35757303237915	0.09995508193969727
77	323.3146901130676	fix_pre	0		119	75.0	2.5	/experiments/knapen_AOT/AOT_stimuli/rescaled_final/0457_fw.mp4	0.0	345.45752811431885	0.9918289184570312
77	324.30651903152466	movie	1		245	75.0	2.5	/experiments/knapen_AOT/AOT_stimuli/rescaled_final/0457_fw.mp4	0.0	346.4493570327759	2.5003819465637207
77	324.6985800266266	pulse	1	t		75.0	2.5	/experiments/knapen_AOT/AOT_stimuli/rescaled_final/0457_fw.mp4	0.0	346.8414180278778	
77	326.298623085022	pulse	1	t		75.0	2.5	/experiments/knapen_AOT/AOT_stimuli/rescaled_final/0457_fw.mp4	0.0	348.4414610862732	
77	326.8069009780884	fix_post	2		12	75.0	2.5	/experiments/knapen_AOT/AOT_stimuli/rescaled_final/0457_fw.mp4	0.0	348.9497389793396	0.10008716583251953
78	326.9069881439209	fix_pre	0		120	76.0	2.5	/experiments/knapen_AOT/AOT_stimuli/rescaled_final/0927_fw.mp4	0.0	349.0498261451721	1.0000998973846436
78	327.89888095855713	pulse	0	t		76.0	2.5	/experiments/knapen_AOT/AOT_stimuli/rescaled_final/0927_fw.mp4	0.0	350.04171895980835	
78	327.90708804130554	movie	1		244	76.0	2.5	/experiments/knapen_AOT/AOT_stimuli/rescaled_final/0927_fw.mp4	0.0	350.04992604255676	2.5086350440979004
78	329.4997560977936	pulse	1	t		76.0	2.5	/experiments/knapen_AOT/AOT_stimuli/rescaled_final/0927_fw.mp4	0.0	351.6425940990448	
78	330.41572308540344	fix_post	2		12	76.0	2.5	/experiments/knapen_AOT/AOT_stimuli/rescaled_final/0927_fw.mp4	0.0	352.55856108665466	0.10003209114074707
79	330.5157551765442	fix_pre	0		120	77.0	2.5	blank	1.0	352.6585931777954	1.0002009868621826
79	331.0994710922241	pulse	0	t		77.0	2.5	blank	1.0	353.24230909347534	
79	331.5159561634064	movie	1		300	77.0	2.5	blank	1.0	353.6587941646576	2.5003559589385986
79	332.699579000473	pulse	1	t		77.0	2.5	blank	1.0	354.84241700172424	
79	334.01631212234497	fix_post	2		12	77.0	2.5	blank	1.0	356.1591501235962	0.10000395774841309
80	334.1163160800934	fix_pre	0		120	78.0	2.5	/experiments/knapen_AOT/AOT_stimuli/rescaled_final/0108_rv.mp4	0.0	356.2591540813446	1.0001568794250488
80	334.29994797706604	pulse	0	t		78.0	2.5	/experiments/knapen_AOT/AOT_stimuli/rescaled_final/0108_rv.mp4	0.0	356.44278597831726	
80	335.11647295951843	movie	1		246	78.0	2.5	/experiments/knapen_AOT/AOT_stimuli/rescaled_final/0108_rv.mp4	0.0	357.25931096076965	2.5003662109375
80	335.9001760482788	pulse	1	t		78.0	2.5	/experiments/knapen_AOT/AOT_stimuli/rescaled_final/0108_rv.mp4	0.0	358.04301404953003	
80	337.4928550720215	pulse	1	t		78.0	2.5	/experiments/knapen_AOT/AOT_stimuli/rescaled_final/0108_rv.mp4	0.0	359.6356930732727	
80	337.61683917045593	fix_post	2		12	78.0	2.5	/experiments/knapen_AOT/AOT_stimuli/rescaled_final/0108_rv.mp4	0.0	359.75967717170715	0.1000218391418457
81	337.7168610095978	fix_pre	0		119	79.0	2.5	/experiments/knapen_AOT/AOT_stimuli/rescaled_final/1881_fw.mp4	0.0	359.859699010849	0.991826057434082
81	338.70868706703186	movie	1		244	79.0	2.5	/experiments/knapen_AOT/AOT_stimuli/rescaled_final/1881_fw.mp4	0.0	360.8515250682831	2.5003819465637207
81	339.10082507133484	pulse	1	t		79.0	2.5	/experiments/knapen_AOT/AOT_stimuli/rescaled_final/1881_fw.mp4	0.0	361.24366307258606	
81	340.6933500766754	pulse	1	t		79.0	2.5	/experiments/knapen_AOT/AOT_stimuli/rescaled_final/1881_fw.mp4	0.0	362.83618807792664	
81	341.2090690135956	fix_post	2		12	79.0	2.5	/experiments/knapen_AOT/AOT_stimuli/rescaled_final/1881_fw.mp4	0.0	363.3519070148468	0.09999704360961914
82	341.3090660572052	fix_pre	0		120	80.0	2.5	/experiments/knapen_AOT/AOT_stimuli/rescaled_final/0414_fw.mp4	0.0	363.4519040584564	1.0001311302185059
82	342.29342007637024	pulse	0	t		80.0	2.5	/experiments/knapen_AOT/AOT_stimuli/rescaled_final/0414_fw.mp4	0.0	364.43625807762146	
82	342.3091971874237	movie	1		244	80.0	2.5	/experiments/knapen_AOT/AOT_stimuli/rescaled_final/0414_fw.mp4	0.0	364.4520351886749	2.509100914001465
82	343.90161418914795	pulse	1	t		80.0	2.5	/experiments/knapen_AOT/AOT_stimuli/rescaled_final/0414_fw.mp4	0.0	366.04445219039917	
82	344.81829810142517	fix_post	2		9	80.0	2.5	/experiments/knapen_AOT/AOT_stimuli/rescaled_final/0414_fw.mp4	0.0	366.9611361026764	0.09961891174316406
83	344.91791701316833	fix_pre	0		120	81.0	2.5	/experiments/knapen_AOT/AOT_stimuli/rescaled_final/0681_fw.mp4	0.0	367.06075501441956	1.0001411437988281
83	345.4932930469513	pulse	0	t		81.0	2.5	/experiments/knapen_AOT/AOT_stimuli/rescaled_final/0681_fw.mp4	0.0	367.6361310482025	
83	345.91805815696716	movie	1		243	81.0	2.5	/experiments/knapen_AOT/AOT_stimuli/rescaled_final/0681_fw.mp4	0.0	368.0608961582184	2.5003678798675537
83	347.09426712989807	pulse	1	t		81.0	2.5	/experiments/knapen_AOT/AOT_stimuli/rescaled_final/0681_fw.mp4	0.0	369.2371051311493	
83	348.4184260368347	fix_post	2		12	81.0	2.5	/experiments/knapen_AOT/AOT_stimuli/rescaled_final/0681_fw.mp4	0.0	370.56126403808594	0.10002398490905762
84	348.5184500217438	fix_pre	0		120	82.0	2.5	/experiments/knapen_AOT/AOT_stimuli/rescaled_final/1542_fw.mp4	0.0	370.661288022995	1.0001490116119385
84	348.69357419013977	pulse	0	t		82.0	2.5	/experiments/knapen_AOT/AOT_stimuli/rescaled_final/1542_fw.mp4	0.0	370.836412191391	
84	349.5185990333557	movie	1		244	82.0	2.5	/experiments/knapen_AOT/AOT_stimuli/rescaled_final/1542_fw.mp4	0.0	371.66143703460693	2.5003840923309326
84	350.2938630580902	pulse	1	t		82.0	2.5	/experiments/knapen_AOT/AOT_stimuli/rescaled_final/1542_fw.mp4	0.0	372.43670105934143	
84	351.89419412612915	pulse	1	t		82.0	2.5	/experiments/knapen_AOT/AOT_stimuli/rescaled_final/1542_fw.mp4	0.0	374.03703212738037	
84	352.01898312568665	fix_post	2		12	82.0	2.5	/experiments/knapen_AOT/AOT_stimuli/rescaled_final/1542_fw.mp4	0.0	374.16182112693787	0.10003304481506348
85	352.1190161705017	fix_pre	0		119	83.0	2.5	blank	1.0	374.26185417175293	0.991797924041748
85	353.11081409454346	movie	1		300	83.0	2.5	blank	1.0	375.2536520957947	2.5003609657287598
85	353.49442195892334	pulse	1	t		83.0	2.5	blank	1.0	375.63725996017456	
85	355.0945301055908	pulse	1	t		83.0	2.5	blank	1.0	377.23736810684204	
85	355.6111750602722	fix_post	2		12	83.0	2.5	blank	1.0	377.75401306152344	0.10001111030578613
87	355.711186170578	stim	0		1716					377.8540241718292	14.302243947982788
87	356.6948239803314	pulse	0	t						378.83766198158264	
87	358.29517006874084	pulse	0	t						380.43800806999207	
87	359.89540100097656	pulse	0	t						382.0382390022278	
87	361.4956750869751	pulse	0	t						383.6385130882263	
87	363.0957040786743	pulse	0	t						385.23854207992554	
87	364.69596099853516	pulse	0	t						386.8387989997864	
87	366.29632115364075	pulse	0	t						388.43915915489197	
87	367.89655900001526	pulse	0	t						390.0393970012665	
87	369.4966809749603	pulse	0	t						391.63951897621155	
