trial_nr	onset	event_type	phase	response	nr_frames	movie_index	movie_duration	movie_file	blank	onset_abs	duration
0	0.15820026397705078	stim	0		28					16.25180959701538	0.2333223819732666
0	0.3834867477416992	response	0	space						16.47709608078003	
1	0.3915226459503174	stim	0		4680					16.485131978988647	39.019418716430664
1	39.39616346359253	pulse	0	t						55.48977279663086	
1	39.41094136238098	stim	1		1714					55.50455069541931	14.296921730041504
1	40.98950242996216	pulse	1	t						57.08311176300049	
1	42.58995246887207	pulse	1	t						58.6835618019104	
1	44.189937114715576	pulse	1	t						60.283546447753906	
1	45.790159463882446	pulse	1	t						61.883768796920776	
1	47.390380859375	pulse	1	t						63.48399019241333	
1	48.99069905281067	pulse	1	t						65.084308385849	
1	50.59100031852722	pulse	1	t						66.68460965156555	
1	52.19132447242737	pulse	1	t						68.2849338054657	
2	53.707863092422485	fix_pre	0		11	0.0	2.5	/experiments/knapen_AOT/AOT_stimuli/rescaled_final/0512_rv.mp4	0.0	69.80147242546082	0.10838532447814941
2	53.791478395462036	pulse	0	t		0.0	2.5	/experiments/knapen_AOT/AOT_stimuli/rescaled_final/0512_rv.mp4	0.0	69.88508772850037	
2	53.816248416900635	movie	1		276	0.0	2.5	/experiments/knapen_AOT/AOT_stimuli/rescaled_final/0512_rv.mp4	0.0	69.90985774993896	2.4920003414154053
2	55.3909752368927	pulse	1	t		0.0	2.5	/experiments/knapen_AOT/AOT_stimuli/rescaled_final/0512_rv.mp4	0.0	71.48458456993103	
2	56.30824875831604	fix_post	2		12	0.0	2.5	/experiments/knapen_AOT/AOT_stimuli/rescaled_final/0512_rv.mp4	0.0	72.40185809135437	0.10018634796142578
3	56.408435106277466	fix_pre	0		120	1.0	2.5	/experiments/knapen_AOT/AOT_stimuli/rescaled_final/0628_rv.mp4	0.0	72.5020444393158	1.0084171295166016
3	56.98410606384277	pulse	0	t		1.0	2.5	/experiments/knapen_AOT/AOT_stimuli/rescaled_final/0628_rv.mp4	0.0	73.0777153968811	
3	57.41685223579407	movie	1		282	1.0	2.5	/experiments/knapen_AOT/AOT_stimuli/rescaled_final/0628_rv.mp4	0.0	73.5104615688324	2.4919233322143555
3	58.58419132232666	pulse	1	t		1.0	2.5	/experiments/knapen_AOT/AOT_stimuli/rescaled_final/0628_rv.mp4	0.0	74.67780065536499	
3	59.90877556800842	fix_post	2		12	1.0	2.5	/experiments/knapen_AOT/AOT_stimuli/rescaled_final/0628_rv.mp4	0.0	76.00238490104675	0.10002517700195312
4	60.008800745010376	fix_pre	0		120	2.0	2.5	/experiments/knapen_AOT/AOT_stimuli/rescaled_final/1836_fw.mp4	0.0	76.1024100780487	1.0085110664367676
4	60.1841139793396	pulse	0	t		2.0	2.5	/experiments/knapen_AOT/AOT_stimuli/rescaled_final/1836_fw.mp4	0.0	76.27772331237793	
4	61.017311811447144	movie	1		284	2.0	2.5	/experiments/knapen_AOT/AOT_stimuli/rescaled_final/1836_fw.mp4	0.0	77.11092114448547	2.4920241832733154
4	61.78429412841797	pulse	1	t		2.0	2.5	/experiments/knapen_AOT/AOT_stimuli/rescaled_final/1836_fw.mp4	0.0	77.8779034614563	
4	63.3845431804657	pulse	1	t		2.0	2.5	/experiments/knapen_AOT/AOT_stimuli/rescaled_final/1836_fw.mp4	0.0	79.47815251350403	
4	63.50933599472046	fix_post	2		12	2.0	2.5	/experiments/knapen_AOT/AOT_stimuli/rescaled_final/1836_fw.mp4	0.0	79.60294532775879	0.10001659393310547
5	63.609352588653564	fix_pre	0		120	3.0	2.5	/experiments/knapen_AOT/AOT_stimuli/rescaled_final/1825_fw.mp4	0.0	79.7029619216919	1.008486032485962
5	64.61783862113953	movie	1		273	3.0	2.5	/experiments/knapen_AOT/AOT_stimuli/rescaled_final/1825_fw.mp4	0.0	80.71144795417786	2.492062568664551
5	64.98559188842773	pulse	1	t		3.0	2.5	/experiments/knapen_AOT/AOT_stimuli/rescaled_final/1825_fw.mp4	0.0	81.07920122146606	
5	66.58500552177429	pulse	1	t		3.0	2.5	/experiments/knapen_AOT/AOT_stimuli/rescaled_final/1825_fw.mp4	0.0	82.67861485481262	
5	67.10990118980408	fix_post	2		12	3.0	2.5	/experiments/knapen_AOT/AOT_stimuli/rescaled_final/1825_fw.mp4	0.0	83.20351052284241	0.10000777244567871
6	67.20990896224976	fix_pre	0		118	4.0	2.5	/experiments/knapen_AOT/AOT_stimuli/rescaled_final/1562_rv.mp4	0.0	83.30351829528809	0.9917993545532227
6	68.18525552749634	pulse	0	t		4.0	2.5	/experiments/knapen_AOT/AOT_stimuli/rescaled_final/1562_rv.mp4	0.0	84.27886486053467	
6	68.20170831680298	movie	1		267	4.0	2.5	/experiments/knapen_AOT/AOT_stimuli/rescaled_final/1562_rv.mp4	0.0	84.29531764984131	2.50039005279541
6	69.78559589385986	pulse	1	t		4.0	2.5	/experiments/knapen_AOT/AOT_stimuli/rescaled_final/1562_rv.mp4	0.0	85.8792052268982	
6	70.70209836959839	fix_post	2		12	4.0	2.5	/experiments/knapen_AOT/AOT_stimuli/rescaled_final/1562_rv.mp4	0.0	86.79570770263672	0.1000370979309082
7	70.8021354675293	fix_pre	0		120	5.0	2.5	/experiments/knapen_AOT/AOT_stimuli/rescaled_final/1117_rv.mp4	0.0	86.89574480056763	1.0084400177001953
7	71.38579082489014	pulse	0	t		5.0	2.5	/experiments/knapen_AOT/AOT_stimuli/rescaled_final/1117_rv.mp4	0.0	87.47940015792847	
7	71.81057548522949	movie	1		273	5.0	2.5	/experiments/knapen_AOT/AOT_stimuli/rescaled_final/1117_rv.mp4	0.0	87.90418481826782	2.49202299118042
7	72.98598861694336	pulse	1	t		5.0	2.5	/experiments/knapen_AOT/AOT_stimuli/rescaled_final/1117_rv.mp4	0.0	89.07959794998169	
7	74.30259847640991	fix_post	2		12	5.0	2.5	/experiments/knapen_AOT/AOT_stimuli/rescaled_final/1117_rv.mp4	0.0	90.39620780944824	0.1000223159790039
8	74.40262079238892	fix_pre	0		120	6.0	2.5	blank	1.0	90.49623012542725	1.000148057937622
8	74.58619570732117	pulse	0	t		6.0	2.5	blank	1.0	90.6798050403595	
8	75.40276885032654	movie	1		300	6.0	2.5	blank	1.0	91.49637818336487	2.5003814697265625
8	76.18647933006287	pulse	1	t		6.0	2.5	blank	1.0	92.2800886631012	
8	77.78678703308105	pulse	1	t		6.0	2.5	blank	1.0	93.88039636611938	
8	77.9031503200531	fix_post	2		12	6.0	2.5	blank	1.0	93.99675965309143	0.10001850128173828
9	78.00316882133484	fix_pre	0		120	7.0	2.5	/experiments/knapen_AOT/AOT_stimuli/rescaled_final/1597_rv.mp4	0.0	94.09677815437317	1.0085108280181885
9	79.01167964935303	movie	1		281	7.0	2.5	/experiments/knapen_AOT/AOT_stimuli/rescaled_final/1597_rv.mp4	0.0	95.10528898239136	2.4920127391815186
9	79.38536381721497	pulse	1	t		7.0	2.5	/experiments/knapen_AOT/AOT_stimuli/rescaled_final/1597_rv.mp4	0.0	95.4789731502533	
9	80.98483753204346	pulse	1	t		7.0	2.5	/experiments/knapen_AOT/AOT_stimuli/rescaled_final/1597_rv.mp4	0.0	97.07844686508179	
9	81.50369238853455	fix_post	2		12	7.0	2.5	/experiments/knapen_AOT/AOT_stimuli/rescaled_final/1597_rv.mp4	0.0	97.59730172157288	0.1000216007232666
10	81.60371398925781	fix_pre	0		119	8.0	2.5	/experiments/knapen_AOT/AOT_stimuli/rescaled_final/1556_rv.mp4	0.0	97.69732332229614	1.0001704692840576
10	82.58736228942871	pulse	0	t		8.0	2.5	/experiments/knapen_AOT/AOT_stimuli/rescaled_final/1556_rv.mp4	0.0	98.68097162246704	
10	82.60388445854187	movie	1		280	8.0	2.5	/experiments/knapen_AOT/AOT_stimuli/rescaled_final/1556_rv.mp4	0.0	98.6974937915802	2.5004007816314697
10	84.18702864646912	pulse	1	t		8.0	2.5	/experiments/knapen_AOT/AOT_stimuli/rescaled_final/1556_rv.mp4	0.0	100.28063797950745	
10	85.10428524017334	fix_post	2		12	8.0	2.5	/experiments/knapen_AOT/AOT_stimuli/rescaled_final/1556_rv.mp4	0.0	101.19789457321167	0.0999755859375
11	85.20426082611084	fix_pre	0		120	9.0	2.5	/experiments/knapen_AOT/AOT_stimuli/rescaled_final/2119_rv.mp4	0.0	101.29787015914917	1.0085179805755615
11	85.78786516189575	pulse	0	t		9.0	2.5	/experiments/knapen_AOT/AOT_stimuli/rescaled_final/2119_rv.mp4	0.0	101.88147449493408	
11	86.2127788066864	movie	1		270	9.0	2.5	/experiments/knapen_AOT/AOT_stimuli/rescaled_final/2119_rv.mp4	0.0	102.30638813972473	2.492003917694092
11	87.38651251792908	pulse	1	t		9.0	2.5	/experiments/knapen_AOT/AOT_stimuli/rescaled_final/2119_rv.mp4	0.0	103.48012185096741	
11	88.7047827243805	fix_post	2		12	9.0	2.5	/experiments/knapen_AOT/AOT_stimuli/rescaled_final/2119_rv.mp4	0.0	104.79839205741882	0.10019278526306152
12	88.80497550964355	fix_pre	0		120	10.0	2.5	/experiments/knapen_AOT/AOT_stimuli/rescaled_final/1222_fw.mp4	0.0	104.89858484268188	1.0083332061767578
12	88.98861050605774	pulse	0	t		10.0	2.5	/experiments/knapen_AOT/AOT_stimuli/rescaled_final/1222_fw.mp4	0.0	105.08221983909607	
12	89.81330871582031	movie	1		285	10.0	2.5	/experiments/knapen_AOT/AOT_stimuli/rescaled_final/1222_fw.mp4	0.0	105.90691804885864	2.4923081398010254
12	90.58651947975159	pulse	1	t		10.0	2.5	/experiments/knapen_AOT/AOT_stimuli/rescaled_final/1222_fw.mp4	0.0	106.68012881278992	
12	92.18681168556213	pulse	1	t		10.0	2.5	/experiments/knapen_AOT/AOT_stimuli/rescaled_final/1222_fw.mp4	0.0	108.28042101860046	
12	92.30561685562134	fix_post	2		12	10.0	2.5	/experiments/knapen_AOT/AOT_stimuli/rescaled_final/1222_fw.mp4	0.0	108.39922618865967	0.09970641136169434
13	92.40532326698303	fix_pre	0		120	11.0	2.5	/experiments/knapen_AOT/AOT_stimuli/rescaled_final/1722_rv.mp4	0.0	108.49893260002136	1.0085070133209229
13	93.41383028030396	movie	1		287	11.0	2.5	/experiments/knapen_AOT/AOT_stimuli/rescaled_final/1722_rv.mp4	0.0	109.50743961334229	2.4920365810394287
13	93.7892255783081	pulse	1	t		11.0	2.5	/experiments/knapen_AOT/AOT_stimuli/rescaled_final/1722_rv.mp4	0.0	109.88283491134644	
13	95.3871078491211	pulse	1	t		11.0	2.5	/experiments/knapen_AOT/AOT_stimuli/rescaled_final/1722_rv.mp4	0.0	111.48071718215942	
13	95.90586686134338	fix_post	2		12	11.0	2.5	/experiments/knapen_AOT/AOT_stimuli/rescaled_final/1722_rv.mp4	0.0	111.99947619438171	0.10002017021179199
14	96.00588703155518	fix_pre	0		119	12.0	2.5	blank	1.0	112.0994963645935	0.9917938709259033
14	96.98957824707031	pulse	0	t		12.0	2.5	blank	1.0	113.08318758010864	
14	96.99768090248108	movie	1		301	12.0	2.5	blank	1.0	113.09129023551941	2.508739709854126
14	98.58980894088745	pulse	1	t		12.0	2.5	blank	1.0	114.68341827392578	
14	99.5064206123352	fix_post	2		12	12.0	2.5	blank	1.0	115.60002994537354	0.10003805160522461
15	99.60645866394043	fix_pre	0		120	13.0	2.5	/experiments/knapen_AOT/AOT_stimuli/rescaled_final/1202_rv.mp4	0.0	115.70006799697876	1.0084474086761475
15	100.19031834602356	pulse	0	t		13.0	2.5	/experiments/knapen_AOT/AOT_stimuli/rescaled_final/1202_rv.mp4	0.0	116.28392767906189	
15	100.61490607261658	movie	1		272	13.0	2.5	/experiments/knapen_AOT/AOT_stimuli/rescaled_final/1202_rv.mp4	0.0	116.70851540565491	2.4920566082000732
15	101.78886008262634	pulse	1	t		13.0	2.5	/experiments/knapen_AOT/AOT_stimuli/rescaled_final/1202_rv.mp4	0.0	117.88246941566467	
15	103.10696268081665	fix_post	2		12	13.0	2.5	/experiments/knapen_AOT/AOT_stimuli/rescaled_final/1202_rv.mp4	0.0	119.20057201385498	0.09998869895935059
16	103.206951379776	fix_pre	0		120	14.0	2.5	/experiments/knapen_AOT/AOT_stimuli/rescaled_final/1038_fw.mp4	0.0	119.30056071281433	1.008519172668457
16	103.3905873298645	pulse	0	t		14.0	2.5	/experiments/knapen_AOT/AOT_stimuli/rescaled_final/1038_fw.mp4	0.0	119.48419666290283	
16	104.21547055244446	movie	1		270	14.0	2.5	/experiments/knapen_AOT/AOT_stimuli/rescaled_final/1038_fw.mp4	0.0	120.30907988548279	2.4920294284820557
16	104.99125862121582	pulse	1	t		14.0	2.5	/experiments/knapen_AOT/AOT_stimuli/rescaled_final/1038_fw.mp4	0.0	121.08486795425415	
16	106.58906769752502	pulse	1	t		14.0	2.5	/experiments/knapen_AOT/AOT_stimuli/rescaled_final/1038_fw.mp4	0.0	122.68267703056335	
16	106.70749998092651	fix_post	2		12	14.0	2.5	/experiments/knapen_AOT/AOT_stimuli/rescaled_final/1038_fw.mp4	0.0	122.80110931396484	0.1000065803527832
17	106.8075065612793	fix_pre	0		120	15.0	2.5	/experiments/knapen_AOT/AOT_stimuli/rescaled_final/1144_rv.mp4	0.0	122.90111589431763	1.0084867477416992
17	107.815993309021	movie	1		265	15.0	2.5	/experiments/knapen_AOT/AOT_stimuli/rescaled_final/1144_rv.mp4	0.0	123.90960264205933	2.492021083831787
17	108.19147396087646	pulse	1	t		15.0	2.5	/experiments/knapen_AOT/AOT_stimuli/rescaled_final/1144_rv.mp4	0.0	124.2850832939148	
17	109.78917908668518	pulse	1	t		15.0	2.5	/experiments/knapen_AOT/AOT_stimuli/rescaled_final/1144_rv.mp4	0.0	125.88278841972351	
17	110.30801439285278	fix_post	2		12	15.0	2.5	/experiments/knapen_AOT/AOT_stimuli/rescaled_final/1144_rv.mp4	0.0	126.40162372589111	0.10002923011779785
18	110.40804362297058	fix_pre	0		119	16.0	2.5	/experiments/knapen_AOT/AOT_stimuli/rescaled_final/1008_rv.mp4	0.0	126.50165295600891	1.000253677368164
18	111.39171481132507	pulse	0	t		16.0	2.5	/experiments/knapen_AOT/AOT_stimuli/rescaled_final/1008_rv.mp4	0.0	127.4853241443634	
18	111.40829730033875	movie	1		280	16.0	2.5	/experiments/knapen_AOT/AOT_stimuli/rescaled_final/1008_rv.mp4	0.0	127.50190663337708	2.5002634525299072
18	112.9901511669159	pulse	1	t		16.0	2.5	/experiments/knapen_AOT/AOT_stimuli/rescaled_final/1008_rv.mp4	0.0	129.08376049995422	
18	113.90856075286865	fix_post	2		12	16.0	2.5	/experiments/knapen_AOT/AOT_stimuli/rescaled_final/1008_rv.mp4	0.0	130.00217008590698	0.10001730918884277
19	114.0085780620575	fix_pre	0		120	17.0	2.5	/experiments/knapen_AOT/AOT_stimuli/rescaled_final/2045_fw.mp4	0.0	130.10218739509583	1.0085430145263672
19	114.59254932403564	pulse	0	t		17.0	2.5	/experiments/knapen_AOT/AOT_stimuli/rescaled_final/2045_fw.mp4	0.0	130.68615865707397	
19	115.01712107658386	movie	1		283	17.0	2.5	/experiments/knapen_AOT/AOT_stimuli/rescaled_final/2045_fw.mp4	0.0	131.1107304096222	2.4920122623443604
19	116.18474745750427	pulse	1	t		17.0	2.5	/experiments/knapen_AOT/AOT_stimuli/rescaled_final/2045_fw.mp4	0.0	132.2783567905426	
19	117.50913333892822	fix_post	2		12	17.0	2.5	/experiments/knapen_AOT/AOT_stimuli/rescaled_final/2045_fw.mp4	0.0	133.60274267196655	0.10000729560852051
20	117.60914063453674	fix_pre	0		120	18.0	2.5	/experiments/knapen_AOT/AOT_stimuli/rescaled_final/0327_fw.mp4	0.0	133.70274996757507	1.0084900856018066
20	117.7847352027893	pulse	0	t		18.0	2.5	/experiments/knapen_AOT/AOT_stimuli/rescaled_final/0327_fw.mp4	0.0	133.87834453582764	
20	118.61763072013855	movie	1		279	18.0	2.5	/experiments/knapen_AOT/AOT_stimuli/rescaled_final/0327_fw.mp4	0.0	134.71124005317688	2.4920008182525635
20	119.38460564613342	pulse	1	t		18.0	2.5	/experiments/knapen_AOT/AOT_stimuli/rescaled_final/0327_fw.mp4	0.0	135.47821497917175	
20	120.98482346534729	pulse	1	t		18.0	2.5	/experiments/knapen_AOT/AOT_stimuli/rescaled_final/0327_fw.mp4	0.0	137.07843279838562	
20	121.10963153839111	fix_post	2		12	18.0	2.5	/experiments/knapen_AOT/AOT_stimuli/rescaled_final/0327_fw.mp4	0.0	137.20324087142944	0.10014581680297852
21	121.20977735519409	fix_pre	0		120	19.0	2.5	/experiments/knapen_AOT/AOT_stimuli/rescaled_final/1790_rv.mp4	0.0	137.30338668823242	1.008373737335205
21	122.2181510925293	movie	1		273	19.0	2.5	/experiments/knapen_AOT/AOT_stimuli/rescaled_final/1790_rv.mp4	0.0	138.31176042556763	2.492060899734497
21	122.58514308929443	pulse	1	t		19.0	2.5	/experiments/knapen_AOT/AOT_stimuli/rescaled_final/1790_rv.mp4	0.0	138.67875242233276	
21	124.18531227111816	pulse	1	t		19.0	2.5	/experiments/knapen_AOT/AOT_stimuli/rescaled_final/1790_rv.mp4	0.0	140.2789216041565	
21	124.7102119922638	fix_post	2		12	19.0	2.5	/experiments/knapen_AOT/AOT_stimuli/rescaled_final/1790_rv.mp4	0.0	140.80382132530212	0.09998917579650879
22	124.8102011680603	fix_pre	0		118	20.0	2.5	blank	1.0	140.90381050109863	0.9834725856781006
22	125.78560090065002	pulse	0	t		20.0	2.5	blank	1.0	141.87921023368835	
22	125.7936737537384	movie	1		301	20.0	2.5	blank	1.0	141.88728308677673	2.508734941482544
22	127.38582396507263	pulse	1	t		20.0	2.5	blank	1.0	143.47943329811096	
22	128.30240869522095	fix_post	2		12	20.0	2.5	blank	1.0	144.39601802825928	0.10001730918884277
23	128.4024260044098	fix_pre	0		120	21.0	2.5	/experiments/knapen_AOT/AOT_stimuli/rescaled_final/0292_fw.mp4	0.0	144.49603533744812	1.0084691047668457
23	128.98613715171814	pulse	0	t		21.0	2.5	/experiments/knapen_AOT/AOT_stimuli/rescaled_final/0292_fw.mp4	0.0	145.07974648475647	
23	129.41089510917664	movie	1		274	21.0	2.5	/experiments/knapen_AOT/AOT_stimuli/rescaled_final/0292_fw.mp4	0.0	145.50450444221497	2.492035150527954
23	130.58606505393982	pulse	1	t		21.0	2.5	/experiments/knapen_AOT/AOT_stimuli/rescaled_final/0292_fw.mp4	0.0	146.67967438697815	
23	131.9029302597046	fix_post	2		12	21.0	2.5	/experiments/knapen_AOT/AOT_stimuli/rescaled_final/0292_fw.mp4	0.0	147.99653959274292	0.10008358955383301
24	132.00301384925842	fix_pre	0		120	22.0	2.5	/experiments/knapen_AOT/AOT_stimuli/rescaled_final/0847_fw.mp4	0.0	148.09662318229675	1.0085043907165527
24	132.18653750419617	pulse	0	t		22.0	2.5	/experiments/knapen_AOT/AOT_stimuli/rescaled_final/0847_fw.mp4	0.0	148.2801468372345	
24	133.01151823997498	movie	1		268	22.0	2.5	/experiments/knapen_AOT/AOT_stimuli/rescaled_final/0847_fw.mp4	0.0	149.1051275730133	2.4919676780700684
24	133.7848060131073	pulse	1	t		22.0	2.5	/experiments/knapen_AOT/AOT_stimuli/rescaled_final/0847_fw.mp4	0.0	149.87841534614563	
24	135.38721776008606	pulse	1	t		22.0	2.5	/experiments/knapen_AOT/AOT_stimuli/rescaled_final/0847_fw.mp4	0.0	151.4808270931244	
24	135.50348591804504	fix_post	2		12	22.0	2.5	/experiments/knapen_AOT/AOT_stimuli/rescaled_final/0847_fw.mp4	0.0	151.59709525108337	0.10007357597351074
25	135.60355949401855	fix_pre	0		120	23.0	2.5	/experiments/knapen_AOT/AOT_stimuli/rescaled_final/1144_fw.mp4	0.0	151.69716882705688	1.0084352493286133
25	136.61199474334717	movie	1		272	23.0	2.5	/experiments/knapen_AOT/AOT_stimuli/rescaled_final/1144_fw.mp4	0.0	152.7056040763855	2.492029905319214
25	136.9854245185852	pulse	1	t		23.0	2.5	/experiments/knapen_AOT/AOT_stimuli/rescaled_final/1144_fw.mp4	0.0	153.07903385162354	
25	138.58534264564514	pulse	1	t		23.0	2.5	/experiments/knapen_AOT/AOT_stimuli/rescaled_final/1144_fw.mp4	0.0	154.67895197868347	
25	139.10402464866638	fix_post	2		12	23.0	2.5	/experiments/knapen_AOT/AOT_stimuli/rescaled_final/1144_fw.mp4	0.0	155.1976339817047	0.10001730918884277
26	139.20404195785522	fix_pre	0		119	24.0	2.5	/experiments/knapen_AOT/AOT_stimuli/rescaled_final/1588_fw.mp4	0.0	155.29765129089355	1.0001378059387207
26	140.18769073486328	pulse	0	t		24.0	2.5	/experiments/knapen_AOT/AOT_stimuli/rescaled_final/1588_fw.mp4	0.0	156.2813000679016	
26	140.20417976379395	movie	1		272	24.0	2.5	/experiments/knapen_AOT/AOT_stimuli/rescaled_final/1588_fw.mp4	0.0	156.29778909683228	2.5003859996795654
26	141.78603553771973	pulse	1	t		24.0	2.5	/experiments/knapen_AOT/AOT_stimuli/rescaled_final/1588_fw.mp4	0.0	157.87964487075806	
26	142.7045657634735	fix_post	2		12	24.0	2.5	/experiments/knapen_AOT/AOT_stimuli/rescaled_final/1588_fw.mp4	0.0	158.79817509651184	0.10001134872436523
27	142.80457711219788	fix_pre	0		120	25.0	2.5	/experiments/knapen_AOT/AOT_stimuli/rescaled_final/0836_fw.mp4	0.0	158.8981864452362	1.0084872245788574
27	143.38818764686584	pulse	0	t		25.0	2.5	/experiments/knapen_AOT/AOT_stimuli/rescaled_final/0836_fw.mp4	0.0	159.48179697990417	
27	143.81306433677673	movie	1		286	25.0	2.5	/experiments/knapen_AOT/AOT_stimuli/rescaled_final/0836_fw.mp4	0.0	159.90667366981506	2.4921538829803467
27	144.98659825325012	pulse	1	t		25.0	2.5	/experiments/knapen_AOT/AOT_stimuli/rescaled_final/0836_fw.mp4	0.0	161.08020758628845	
27	146.30521821975708	fix_post	2		12	25.0	2.5	/experiments/knapen_AOT/AOT_stimuli/rescaled_final/0836_fw.mp4	0.0	162.3988275527954	0.09988880157470703
28	146.4051070213318	fix_pre	0		120	26.0	2.5	/experiments/knapen_AOT/AOT_stimuli/rescaled_final/0829_fw.mp4	0.0	162.49871635437012	1.008516550064087
28	146.58878469467163	pulse	0	t		26.0	2.5	/experiments/knapen_AOT/AOT_stimuli/rescaled_final/0829_fw.mp4	0.0	162.68239402770996	
28	147.41362357139587	movie	1		271	26.0	2.5	/experiments/knapen_AOT/AOT_stimuli/rescaled_final/0829_fw.mp4	0.0	163.5072329044342	2.4920077323913574
28	148.18807244300842	pulse	1	t		26.0	2.5	/experiments/knapen_AOT/AOT_stimuli/rescaled_final/0829_fw.mp4	0.0	164.28168177604675	
28	149.78699946403503	pulse	1	t		26.0	2.5	/experiments/knapen_AOT/AOT_stimuli/rescaled_final/0829_fw.mp4	0.0	165.88060879707336	
28	149.90563130378723	fix_post	2		12	26.0	2.5	/experiments/knapen_AOT/AOT_stimuli/rescaled_final/0829_fw.mp4	0.0	165.99924063682556	0.1000218391418457
29	150.00565314292908	fix_pre	0		120	27.0	2.5	blank	1.0	166.0992624759674	1.0001261234283447
29	151.00577926635742	movie	1		300	27.0	2.5	blank	1.0	167.09938859939575	2.5004971027374268
29	151.3894476890564	pulse	1	t		27.0	2.5	blank	1.0	167.48305702209473	
29	152.98969054222107	pulse	1	t		27.0	2.5	blank	1.0	169.0832998752594	
29	153.50627636909485	fix_post	2		12	27.0	2.5	blank	1.0	169.59988570213318	0.09993982315063477
30	153.60621619224548	fix_pre	0		119	28.0	2.5	/experiments/knapen_AOT/AOT_stimuli/rescaled_final/2106_rv.mp4	0.0	169.6998255252838	1.0001065731048584
30	154.58992266654968	pulse	0	t		28.0	2.5	/experiments/knapen_AOT/AOT_stimuli/rescaled_final/2106_rv.mp4	0.0	170.683531999588	
30	154.60632276535034	movie	1		273	28.0	2.5	/experiments/knapen_AOT/AOT_stimuli/rescaled_final/2106_rv.mp4	0.0	170.69993209838867	2.500392436981201
30	156.18837904930115	pulse	1	t		28.0	2.5	/experiments/knapen_AOT/AOT_stimuli/rescaled_final/2106_rv.mp4	0.0	172.28198838233948	
30	157.10671520233154	fix_post	2		12	28.0	2.5	/experiments/knapen_AOT/AOT_stimuli/rescaled_final/2106_rv.mp4	0.0	173.20032453536987	0.10001778602600098
31	157.20673298835754	fix_pre	0		120	29.0	2.5	/experiments/knapen_AOT/AOT_stimuli/rescaled_final/1362_fw.mp4	0.0	173.30034232139587	1.008490800857544
31	157.79107880592346	pulse	0	t		29.0	2.5	/experiments/knapen_AOT/AOT_stimuli/rescaled_final/1362_fw.mp4	0.0	173.8846881389618	
31	158.2152237892151	movie	1		276	29.0	2.5	/experiments/knapen_AOT/AOT_stimuli/rescaled_final/1362_fw.mp4	0.0	174.30883312225342	2.4920341968536377
31	159.38875079154968	pulse	1	t		29.0	2.5	/experiments/knapen_AOT/AOT_stimuli/rescaled_final/1362_fw.mp4	0.0	175.482360124588	
31	160.70725798606873	fix_post	2		12	29.0	2.5	/experiments/knapen_AOT/AOT_stimuli/rescaled_final/1362_fw.mp4	0.0	176.80086731910706	0.10002398490905762
32	160.80728197097778	fix_pre	0		120	30.0	2.5	/experiments/knapen_AOT/AOT_stimuli/rescaled_final/0313_rv.mp4	0.0	176.9008913040161	1.008509635925293
32	160.9909782409668	pulse	0	t		30.0	2.5	/experiments/knapen_AOT/AOT_stimuli/rescaled_final/0313_rv.mp4	0.0	177.08458757400513	
32	161.81579160690308	movie	1		287	30.0	2.5	/experiments/knapen_AOT/AOT_stimuli/rescaled_final/0313_rv.mp4	0.0	177.9094009399414	2.492002010345459
32	162.58876657485962	pulse	1	t		30.0	2.5	/experiments/knapen_AOT/AOT_stimuli/rescaled_final/0313_rv.mp4	0.0	178.68237590789795	
32	164.18925166130066	pulse	1	t		30.0	2.5	/experiments/knapen_AOT/AOT_stimuli/rescaled_final/0313_rv.mp4	0.0	180.282860994339	
32	164.30779361724854	fix_post	2		12	30.0	2.5	/experiments/knapen_AOT/AOT_stimuli/rescaled_final/0313_rv.mp4	0.0	180.40140295028687	0.10005998611450195
33	164.40785360336304	fix_pre	0		120	31.0	2.5	/experiments/knapen_AOT/AOT_stimuli/rescaled_final/0269_fw.mp4	0.0	180.50146293640137	1.0084667205810547
33	165.4163203239441	movie	1		280	31.0	2.5	/experiments/knapen_AOT/AOT_stimuli/rescaled_final/0269_fw.mp4	0.0	181.50992965698242	2.4920122623443604
33	165.78974556922913	pulse	1	t		31.0	2.5	/experiments/knapen_AOT/AOT_stimuli/rescaled_final/0269_fw.mp4	0.0	181.88335490226746	
33	167.38975167274475	pulse	1	t		31.0	2.5	/experiments/knapen_AOT/AOT_stimuli/rescaled_final/0269_fw.mp4	0.0	183.48336100578308	
33	167.90833258628845	fix_post	2		12	31.0	2.5	/experiments/knapen_AOT/AOT_stimuli/rescaled_final/0269_fw.mp4	0.0	184.00194191932678	0.1000680923461914
34	168.00840067863464	fix_pre	0		119	32.0	2.5	/experiments/knapen_AOT/AOT_stimuli/rescaled_final/0536_fw.mp4	0.0	184.10201001167297	1.000138521194458
34	168.99228882789612	pulse	0	t		32.0	2.5	/experiments/knapen_AOT/AOT_stimuli/rescaled_final/0536_fw.mp4	0.0	185.08589816093445	
34	169.0085391998291	movie	1		289	32.0	2.5	/experiments/knapen_AOT/AOT_stimuli/rescaled_final/0536_fw.mp4	0.0	185.10214853286743	2.5003480911254883
34	170.59106254577637	pulse	1	t		32.0	2.5	/experiments/knapen_AOT/AOT_stimuli/rescaled_final/0536_fw.mp4	0.0	186.6846718788147	
34	171.5088872909546	fix_post	2		12	32.0	2.5	/experiments/knapen_AOT/AOT_stimuli/rescaled_final/0536_fw.mp4	0.0	187.60249662399292	0.10001420974731445
35	171.6089015007019	fix_pre	0		120	33.0	2.5	/experiments/knapen_AOT/AOT_stimuli/rescaled_final/0658_fw.mp4	0.0	187.70251083374023	1.0084922313690186
35	172.19261121749878	pulse	0	t		33.0	2.5	/experiments/knapen_AOT/AOT_stimuli/rescaled_final/0658_fw.mp4	0.0	188.2862205505371	
35	172.61739373207092	movie	1		274	33.0	2.5	/experiments/knapen_AOT/AOT_stimuli/rescaled_final/0658_fw.mp4	0.0	188.71100306510925	2.4920334815979004
35	173.79082918167114	pulse	1	t		33.0	2.5	/experiments/knapen_AOT/AOT_stimuli/rescaled_final/0658_fw.mp4	0.0	189.88443851470947	
35	175.10942721366882	fix_post	2		12	33.0	2.5	/experiments/knapen_AOT/AOT_stimuli/rescaled_final/0658_fw.mp4	0.0	191.20303654670715	0.10003185272216797
36	175.209459066391	fix_pre	0		120	34.0	2.5	/experiments/knapen_AOT/AOT_stimuli/rescaled_final/1256_rv.mp4	0.0	191.30306839942932	1.0084879398345947
36	175.38518142700195	pulse	0	t		34.0	2.5	/experiments/knapen_AOT/AOT_stimuli/rescaled_final/1256_rv.mp4	0.0	191.47879076004028	
36	176.2179470062256	movie	1		284	34.0	2.5	/experiments/knapen_AOT/AOT_stimuli/rescaled_final/1256_rv.mp4	0.0	192.31155633926392	2.49208664894104
36	176.98492217063904	pulse	1	t		34.0	2.5	/experiments/knapen_AOT/AOT_stimuli/rescaled_final/1256_rv.mp4	0.0	193.07853150367737	
36	178.5851695537567	pulse	1	t		34.0	2.5	/experiments/knapen_AOT/AOT_stimuli/rescaled_final/1256_rv.mp4	0.0	194.67877888679504	
36	178.71003365516663	fix_post	2		12	34.0	2.5	/experiments/knapen_AOT/AOT_stimuli/rescaled_final/1256_rv.mp4	0.0	194.80364298820496	0.09994864463806152
37	178.8099822998047	fix_pre	0		120	35.0	2.5	blank	1.0	194.90359163284302	1.0001435279846191
37	179.8101258277893	movie	1		300	35.0	2.5	blank	1.0	195.90373516082764	2.500377893447876
37	180.18562126159668	pulse	1	t		35.0	2.5	blank	1.0	196.279230594635	
37	181.78561520576477	pulse	1	t		35.0	2.5	blank	1.0	197.8792245388031	
37	182.31050372123718	fix_post	2		12	35.0	2.5	blank	1.0	198.4041130542755	0.1000363826751709
38	182.41054010391235	fix_pre	0		118	36.0	2.5	/experiments/knapen_AOT/AOT_stimuli/rescaled_final/1925_fw.mp4	0.0	198.50414943695068	0.9917957782745361
38	183.38591313362122	pulse	0	t		36.0	2.5	/experiments/knapen_AOT/AOT_stimuli/rescaled_final/1925_fw.mp4	0.0	199.47952246665955	
38	183.4023358821869	movie	1		285	36.0	2.5	/experiments/knapen_AOT/AOT_stimuli/rescaled_final/1925_fw.mp4	0.0	199.49594521522522	2.500378131866455
38	184.98612308502197	pulse	1	t		36.0	2.5	/experiments/knapen_AOT/AOT_stimuli/rescaled_final/1925_fw.mp4	0.0	201.0797324180603	
38	185.90271401405334	fix_post	2		12	36.0	2.5	/experiments/knapen_AOT/AOT_stimuli/rescaled_final/1925_fw.mp4	0.0	201.99632334709167	0.100189208984375
39	186.00290322303772	fix_pre	0		120	37.0	2.5	/experiments/knapen_AOT/AOT_stimuli/rescaled_final/1468_rv.mp4	0.0	202.09651255607605	1.0083363056182861
39	186.5863814353943	pulse	0	t		37.0	2.5	/experiments/knapen_AOT/AOT_stimuli/rescaled_final/1468_rv.mp4	0.0	202.67999076843262	
39	187.011239528656	movie	1		292	37.0	2.5	/experiments/knapen_AOT/AOT_stimuli/rescaled_final/1468_rv.mp4	0.0	203.10484886169434	2.492009401321411
39	188.18665099143982	pulse	1	t		37.0	2.5	/experiments/knapen_AOT/AOT_stimuli/rescaled_final/1468_rv.mp4	0.0	204.28026032447815	
39	189.50324892997742	fix_post	2		12	37.0	2.5	/experiments/knapen_AOT/AOT_stimuli/rescaled_final/1468_rv.mp4	0.0	205.59685826301575	0.10002994537353516
40	189.60327887535095	fix_pre	0		120	38.0	2.5	/experiments/knapen_AOT/AOT_stimuli/rescaled_final/2121_rv.mp4	0.0	205.69688820838928	1.0084924697875977
40	189.78684520721436	pulse	0	t		38.0	2.5	/experiments/knapen_AOT/AOT_stimuli/rescaled_final/2121_rv.mp4	0.0	205.88045454025269	
40	190.61177134513855	movie	1		289	38.0	2.5	/experiments/knapen_AOT/AOT_stimuli/rescaled_final/2121_rv.mp4	0.0	206.70538067817688	2.4920294284820557
40	191.38516330718994	pulse	1	t		38.0	2.5	/experiments/knapen_AOT/AOT_stimuli/rescaled_final/2121_rv.mp4	0.0	207.47877264022827	
40	192.9855272769928	pulse	1	t		38.0	2.5	/experiments/knapen_AOT/AOT_stimuli/rescaled_final/2121_rv.mp4	0.0	209.07913661003113	
40	193.1038007736206	fix_post	2		12	38.0	2.5	/experiments/knapen_AOT/AOT_stimuli/rescaled_final/2121_rv.mp4	0.0	209.19741010665894	0.10003876686096191
41	193.20383954048157	fix_pre	0		120	39.0	2.5	/experiments/knapen_AOT/AOT_stimuli/rescaled_final/0327_fw.mp4	0.0	209.2974488735199	1.0086264610290527
41	194.21246600151062	movie	1		278	39.0	2.5	/experiments/knapen_AOT/AOT_stimuli/rescaled_final/0327_fw.mp4	0.0	210.30607533454895	2.491877317428589
41	194.58639454841614	pulse	1	t		39.0	2.5	/experiments/knapen_AOT/AOT_stimuli/rescaled_final/0327_fw.mp4	0.0	210.68000388145447	
41	196.18608117103577	pulse	1	t		39.0	2.5	/experiments/knapen_AOT/AOT_stimuli/rescaled_final/0327_fw.mp4	0.0	212.2796905040741	
41	196.7043433189392	fix_post	2		12	39.0	2.5	/experiments/knapen_AOT/AOT_stimuli/rescaled_final/0327_fw.mp4	0.0	212.79795265197754	0.10002636909484863
42	196.80436968803406	fix_pre	0		119	40.0	2.5	/experiments/knapen_AOT/AOT_stimuli/rescaled_final/0339_rv.mp4	0.0	212.8979790210724	1.0085225105285645
42	197.78803968429565	pulse	0	t		40.0	2.5	/experiments/knapen_AOT/AOT_stimuli/rescaled_final/0339_rv.mp4	0.0	213.88164901733398	
42	197.81289219856262	movie	1		286	40.0	2.5	/experiments/knapen_AOT/AOT_stimuli/rescaled_final/0339_rv.mp4	0.0	213.90650153160095	2.4919674396514893
42	199.3867063522339	pulse	1	t		40.0	2.5	/experiments/knapen_AOT/AOT_stimuli/rescaled_final/0339_rv.mp4	0.0	215.48031568527222	
42	200.3048596382141	fix_post	2		12	40.0	2.5	/experiments/knapen_AOT/AOT_stimuli/rescaled_final/0339_rv.mp4	0.0	216.39846897125244	0.10003352165222168
43	200.40489315986633	fix_pre	0		120	41.0	2.5	blank	1.0	216.49850249290466	1.0001921653747559
43	200.98852014541626	pulse	0	t		41.0	2.5	blank	1.0	217.0821294784546	
43	201.4050853252411	movie	1		300	41.0	2.5	blank	1.0	217.49869465827942	2.5003650188446045
43	202.58879804611206	pulse	1	t		41.0	2.5	blank	1.0	218.6824073791504	
43	203.9054503440857	fix_post	2		12	41.0	2.5	blank	1.0	219.99905967712402	0.10005927085876465
44	204.00550961494446	fix_pre	0		120	42.0	2.5	/experiments/knapen_AOT/AOT_stimuli/rescaled_final/1386_rv.mp4	0.0	220.0991189479828	1.0084710121154785
44	204.1889612674713	pulse	0	t		42.0	2.5	/experiments/knapen_AOT/AOT_stimuli/rescaled_final/1386_rv.mp4	0.0	220.28257060050964	
44	205.01398062705994	movie	1		278	42.0	2.5	/experiments/knapen_AOT/AOT_stimuli/rescaled_final/1386_rv.mp4	0.0	221.10758996009827	2.4919726848602295
44	205.78701424598694	pulse	1	t		42.0	2.5	/experiments/knapen_AOT/AOT_stimuli/rescaled_final/1386_rv.mp4	0.0	221.88062357902527	
44	207.3872890472412	pulse	1	t		42.0	2.5	/experiments/knapen_AOT/AOT_stimuli/rescaled_final/1386_rv.mp4	0.0	223.48089838027954	
44	207.50595331192017	fix_post	2		12	42.0	2.5	/experiments/knapen_AOT/AOT_stimuli/rescaled_final/1386_rv.mp4	0.0	223.5995626449585	0.10001659393310547
45	207.60596990585327	fix_pre	0		120	43.0	2.5	/experiments/knapen_AOT/AOT_stimuli/rescaled_final/1597_fw.mp4	0.0	223.6995792388916	1.0085945129394531
45	208.61456441879272	movie	1		278	43.0	2.5	/experiments/knapen_AOT/AOT_stimuli/rescaled_final/1597_fw.mp4	0.0	224.70817375183105	2.4920108318328857
45	208.98877263069153	pulse	1	t		43.0	2.5	/experiments/knapen_AOT/AOT_stimuli/rescaled_final/1597_fw.mp4	0.0	225.08238196372986	
45	210.58755254745483	pulse	1	t		43.0	2.5	/experiments/knapen_AOT/AOT_stimuli/rescaled_final/1597_fw.mp4	0.0	226.68116188049316	
45	211.1065752506256	fix_post	2		12	43.0	2.5	/experiments/knapen_AOT/AOT_stimuli/rescaled_final/1597_fw.mp4	0.0	227.20018458366394	0.09995508193969727
46	211.2065303325653	fix_pre	0		119	44.0	2.5	/experiments/knapen_AOT/AOT_stimuli/rescaled_final/1870_rv.mp4	0.0	227.30013966560364	1.0001616477966309
46	212.19030570983887	pulse	0	t		44.0	2.5	/experiments/knapen_AOT/AOT_stimuli/rescaled_final/1870_rv.mp4	0.0	228.2839150428772	
46	212.20669198036194	movie	1		275	44.0	2.5	/experiments/knapen_AOT/AOT_stimuli/rescaled_final/1870_rv.mp4	0.0	228.30030131340027	2.500434160232544
46	213.78867721557617	pulse	1	t		44.0	2.5	/experiments/knapen_AOT/AOT_stimuli/rescaled_final/1870_rv.mp4	0.0	229.8822865486145	
46	214.70712614059448	fix_post	2		12	44.0	2.5	/experiments/knapen_AOT/AOT_stimuli/rescaled_final/1870_rv.mp4	0.0	230.8007354736328	0.09994840621948242
47	214.80707454681396	fix_pre	0		120	45.0	2.5	/experiments/knapen_AOT/AOT_stimuli/rescaled_final/1870_fw.mp4	0.0	230.9006838798523	1.0084898471832275
47	215.39064025878906	pulse	0	t		45.0	2.5	/experiments/knapen_AOT/AOT_stimuli/rescaled_final/1870_fw.mp4	0.0	231.4842495918274	
47	215.8155643939972	movie	1		283	45.0	2.5	/experiments/knapen_AOT/AOT_stimuli/rescaled_final/1870_fw.mp4	0.0	231.90917372703552	2.492018699645996
47	216.98909735679626	pulse	1	t		45.0	2.5	/experiments/knapen_AOT/AOT_stimuli/rescaled_final/1870_fw.mp4	0.0	233.0827066898346	
47	218.3075830936432	fix_post	2		12	45.0	2.5	/experiments/knapen_AOT/AOT_stimuli/rescaled_final/1870_fw.mp4	0.0	234.40119242668152	0.10001015663146973
48	218.40759325027466	fix_pre	0		111	46.0	2.5	/experiments/knapen_AOT/AOT_stimuli/rescaled_final/1117_fw.mp4	0.0	234.501202583313	1.058574914932251
48	218.59134459495544	pulse	0	t		46.0	2.5	/experiments/knapen_AOT/AOT_stimuli/rescaled_final/1117_fw.mp4	0.0	234.68495392799377	
48	219.4661681652069	movie	1		278	46.0	2.5	/experiments/knapen_AOT/AOT_stimuli/rescaled_final/1117_fw.mp4	0.0	235.55977749824524	2.4419572353363037
48	220.1899344921112	pulse	1	t		46.0	2.5	/experiments/knapen_AOT/AOT_stimuli/rescaled_final/1117_fw.mp4	0.0	236.28354382514954	
48	221.78926396369934	pulse	1	t		46.0	2.5	/experiments/knapen_AOT/AOT_stimuli/rescaled_final/1117_fw.mp4	0.0	237.88287329673767	
48	221.9081254005432	fix_post	2		12	46.0	2.5	/experiments/knapen_AOT/AOT_stimuli/rescaled_final/1117_fw.mp4	0.0	238.00173473358154	0.10001349449157715
49	222.0081388950348	fix_pre	0		120	47.0	2.5	blank	1.0	238.10174822807312	1.0003283023834229
49	223.0084671974182	movie	1		300	47.0	2.5	blank	1.0	239.10207653045654	2.5001914501190186
49	223.38427567481995	pulse	1	t		47.0	2.5	blank	1.0	239.47788500785828	
49	224.98415064811707	pulse	1	t		47.0	2.5	blank	1.0	241.0777599811554	
49	225.50865864753723	fix_post	2		12	47.0	2.5	blank	1.0	241.60226798057556	0.10001683235168457
50	225.60867547988892	fix_pre	0		118	48.0	2.5	/experiments/knapen_AOT/AOT_stimuli/rescaled_final/0650_fw.mp4	0.0	241.70228481292725	0.9918346405029297
50	226.5843369960785	pulse	0	t		48.0	2.5	/experiments/knapen_AOT/AOT_stimuli/rescaled_final/0650_fw.mp4	0.0	242.67794632911682	
50	226.60051012039185	movie	1		283	48.0	2.5	/experiments/knapen_AOT/AOT_stimuli/rescaled_final/0650_fw.mp4	0.0	242.69411945343018	2.5003318786621094
50	228.18432426452637	pulse	1	t		48.0	2.5	/experiments/knapen_AOT/AOT_stimuli/rescaled_final/0650_fw.mp4	0.0	244.2779335975647	
50	229.10084199905396	fix_post	2		12	48.0	2.5	/experiments/knapen_AOT/AOT_stimuli/rescaled_final/0650_fw.mp4	0.0	245.19445133209229	0.10008716583251953
51	229.20092916488647	fix_pre	0		120	49.0	2.5	/experiments/knapen_AOT/AOT_stimuli/rescaled_final/0244_fw.mp4	0.0	245.2945384979248	1.0085444450378418
51	229.78454566001892	pulse	0	t		49.0	2.5	/experiments/knapen_AOT/AOT_stimuli/rescaled_final/0244_fw.mp4	0.0	245.87815499305725	
51	230.20947360992432	movie	1		281	49.0	2.5	/experiments/knapen_AOT/AOT_stimuli/rescaled_final/0244_fw.mp4	0.0	246.30308294296265	2.4919958114624023
51	231.38484930992126	pulse	1	t		49.0	2.5	/experiments/knapen_AOT/AOT_stimuli/rescaled_final/0244_fw.mp4	0.0	247.4784586429596	
51	232.70146942138672	fix_post	2		12	49.0	2.5	/experiments/knapen_AOT/AOT_stimuli/rescaled_final/0244_fw.mp4	0.0	248.79507875442505	0.09998726844787598
52	232.8014566898346	fix_pre	0		120	50.0	2.5	/experiments/knapen_AOT/AOT_stimuli/rescaled_final/0836_rv.mp4	0.0	248.89506602287292	1.008549690246582
52	232.98506569862366	pulse	0	t		50.0	2.5	/experiments/knapen_AOT/AOT_stimuli/rescaled_final/0836_rv.mp4	0.0	249.078675031662	
52	233.81000638008118	movie	1		256	50.0	2.5	/experiments/knapen_AOT/AOT_stimuli/rescaled_final/0836_rv.mp4	0.0	249.9036157131195	2.500312089920044
52	234.58523106575012	pulse	1	t		50.0	2.5	/experiments/knapen_AOT/AOT_stimuli/rescaled_final/0836_rv.mp4	0.0	250.67884039878845	
52	236.18691420555115	pulse	1	t		50.0	2.5	/experiments/knapen_AOT/AOT_stimuli/rescaled_final/0836_rv.mp4	0.0	252.28052353858948	
52	236.31031847000122	fix_post	2		11	50.0	2.5	/experiments/knapen_AOT/AOT_stimuli/rescaled_final/0836_rv.mp4	0.0	252.40392780303955	0.0916147232055664
53	236.4019331932068	fix_pre	0		120	51.0	2.5	/experiments/knapen_AOT/AOT_stimuli/rescaled_final/0470_rv.mp4	0.0	252.49554252624512	1.0085532665252686
53	237.41048645973206	movie	1		268	51.0	2.5	/experiments/knapen_AOT/AOT_stimuli/rescaled_final/0470_rv.mp4	0.0	253.50409579277039	2.4922165870666504
53	237.78597831726074	pulse	1	t		51.0	2.5	/experiments/knapen_AOT/AOT_stimuli/rescaled_final/0470_rv.mp4	0.0	253.87958765029907	
53	239.3859395980835	pulse	1	t		51.0	2.5	/experiments/knapen_AOT/AOT_stimuli/rescaled_final/0470_rv.mp4	0.0	255.47954893112183	
53	239.9027030467987	fix_post	2		12	51.0	2.5	/experiments/knapen_AOT/AOT_stimuli/rescaled_final/0470_rv.mp4	0.0	255.99631237983704	0.0998842716217041
54	240.0025873184204	fix_pre	0		119	52.0	2.5	/experiments/knapen_AOT/AOT_stimuli/rescaled_final/1789_fw.mp4	0.0	256.09619665145874	1.0000746250152588
54	240.98627066612244	pulse	0	t		52.0	2.5	/experiments/knapen_AOT/AOT_stimuli/rescaled_final/1789_fw.mp4	0.0	257.07987999916077	
54	241.00266194343567	movie	1		281	52.0	2.5	/experiments/knapen_AOT/AOT_stimuli/rescaled_final/1789_fw.mp4	0.0	257.096271276474	2.500363349914551
54	242.5848138332367	pulse	1	t		52.0	2.5	/experiments/knapen_AOT/AOT_stimuli/rescaled_final/1789_fw.mp4	0.0	258.678423166275	
54	243.50302529335022	fix_post	2		12	52.0	2.5	/experiments/knapen_AOT/AOT_stimuli/rescaled_final/1789_fw.mp4	0.0	259.59663462638855	0.10007143020629883
55	243.60309672355652	fix_pre	0		120	53.0	2.5	/experiments/knapen_AOT/AOT_stimuli/rescaled_final/2076_fw.mp4	0.0	259.69670605659485	1.0084319114685059
55	244.18683123588562	pulse	0	t		53.0	2.5	/experiments/knapen_AOT/AOT_stimuli/rescaled_final/2076_fw.mp4	0.0	260.28044056892395	
55	244.61152863502502	movie	1		291	53.0	2.5	/experiments/knapen_AOT/AOT_stimuli/rescaled_final/2076_fw.mp4	0.0	260.70513796806335	2.4920670986175537
55	245.78576755523682	pulse	1	t		53.0	2.5	/experiments/knapen_AOT/AOT_stimuli/rescaled_final/2076_fw.mp4	0.0	261.87937688827515	
55	247.10359573364258	fix_post	2		12	53.0	2.5	/experiments/knapen_AOT/AOT_stimuli/rescaled_final/2076_fw.mp4	0.0	263.1972050666809	0.10002470016479492
56	247.20362043380737	fix_pre	0		120	54.0	2.5	blank	1.0	263.2972297668457	1.0001201629638672
56	247.38720846176147	pulse	0	t		54.0	2.5	blank	1.0	263.4808177947998	
56	248.20374059677124	movie	1		300	54.0	2.5	blank	1.0	264.29734992980957	2.5003976821899414
56	248.9873869419098	pulse	1	t		54.0	2.5	blank	1.0	265.0809962749481	
56	250.58766174316406	pulse	1	t		54.0	2.5	blank	1.0	266.6812710762024	
56	250.70413827896118	fix_post	2		12	54.0	2.5	blank	1.0	266.7977476119995	0.1000058650970459
57	250.80414414405823	fix_pre	0		120	55.0	2.5	/experiments/knapen_AOT/AOT_stimuli/rescaled_final/1602_rv.mp4	0.0	266.89775347709656	1.0085301399230957
57	251.81267428398132	movie	1		285	55.0	2.5	/experiments/knapen_AOT/AOT_stimuli/rescaled_final/1602_rv.mp4	0.0	267.90628361701965	2.492100954055786
57	252.18642902374268	pulse	1	t		55.0	2.5	/experiments/knapen_AOT/AOT_stimuli/rescaled_final/1602_rv.mp4	0.0	268.280038356781	
57	253.78606462478638	pulse	1	t		55.0	2.5	/experiments/knapen_AOT/AOT_stimuli/rescaled_final/1602_rv.mp4	0.0	269.8796739578247	
57	254.3047752380371	fix_post	2		12	55.0	2.5	/experiments/knapen_AOT/AOT_stimuli/rescaled_final/1602_rv.mp4	0.0	270.39838457107544	0.0998990535736084
58	254.40467429161072	fix_pre	0		119	56.0	2.5	/experiments/knapen_AOT/AOT_stimuli/rescaled_final/0470_fw.mp4	0.0	270.49828362464905	1.000159502029419
58	255.38835215568542	pulse	0	t		56.0	2.5	/experiments/knapen_AOT/AOT_stimuli/rescaled_final/0470_fw.mp4	0.0	271.48196148872375	
58	255.40483379364014	movie	1		276	56.0	2.5	/experiments/knapen_AOT/AOT_stimuli/rescaled_final/0470_fw.mp4	0.0	271.49844312667847	2.50034236907959
58	256.9877038002014	pulse	1	t		56.0	2.5	/experiments/knapen_AOT/AOT_stimuli/rescaled_final/0470_fw.mp4	0.0	273.08131313323975	
58	257.9051761627197	fix_post	2		12	56.0	2.5	/experiments/knapen_AOT/AOT_stimuli/rescaled_final/0470_fw.mp4	0.0	273.99878549575806	0.10006332397460938
59	258.00523948669434	fix_pre	0		120	57.0	2.5	/experiments/knapen_AOT/AOT_stimuli/rescaled_final/1243_fw.mp4	0.0	274.09884881973267	1.0085325241088867
59	258.5888888835907	pulse	0	t		57.0	2.5	/experiments/knapen_AOT/AOT_stimuli/rescaled_final/1243_fw.mp4	0.0	274.682498216629	
59	259.0137720108032	movie	1		285	57.0	2.5	/experiments/knapen_AOT/AOT_stimuli/rescaled_final/1243_fw.mp4	0.0	275.10738134384155	2.4920666217803955
59	260.18758249282837	pulse	1	t		57.0	2.5	/experiments/knapen_AOT/AOT_stimuli/rescaled_final/1243_fw.mp4	0.0	276.2811918258667	
59	261.5058386325836	fix_post	2		12	57.0	2.5	/experiments/knapen_AOT/AOT_stimuli/rescaled_final/1243_fw.mp4	0.0	277.59944796562195	0.09994697570800781
60	261.6057856082916	fix_pre	0		120	58.0	2.5	/experiments/knapen_AOT/AOT_stimuli/rescaled_final/0947_rv.mp4	0.0	277.69939494132996	1.0084996223449707
60	261.7893297672272	pulse	0	t		58.0	2.5	/experiments/knapen_AOT/AOT_stimuli/rescaled_final/0947_rv.mp4	0.0	277.8829391002655	
60	262.6142852306366	movie	1		281	58.0	2.5	/experiments/knapen_AOT/AOT_stimuli/rescaled_final/0947_rv.mp4	0.0	278.7078945636749	2.491981029510498
60	263.3873016834259	pulse	1	t		58.0	2.5	/experiments/knapen_AOT/AOT_stimuli/rescaled_final/0947_rv.mp4	0.0	279.48091101646423	
60	264.987681388855	pulse	1	t		58.0	2.5	/experiments/knapen_AOT/AOT_stimuli/rescaled_final/0947_rv.mp4	0.0	281.0812907218933	
60	265.1062662601471	fix_post	2		12	58.0	2.5	/experiments/knapen_AOT/AOT_stimuli/rescaled_final/0947_rv.mp4	0.0	281.1998755931854	0.10001111030578613
61	265.2062773704529	fix_pre	0		120	59.0	2.5	/experiments/knapen_AOT/AOT_stimuli/rescaled_final/0919_fw.mp4	0.0	281.2998867034912	1.0084800720214844
61	266.21475744247437	movie	1		277	59.0	2.5	/experiments/knapen_AOT/AOT_stimuli/rescaled_final/0919_fw.mp4	0.0	282.3083667755127	2.492065668106079
61	266.58826899528503	pulse	1	t		59.0	2.5	/experiments/knapen_AOT/AOT_stimuli/rescaled_final/0919_fw.mp4	0.0	282.68187832832336	
61	268.1884651184082	pulse	1	t		59.0	2.5	/experiments/knapen_AOT/AOT_stimuli/rescaled_final/0919_fw.mp4	0.0	284.28207445144653	
61	268.70682311058044	fix_post	2		12	59.0	2.5	/experiments/knapen_AOT/AOT_stimuli/rescaled_final/0919_fw.mp4	0.0	284.8004324436188	0.10011792182922363
62	268.80694103240967	fix_pre	0		119	60.0	2.5	/experiments/knapen_AOT/AOT_stimuli/rescaled_final/1324_rv.mp4	0.0	284.900550365448	1.0000174045562744
62	269.79053235054016	pulse	0	t		60.0	2.5	/experiments/knapen_AOT/AOT_stimuli/rescaled_final/1324_rv.mp4	0.0	285.8841416835785	
62	269.80695843696594	movie	1		277	60.0	2.5	/experiments/knapen_AOT/AOT_stimuli/rescaled_final/1324_rv.mp4	0.0	285.9005677700043	2.50880765914917
62	271.3890173435211	pulse	1	t		60.0	2.5	/experiments/knapen_AOT/AOT_stimuli/rescaled_final/1324_rv.mp4	0.0	287.48262667655945	
62	272.3157660961151	fix_post	2		11	60.0	2.5	/experiments/knapen_AOT/AOT_stimuli/rescaled_final/1324_rv.mp4	0.0	288.40937542915344	0.09159660339355469
63	272.40736269950867	fix_pre	0		120	61.0	2.5	/experiments/knapen_AOT/AOT_stimuli/rescaled_final/0919_rv.mp4	0.0	288.500972032547	1.008483648300171
63	272.99102234840393	pulse	0	t		61.0	2.5	/experiments/knapen_AOT/AOT_stimuli/rescaled_final/0919_rv.mp4	0.0	289.08463168144226	
63	273.41584634780884	movie	1		283	61.0	2.5	/experiments/knapen_AOT/AOT_stimuli/rescaled_final/0919_rv.mp4	0.0	289.50945568084717	2.492130994796753
63	274.59006786346436	pulse	1	t		61.0	2.5	/experiments/knapen_AOT/AOT_stimuli/rescaled_final/0919_rv.mp4	0.0	290.6836771965027	
63	275.9079773426056	fix_post	2		12	61.0	2.5	/experiments/knapen_AOT/AOT_stimuli/rescaled_final/0919_rv.mp4	0.0	292.0015866756439	0.09994101524353027
64	276.0079183578491	fix_pre	0		120	62.0	2.5	/experiments/knapen_AOT/AOT_stimuli/rescaled_final/1592_fw.mp4	0.0	292.10152769088745	1.0084803104400635
64	276.1915822029114	pulse	0	t		62.0	2.5	/experiments/knapen_AOT/AOT_stimuli/rescaled_final/1592_fw.mp4	0.0	292.2851915359497	
64	277.0163986682892	movie	1		278	62.0	2.5	/experiments/knapen_AOT/AOT_stimuli/rescaled_final/1592_fw.mp4	0.0	293.1100080013275	2.4920685291290283
64	277.7893660068512	pulse	1	t		62.0	2.5	/experiments/knapen_AOT/AOT_stimuli/rescaled_final/1592_fw.mp4	0.0	293.8829753398895	
64	279.39003467559814	pulse	1	t		62.0	2.5	/experiments/knapen_AOT/AOT_stimuli/rescaled_final/1592_fw.mp4	0.0	295.4836440086365	
64	279.5084671974182	fix_post	2		12	62.0	2.5	/experiments/knapen_AOT/AOT_stimuli/rescaled_final/1592_fw.mp4	0.0	295.60207653045654	0.10001063346862793
65	279.60847783088684	fix_pre	0		119	63.0	2.5	blank	1.0	295.70208716392517	1.0001122951507568
65	280.6085901260376	movie	1		300	63.0	2.5	blank	1.0	296.7021994590759	2.500457525253296
65	280.99220299720764	pulse	1	t		63.0	2.5	blank	1.0	297.085812330246	
65	282.58530926704407	pulse	1	t		63.0	2.5	blank	1.0	298.6789186000824	
65	283.1090476512909	fix_post	2		12	63.0	2.5	blank	1.0	299.2026569843292	0.09999918937683105
66	283.2090468406677	fix_pre	0		118	64.0	2.5	/experiments/knapen_AOT/AOT_stimuli/rescaled_final/1967_fw.mp4	0.0	299.30265617370605	0.991793155670166
66	284.18480014801025	pulse	0	t		64.0	2.5	/experiments/knapen_AOT/AOT_stimuli/rescaled_final/1967_fw.mp4	0.0	300.2784094810486	
66	284.2008399963379	movie	1		267	64.0	2.5	/experiments/knapen_AOT/AOT_stimuli/rescaled_final/1967_fw.mp4	0.0	300.2944493293762	2.500394105911255
66	285.7932379245758	pulse	1	t		64.0	2.5	/experiments/knapen_AOT/AOT_stimuli/rescaled_final/1967_fw.mp4	0.0	301.88684725761414	
66	286.70123410224915	fix_post	2		12	64.0	2.5	/experiments/knapen_AOT/AOT_stimuli/rescaled_final/1967_fw.mp4	0.0	302.7948434352875	0.09999489784240723
67	286.80122900009155	fix_pre	0		120	65.0	2.5	/experiments/knapen_AOT/AOT_stimuli/rescaled_final/0473_fw.mp4	0.0	302.8948383331299	1.008460283279419
67	287.3849048614502	pulse	0	t		65.0	2.5	/experiments/knapen_AOT/AOT_stimuli/rescaled_final/0473_fw.mp4	0.0	303.4785141944885	
67	287.809689283371	movie	1		288	65.0	2.5	/experiments/knapen_AOT/AOT_stimuli/rescaled_final/0473_fw.mp4	0.0	303.9032986164093	2.492119550704956
67	288.985187292099	pulse	1	t		65.0	2.5	/experiments/knapen_AOT/AOT_stimuli/rescaled_final/0473_fw.mp4	0.0	305.07879662513733	
67	290.3018088340759	fix_post	2		12	65.0	2.5	/experiments/knapen_AOT/AOT_stimuli/rescaled_final/0473_fw.mp4	0.0	306.39541816711426	0.09993267059326172
68	290.4017415046692	fix_pre	0		120	66.0	2.5	/experiments/knapen_AOT/AOT_stimuli/rescaled_final/1289_fw.mp4	0.0	306.4953508377075	1.0084898471832275
68	290.5853946208954	pulse	0	t		66.0	2.5	/experiments/knapen_AOT/AOT_stimuli/rescaled_final/1289_fw.mp4	0.0	306.6790039539337	
68	291.4102313518524	movie	1		277	66.0	2.5	/experiments/knapen_AOT/AOT_stimuli/rescaled_final/1289_fw.mp4	0.0	307.50384068489075	2.4920599460601807
68	292.18554973602295	pulse	1	t		66.0	2.5	/experiments/knapen_AOT/AOT_stimuli/rescaled_final/1289_fw.mp4	0.0	308.2791590690613	
68	293.78612065315247	pulse	1	t		66.0	2.5	/experiments/knapen_AOT/AOT_stimuli/rescaled_final/1289_fw.mp4	0.0	309.8797299861908	
68	293.9022912979126	fix_post	2		12	66.0	2.5	/experiments/knapen_AOT/AOT_stimuli/rescaled_final/1289_fw.mp4	0.0	309.9959006309509	0.09998345375061035
69	294.0022747516632	fix_pre	0		120	67.0	2.5	/experiments/knapen_AOT/AOT_stimuli/rescaled_final/0142_fw.mp4	0.0	310.09588408470154	1.008528709411621
69	295.01080346107483	movie	1		274	67.0	2.5	/experiments/knapen_AOT/AOT_stimuli/rescaled_final/0142_fw.mp4	0.0	311.10441279411316	2.492021322250366
69	295.3860721588135	pulse	1	t		67.0	2.5	/experiments/knapen_AOT/AOT_stimuli/rescaled_final/0142_fw.mp4	0.0	311.4796814918518	
69	296.9864857196808	pulse	1	t		67.0	2.5	/experiments/knapen_AOT/AOT_stimuli/rescaled_final/0142_fw.mp4	0.0	313.0800950527191	
69	297.5028247833252	fix_post	2		12	67.0	2.5	/experiments/knapen_AOT/AOT_stimuli/rescaled_final/0142_fw.mp4	0.0	313.5964341163635	0.10001111030578613
70	297.602835893631	fix_pre	0		119	68.0	2.5	/experiments/knapen_AOT/AOT_stimuli/rescaled_final/1443_rv.mp4	0.0	313.6964452266693	1.0001516342163086
70	298.58678460121155	pulse	0	t		68.0	2.5	/experiments/knapen_AOT/AOT_stimuli/rescaled_final/1443_rv.mp4	0.0	314.6803939342499	
70	298.6029875278473	movie	1		279	68.0	2.5	/experiments/knapen_AOT/AOT_stimuli/rescaled_final/1443_rv.mp4	0.0	314.6965968608856	2.50034761428833
70	300.1868939399719	pulse	1	t		68.0	2.5	/experiments/knapen_AOT/AOT_stimuli/rescaled_final/1443_rv.mp4	0.0	316.28050327301025	
70	301.1033351421356	fix_post	2		12	68.0	2.5	/experiments/knapen_AOT/AOT_stimuli/rescaled_final/1443_rv.mp4	0.0	317.19694447517395	0.10000872611999512
71	301.2033438682556	fix_pre	0		120	69.0	2.5	blank	1.0	317.29695320129395	1.0001945495605469
71	301.78698921203613	pulse	0	t		69.0	2.5	blank	1.0	317.88059854507446	
71	302.20353841781616	movie	1		300	69.0	2.5	blank	1.0	318.2971477508545	2.500365972518921
71	303.38734793663025	pulse	1	t		69.0	2.5	blank	1.0	319.4809572696686	
71	304.7039043903351	fix_post	2		12	69.0	2.5	blank	1.0	320.7975137233734	0.09996509552001953
72	304.8038694858551	fix_pre	0		120	70.0	2.5	/experiments/knapen_AOT/AOT_stimuli/rescaled_final/0045_fw.mp4	0.0	320.89747881889343	1.0085265636444092
72	304.98756194114685	pulse	0	t		70.0	2.5	/experiments/knapen_AOT/AOT_stimuli/rescaled_final/0045_fw.mp4	0.0	321.0811712741852	
72	305.8123960494995	movie	1		291	70.0	2.5	/experiments/knapen_AOT/AOT_stimuli/rescaled_final/0045_fw.mp4	0.0	321.90600538253784	2.4920449256896973
72	306.5857276916504	pulse	1	t		70.0	2.5	/experiments/knapen_AOT/AOT_stimuli/rescaled_final/0045_fw.mp4	0.0	322.6793370246887	
72	308.18617057800293	pulse	1	t		70.0	2.5	/experiments/knapen_AOT/AOT_stimuli/rescaled_final/0045_fw.mp4	0.0	324.27977991104126	
72	308.3044409751892	fix_post	2		12	70.0	2.5	/experiments/knapen_AOT/AOT_stimuli/rescaled_final/0045_fw.mp4	0.0	324.39805030822754	0.09998822212219238
73	308.4044291973114	fix_pre	0		120	71.0	2.5	/experiments/knapen_AOT/AOT_stimuli/rescaled_final/0829_rv.mp4	0.0	324.49803853034973	1.0084996223449707
73	309.4129288196564	movie	1		281	71.0	2.5	/experiments/knapen_AOT/AOT_stimuli/rescaled_final/0829_rv.mp4	0.0	325.5065381526947	2.4920244216918945
73	309.7865672111511	pulse	1	t		71.0	2.5	/experiments/knapen_AOT/AOT_stimuli/rescaled_final/0829_rv.mp4	0.0	325.88017654418945	
73	311.38635206222534	pulse	1	t		71.0	2.5	/experiments/knapen_AOT/AOT_stimuli/rescaled_final/0829_rv.mp4	0.0	327.4799613952637	
73	311.90495324134827	fix_post	2		12	71.0	2.5	/experiments/knapen_AOT/AOT_stimuli/rescaled_final/0829_rv.mp4	0.0	327.9985625743866	0.10002899169921875
74	312.0049822330475	fix_pre	0		119	72.0	2.5	/experiments/knapen_AOT/AOT_stimuli/rescaled_final/1690_fw.mp4	0.0	328.0985915660858	1.000152826309204
74	312.98873257637024	pulse	0	t		72.0	2.5	/experiments/knapen_AOT/AOT_stimuli/rescaled_final/1690_fw.mp4	0.0	329.08234190940857	
74	313.0051350593567	movie	1		279	72.0	2.5	/experiments/knapen_AOT/AOT_stimuli/rescaled_final/1690_fw.mp4	0.0	329.098744392395	2.5003697872161865
74	314.58737301826477	pulse	1	t		72.0	2.5	/experiments/knapen_AOT/AOT_stimuli/rescaled_final/1690_fw.mp4	0.0	330.6809823513031	
74	315.5055048465729	fix_post	2		12	72.0	2.5	/experiments/knapen_AOT/AOT_stimuli/rescaled_final/1690_fw.mp4	0.0	331.5991141796112	0.10007429122924805
75	315.6055791378021	fix_pre	0		120	73.0	2.5	/experiments/knapen_AOT/AOT_stimuli/rescaled_final/0142_rv.mp4	0.0	331.69918847084045	1.0084354877471924
75	316.1891555786133	pulse	0	t		73.0	2.5	/experiments/knapen_AOT/AOT_stimuli/rescaled_final/0142_rv.mp4	0.0	332.2827649116516	
75	316.6140146255493	movie	1		282	73.0	2.5	/experiments/knapen_AOT/AOT_stimuli/rescaled_final/0142_rv.mp4	0.0	332.70762395858765	2.49202561378479
75	317.78789710998535	pulse	1	t		73.0	2.5	/experiments/knapen_AOT/AOT_stimuli/rescaled_final/0142_rv.mp4	0.0	333.8815064430237	
75	319.1060402393341	fix_post	2		12	73.0	2.5	/experiments/knapen_AOT/AOT_stimuli/rescaled_final/0142_rv.mp4	0.0	335.19964957237244	0.1000216007232666
76	319.2060618400574	fix_pre	0		120	74.0	2.5	/experiments/knapen_AOT/AOT_stimuli/rescaled_final/0115_fw.mp4	0.0	335.2996711730957	1.008516550064087
76	319.3897452354431	pulse	0	t		74.0	2.5	/experiments/knapen_AOT/AOT_stimuli/rescaled_final/0115_fw.mp4	0.0	335.48335456848145	
76	320.21457839012146	movie	1		290	74.0	2.5	/experiments/knapen_AOT/AOT_stimuli/rescaled_final/0115_fw.mp4	0.0	336.3081877231598	2.4920005798339844
76	320.98778319358826	pulse	1	t		74.0	2.5	/experiments/knapen_AOT/AOT_stimuli/rescaled_final/0115_fw.mp4	0.0	337.0813925266266	
76	322.5879089832306	pulse	1	t		74.0	2.5	/experiments/knapen_AOT/AOT_stimuli/rescaled_final/0115_fw.mp4	0.0	338.6815183162689	
76	322.70657896995544	fix_post	2		12	74.0	2.5	/experiments/knapen_AOT/AOT_stimuli/rescaled_final/0115_fw.mp4	0.0	338.8001883029938	0.1000223159790039
77	322.80660128593445	fix_pre	0		120	75.0	2.5	/experiments/knapen_AOT/AOT_stimuli/rescaled_final/1925_rv.mp4	0.0	338.9002106189728	1.0084953308105469
77	323.815096616745	movie	1		281	75.0	2.5	/experiments/knapen_AOT/AOT_stimuli/rescaled_final/1925_rv.mp4	0.0	339.9087059497833	2.492067337036133
77	324.18930077552795	pulse	1	t		75.0	2.5	/experiments/knapen_AOT/AOT_stimuli/rescaled_final/1925_rv.mp4	0.0	340.2829101085663	
77	325.7902641296387	pulse	1	t		75.0	2.5	/experiments/knapen_AOT/AOT_stimuli/rescaled_final/1925_rv.mp4	0.0	341.883873462677	
77	326.3071639537811	fix_post	2		12	75.0	2.5	/experiments/knapen_AOT/AOT_stimuli/rescaled_final/1925_rv.mp4	0.0	342.40077328681946	0.09997677803039551
78	326.4071407318115	fix_pre	0		119	76.0	2.5	/experiments/knapen_AOT/AOT_stimuli/rescaled_final/2113_rv.mp4	0.0	342.50075006484985	1.0001699924468994
78	327.390992641449	pulse	0	t		76.0	2.5	/experiments/knapen_AOT/AOT_stimuli/rescaled_final/2113_rv.mp4	0.0	343.4846019744873	
78	327.4073107242584	movie	1		285	76.0	2.5	/experiments/knapen_AOT/AOT_stimuli/rescaled_final/2113_rv.mp4	0.0	343.50092005729675	2.500359296798706
78	328.98933243751526	pulse	1	t		76.0	2.5	/experiments/knapen_AOT/AOT_stimuli/rescaled_final/2113_rv.mp4	0.0	345.0829417705536	
78	329.90767002105713	fix_post	2		12	76.0	2.5	/experiments/knapen_AOT/AOT_stimuli/rescaled_final/2113_rv.mp4	0.0	346.00127935409546	0.10001182556152344
79	330.00768184661865	fix_pre	0		120	77.0	2.5	blank	1.0	346.101291179657	1.000166416168213
79	330.591285943985	pulse	0	t		77.0	2.5	blank	1.0	346.6848952770233	
79	331.00784826278687	movie	1		300	77.0	2.5	blank	1.0	347.1014575958252	2.500370740890503
79	332.1915979385376	pulse	1	t		77.0	2.5	blank	1.0	348.2852072715759	
79	333.50821900367737	fix_post	2		12	77.0	2.5	blank	1.0	349.6018283367157	0.10004401206970215
80	333.60826301574707	fix_pre	0		120	78.0	2.5	/experiments/knapen_AOT/AOT_stimuli/rescaled_final/1114_fw.mp4	0.0	349.7018723487854	1.0084784030914307
80	333.7920365333557	pulse	0	t		78.0	2.5	/experiments/knapen_AOT/AOT_stimuli/rescaled_final/1114_fw.mp4	0.0	349.88564586639404	
80	334.6167414188385	movie	1		272	78.0	2.5	/experiments/knapen_AOT/AOT_stimuli/rescaled_final/1114_fw.mp4	0.0	350.71035075187683	2.491995334625244
80	335.39031457901	pulse	1	t		78.0	2.5	/experiments/knapen_AOT/AOT_stimuli/rescaled_final/1114_fw.mp4	0.0	351.48392391204834	
80	336.99239349365234	pulse	1	t		78.0	2.5	/experiments/knapen_AOT/AOT_stimuli/rescaled_final/1114_fw.mp4	0.0	353.0860028266907	
80	337.10873675346375	fix_post	2		12	78.0	2.5	/experiments/knapen_AOT/AOT_stimuli/rescaled_final/1114_fw.mp4	0.0	353.2023460865021	0.10002827644348145
81	337.2087650299072	fix_pre	0		120	79.0	2.5	/experiments/knapen_AOT/AOT_stimuli/rescaled_final/0339_fw.mp4	0.0	353.30237436294556	1.0085327625274658
81	338.2172977924347	movie	1		278	79.0	2.5	/experiments/knapen_AOT/AOT_stimuli/rescaled_final/0339_fw.mp4	0.0	354.310907125473	2.491981029510498
81	338.5908679962158	pulse	1	t		79.0	2.5	/experiments/knapen_AOT/AOT_stimuli/rescaled_final/0339_fw.mp4	0.0	354.68447732925415	
81	340.1911244392395	pulse	1	t		79.0	2.5	/experiments/knapen_AOT/AOT_stimuli/rescaled_final/0339_fw.mp4	0.0	356.28473377227783	
81	340.7092788219452	fix_post	2		12	79.0	2.5	/experiments/knapen_AOT/AOT_stimuli/rescaled_final/0339_fw.mp4	0.0	356.8028881549835	0.10003161430358887
82	340.8093104362488	fix_pre	0		119	80.0	2.5	/experiments/knapen_AOT/AOT_stimuli/rescaled_final/0294_fw.mp4	0.0	356.9029197692871	1.000128984451294
82	341.78518414497375	pulse	0	t		80.0	2.5	/experiments/knapen_AOT/AOT_stimuli/rescaled_final/0294_fw.mp4	0.0	357.8787934780121	
82	341.8094394207001	movie	1		270	80.0	2.5	/experiments/knapen_AOT/AOT_stimuli/rescaled_final/0294_fw.mp4	0.0	357.9030487537384	2.5003910064697266
82	343.3854742050171	pulse	1	t		80.0	2.5	/experiments/knapen_AOT/AOT_stimuli/rescaled_final/0294_fw.mp4	0.0	359.4790835380554	
82	344.3098304271698	fix_post	2		12	80.0	2.5	/experiments/knapen_AOT/AOT_stimuli/rescaled_final/0294_fw.mp4	0.0	360.40343976020813	0.10001611709594727
83	344.40984654426575	fix_pre	0		120	81.0	2.5	/experiments/knapen_AOT/AOT_stimuli/rescaled_final/0985_rv.mp4	0.0	360.5034558773041	1.0084965229034424
83	344.9853971004486	pulse	0	t		81.0	2.5	/experiments/knapen_AOT/AOT_stimuli/rescaled_final/0985_rv.mp4	0.0	361.07900643348694	
83	345.4183430671692	movie	1		275	81.0	2.5	/experiments/knapen_AOT/AOT_stimuli/rescaled_final/0985_rv.mp4	0.0	361.5119524002075	2.4920363426208496
83	346.5853683948517	pulse	1	t		81.0	2.5	/experiments/knapen_AOT/AOT_stimuli/rescaled_final/0985_rv.mp4	0.0	362.67897772789	
83	347.91037940979004	fix_post	2		12	81.0	2.5	/experiments/knapen_AOT/AOT_stimuli/rescaled_final/0985_rv.mp4	0.0	364.00398874282837	0.09997677803039551
84	348.01035618782043	fix_pre	0		120	82.0	2.5	/experiments/knapen_AOT/AOT_stimuli/rescaled_final/1763_rv.mp4	0.0	364.10396552085876	1.0085525512695312
84	348.18594455718994	pulse	0	t		82.0	2.5	/experiments/knapen_AOT/AOT_stimuli/rescaled_final/1763_rv.mp4	0.0	364.27955389022827	
84	349.01890873908997	movie	1		276	82.0	2.5	/experiments/knapen_AOT/AOT_stimuli/rescaled_final/1763_rv.mp4	0.0	365.1125180721283	2.4920036792755127
84	349.7859687805176	pulse	1	t		82.0	2.5	/experiments/knapen_AOT/AOT_stimuli/rescaled_final/1763_rv.mp4	0.0	365.8795781135559	
84	351.38552594184875	pulse	1	t		82.0	2.5	/experiments/knapen_AOT/AOT_stimuli/rescaled_final/1763_rv.mp4	0.0	367.4791352748871	
84	351.5109124183655	fix_post	2		12	82.0	2.5	/experiments/knapen_AOT/AOT_stimuli/rescaled_final/1763_rv.mp4	0.0	367.6045217514038	0.10001373291015625
85	351.61092615127563	fix_pre	0		120	83.0	2.5	blank	1.0	367.70453548431396	1.0001425743103027
85	352.61106872558594	movie	1		300	83.0	2.5	blank	1.0	368.70467805862427	2.5004782676696777
85	352.9864637851715	pulse	1	t		83.0	2.5	blank	1.0	369.08007311820984	
85	354.5866231918335	pulse	1	t		83.0	2.5	blank	1.0	370.6802325248718	
85	355.1115469932556	fix_post	2		12	83.0	2.5	blank	1.0	371.20515632629395	0.09999227523803711
87	355.21153926849365	stim	0		1715					371.305148601532	14.293747663497925
87	356.186931848526	pulse	0	t						372.28054118156433	
87	357.78708028793335	pulse	0	t						373.8806896209717	
87	359.3873519897461	pulse	0	t						375.4809613227844	
87	360.9875726699829	pulse	0	t						377.08118200302124	
87	362.58776569366455	pulse	0	t						378.6813750267029	
87	364.18802762031555	pulse	0	t						380.2816369533539	
87	365.78831005096436	pulse	0	t						381.8819193840027	
87	367.3884961605072	pulse	0	t						383.48210549354553	
87	368.988867521286	pulse	0	t						385.08247685432434	
