trial_nr	onset	event_type	phase	response	nr_frames	movie_index	movie_duration	movie_file	blank	onset_abs	duration
0	0.17492914199829102	stim	0		1					29.27560329437256	0.008363962173461914
0	0.12372255325317383	response	0	space						29.22439670562744	
1	0.18329310417175293	stim	0		4772					29.28396725654602	39.78261375427246
1	39.95555567741394	pulse	0	t						69.05622982978821	
1	39.965906858444214	stim	1		1716					69.06658101081848	14.300596952438354
1	41.548065423965454	pulse	1	t						70.64873957633972	
1	43.148396015167236	pulse	1	t						72.2490701675415	
1	44.7483856678009	pulse	1	t						73.84905982017517	
1	46.348745584487915	pulse	1	t						75.44941973686218	
1	47.94890284538269	pulse	1	t						77.04957699775696	
1	49.5490198135376	pulse	1	t						78.64969396591187	
1	51.149508237838745	pulse	1	t						80.25018239021301	
1	52.74988150596619	pulse	1	t						81.85055565834045	
2	54.26650381088257	fix_pre	0		11	0.0	2.5	/experiments/Knapen_AOT/AOT_stimuli/rescaled_final/0086_fw.mp4	0.0	83.36717796325684	0.1082761287689209
2	54.35018348693848	pulse	0	t		0.0	2.5	/experiments/Knapen_AOT/AOT_stimuli/rescaled_final/0086_fw.mp4	0.0	83.45085763931274	
2	54.37477993965149	movie	1		282	0.0	2.5	/experiments/Knapen_AOT/AOT_stimuli/rescaled_final/0086_fw.mp4	0.0	83.47545409202576	2.4918806552886963
2	55.94946217536926	pulse	1	t		0.0	2.5	/experiments/Knapen_AOT/AOT_stimuli/rescaled_final/0086_fw.mp4	0.0	85.05013632774353	
2	56.866660594940186	fix_post	2		12	0.0	2.5	/experiments/Knapen_AOT/AOT_stimuli/rescaled_final/0086_fw.mp4	0.0	85.96733474731445	0.10001182556152344
3	56.96667242050171	fix_pre	0		120	1.0	2.5	/experiments/Knapen_AOT/AOT_stimuli/rescaled_final/0006_rv.mp4	0.0	86.06734657287598	1.0085012912750244
3	57.55029225349426	pulse	0	t		1.0	2.5	/experiments/Knapen_AOT/AOT_stimuli/rescaled_final/0006_rv.mp4	0.0	86.65096640586853	
3	57.97517371177673	movie	1		280	1.0	2.5	/experiments/Knapen_AOT/AOT_stimuli/rescaled_final/0006_rv.mp4	0.0	87.075847864151	2.492034435272217
3	59.14857053756714	pulse	1	t		1.0	2.5	/experiments/Knapen_AOT/AOT_stimuli/rescaled_final/0006_rv.mp4	0.0	88.2492446899414	
3	60.46720814704895	fix_post	2		12	1.0	2.5	/experiments/Knapen_AOT/AOT_stimuli/rescaled_final/0006_rv.mp4	0.0	89.56788229942322	0.09999895095825195
4	60.5672070980072	fix_pre	0		120	2.0	2.5	/experiments/Knapen_AOT/AOT_stimuli/rescaled_final/0715_fw.mp4	0.0	89.66788125038147	1.0085465908050537
4	60.75078749656677	pulse	0	t		2.0	2.5	/experiments/Knapen_AOT/AOT_stimuli/rescaled_final/0715_fw.mp4	0.0	89.85146164894104	
4	61.575753688812256	movie	1		284	2.0	2.5	/experiments/Knapen_AOT/AOT_stimuli/rescaled_final/0715_fw.mp4	0.0	90.67642784118652	2.492182731628418
4	62.349119663238525	pulse	1	t		2.0	2.5	/experiments/Knapen_AOT/AOT_stimuli/rescaled_final/0715_fw.mp4	0.0	91.4497938156128	
4	63.94923710823059	pulse	1	t		2.0	2.5	/experiments/Knapen_AOT/AOT_stimuli/rescaled_final/0715_fw.mp4	0.0	93.04991126060486	
4	64.06793642044067	fix_post	2		12	2.0	2.5	/experiments/Knapen_AOT/AOT_stimuli/rescaled_final/0715_fw.mp4	0.0	93.16861057281494	0.09988260269165039
5	64.16781902313232	fix_pre	0		120	3.0	2.5	/experiments/Knapen_AOT/AOT_stimuli/rescaled_final/0255_rv.mp4	0.0	93.26849317550659	1.0084202289581299
5	65.17623925209045	movie	1		282	3.0	2.5	/experiments/Knapen_AOT/AOT_stimuli/rescaled_final/0255_rv.mp4	0.0	94.27691340446472	2.492114782333374
5	65.54981660842896	pulse	1	t		3.0	2.5	/experiments/Knapen_AOT/AOT_stimuli/rescaled_final/0255_rv.mp4	0.0	94.65049076080322	
5	67.14958238601685	pulse	1	t		3.0	2.5	/experiments/Knapen_AOT/AOT_stimuli/rescaled_final/0255_rv.mp4	0.0	96.25025653839111	
5	67.66835403442383	fix_post	2		12	3.0	2.5	/experiments/Knapen_AOT/AOT_stimuli/rescaled_final/0255_rv.mp4	0.0	96.7690281867981	0.09995651245117188
6	67.768310546875	fix_pre	0		119	4.0	2.5	/experiments/Knapen_AOT/AOT_stimuli/rescaled_final/1439_rv.mp4	0.0	96.86898469924927	1.0001447200775146
6	68.75219416618347	pulse	0	t		4.0	2.5	/experiments/Knapen_AOT/AOT_stimuli/rescaled_final/1439_rv.mp4	0.0	97.85286831855774	
6	68.76845526695251	movie	1		289	4.0	2.5	/experiments/Knapen_AOT/AOT_stimuli/rescaled_final/1439_rv.mp4	0.0	97.86912941932678	2.5005345344543457
6	70.35071969032288	pulse	1	t		4.0	2.5	/experiments/Knapen_AOT/AOT_stimuli/rescaled_final/1439_rv.mp4	0.0	99.45139384269714	
6	71.26898980140686	fix_post	2		12	4.0	2.5	/experiments/Knapen_AOT/AOT_stimuli/rescaled_final/1439_rv.mp4	0.0	100.36966395378113	0.09986305236816406
7	71.36885285377502	fix_pre	0		120	5.0	2.5	blank	1.0	100.46952700614929	1.0001392364501953
7	71.94537425041199	pulse	0	t		5.0	2.5	blank	1.0	101.04604840278625	
7	72.36899209022522	movie	1		300	5.0	2.5	blank	1.0	101.46966624259949	2.500385284423828
7	73.55270051956177	pulse	1	t		5.0	2.5	blank	1.0	102.65337467193604	
7	74.86937737464905	fix_post	2		12	5.0	2.5	blank	1.0	103.97005152702332	0.1000056266784668
8	74.96938300132751	fix_pre	0		120	6.0	2.5	/experiments/Knapen_AOT/AOT_stimuli/rescaled_final/0229_fw.mp4	0.0	104.07005715370178	1.008519172668457
8	75.14495944976807	pulse	0	t		6.0	2.5	/experiments/Knapen_AOT/AOT_stimuli/rescaled_final/0229_fw.mp4	0.0	104.24563360214233	
8	75.97790217399597	movie	1		281	6.0	2.5	/experiments/Knapen_AOT/AOT_stimuli/rescaled_final/0229_fw.mp4	0.0	105.07857632637024	2.4920122623443604
8	76.7449357509613	pulse	1	t		6.0	2.5	/experiments/Knapen_AOT/AOT_stimuli/rescaled_final/0229_fw.mp4	0.0	105.84560990333557	
8	78.345139503479	pulse	1	t		6.0	2.5	/experiments/Knapen_AOT/AOT_stimuli/rescaled_final/0229_fw.mp4	0.0	107.44581365585327	
8	78.46991443634033	fix_post	2		12	6.0	2.5	/experiments/Knapen_AOT/AOT_stimuli/rescaled_final/0229_fw.mp4	0.0	107.5705885887146	0.10001492500305176
9	78.56992936134338	fix_pre	0		120	7.0	2.5	/experiments/Knapen_AOT/AOT_stimuli/rescaled_final/2114_fw.mp4	0.0	107.67060351371765	1.008481502532959
9	79.57841086387634	movie	1		273	7.0	2.5	/experiments/Knapen_AOT/AOT_stimuli/rescaled_final/2114_fw.mp4	0.0	108.67908501625061	2.4920358657836914
9	79.94542789459229	pulse	1	t		7.0	2.5	/experiments/Knapen_AOT/AOT_stimuli/rescaled_final/2114_fw.mp4	0.0	109.04610204696655	
9	81.54570126533508	pulse	1	t		7.0	2.5	/experiments/Knapen_AOT/AOT_stimuli/rescaled_final/2114_fw.mp4	0.0	110.64637541770935	
9	82.07044672966003	fix_post	2		12	7.0	2.5	/experiments/Knapen_AOT/AOT_stimuli/rescaled_final/2114_fw.mp4	0.0	111.1711208820343	0.10002303123474121
10	82.17046976089478	fix_pre	0		118	8.0	2.5	/experiments/Knapen_AOT/AOT_stimuli/rescaled_final/0086_fw.mp4	0.0	111.27114391326904	0.9918975830078125
10	83.14581322669983	pulse	0	t		8.0	2.5	/experiments/Knapen_AOT/AOT_stimuli/rescaled_final/0086_fw.mp4	0.0	112.2464873790741	
10	83.16236734390259	movie	1		283	8.0	2.5	/experiments/Knapen_AOT/AOT_stimuli/rescaled_final/0086_fw.mp4	0.0	112.26304149627686	2.500300407409668
10	84.74610447883606	pulse	1	t		8.0	2.5	/experiments/Knapen_AOT/AOT_stimuli/rescaled_final/0086_fw.mp4	0.0	113.84677863121033	
10	85.66266775131226	fix_post	2		12	8.0	2.5	/experiments/Knapen_AOT/AOT_stimuli/rescaled_final/0086_fw.mp4	0.0	114.76334190368652	0.10004353523254395
11	85.7627112865448	fix_pre	0		120	9.0	2.5	/experiments/Knapen_AOT/AOT_stimuli/rescaled_final/0804_rv.mp4	0.0	114.86338543891907	1.0085949897766113
11	86.34645676612854	pulse	0	t		9.0	2.5	/experiments/Knapen_AOT/AOT_stimuli/rescaled_final/0804_rv.mp4	0.0	115.44713091850281	
11	86.77130627632141	movie	1		280	9.0	2.5	/experiments/Knapen_AOT/AOT_stimuli/rescaled_final/0804_rv.mp4	0.0	115.87198042869568	2.491891384124756
11	87.94673752784729	pulse	1	t		9.0	2.5	/experiments/Knapen_AOT/AOT_stimuli/rescaled_final/0804_rv.mp4	0.0	117.04741168022156	
11	89.26319766044617	fix_post	2		12	9.0	2.5	/experiments/Knapen_AOT/AOT_stimuli/rescaled_final/0804_rv.mp4	0.0	118.36387181282043	0.10001993179321289
12	89.36321759223938	fix_pre	0		120	10.0	2.5	/experiments/Knapen_AOT/AOT_stimuli/rescaled_final/0078_fw.mp4	0.0	118.46389174461365	1.0084989070892334
12	89.54676556587219	pulse	0	t		10.0	2.5	/experiments/Knapen_AOT/AOT_stimuli/rescaled_final/0078_fw.mp4	0.0	118.64743971824646	
12	90.37171649932861	movie	1		287	10.0	2.5	/experiments/Knapen_AOT/AOT_stimuli/rescaled_final/0078_fw.mp4	0.0	119.47239065170288	2.4920220375061035
12	91.1449453830719	pulse	1	t		10.0	2.5	/experiments/Knapen_AOT/AOT_stimuli/rescaled_final/0078_fw.mp4	0.0	120.24561953544617	
12	92.74525666236877	pulse	1	t		10.0	2.5	/experiments/Knapen_AOT/AOT_stimuli/rescaled_final/0078_fw.mp4	0.0	121.84593081474304	
12	92.86373853683472	fix_post	2		12	10.0	2.5	/experiments/Knapen_AOT/AOT_stimuli/rescaled_final/0078_fw.mp4	0.0	121.96441268920898	0.10006356239318848
13	92.9638020992279	fix_pre	0		120	11.0	2.5	/experiments/Knapen_AOT/AOT_stimuli/rescaled_final/0833_fw.mp4	0.0	122.06447625160217	1.00846529006958
13	93.97226738929749	movie	1		285	11.0	2.5	/experiments/Knapen_AOT/AOT_stimuli/rescaled_final/0833_fw.mp4	0.0	123.07294154167175	2.4920241832733154
13	94.34590601921082	pulse	1	t		11.0	2.5	/experiments/Knapen_AOT/AOT_stimuli/rescaled_final/0833_fw.mp4	0.0	123.44658017158508	
13	95.94570803642273	pulse	1	t		11.0	2.5	/experiments/Knapen_AOT/AOT_stimuli/rescaled_final/0833_fw.mp4	0.0	125.046382188797	
13	96.4642915725708	fix_post	2		12	11.0	2.5	/experiments/Knapen_AOT/AOT_stimuli/rescaled_final/0833_fw.mp4	0.0	125.56496572494507	0.10002279281616211
14	96.56431436538696	fix_pre	0		119	12.0	2.5	/experiments/Knapen_AOT/AOT_stimuli/rescaled_final/1006_rv.mp4	0.0	125.66498851776123	1.0001492500305176
14	97.54805707931519	pulse	0	t		12.0	2.5	/experiments/Knapen_AOT/AOT_stimuli/rescaled_final/1006_rv.mp4	0.0	126.64873123168945	
14	97.56446361541748	movie	1		289	12.0	2.5	/experiments/Knapen_AOT/AOT_stimuli/rescaled_final/1006_rv.mp4	0.0	126.66513776779175	2.5003538131713867
14	99.14835166931152	pulse	1	t		12.0	2.5	/experiments/Knapen_AOT/AOT_stimuli/rescaled_final/1006_rv.mp4	0.0	128.2490258216858	
14	100.06481742858887	fix_post	2		12	12.0	2.5	/experiments/Knapen_AOT/AOT_stimuli/rescaled_final/1006_rv.mp4	0.0	129.16549158096313	0.10002756118774414
15	100.16484498977661	fix_pre	0		120	13.0	2.5	blank	1.0	129.26551914215088	1.0001955032348633
15	100.74847316741943	pulse	0	t		13.0	2.5	blank	1.0	129.8491473197937	
15	101.16504049301147	movie	1		300	13.0	2.5	blank	1.0	130.26571464538574	2.5003273487091064
15	102.34877681732178	pulse	1	t		13.0	2.5	blank	1.0	131.44945096969604	
15	103.66536784172058	fix_post	2		12	13.0	2.5	blank	1.0	132.76604199409485	0.10001540184020996
16	103.76538324356079	fix_pre	0		120	14.0	2.5	/experiments/Knapen_AOT/AOT_stimuli/rescaled_final/0804_fw.mp4	0.0	132.86605739593506	1.008484125137329
16	103.94924068450928	pulse	0	t		14.0	2.5	/experiments/Knapen_AOT/AOT_stimuli/rescaled_final/0804_fw.mp4	0.0	133.04991483688354	
16	104.77386736869812	movie	1		281	14.0	2.5	/experiments/Knapen_AOT/AOT_stimuli/rescaled_final/0804_fw.mp4	0.0	133.8745415210724	2.4920506477355957
16	105.54714322090149	pulse	1	t		14.0	2.5	/experiments/Knapen_AOT/AOT_stimuli/rescaled_final/0804_fw.mp4	0.0	134.64781737327576	
16	107.14745330810547	pulse	1	t		14.0	2.5	/experiments/Knapen_AOT/AOT_stimuli/rescaled_final/0804_fw.mp4	0.0	136.24812746047974	
16	107.26591801643372	fix_post	2		12	14.0	2.5	/experiments/Knapen_AOT/AOT_stimuli/rescaled_final/0804_fw.mp4	0.0	136.36659216880798	0.10008382797241211
17	107.36600184440613	fix_pre	0		120	15.0	2.5	/experiments/Knapen_AOT/AOT_stimuli/rescaled_final/0720_rv.mp4	0.0	136.4666759967804	1.0084784030914307
17	108.37448024749756	movie	1		286	15.0	2.5	/experiments/Knapen_AOT/AOT_stimuli/rescaled_final/0720_rv.mp4	0.0	137.47515439987183	2.491978168487549
17	108.74772834777832	pulse	1	t		15.0	2.5	/experiments/Knapen_AOT/AOT_stimuli/rescaled_final/0720_rv.mp4	0.0	137.8484025001526	
17	110.34765028953552	pulse	1	t		15.0	2.5	/experiments/Knapen_AOT/AOT_stimuli/rescaled_final/0720_rv.mp4	0.0	139.4483244419098	
17	110.86645841598511	fix_post	2		12	15.0	2.5	/experiments/Knapen_AOT/AOT_stimuli/rescaled_final/0720_rv.mp4	0.0	139.96713256835938	0.10007143020629883
18	110.9665298461914	fix_pre	0		119	16.0	2.5	/experiments/Knapen_AOT/AOT_stimuli/rescaled_final/0598_rv.mp4	0.0	140.06720399856567	1.008636236190796
18	111.95023560523987	pulse	0	t		16.0	2.5	/experiments/Knapen_AOT/AOT_stimuli/rescaled_final/0598_rv.mp4	0.0	141.05090975761414	
18	111.9751660823822	movie	1		284	16.0	2.5	/experiments/Knapen_AOT/AOT_stimuli/rescaled_final/0598_rv.mp4	0.0	141.07584023475647	2.4918341636657715
18	113.54883217811584	pulse	1	t		16.0	2.5	/experiments/Knapen_AOT/AOT_stimuli/rescaled_final/0598_rv.mp4	0.0	142.6495063304901	
18	114.46700024604797	fix_post	2		12	16.0	2.5	/experiments/Knapen_AOT/AOT_stimuli/rescaled_final/0598_rv.mp4	0.0	143.56767439842224	0.10002374649047852
19	114.56702399253845	fix_pre	0		120	17.0	2.5	/experiments/Knapen_AOT/AOT_stimuli/rescaled_final/0103_fw.mp4	0.0	143.66769814491272	1.0084943771362305
19	115.15067291259766	pulse	0	t		17.0	2.5	/experiments/Knapen_AOT/AOT_stimuli/rescaled_final/0103_fw.mp4	0.0	144.25134706497192	
19	115.57551836967468	movie	1		288	17.0	2.5	/experiments/Knapen_AOT/AOT_stimuli/rescaled_final/0103_fw.mp4	0.0	144.67619252204895	2.4920291900634766
19	116.74890232086182	pulse	1	t		17.0	2.5	/experiments/Knapen_AOT/AOT_stimuli/rescaled_final/0103_fw.mp4	0.0	145.84957647323608	
19	118.06754755973816	fix_post	2		12	17.0	2.5	/experiments/Knapen_AOT/AOT_stimuli/rescaled_final/0103_fw.mp4	0.0	147.16822171211243	0.1000208854675293
20	118.16756844520569	fix_pre	0		120	18.0	2.5	/experiments/Knapen_AOT/AOT_stimuli/rescaled_final/0915_rv.mp4	0.0	147.26824259757996	1.0084781646728516
20	118.351145029068	pulse	0	t		18.0	2.5	/experiments/Knapen_AOT/AOT_stimuli/rescaled_final/0915_rv.mp4	0.0	147.45181918144226	
20	119.17604660987854	movie	1		284	18.0	2.5	/experiments/Knapen_AOT/AOT_stimuli/rescaled_final/0915_rv.mp4	0.0	148.2767207622528	2.492048501968384
20	119.94950819015503	pulse	1	t		18.0	2.5	/experiments/Knapen_AOT/AOT_stimuli/rescaled_final/0915_rv.mp4	0.0	149.0501823425293	
20	121.54977178573608	pulse	1	t		18.0	2.5	/experiments/Knapen_AOT/AOT_stimuli/rescaled_final/0915_rv.mp4	0.0	150.65044593811035	
20	121.66809511184692	fix_post	2		12	18.0	2.5	/experiments/Knapen_AOT/AOT_stimuli/rescaled_final/0915_rv.mp4	0.0	150.7687692642212	0.10004401206970215
21	121.76813912391663	fix_pre	0		120	19.0	2.5	/experiments/Knapen_AOT/AOT_stimuli/rescaled_final/0320_rv.mp4	0.0	150.8688132762909	1.0084781646728516
21	122.77661728858948	movie	1		291	19.0	2.5	/experiments/Knapen_AOT/AOT_stimuli/rescaled_final/0320_rv.mp4	0.0	151.87729144096375	2.4920148849487305
21	123.15039801597595	pulse	1	t		19.0	2.5	/experiments/Knapen_AOT/AOT_stimuli/rescaled_final/0320_rv.mp4	0.0	152.25107216835022	
21	124.7500901222229	pulse	1	t		19.0	2.5	/experiments/Knapen_AOT/AOT_stimuli/rescaled_final/0320_rv.mp4	0.0	153.85076427459717	
21	125.26863217353821	fix_post	2		12	19.0	2.5	/experiments/Knapen_AOT/AOT_stimuli/rescaled_final/0320_rv.mp4	0.0	154.36930632591248	0.10002517700195312
22	125.36865735054016	fix_pre	0		118	20.0	2.5	blank	1.0	154.46933150291443	0.9834573268890381
22	126.34449172019958	pulse	0	t		20.0	2.5	blank	1.0	155.44516587257385	
22	126.3521146774292	movie	1		301	20.0	2.5	blank	1.0	155.45278882980347	2.508699417114258
22	127.9443883895874	pulse	1	t		20.0	2.5	blank	1.0	157.04506254196167	
22	128.86081409454346	fix_post	2		12	20.0	2.5	blank	1.0	157.96148824691772	0.10002446174621582
23	128.96083855628967	fix_pre	0		120	21.0	2.5	/experiments/Knapen_AOT/AOT_stimuli/rescaled_final/1324_fw.mp4	0.0	158.06151270866394	1.008521556854248
23	129.5446264743805	pulse	0	t		21.0	2.5	/experiments/Knapen_AOT/AOT_stimuli/rescaled_final/1324_fw.mp4	0.0	158.64530062675476	
23	129.96936011314392	movie	1		286	21.0	2.5	/experiments/Knapen_AOT/AOT_stimuli/rescaled_final/1324_fw.mp4	0.0	159.0700342655182	2.4920265674591064
23	131.14471673965454	pulse	1	t		21.0	2.5	/experiments/Knapen_AOT/AOT_stimuli/rescaled_final/1324_fw.mp4	0.0	160.2453908920288	
23	132.46138668060303	fix_post	2		12	21.0	2.5	/experiments/Knapen_AOT/AOT_stimuli/rescaled_final/1324_fw.mp4	0.0	161.5620608329773	0.10007309913635254
24	132.56145977973938	fix_pre	0		120	22.0	2.5	/experiments/Knapen_AOT/AOT_stimuli/rescaled_final/1716_fw.mp4	0.0	161.66213393211365	1.0085172653198242
24	132.74502849578857	pulse	0	t		22.0	2.5	/experiments/Knapen_AOT/AOT_stimuli/rescaled_final/1716_fw.mp4	0.0	161.84570264816284	
24	133.5699770450592	movie	1		286	22.0	2.5	/experiments/Knapen_AOT/AOT_stimuli/rescaled_final/1716_fw.mp4	0.0	162.67065119743347	2.491926908493042
24	134.34534430503845	pulse	1	t		22.0	2.5	/experiments/Knapen_AOT/AOT_stimuli/rescaled_final/1716_fw.mp4	0.0	163.44601845741272	
24	135.94534945487976	pulse	1	t		22.0	2.5	/experiments/Knapen_AOT/AOT_stimuli/rescaled_final/1716_fw.mp4	0.0	165.04602360725403	
24	136.06190395355225	fix_post	2		12	22.0	2.5	/experiments/Knapen_AOT/AOT_stimuli/rescaled_final/1716_fw.mp4	0.0	165.1625781059265	0.09997773170471191
25	136.16188168525696	fix_pre	0		120	23.0	2.5	/experiments/Knapen_AOT/AOT_stimuli/rescaled_final/0950_fw.mp4	0.0	165.26255583763123	1.008561611175537
25	137.1704432964325	movie	1		293	23.0	2.5	/experiments/Knapen_AOT/AOT_stimuli/rescaled_final/0950_fw.mp4	0.0	166.27111744880676	2.492016315460205
25	137.54563641548157	pulse	1	t		23.0	2.5	/experiments/Knapen_AOT/AOT_stimuli/rescaled_final/0950_fw.mp4	0.0	166.64631056785583	
25	139.1447868347168	pulse	1	t		23.0	2.5	/experiments/Knapen_AOT/AOT_stimuli/rescaled_final/0950_fw.mp4	0.0	168.24546098709106	
25	139.6624596118927	fix_post	2		12	23.0	2.5	/experiments/Knapen_AOT/AOT_stimuli/rescaled_final/0950_fw.mp4	0.0	168.76313376426697	0.10001182556152344
26	139.76247143745422	fix_pre	0		119	24.0	2.5	/experiments/Knapen_AOT/AOT_stimuli/rescaled_final/1968_rv.mp4	0.0	168.8631455898285	1.0001294612884521
26	140.74613118171692	pulse	0	t		24.0	2.5	/experiments/Knapen_AOT/AOT_stimuli/rescaled_final/1968_rv.mp4	0.0	169.8468053340912	
26	140.76260089874268	movie	1		292	24.0	2.5	/experiments/Knapen_AOT/AOT_stimuli/rescaled_final/1968_rv.mp4	0.0	169.86327505111694	2.500377893447876
26	142.34636926651	pulse	1	t		24.0	2.5	/experiments/Knapen_AOT/AOT_stimuli/rescaled_final/1968_rv.mp4	0.0	171.44704341888428	
26	143.26297879219055	fix_post	2		12	24.0	2.5	/experiments/Knapen_AOT/AOT_stimuli/rescaled_final/1968_rv.mp4	0.0	172.36365294456482	0.10002970695495605
27	143.3630084991455	fix_pre	0		120	25.0	2.5	/experiments/Knapen_AOT/AOT_stimuli/rescaled_final/0612_rv.mp4	0.0	172.46368265151978	1.0085833072662354
27	143.9466598033905	pulse	0	t		25.0	2.5	/experiments/Knapen_AOT/AOT_stimuli/rescaled_final/0612_rv.mp4	0.0	173.04733395576477	
27	144.37159180641174	movie	1		290	25.0	2.5	/experiments/Knapen_AOT/AOT_stimuli/rescaled_final/0612_rv.mp4	0.0	173.472265958786	2.4919934272766113
27	145.54711532592773	pulse	1	t		25.0	2.5	/experiments/Knapen_AOT/AOT_stimuli/rescaled_final/0612_rv.mp4	0.0	174.647789478302	
27	146.86358523368835	fix_post	2		12	25.0	2.5	/experiments/Knapen_AOT/AOT_stimuli/rescaled_final/0612_rv.mp4	0.0	175.96425938606262	0.09994697570800781
28	146.96353220939636	fix_pre	0		120	26.0	2.5	blank	1.0	176.06420636177063	1.0001652240753174
28	147.14712643623352	pulse	0	t		26.0	2.5	blank	1.0	176.2478005886078	
28	147.96369743347168	movie	1		300	26.0	2.5	blank	1.0	177.06437158584595	2.5003950595855713
28	148.7473385334015	pulse	1	t		26.0	2.5	blank	1.0	177.84801268577576	
28	150.34759044647217	pulse	1	t		26.0	2.5	blank	1.0	179.44826459884644	
28	150.46409249305725	fix_post	2		12	26.0	2.5	blank	1.0	179.56476664543152	0.09998583793640137
29	150.56407833099365	fix_pre	0		120	27.0	2.5	/experiments/Knapen_AOT/AOT_stimuli/rescaled_final/1177_rv.mp4	0.0	179.66475248336792	1.0085527896881104
29	151.57263112068176	movie	1		273	27.0	2.5	/experiments/Knapen_AOT/AOT_stimuli/rescaled_final/1177_rv.mp4	0.0	180.67330527305603	2.4836671352386475
29	151.94710636138916	pulse	1	t		27.0	2.5	/experiments/Knapen_AOT/AOT_stimuli/rescaled_final/1177_rv.mp4	0.0	181.04778051376343	
29	153.54598665237427	pulse	1	t		27.0	2.5	/experiments/Knapen_AOT/AOT_stimuli/rescaled_final/1177_rv.mp4	0.0	182.64666080474854	
29	154.0562982559204	fix_post	2		13	27.0	2.5	/experiments/Knapen_AOT/AOT_stimuli/rescaled_final/1177_rv.mp4	0.0	183.15697240829468	0.10850930213928223
30	154.1648075580597	fix_pre	0		119	28.0	2.5	/experiments/Knapen_AOT/AOT_stimuli/rescaled_final/0280_rv.mp4	0.0	183.26548171043396	1.0000269412994385
30	155.1486644744873	pulse	0	t		28.0	2.5	/experiments/Knapen_AOT/AOT_stimuli/rescaled_final/0280_rv.mp4	0.0	184.24933862686157	
30	155.16483449935913	movie	1		290	28.0	2.5	/experiments/Knapen_AOT/AOT_stimuli/rescaled_final/0280_rv.mp4	0.0	184.2655086517334	2.5003304481506348
30	156.74699091911316	pulse	1	t		28.0	2.5	/experiments/Knapen_AOT/AOT_stimuli/rescaled_final/0280_rv.mp4	0.0	185.84766507148743	
30	157.66516494750977	fix_post	2		12	28.0	2.5	/experiments/Knapen_AOT/AOT_stimuli/rescaled_final/0280_rv.mp4	0.0	186.76583909988403	0.10002636909484863
31	157.76519131660461	fix_pre	0		120	29.0	2.5	/experiments/Knapen_AOT/AOT_stimuli/rescaled_final/0715_fw.mp4	0.0	186.86586546897888	1.00852370262146
31	158.34882235527039	pulse	0	t		29.0	2.5	/experiments/Knapen_AOT/AOT_stimuli/rescaled_final/0715_fw.mp4	0.0	187.44949650764465	
31	158.77371501922607	movie	1		293	29.0	2.5	/experiments/Knapen_AOT/AOT_stimuli/rescaled_final/0715_fw.mp4	0.0	187.87438917160034	2.4919850826263428
31	159.94715237617493	pulse	1	t		29.0	2.5	/experiments/Knapen_AOT/AOT_stimuli/rescaled_final/0715_fw.mp4	0.0	189.0478265285492	
31	161.26570010185242	fix_post	2		12	29.0	2.5	/experiments/Knapen_AOT/AOT_stimuli/rescaled_final/0715_fw.mp4	0.0	190.36637425422668	0.10001397132873535
32	161.36571407318115	fix_pre	0		120	30.0	2.5	/experiments/Knapen_AOT/AOT_stimuli/rescaled_final/1823_fw.mp4	0.0	190.46638822555542	1.0085225105285645
32	161.5492649078369	pulse	0	t		30.0	2.5	/experiments/Knapen_AOT/AOT_stimuli/rescaled_final/1823_fw.mp4	0.0	190.64993906021118	
32	162.37423658370972	movie	1		298	30.0	2.5	/experiments/Knapen_AOT/AOT_stimuli/rescaled_final/1823_fw.mp4	0.0	191.47491073608398	2.4920668601989746
32	163.14501953125	pulse	1	t		30.0	2.5	/experiments/Knapen_AOT/AOT_stimuli/rescaled_final/1823_fw.mp4	0.0	192.24569368362427	
32	164.7454173564911	pulse	1	t		30.0	2.5	/experiments/Knapen_AOT/AOT_stimuli/rescaled_final/1823_fw.mp4	0.0	193.84609150886536	
32	164.8663034439087	fix_post	2		12	30.0	2.5	/experiments/Knapen_AOT/AOT_stimuli/rescaled_final/1823_fw.mp4	0.0	193.96697759628296	0.10006380081176758
33	164.96636724472046	fix_pre	0		120	31.0	2.5	/experiments/Knapen_AOT/AOT_stimuli/rescaled_final/1798_rv.mp4	0.0	194.06704139709473	1.0000431537628174
33	165.96641039848328	movie	1		296	31.0	2.5	/experiments/Knapen_AOT/AOT_stimuli/rescaled_final/1798_rv.mp4	0.0	195.06708455085754	2.5003674030303955
33	166.34600710868835	pulse	1	t		31.0	2.5	/experiments/Knapen_AOT/AOT_stimuli/rescaled_final/1798_rv.mp4	0.0	195.44668126106262	
33	167.9457652568817	pulse	1	t		31.0	2.5	/experiments/Knapen_AOT/AOT_stimuli/rescaled_final/1798_rv.mp4	0.0	197.04643940925598	
33	168.46677780151367	fix_post	2		12	31.0	2.5	/experiments/Knapen_AOT/AOT_stimuli/rescaled_final/1798_rv.mp4	0.0	197.56745195388794	0.10002684593200684
34	168.56680464744568	fix_pre	0		119	32.0	2.5	/experiments/Knapen_AOT/AOT_stimuli/rescaled_final/1764_fw.mp4	0.0	197.66747879981995	1.0001907348632812
34	169.55058979988098	pulse	0	t		32.0	2.5	/experiments/Knapen_AOT/AOT_stimuli/rescaled_final/1764_fw.mp4	0.0	198.65126395225525	
34	169.56699538230896	movie	1		290	32.0	2.5	/experiments/Knapen_AOT/AOT_stimuli/rescaled_final/1764_fw.mp4	0.0	198.66766953468323	2.500308036804199
34	171.14830780029297	pulse	1	t		32.0	2.5	/experiments/Knapen_AOT/AOT_stimuli/rescaled_final/1764_fw.mp4	0.0	200.24898195266724	
34	172.06730341911316	fix_post	2		12	32.0	2.5	/experiments/Knapen_AOT/AOT_stimuli/rescaled_final/1764_fw.mp4	0.0	201.16797757148743	0.10002684593200684
35	172.16733026504517	fix_pre	0		120	33.0	2.5	blank	1.0	201.26800441741943	1.000168800354004
35	172.7513144016266	pulse	0	t		33.0	2.5	blank	1.0	201.85198855400085	
35	173.16749906539917	movie	1		300	33.0	2.5	blank	1.0	202.26817321777344	2.5003910064697266
35	174.35162925720215	pulse	1	t		33.0	2.5	blank	1.0	203.45230340957642	
35	175.6678900718689	fix_post	2		12	33.0	2.5	blank	1.0	204.76856422424316	0.1000361442565918
36	175.7679262161255	fix_pre	0		120	34.0	2.5	/experiments/Knapen_AOT/AOT_stimuli/rescaled_final/0261_fw.mp4	0.0	204.86860036849976	1.0084638595581055
36	175.94469809532166	pulse	0	t		34.0	2.5	/experiments/Knapen_AOT/AOT_stimuli/rescaled_final/0261_fw.mp4	0.0	205.04537224769592	
36	176.7763900756836	movie	1		285	34.0	2.5	/experiments/Knapen_AOT/AOT_stimuli/rescaled_final/0261_fw.mp4	0.0	205.87706422805786	2.4920766353607178
36	177.54953813552856	pulse	1	t		34.0	2.5	/experiments/Knapen_AOT/AOT_stimuli/rescaled_final/0261_fw.mp4	0.0	206.65021228790283	
36	179.14999151229858	pulse	1	t		34.0	2.5	/experiments/Knapen_AOT/AOT_stimuli/rescaled_final/0261_fw.mp4	0.0	208.25066566467285	
36	179.2684667110443	fix_post	2		12	34.0	2.5	/experiments/Knapen_AOT/AOT_stimuli/rescaled_final/0261_fw.mp4	0.0	208.36914086341858	0.09997177124023438
37	179.36843848228455	fix_pre	0		120	35.0	2.5	/experiments/Knapen_AOT/AOT_stimuli/rescaled_final/1444_rv.mp4	0.0	208.4691126346588	1.0085415840148926
37	180.37698006629944	movie	1		284	35.0	2.5	/experiments/Knapen_AOT/AOT_stimuli/rescaled_final/1444_rv.mp4	0.0	209.4776542186737	2.4920148849487305
37	180.7508406639099	pulse	1	t		35.0	2.5	/experiments/Knapen_AOT/AOT_stimuli/rescaled_final/1444_rv.mp4	0.0	209.85151481628418	
37	182.3502585887909	pulse	1	t		35.0	2.5	/experiments/Knapen_AOT/AOT_stimuli/rescaled_final/1444_rv.mp4	0.0	211.45093274116516	
37	182.86899495124817	fix_post	2		12	35.0	2.5	/experiments/Knapen_AOT/AOT_stimuli/rescaled_final/1444_rv.mp4	0.0	211.96966910362244	0.1000971794128418
38	182.969092130661	fix_pre	0		119	36.0	2.5	/experiments/Knapen_AOT/AOT_stimuli/rescaled_final/1715_rv.mp4	0.0	212.06976628303528	1.0001072883605957
38	183.94479966163635	pulse	0	t		36.0	2.5	/experiments/Knapen_AOT/AOT_stimuli/rescaled_final/1715_rv.mp4	0.0	213.04547381401062	
38	183.9691994190216	movie	1		296	36.0	2.5	/experiments/Knapen_AOT/AOT_stimuli/rescaled_final/1715_rv.mp4	0.0	213.06987357139587	2.500276565551758
38	185.5446276664734	pulse	1	t		36.0	2.5	/experiments/Knapen_AOT/AOT_stimuli/rescaled_final/1715_rv.mp4	0.0	214.64530181884766	
38	186.46947598457336	fix_post	2		12	36.0	2.5	/experiments/Knapen_AOT/AOT_stimuli/rescaled_final/1715_rv.mp4	0.0	215.57015013694763	0.10001969337463379
39	186.569495677948	fix_pre	0		120	37.0	2.5	/experiments/Knapen_AOT/AOT_stimuli/rescaled_final/1118_rv.mp4	0.0	215.67016983032227	1.0001521110534668
39	187.14473676681519	pulse	0	t		37.0	2.5	/experiments/Knapen_AOT/AOT_stimuli/rescaled_final/1118_rv.mp4	0.0	216.24541091918945	
39	187.56964778900146	movie	1		295	37.0	2.5	/experiments/Knapen_AOT/AOT_stimuli/rescaled_final/1118_rv.mp4	0.0	216.67032194137573	2.50053071975708
39	188.74500441551208	pulse	1	t		37.0	2.5	/experiments/Knapen_AOT/AOT_stimuli/rescaled_final/1118_rv.mp4	0.0	217.84567856788635	
39	190.07017850875854	fix_post	2		12	37.0	2.5	/experiments/Knapen_AOT/AOT_stimuli/rescaled_final/1118_rv.mp4	0.0	219.1708526611328	0.09987926483154297
40	190.1700577735901	fix_pre	0		120	38.0	2.5	/experiments/Knapen_AOT/AOT_stimuli/rescaled_final/1586_fw.mp4	0.0	219.27073192596436	1.0084693431854248
40	190.34522771835327	pulse	0	t		38.0	2.5	/experiments/Knapen_AOT/AOT_stimuli/rescaled_final/1586_fw.mp4	0.0	219.44590187072754	
40	191.1785271167755	movie	1		294	38.0	2.5	/experiments/Knapen_AOT/AOT_stimuli/rescaled_final/1586_fw.mp4	0.0	220.27920126914978	2.492095947265625
40	191.9454700946808	pulse	1	t		38.0	2.5	/experiments/Knapen_AOT/AOT_stimuli/rescaled_final/1586_fw.mp4	0.0	221.04614424705505	
40	193.5457422733307	pulse	1	t		38.0	2.5	/experiments/Knapen_AOT/AOT_stimuli/rescaled_final/1586_fw.mp4	0.0	222.64641642570496	
40	193.67062306404114	fix_post	2		12	38.0	2.5	/experiments/Knapen_AOT/AOT_stimuli/rescaled_final/1586_fw.mp4	0.0	222.7712972164154	0.1000070571899414
41	193.77063012123108	fix_pre	0		120	39.0	2.5	/experiments/Knapen_AOT/AOT_stimuli/rescaled_final/1116_fw.mp4	0.0	222.87130427360535	1.0084922313690186
41	194.7791223526001	movie	1		293	39.0	2.5	/experiments/Knapen_AOT/AOT_stimuli/rescaled_final/1116_fw.mp4	0.0	223.87979650497437	2.491992712020874
41	195.14615297317505	pulse	1	t		39.0	2.5	/experiments/Knapen_AOT/AOT_stimuli/rescaled_final/1116_fw.mp4	0.0	224.24682712554932	
41	196.74615597724915	pulse	1	t		39.0	2.5	/experiments/Knapen_AOT/AOT_stimuli/rescaled_final/1116_fw.mp4	0.0	225.8468301296234	
41	197.27111506462097	fix_post	2		12	39.0	2.5	/experiments/Knapen_AOT/AOT_stimuli/rescaled_final/1116_fw.mp4	0.0	226.37178921699524	0.10002899169921875
42	197.3711440563202	fix_pre	0		118	40.0	2.5	/experiments/Knapen_AOT/AOT_stimuli/rescaled_final/1615_rv.mp4	0.0	226.47181820869446	0.9918088912963867
42	198.34648180007935	pulse	0	t		40.0	2.5	/experiments/Knapen_AOT/AOT_stimuli/rescaled_final/1615_rv.mp4	0.0	227.4471559524536	
42	198.36295294761658	movie	1		292	40.0	2.5	/experiments/Knapen_AOT/AOT_stimuli/rescaled_final/1615_rv.mp4	0.0	227.46362709999084	2.5004303455352783
42	199.94502139091492	pulse	1	t		40.0	2.5	/experiments/Knapen_AOT/AOT_stimuli/rescaled_final/1615_rv.mp4	0.0	229.04569554328918	
42	200.86338329315186	fix_post	2		12	40.0	2.5	/experiments/Knapen_AOT/AOT_stimuli/rescaled_final/1615_rv.mp4	0.0	229.96405744552612	0.09995126724243164
43	200.9633345603943	fix_pre	0		120	41.0	2.5	blank	1.0	230.06400871276855	1.0001599788665771
43	201.54697632789612	pulse	0	t		41.0	2.5	blank	1.0	230.64765048027039	
43	201.96349453926086	movie	1		300	41.0	2.5	blank	1.0	231.06416869163513	2.5003864765167236
43	203.14738631248474	pulse	1	t		41.0	2.5	blank	1.0	232.248060464859	
43	204.4638810157776	fix_post	2		12	41.0	2.5	blank	1.0	233.56455516815186	0.10003089904785156
44	204.56391191482544	fix_pre	0		120	42.0	2.5	/experiments/Knapen_AOT/AOT_stimuli/rescaled_final/0720_fw.mp4	0.0	233.6645860671997	1.0084753036499023
44	204.74755454063416	pulse	0	t		42.0	2.5	/experiments/Knapen_AOT/AOT_stimuli/rescaled_final/0720_fw.mp4	0.0	233.84822869300842	
44	205.57238721847534	movie	1		275	42.0	2.5	/experiments/Knapen_AOT/AOT_stimuli/rescaled_final/0720_fw.mp4	0.0	234.6730613708496	2.492046594619751
44	206.34637308120728	pulse	1	t		42.0	2.5	/experiments/Knapen_AOT/AOT_stimuli/rescaled_final/0720_fw.mp4	0.0	235.44704723358154	
44	207.9461534023285	pulse	1	t		42.0	2.5	/experiments/Knapen_AOT/AOT_stimuli/rescaled_final/0720_fw.mp4	0.0	237.04682755470276	
44	208.0644338130951	fix_post	2		12	42.0	2.5	/experiments/Knapen_AOT/AOT_stimuli/rescaled_final/0720_fw.mp4	0.0	237.16510796546936	0.10001087188720703
45	208.1644446849823	fix_pre	0		120	43.0	2.5	/experiments/Knapen_AOT/AOT_stimuli/rescaled_final/0424_fw.mp4	0.0	237.26511883735657	1.008507251739502
45	209.1729519367218	movie	1		280	43.0	2.5	/experiments/Knapen_AOT/AOT_stimuli/rescaled_final/0424_fw.mp4	0.0	238.27362608909607	2.4920287132263184
45	209.5467233657837	pulse	1	t		43.0	2.5	/experiments/Knapen_AOT/AOT_stimuli/rescaled_final/0424_fw.mp4	0.0	238.64739751815796	
45	211.1489396095276	pulse	1	t		43.0	2.5	/experiments/Knapen_AOT/AOT_stimuli/rescaled_final/0424_fw.mp4	0.0	240.24961376190186	
45	211.66498064994812	fix_post	2		12	43.0	2.5	/experiments/Knapen_AOT/AOT_stimuli/rescaled_final/0424_fw.mp4	0.0	240.7656548023224	0.10004258155822754
46	211.76502323150635	fix_pre	0		119	44.0	2.5	/experiments/Knapen_AOT/AOT_stimuli/rescaled_final/1273_fw.mp4	0.0	240.86569738388062	1.0001215934753418
46	212.7489631175995	pulse	0	t		44.0	2.5	/experiments/Knapen_AOT/AOT_stimuli/rescaled_final/1273_fw.mp4	0.0	241.84963726997375	
46	212.7651448249817	movie	1		272	44.0	2.5	/experiments/Knapen_AOT/AOT_stimuli/rescaled_final/1273_fw.mp4	0.0	241.86581897735596	2.500417709350586
46	214.34892511367798	pulse	1	t		44.0	2.5	/experiments/Knapen_AOT/AOT_stimuli/rescaled_final/1273_fw.mp4	0.0	243.44959926605225	
46	215.26556253433228	fix_post	2		12	44.0	2.5	/experiments/Knapen_AOT/AOT_stimuli/rescaled_final/1273_fw.mp4	0.0	244.36623668670654	0.09998178482055664
47	215.36554431915283	fix_pre	0		120	45.0	2.5	/experiments/Knapen_AOT/AOT_stimuli/rescaled_final/0086_rv.mp4	0.0	244.4662184715271	1.0085160732269287
47	215.94919061660767	pulse	0	t		45.0	2.5	/experiments/Knapen_AOT/AOT_stimuli/rescaled_final/0086_rv.mp4	0.0	245.04986476898193	
47	216.37406039237976	movie	1		271	45.0	2.5	/experiments/Knapen_AOT/AOT_stimuli/rescaled_final/0086_rv.mp4	0.0	245.47473454475403	2.4920172691345215
47	217.5477864742279	pulse	1	t		45.0	2.5	/experiments/Knapen_AOT/AOT_stimuli/rescaled_final/0086_rv.mp4	0.0	246.64846062660217	
47	218.86607766151428	fix_post	2		12	45.0	2.5	/experiments/Knapen_AOT/AOT_stimuli/rescaled_final/0086_rv.mp4	0.0	247.96675181388855	0.10007166862487793
48	218.96614933013916	fix_pre	0		120	46.0	2.5	/experiments/Knapen_AOT/AOT_stimuli/rescaled_final/1896_rv.mp4	0.0	248.06682348251343	1.0085041522979736
48	219.14964532852173	pulse	0	t		46.0	2.5	/experiments/Knapen_AOT/AOT_stimuli/rescaled_final/1896_rv.mp4	0.0	248.250319480896	
48	219.97465348243713	movie	1		280	46.0	2.5	/experiments/Knapen_AOT/AOT_stimuli/rescaled_final/1896_rv.mp4	0.0	249.0753276348114	2.4919402599334717
48	220.7480068206787	pulse	1	t		46.0	2.5	/experiments/Knapen_AOT/AOT_stimuli/rescaled_final/1896_rv.mp4	0.0	249.84868097305298	
48	222.34819507598877	pulse	1	t		46.0	2.5	/experiments/Knapen_AOT/AOT_stimuli/rescaled_final/1896_rv.mp4	0.0	251.44886922836304	
48	222.4665937423706	fix_post	2		12	46.0	2.5	/experiments/Knapen_AOT/AOT_stimuli/rescaled_final/1896_rv.mp4	0.0	251.56726789474487	0.10002899169921875
49	222.56662273406982	fix_pre	0		120	47.0	2.5	blank	1.0	251.6672968864441	1.0001475811004639
49	223.5667703151703	movie	1		300	47.0	2.5	blank	1.0	252.66744446754456	2.500375270843506
49	223.95034289360046	pulse	1	t		47.0	2.5	blank	1.0	253.05101704597473	
49	225.55075335502625	pulse	1	t		47.0	2.5	blank	1.0	254.6514275074005	
49	226.0671455860138	fix_post	2		12	47.0	2.5	blank	1.0	255.16781973838806	0.10002732276916504
50	226.16717290878296	fix_pre	0		119	48.0	2.5	/experiments/Knapen_AOT/AOT_stimuli/rescaled_final/1600_rv.mp4	0.0	255.26784706115723	1.0085506439208984
50	227.15100002288818	pulse	0	t		48.0	2.5	/experiments/Knapen_AOT/AOT_stimuli/rescaled_final/1600_rv.mp4	0.0	256.25167417526245	
50	227.17572355270386	movie	1		282	48.0	2.5	/experiments/Knapen_AOT/AOT_stimuli/rescaled_final/1600_rv.mp4	0.0	256.2763977050781	2.4919791221618652
50	228.74948358535767	pulse	1	t		48.0	2.5	/experiments/Knapen_AOT/AOT_stimuli/rescaled_final/1600_rv.mp4	0.0	257.85015773773193	
50	229.66770267486572	fix_post	2		12	48.0	2.5	/experiments/Knapen_AOT/AOT_stimuli/rescaled_final/1600_rv.mp4	0.0	258.76837682724	0.10000896453857422
51	229.7677116394043	fix_pre	0		120	49.0	2.5	/experiments/Knapen_AOT/AOT_stimuli/rescaled_final/0364_fw.mp4	0.0	258.86838579177856	1.0085368156433105
51	230.35142612457275	pulse	0	t		49.0	2.5	/experiments/Knapen_AOT/AOT_stimuli/rescaled_final/0364_fw.mp4	0.0	259.452100276947	
51	230.7762484550476	movie	1		276	49.0	2.5	/experiments/Knapen_AOT/AOT_stimuli/rescaled_final/0364_fw.mp4	0.0	259.8769226074219	2.4919652938842773
51	231.9520971775055	pulse	1	t		49.0	2.5	/experiments/Knapen_AOT/AOT_stimuli/rescaled_final/0364_fw.mp4	0.0	261.05277132987976	
51	233.26821374893188	fix_post	2		12	49.0	2.5	/experiments/Knapen_AOT/AOT_stimuli/rescaled_final/0364_fw.mp4	0.0	262.36888790130615	0.10002851486206055
52	233.36824226379395	fix_pre	0		120	50.0	2.5	/experiments/Knapen_AOT/AOT_stimuli/rescaled_final/0859_fw.mp4	0.0	262.4689164161682	1.0084972381591797
52	233.55179238319397	pulse	0	t		50.0	2.5	/experiments/Knapen_AOT/AOT_stimuli/rescaled_final/0859_fw.mp4	0.0	262.65246653556824	
52	234.37673950195312	movie	1		278	50.0	2.5	/experiments/Knapen_AOT/AOT_stimuli/rescaled_final/0859_fw.mp4	0.0	263.4774136543274	2.492055654525757
52	235.15025973320007	pulse	1	t		50.0	2.5	/experiments/Knapen_AOT/AOT_stimuli/rescaled_final/0859_fw.mp4	0.0	264.25093388557434	
52	236.7505898475647	pulse	1	t		50.0	2.5	/experiments/Knapen_AOT/AOT_stimuli/rescaled_final/0859_fw.mp4	0.0	265.85126399993896	
52	236.86879515647888	fix_post	2		12	50.0	2.5	/experiments/Knapen_AOT/AOT_stimuli/rescaled_final/0859_fw.mp4	0.0	265.96946930885315	0.10010290145874023
53	236.96889805793762	fix_pre	0		120	51.0	2.5	/experiments/Knapen_AOT/AOT_stimuli/rescaled_final/1334_rv.mp4	0.0	266.0695722103119	1.0083820819854736
53	237.9772801399231	movie	1		280	51.0	2.5	/experiments/Knapen_AOT/AOT_stimuli/rescaled_final/1334_rv.mp4	0.0	267.07795429229736	2.492051362991333
53	238.35130786895752	pulse	1	t		51.0	2.5	/experiments/Knapen_AOT/AOT_stimuli/rescaled_final/1334_rv.mp4	0.0	267.4519820213318	
53	239.9508078098297	pulse	1	t		51.0	2.5	/experiments/Knapen_AOT/AOT_stimuli/rescaled_final/1334_rv.mp4	0.0	269.051481962204	
53	240.46933150291443	fix_post	2		12	51.0	2.5	/experiments/Knapen_AOT/AOT_stimuli/rescaled_final/1334_rv.mp4	0.0	269.5700056552887	0.10002803802490234
54	240.56935954093933	fix_pre	0		119	52.0	2.5	/experiments/Knapen_AOT/AOT_stimuli/rescaled_final/1460_rv.mp4	0.0	269.6700336933136	1.0001404285430908
54	241.54562830924988	pulse	0	t		52.0	2.5	/experiments/Knapen_AOT/AOT_stimuli/rescaled_final/1460_rv.mp4	0.0	270.64630246162415	
54	241.56949996948242	movie	1		274	52.0	2.5	/experiments/Knapen_AOT/AOT_stimuli/rescaled_final/1460_rv.mp4	0.0	270.6701741218567	2.500396728515625
54	243.15331745147705	pulse	1	t		52.0	2.5	/experiments/Knapen_AOT/AOT_stimuli/rescaled_final/1460_rv.mp4	0.0	272.2539916038513	
54	244.06989669799805	fix_post	2		12	52.0	2.5	/experiments/Knapen_AOT/AOT_stimuli/rescaled_final/1460_rv.mp4	0.0	273.1705708503723	0.10004782676696777
55	244.16994452476501	fix_pre	0		120	53.0	2.5	/experiments/Knapen_AOT/AOT_stimuli/rescaled_final/1890_fw.mp4	0.0	273.2706186771393	1.0084736347198486
55	244.74531936645508	pulse	0	t		53.0	2.5	/experiments/Knapen_AOT/AOT_stimuli/rescaled_final/1890_fw.mp4	0.0	273.84599351882935	
55	245.17841815948486	movie	1		285	53.0	2.5	/experiments/Knapen_AOT/AOT_stimuli/rescaled_final/1890_fw.mp4	0.0	274.27909231185913	2.4919614791870117
55	246.3454568386078	pulse	1	t		53.0	2.5	/experiments/Knapen_AOT/AOT_stimuli/rescaled_final/1890_fw.mp4	0.0	275.44613099098206	
55	247.67037963867188	fix_post	2		12	53.0	2.5	/experiments/Knapen_AOT/AOT_stimuli/rescaled_final/1890_fw.mp4	0.0	276.77105379104614	0.10003423690795898
56	247.77041387557983	fix_pre	0		120	54.0	2.5	blank	1.0	276.8710880279541	1.000183343887329
56	247.94567036628723	pulse	0	t		54.0	2.5	blank	1.0	277.0463445186615	
56	248.77059721946716	movie	1		300	54.0	2.5	blank	1.0	277.87127137184143	2.5003502368927
56	249.54594111442566	pulse	1	t		54.0	2.5	blank	1.0	278.6466152667999	
56	251.14622020721436	pulse	1	t		54.0	2.5	blank	1.0	280.2468943595886	
56	251.27094745635986	fix_post	2		12	54.0	2.5	blank	1.0	280.37162160873413	0.10001397132873535
57	251.3709614276886	fix_pre	0		120	55.0	2.5	/experiments/Knapen_AOT/AOT_stimuli/rescaled_final/1792_fw.mp4	0.0	280.47163558006287	1.0085244178771973
57	252.3794858455658	movie	1		289	55.0	2.5	/experiments/Knapen_AOT/AOT_stimuli/rescaled_final/1792_fw.mp4	0.0	281.48015999794006	2.491986036300659
57	252.74647498130798	pulse	1	t		55.0	2.5	/experiments/Knapen_AOT/AOT_stimuli/rescaled_final/1792_fw.mp4	0.0	281.84714913368225	
57	254.34658479690552	pulse	1	t		55.0	2.5	/experiments/Knapen_AOT/AOT_stimuli/rescaled_final/1792_fw.mp4	0.0	283.4472589492798	
57	254.87147188186646	fix_post	2		12	55.0	2.5	/experiments/Knapen_AOT/AOT_stimuli/rescaled_final/1792_fw.mp4	0.0	283.9721460342407	0.10007739067077637
58	254.97154927253723	fix_pre	0		118	56.0	2.5	/experiments/Knapen_AOT/AOT_stimuli/rescaled_final/1375_rv.mp4	0.0	284.0722234249115	0.9917707443237305
58	255.94694805145264	pulse	0	t		56.0	2.5	/experiments/Knapen_AOT/AOT_stimuli/rescaled_final/1375_rv.mp4	0.0	285.0476222038269	
58	255.96332001686096	movie	1		275	56.0	2.5	/experiments/Knapen_AOT/AOT_stimuli/rescaled_final/1375_rv.mp4	0.0	285.06399416923523	2.5004124641418457
58	257.54619789123535	pulse	1	t		56.0	2.5	/experiments/Knapen_AOT/AOT_stimuli/rescaled_final/1375_rv.mp4	0.0	286.6468720436096	
58	258.4637324810028	fix_post	2		12	56.0	2.5	/experiments/Knapen_AOT/AOT_stimuli/rescaled_final/1375_rv.mp4	0.0	287.5644066333771	0.09997057914733887
59	258.56370306015015	fix_pre	0		120	57.0	2.5	/experiments/Knapen_AOT/AOT_stimuli/rescaled_final/0648_rv.mp4	0.0	287.6643772125244	1.0085139274597168
59	259.1474404335022	pulse	0	t		57.0	2.5	/experiments/Knapen_AOT/AOT_stimuli/rescaled_final/0648_rv.mp4	0.0	288.24811458587646	
59	259.57221698760986	movie	1		279	57.0	2.5	/experiments/Knapen_AOT/AOT_stimuli/rescaled_final/0648_rv.mp4	0.0	288.67289113998413	2.4921200275421143
59	260.74585342407227	pulse	1	t		57.0	2.5	/experiments/Knapen_AOT/AOT_stimuli/rescaled_final/0648_rv.mp4	0.0	289.84652757644653	
59	262.064337015152	fix_post	2		12	57.0	2.5	/experiments/Knapen_AOT/AOT_stimuli/rescaled_final/0648_rv.mp4	0.0	291.16501116752625	0.09990072250366211
60	262.16423773765564	fix_pre	0		120	58.0	2.5	/experiments/Knapen_AOT/AOT_stimuli/rescaled_final/0107_fw.mp4	0.0	291.2649118900299	1.0085346698760986
60	262.34784030914307	pulse	0	t		58.0	2.5	/experiments/Knapen_AOT/AOT_stimuli/rescaled_final/0107_fw.mp4	0.0	291.44851446151733	
60	263.17277240753174	movie	1		284	58.0	2.5	/experiments/Knapen_AOT/AOT_stimuli/rescaled_final/0107_fw.mp4	0.0	292.273446559906	2.491990327835083
60	263.9466004371643	pulse	1	t		58.0	2.5	/experiments/Knapen_AOT/AOT_stimuli/rescaled_final/0107_fw.mp4	0.0	293.0472745895386	
60	265.5465259552002	pulse	1	t		58.0	2.5	/experiments/Knapen_AOT/AOT_stimuli/rescaled_final/0107_fw.mp4	0.0	294.64720010757446	
60	265.6647627353668	fix_post	2		12	58.0	2.5	/experiments/Knapen_AOT/AOT_stimuli/rescaled_final/0107_fw.mp4	0.0	294.7654368877411	0.10003018379211426
61	265.76479291915894	fix_pre	0		120	59.0	2.5	/experiments/Knapen_AOT/AOT_stimuli/rescaled_final/2115_rv.mp4	0.0	294.8654670715332	1.0085241794586182
61	266.77331709861755	movie	1		284	59.0	2.5	/experiments/Knapen_AOT/AOT_stimuli/rescaled_final/2115_rv.mp4	0.0	295.8739912509918	2.49198842048645
61	267.14683175086975	pulse	1	t		59.0	2.5	/experiments/Knapen_AOT/AOT_stimuli/rescaled_final/2115_rv.mp4	0.0	296.247505903244	
61	268.74810910224915	pulse	1	t		59.0	2.5	/experiments/Knapen_AOT/AOT_stimuli/rescaled_final/2115_rv.mp4	0.0	297.8487832546234	
61	269.265305519104	fix_post	2		12	59.0	2.5	/experiments/Knapen_AOT/AOT_stimuli/rescaled_final/2115_rv.mp4	0.0	298.36597967147827	0.10002517700195312
62	269.36533069610596	fix_pre	0		119	60.0	2.5	/experiments/Knapen_AOT/AOT_stimuli/rescaled_final/1190_rv.mp4	0.0	298.4660048484802	1.008594036102295
62	270.3493137359619	pulse	0	t		60.0	2.5	/experiments/Knapen_AOT/AOT_stimuli/rescaled_final/1190_rv.mp4	0.0	299.4499878883362	
62	270.37392473220825	movie	1		276	60.0	2.5	/experiments/Knapen_AOT/AOT_stimuli/rescaled_final/1190_rv.mp4	0.0	299.4745988845825	2.4919512271881104
62	271.9476065635681	pulse	1	t		60.0	2.5	/experiments/Knapen_AOT/AOT_stimuli/rescaled_final/1190_rv.mp4	0.0	301.0482807159424	
62	272.86587595939636	fix_post	2		12	60.0	2.5	/experiments/Knapen_AOT/AOT_stimuli/rescaled_final/1190_rv.mp4	0.0	301.96655011177063	0.10003328323364258
63	272.96590924263	fix_pre	0		120	61.0	2.5	/experiments/Knapen_AOT/AOT_stimuli/rescaled_final/1681_rv.mp4	0.0	302.0665833950043	1.0084559917449951
63	273.54949378967285	pulse	0	t		61.0	2.5	/experiments/Knapen_AOT/AOT_stimuli/rescaled_final/1681_rv.mp4	0.0	302.6501679420471	
63	273.974365234375	movie	1		285	61.0	2.5	/experiments/Knapen_AOT/AOT_stimuli/rescaled_final/1681_rv.mp4	0.0	303.07503938674927	2.4920315742492676
63	275.14773082733154	pulse	1	t		61.0	2.5	/experiments/Knapen_AOT/AOT_stimuli/rescaled_final/1681_rv.mp4	0.0	304.2484049797058	
63	276.46639680862427	fix_post	2		12	61.0	2.5	/experiments/Knapen_AOT/AOT_stimuli/rescaled_final/1681_rv.mp4	0.0	305.56707096099854	0.1000065803527832
64	276.56640338897705	fix_pre	0		120	62.0	2.5	/experiments/Knapen_AOT/AOT_stimuli/rescaled_final/0594_rv.mp4	0.0	305.6670775413513	1.0085160732269287
64	276.7500205039978	pulse	0	t		62.0	2.5	/experiments/Knapen_AOT/AOT_stimuli/rescaled_final/0594_rv.mp4	0.0	305.85069465637207	
64	277.574919462204	movie	1		276	62.0	2.5	/experiments/Knapen_AOT/AOT_stimuli/rescaled_final/0594_rv.mp4	0.0	306.67559361457825	2.4920237064361572
64	278.35049510002136	pulse	1	t		62.0	2.5	/experiments/Knapen_AOT/AOT_stimuli/rescaled_final/0594_rv.mp4	0.0	307.45116925239563	
64	279.94849920272827	pulse	1	t		62.0	2.5	/experiments/Knapen_AOT/AOT_stimuli/rescaled_final/0594_rv.mp4	0.0	309.04917335510254	
64	280.06694316864014	fix_post	2		12	62.0	2.5	/experiments/Knapen_AOT/AOT_stimuli/rescaled_final/0594_rv.mp4	0.0	309.1676173210144	0.10019612312316895
65	280.1671392917633	fix_pre	0		120	63.0	2.5	blank	1.0	309.2678134441376	0.9999780654907227
65	281.167117357254	movie	1		300	63.0	2.5	blank	1.0	310.2677915096283	2.50036358833313
65	281.55070424079895	pulse	1	t		63.0	2.5	blank	1.0	310.6513783931732	
65	283.1509404182434	pulse	1	t		63.0	2.5	blank	1.0	312.2516145706177	
65	283.66748094558716	fix_post	2		12	63.0	2.5	blank	1.0	312.7681550979614	0.10003113746643066
66	283.7675120830536	fix_pre	0		119	64.0	2.5	/experiments/Knapen_AOT/AOT_stimuli/rescaled_final/0263_fw.mp4	0.0	312.86818623542786	1.0085835456848145
66	284.7513086795807	pulse	0	t		64.0	2.5	/experiments/Knapen_AOT/AOT_stimuli/rescaled_final/0263_fw.mp4	0.0	313.85198283195496	
66	284.7760956287384	movie	1		268	64.0	2.5	/experiments/Knapen_AOT/AOT_stimuli/rescaled_final/0263_fw.mp4	0.0	313.87676978111267	2.4919440746307373
66	286.35167598724365	pulse	1	t		64.0	2.5	/experiments/Knapen_AOT/AOT_stimuli/rescaled_final/0263_fw.mp4	0.0	315.4523501396179	
66	287.26803970336914	fix_post	2		12	64.0	2.5	/experiments/Knapen_AOT/AOT_stimuli/rescaled_final/0263_fw.mp4	0.0	316.3687138557434	0.10007667541503906
67	287.3681163787842	fix_pre	0		120	65.0	2.5	/experiments/Knapen_AOT/AOT_stimuli/rescaled_final/1449_rv.mp4	0.0	316.46879053115845	1.008432388305664
67	287.95172572135925	pulse	0	t		65.0	2.5	/experiments/Knapen_AOT/AOT_stimuli/rescaled_final/1449_rv.mp4	0.0	317.0523998737335	
67	288.37654876708984	movie	1		277	65.0	2.5	/experiments/Knapen_AOT/AOT_stimuli/rescaled_final/1449_rv.mp4	0.0	317.4772229194641	2.4920170307159424
67	289.5500268936157	pulse	1	t		65.0	2.5	/experiments/Knapen_AOT/AOT_stimuli/rescaled_final/1449_rv.mp4	0.0	318.65070104599	
67	290.8685657978058	fix_post	2		12	65.0	2.5	/experiments/Knapen_AOT/AOT_stimuli/rescaled_final/1449_rv.mp4	0.0	319.96923995018005	0.1000216007232666
68	290.96858739852905	fix_pre	0		120	66.0	2.5	/experiments/Knapen_AOT/AOT_stimuli/rescaled_final/0686_fw.mp4	0.0	320.0692615509033	1.0085313320159912
68	291.14615297317505	pulse	0	t		66.0	2.5	/experiments/Knapen_AOT/AOT_stimuli/rescaled_final/0686_fw.mp4	0.0	320.2468271255493	
68	291.97711873054504	movie	1		279	66.0	2.5	/experiments/Knapen_AOT/AOT_stimuli/rescaled_final/0686_fw.mp4	0.0	321.0777928829193	2.491997003555298
68	292.7511444091797	pulse	1	t		66.0	2.5	/experiments/Knapen_AOT/AOT_stimuli/rescaled_final/0686_fw.mp4	0.0	321.85181856155396	
68	294.34476947784424	pulse	1	t		66.0	2.5	/experiments/Knapen_AOT/AOT_stimuli/rescaled_final/0686_fw.mp4	0.0	323.4454436302185	
68	294.46911573410034	fix_post	2		12	66.0	2.5	/experiments/Knapen_AOT/AOT_stimuli/rescaled_final/0686_fw.mp4	0.0	323.5697898864746	0.10024309158325195
69	294.5693588256836	fix_pre	0		120	67.0	2.5	/experiments/Knapen_AOT/AOT_stimuli/rescaled_final/1068_rv.mp4	0.0	323.67003297805786	1.0083024501800537
69	295.57766127586365	movie	1		281	67.0	2.5	/experiments/Knapen_AOT/AOT_stimuli/rescaled_final/1068_rv.mp4	0.0	324.6783354282379	2.4920806884765625
69	295.944819688797	pulse	1	t		67.0	2.5	/experiments/Knapen_AOT/AOT_stimuli/rescaled_final/1068_rv.mp4	0.0	325.04549384117126	
69	297.544597864151	pulse	1	t		67.0	2.5	/experiments/Knapen_AOT/AOT_stimuli/rescaled_final/1068_rv.mp4	0.0	326.64527201652527	
69	298.0697419643402	fix_post	2		12	67.0	2.5	/experiments/Knapen_AOT/AOT_stimuli/rescaled_final/1068_rv.mp4	0.0	327.1704161167145	0.09992480278015137
70	298.16966676712036	fix_pre	0		118	68.0	2.5	blank	1.0	327.27034091949463	0.9834675788879395
70	299.1455702781677	pulse	0	t		68.0	2.5	blank	1.0	328.246244430542	
70	299.1531343460083	movie	1		301	68.0	2.5	blank	1.0	328.25380849838257	2.5087218284606934
70	300.7453808784485	pulse	1	t		68.0	2.5	blank	1.0	329.84605503082275	
70	301.661856174469	fix_post	2		12	68.0	2.5	blank	1.0	330.76253032684326	0.1000223159790039
71	301.761878490448	fix_pre	0		120	69.0	2.5	/experiments/Knapen_AOT/AOT_stimuli/rescaled_final/1764_rv.mp4	0.0	330.86255264282227	1.0085089206695557
71	302.34567737579346	pulse	0	t		69.0	2.5	/experiments/Knapen_AOT/AOT_stimuli/rescaled_final/1764_rv.mp4	0.0	331.4463515281677	
71	302.77038741111755	movie	1		282	69.0	2.5	/experiments/Knapen_AOT/AOT_stimuli/rescaled_final/1764_rv.mp4	0.0	331.8710615634918	2.492140531539917
71	303.94577050209045	pulse	1	t		69.0	2.5	/experiments/Knapen_AOT/AOT_stimuli/rescaled_final/1764_rv.mp4	0.0	333.0464446544647	
71	305.26252794265747	fix_post	2		12	69.0	2.5	/experiments/Knapen_AOT/AOT_stimuli/rescaled_final/1764_rv.mp4	0.0	334.36320209503174	0.09994792938232422
72	305.3624758720398	fix_pre	0		120	70.0	2.5	/experiments/Knapen_AOT/AOT_stimuli/rescaled_final/1568_rv.mp4	0.0	334.46315002441406	1.0084547996520996
72	305.54602241516113	pulse	0	t		70.0	2.5	/experiments/Knapen_AOT/AOT_stimuli/rescaled_final/1568_rv.mp4	0.0	334.6466965675354	
72	306.3709306716919	movie	1		277	70.0	2.5	/experiments/Knapen_AOT/AOT_stimuli/rescaled_final/1568_rv.mp4	0.0	335.47160482406616	2.4920520782470703
72	307.14625120162964	pulse	1	t		70.0	2.5	/experiments/Knapen_AOT/AOT_stimuli/rescaled_final/1568_rv.mp4	0.0	336.2469253540039	
72	308.7446405887604	pulse	1	t		70.0	2.5	/experiments/Knapen_AOT/AOT_stimuli/rescaled_final/1568_rv.mp4	0.0	337.84531474113464	
72	308.86298274993896	fix_post	2		12	70.0	2.5	/experiments/Knapen_AOT/AOT_stimuli/rescaled_final/1568_rv.mp4	0.0	337.96365690231323	0.09996747970581055
73	308.9629502296448	fix_pre	0		120	71.0	2.5	/experiments/Knapen_AOT/AOT_stimuli/rescaled_final/1896_rv.mp4	0.0	338.06362438201904	1.0085089206695557
73	309.97145915031433	movie	1		280	71.0	2.5	/experiments/Knapen_AOT/AOT_stimuli/rescaled_final/1896_rv.mp4	0.0	339.0721333026886	2.4920458793640137
73	310.345011472702	pulse	1	t		71.0	2.5	/experiments/Knapen_AOT/AOT_stimuli/rescaled_final/1896_rv.mp4	0.0	339.4456856250763	
73	311.9450991153717	pulse	1	t		71.0	2.5	/experiments/Knapen_AOT/AOT_stimuli/rescaled_final/1896_rv.mp4	0.0	341.045773267746	
73	312.46350502967834	fix_post	2		12	71.0	2.5	/experiments/Knapen_AOT/AOT_stimuli/rescaled_final/1896_rv.mp4	0.0	341.5641791820526	0.09999775886535645
74	312.5635027885437	fix_pre	0		119	72.0	2.5	/experiments/Knapen_AOT/AOT_stimuli/rescaled_final/1334_rv.mp4	0.0	341.66417694091797	1.0002381801605225
74	313.5474281311035	pulse	0	t		72.0	2.5	/experiments/Knapen_AOT/AOT_stimuli/rescaled_final/1334_rv.mp4	0.0	342.6481022834778	
74	313.5637409687042	movie	1		270	72.0	2.5	/experiments/Knapen_AOT/AOT_stimuli/rescaled_final/1334_rv.mp4	0.0	342.6644151210785	2.5002992153167725
74	315.14703249931335	pulse	1	t		72.0	2.5	/experiments/Knapen_AOT/AOT_stimuli/rescaled_final/1334_rv.mp4	0.0	344.2477066516876	
74	316.064040184021	fix_post	2		12	72.0	2.5	/experiments/Knapen_AOT/AOT_stimuli/rescaled_final/1334_rv.mp4	0.0	345.16471433639526	0.10006451606750488
75	316.1641047000885	fix_pre	0		120	73.0	2.5	/experiments/Knapen_AOT/AOT_stimuli/rescaled_final/0836_rv.mp4	0.0	345.26477885246277	1.0084633827209473
75	316.74770402908325	pulse	0	t		73.0	2.5	/experiments/Knapen_AOT/AOT_stimuli/rescaled_final/0836_rv.mp4	0.0	345.8483781814575	
75	317.17256808280945	movie	1		273	73.0	2.5	/experiments/Knapen_AOT/AOT_stimuli/rescaled_final/0836_rv.mp4	0.0	346.2732422351837	2.492030382156372
75	318.34626483917236	pulse	1	t		73.0	2.5	/experiments/Knapen_AOT/AOT_stimuli/rescaled_final/0836_rv.mp4	0.0	347.44693899154663	
75	319.6645984649658	fix_post	2		12	73.0	2.5	/experiments/Knapen_AOT/AOT_stimuli/rescaled_final/0836_rv.mp4	0.0	348.7652726173401	0.09999537467956543
76	319.7645938396454	fix_pre	0		120	74.0	2.5	/experiments/Knapen_AOT/AOT_stimuli/rescaled_final/0364_rv.mp4	0.0	348.86526799201965	1.008521318435669
76	319.94823813438416	pulse	0	t		74.0	2.5	/experiments/Knapen_AOT/AOT_stimuli/rescaled_final/0364_rv.mp4	0.0	349.0489122867584	
76	320.77311515808105	movie	1		274	74.0	2.5	/experiments/Knapen_AOT/AOT_stimuli/rescaled_final/0364_rv.mp4	0.0	349.8737893104553	2.4922335147857666
76	321.54643726348877	pulse	1	t		74.0	2.5	/experiments/Knapen_AOT/AOT_stimuli/rescaled_final/0364_rv.mp4	0.0	350.64711141586304	
76	323.1467607021332	pulse	1	t		74.0	2.5	/experiments/Knapen_AOT/AOT_stimuli/rescaled_final/0364_rv.mp4	0.0	352.24743485450745	
76	323.2653486728668	fix_post	2		12	74.0	2.5	/experiments/Knapen_AOT/AOT_stimuli/rescaled_final/0364_rv.mp4	0.0	352.3660228252411	0.09979653358459473
77	323.3651452064514	fix_pre	0		120	75.0	2.5	blank	1.0	352.4658193588257	1.0001323223114014
77	324.3652775287628	movie	1		300	75.0	2.5	blank	1.0	353.4659516811371	2.5003745555877686
77	324.7488729953766	pulse	1	t		75.0	2.5	blank	1.0	353.84954714775085	
77	326.3493001461029	pulse	1	t		75.0	2.5	blank	1.0	355.4499742984772	
77	326.8656520843506	fix_post	2		12	75.0	2.5	blank	1.0	355.96632623672485	0.10007596015930176
78	326.9657280445099	fix_pre	0		119	76.0	2.5	/experiments/Knapen_AOT/AOT_stimuli/rescaled_final/1796_fw.mp4	0.0	356.06640219688416	1.0084941387176514
78	327.9495813846588	pulse	0	t		76.0	2.5	/experiments/Knapen_AOT/AOT_stimuli/rescaled_final/1796_fw.mp4	0.0	357.0502555370331	
78	327.97422218322754	movie	1		275	76.0	2.5	/experiments/Knapen_AOT/AOT_stimuli/rescaled_final/1796_fw.mp4	0.0	357.0748963356018	2.491978168487549
78	329.54837799072266	pulse	1	t		76.0	2.5	/experiments/Knapen_AOT/AOT_stimuli/rescaled_final/1796_fw.mp4	0.0	358.6490521430969	
78	330.4662003517151	fix_post	2		12	76.0	2.5	/experiments/Knapen_AOT/AOT_stimuli/rescaled_final/1796_fw.mp4	0.0	359.56687450408936	0.10001254081726074
79	330.56621289253235	fix_pre	0		120	77.0	2.5	/experiments/Knapen_AOT/AOT_stimuli/rescaled_final/1770_rv.mp4	0.0	359.6668870449066	1.008526086807251
79	331.1499853134155	pulse	0	t		77.0	2.5	/experiments/Knapen_AOT/AOT_stimuli/rescaled_final/1770_rv.mp4	0.0	360.2506594657898	
79	331.5747389793396	movie	1		273	77.0	2.5	/experiments/Knapen_AOT/AOT_stimuli/rescaled_final/1770_rv.mp4	0.0	360.67541313171387	2.4920125007629395
79	332.75030040740967	pulse	1	t		77.0	2.5	/experiments/Knapen_AOT/AOT_stimuli/rescaled_final/1770_rv.mp4	0.0	361.85097455978394	
79	334.06675148010254	fix_post	2		12	77.0	2.5	/experiments/Knapen_AOT/AOT_stimuli/rescaled_final/1770_rv.mp4	0.0	363.1674256324768	0.10004568099975586
80	334.1667971611023	fix_pre	0		120	78.0	2.5	/experiments/Knapen_AOT/AOT_stimuli/rescaled_final/1736_rv.mp4	0.0	363.26747131347656	1.0084590911865234
80	334.350378036499	pulse	0	t		78.0	2.5	/experiments/Knapen_AOT/AOT_stimuli/rescaled_final/1736_rv.mp4	0.0	363.4510521888733	
80	335.1752562522888	movie	1		279	78.0	2.5	/experiments/Knapen_AOT/AOT_stimuli/rescaled_final/1736_rv.mp4	0.0	364.2759304046631	2.492152214050293
80	335.9486725330353	pulse	1	t		78.0	2.5	/experiments/Knapen_AOT/AOT_stimuli/rescaled_final/1736_rv.mp4	0.0	365.04934668540955	
80	337.5489921569824	pulse	1	t		78.0	2.5	/experiments/Knapen_AOT/AOT_stimuli/rescaled_final/1736_rv.mp4	0.0	366.6496663093567	
80	337.6674084663391	fix_post	2		12	78.0	2.5	/experiments/Knapen_AOT/AOT_stimuli/rescaled_final/1736_rv.mp4	0.0	366.7680826187134	0.09989523887634277
81	337.76730370521545	fix_pre	0		120	79.0	2.5	/experiments/Knapen_AOT/AOT_stimuli/rescaled_final/0752_fw.mp4	0.0	366.8679778575897	1.0086255073547363
81	338.7759292125702	movie	1		281	79.0	2.5	/experiments/Knapen_AOT/AOT_stimuli/rescaled_final/0752_fw.mp4	0.0	367.87660336494446	2.4919140338897705
81	339.1493055820465	pulse	1	t		79.0	2.5	/experiments/Knapen_AOT/AOT_stimuli/rescaled_final/0752_fw.mp4	0.0	368.2499797344208	
81	340.74960064888	pulse	1	t		79.0	2.5	/experiments/Knapen_AOT/AOT_stimuli/rescaled_final/0752_fw.mp4	0.0	369.8502748012543	
81	341.26784324645996	fix_post	2		12	79.0	2.5	/experiments/Knapen_AOT/AOT_stimuli/rescaled_final/0752_fw.mp4	0.0	370.36851739883423	0.09997797012329102
82	341.36782121658325	fix_pre	0		119	80.0	2.5	/experiments/Knapen_AOT/AOT_stimuli/rescaled_final/1878_rv.mp4	0.0	370.4684953689575	1.0085837841033936
82	342.3517725467682	pulse	0	t		80.0	2.5	/experiments/Knapen_AOT/AOT_stimuli/rescaled_final/1878_rv.mp4	0.0	371.45244669914246	
82	342.37640500068665	movie	1		274	80.0	2.5	/experiments/Knapen_AOT/AOT_stimuli/rescaled_final/1878_rv.mp4	0.0	371.4770791530609	2.491950273513794
82	343.95013880729675	pulse	1	t		80.0	2.5	/experiments/Knapen_AOT/AOT_stimuli/rescaled_final/1878_rv.mp4	0.0	373.050812959671	
82	344.86835527420044	fix_post	2		12	80.0	2.5	/experiments/Knapen_AOT/AOT_stimuli/rescaled_final/1878_rv.mp4	0.0	373.9690294265747	0.1000204086303711
83	344.9683756828308	fix_pre	0		119	81.0	2.5	/experiments/Knapen_AOT/AOT_stimuli/rescaled_final/0871_fw.mp4	0.0	374.0690498352051	1.008521556854248
83	345.55220079421997	pulse	0	t		81.0	2.5	/experiments/Knapen_AOT/AOT_stimuli/rescaled_final/0871_fw.mp4	0.0	374.65287494659424	
83	345.97689723968506	movie	1		262	81.0	2.5	/experiments/Knapen_AOT/AOT_stimuli/rescaled_final/0871_fw.mp4	0.0	375.0775713920593	2.4920358657836914
83	347.15055871009827	pulse	1	t		81.0	2.5	/experiments/Knapen_AOT/AOT_stimuli/rescaled_final/0871_fw.mp4	0.0	376.25123286247253	
83	348.46893310546875	fix_post	2		12	81.0	2.5	/experiments/Knapen_AOT/AOT_stimuli/rescaled_final/0871_fw.mp4	0.0	377.569607257843	0.10001850128173828
84	348.5689516067505	fix_pre	0		120	82.0	2.5	blank	1.0	377.66962575912476	1.000183343887329
84	348.74513816833496	pulse	0	t		82.0	2.5	blank	1.0	377.84581232070923	
84	349.5691349506378	movie	1		300	82.0	2.5	blank	1.0	378.6698091030121	2.5003180503845215
84	350.3451383113861	pulse	1	t		82.0	2.5	blank	1.0	379.4458124637604	
84	351.9450652599335	pulse	1	t		82.0	2.5	blank	1.0	381.04573941230774	
84	352.06945300102234	fix_post	2		12	82.0	2.5	blank	1.0	381.1701271533966	0.10005521774291992
85	352.16950821876526	fix_pre	0		120	83.0	2.5	/experiments/Knapen_AOT/AOT_stimuli/rescaled_final/0127_fw.mp4	0.0	381.2701823711395	1.0085008144378662
85	353.1780090332031	movie	1		260	83.0	2.5	/experiments/Knapen_AOT/AOT_stimuli/rescaled_final/0127_fw.mp4	0.0	382.2786831855774	2.491997003555298
85	353.54552721977234	pulse	1	t		83.0	2.5	/experiments/Knapen_AOT/AOT_stimuli/rescaled_final/0127_fw.mp4	0.0	382.6462013721466	
85	355.1451427936554	pulse	1	t		83.0	2.5	/experiments/Knapen_AOT/AOT_stimuli/rescaled_final/0127_fw.mp4	0.0	384.24581694602966	
85	355.6700060367584	fix_post	2		12	83.0	2.5	/experiments/Knapen_AOT/AOT_stimuli/rescaled_final/0127_fw.mp4	0.0	384.7706801891327	0.13340520858764648
87	355.80341124534607	stim	0		1712					384.90408539772034	14.268751859664917
87	356.74538826942444	pulse	0	t						385.8460624217987	
87	358.34570240974426	pulse	0	t						387.44637656211853	
87	359.9459960460663	pulse	0	t						389.04667019844055	
87	361.5463795661926	pulse	0	t						390.6470537185669	
87	363.1463580131531	pulse	0	t						392.24703216552734	
87	364.74670124053955	pulse	0	t						393.8473753929138	
87	366.34678840637207	pulse	0	t						395.44746255874634	
87	367.9470512866974	pulse	0	t						397.04772543907166	
87	369.54734563827515	pulse	0	t						398.6480197906494	
