trial_nr	onset	event_type	phase	response	nr_frames	movie_index	movie_duration	movie_file	blank	onset_abs	duration
0	0.15836119651794434	stim	0		111					20.85992741584778	0.9248909950256348
0	1.0679512023925781	response	0	space						21.769517421722412	
1	1.083252191543579	stim	0		3429					21.784818410873413	28.57486081123352
1	29.651772022247314	pulse	0	t						50.35333824157715	
1	29.6581130027771	stim	1		1717					50.359679222106934	14.308268070220947
1	31.249880075454712	pulse	1	t						51.951446294784546	
1	32.84995722770691	pulse	1	t						53.55152344703674	
1	34.449830055236816	pulse	1	t						55.15139627456665	
1	36.04983901977539	pulse	1	t						56.751405239105225	
1	37.649858236312866	pulse	1	t						58.3514244556427	
1	39.24986505508423	pulse	1	t						59.95143127441406	
1	40.849858045578	pulse	1	t						61.55142426490784	
1	42.44980812072754	pulse	1	t						63.15137434005737	
2	43.96638107299805	fix_pre	0		11	0.0	2.5	/experiments/AOT/AOT_stimuli/rescaled_final/0939_fw.mp4	0.0	64.66794729232788	0.09178996086120605
2	44.04988622665405	pulse	0	t		0.0	2.5	/experiments/AOT/AOT_stimuli/rescaled_final/0939_fw.mp4	0.0	64.75145244598389	
2	44.05817103385925	movie	1		244	0.0	2.5	/experiments/AOT/AOT_stimuli/rescaled_final/0939_fw.mp4	0.0	64.75973725318909	2.508202075958252
2	45.64953422546387	pulse	1	t		0.0	2.5	/experiments/AOT/AOT_stimuli/rescaled_final/0939_fw.mp4	0.0	66.3511004447937	
2	46.566373109817505	fix_post	2		12	0.0	2.5	/experiments/AOT/AOT_stimuli/rescaled_final/0939_fw.mp4	0.0	67.26793932914734	0.09991908073425293
3	46.66629219055176	fix_pre	0		120	1.0	2.5	/experiments/AOT/AOT_stimuli/rescaled_final/1397_rv.mp4	0.0	67.36785840988159	1.0000338554382324
3	47.249736070632935	pulse	0	t		1.0	2.5	/experiments/AOT/AOT_stimuli/rescaled_final/1397_rv.mp4	0.0	67.95130228996277	
3	47.66632604598999	movie	1		246	1.0	2.5	/experiments/AOT/AOT_stimuli/rescaled_final/1397_rv.mp4	0.0	68.36789226531982	2.4999330043792725
3	48.84984612464905	pulse	1	t		1.0	2.5	/experiments/AOT/AOT_stimuli/rescaled_final/1397_rv.mp4	0.0	69.55141234397888	
3	50.16625905036926	fix_post	2		12	1.0	2.5	/experiments/AOT/AOT_stimuli/rescaled_final/1397_rv.mp4	0.0	70.8678252696991	0.09999799728393555
4	50.2662570476532	fix_pre	0		120	2.0	2.5	/experiments/AOT/AOT_stimuli/rescaled_final/0909_rv.mp4	0.0	70.96782326698303	1.0000090599060059
4	50.44983220100403	pulse	0	t		2.0	2.5	/experiments/AOT/AOT_stimuli/rescaled_final/0909_rv.mp4	0.0	71.15139842033386	
4	51.266266107559204	movie	1		245	2.0	2.5	/experiments/AOT/AOT_stimuli/rescaled_final/0909_rv.mp4	0.0	71.96783232688904	2.500005006790161
4	52.04981017112732	pulse	1	t		2.0	2.5	/experiments/AOT/AOT_stimuli/rescaled_final/0909_rv.mp4	0.0	72.75137639045715	
4	53.648208141326904	pulse	1	t		2.0	2.5	/experiments/AOT/AOT_stimuli/rescaled_final/0909_rv.mp4	0.0	74.34977436065674	
4	53.766271114349365	fix_post	2		12	2.0	2.5	/experiments/AOT/AOT_stimuli/rescaled_final/0909_rv.mp4	0.0	74.4678373336792	0.10000896453857422
5	53.86628007888794	fix_pre	0		120	3.0	2.5	/experiments/AOT/AOT_stimuli/rescaled_final/1168_rv.mp4	0.0	74.56784629821777	0.9999780654907227
5	54.86625814437866	movie	1		245	3.0	2.5	/experiments/AOT/AOT_stimuli/rescaled_final/1168_rv.mp4	0.0	75.5678243637085	2.5000689029693604
5	55.24926400184631	pulse	1	t		3.0	2.5	/experiments/AOT/AOT_stimuli/rescaled_final/1168_rv.mp4	0.0	75.95083022117615	
5	56.84983515739441	pulse	1	t		3.0	2.5	/experiments/AOT/AOT_stimuli/rescaled_final/1168_rv.mp4	0.0	77.55140137672424	
5	57.36632704734802	fix_post	2		12	3.0	2.5	/experiments/AOT/AOT_stimuli/rescaled_final/1168_rv.mp4	0.0	78.06789326667786	0.09991908073425293
6	57.466246128082275	fix_pre	0		119	4.0	2.5	/experiments/AOT/AOT_stimuli/rescaled_final/0007_fw.mp4	0.0	78.16781234741211	0.9916350841522217
6	58.449724197387695	pulse	0	t		4.0	2.5	/experiments/AOT/AOT_stimuli/rescaled_final/0007_fw.mp4	0.0	79.15129041671753	
6	58.4578812122345	movie	1		244	4.0	2.5	/experiments/AOT/AOT_stimuli/rescaled_final/0007_fw.mp4	0.0	79.15944743156433	2.508382797241211
6	60.051167011260986	pulse	1	t		4.0	2.5	/experiments/AOT/AOT_stimuli/rescaled_final/0007_fw.mp4	0.0	80.75273323059082	
6	60.96626400947571	fix_post	2		12	4.0	2.5	/experiments/AOT/AOT_stimuli/rescaled_final/0007_fw.mp4	0.0	81.66783022880554	0.10012316703796387
7	61.06638717651367	fix_pre	0		120	5.0	2.5	/experiments/AOT/AOT_stimuli/rescaled_final/2082_rv.mp4	0.0	81.7679533958435	0.9993979930877686
7	61.64973521232605	pulse	0	t		5.0	2.5	/experiments/AOT/AOT_stimuli/rescaled_final/2082_rv.mp4	0.0	82.35130143165588	
7	62.06578516960144	movie	1		244	5.0	2.5	/experiments/AOT/AOT_stimuli/rescaled_final/2082_rv.mp4	0.0	82.76735138893127	2.500438928604126
7	63.24980902671814	pulse	1	t		5.0	2.5	/experiments/AOT/AOT_stimuli/rescaled_final/2082_rv.mp4	0.0	83.95137524604797	
7	64.56622409820557	fix_post	2		12	5.0	2.5	/experiments/AOT/AOT_stimuli/rescaled_final/2082_rv.mp4	0.0	85.2677903175354	0.10000205039978027
8	64.66622614860535	fix_pre	0		120	6.0	2.5	blank	1.0	85.36779236793518	1.0000450611114502
8	64.84974718093872	pulse	0	t		6.0	2.5	blank	1.0	85.55131340026855	
8	65.6662712097168	movie	1		300	6.0	2.5	blank	1.0	86.36783742904663	2.5000288486480713
8	66.44976210594177	pulse	1	t		6.0	2.5	blank	1.0	87.1513283252716	
8	68.0496871471405	pulse	1	t		6.0	2.5	blank	1.0	88.75125336647034	
8	68.16630005836487	fix_post	2		12	6.0	2.5	blank	1.0	88.8678662776947	0.09995007514953613
9	68.2662501335144	fix_pre	0		120	7.0	2.5	/experiments/AOT/AOT_stimuli/rescaled_final/0819_fw.mp4	0.0	88.96781635284424	1.000025987625122
9	69.26627612113953	movie	1		243	7.0	2.5	/experiments/AOT/AOT_stimuli/rescaled_final/0819_fw.mp4	0.0	89.96784234046936	2.499514102935791
9	69.64913821220398	pulse	1	t		7.0	2.5	/experiments/AOT/AOT_stimuli/rescaled_final/0819_fw.mp4	0.0	90.35070443153381	
9	71.24970722198486	pulse	1	t		7.0	2.5	/experiments/AOT/AOT_stimuli/rescaled_final/0819_fw.mp4	0.0	91.9512734413147	
9	71.76579022407532	fix_post	2		12	7.0	2.5	/experiments/AOT/AOT_stimuli/rescaled_final/0819_fw.mp4	0.0	92.46735644340515	0.10037684440612793
10	71.86616706848145	fix_pre	0		119	8.0	2.5	/experiments/AOT/AOT_stimuli/rescaled_final/0241_rv.mp4	0.0	92.56773328781128	0.9917800426483154
10	72.8497052192688	pulse	0	t		8.0	2.5	/experiments/AOT/AOT_stimuli/rescaled_final/0241_rv.mp4	0.0	93.55127143859863	
10	72.85794711112976	movie	1		245	8.0	2.5	/experiments/AOT/AOT_stimuli/rescaled_final/0241_rv.mp4	0.0	93.5595133304596	2.50821590423584
10	74.44952511787415	pulse	1	t		8.0	2.5	/experiments/AOT/AOT_stimuli/rescaled_final/0241_rv.mp4	0.0	95.15109133720398	
10	75.3661630153656	fix_post	2		12	8.0	2.5	/experiments/AOT/AOT_stimuli/rescaled_final/0241_rv.mp4	0.0	96.06772923469543	0.09998416900634766
11	75.46614718437195	fix_pre	0		120	9.0	2.5	/experiments/AOT/AOT_stimuli/rescaled_final/0944_fw.mp4	0.0	96.16771340370178	1.000072956085205
11	76.04964900016785	pulse	0	t		9.0	2.5	/experiments/AOT/AOT_stimuli/rescaled_final/0944_fw.mp4	0.0	96.75121521949768	
11	76.46622014045715	movie	1		242	9.0	2.5	/experiments/AOT/AOT_stimuli/rescaled_final/0944_fw.mp4	0.0	97.16778635978699	2.4995720386505127
11	77.64974522590637	pulse	1	t		9.0	2.5	/experiments/AOT/AOT_stimuli/rescaled_final/0944_fw.mp4	0.0	98.3513114452362	
11	78.96579217910767	fix_post	2		12	9.0	2.5	/experiments/AOT/AOT_stimuli/rescaled_final/0944_fw.mp4	0.0	99.6673583984375	0.10031485557556152
12	79.06610703468323	fix_pre	0		120	10.0	2.5	/experiments/AOT/AOT_stimuli/rescaled_final/2082_rv.mp4	0.0	99.76767325401306	1.0002110004425049
12	79.24968814849854	pulse	0	t		10.0	2.5	/experiments/AOT/AOT_stimuli/rescaled_final/2082_rv.mp4	0.0	99.95125436782837	
12	80.06631803512573	movie	1		244	10.0	2.5	/experiments/AOT/AOT_stimuli/rescaled_final/2082_rv.mp4	0.0	100.76788425445557	2.4995830059051514
12	80.8491702079773	pulse	1	t		10.0	2.5	/experiments/AOT/AOT_stimuli/rescaled_final/2082_rv.mp4	0.0	101.55073642730713	
12	82.44781017303467	pulse	1	t		10.0	2.5	/experiments/AOT/AOT_stimuli/rescaled_final/2082_rv.mp4	0.0	103.1493763923645	
12	82.56590104103088	fix_post	2		12	10.0	2.5	/experiments/AOT/AOT_stimuli/rescaled_final/2082_rv.mp4	0.0	103.26746726036072	0.10000896453857422
13	82.66591000556946	fix_pre	0		120	11.0	2.5	/experiments/AOT/AOT_stimuli/rescaled_final/1101_fw.mp4	0.0	103.36747622489929	1.0001270771026611
13	83.66603708267212	movie	1		243	11.0	2.5	/experiments/AOT/AOT_stimuli/rescaled_final/1101_fw.mp4	0.0	104.36760330200195	2.5001659393310547
13	84.0494441986084	pulse	1	t		11.0	2.5	/experiments/AOT/AOT_stimuli/rescaled_final/1101_fw.mp4	0.0	104.75101041793823	
13	85.64959406852722	pulse	1	t		11.0	2.5	/experiments/AOT/AOT_stimuli/rescaled_final/1101_fw.mp4	0.0	106.35116028785706	
13	86.16620302200317	fix_post	2		12	11.0	2.5	/experiments/AOT/AOT_stimuli/rescaled_final/1101_fw.mp4	0.0	106.86776924133301	0.09990310668945312
14	86.26610612869263	fix_pre	0		119	12.0	2.5	/experiments/AOT/AOT_stimuli/rescaled_final/0340_fw.mp4	0.0	106.96767234802246	0.9916810989379883
14	87.24966621398926	pulse	0	t		12.0	2.5	/experiments/AOT/AOT_stimuli/rescaled_final/0340_fw.mp4	0.0	107.95123243331909	
14	87.25778722763062	movie	1		245	12.0	2.5	/experiments/AOT/AOT_stimuli/rescaled_final/0340_fw.mp4	0.0	107.95935344696045	2.508366823196411
14	88.84922003746033	pulse	1	t		12.0	2.5	/experiments/AOT/AOT_stimuli/rescaled_final/0340_fw.mp4	0.0	109.55078625679016	
14	89.76615405082703	fix_post	2		12	12.0	2.5	/experiments/AOT/AOT_stimuli/rescaled_final/0340_fw.mp4	0.0	110.46772027015686	0.09991002082824707
15	89.86606407165527	fix_pre	0		120	13.0	2.5	blank	1.0	110.56763029098511	1.0001039505004883
15	90.4495530128479	pulse	0	t		13.0	2.5	blank	1.0	111.15111923217773	
15	90.86616802215576	movie	1		300	13.0	2.5	blank	1.0	111.5677342414856	2.4998412132263184
15	92.04953217506409	pulse	1	t		13.0	2.5	blank	1.0	112.75109839439392	
15	93.36600923538208	fix_post	2		12	13.0	2.5	blank	1.0	114.06757545471191	0.10006284713745117
16	93.46607208251953	fix_pre	0		120	14.0	2.5	/experiments/AOT/AOT_stimuli/rescaled_final/1159_fw.mp4	0.0	114.16763830184937	0.9999589920043945
16	93.64961123466492	pulse	0	t		14.0	2.5	/experiments/AOT/AOT_stimuli/rescaled_final/1159_fw.mp4	0.0	114.35117745399475	
16	94.46603107452393	movie	1		246	14.0	2.5	/experiments/AOT/AOT_stimuli/rescaled_final/1159_fw.mp4	0.0	115.16759729385376	2.4999680519104004
16	95.24961304664612	pulse	1	t		14.0	2.5	/experiments/AOT/AOT_stimuli/rescaled_final/1159_fw.mp4	0.0	115.95117926597595	
16	96.84796810150146	pulse	1	t		14.0	2.5	/experiments/AOT/AOT_stimuli/rescaled_final/1159_fw.mp4	0.0	117.5495343208313	
16	96.96599912643433	fix_post	2		12	14.0	2.5	/experiments/AOT/AOT_stimuli/rescaled_final/1159_fw.mp4	0.0	117.66756534576416	0.10003900527954102
17	97.06603813171387	fix_pre	0		120	15.0	2.5	/experiments/AOT/AOT_stimuli/rescaled_final/1661_rv.mp4	0.0	117.7676043510437	1.0000059604644775
17	98.06604409217834	movie	1		246	15.0	2.5	/experiments/AOT/AOT_stimuli/rescaled_final/1661_rv.mp4	0.0	118.76761031150818	2.4999630451202393
17	98.45068311691284	pulse	1	t		15.0	2.5	/experiments/AOT/AOT_stimuli/rescaled_final/1661_rv.mp4	0.0	119.15224933624268	
17	100.04943919181824	pulse	1	t		15.0	2.5	/experiments/AOT/AOT_stimuli/rescaled_final/1661_rv.mp4	0.0	120.75100541114807	
17	100.56600713729858	fix_post	2		12	15.0	2.5	/experiments/AOT/AOT_stimuli/rescaled_final/1661_rv.mp4	0.0	121.26757335662842	0.10004186630249023
18	100.66604900360107	fix_pre	0		119	16.0	2.5	/experiments/AOT/AOT_stimuli/rescaled_final/1435_fw.mp4	0.0	121.36761522293091	0.9916150569915771
18	101.64949202537537	pulse	0	t		16.0	2.5	/experiments/AOT/AOT_stimuli/rescaled_final/1435_fw.mp4	0.0	122.3510582447052	
18	101.65766406059265	movie	1		246	16.0	2.5	/experiments/AOT/AOT_stimuli/rescaled_final/1435_fw.mp4	0.0	122.35923027992249	2.5083091259002686
18	103.24914813041687	pulse	1	t		16.0	2.5	/experiments/AOT/AOT_stimuli/rescaled_final/1435_fw.mp4	0.0	123.9507143497467	
18	104.16597318649292	fix_post	2		12	16.0	2.5	/experiments/AOT/AOT_stimuli/rescaled_final/1435_fw.mp4	0.0	124.86753940582275	0.10009598731994629
19	104.26606917381287	fix_pre	0		120	17.0	2.5	/experiments/AOT/AOT_stimuli/rescaled_final/1706_fw.mp4	0.0	124.9676353931427	0.9999778270721436
19	104.84951114654541	pulse	0	t		17.0	2.5	/experiments/AOT/AOT_stimuli/rescaled_final/1706_fw.mp4	0.0	125.55107736587524	
19	105.26604700088501	movie	1		244	17.0	2.5	/experiments/AOT/AOT_stimuli/rescaled_final/1706_fw.mp4	0.0	125.96761322021484	2.500019073486328
19	106.44964504241943	pulse	1	t		17.0	2.5	/experiments/AOT/AOT_stimuli/rescaled_final/1706_fw.mp4	0.0	127.15121126174927	
19	107.76606607437134	fix_post	2		12	17.0	2.5	/experiments/AOT/AOT_stimuli/rescaled_final/1706_fw.mp4	0.0	128.46763229370117	0.09986710548400879
20	107.86593317985535	fix_pre	0		120	18.0	2.5	/experiments/AOT/AOT_stimuli/rescaled_final/0868_fw.mp4	0.0	128.56749939918518	1.0001039505004883
20	108.04949712753296	pulse	0	t		18.0	2.5	/experiments/AOT/AOT_stimuli/rescaled_final/0868_fw.mp4	0.0	128.7510633468628	
20	108.86603713035583	movie	1		244	18.0	2.5	/experiments/AOT/AOT_stimuli/rescaled_final/0868_fw.mp4	0.0	129.56760334968567	2.499964952468872
20	109.64968013763428	pulse	1	t		18.0	2.5	/experiments/AOT/AOT_stimuli/rescaled_final/0868_fw.mp4	0.0	130.3512463569641	
20	111.25033807754517	pulse	1	t		18.0	2.5	/experiments/AOT/AOT_stimuli/rescaled_final/0868_fw.mp4	0.0	131.951904296875	
20	111.3660020828247	fix_post	2		12	18.0	2.5	/experiments/AOT/AOT_stimuli/rescaled_final/0868_fw.mp4	0.0	132.06756830215454	0.09999704360961914
21	111.46599912643433	fix_pre	0		120	19.0	2.5	blank	1.0	132.16756534576416	0.9999709129333496
21	112.46597003936768	movie	1		300	19.0	2.5	blank	1.0	133.1675362586975	2.5000221729278564
21	112.84947109222412	pulse	1	t		19.0	2.5	blank	1.0	133.55103731155396	
21	114.44942021369934	pulse	1	t		19.0	2.5	blank	1.0	135.15098643302917	
21	114.96599221229553	fix_post	2		12	19.0	2.5	blank	1.0	135.66755843162537	0.09998488426208496
22	115.06597709655762	fix_pre	0		119	20.0	2.5	/experiments/AOT/AOT_stimuli/rescaled_final/2125_rv.mp4	0.0	135.76754331588745	0.9916379451751709
22	116.04942512512207	pulse	0	t		20.0	2.5	/experiments/AOT/AOT_stimuli/rescaled_final/2125_rv.mp4	0.0	136.7509913444519	
22	116.05761504173279	movie	1		249	20.0	2.5	/experiments/AOT/AOT_stimuli/rescaled_final/2125_rv.mp4	0.0	136.75918126106262	2.5083301067352295
22	117.64969110488892	pulse	1	t		20.0	2.5	/experiments/AOT/AOT_stimuli/rescaled_final/2125_rv.mp4	0.0	138.35125732421875	
22	118.56594514846802	fix_post	2		12	20.0	2.5	/experiments/AOT/AOT_stimuli/rescaled_final/2125_rv.mp4	0.0	139.26751136779785	0.09999799728393555
23	118.66594314575195	fix_pre	0		120	21.0	2.5	/experiments/AOT/AOT_stimuli/rescaled_final/0989_fw.mp4	0.0	139.3675093650818	1.0000488758087158
23	119.24944615364075	pulse	0	t		21.0	2.5	/experiments/AOT/AOT_stimuli/rescaled_final/0989_fw.mp4	0.0	139.95101237297058	
23	119.66599202156067	movie	1		244	21.0	2.5	/experiments/AOT/AOT_stimuli/rescaled_final/0989_fw.mp4	0.0	140.3675582408905	2.4999489784240723
23	120.84950804710388	pulse	1	t		21.0	2.5	/experiments/AOT/AOT_stimuli/rescaled_final/0989_fw.mp4	0.0	141.55107426643372	
23	122.16594099998474	fix_post	2		12	21.0	2.5	/experiments/AOT/AOT_stimuli/rescaled_final/0989_fw.mp4	0.0	142.86750721931458	0.09997820854187012
24	122.26591920852661	fix_pre	0		120	22.0	2.5	/experiments/AOT/AOT_stimuli/rescaled_final/0788_rv.mp4	0.0	142.96748542785645	0.9999549388885498
24	122.44938516616821	pulse	0	t		22.0	2.5	/experiments/AOT/AOT_stimuli/rescaled_final/0788_rv.mp4	0.0	143.15095138549805	
24	123.26587414741516	movie	1		241	22.0	2.5	/experiments/AOT/AOT_stimuli/rescaled_final/0788_rv.mp4	0.0	143.967440366745	2.4995720386505127
24	124.0494110584259	pulse	1	t		22.0	2.5	/experiments/AOT/AOT_stimuli/rescaled_final/0788_rv.mp4	0.0	144.75097727775574	
24	125.64802122116089	pulse	1	t		22.0	2.5	/experiments/AOT/AOT_stimuli/rescaled_final/0788_rv.mp4	0.0	146.34958744049072	
24	125.76544618606567	fix_post	2		12	22.0	2.5	/experiments/AOT/AOT_stimuli/rescaled_final/0788_rv.mp4	0.0	146.4670124053955	0.10054588317871094
25	125.86599206924438	fix_pre	0		120	23.0	2.5	/experiments/AOT/AOT_stimuli/rescaled_final/0533_fw.mp4	0.0	146.56755828857422	0.9998199939727783
25	126.86581206321716	movie	1		243	23.0	2.5	/experiments/AOT/AOT_stimuli/rescaled_final/0533_fw.mp4	0.0	147.567378282547	2.5000360012054443
25	127.24932718276978	pulse	1	t		23.0	2.5	/experiments/AOT/AOT_stimuli/rescaled_final/0533_fw.mp4	0.0	147.9508934020996	
25	128.84936213493347	pulse	1	t		23.0	2.5	/experiments/AOT/AOT_stimuli/rescaled_final/0533_fw.mp4	0.0	149.5509283542633	
25	129.3658480644226	fix_post	2		12	23.0	2.5	/experiments/AOT/AOT_stimuli/rescaled_final/0533_fw.mp4	0.0	150.06741428375244	0.10010910034179688
26	129.4659571647644	fix_pre	0		119	24.0	2.5	/experiments/AOT/AOT_stimuli/rescaled_final/1706_rv.mp4	0.0	150.16752338409424	0.9916398525238037
26	130.44934821128845	pulse	0	t		24.0	2.5	/experiments/AOT/AOT_stimuli/rescaled_final/1706_rv.mp4	0.0	151.1509144306183	
26	130.4575970172882	movie	1		245	24.0	2.5	/experiments/AOT/AOT_stimuli/rescaled_final/1706_rv.mp4	0.0	151.15916323661804	2.508364200592041
26	132.04881715774536	pulse	1	t		24.0	2.5	/experiments/AOT/AOT_stimuli/rescaled_final/1706_rv.mp4	0.0	152.7503833770752	
26	132.96596121788025	fix_post	2		12	24.0	2.5	/experiments/AOT/AOT_stimuli/rescaled_final/1706_rv.mp4	0.0	153.66752743721008	0.0999898910522461
27	133.0659511089325	fix_pre	0		120	25.0	2.5	/experiments/AOT/AOT_stimuli/rescaled_final/1513_fw.mp4	0.0	153.76751732826233	1.0000030994415283
27	133.64943623542786	pulse	0	t		25.0	2.5	/experiments/AOT/AOT_stimuli/rescaled_final/1513_fw.mp4	0.0	154.3510024547577	
27	134.06595420837402	movie	1		246	25.0	2.5	/experiments/AOT/AOT_stimuli/rescaled_final/1513_fw.mp4	0.0	154.76752042770386	2.499539852142334
27	135.24942111968994	pulse	1	t		25.0	2.5	/experiments/AOT/AOT_stimuli/rescaled_final/1513_fw.mp4	0.0	155.95098733901978	
27	136.56549406051636	fix_post	2		12	25.0	2.5	/experiments/AOT/AOT_stimuli/rescaled_final/1513_fw.mp4	0.0	157.2670602798462	0.09995794296264648
28	136.665452003479	fix_pre	0		120	26.0	2.5	blank	1.0	157.36701822280884	1.0004591941833496
28	136.8489351272583	pulse	0	t		26.0	2.5	blank	1.0	157.55050134658813	
28	137.66591119766235	movie	1		300	26.0	2.5	blank	1.0	158.3674774169922	2.499908924102783
28	138.44949507713318	pulse	1	t		26.0	2.5	blank	1.0	159.151061296463	
28	140.04936814308167	pulse	1	t		26.0	2.5	blank	1.0	160.7509343624115	
28	140.16582012176514	fix_post	2		12	26.0	2.5	blank	1.0	160.86738634109497	0.10010004043579102
29	140.26592016220093	fix_pre	0		120	27.0	2.5	/experiments/AOT/AOT_stimuli/rescaled_final/1557_fw.mp4	0.0	160.96748638153076	0.9999790191650391
29	141.26589918136597	movie	1		245	27.0	2.5	/experiments/AOT/AOT_stimuli/rescaled_final/1557_fw.mp4	0.0	161.9674654006958	2.500020980834961
29	141.6493260860443	pulse	1	t		27.0	2.5	/experiments/AOT/AOT_stimuli/rescaled_final/1557_fw.mp4	0.0	162.35089230537415	
29	143.2493212223053	pulse	1	t		27.0	2.5	/experiments/AOT/AOT_stimuli/rescaled_final/1557_fw.mp4	0.0	163.95088744163513	
29	143.76592016220093	fix_post	2		12	27.0	2.5	/experiments/AOT/AOT_stimuli/rescaled_final/1557_fw.mp4	0.0	164.46748638153076	0.09988784790039062
30	143.86580801010132	fix_pre	0		119	28.0	2.5	/experiments/AOT/AOT_stimuli/rescaled_final/1983_rv.mp4	0.0	164.56737422943115	0.9916870594024658
30	144.84931921958923	pulse	0	t		28.0	2.5	/experiments/AOT/AOT_stimuli/rescaled_final/1983_rv.mp4	0.0	165.55088543891907	
30	144.85749506950378	movie	1		249	28.0	2.5	/experiments/AOT/AOT_stimuli/rescaled_final/1983_rv.mp4	0.0	165.55906128883362	2.5082709789276123
30	146.4489710330963	pulse	1	t		28.0	2.5	/experiments/AOT/AOT_stimuli/rescaled_final/1983_rv.mp4	0.0	167.15053725242615	
30	147.3657660484314	fix_post	2		12	28.0	2.5	/experiments/AOT/AOT_stimuli/rescaled_final/1983_rv.mp4	0.0	168.06733226776123	0.10009312629699707
31	147.4658591747284	fix_pre	0		120	29.0	2.5	/experiments/AOT/AOT_stimuli/rescaled_final/2109_rv.mp4	0.0	168.16742539405823	0.9999549388885498
31	148.04941201210022	pulse	0	t		29.0	2.5	/experiments/AOT/AOT_stimuli/rescaled_final/2109_rv.mp4	0.0	168.75097823143005	
31	148.46581411361694	movie	1		243	29.0	2.5	/experiments/AOT/AOT_stimuli/rescaled_final/2109_rv.mp4	0.0	169.16738033294678	2.5000131130218506
31	149.6493570804596	pulse	1	t		29.0	2.5	/experiments/AOT/AOT_stimuli/rescaled_final/2109_rv.mp4	0.0	170.35092329978943	
31	150.9658272266388	fix_post	2		12	29.0	2.5	/experiments/AOT/AOT_stimuli/rescaled_final/2109_rv.mp4	0.0	171.66739344596863	0.09995388984680176
32	151.0657811164856	fix_pre	0		120	30.0	2.5	/experiments/AOT/AOT_stimuli/rescaled_final/1165_fw.mp4	0.0	171.76734733581543	0.9999349117279053
32	151.2492651939392	pulse	0	t		30.0	2.5	/experiments/AOT/AOT_stimuli/rescaled_final/1165_fw.mp4	0.0	171.95083141326904	
32	152.0657160282135	movie	1		244	30.0	2.5	/experiments/AOT/AOT_stimuli/rescaled_final/1165_fw.mp4	0.0	172.76728224754333	2.5000650882720947
32	152.84927701950073	pulse	1	t		30.0	2.5	/experiments/AOT/AOT_stimuli/rescaled_final/1165_fw.mp4	0.0	173.55084323883057	
32	154.44783306121826	pulse	1	t		30.0	2.5	/experiments/AOT/AOT_stimuli/rescaled_final/1165_fw.mp4	0.0	175.1493992805481	
32	154.5657811164856	fix_post	2		12	30.0	2.5	/experiments/AOT/AOT_stimuli/rescaled_final/1165_fw.mp4	0.0	175.26734733581543	0.09998703002929688
33	154.6657681465149	fix_pre	0		120	31.0	2.5	/experiments/AOT/AOT_stimuli/rescaled_final/0539_rv.mp4	0.0	175.36733436584473	0.999985933303833
33	155.66575407981873	movie	1		244	31.0	2.5	/experiments/AOT/AOT_stimuli/rescaled_final/0539_rv.mp4	0.0	176.36732029914856	2.500035047531128
33	156.0489420890808	pulse	1	t		31.0	2.5	/experiments/AOT/AOT_stimuli/rescaled_final/0539_rv.mp4	0.0	176.75050830841064	
33	157.6493091583252	pulse	1	t		31.0	2.5	/experiments/AOT/AOT_stimuli/rescaled_final/0539_rv.mp4	0.0	178.35087537765503	
33	158.16578912734985	fix_post	2		12	31.0	2.5	/experiments/AOT/AOT_stimuli/rescaled_final/0539_rv.mp4	0.0	178.8673553466797	0.10000896453857422
34	158.26579809188843	fix_pre	0		119	32.0	2.5	/experiments/AOT/AOT_stimuli/rescaled_final/1513_rv.mp4	0.0	178.96736431121826	0.99161696434021
34	159.24925422668457	pulse	0	t		32.0	2.5	/experiments/AOT/AOT_stimuli/rescaled_final/1513_rv.mp4	0.0	179.9508204460144	
34	159.25741505622864	movie	1		248	32.0	2.5	/experiments/AOT/AOT_stimuli/rescaled_final/1513_rv.mp4	0.0	179.95898127555847	2.5079410076141357
34	160.84889912605286	pulse	1	t		32.0	2.5	/experiments/AOT/AOT_stimuli/rescaled_final/1513_rv.mp4	0.0	181.5504653453827	
34	161.76535606384277	fix_post	2		12	32.0	2.5	/experiments/AOT/AOT_stimuli/rescaled_final/1513_rv.mp4	0.0	182.4669222831726	0.10038113594055176
35	161.86573719978333	fix_pre	0		120	33.0	2.5	blank	1.0	182.56730341911316	1.000032901763916
35	162.44930219650269	pulse	0	t		33.0	2.5	blank	1.0	183.15086841583252	
35	162.86577010154724	movie	1		300	33.0	2.5	blank	1.0	183.56733632087708	2.499988079071045
35	164.04926109313965	pulse	1	t		33.0	2.5	blank	1.0	184.75082731246948	
35	165.3657581806183	fix_post	2		12	33.0	2.5	blank	1.0	186.06732439994812	0.09991288185119629
36	165.46567106246948	fix_pre	0		120	34.0	2.5	/experiments/AOT/AOT_stimuli/rescaled_final/1567_rv.mp4	0.0	186.16723728179932	1.0000040531158447
36	165.64920616149902	pulse	0	t		34.0	2.5	/experiments/AOT/AOT_stimuli/rescaled_final/1567_rv.mp4	0.0	186.35077238082886	
36	166.46567511558533	movie	1		245	34.0	2.5	/experiments/AOT/AOT_stimuli/rescaled_final/1567_rv.mp4	0.0	187.16724133491516	2.5000150203704834
36	167.24930620193481	pulse	1	t		34.0	2.5	/experiments/AOT/AOT_stimuli/rescaled_final/1567_rv.mp4	0.0	187.95087242126465	
36	168.84769320487976	pulse	1	t		34.0	2.5	/experiments/AOT/AOT_stimuli/rescaled_final/1567_rv.mp4	0.0	189.5492594242096	
36	168.9656901359558	fix_post	2		12	34.0	2.5	/experiments/AOT/AOT_stimuli/rescaled_final/1567_rv.mp4	0.0	189.66725635528564	0.10002899169921875
37	169.06571912765503	fix_pre	0		120	35.0	2.5	/experiments/AOT/AOT_stimuli/rescaled_final/1556_rv.mp4	0.0	189.76728534698486	1.0000169277191162
37	170.06573605537415	movie	1		245	35.0	2.5	/experiments/AOT/AOT_stimuli/rescaled_final/1556_rv.mp4	0.0	190.76730227470398	2.499998092651367
37	170.44939017295837	pulse	1	t		35.0	2.5	/experiments/AOT/AOT_stimuli/rescaled_final/1556_rv.mp4	0.0	191.1509563922882	
37	172.04932713508606	pulse	1	t		35.0	2.5	/experiments/AOT/AOT_stimuli/rescaled_final/1556_rv.mp4	0.0	192.7508933544159	
37	172.5657341480255	fix_post	2		12	35.0	2.5	/experiments/AOT/AOT_stimuli/rescaled_final/1556_rv.mp4	0.0	193.26730036735535	0.09993505477905273
38	172.66566920280457	fix_pre	0		119	36.0	2.5	/experiments/AOT/AOT_stimuli/rescaled_final/0889_rv.mp4	0.0	193.3672354221344	0.9917359352111816
38	173.64923000335693	pulse	0	t		36.0	2.5	/experiments/AOT/AOT_stimuli/rescaled_final/0889_rv.mp4	0.0	194.35079622268677	
38	173.65740513801575	movie	1		244	36.0	2.5	/experiments/AOT/AOT_stimuli/rescaled_final/0889_rv.mp4	0.0	194.35897135734558	2.5082879066467285
38	175.24894213676453	pulse	1	t		36.0	2.5	/experiments/AOT/AOT_stimuli/rescaled_final/0889_rv.mp4	0.0	195.95050835609436	
38	176.16569304466248	fix_post	2		12	36.0	2.5	/experiments/AOT/AOT_stimuli/rescaled_final/0889_rv.mp4	0.0	196.8672592639923	0.09993696212768555
39	176.26563000679016	fix_pre	0		120	37.0	2.5	/experiments/AOT/AOT_stimuli/rescaled_final/2064_rv.mp4	0.0	196.96719622612	1.000096082687378
39	176.84917902946472	pulse	0	t		37.0	2.5	/experiments/AOT/AOT_stimuli/rescaled_final/2064_rv.mp4	0.0	197.55074524879456	
39	177.26572608947754	movie	1		244	37.0	2.5	/experiments/AOT/AOT_stimuli/rescaled_final/2064_rv.mp4	0.0	197.96729230880737	2.499951124191284
39	178.44924116134644	pulse	1	t		37.0	2.5	/experiments/AOT/AOT_stimuli/rescaled_final/2064_rv.mp4	0.0	199.15080738067627	
39	179.76567721366882	fix_post	2		12	37.0	2.5	/experiments/AOT/AOT_stimuli/rescaled_final/2064_rv.mp4	0.0	200.46724343299866	0.10009479522705078
40	179.86577200889587	fix_pre	0		120	38.0	2.5	/experiments/AOT/AOT_stimuli/rescaled_final/0218_fw.mp4	0.0	200.5673382282257	0.9999182224273682
40	180.04912519454956	pulse	0	t		38.0	2.5	/experiments/AOT/AOT_stimuli/rescaled_final/0218_fw.mp4	0.0	200.7506914138794	
40	180.86569023132324	movie	1		244	38.0	2.5	/experiments/AOT/AOT_stimuli/rescaled_final/0218_fw.mp4	0.0	201.56725645065308	2.499929904937744
40	181.64913702011108	pulse	1	t		38.0	2.5	/experiments/AOT/AOT_stimuli/rescaled_final/0218_fw.mp4	0.0	202.35070323944092	
40	183.2475712299347	pulse	1	t		38.0	2.5	/experiments/AOT/AOT_stimuli/rescaled_final/0218_fw.mp4	0.0	203.94913744926453	
40	183.365620136261	fix_post	2		12	38.0	2.5	/experiments/AOT/AOT_stimuli/rescaled_final/0218_fw.mp4	0.0	204.06718635559082	0.09998297691345215
41	183.46560311317444	fix_pre	0		120	39.0	2.5	/experiments/AOT/AOT_stimuli/rescaled_final/0112_rv.mp4	0.0	204.16716933250427	1.00006103515625
41	184.4656641483307	movie	1		244	39.0	2.5	/experiments/AOT/AOT_stimuli/rescaled_final/0112_rv.mp4	0.0	205.16723036766052	2.5000410079956055
41	184.84880113601685	pulse	1	t		39.0	2.5	/experiments/AOT/AOT_stimuli/rescaled_final/0112_rv.mp4	0.0	205.55036735534668	
41	186.44912600517273	pulse	1	t		39.0	2.5	/experiments/AOT/AOT_stimuli/rescaled_final/0112_rv.mp4	0.0	207.15069222450256	
41	186.9657051563263	fix_post	2		12	39.0	2.5	/experiments/AOT/AOT_stimuli/rescaled_final/0112_rv.mp4	0.0	207.66727137565613	0.09987401962280273
42	187.0655791759491	fix_pre	0		119	40.0	2.5	blank	1.0	207.76714539527893	0.9916720390319824
42	188.04910922050476	pulse	0	t		40.0	2.5	blank	1.0	208.7506754398346	
42	188.05725121498108	movie	1		301	40.0	2.5	blank	1.0	208.7588174343109	2.5083417892456055
42	189.64909315109253	pulse	1	t		40.0	2.5	blank	1.0	210.35065937042236	
42	190.56559300422668	fix_post	2		12	40.0	2.5	blank	1.0	211.26715922355652	0.09997415542602539
43	190.6655671596527	fix_pre	0		120	41.0	2.5	/experiments/AOT/AOT_stimuli/rescaled_final/0441_fw.mp4	0.0	211.36713337898254	1.0000848770141602
43	191.2491102218628	pulse	0	t		41.0	2.5	/experiments/AOT/AOT_stimuli/rescaled_final/0441_fw.mp4	0.0	211.95067644119263	
43	191.66565203666687	movie	1		243	41.0	2.5	/experiments/AOT/AOT_stimuli/rescaled_final/0441_fw.mp4	0.0	212.3672182559967	2.499730110168457
43	192.8486511707306	pulse	1	t		41.0	2.5	/experiments/AOT/AOT_stimuli/rescaled_final/0441_fw.mp4	0.0	213.55021739006042	
43	194.16538214683533	fix_post	2		12	41.0	2.5	/experiments/AOT/AOT_stimuli/rescaled_final/0441_fw.mp4	0.0	214.86694836616516	0.10037899017333984
44	194.26576113700867	fix_pre	0		120	42.0	2.5	/experiments/AOT/AOT_stimuli/rescaled_final/1165_rv.mp4	0.0	214.9673273563385	0.999708890914917
44	194.4489471912384	pulse	0	t		42.0	2.5	/experiments/AOT/AOT_stimuli/rescaled_final/1165_rv.mp4	0.0	215.15051341056824	
44	195.26547002792358	movie	1		244	42.0	2.5	/experiments/AOT/AOT_stimuli/rescaled_final/1165_rv.mp4	0.0	215.96703624725342	2.500143051147461
44	196.0490481853485	pulse	1	t		42.0	2.5	/experiments/AOT/AOT_stimuli/rescaled_final/1165_rv.mp4	0.0	216.75061440467834	
44	197.64748311042786	pulse	1	t		42.0	2.5	/experiments/AOT/AOT_stimuli/rescaled_final/1165_rv.mp4	0.0	218.3490493297577	
44	197.76561307907104	fix_post	2		12	42.0	2.5	/experiments/AOT/AOT_stimuli/rescaled_final/1165_rv.mp4	0.0	218.46717929840088	0.09997892379760742
45	197.86559200286865	fix_pre	0		120	43.0	2.5	/experiments/AOT/AOT_stimuli/rescaled_final/0452_rv.mp4	0.0	218.5671582221985	0.9999902248382568
45	198.8655822277069	movie	1		244	43.0	2.5	/experiments/AOT/AOT_stimuli/rescaled_final/0452_rv.mp4	0.0	219.56714844703674	2.5000858306884766
45	199.2500410079956	pulse	1	t		43.0	2.5	/experiments/AOT/AOT_stimuli/rescaled_final/0452_rv.mp4	0.0	219.95160722732544	
45	200.84892511367798	pulse	1	t		43.0	2.5	/experiments/AOT/AOT_stimuli/rescaled_final/0452_rv.mp4	0.0	221.5504913330078	
45	201.36566805839539	fix_post	2		12	43.0	2.5	/experiments/AOT/AOT_stimuli/rescaled_final/0452_rv.mp4	0.0	222.06723427772522	0.0998690128326416
46	201.46553707122803	fix_pre	0		119	44.0	2.5	/experiments/AOT/AOT_stimuli/rescaled_final/1501_rv.mp4	0.0	222.16710329055786	0.9915950298309326
46	202.44907402992249	pulse	0	t		44.0	2.5	/experiments/AOT/AOT_stimuli/rescaled_final/1501_rv.mp4	0.0	223.15064024925232	
46	202.45713210105896	movie	1		248	44.0	2.5	/experiments/AOT/AOT_stimuli/rescaled_final/1501_rv.mp4	0.0	223.1586983203888	2.508394956588745
46	204.04904222488403	pulse	1	t		44.0	2.5	/experiments/AOT/AOT_stimuli/rescaled_final/1501_rv.mp4	0.0	224.75060844421387	
46	204.9655270576477	fix_post	2		12	44.0	2.5	/experiments/AOT/AOT_stimuli/rescaled_final/1501_rv.mp4	0.0	225.66709327697754	0.09994316101074219
47	205.06547021865845	fix_pre	0		120	45.0	2.5	/experiments/AOT/AOT_stimuli/rescaled_final/1018_fw.mp4	0.0	225.76703643798828	1.0000128746032715
47	205.64904403686523	pulse	0	t		45.0	2.5	/experiments/AOT/AOT_stimuli/rescaled_final/1018_fw.mp4	0.0	226.35061025619507	
47	206.06548309326172	movie	1		247	45.0	2.5	/experiments/AOT/AOT_stimuli/rescaled_final/1018_fw.mp4	0.0	226.76704931259155	2.4999771118164062
47	207.24897623062134	pulse	1	t		45.0	2.5	/experiments/AOT/AOT_stimuli/rescaled_final/1018_fw.mp4	0.0	227.95054244995117	
47	208.56546020507812	fix_post	2		12	45.0	2.5	/experiments/AOT/AOT_stimuli/rescaled_final/1018_fw.mp4	0.0	229.26702642440796	0.10003495216369629
48	208.66549515724182	fix_pre	0		120	46.0	2.5	/experiments/AOT/AOT_stimuli/rescaled_final/0953_rv.mp4	0.0	229.36706137657166	0.9999790191650391
48	208.84899520874023	pulse	0	t		46.0	2.5	/experiments/AOT/AOT_stimuli/rescaled_final/0953_rv.mp4	0.0	229.55056142807007	
48	209.66547417640686	movie	1		244	46.0	2.5	/experiments/AOT/AOT_stimuli/rescaled_final/0953_rv.mp4	0.0	230.3670403957367	2.5000529289245605
48	210.448961019516	pulse	1	t		46.0	2.5	/experiments/AOT/AOT_stimuli/rescaled_final/0953_rv.mp4	0.0	231.15052723884583	
48	212.04739618301392	pulse	1	t		46.0	2.5	/experiments/AOT/AOT_stimuli/rescaled_final/0953_rv.mp4	0.0	232.74896240234375	
48	212.16552710533142	fix_post	2		12	46.0	2.5	/experiments/AOT/AOT_stimuli/rescaled_final/0953_rv.mp4	0.0	232.86709332466125	0.09990692138671875
49	212.26543402671814	fix_pre	0		120	47.0	2.5	/experiments/AOT/AOT_stimuli/rescaled_final/0785_rv.mp4	0.0	232.96700024604797	1.0000171661376953
49	213.26545119285583	movie	1		245	47.0	2.5	/experiments/AOT/AOT_stimuli/rescaled_final/0785_rv.mp4	0.0	233.96701741218567	2.5000338554382324
49	213.64979720115662	pulse	1	t		47.0	2.5	/experiments/AOT/AOT_stimuli/rescaled_final/0785_rv.mp4	0.0	234.35136342048645	
49	215.24899220466614	pulse	1	t		47.0	2.5	/experiments/AOT/AOT_stimuli/rescaled_final/0785_rv.mp4	0.0	235.95055842399597	
49	215.76548504829407	fix_post	2		12	47.0	2.5	/experiments/AOT/AOT_stimuli/rescaled_final/0785_rv.mp4	0.0	236.4670512676239	0.10002613067626953
50	215.86551117897034	fix_pre	0		119	48.0	2.5	/experiments/AOT/AOT_stimuli/rescaled_final/0640_fw.mp4	0.0	236.56707739830017	0.9916918277740479
50	216.84888815879822	pulse	0	t		48.0	2.5	/experiments/AOT/AOT_stimuli/rescaled_final/0640_fw.mp4	0.0	237.55045437812805	
50	216.85720300674438	movie	1		244	48.0	2.5	/experiments/AOT/AOT_stimuli/rescaled_final/0640_fw.mp4	0.0	237.55876922607422	2.5082430839538574
50	218.4485821723938	pulse	1	t		48.0	2.5	/experiments/AOT/AOT_stimuli/rescaled_final/0640_fw.mp4	0.0	239.15014839172363	
50	219.36544609069824	fix_post	2		12	48.0	2.5	/experiments/AOT/AOT_stimuli/rescaled_final/0640_fw.mp4	0.0	240.06701231002808	0.10001897811889648
51	219.46546506881714	fix_pre	0		120	49.0	2.5	blank	1.0	240.16703128814697	0.999981164932251
51	220.04894614219666	pulse	0	t		49.0	2.5	blank	1.0	240.7505123615265	
51	220.4654462337494	movie	1		300	49.0	2.5	blank	1.0	241.16701245307922	2.5000507831573486
51	221.64887523651123	pulse	1	t		49.0	2.5	blank	1.0	242.35044145584106	
51	222.96549701690674	fix_post	2		12	49.0	2.5	blank	1.0	243.66706323623657	0.0999600887298584
52	223.0654571056366	fix_pre	0		120	50.0	2.5	/experiments/AOT/AOT_stimuli/rescaled_final/1012_fw.mp4	0.0	243.76702332496643	0.999920129776001
52	223.24899411201477	pulse	0	t		50.0	2.5	/experiments/AOT/AOT_stimuli/rescaled_final/1012_fw.mp4	0.0	243.9505603313446	
52	224.0653772354126	movie	1		244	50.0	2.5	/experiments/AOT/AOT_stimuli/rescaled_final/1012_fw.mp4	0.0	244.76694345474243	2.5000288486480713
52	224.8489692211151	pulse	1	t		50.0	2.5	/experiments/AOT/AOT_stimuli/rescaled_final/1012_fw.mp4	0.0	245.55053544044495	
52	226.44747018814087	pulse	1	t		50.0	2.5	/experiments/AOT/AOT_stimuli/rescaled_final/1012_fw.mp4	0.0	247.1490364074707	
52	226.56540608406067	fix_post	2		12	50.0	2.5	/experiments/AOT/AOT_stimuli/rescaled_final/1012_fw.mp4	0.0	247.2669723033905	0.09998798370361328
53	226.66539406776428	fix_pre	0		120	51.0	2.5	/experiments/AOT/AOT_stimuli/rescaled_final/0859_fw.mp4	0.0	247.36696028709412	1.0000579357147217
53	227.665452003479	movie	1		245	51.0	2.5	/experiments/AOT/AOT_stimuli/rescaled_final/0859_fw.mp4	0.0	248.36701822280884	2.5000081062316895
53	228.04851818084717	pulse	1	t		51.0	2.5	/experiments/AOT/AOT_stimuli/rescaled_final/0859_fw.mp4	0.0	248.750084400177	
53	229.64898419380188	pulse	1	t		51.0	2.5	/experiments/AOT/AOT_stimuli/rescaled_final/0859_fw.mp4	0.0	250.3505504131317	
53	230.1654601097107	fix_post	2		12	51.0	2.5	/experiments/AOT/AOT_stimuli/rescaled_final/0859_fw.mp4	0.0	250.86702632904053	0.09994292259216309
54	230.26540303230286	fix_pre	0		119	52.0	2.5	/experiments/AOT/AOT_stimuli/rescaled_final/1250_rv.mp4	0.0	250.9669692516327	0.9916760921478271
54	231.2489070892334	pulse	0	t		52.0	2.5	/experiments/AOT/AOT_stimuli/rescaled_final/1250_rv.mp4	0.0	251.95047330856323	
54	231.25707912445068	movie	1		248	52.0	2.5	/experiments/AOT/AOT_stimuli/rescaled_final/1250_rv.mp4	0.0	251.95864534378052	2.508418083190918
54	232.84903001785278	pulse	1	t		52.0	2.5	/experiments/AOT/AOT_stimuli/rescaled_final/1250_rv.mp4	0.0	253.55059623718262	
54	233.7654972076416	fix_post	2		12	52.0	2.5	/experiments/AOT/AOT_stimuli/rescaled_final/1250_rv.mp4	0.0	254.46706342697144	0.0998988151550293
55	233.86539602279663	fix_pre	0		120	53.0	2.5	/experiments/AOT/AOT_stimuli/rescaled_final/1466_fw.mp4	0.0	254.56696224212646	1.0000331401824951
55	234.4489541053772	pulse	0	t		53.0	2.5	/experiments/AOT/AOT_stimuli/rescaled_final/1466_fw.mp4	0.0	255.15052032470703	
55	234.86542916297913	movie	1		243	53.0	2.5	/experiments/AOT/AOT_stimuli/rescaled_final/1466_fw.mp4	0.0	255.56699538230896	2.4999279975891113
55	236.04896903038025	pulse	1	t		53.0	2.5	/experiments/AOT/AOT_stimuli/rescaled_final/1466_fw.mp4	0.0	256.7505352497101	
55	237.36535716056824	fix_post	2		12	53.0	2.5	/experiments/AOT/AOT_stimuli/rescaled_final/1466_fw.mp4	0.0	258.06692337989807	0.10002803802490234
56	237.46538519859314	fix_pre	0		120	54.0	2.5	/experiments/AOT/AOT_stimuli/rescaled_final/0429_fw.mp4	0.0	258.166951417923	0.9999828338623047
56	237.64888405799866	pulse	0	t		54.0	2.5	/experiments/AOT/AOT_stimuli/rescaled_final/0429_fw.mp4	0.0	258.3504502773285	
56	238.46536803245544	movie	1		243	54.0	2.5	/experiments/AOT/AOT_stimuli/rescaled_final/0429_fw.mp4	0.0	259.1669342517853	2.500084161758423
56	239.24902820587158	pulse	1	t		54.0	2.5	/experiments/AOT/AOT_stimuli/rescaled_final/0429_fw.mp4	0.0	259.9505944252014	
56	240.8473150730133	pulse	1	t		54.0	2.5	/experiments/AOT/AOT_stimuli/rescaled_final/0429_fw.mp4	0.0	261.54888129234314	
56	240.96545219421387	fix_post	2		12	54.0	2.5	/experiments/AOT/AOT_stimuli/rescaled_final/0429_fw.mp4	0.0	261.6670184135437	0.0999758243560791
57	241.06542801856995	fix_pre	0		120	55.0	2.5	blank	1.0	261.7669942378998	0.9999740123748779
57	242.06540203094482	movie	1		300	55.0	2.5	blank	1.0	262.76696825027466	2.500128984451294
57	242.44891214370728	pulse	1	t		55.0	2.5	blank	1.0	263.1504783630371	
57	244.04885411262512	pulse	1	t		55.0	2.5	blank	1.0	264.75042033195496	
57	244.56553101539612	fix_post	2		12	55.0	2.5	blank	1.0	265.26709723472595	0.09981417655944824
58	244.66534519195557	fix_pre	0		119	56.0	2.5	/experiments/AOT/AOT_stimuli/rescaled_final/2109_fw.mp4	0.0	265.3669114112854	0.9917259216308594
58	245.64880919456482	pulse	0	t		56.0	2.5	/experiments/AOT/AOT_stimuli/rescaled_final/2109_fw.mp4	0.0	266.35037541389465	
58	245.65707111358643	movie	1		245	56.0	2.5	/experiments/AOT/AOT_stimuli/rescaled_final/2109_fw.mp4	0.0	266.35863733291626	2.508291006088257
58	247.2484691143036	pulse	1	t		56.0	2.5	/experiments/AOT/AOT_stimuli/rescaled_final/2109_fw.mp4	0.0	267.9500353336334	
58	248.16536211967468	fix_post	2		12	56.0	2.5	/experiments/AOT/AOT_stimuli/rescaled_final/2109_fw.mp4	0.0	268.8669283390045	0.09962701797485352
59	248.26498913764954	fix_pre	0		120	57.0	2.5	/experiments/AOT/AOT_stimuli/rescaled_final/0063_fw.mp4	0.0	268.96655535697937	1.000096082687378
59	248.8484401702881	pulse	0	t		57.0	2.5	/experiments/AOT/AOT_stimuli/rescaled_final/0063_fw.mp4	0.0	269.5500063896179	
59	249.2650852203369	movie	1		246	57.0	2.5	/experiments/AOT/AOT_stimuli/rescaled_final/0063_fw.mp4	0.0	269.96665143966675	2.5002408027648926
59	250.4489951133728	pulse	1	t		57.0	2.5	/experiments/AOT/AOT_stimuli/rescaled_final/0063_fw.mp4	0.0	271.15056133270264	
59	251.7653260231018	fix_post	2		12	57.0	2.5	/experiments/AOT/AOT_stimuli/rescaled_final/0063_fw.mp4	0.0	272.46689224243164	0.10003399848937988
60	251.8653600215912	fix_pre	0		120	58.0	2.5	/experiments/AOT/AOT_stimuli/rescaled_final/0785_fw.mp4	0.0	272.566926240921	0.9999911785125732
60	252.04886722564697	pulse	0	t		58.0	2.5	/experiments/AOT/AOT_stimuli/rescaled_final/0785_fw.mp4	0.0	272.7504334449768	
60	252.86535120010376	movie	1		246	58.0	2.5	/experiments/AOT/AOT_stimuli/rescaled_final/0785_fw.mp4	0.0	273.5669174194336	2.5000128746032715
60	253.64889311790466	pulse	1	t		58.0	2.5	/experiments/AOT/AOT_stimuli/rescaled_final/0785_fw.mp4	0.0	274.3504593372345	
60	255.2475230693817	pulse	1	t		58.0	2.5	/experiments/AOT/AOT_stimuli/rescaled_final/0785_fw.mp4	0.0	275.94908928871155	
60	255.36536407470703	fix_post	2		12	58.0	2.5	/experiments/AOT/AOT_stimuli/rescaled_final/0785_fw.mp4	0.0	276.06693029403687	0.09996414184570312
61	255.46532821655273	fix_pre	0		120	59.0	2.5	/experiments/AOT/AOT_stimuli/rescaled_final/2075_rv.mp4	0.0	276.16689443588257	1.0000898838043213
61	256.46541810035706	movie	1		245	59.0	2.5	/experiments/AOT/AOT_stimuli/rescaled_final/2075_rv.mp4	0.0	277.1669843196869	2.49991512298584
61	256.84830617904663	pulse	1	t		59.0	2.5	/experiments/AOT/AOT_stimuli/rescaled_final/2075_rv.mp4	0.0	277.54987239837646	
61	258.4487290382385	pulse	1	t		59.0	2.5	/experiments/AOT/AOT_stimuli/rescaled_final/2075_rv.mp4	0.0	279.15029525756836	
61	258.9653332233429	fix_post	2		12	59.0	2.5	/experiments/AOT/AOT_stimuli/rescaled_final/2075_rv.mp4	0.0	279.66689944267273	0.10003495216369629
62	259.0653681755066	fix_pre	0		119	60.0	2.5	/experiments/AOT/AOT_stimuli/rescaled_final/2164_fw.mp4	0.0	279.7669343948364	0.9916260242462158
62	260.0487720966339	pulse	0	t		60.0	2.5	/experiments/AOT/AOT_stimuli/rescaled_final/2164_fw.mp4	0.0	280.75033831596375	
62	260.0569941997528	movie	1		246	60.0	2.5	/experiments/AOT/AOT_stimuli/rescaled_final/2164_fw.mp4	0.0	280.75856041908264	2.5083398818969727
62	261.64834117889404	pulse	1	t		60.0	2.5	/experiments/AOT/AOT_stimuli/rescaled_final/2164_fw.mp4	0.0	282.3499073982239	
62	262.5653340816498	fix_post	2		12	60.0	2.5	/experiments/AOT/AOT_stimuli/rescaled_final/2164_fw.mp4	0.0	283.2669003009796	0.09995603561401367
63	262.6652901172638	fix_pre	0		120	61.0	2.5	/experiments/AOT/AOT_stimuli/rescaled_final/1529_rv.mp4	0.0	283.3668563365936	0.9999608993530273
63	263.24882102012634	pulse	0	t		61.0	2.5	/experiments/AOT/AOT_stimuli/rescaled_final/1529_rv.mp4	0.0	283.9503872394562	
63	263.6652510166168	movie	1		245	61.0	2.5	/experiments/AOT/AOT_stimuli/rescaled_final/1529_rv.mp4	0.0	284.36681723594666	2.5000619888305664
63	264.848904132843	pulse	1	t		61.0	2.5	/experiments/AOT/AOT_stimuli/rescaled_final/1529_rv.mp4	0.0	285.55047035217285	
63	266.1653130054474	fix_post	2		12	61.0	2.5	/experiments/AOT/AOT_stimuli/rescaled_final/1529_rv.mp4	0.0	286.8668792247772	0.09998321533203125
64	266.2652962207794	fix_pre	0		120	62.0	2.5	blank	1.0	286.96686244010925	1.0000338554382324
64	266.4488401412964	pulse	0	t		62.0	2.5	blank	1.0	287.1504063606262	
64	267.26533007621765	movie	1		300	62.0	2.5	blank	1.0	287.9668962955475	2.4999589920043945
64	268.04887104034424	pulse	1	t		62.0	2.5	blank	1.0	288.7504372596741	
64	269.6487731933594	pulse	1	t		62.0	2.5	blank	1.0	290.3503394126892	
64	269.76528906822205	fix_post	2		12	62.0	2.5	blank	1.0	290.4668552875519	0.0999610424041748
65	269.8652501106262	fix_pre	0		120	63.0	2.5	/experiments/AOT/AOT_stimuli/rescaled_final/1692_rv.mp4	0.0	290.56681632995605	1.0000319480895996
65	270.8652820587158	movie	1		244	63.0	2.5	/experiments/AOT/AOT_stimuli/rescaled_final/1692_rv.mp4	0.0	291.56684827804565	2.4999780654907227
65	271.24853110313416	pulse	1	t		63.0	2.5	/experiments/AOT/AOT_stimuli/rescaled_final/1692_rv.mp4	0.0	291.950097322464	
65	272.84876108169556	pulse	1	t		63.0	2.5	/experiments/AOT/AOT_stimuli/rescaled_final/1692_rv.mp4	0.0	293.5503273010254	
65	273.36526012420654	fix_post	2		12	63.0	2.5	/experiments/AOT/AOT_stimuli/rescaled_final/1692_rv.mp4	0.0	294.0668263435364	0.10003209114074707
66	273.4652922153473	fix_pre	0		119	64.0	2.5	/experiments/AOT/AOT_stimuli/rescaled_final/1159_rv.mp4	0.0	294.1668584346771	0.991635799407959
66	274.44875621795654	pulse	0	t		64.0	2.5	/experiments/AOT/AOT_stimuli/rescaled_final/1159_rv.mp4	0.0	295.1503224372864	
66	274.45692801475525	movie	1		246	64.0	2.5	/experiments/AOT/AOT_stimuli/rescaled_final/1159_rv.mp4	0.0	295.1584942340851	2.5083701610565186
66	276.0483980178833	pulse	1	t		64.0	2.5	/experiments/AOT/AOT_stimuli/rescaled_final/1159_rv.mp4	0.0	296.74996423721313	
66	276.96529817581177	fix_post	2		12	64.0	2.5	/experiments/AOT/AOT_stimuli/rescaled_final/1159_rv.mp4	0.0	297.6668643951416	0.09990692138671875
67	277.0652050971985	fix_pre	0		120	65.0	2.5	/experiments/AOT/AOT_stimuli/rescaled_final/1699_fw.mp4	0.0	297.7667713165283	1.0000410079956055
67	277.6487262248993	pulse	0	t		65.0	2.5	/experiments/AOT/AOT_stimuli/rescaled_final/1699_fw.mp4	0.0	298.3502924442291	
67	278.0652461051941	movie	1		244	65.0	2.5	/experiments/AOT/AOT_stimuli/rescaled_final/1699_fw.mp4	0.0	298.7668123245239	2.49993896484375
67	279.24873304367065	pulse	1	t		65.0	2.5	/experiments/AOT/AOT_stimuli/rescaled_final/1699_fw.mp4	0.0	299.9502992630005	
67	280.56518507003784	fix_post	2		12	65.0	2.5	/experiments/AOT/AOT_stimuli/rescaled_final/1699_fw.mp4	0.0	301.2667512893677	0.10005903244018555
68	280.665244102478	fix_pre	0		120	66.0	2.5	/experiments/AOT/AOT_stimuli/rescaled_final/1786_fw.mp4	0.0	301.36681032180786	1.0000340938568115
68	280.8487751483917	pulse	0	t		66.0	2.5	/experiments/AOT/AOT_stimuli/rescaled_final/1786_fw.mp4	0.0	301.55034136772156	
68	281.66527819633484	movie	1		246	66.0	2.5	/experiments/AOT/AOT_stimuli/rescaled_final/1786_fw.mp4	0.0	302.3668444156647	2.4999709129333496
68	282.4487671852112	pulse	1	t		66.0	2.5	/experiments/AOT/AOT_stimuli/rescaled_final/1786_fw.mp4	0.0	303.150333404541	
68	284.0472321510315	pulse	1	t		66.0	2.5	/experiments/AOT/AOT_stimuli/rescaled_final/1786_fw.mp4	0.0	304.7487983703613	
68	284.1652491092682	fix_post	2		12	66.0	2.5	/experiments/AOT/AOT_stimuli/rescaled_final/1786_fw.mp4	0.0	304.866815328598	0.09998512268066406
69	284.26523423194885	fix_pre	0		120	67.0	2.5	/experiments/AOT/AOT_stimuli/rescaled_final/0788_fw.mp4	0.0	304.9668004512787	1.0000078678131104
69	285.26524209976196	movie	1		244	67.0	2.5	/experiments/AOT/AOT_stimuli/rescaled_final/0788_fw.mp4	0.0	305.9668083190918	2.4995079040527344
69	285.649955034256	pulse	1	t		67.0	2.5	/experiments/AOT/AOT_stimuli/rescaled_final/0788_fw.mp4	0.0	306.3515212535858	
69	287.2488851547241	pulse	1	t		67.0	2.5	/experiments/AOT/AOT_stimuli/rescaled_final/0788_fw.mp4	0.0	307.95045137405396	
69	287.7647500038147	fix_post	2		12	67.0	2.5	/experiments/AOT/AOT_stimuli/rescaled_final/0788_fw.mp4	0.0	308.46631622314453	0.10043621063232422
70	287.865186214447	fix_pre	0		119	68.0	2.5	/experiments/AOT/AOT_stimuli/rescaled_final/0955_fw.mp4	0.0	308.56675243377686	0.9917399883270264
70	288.8486030101776	pulse	0	t		68.0	2.5	/experiments/AOT/AOT_stimuli/rescaled_final/0955_fw.mp4	0.0	309.55016922950745	
70	288.85692620277405	movie	1		244	68.0	2.5	/experiments/AOT/AOT_stimuli/rescaled_final/0955_fw.mp4	0.0	309.5584924221039	2.508288860321045
70	290.4499111175537	pulse	1	t		68.0	2.5	/experiments/AOT/AOT_stimuli/rescaled_final/0955_fw.mp4	0.0	311.15147733688354	
70	291.3652150630951	fix_post	2		12	68.0	2.5	/experiments/AOT/AOT_stimuli/rescaled_final/0955_fw.mp4	0.0	312.0667812824249	0.0999901294708252
71	291.4652051925659	fix_pre	0		120	69.0	2.5	/experiments/AOT/AOT_stimuli/rescaled_final/1689_rv.mp4	0.0	312.16677141189575	1.0000269412994385
71	292.04867815971375	pulse	0	t		69.0	2.5	/experiments/AOT/AOT_stimuli/rescaled_final/1689_rv.mp4	0.0	312.7502443790436	
71	292.46523213386536	movie	1		246	69.0	2.5	/experiments/AOT/AOT_stimuli/rescaled_final/1689_rv.mp4	0.0	313.1667983531952	2.499976873397827
71	293.6487720012665	pulse	1	t		69.0	2.5	/experiments/AOT/AOT_stimuli/rescaled_final/1689_rv.mp4	0.0	314.3503382205963	
71	294.9652090072632	fix_post	2		12	69.0	2.5	/experiments/AOT/AOT_stimuli/rescaled_final/1689_rv.mp4	0.0	315.666775226593	0.09991121292114258
72	295.0651202201843	fix_pre	0		120	70.0	2.5	blank	1.0	315.76668643951416	1.000053882598877
72	295.2487602233887	pulse	0	t		70.0	2.5	blank	1.0	315.9503264427185	
72	296.0651741027832	movie	1		300	70.0	2.5	blank	1.0	316.76674032211304	2.4999969005584717
72	296.8486771583557	pulse	1	t		70.0	2.5	blank	1.0	317.55024337768555	
72	298.44869923591614	pulse	1	t		70.0	2.5	blank	1.0	319.150265455246	
72	298.5651710033417	fix_post	2		12	70.0	2.5	blank	1.0	319.2667372226715	0.0999760627746582
73	298.66514706611633	fix_pre	0		120	71.0	2.5	/experiments/AOT/AOT_stimuli/rescaled_final/1557_fw.mp4	0.0	319.36671328544617	0.9999301433563232
73	299.66507720947266	movie	1		244	71.0	2.5	/experiments/AOT/AOT_stimuli/rescaled_final/1557_fw.mp4	0.0	320.3666434288025	2.5000529289245605
73	300.0488181114197	pulse	1	t		71.0	2.5	/experiments/AOT/AOT_stimuli/rescaled_final/1557_fw.mp4	0.0	320.7503843307495	
73	301.64869809150696	pulse	1	t		71.0	2.5	/experiments/AOT/AOT_stimuli/rescaled_final/1557_fw.mp4	0.0	322.3502643108368	
73	302.1651301383972	fix_post	2		12	71.0	2.5	/experiments/AOT/AOT_stimuli/rescaled_final/1557_fw.mp4	0.0	322.86669635772705	0.1000370979309082
74	302.2651672363281	fix_pre	0		119	72.0	2.5	/experiments/AOT/AOT_stimuli/rescaled_final/1122_rv.mp4	0.0	322.96673345565796	0.9916298389434814
74	303.24865102767944	pulse	0	t		72.0	2.5	/experiments/AOT/AOT_stimuli/rescaled_final/1122_rv.mp4	0.0	323.9502172470093	
74	303.2567970752716	movie	1		253	72.0	2.5	/experiments/AOT/AOT_stimuli/rescaled_final/1122_rv.mp4	0.0	323.95836329460144	2.508453130722046
74	304.8477551937103	pulse	1	t		72.0	2.5	/experiments/AOT/AOT_stimuli/rescaled_final/1122_rv.mp4	0.0	325.54932141304016	
74	305.76525020599365	fix_post	2		12	72.0	2.5	/experiments/AOT/AOT_stimuli/rescaled_final/1122_rv.mp4	0.0	326.4668164253235	0.1000518798828125
75	305.86530208587646	fix_pre	0		120	73.0	2.5	/experiments/AOT/AOT_stimuli/rescaled_final/2046_fw.mp4	0.0	326.5668683052063	0.9998171329498291
75	306.44843101501465	pulse	0	t		73.0	2.5	/experiments/AOT/AOT_stimuli/rescaled_final/2046_fw.mp4	0.0	327.1499972343445	
75	306.8651192188263	movie	1		244	73.0	2.5	/experiments/AOT/AOT_stimuli/rescaled_final/2046_fw.mp4	0.0	327.5666854381561	2.5001018047332764
75	308.0486741065979	pulse	1	t		73.0	2.5	/experiments/AOT/AOT_stimuli/rescaled_final/2046_fw.mp4	0.0	328.75024032592773	
75	309.36522102355957	fix_post	2		12	73.0	2.5	/experiments/AOT/AOT_stimuli/rescaled_final/2046_fw.mp4	0.0	330.0667872428894	0.09992814064025879
76	309.46514916419983	fix_pre	0		120	74.0	2.5	/experiments/AOT/AOT_stimuli/rescaled_final/0683_fw.mp4	0.0	330.16671538352966	1.0000059604644775
76	309.64864802360535	pulse	0	t		74.0	2.5	/experiments/AOT/AOT_stimuli/rescaled_final/0683_fw.mp4	0.0	330.3502142429352	
76	310.4651551246643	movie	1		243	74.0	2.5	/experiments/AOT/AOT_stimuli/rescaled_final/0683_fw.mp4	0.0	331.16672134399414	2.499948024749756
76	311.2486231327057	pulse	1	t		74.0	2.5	/experiments/AOT/AOT_stimuli/rescaled_final/0683_fw.mp4	0.0	331.9501893520355	
76	312.8469831943512	pulse	1	t		74.0	2.5	/experiments/AOT/AOT_stimuli/rescaled_final/0683_fw.mp4	0.0	333.54854941368103	
76	312.96510314941406	fix_post	2		12	74.0	2.5	/experiments/AOT/AOT_stimuli/rescaled_final/0683_fw.mp4	0.0	333.6666693687439	0.09999299049377441
77	313.06509613990784	fix_pre	0		120	75.0	2.5	/experiments/AOT/AOT_stimuli/rescaled_final/0256_fw.mp4	0.0	333.76666235923767	1.000032901763916
77	314.06512904167175	movie	1		243	75.0	2.5	/experiments/AOT/AOT_stimuli/rescaled_final/0256_fw.mp4	0.0	334.7666952610016	2.499981164932251
77	314.44869923591614	pulse	1	t		75.0	2.5	/experiments/AOT/AOT_stimuli/rescaled_final/0256_fw.mp4	0.0	335.150265455246	
77	316.0485441684723	pulse	1	t		75.0	2.5	/experiments/AOT/AOT_stimuli/rescaled_final/0256_fw.mp4	0.0	336.7501103878021	
77	316.565110206604	fix_post	2		12	75.0	2.5	/experiments/AOT/AOT_stimuli/rescaled_final/0256_fw.mp4	0.0	337.26667642593384	0.09994792938232422
78	316.6650581359863	fix_pre	0		119	76.0	2.5	blank	1.0	337.36662435531616	0.9916739463806152
78	317.64859104156494	pulse	0	t		76.0	2.5	blank	1.0	338.3501572608948	
78	317.65673208236694	movie	1		301	76.0	2.5	blank	1.0	338.3582983016968	2.508415937423706
78	319.24854612350464	pulse	1	t		76.0	2.5	blank	1.0	339.9501123428345	
78	320.16514801979065	fix_post	2		12	76.0	2.5	blank	1.0	340.8667142391205	0.09984302520751953
79	320.26499104499817	fix_pre	0		120	77.0	2.5	/experiments/AOT/AOT_stimuli/rescaled_final/0840_fw.mp4	0.0	340.966557264328	1.0000929832458496
79	320.8485691547394	pulse	0	t		77.0	2.5	/experiments/AOT/AOT_stimuli/rescaled_final/0840_fw.mp4	0.0	341.5501353740692	
79	321.265084028244	movie	1		247	77.0	2.5	/experiments/AOT/AOT_stimuli/rescaled_final/0840_fw.mp4	0.0	341.96665024757385	2.499907970428467
79	322.448637008667	pulse	1	t		77.0	2.5	/experiments/AOT/AOT_stimuli/rescaled_final/0840_fw.mp4	0.0	343.1502032279968	
79	323.7649919986725	fix_post	2		12	77.0	2.5	/experiments/AOT/AOT_stimuli/rescaled_final/0840_fw.mp4	0.0	344.4665582180023	0.10006999969482422
80	323.8650619983673	fix_pre	0		120	78.0	2.5	/experiments/AOT/AOT_stimuli/rescaled_final/1397_rv.mp4	0.0	344.56662821769714	1.0000500679016113
80	324.0485861301422	pulse	0	t		78.0	2.5	/experiments/AOT/AOT_stimuli/rescaled_final/1397_rv.mp4	0.0	344.75015234947205	
80	324.8651120662689	movie	1		245	78.0	2.5	/experiments/AOT/AOT_stimuli/rescaled_final/1397_rv.mp4	0.0	345.56667828559875	2.500009059906006
80	325.64860105514526	pulse	1	t		78.0	2.5	/experiments/AOT/AOT_stimuli/rescaled_final/1397_rv.mp4	0.0	346.3501672744751	
80	327.24744606018066	pulse	1	t		78.0	2.5	/experiments/AOT/AOT_stimuli/rescaled_final/1397_rv.mp4	0.0	347.9490122795105	
80	327.3651211261749	fix_post	2		12	78.0	2.5	/experiments/AOT/AOT_stimuli/rescaled_final/1397_rv.mp4	0.0	348.06668734550476	0.09987187385559082
81	327.4649930000305	fix_pre	0		120	79.0	2.5	/experiments/AOT/AOT_stimuli/rescaled_final/0256_rv.mp4	0.0	348.16655921936035	0.9999940395355225
81	328.46498703956604	movie	1		245	79.0	2.5	/experiments/AOT/AOT_stimuli/rescaled_final/0256_rv.mp4	0.0	349.1665532588959	2.4999871253967285
81	328.84988808631897	pulse	1	t		79.0	2.5	/experiments/AOT/AOT_stimuli/rescaled_final/0256_rv.mp4	0.0	349.5514543056488	
81	330.4484782218933	pulse	1	t		79.0	2.5	/experiments/AOT/AOT_stimuli/rescaled_final/0256_rv.mp4	0.0	351.15004444122314	
81	330.96497416496277	fix_post	2		12	79.0	2.5	/experiments/AOT/AOT_stimuli/rescaled_final/0256_rv.mp4	0.0	351.6665403842926	0.10001802444458008
82	331.06499218940735	fix_pre	0		119	80.0	2.5	/experiments/AOT/AOT_stimuli/rescaled_final/1701_rv.mp4	0.0	351.7665584087372	0.991675853729248
82	332.0484890937805	pulse	0	t		80.0	2.5	/experiments/AOT/AOT_stimuli/rescaled_final/1701_rv.mp4	0.0	352.75005531311035	
82	332.0566680431366	movie	1		245	80.0	2.5	/experiments/AOT/AOT_stimuli/rescaled_final/1701_rv.mp4	0.0	352.75823426246643	2.5083110332489014
82	333.6496181488037	pulse	1	t		80.0	2.5	/experiments/AOT/AOT_stimuli/rescaled_final/1701_rv.mp4	0.0	354.35118436813354	
82	334.5649790763855	fix_post	2		12	80.0	2.5	/experiments/AOT/AOT_stimuli/rescaled_final/1701_rv.mp4	0.0	355.26654529571533	0.10004305839538574
83	334.6650221347809	fix_pre	0		120	81.0	2.5	/experiments/AOT/AOT_stimuli/rescaled_final/2082_fw.mp4	0.0	355.3665883541107	1.0000078678131104
83	335.2484700679779	pulse	0	t		81.0	2.5	/experiments/AOT/AOT_stimuli/rescaled_final/2082_fw.mp4	0.0	355.95003628730774	
83	335.665030002594	movie	1		244	81.0	2.5	/experiments/AOT/AOT_stimuli/rescaled_final/2082_fw.mp4	0.0	356.3665962219238	2.4995172023773193
83	336.84856820106506	pulse	1	t		81.0	2.5	/experiments/AOT/AOT_stimuli/rescaled_final/2082_fw.mp4	0.0	357.5501344203949	
83	338.1645472049713	fix_post	2		12	81.0	2.5	/experiments/AOT/AOT_stimuli/rescaled_final/2082_fw.mp4	0.0	358.86611342430115	0.1004488468170166
84	338.26499605178833	fix_pre	0		120	82.0	2.5	/experiments/AOT/AOT_stimuli/rescaled_final/0823_fw.mp4	0.0	358.96656227111816	1.0001270771026611
84	338.4485352039337	pulse	0	t		82.0	2.5	/experiments/AOT/AOT_stimuli/rescaled_final/0823_fw.mp4	0.0	359.15010142326355	
84	339.265123128891	movie	1		246	82.0	2.5	/experiments/AOT/AOT_stimuli/rescaled_final/0823_fw.mp4	0.0	359.9666893482208	2.499964952468872
84	340.0485031604767	pulse	1	t		82.0	2.5	/experiments/AOT/AOT_stimuli/rescaled_final/0823_fw.mp4	0.0	360.7500693798065	
84	341.64799213409424	pulse	1	t		82.0	2.5	/experiments/AOT/AOT_stimuli/rescaled_final/0823_fw.mp4	0.0	362.3495583534241	
84	341.76508808135986	fix_post	2		12	82.0	2.5	/experiments/AOT/AOT_stimuli/rescaled_final/0823_fw.mp4	0.0	362.4666543006897	0.0998680591583252
85	341.8649561405182	fix_pre	0		120	83.0	2.5	blank	1.0	362.566522359848	1.0000438690185547
85	342.86500000953674	movie	1		300	83.0	2.5	blank	1.0	363.5665662288666	2.4999940395355225
85	343.2484700679779	pulse	1	t		83.0	2.5	blank	1.0	363.95003628730774	
85	344.8483920097351	pulse	1	t		83.0	2.5	blank	1.0	365.54995822906494	
85	345.36499404907227	fix_post	2		12	83.0	2.5	blank	1.0	366.0665602684021	0.099945068359375
87	345.46493911743164	stim	0		1716					366.1665053367615	14.299982070922852
87	346.4484601020813	pulse	0	t						367.15002632141113	
87	348.04837012290955	pulse	0	t						368.7499363422394	
87	349.6483781337738	pulse	0	t						370.34994435310364	
87	351.24845814704895	pulse	0	t						371.9500243663788	
87	352.8483760356903	pulse	0	t						373.54994225502014	
87	354.44843101501465	pulse	0	t						375.1499972343445	
87	356.0484290122986	pulse	0	t						376.7499952316284	
87	357.64852023124695	pulse	0	t						378.3500864505768	
87	359.2484540939331	pulse	0	t						379.95002031326294	
