trial_nr	onset	event_type	phase	response	nr_frames	movie_index	movie_duration	movie_file	blank	onset_abs	duration
0	0.13280487060546875	stim	0		25					20.03129291534424	0.20871400833129883
0	0.33357787132263184	response	0	space						20.2320659160614	
1	0.3415188789367676	stim	0		4723					20.240006923675537	39.35816502571106
1	39.6958749294281	pulse	0	t						59.59436297416687	
1	39.69968390464783	stim	1		1717					59.5981719493866	14.30830717086792
1	41.291500091552734	pulse	1	t						61.189988136291504	
1	42.89154386520386	pulse	1	t						62.79003190994263	
1	44.49152588844299	pulse	1	t						64.39001393318176	
1	46.09155988693237	pulse	1	t						65.99004793167114	
1	47.69146704673767	pulse	1	t						67.58995509147644	
1	49.29149293899536	pulse	1	t						69.18998098373413	
1	50.891517877578735	pulse	1	t						70.7900059223175	
1	52.49145793914795	pulse	1	t						72.38994598388672	
2	54.00799107551575	fix_pre	0		11	0.0	2.5	/experiments/AOT/AOT_stimuli/rescaled_final/0316_rv.mp4	0.0	73.90647912025452	0.0917048454284668
2	54.09148597717285	pulse	0	t		0.0	2.5	/experiments/AOT/AOT_stimuli/rescaled_final/0316_rv.mp4	0.0	73.98997402191162	
2	54.099695920944214	movie	1		245	0.0	2.5	/experiments/AOT/AOT_stimuli/rescaled_final/0316_rv.mp4	0.0	73.99818396568298	2.5082290172576904
2	55.691675901412964	pulse	1	t		0.0	2.5	/experiments/AOT/AOT_stimuli/rescaled_final/0316_rv.mp4	0.0	75.59016394615173	
2	56.607924938201904	fix_post	2		12	0.0	2.5	/experiments/AOT/AOT_stimuli/rescaled_final/0316_rv.mp4	0.0	76.50641298294067	0.10005712509155273
3	56.70798206329346	fix_pre	0		120	1.0	2.5	/experiments/AOT/AOT_stimuli/rescaled_final/0540_fw.mp4	0.0	76.60647010803223	0.9999749660491943
3	57.291496992111206	pulse	0	t		1.0	2.5	/experiments/AOT/AOT_stimuli/rescaled_final/0540_fw.mp4	0.0	77.18998503684998	
3	57.70795702934265	movie	1		245	1.0	2.5	/experiments/AOT/AOT_stimuli/rescaled_final/0540_fw.mp4	0.0	77.60644507408142	2.500041961669922
3	58.891573905944824	pulse	1	t		1.0	2.5	/experiments/AOT/AOT_stimuli/rescaled_final/0540_fw.mp4	0.0	78.7900619506836	
3	60.20799899101257	fix_post	2		12	1.0	2.5	/experiments/AOT/AOT_stimuli/rescaled_final/0540_fw.mp4	0.0	80.10648703575134	0.09996199607849121
4	60.307960987091064	fix_pre	0		120	2.0	2.5	/experiments/AOT/AOT_stimuli/rescaled_final/1357_fw.mp4	0.0	80.20644903182983	0.99993896484375
4	60.49140787124634	pulse	0	t		2.0	2.5	/experiments/AOT/AOT_stimuli/rescaled_final/1357_fw.mp4	0.0	80.38989591598511	
4	61.307899951934814	movie	1		244	2.0	2.5	/experiments/AOT/AOT_stimuli/rescaled_final/1357_fw.mp4	0.0	81.20638799667358	2.4996869564056396
4	62.091598987579346	pulse	1	t		2.0	2.5	/experiments/AOT/AOT_stimuli/rescaled_final/1357_fw.mp4	0.0	81.99008703231812	
4	63.68973994255066	pulse	1	t		2.0	2.5	/experiments/AOT/AOT_stimuli/rescaled_final/1357_fw.mp4	0.0	83.58822798728943	
4	63.807586908340454	fix_post	2		12	2.0	2.5	/experiments/AOT/AOT_stimuli/rescaled_final/1357_fw.mp4	0.0	83.70607495307922	0.09999608993530273
5	63.90758299827576	fix_pre	0		120	3.0	2.5	/experiments/AOT/AOT_stimuli/rescaled_final/0213_fw.mp4	0.0	83.80607104301453	1.0000929832458496
5	64.9076759815216	movie	1		245	3.0	2.5	/experiments/AOT/AOT_stimuli/rescaled_final/0213_fw.mp4	0.0	84.80616402626038	2.500303030014038
5	65.2910680770874	pulse	1	t		3.0	2.5	/experiments/AOT/AOT_stimuli/rescaled_final/0213_fw.mp4	0.0	85.18955612182617	
5	66.89132308959961	pulse	1	t		3.0	2.5	/experiments/AOT/AOT_stimuli/rescaled_final/0213_fw.mp4	0.0	86.78981113433838	
5	67.40797901153564	fix_post	2		12	3.0	2.5	/experiments/AOT/AOT_stimuli/rescaled_final/0213_fw.mp4	0.0	87.30646705627441	0.10001587867736816
6	67.50799489021301	fix_pre	0		119	4.0	2.5	/experiments/AOT/AOT_stimuli/rescaled_final/0125_fw.mp4	0.0	87.40648293495178	0.9916000366210938
6	68.49138402938843	pulse	0	t		4.0	2.5	/experiments/AOT/AOT_stimuli/rescaled_final/0125_fw.mp4	0.0	88.3898720741272	
6	68.4995949268341	movie	1		245	4.0	2.5	/experiments/AOT/AOT_stimuli/rescaled_final/0125_fw.mp4	0.0	88.39808297157288	2.508305072784424
6	70.0923900604248	pulse	1	t		4.0	2.5	/experiments/AOT/AOT_stimuli/rescaled_final/0125_fw.mp4	0.0	89.99087810516357	
6	71.00789999961853	fix_post	2		12	4.0	2.5	/experiments/AOT/AOT_stimuli/rescaled_final/0125_fw.mp4	0.0	90.9063880443573	0.0999760627746582
7	71.10787606239319	fix_pre	0		120	5.0	2.5	/experiments/AOT/AOT_stimuli/rescaled_final/0125_rv.mp4	0.0	91.00636410713196	0.999701976776123
7	71.6913709640503	pulse	0	t		5.0	2.5	/experiments/AOT/AOT_stimuli/rescaled_final/0125_rv.mp4	0.0	91.58985900878906	
7	72.10757803916931	movie	1		243	5.0	2.5	/experiments/AOT/AOT_stimuli/rescaled_final/0125_rv.mp4	0.0	92.00606608390808	2.499987840652466
7	73.29140186309814	pulse	1	t		5.0	2.5	/experiments/AOT/AOT_stimuli/rescaled_final/0125_rv.mp4	0.0	93.18988990783691	
7	74.60756587982178	fix_post	2		12	5.0	2.5	/experiments/AOT/AOT_stimuli/rescaled_final/0125_rv.mp4	0.0	94.50605392456055	0.10030102729797363
8	74.70786690711975	fix_pre	0		120	6.0	2.5	/experiments/AOT/AOT_stimuli/rescaled_final/1835_rv.mp4	0.0	94.60635495185852	1.0000300407409668
8	74.89159607887268	pulse	0	t		6.0	2.5	/experiments/AOT/AOT_stimuli/rescaled_final/1835_rv.mp4	0.0	94.79008412361145	
8	75.70789694786072	movie	1		242	6.0	2.5	/experiments/AOT/AOT_stimuli/rescaled_final/1835_rv.mp4	0.0	95.60638499259949	2.500437021255493
8	76.49132299423218	pulse	1	t		6.0	2.5	/experiments/AOT/AOT_stimuli/rescaled_final/1835_rv.mp4	0.0	96.38981103897095	
8	78.09073495864868	pulse	1	t		6.0	2.5	/experiments/AOT/AOT_stimuli/rescaled_final/1835_rv.mp4	0.0	97.98922300338745	
8	78.20833396911621	fix_post	2		12	6.0	2.5	/experiments/AOT/AOT_stimuli/rescaled_final/1835_rv.mp4	0.0	98.10682201385498	0.09953594207763672
9	78.30786991119385	fix_pre	0		120	7.0	2.5	blank	1.0	98.20635795593262	1.0000040531158447
9	79.30787396430969	movie	1		300	7.0	2.5	blank	1.0	99.20636200904846	2.499953031539917
9	79.69141793251038	pulse	1	t		7.0	2.5	blank	1.0	99.58990597724915	
9	81.2913498878479	pulse	1	t		7.0	2.5	blank	1.0	101.18983793258667	
9	81.80782699584961	fix_post	2		12	7.0	2.5	blank	1.0	101.70631504058838	0.1000070571899414
10	81.90783405303955	fix_pre	0		119	8.0	2.5	/experiments/AOT/AOT_stimuli/rescaled_final/1025_rv.mp4	0.0	101.80632209777832	0.9915788173675537
10	82.89136695861816	pulse	0	t		8.0	2.5	/experiments/AOT/AOT_stimuli/rescaled_final/1025_rv.mp4	0.0	102.78985500335693	
10	82.8994128704071	movie	1		246	8.0	2.5	/experiments/AOT/AOT_stimuli/rescaled_final/1025_rv.mp4	0.0	102.79790091514587	2.5086090564727783
10	84.4912269115448	pulse	1	t		8.0	2.5	/experiments/AOT/AOT_stimuli/rescaled_final/1025_rv.mp4	0.0	104.38971495628357	
10	85.40802192687988	fix_post	2		12	8.0	2.5	/experiments/AOT/AOT_stimuli/rescaled_final/1025_rv.mp4	0.0	105.30650997161865	0.0998220443725586
11	85.50784397125244	fix_pre	0		120	9.0	2.5	/experiments/AOT/AOT_stimuli/rescaled_final/0042_rv.mp4	0.0	105.40633201599121	1.0000009536743164
11	86.09130692481995	pulse	0	t		9.0	2.5	/experiments/AOT/AOT_stimuli/rescaled_final/0042_rv.mp4	0.0	105.98979496955872	
11	86.50784492492676	movie	1		245	9.0	2.5	/experiments/AOT/AOT_stimuli/rescaled_final/0042_rv.mp4	0.0	106.40633296966553	2.500040054321289
11	87.69138193130493	pulse	1	t		9.0	2.5	/experiments/AOT/AOT_stimuli/rescaled_final/0042_rv.mp4	0.0	107.5898699760437	
11	89.00788497924805	fix_post	2		12	9.0	2.5	/experiments/AOT/AOT_stimuli/rescaled_final/0042_rv.mp4	0.0	108.90637302398682	0.09998607635498047
12	89.10787105560303	fix_pre	0		120	10.0	2.5	/experiments/AOT/AOT_stimuli/rescaled_final/0466_rv.mp4	0.0	109.0063591003418	0.9999048709869385
12	89.29131293296814	pulse	0	t		10.0	2.5	/experiments/AOT/AOT_stimuli/rescaled_final/0466_rv.mp4	0.0	109.18980097770691	
12	90.10777592658997	movie	1		245	10.0	2.5	/experiments/AOT/AOT_stimuli/rescaled_final/0466_rv.mp4	0.0	110.00626397132874	2.500070095062256
12	90.89125990867615	pulse	1	t		10.0	2.5	/experiments/AOT/AOT_stimuli/rescaled_final/0466_rv.mp4	0.0	110.78974795341492	
12	92.49007487297058	pulse	1	t		10.0	2.5	/experiments/AOT/AOT_stimuli/rescaled_final/0466_rv.mp4	0.0	112.38856291770935	
12	92.60784602165222	fix_post	2		12	10.0	2.5	/experiments/AOT/AOT_stimuli/rescaled_final/0466_rv.mp4	0.0	112.50633406639099	0.0999908447265625
13	92.70783686637878	fix_pre	0		120	11.0	2.5	/experiments/AOT/AOT_stimuli/rescaled_final/0050_rv.mp4	0.0	112.60632491111755	0.9999330043792725
13	93.70776987075806	movie	1		244	11.0	2.5	/experiments/AOT/AOT_stimuli/rescaled_final/0050_rv.mp4	0.0	113.60625791549683	2.499998092651367
13	94.09222292900085	pulse	1	t		11.0	2.5	/experiments/AOT/AOT_stimuli/rescaled_final/0050_rv.mp4	0.0	113.99071097373962	
13	95.6912169456482	pulse	1	t		11.0	2.5	/experiments/AOT/AOT_stimuli/rescaled_final/0050_rv.mp4	0.0	115.58970499038696	
13	96.20776796340942	fix_post	2		12	11.0	2.5	/experiments/AOT/AOT_stimuli/rescaled_final/0050_rv.mp4	0.0	116.1062560081482	0.09998297691345215
14	96.30775094032288	fix_pre	0		119	12.0	2.5	blank	1.0	116.20623898506165	0.991610050201416
14	97.29127597808838	pulse	0	t		12.0	2.5	blank	1.0	117.18976402282715	
14	97.29936099052429	movie	1		301	12.0	2.5	blank	1.0	117.19784903526306	2.5079588890075684
14	98.89123702049255	pulse	1	t		12.0	2.5	blank	1.0	118.78972506523132	
14	99.80731987953186	fix_post	2		12	12.0	2.5	blank	1.0	119.70580792427063	0.10042119026184082
15	99.9077410697937	fix_pre	0		120	13.0	2.5	/experiments/AOT/AOT_stimuli/rescaled_final/1212_fw.mp4	0.0	119.80622911453247	1.0001568794250488
15	100.4912519454956	pulse	0	t		13.0	2.5	/experiments/AOT/AOT_stimuli/rescaled_final/1212_fw.mp4	0.0	120.38973999023438	
15	100.90789794921875	movie	1		243	13.0	2.5	/experiments/AOT/AOT_stimuli/rescaled_final/1212_fw.mp4	0.0	120.80638599395752	2.499752998352051
15	102.09131407737732	pulse	1	t		13.0	2.5	/experiments/AOT/AOT_stimuli/rescaled_final/1212_fw.mp4	0.0	121.98980212211609	
15	103.4076509475708	fix_post	2		12	13.0	2.5	/experiments/AOT/AOT_stimuli/rescaled_final/1212_fw.mp4	0.0	123.30613899230957	0.09974193572998047
16	103.50739288330078	fix_pre	0		120	14.0	2.5	/experiments/AOT/AOT_stimuli/rescaled_final/1272_fw.mp4	0.0	123.40588092803955	1.0002391338348389
16	103.69122099876404	pulse	0	t		14.0	2.5	/experiments/AOT/AOT_stimuli/rescaled_final/1272_fw.mp4	0.0	123.58970904350281	
16	104.50763201713562	movie	1		246	14.0	2.5	/experiments/AOT/AOT_stimuli/rescaled_final/1272_fw.mp4	0.0	124.40612006187439	2.500006914138794
16	105.29123401641846	pulse	1	t		14.0	2.5	/experiments/AOT/AOT_stimuli/rescaled_final/1272_fw.mp4	0.0	125.18972206115723	
16	106.88748002052307	pulse	1	t		14.0	2.5	/experiments/AOT/AOT_stimuli/rescaled_final/1272_fw.mp4	0.0	126.78596806526184	
16	107.00763893127441	fix_post	2		12	14.0	2.5	/experiments/AOT/AOT_stimuli/rescaled_final/1272_fw.mp4	0.0	126.90612697601318	0.0999760627746582
17	107.10761499404907	fix_pre	0		120	15.0	2.5	/experiments/AOT/AOT_stimuli/rescaled_final/0857_rv.mp4	0.0	127.00610303878784	1.0000770092010498
17	108.10769200325012	movie	1		243	15.0	2.5	/experiments/AOT/AOT_stimuli/rescaled_final/0857_rv.mp4	0.0	128.0061800479889	2.499541997909546
17	108.49131393432617	pulse	1	t		15.0	2.5	/experiments/AOT/AOT_stimuli/rescaled_final/0857_rv.mp4	0.0	128.38980197906494	
17	110.09104990959167	pulse	1	t		15.0	2.5	/experiments/AOT/AOT_stimuli/rescaled_final/0857_rv.mp4	0.0	129.98953795433044	
17	110.60723400115967	fix_post	2		12	15.0	2.5	/experiments/AOT/AOT_stimuli/rescaled_final/0857_rv.mp4	0.0	130.50572204589844	0.10043191909790039
18	110.70766592025757	fix_pre	0		119	16.0	2.5	/experiments/AOT/AOT_stimuli/rescaled_final/1255_fw.mp4	0.0	130.60615396499634	0.9916739463806152
18	111.69117498397827	pulse	0	t		16.0	2.5	/experiments/AOT/AOT_stimuli/rescaled_final/1255_fw.mp4	0.0	131.58966302871704	
18	111.69933986663818	movie	1		243	16.0	2.5	/experiments/AOT/AOT_stimuli/rescaled_final/1255_fw.mp4	0.0	131.59782791137695	2.508333206176758
18	113.29177808761597	pulse	1	t		16.0	2.5	/experiments/AOT/AOT_stimuli/rescaled_final/1255_fw.mp4	0.0	133.19026613235474	
18	114.20767307281494	fix_post	2		12	16.0	2.5	/experiments/AOT/AOT_stimuli/rescaled_final/1255_fw.mp4	0.0	134.1061611175537	0.09999895095825195
19	114.3076720237732	fix_pre	0		120	17.0	2.5	/experiments/AOT/AOT_stimuli/rescaled_final/2121_rv.mp4	0.0	134.20616006851196	0.9999978542327881
19	114.89122700691223	pulse	0	t		17.0	2.5	/experiments/AOT/AOT_stimuli/rescaled_final/2121_rv.mp4	0.0	134.789715051651	
19	115.30766987800598	movie	1		243	17.0	2.5	/experiments/AOT/AOT_stimuli/rescaled_final/2121_rv.mp4	0.0	135.20615792274475	2.499911069869995
19	116.49125695228577	pulse	1	t		17.0	2.5	/experiments/AOT/AOT_stimuli/rescaled_final/2121_rv.mp4	0.0	136.38974499702454	
19	117.80758094787598	fix_post	2		12	17.0	2.5	/experiments/AOT/AOT_stimuli/rescaled_final/2121_rv.mp4	0.0	137.70606899261475	0.10007810592651367
20	117.90765905380249	fix_pre	0		120	18.0	2.5	/experiments/AOT/AOT_stimuli/rescaled_final/1844_fw.mp4	0.0	137.80614709854126	1.0000498294830322
20	118.09119200706482	pulse	0	t		18.0	2.5	/experiments/AOT/AOT_stimuli/rescaled_final/1844_fw.mp4	0.0	137.9896800518036	
20	118.90770888328552	movie	1		247	18.0	2.5	/experiments/AOT/AOT_stimuli/rescaled_final/1844_fw.mp4	0.0	138.8061969280243	2.499606132507324
20	119.69107103347778	pulse	1	t		18.0	2.5	/experiments/AOT/AOT_stimuli/rescaled_final/1844_fw.mp4	0.0	139.58955907821655	
20	121.29085898399353	pulse	1	t		18.0	2.5	/experiments/AOT/AOT_stimuli/rescaled_final/1844_fw.mp4	0.0	141.1893470287323	
20	121.40731501579285	fix_post	2		12	18.0	2.5	/experiments/AOT/AOT_stimuli/rescaled_final/1844_fw.mp4	0.0	141.30580306053162	0.10002398490905762
21	121.5073390007019	fix_pre	0		120	19.0	2.5	blank	1.0	141.40582704544067	1.0001418590545654
21	122.50748085975647	movie	1		300	19.0	2.5	blank	1.0	142.40596890449524	2.500105142593384
21	122.8911190032959	pulse	1	t		19.0	2.5	blank	1.0	142.78960704803467	
21	124.49107503890991	pulse	1	t		19.0	2.5	blank	1.0	144.38956308364868	
21	125.00758600234985	fix_post	2		12	19.0	2.5	blank	1.0	144.90607404708862	0.09993886947631836
22	125.10752487182617	fix_pre	0		119	20.0	2.5	/experiments/AOT/AOT_stimuli/rescaled_final/1429_rv.mp4	0.0	145.00601291656494	0.9917130470275879
22	126.09123301506042	pulse	0	t		20.0	2.5	/experiments/AOT/AOT_stimuli/rescaled_final/1429_rv.mp4	0.0	145.9897210597992	
22	126.09923791885376	movie	1		246	20.0	2.5	/experiments/AOT/AOT_stimuli/rescaled_final/1429_rv.mp4	0.0	145.99772596359253	2.508301019668579
22	127.69064402580261	pulse	1	t		20.0	2.5	/experiments/AOT/AOT_stimuli/rescaled_final/1429_rv.mp4	0.0	147.58913207054138	
22	128.60753893852234	fix_post	2		12	20.0	2.5	/experiments/AOT/AOT_stimuli/rescaled_final/1429_rv.mp4	0.0	148.5060269832611	0.1000070571899414
23	128.70754599571228	fix_pre	0		120	21.0	2.5	/experiments/AOT/AOT_stimuli/rescaled_final/1332_rv.mp4	0.0	148.60603404045105	1.0000009536743164
23	129.29099297523499	pulse	0	t		21.0	2.5	/experiments/AOT/AOT_stimuli/rescaled_final/1332_rv.mp4	0.0	149.18948101997375	
23	129.7075469493866	movie	1		244	21.0	2.5	/experiments/AOT/AOT_stimuli/rescaled_final/1332_rv.mp4	0.0	149.60603499412537	2.500002145767212
23	130.89109706878662	pulse	1	t		21.0	2.5	/experiments/AOT/AOT_stimuli/rescaled_final/1332_rv.mp4	0.0	150.7895851135254	
23	132.2075490951538	fix_post	2		12	21.0	2.5	/experiments/AOT/AOT_stimuli/rescaled_final/1332_rv.mp4	0.0	152.10603713989258	0.09996390342712402
24	132.30751299858093	fix_pre	0		120	22.0	2.5	/experiments/AOT/AOT_stimuli/rescaled_final/0407_fw.mp4	0.0	152.2060010433197	1.0000050067901611
24	132.49100494384766	pulse	0	t		22.0	2.5	/experiments/AOT/AOT_stimuli/rescaled_final/0407_fw.mp4	0.0	152.38949298858643	
24	133.3075180053711	movie	1		246	22.0	2.5	/experiments/AOT/AOT_stimuli/rescaled_final/0407_fw.mp4	0.0	153.20600605010986	2.4999139308929443
24	134.0909469127655	pulse	1	t		22.0	2.5	/experiments/AOT/AOT_stimuli/rescaled_final/0407_fw.mp4	0.0	153.98943495750427	
24	135.68954801559448	pulse	1	t		22.0	2.5	/experiments/AOT/AOT_stimuli/rescaled_final/0407_fw.mp4	0.0	155.58803606033325	
24	135.80743193626404	fix_post	2		12	22.0	2.5	/experiments/AOT/AOT_stimuli/rescaled_final/0407_fw.mp4	0.0	155.7059199810028	0.09999608993530273
25	135.90742802619934	fix_pre	0		120	23.0	2.5	/experiments/AOT/AOT_stimuli/rescaled_final/1054_rv.mp4	0.0	155.8059160709381	1.0000319480895996
25	136.90745997428894	movie	1		244	23.0	2.5	/experiments/AOT/AOT_stimuli/rescaled_final/1054_rv.mp4	0.0	156.8059480190277	2.4999420642852783
25	137.29075288772583	pulse	1	t		23.0	2.5	/experiments/AOT/AOT_stimuli/rescaled_final/1054_rv.mp4	0.0	157.1892409324646	
25	138.89092993736267	pulse	1	t		23.0	2.5	/experiments/AOT/AOT_stimuli/rescaled_final/1054_rv.mp4	0.0	158.78941798210144	
25	139.40740203857422	fix_post	2		12	23.0	2.5	/experiments/AOT/AOT_stimuli/rescaled_final/1054_rv.mp4	0.0	159.305890083313	0.09966492652893066
26	139.50706696510315	fix_pre	0		119	24.0	2.5	/experiments/AOT/AOT_stimuli/rescaled_final/1913_fw.mp4	0.0	159.40555500984192	0.9920310974121094
26	140.49089193344116	pulse	0	t		24.0	2.5	/experiments/AOT/AOT_stimuli/rescaled_final/1913_fw.mp4	0.0	160.38937997817993	
26	140.49909806251526	movie	1		246	24.0	2.5	/experiments/AOT/AOT_stimuli/rescaled_final/1913_fw.mp4	0.0	160.39758610725403	2.5082929134368896
26	142.0908510684967	pulse	1	t		24.0	2.5	/experiments/AOT/AOT_stimuli/rescaled_final/1913_fw.mp4	0.0	161.98933911323547	
26	143.00739097595215	fix_post	2		12	24.0	2.5	/experiments/AOT/AOT_stimuli/rescaled_final/1913_fw.mp4	0.0	162.90587902069092	0.10004496574401855
27	143.10743594169617	fix_pre	0		120	25.0	2.5	/experiments/AOT/AOT_stimuli/rescaled_final/2121_rv.mp4	0.0	163.00592398643494	0.9999780654907227
27	143.6909430027008	pulse	0	t		25.0	2.5	/experiments/AOT/AOT_stimuli/rescaled_final/2121_rv.mp4	0.0	163.58943104743958	
27	144.1074140071869	movie	1		243	25.0	2.5	/experiments/AOT/AOT_stimuli/rescaled_final/2121_rv.mp4	0.0	164.00590205192566	2.50007700920105
27	145.29092288017273	pulse	1	t		25.0	2.5	/experiments/AOT/AOT_stimuli/rescaled_final/2121_rv.mp4	0.0	165.1894109249115	
27	146.60749101638794	fix_post	2		12	25.0	2.5	/experiments/AOT/AOT_stimuli/rescaled_final/2121_rv.mp4	0.0	166.5059790611267	0.09996294975280762
28	146.70745396614075	fix_pre	0		120	26.0	2.5	blank	1.0	166.60594201087952	0.9999489784240723
28	146.89093899726868	pulse	0	t		26.0	2.5	blank	1.0	166.78942704200745	
28	147.70740294456482	movie	1		300	26.0	2.5	blank	1.0	167.6058909893036	2.4999959468841553
28	148.49089193344116	pulse	1	t		26.0	2.5	blank	1.0	168.38937997817993	
28	150.09083795547485	pulse	1	t		26.0	2.5	blank	1.0	169.98932600021362	
28	150.20739889144897	fix_post	2		12	26.0	2.5	blank	1.0	170.10588693618774	0.10004115104675293
29	150.30744004249573	fix_pre	0		120	27.0	2.5	/experiments/AOT/AOT_stimuli/rescaled_final/1203_fw.mp4	0.0	170.2059280872345	0.9995439052581787
29	151.3069839477539	movie	1		246	27.0	2.5	/experiments/AOT/AOT_stimuli/rescaled_final/1203_fw.mp4	0.0	171.20547199249268	2.499988079071045
29	151.69052600860596	pulse	1	t		27.0	2.5	/experiments/AOT/AOT_stimuli/rescaled_final/1203_fw.mp4	0.0	171.58901405334473	
29	153.2908980846405	pulse	1	t		27.0	2.5	/experiments/AOT/AOT_stimuli/rescaled_final/1203_fw.mp4	0.0	173.18938612937927	
29	153.80697202682495	fix_post	2		12	27.0	2.5	/experiments/AOT/AOT_stimuli/rescaled_final/1203_fw.mp4	0.0	173.70546007156372	0.10034298896789551
30	153.90731501579285	fix_pre	0		119	28.0	2.5	/experiments/AOT/AOT_stimuli/rescaled_final/0488_rv.mp4	0.0	173.80580306053162	0.9917540550231934
30	154.8909900188446	pulse	0	t		28.0	2.5	/experiments/AOT/AOT_stimuli/rescaled_final/0488_rv.mp4	0.0	174.78947806358337	
30	154.89906907081604	movie	1		246	28.0	2.5	/experiments/AOT/AOT_stimuli/rescaled_final/0488_rv.mp4	0.0	174.7975571155548	2.5078468322753906
30	156.49070692062378	pulse	1	t		28.0	2.5	/experiments/AOT/AOT_stimuli/rescaled_final/0488_rv.mp4	0.0	176.38919496536255	
30	157.40691590309143	fix_post	2		12	28.0	2.5	/experiments/AOT/AOT_stimuli/rescaled_final/0488_rv.mp4	0.0	177.3054039478302	0.1004800796508789
31	157.5073959827423	fix_pre	0		120	29.0	2.5	/experiments/AOT/AOT_stimuli/rescaled_final/1823_rv.mp4	0.0	177.40588402748108	0.9995090961456299
31	158.09088897705078	pulse	0	t		29.0	2.5	/experiments/AOT/AOT_stimuli/rescaled_final/1823_rv.mp4	0.0	177.98937702178955	
31	158.50690507888794	movie	1		245	29.0	2.5	/experiments/AOT/AOT_stimuli/rescaled_final/1823_rv.mp4	0.0	178.4053931236267	2.500393867492676
31	159.69093799591064	pulse	1	t		29.0	2.5	/experiments/AOT/AOT_stimuli/rescaled_final/1823_rv.mp4	0.0	179.5894260406494	
31	161.00729894638062	fix_post	2		12	29.0	2.5	/experiments/AOT/AOT_stimuli/rescaled_final/1823_rv.mp4	0.0	180.90578699111938	0.10001492500305176
32	161.10731387138367	fix_pre	0		120	30.0	2.5	/experiments/AOT/AOT_stimuli/rescaled_final/1608_fw.mp4	0.0	181.00580191612244	1.0001220703125
32	161.29077887535095	pulse	0	t		30.0	2.5	/experiments/AOT/AOT_stimuli/rescaled_final/1608_fw.mp4	0.0	181.18926692008972	
32	162.10743594169617	movie	1		245	30.0	2.5	/experiments/AOT/AOT_stimuli/rescaled_final/1608_fw.mp4	0.0	182.00592398643494	2.4999759197235107
32	162.89084792137146	pulse	1	t		30.0	2.5	/experiments/AOT/AOT_stimuli/rescaled_final/1608_fw.mp4	0.0	182.78933596611023	
32	164.4905390739441	pulse	1	t		30.0	2.5	/experiments/AOT/AOT_stimuli/rescaled_final/1608_fw.mp4	0.0	184.38902711868286	
32	164.60741186141968	fix_post	2		12	30.0	2.5	/experiments/AOT/AOT_stimuli/rescaled_final/1608_fw.mp4	0.0	184.50589990615845	0.10003018379211426
33	164.7074420452118	fix_pre	0		120	31.0	2.5	/experiments/AOT/AOT_stimuli/rescaled_final/1213_fw.mp4	0.0	184.60593008995056	0.9999580383300781
33	165.70740008354187	movie	1		245	31.0	2.5	/experiments/AOT/AOT_stimuli/rescaled_final/1213_fw.mp4	0.0	185.60588812828064	2.4999938011169434
33	166.09043192863464	pulse	1	t		31.0	2.5	/experiments/AOT/AOT_stimuli/rescaled_final/1213_fw.mp4	0.0	185.9889199733734	
33	167.69074487686157	pulse	1	t		31.0	2.5	/experiments/AOT/AOT_stimuli/rescaled_final/1213_fw.mp4	0.0	187.58923292160034	
33	168.2073938846588	fix_post	2		12	31.0	2.5	/experiments/AOT/AOT_stimuli/rescaled_final/1213_fw.mp4	0.0	188.10588192939758	0.09996700286865234
34	168.30736088752747	fix_pre	0		119	32.0	2.5	/experiments/AOT/AOT_stimuli/rescaled_final/0163_rv.mp4	0.0	188.20584893226624	0.9917480945587158
34	169.29079699516296	pulse	0	t		32.0	2.5	/experiments/AOT/AOT_stimuli/rescaled_final/0163_rv.mp4	0.0	189.18928503990173	
34	169.29910898208618	movie	1		244	32.0	2.5	/experiments/AOT/AOT_stimuli/rescaled_final/0163_rv.mp4	0.0	189.19759702682495	2.5081920623779297
34	170.8903739452362	pulse	1	t		32.0	2.5	/experiments/AOT/AOT_stimuli/rescaled_final/0163_rv.mp4	0.0	190.78886198997498	
34	171.8073010444641	fix_post	2		12	32.0	2.5	/experiments/AOT/AOT_stimuli/rescaled_final/0163_rv.mp4	0.0	191.70578908920288	0.09995794296264648
35	171.90725898742676	fix_pre	0		120	33.0	2.5	/experiments/AOT/AOT_stimuli/rescaled_final/0783_rv.mp4	0.0	191.80574703216553	0.9997110366821289
35	172.49071788787842	pulse	0	t		33.0	2.5	/experiments/AOT/AOT_stimuli/rescaled_final/0783_rv.mp4	0.0	192.3892059326172	
35	172.9069700241089	movie	1		245	33.0	2.5	/experiments/AOT/AOT_stimuli/rescaled_final/0783_rv.mp4	0.0	192.80545806884766	2.4998998641967773
35	174.09088706970215	pulse	1	t		33.0	2.5	/experiments/AOT/AOT_stimuli/rescaled_final/0783_rv.mp4	0.0	193.98937511444092	
35	175.40686988830566	fix_post	2		12	33.0	2.5	/experiments/AOT/AOT_stimuli/rescaled_final/0783_rv.mp4	0.0	195.30535793304443	0.10044717788696289
36	175.50731706619263	fix_pre	0		120	34.0	2.5	blank	1.0	195.4058051109314	0.9995739459991455
36	175.69036889076233	pulse	0	t		34.0	2.5	blank	1.0	195.5888569355011	
36	176.50689101219177	movie	1		300	34.0	2.5	blank	1.0	196.40537905693054	2.500356912612915
36	177.29098200798035	pulse	1	t		34.0	2.5	blank	1.0	197.18947005271912	
36	178.89065289497375	pulse	1	t		34.0	2.5	blank	1.0	198.78914093971252	
36	179.0072479248047	fix_post	2		12	34.0	2.5	blank	1.0	198.90573596954346	0.099945068359375
37	179.10719299316406	fix_pre	0		120	35.0	2.5	/experiments/AOT/AOT_stimuli/rescaled_final/0213_rv.mp4	0.0	199.00568103790283	1.00006103515625
37	180.1072540283203	movie	1		244	35.0	2.5	/experiments/AOT/AOT_stimuli/rescaled_final/0213_rv.mp4	0.0	200.00574207305908	2.499929904937744
37	180.49050188064575	pulse	1	t		35.0	2.5	/experiments/AOT/AOT_stimuli/rescaled_final/0213_rv.mp4	0.0	200.38898992538452	
37	182.09074091911316	pulse	1	t		35.0	2.5	/experiments/AOT/AOT_stimuli/rescaled_final/0213_rv.mp4	0.0	201.98922896385193	
37	182.60718393325806	fix_post	2		12	35.0	2.5	/experiments/AOT/AOT_stimuli/rescaled_final/0213_rv.mp4	0.0	202.50567197799683	0.10007500648498535
38	182.70725893974304	fix_pre	0		119	36.0	2.5	/experiments/AOT/AOT_stimuli/rescaled_final/0125_fw.mp4	0.0	202.6057469844818	0.9916751384735107
38	183.6907229423523	pulse	0	t		36.0	2.5	/experiments/AOT/AOT_stimuli/rescaled_final/0125_fw.mp4	0.0	203.58921098709106	
38	183.69893407821655	movie	1		245	36.0	2.5	/experiments/AOT/AOT_stimuli/rescaled_final/0125_fw.mp4	0.0	203.59742212295532	2.5082309246063232
38	185.29051089286804	pulse	1	t		36.0	2.5	/experiments/AOT/AOT_stimuli/rescaled_final/0125_fw.mp4	0.0	205.1889989376068	
38	186.20716500282288	fix_post	2		12	36.0	2.5	/experiments/AOT/AOT_stimuli/rescaled_final/0125_fw.mp4	0.0	206.10565304756165	0.09997391700744629
39	186.30713891983032	fix_pre	0		120	37.0	2.5	/experiments/AOT/AOT_stimuli/rescaled_final/0139_fw.mp4	0.0	206.2056269645691	1.0000519752502441
39	186.89072108268738	pulse	0	t		37.0	2.5	/experiments/AOT/AOT_stimuli/rescaled_final/0139_fw.mp4	0.0	206.78920912742615	
39	187.30719089508057	movie	1		243	37.0	2.5	/experiments/AOT/AOT_stimuli/rescaled_final/0139_fw.mp4	0.0	207.20567893981934	2.4995310306549072
39	188.49072098731995	pulse	1	t		37.0	2.5	/experiments/AOT/AOT_stimuli/rescaled_final/0139_fw.mp4	0.0	208.38920903205872	
39	189.80672192573547	fix_post	2		12	37.0	2.5	/experiments/AOT/AOT_stimuli/rescaled_final/0139_fw.mp4	0.0	209.70520997047424	0.10045003890991211
40	189.90717196464539	fix_pre	0		120	38.0	2.5	/experiments/AOT/AOT_stimuli/rescaled_final/1133_rv.mp4	0.0	209.80566000938416	0.9999790191650391
40	190.0906069278717	pulse	0	t		38.0	2.5	/experiments/AOT/AOT_stimuli/rescaled_final/1133_rv.mp4	0.0	209.98909497261047	
40	190.90715098381042	movie	1		243	38.0	2.5	/experiments/AOT/AOT_stimuli/rescaled_final/1133_rv.mp4	0.0	210.8056390285492	2.4999818801879883
40	191.69059300422668	pulse	1	t		38.0	2.5	/experiments/AOT/AOT_stimuli/rescaled_final/1133_rv.mp4	0.0	211.58908104896545	
40	193.28922390937805	pulse	1	t		38.0	2.5	/experiments/AOT/AOT_stimuli/rescaled_final/1133_rv.mp4	0.0	213.18771195411682	
40	193.4071328639984	fix_post	2		12	38.0	2.5	/experiments/AOT/AOT_stimuli/rescaled_final/1133_rv.mp4	0.0	213.30562090873718	0.09998822212219238
41	193.5071210861206	fix_pre	0		120	39.0	2.5	/experiments/AOT/AOT_stimuli/rescaled_final/0461_fw.mp4	0.0	213.40560913085938	1.0000050067901611
41	194.50712609291077	movie	1		244	39.0	2.5	/experiments/AOT/AOT_stimuli/rescaled_final/0461_fw.mp4	0.0	214.40561413764954	2.5000407695770264
41	194.89069390296936	pulse	1	t		39.0	2.5	/experiments/AOT/AOT_stimuli/rescaled_final/0461_fw.mp4	0.0	214.78918194770813	
41	196.4906780719757	pulse	1	t		39.0	2.5	/experiments/AOT/AOT_stimuli/rescaled_final/0461_fw.mp4	0.0	216.38916611671448	
41	197.0071668624878	fix_post	2		12	39.0	2.5	/experiments/AOT/AOT_stimuli/rescaled_final/0461_fw.mp4	0.0	216.90565490722656	0.09995102882385254
42	197.10711789131165	fix_pre	0		119	40.0	2.5	/experiments/AOT/AOT_stimuli/rescaled_final/0251_rv.mp4	0.0	217.00560593605042	0.991692066192627
42	198.09061002731323	pulse	0	t		40.0	2.5	/experiments/AOT/AOT_stimuli/rescaled_final/0251_rv.mp4	0.0	217.989098072052	
42	198.09880995750427	movie	1		246	40.0	2.5	/experiments/AOT/AOT_stimuli/rescaled_final/0251_rv.mp4	0.0	217.99729800224304	2.5083110332489014
42	199.6917998790741	pulse	1	t		40.0	2.5	/experiments/AOT/AOT_stimuli/rescaled_final/0251_rv.mp4	0.0	219.59028792381287	
42	200.60712099075317	fix_post	2		12	40.0	2.5	/experiments/AOT/AOT_stimuli/rescaled_final/0251_rv.mp4	0.0	220.50560903549194	0.10002708435058594
43	200.70714807510376	fix_pre	0		120	41.0	2.5	blank	1.0	220.60563611984253	0.9996299743652344
43	201.29061007499695	pulse	0	t		41.0	2.5	blank	1.0	221.18909811973572	
43	201.706778049469	movie	1		300	41.0	2.5	blank	1.0	221.60526609420776	2.500386953353882
43	202.8906409740448	pulse	1	t		41.0	2.5	blank	1.0	222.78912901878357	
43	204.20716500282288	fix_post	2		12	41.0	2.5	blank	1.0	224.10565304756165	0.09996986389160156
44	204.30713486671448	fix_pre	0		120	42.0	2.5	/experiments/AOT/AOT_stimuli/rescaled_final/1025_rv.mp4	0.0	224.20562291145325	1.0000591278076172
44	204.49063992500305	pulse	0	t		42.0	2.5	/experiments/AOT/AOT_stimuli/rescaled_final/1025_rv.mp4	0.0	224.38912796974182	
44	205.3071939945221	movie	1		243	42.0	2.5	/experiments/AOT/AOT_stimuli/rescaled_final/1025_rv.mp4	0.0	225.20568203926086	2.4999120235443115
44	206.0906319618225	pulse	1	t		42.0	2.5	/experiments/AOT/AOT_stimuli/rescaled_final/1025_rv.mp4	0.0	225.98912000656128	
44	207.689218044281	pulse	1	t		42.0	2.5	/experiments/AOT/AOT_stimuli/rescaled_final/1025_rv.mp4	0.0	227.58770608901978	
44	207.8071060180664	fix_post	2		12	42.0	2.5	/experiments/AOT/AOT_stimuli/rescaled_final/1025_rv.mp4	0.0	227.70559406280518	0.09997105598449707
45	207.9070770740509	fix_pre	0		120	43.0	2.5	/experiments/AOT/AOT_stimuli/rescaled_final/0136_rv.mp4	0.0	227.80556511878967	1.0000770092010498
45	208.90715408325195	movie	1		244	43.0	2.5	/experiments/AOT/AOT_stimuli/rescaled_final/0136_rv.mp4	0.0	228.80564212799072	2.499483823776245
45	209.29035091400146	pulse	1	t		43.0	2.5	/experiments/AOT/AOT_stimuli/rescaled_final/0136_rv.mp4	0.0	229.18883895874023	
45	210.89057397842407	pulse	1	t		43.0	2.5	/experiments/AOT/AOT_stimuli/rescaled_final/0136_rv.mp4	0.0	230.78906202316284	
45	211.4066379070282	fix_post	2		12	43.0	2.5	/experiments/AOT/AOT_stimuli/rescaled_final/0136_rv.mp4	0.0	231.30512595176697	0.1004490852355957
46	211.5070869922638	fix_pre	0		119	44.0	2.5	/experiments/AOT/AOT_stimuli/rescaled_final/2000_fw.mp4	0.0	231.40557503700256	0.9917120933532715
46	212.49058890342712	pulse	0	t		44.0	2.5	/experiments/AOT/AOT_stimuli/rescaled_final/2000_fw.mp4	0.0	232.3890769481659	
46	212.49879908561707	movie	1		244	44.0	2.5	/experiments/AOT/AOT_stimuli/rescaled_final/2000_fw.mp4	0.0	232.39728713035583	2.508295774459839
46	214.09064292907715	pulse	1	t		44.0	2.5	/experiments/AOT/AOT_stimuli/rescaled_final/2000_fw.mp4	0.0	233.98913097381592	
46	215.0070948600769	fix_post	2		12	44.0	2.5	/experiments/AOT/AOT_stimuli/rescaled_final/2000_fw.mp4	0.0	234.90558290481567	0.09998416900634766
47	215.10707902908325	fix_pre	0		120	45.0	2.5	/experiments/AOT/AOT_stimuli/rescaled_final/0381_fw.mp4	0.0	235.00556707382202	0.99993896484375
47	215.69062685966492	pulse	0	t		45.0	2.5	/experiments/AOT/AOT_stimuli/rescaled_final/0381_fw.mp4	0.0	235.5891149044037	
47	216.107017993927	movie	1		245	45.0	2.5	/experiments/AOT/AOT_stimuli/rescaled_final/0381_fw.mp4	0.0	236.00550603866577	2.5000879764556885
47	217.2906448841095	pulse	1	t		45.0	2.5	/experiments/AOT/AOT_stimuli/rescaled_final/0381_fw.mp4	0.0	237.18913292884827	
47	218.6071059703827	fix_post	2		12	45.0	2.5	/experiments/AOT/AOT_stimuli/rescaled_final/0381_fw.mp4	0.0	238.50559401512146	0.09954094886779785
48	218.7066469192505	fix_pre	0		120	46.0	2.5	/experiments/AOT/AOT_stimuli/rescaled_final/1499_rv.mp4	0.0	238.60513496398926	1.0003950595855713
48	218.89060807228088	pulse	0	t		46.0	2.5	/experiments/AOT/AOT_stimuli/rescaled_final/1499_rv.mp4	0.0	238.78909611701965	
48	219.70704197883606	movie	1		244	46.0	2.5	/experiments/AOT/AOT_stimuli/rescaled_final/1499_rv.mp4	0.0	239.60553002357483	2.5000030994415283
48	220.49053192138672	pulse	1	t		46.0	2.5	/experiments/AOT/AOT_stimuli/rescaled_final/1499_rv.mp4	0.0	240.3890199661255	
48	222.0894010066986	pulse	1	t		46.0	2.5	/experiments/AOT/AOT_stimuli/rescaled_final/1499_rv.mp4	0.0	241.98788905143738	
48	222.2070450782776	fix_post	2		12	46.0	2.5	/experiments/AOT/AOT_stimuli/rescaled_final/1499_rv.mp4	0.0	242.10553312301636	0.09994101524353027
49	222.30698609352112	fix_pre	0		120	47.0	2.5	/experiments/AOT/AOT_stimuli/rescaled_final/0331_rv.mp4	0.0	242.2054741382599	0.9996349811553955
49	223.3066210746765	movie	1		243	47.0	2.5	/experiments/AOT/AOT_stimuli/rescaled_final/0331_rv.mp4	0.0	243.20510911941528	2.500339984893799
49	223.6916389465332	pulse	1	t		47.0	2.5	/experiments/AOT/AOT_stimuli/rescaled_final/0331_rv.mp4	0.0	243.59012699127197	
49	225.29052686691284	pulse	1	t		47.0	2.5	/experiments/AOT/AOT_stimuli/rescaled_final/0331_rv.mp4	0.0	245.1890149116516	
49	225.8069610595703	fix_post	2		12	47.0	2.5	/experiments/AOT/AOT_stimuli/rescaled_final/0331_rv.mp4	0.0	245.70544910430908	0.10007190704345703
50	225.90703296661377	fix_pre	0		119	48.0	2.5	blank	1.0	245.80552101135254	0.9916610717773438
50	226.89053606987	pulse	0	t		48.0	2.5	blank	1.0	246.78902411460876	
50	226.8986940383911	movie	1		301	48.0	2.5	blank	1.0	246.79718208312988	2.508291006088257
50	228.490581035614	pulse	1	t		48.0	2.5	blank	1.0	248.38906908035278	
50	229.40698504447937	fix_post	2		12	48.0	2.5	blank	1.0	249.30547308921814	0.1000819206237793
51	229.50706696510315	fix_pre	0		120	49.0	2.5	/experiments/AOT/AOT_stimuli/rescaled_final/0123_rv.mp4	0.0	249.40555500984192	0.9999570846557617
51	230.09046387672424	pulse	0	t		49.0	2.5	/experiments/AOT/AOT_stimuli/rescaled_final/0123_rv.mp4	0.0	249.988951921463	
51	230.5070240497589	movie	1		243	49.0	2.5	/experiments/AOT/AOT_stimuli/rescaled_final/0123_rv.mp4	0.0	250.40551209449768	2.5001039505004883
51	231.69063901901245	pulse	1	t		49.0	2.5	/experiments/AOT/AOT_stimuli/rescaled_final/0123_rv.mp4	0.0	251.58912706375122	
51	233.0071280002594	fix_post	2		12	49.0	2.5	/experiments/AOT/AOT_stimuli/rescaled_final/0123_rv.mp4	0.0	252.90561604499817	0.09962201118469238
52	233.1067500114441	fix_pre	0		120	50.0	2.5	/experiments/AOT/AOT_stimuli/rescaled_final/0064_rv.mp4	0.0	253.00523805618286	1.0005578994750977
52	233.29023694992065	pulse	0	t		50.0	2.5	/experiments/AOT/AOT_stimuli/rescaled_final/0064_rv.mp4	0.0	253.18872499465942	
52	234.1073079109192	movie	1		245	50.0	2.5	/experiments/AOT/AOT_stimuli/rescaled_final/0064_rv.mp4	0.0	254.00579595565796	2.499735116958618
52	234.89040088653564	pulse	1	t		50.0	2.5	/experiments/AOT/AOT_stimuli/rescaled_final/0064_rv.mp4	0.0	254.7888889312744	
52	236.49001598358154	pulse	1	t		50.0	2.5	/experiments/AOT/AOT_stimuli/rescaled_final/0064_rv.mp4	0.0	256.3885040283203	
52	236.6070430278778	fix_post	2		12	50.0	2.5	/experiments/AOT/AOT_stimuli/rescaled_final/0064_rv.mp4	0.0	256.5055310726166	0.09995293617248535
53	236.7069959640503	fix_pre	0		120	51.0	2.5	/experiments/AOT/AOT_stimuli/rescaled_final/0874_fw.mp4	0.0	256.60548400878906	0.9999799728393555
53	237.70697593688965	movie	1		243	51.0	2.5	/experiments/AOT/AOT_stimuli/rescaled_final/0874_fw.mp4	0.0	257.6054639816284	2.5000200271606445
53	238.09060907363892	pulse	1	t		51.0	2.5	/experiments/AOT/AOT_stimuli/rescaled_final/0874_fw.mp4	0.0	257.9890971183777	
53	239.6903429031372	pulse	1	t		51.0	2.5	/experiments/AOT/AOT_stimuli/rescaled_final/0874_fw.mp4	0.0	259.588830947876	
53	240.2069959640503	fix_post	2		12	51.0	2.5	/experiments/AOT/AOT_stimuli/rescaled_final/0874_fw.mp4	0.0	260.10548400878906	0.09996604919433594
54	240.30696201324463	fix_pre	0		119	52.0	2.5	/experiments/AOT/AOT_stimuli/rescaled_final/1021_fw.mp4	0.0	260.2054500579834	0.9916708469390869
54	241.29043793678284	pulse	0	t		52.0	2.5	/experiments/AOT/AOT_stimuli/rescaled_final/1021_fw.mp4	0.0	261.1889259815216	
54	241.29863286018372	movie	1		247	52.0	2.5	/experiments/AOT/AOT_stimuli/rescaled_final/1021_fw.mp4	0.0	261.1971209049225	2.5082950592041016
54	242.89001488685608	pulse	1	t		52.0	2.5	/experiments/AOT/AOT_stimuli/rescaled_final/1021_fw.mp4	0.0	262.78850293159485	
54	243.80692791938782	fix_post	2		12	52.0	2.5	/experiments/AOT/AOT_stimuli/rescaled_final/1021_fw.mp4	0.0	263.7054159641266	0.09999895095825195
55	243.90692687034607	fix_pre	0		120	53.0	2.5	/experiments/AOT/AOT_stimuli/rescaled_final/1282_fw.mp4	0.0	263.80541491508484	0.9999570846557617
55	244.49037909507751	pulse	0	t		53.0	2.5	/experiments/AOT/AOT_stimuli/rescaled_final/1282_fw.mp4	0.0	264.3888671398163	
55	244.90688395500183	movie	1		246	53.0	2.5	/experiments/AOT/AOT_stimuli/rescaled_final/1282_fw.mp4	0.0	264.8053719997406	2.499577045440674
55	246.0905339717865	pulse	1	t		53.0	2.5	/experiments/AOT/AOT_stimuli/rescaled_final/1282_fw.mp4	0.0	265.98902201652527	
55	247.4064610004425	fix_post	2		12	53.0	2.5	/experiments/AOT/AOT_stimuli/rescaled_final/1282_fw.mp4	0.0	267.3049490451813	0.1004018783569336
56	247.50686287879944	fix_pre	0		120	54.0	2.5	blank	1.0	267.4053509235382	1.0000240802764893
56	247.69054293632507	pulse	0	t		54.0	2.5	blank	1.0	267.58903098106384	
56	248.50688695907593	movie	1		300	54.0	2.5	blank	1.0	268.4053750038147	2.4995980262756348
56	249.2904350757599	pulse	1	t		54.0	2.5	blank	1.0	269.18892312049866	
56	250.89039206504822	pulse	1	t		54.0	2.5	blank	1.0	270.788880109787	
56	251.00648498535156	fix_post	2		12	54.0	2.5	blank	1.0	270.90497303009033	0.1004018783569336
57	251.1068868637085	fix_pre	0		120	55.0	2.5	/experiments/AOT/AOT_stimuli/rescaled_final/1039_rv.mp4	0.0	271.00537490844727	1.000063180923462
57	252.10695004463196	movie	1		243	55.0	2.5	/experiments/AOT/AOT_stimuli/rescaled_final/1039_rv.mp4	0.0	272.0054380893707	2.499497890472412
57	252.49015998840332	pulse	1	t		55.0	2.5	/experiments/AOT/AOT_stimuli/rescaled_final/1039_rv.mp4	0.0	272.3886480331421	
57	254.09039402008057	pulse	1	t		55.0	2.5	/experiments/AOT/AOT_stimuli/rescaled_final/1039_rv.mp4	0.0	273.98888206481934	
57	254.60644793510437	fix_post	2		12	55.0	2.5	/experiments/AOT/AOT_stimuli/rescaled_final/1039_rv.mp4	0.0	274.50493597984314	0.10050702095031738
58	254.7069549560547	fix_pre	0		119	56.0	2.5	/experiments/AOT/AOT_stimuli/rescaled_final/1190_rv.mp4	0.0	274.60544300079346	0.9916150569915771
58	255.6904010772705	pulse	0	t		56.0	2.5	/experiments/AOT/AOT_stimuli/rescaled_final/1190_rv.mp4	0.0	275.5888891220093	
58	255.69857001304626	movie	1		244	56.0	2.5	/experiments/AOT/AOT_stimuli/rescaled_final/1190_rv.mp4	0.0	275.59705805778503	2.5083298683166504
58	257.29072189331055	pulse	1	t		56.0	2.5	/experiments/AOT/AOT_stimuli/rescaled_final/1190_rv.mp4	0.0	277.1892099380493	
58	258.2068998813629	fix_post	2		12	56.0	2.5	/experiments/AOT/AOT_stimuli/rescaled_final/1190_rv.mp4	0.0	278.1053879261017	0.10003304481506348
59	258.306932926178	fix_pre	0		120	57.0	2.5	/experiments/AOT/AOT_stimuli/rescaled_final/1299_rv.mp4	0.0	278.20542097091675	0.9999289512634277
59	258.8903729915619	pulse	0	t		57.0	2.5	/experiments/AOT/AOT_stimuli/rescaled_final/1299_rv.mp4	0.0	278.78886103630066	
59	259.3068618774414	movie	1		243	57.0	2.5	/experiments/AOT/AOT_stimuli/rescaled_final/1299_rv.mp4	0.0	279.2053499221802	2.5000030994415283
59	260.4904179573059	pulse	1	t		57.0	2.5	/experiments/AOT/AOT_stimuli/rescaled_final/1299_rv.mp4	0.0	280.3889060020447	
59	261.80686497688293	fix_post	2		12	57.0	2.5	/experiments/AOT/AOT_stimuli/rescaled_final/1299_rv.mp4	0.0	281.7053530216217	0.09998607635498047
60	261.9068510532379	fix_pre	0		120	58.0	2.5	/experiments/AOT/AOT_stimuli/rescaled_final/1328_fw.mp4	0.0	281.8053390979767	0.9999580383300781
60	262.09032106399536	pulse	0	t		58.0	2.5	/experiments/AOT/AOT_stimuli/rescaled_final/1328_fw.mp4	0.0	281.98880910873413	
60	262.906809091568	movie	1		247	58.0	2.5	/experiments/AOT/AOT_stimuli/rescaled_final/1328_fw.mp4	0.0	282.80529713630676	2.500027894973755
60	263.69037795066833	pulse	1	t		58.0	2.5	/experiments/AOT/AOT_stimuli/rescaled_final/1328_fw.mp4	0.0	283.5888659954071	
60	265.2865209579468	pulse	1	t		58.0	2.5	/experiments/AOT/AOT_stimuli/rescaled_final/1328_fw.mp4	0.0	285.18500900268555	
60	265.40683698654175	fix_post	2		12	58.0	2.5	/experiments/AOT/AOT_stimuli/rescaled_final/1328_fw.mp4	0.0	285.3053250312805	0.10000896453857422
61	265.5068459510803	fix_pre	0		120	59.0	2.5	/experiments/AOT/AOT_stimuli/rescaled_final/0244_rv.mp4	0.0	285.4053339958191	1.0000591278076172
61	266.50690507888794	movie	1		246	59.0	2.5	/experiments/AOT/AOT_stimuli/rescaled_final/0244_rv.mp4	0.0	286.4053931236267	2.4999589920043945
61	266.8899838924408	pulse	1	t		59.0	2.5	/experiments/AOT/AOT_stimuli/rescaled_final/0244_rv.mp4	0.0	286.78847193717957	
61	268.4903190135956	pulse	1	t		59.0	2.5	/experiments/AOT/AOT_stimuli/rescaled_final/0244_rv.mp4	0.0	288.38880705833435	
61	269.00686407089233	fix_post	2		12	59.0	2.5	/experiments/AOT/AOT_stimuli/rescaled_final/0244_rv.mp4	0.0	288.9053521156311	0.09990501403808594
62	269.1067690849304	fix_pre	0		119	60.0	2.5	/experiments/AOT/AOT_stimuli/rescaled_final/0572_rv.mp4	0.0	289.0052571296692	0.9916858673095703
62	270.09027791023254	pulse	0	t		60.0	2.5	/experiments/AOT/AOT_stimuli/rescaled_final/0572_rv.mp4	0.0	289.9887659549713	
62	270.09845495224	movie	1		247	60.0	2.5	/experiments/AOT/AOT_stimuli/rescaled_final/0572_rv.mp4	0.0	289.99694299697876	2.5079610347747803
62	271.6897840499878	pulse	1	t		60.0	2.5	/experiments/AOT/AOT_stimuli/rescaled_final/0572_rv.mp4	0.0	291.58827209472656	
62	272.60641598701477	fix_post	2		12	60.0	2.5	/experiments/AOT/AOT_stimuli/rescaled_final/0572_rv.mp4	0.0	292.50490403175354	0.10043191909790039
63	272.70684790611267	fix_pre	0		120	61.0	2.5	/experiments/AOT/AOT_stimuli/rescaled_final/1203_fw.mp4	0.0	292.60533595085144	0.9999411106109619
63	273.2902798652649	pulse	0	t		61.0	2.5	/experiments/AOT/AOT_stimuli/rescaled_final/1203_fw.mp4	0.0	293.18876791000366	
63	273.70678901672363	movie	1		246	61.0	2.5	/experiments/AOT/AOT_stimuli/rescaled_final/1203_fw.mp4	0.0	293.6052770614624	2.500040054321289
63	274.8902859687805	pulse	1	t		61.0	2.5	/experiments/AOT/AOT_stimuli/rescaled_final/1203_fw.mp4	0.0	294.7887740135193	
63	276.2068290710449	fix_post	2		12	61.0	2.5	/experiments/AOT/AOT_stimuli/rescaled_final/1203_fw.mp4	0.0	296.1053171157837	0.10000896453857422
64	276.3068380355835	fix_pre	0		120	62.0	2.5	blank	1.0	296.20532608032227	0.9995748996734619
64	276.4902560710907	pulse	0	t		62.0	2.5	blank	1.0	296.38874411582947	
64	277.30641293525696	movie	1		300	62.0	2.5	blank	1.0	297.2049009799957	2.5004379749298096
64	278.0903060436249	pulse	1	t		62.0	2.5	blank	1.0	297.98879408836365	
64	279.6901960372925	pulse	1	t		62.0	2.5	blank	1.0	299.58868408203125	
64	279.80685091018677	fix_post	2		12	62.0	2.5	blank	1.0	299.70533895492554	0.09995603561401367
65	279.9068069458008	fix_pre	0		120	63.0	2.5	/experiments/AOT/AOT_stimuli/rescaled_final/1823_rv.mp4	0.0	299.80529499053955	0.9995429515838623
65	280.90634989738464	movie	1		244	63.0	2.5	/experiments/AOT/AOT_stimuli/rescaled_final/1823_rv.mp4	0.0	300.8048379421234	2.500420093536377
65	281.28999495506287	pulse	1	t		63.0	2.5	/experiments/AOT/AOT_stimuli/rescaled_final/1823_rv.mp4	0.0	301.18848299980164	
65	282.8902759552002	pulse	1	t		63.0	2.5	/experiments/AOT/AOT_stimuli/rescaled_final/1823_rv.mp4	0.0	302.78876399993896	
65	283.406769990921	fix_post	2		12	63.0	2.5	/experiments/AOT/AOT_stimuli/rescaled_final/1823_rv.mp4	0.0	303.3052580356598	0.10004591941833496
66	283.50681591033936	fix_pre	0		119	64.0	2.5	/experiments/AOT/AOT_stimuli/rescaled_final/0050_rv.mp4	0.0	303.4053039550781	0.991631031036377
66	284.4903030395508	pulse	0	t		64.0	2.5	/experiments/AOT/AOT_stimuli/rescaled_final/0050_rv.mp4	0.0	304.38879108428955	
66	284.49844694137573	movie	1		245	64.0	2.5	/experiments/AOT/AOT_stimuli/rescaled_final/0050_rv.mp4	0.0	304.3969349861145	2.5078940391540527
66	286.09147000312805	pulse	1	t		64.0	2.5	/experiments/AOT/AOT_stimuli/rescaled_final/0050_rv.mp4	0.0	305.9899580478668	
66	287.0063409805298	fix_post	2		12	64.0	2.5	/experiments/AOT/AOT_stimuli/rescaled_final/0050_rv.mp4	0.0	306.90482902526855	0.10044407844543457
67	287.1067850589752	fix_pre	0		120	65.0	2.5	/experiments/AOT/AOT_stimuli/rescaled_final/0818_fw.mp4	0.0	307.005273103714	0.9995989799499512
67	287.68983697891235	pulse	0	t		65.0	2.5	/experiments/AOT/AOT_stimuli/rescaled_final/0818_fw.mp4	0.0	307.5883250236511	
67	288.10638403892517	movie	1		243	65.0	2.5	/experiments/AOT/AOT_stimuli/rescaled_final/0818_fw.mp4	0.0	308.00487208366394	2.500257968902588
67	289.29038095474243	pulse	1	t		65.0	2.5	/experiments/AOT/AOT_stimuli/rescaled_final/0818_fw.mp4	0.0	309.1888689994812	
67	290.60664200782776	fix_post	2		12	65.0	2.5	/experiments/AOT/AOT_stimuli/rescaled_final/0818_fw.mp4	0.0	310.5051300525665	0.10005307197570801
68	290.70669507980347	fix_pre	0		120	66.0	2.5	/experiments/AOT/AOT_stimuli/rescaled_final/1291_fw.mp4	0.0	310.60518312454224	0.9999690055847168
68	290.8902440071106	pulse	0	t		66.0	2.5	/experiments/AOT/AOT_stimuli/rescaled_final/1291_fw.mp4	0.0	310.78873205184937	
68	291.7066640853882	movie	1		245	66.0	2.5	/experiments/AOT/AOT_stimuli/rescaled_final/1291_fw.mp4	0.0	311.60515213012695	2.499675989151001
68	292.490159034729	pulse	1	t		66.0	2.5	/experiments/AOT/AOT_stimuli/rescaled_final/1291_fw.mp4	0.0	312.3886470794678	
68	294.08870100975037	pulse	1	t		66.0	2.5	/experiments/AOT/AOT_stimuli/rescaled_final/1291_fw.mp4	0.0	313.98718905448914	
68	294.2063400745392	fix_post	2		12	66.0	2.5	/experiments/AOT/AOT_stimuli/rescaled_final/1291_fw.mp4	0.0	314.10482811927795	0.10031700134277344
69	294.30665707588196	fix_pre	0		120	67.0	2.5	/experiments/AOT/AOT_stimuli/rescaled_final/0596_fw.mp4	0.0	314.2051451206207	1.0000839233398438
69	295.3067409992218	movie	1		244	67.0	2.5	/experiments/AOT/AOT_stimuli/rescaled_final/0596_fw.mp4	0.0	315.20522904396057	2.4999120235443115
69	295.69017791748047	pulse	1	t		67.0	2.5	/experiments/AOT/AOT_stimuli/rescaled_final/0596_fw.mp4	0.0	315.58866596221924	
69	297.29013109207153	pulse	1	t		67.0	2.5	/experiments/AOT/AOT_stimuli/rescaled_final/0596_fw.mp4	0.0	317.1886191368103	
69	297.8066530227661	fix_post	2		12	67.0	2.5	/experiments/AOT/AOT_stimuli/rescaled_final/0596_fw.mp4	0.0	317.7051410675049	0.10003399848937988
70	297.9066870212555	fix_pre	0		119	68.0	2.5	/experiments/AOT/AOT_stimuli/rescaled_final/1907_fw.mp4	0.0	317.80517506599426	0.9916729927062988
70	298.8901479244232	pulse	0	t		68.0	2.5	/experiments/AOT/AOT_stimuli/rescaled_final/1907_fw.mp4	0.0	318.788635969162	
70	298.8983600139618	movie	1		246	68.0	2.5	/experiments/AOT/AOT_stimuli/rescaled_final/1907_fw.mp4	0.0	318.79684805870056	2.508249044418335
70	300.490042924881	pulse	1	t		68.0	2.5	/experiments/AOT/AOT_stimuli/rescaled_final/1907_fw.mp4	0.0	320.38853096961975	
70	301.4066090583801	fix_post	2		12	68.0	2.5	/experiments/AOT/AOT_stimuli/rescaled_final/1907_fw.mp4	0.0	321.3050971031189	0.0999908447265625
71	301.5065999031067	fix_pre	0		120	69.0	2.5	/experiments/AOT/AOT_stimuli/rescaled_final/0357_fw.mp4	0.0	321.40508794784546	1.0000159740447998
71	302.09009408950806	pulse	0	t		69.0	2.5	/experiments/AOT/AOT_stimuli/rescaled_final/0357_fw.mp4	0.0	321.9885821342468	
71	302.5066158771515	movie	1		244	69.0	2.5	/experiments/AOT/AOT_stimuli/rescaled_final/0357_fw.mp4	0.0	322.40510392189026	2.4999990463256836
71	303.6902439594269	pulse	1	t		69.0	2.5	/experiments/AOT/AOT_stimuli/rescaled_final/0357_fw.mp4	0.0	323.58873200416565	
71	305.0066149234772	fix_post	2		12	69.0	2.5	/experiments/AOT/AOT_stimuli/rescaled_final/0357_fw.mp4	0.0	324.90510296821594	0.10010313987731934
72	305.1067180633545	fix_pre	0		120	70.0	2.5	blank	1.0	325.00520610809326	0.999971866607666
72	305.2901840209961	pulse	0	t		70.0	2.5	blank	1.0	325.18867206573486	
72	306.10668992996216	movie	1		300	70.0	2.5	blank	1.0	326.0051779747009	2.4999711513519287
72	306.8901860713959	pulse	1	t		70.0	2.5	blank	1.0	326.78867411613464	
72	308.49018692970276	pulse	1	t		70.0	2.5	blank	1.0	328.3886749744415	
72	308.6066610813141	fix_post	2		12	70.0	2.5	blank	1.0	328.50514912605286	0.09996891021728516
73	308.7066299915314	fix_pre	0		120	71.0	2.5	/experiments/AOT/AOT_stimuli/rescaled_final/1054_fw.mp4	0.0	328.60511803627014	0.9999439716339111
73	309.7065739631653	movie	1		245	71.0	2.5	/experiments/AOT/AOT_stimuli/rescaled_final/1054_fw.mp4	0.0	329.60506200790405	2.500063896179199
73	310.08971309661865	pulse	1	t		71.0	2.5	/experiments/AOT/AOT_stimuli/rescaled_final/1054_fw.mp4	0.0	329.9882011413574	
73	311.6901650428772	pulse	1	t		71.0	2.5	/experiments/AOT/AOT_stimuli/rescaled_final/1054_fw.mp4	0.0	331.58865308761597	
73	312.2066378593445	fix_post	2		12	71.0	2.5	/experiments/AOT/AOT_stimuli/rescaled_final/1054_fw.mp4	0.0	332.10512590408325	0.1000511646270752
74	312.30668902397156	fix_pre	0		119	72.0	2.5	/experiments/AOT/AOT_stimuli/rescaled_final/0291_rv.mp4	0.0	332.2051770687103	0.9915530681610107
74	313.29017305374146	pulse	0	t		72.0	2.5	/experiments/AOT/AOT_stimuli/rescaled_final/0291_rv.mp4	0.0	333.1886610984802	
74	313.29824209213257	movie	1		248	72.0	2.5	/experiments/AOT/AOT_stimuli/rescaled_final/0291_rv.mp4	0.0	333.19673013687134	2.5084068775177
74	314.8905050754547	pulse	1	t		72.0	2.5	/experiments/AOT/AOT_stimuli/rescaled_final/0291_rv.mp4	0.0	334.7889931201935	
74	315.80664896965027	fix_post	2		12	72.0	2.5	/experiments/AOT/AOT_stimuli/rescaled_final/0291_rv.mp4	0.0	335.70513701438904	0.09996604919433594
75	315.9066150188446	fix_pre	0		120	73.0	2.5	/experiments/AOT/AOT_stimuli/rescaled_final/1497_fw.mp4	0.0	335.8051030635834	1.0000159740447998
75	316.4913330078125	pulse	0	t		73.0	2.5	/experiments/AOT/AOT_stimuli/rescaled_final/1497_fw.mp4	0.0	336.38982105255127	
75	316.9066309928894	movie	1		244	73.0	2.5	/experiments/AOT/AOT_stimuli/rescaled_final/1497_fw.mp4	0.0	336.8051190376282	2.4998960494995117
75	318.09014797210693	pulse	1	t		73.0	2.5	/experiments/AOT/AOT_stimuli/rescaled_final/1497_fw.mp4	0.0	337.9886360168457	
75	319.4065270423889	fix_post	2		12	73.0	2.5	/experiments/AOT/AOT_stimuli/rescaled_final/1497_fw.mp4	0.0	339.3050150871277	0.1000518798828125
76	319.50657892227173	fix_pre	0		120	74.0	2.5	/experiments/AOT/AOT_stimuli/rescaled_final/1807_fw.mp4	0.0	339.4050669670105	1.0000090599060059
76	319.69009804725647	pulse	0	t		74.0	2.5	/experiments/AOT/AOT_stimuli/rescaled_final/1807_fw.mp4	0.0	339.58858609199524	
76	320.50658798217773	movie	1		245	74.0	2.5	/experiments/AOT/AOT_stimuli/rescaled_final/1807_fw.mp4	0.0	340.4050760269165	2.499974012374878
76	321.2900869846344	pulse	1	t		74.0	2.5	/experiments/AOT/AOT_stimuli/rescaled_final/1807_fw.mp4	0.0	341.18857502937317	
76	322.8887128829956	pulse	1	t		74.0	2.5	/experiments/AOT/AOT_stimuli/rescaled_final/1807_fw.mp4	0.0	342.7872009277344	
76	323.0065619945526	fix_post	2		12	74.0	2.5	/experiments/AOT/AOT_stimuli/rescaled_final/1807_fw.mp4	0.0	342.9050500392914	0.10000491142272949
77	323.10656690597534	fix_pre	0		120	75.0	2.5	blank	1.0	343.0050549507141	0.9995419979095459
77	324.1061089038849	movie	1		300	75.0	2.5	blank	1.0	344.00459694862366	2.5004701614379883
77	324.49017691612244	pulse	1	t		75.0	2.5	blank	1.0	344.3886649608612	
77	326.09016489982605	pulse	1	t		75.0	2.5	blank	1.0	345.9886529445648	
77	326.6065790653229	fix_post	2		12	75.0	2.5	blank	1.0	346.50506711006165	0.09999489784240723
78	326.7065739631653	fix_pre	0		119	76.0	2.5	/experiments/AOT/AOT_stimuli/rescaled_final/0341_rv.mp4	0.0	346.60506200790405	0.9916601181030273
78	327.69001293182373	pulse	0	t		76.0	2.5	/experiments/AOT/AOT_stimuli/rescaled_final/0341_rv.mp4	0.0	347.5885009765625	
78	327.6982340812683	movie	1		249	76.0	2.5	/experiments/AOT/AOT_stimuli/rescaled_final/0341_rv.mp4	0.0	347.5967221260071	2.5083088874816895
78	329.2893760204315	pulse	1	t		76.0	2.5	/experiments/AOT/AOT_stimuli/rescaled_final/0341_rv.mp4	0.0	349.1878640651703	
78	330.20654296875	fix_post	2		12	76.0	2.5	/experiments/AOT/AOT_stimuli/rescaled_final/0341_rv.mp4	0.0	350.10503101348877	0.09960508346557617
79	330.3061480522156	fix_pre	0		120	77.0	2.5	/experiments/AOT/AOT_stimuli/rescaled_final/0134_fw.mp4	0.0	350.20463609695435	1.0004208087921143
79	330.890016078949	pulse	0	t		77.0	2.5	/experiments/AOT/AOT_stimuli/rescaled_final/0134_fw.mp4	0.0	350.78850412368774	
79	331.3065688610077	movie	1		244	77.0	2.5	/experiments/AOT/AOT_stimuli/rescaled_final/0134_fw.mp4	0.0	351.20505690574646	2.4999501705169678
79	332.4899799823761	pulse	1	t		77.0	2.5	/experiments/AOT/AOT_stimuli/rescaled_final/0134_fw.mp4	0.0	352.38846802711487	
79	333.80651903152466	fix_post	2		12	77.0	2.5	/experiments/AOT/AOT_stimuli/rescaled_final/0134_fw.mp4	0.0	353.7050070762634	0.09995698928833008
80	333.906476020813	fix_pre	0		120	78.0	2.5	/experiments/AOT/AOT_stimuli/rescaled_final/1794_fw.mp4	0.0	353.80496406555176	0.9999949932098389
80	334.09002208709717	pulse	0	t		78.0	2.5	/experiments/AOT/AOT_stimuli/rescaled_final/1794_fw.mp4	0.0	353.98851013183594	
80	334.9064710140228	movie	1		246	78.0	2.5	/experiments/AOT/AOT_stimuli/rescaled_final/1794_fw.mp4	0.0	354.8049590587616	2.4995830059051514
80	335.6899559497833	pulse	1	t		78.0	2.5	/experiments/AOT/AOT_stimuli/rescaled_final/1794_fw.mp4	0.0	355.5884439945221	
80	337.29028701782227	pulse	1	t		78.0	2.5	/experiments/AOT/AOT_stimuli/rescaled_final/1794_fw.mp4	0.0	357.18877506256104	
80	337.406054019928	fix_post	2		12	78.0	2.5	/experiments/AOT/AOT_stimuli/rescaled_final/1794_fw.mp4	0.0	357.30454206466675	0.1005408763885498
81	337.5065948963165	fix_pre	0		120	79.0	2.5	/experiments/AOT/AOT_stimuli/rescaled_final/0400_rv.mp4	0.0	357.4050829410553	0.9999501705169678
81	338.5065450668335	movie	1		245	79.0	2.5	/experiments/AOT/AOT_stimuli/rescaled_final/0400_rv.mp4	0.0	358.40503311157227	2.499581813812256
81	338.88953590393066	pulse	1	t		79.0	2.5	/experiments/AOT/AOT_stimuli/rescaled_final/0400_rv.mp4	0.0	358.78802394866943	
81	340.4900629520416	pulse	1	t		79.0	2.5	/experiments/AOT/AOT_stimuli/rescaled_final/0400_rv.mp4	0.0	360.3885509967804	
81	341.00612688064575	fix_post	2		12	79.0	2.5	/experiments/AOT/AOT_stimuli/rescaled_final/0400_rv.mp4	0.0	360.9046149253845	0.10041499137878418
82	341.10654187202454	fix_pre	0		119	80.0	2.5	/experiments/AOT/AOT_stimuli/rescaled_final/1892_rv.mp4	0.0	361.0050299167633	0.9916322231292725
82	342.09005188941956	pulse	0	t		80.0	2.5	/experiments/AOT/AOT_stimuli/rescaled_final/1892_rv.mp4	0.0	361.9885399341583	
82	342.0981740951538	movie	1		248	80.0	2.5	/experiments/AOT/AOT_stimuli/rescaled_final/1892_rv.mp4	0.0	361.9966621398926	2.507960796356201
82	343.68903493881226	pulse	1	t		80.0	2.5	/experiments/AOT/AOT_stimuli/rescaled_final/1892_rv.mp4	0.0	363.587522983551	
82	344.60613489151	fix_post	2		12	80.0	2.5	/experiments/AOT/AOT_stimuli/rescaled_final/1892_rv.mp4	0.0	364.5046229362488	0.10008406639099121
83	344.706218957901	fix_pre	0		119	81.0	2.5	/experiments/AOT/AOT_stimuli/rescaled_final/1995_fw.mp4	0.0	364.60470700263977	1.0005269050598145
83	345.29021692276	pulse	0	t		81.0	2.5	/experiments/AOT/AOT_stimuli/rescaled_final/1995_fw.mp4	0.0	365.1887049674988	
83	345.7067458629608	movie	1		245	81.0	2.5	/experiments/AOT/AOT_stimuli/rescaled_final/1995_fw.mp4	0.0	365.6052339076996	2.499725103378296
83	346.8901469707489	pulse	1	t		81.0	2.5	/experiments/AOT/AOT_stimuli/rescaled_final/1995_fw.mp4	0.0	366.78863501548767	
83	348.2064709663391	fix_post	2		12	81.0	2.5	/experiments/AOT/AOT_stimuli/rescaled_final/1995_fw.mp4	0.0	368.1049590110779	0.10001111030578613
84	348.3064820766449	fix_pre	0		120	82.0	2.5	/experiments/AOT/AOT_stimuli/rescaled_final/1608_rv.mp4	0.0	368.20497012138367	0.9995779991149902
84	348.4899730682373	pulse	0	t		82.0	2.5	/experiments/AOT/AOT_stimuli/rescaled_final/1608_rv.mp4	0.0	368.3884611129761	
84	349.3060600757599	movie	1		244	82.0	2.5	/experiments/AOT/AOT_stimuli/rescaled_final/1608_rv.mp4	0.0	369.20454812049866	2.500379800796509
84	350.08990502357483	pulse	1	t		82.0	2.5	/experiments/AOT/AOT_stimuli/rescaled_final/1608_rv.mp4	0.0	369.9883930683136	
84	351.68839287757874	pulse	1	t		82.0	2.5	/experiments/AOT/AOT_stimuli/rescaled_final/1608_rv.mp4	0.0	371.5868809223175	
84	351.8064398765564	fix_post	2		12	82.0	2.5	/experiments/AOT/AOT_stimuli/rescaled_final/1608_rv.mp4	0.0	371.70492792129517	0.10001921653747559
85	351.9064590930939	fix_pre	0		120	83.0	2.5	blank	1.0	371.80494713783264	1.0000078678131104
85	352.906466960907	movie	1		300	83.0	2.5	blank	1.0	372.80495500564575	2.4998960494995117
85	353.2899560928345	pulse	1	t		83.0	2.5	blank	1.0	373.18844413757324	
85	354.8899459838867	pulse	1	t		83.0	2.5	blank	1.0	374.7884340286255	
85	355.4063630104065	fix_post	2		12	83.0	2.5	blank	1.0	375.30485105514526	0.10004091262817383
87	355.50640392303467	stim	0		1716					375.40489196777344	14.30002212524414
87	356.48992109298706	pulse	0	t						376.38840913772583	
87	358.08988904953003	pulse	0	t						377.9883770942688	
87	359.6898810863495	pulse	0	t						379.58836913108826	
87	361.2899079322815	pulse	0	t						381.18839597702026	
87	362.8898959159851	pulse	0	t						382.7883839607239	
87	364.48988604545593	pulse	0	t						384.3883740901947	
87	366.08991503715515	pulse	0	t						385.9884030818939	
87	367.68996000289917	pulse	0	t						387.58844804763794	
87	369.2898540496826	pulse	0	t						389.1883420944214	
