trial_nr	onset	event_type	phase	response	nr_frames	movie_index	movie_duration	movie_file	blank	onset_abs	duration
0	0.14159584045410156	stim	0		1					18.962186098098755	0.00836801528930664
0	0.11955857276916504	response	0	space						18.94014883041382	
1	0.1499638557434082	stim	0		4526					18.97055411338806	37.73421764373779
1	37.869290590286255	pulse	0	t						56.68988084793091	
1	37.8841814994812	stim	1		1714					56.704771757125854	14.298471927642822
1	39.464362144470215	pulse	1	t						58.28495240211487	
1	41.06457042694092	pulse	1	t						59.88516068458557	
1	42.66479706764221	pulse	1	t						61.485387325286865	
1	44.265013217926025	pulse	1	t						63.08560347557068	
1	45.86519145965576	pulse	1	t						64.68578171730042	
1	47.4584321975708	pulse	1	t						66.27902245521545	
1	49.065797567367554	pulse	1	t						67.8863878250122	
1	50.666033029556274	pulse	1	t						69.48662328720093	
2	52.18265342712402	fix_pre	0		11	0.0	2.5	/experiments/knapen_AOT/AOT_stimuli/rescaled_final/2041_rv.mp4	0.0	71.00324368476868	0.1085054874420166
2	52.2593047618866	pulse	0	t		0.0	2.5	/experiments/knapen_AOT/AOT_stimuli/rescaled_final/2041_rv.mp4	0.0	71.07989501953125	
2	52.29115891456604	movie	1		259	0.0	2.5	/experiments/knapen_AOT/AOT_stimuli/rescaled_final/2041_rv.mp4	0.0	71.1117491722107	2.491910457611084
2	53.85859704017639	pulse	1	t		0.0	2.5	/experiments/knapen_AOT/AOT_stimuli/rescaled_final/2041_rv.mp4	0.0	72.67918729782104	
2	54.783069372177124	fix_post	2		12	0.0	2.5	/experiments/knapen_AOT/AOT_stimuli/rescaled_final/2041_rv.mp4	0.0	73.60365962982178	0.09999418258666992
3	54.883063554763794	fix_pre	0		120	1.0	2.5	/experiments/knapen_AOT/AOT_stimuli/rescaled_final/0176_rv.mp4	0.0	73.70365381240845	1.0084776878356934
3	55.458606004714966	pulse	0	t		1.0	2.5	/experiments/knapen_AOT/AOT_stimuli/rescaled_final/0176_rv.mp4	0.0	74.27919626235962	
3	55.89154124259949	movie	1		269	1.0	2.5	/experiments/knapen_AOT/AOT_stimuli/rescaled_final/0176_rv.mp4	0.0	74.71213150024414	2.4920825958251953
3	57.05862236022949	pulse	1	t		1.0	2.5	/experiments/knapen_AOT/AOT_stimuli/rescaled_final/0176_rv.mp4	0.0	75.87921261787415	
3	58.38362383842468	fix_post	2		12	1.0	2.5	/experiments/knapen_AOT/AOT_stimuli/rescaled_final/0176_rv.mp4	0.0	77.20421409606934	0.10000753402709961
4	58.48363137245178	fix_pre	0		120	2.0	2.5	/experiments/knapen_AOT/AOT_stimuli/rescaled_final/1196_rv.mp4	0.0	77.30422163009644	1.0084853172302246
4	58.65892791748047	pulse	0	t		2.0	2.5	/experiments/knapen_AOT/AOT_stimuli/rescaled_final/1196_rv.mp4	0.0	77.47951817512512	
4	59.49211668968201	movie	1		276	2.0	2.5	/experiments/knapen_AOT/AOT_stimuli/rescaled_final/1196_rv.mp4	0.0	78.31270694732666	2.492017984390259
4	60.259233713150024	pulse	1	t		2.0	2.5	/experiments/knapen_AOT/AOT_stimuli/rescaled_final/1196_rv.mp4	0.0	79.07982397079468	
4	61.85915684700012	pulse	1	t		2.0	2.5	/experiments/knapen_AOT/AOT_stimuli/rescaled_final/1196_rv.mp4	0.0	80.67974710464478	
4	61.984134674072266	fix_post	2		12	2.0	2.5	/experiments/knapen_AOT/AOT_stimuli/rescaled_final/1196_rv.mp4	0.0	80.80472493171692	0.1000063419342041
5	62.08414101600647	fix_pre	0		120	3.0	2.5	/experiments/knapen_AOT/AOT_stimuli/rescaled_final/1771_fw.mp4	0.0	80.90473127365112	1.008486270904541
5	63.09262728691101	movie	1		279	3.0	2.5	/experiments/knapen_AOT/AOT_stimuli/rescaled_final/1771_fw.mp4	0.0	81.91321754455566	2.492130756378174
5	63.459837198257446	pulse	1	t		3.0	2.5	/experiments/knapen_AOT/AOT_stimuli/rescaled_final/1771_fw.mp4	0.0	82.2804274559021	
5	65.05911135673523	pulse	1	t		3.0	2.5	/experiments/knapen_AOT/AOT_stimuli/rescaled_final/1771_fw.mp4	0.0	83.87970161437988	
5	65.58475804328918	fix_post	2		12	3.0	2.5	/experiments/knapen_AOT/AOT_stimuli/rescaled_final/1771_fw.mp4	0.0	84.40534830093384	0.0999901294708252
6	65.68474817276001	fix_pre	0		118	4.0	2.5	/experiments/knapen_AOT/AOT_stimuli/rescaled_final/1101_fw.mp4	0.0	84.50533843040466	0.9917662143707275
6	66.66016054153442	pulse	0	t		4.0	2.5	/experiments/knapen_AOT/AOT_stimuli/rescaled_final/1101_fw.mp4	0.0	85.48075079917908	
6	66.67651438713074	movie	1		279	4.0	2.5	/experiments/knapen_AOT/AOT_stimuli/rescaled_final/1101_fw.mp4	0.0	85.49710464477539	2.5003468990325928
6	68.25838017463684	pulse	1	t		4.0	2.5	/experiments/knapen_AOT/AOT_stimuli/rescaled_final/1101_fw.mp4	0.0	87.0789704322815	
6	69.17686128616333	fix_post	2		12	4.0	2.5	/experiments/knapen_AOT/AOT_stimuli/rescaled_final/1101_fw.mp4	0.0	87.99745154380798	0.10006856918334961
7	69.27692985534668	fix_pre	0		120	5.0	2.5	blank	1.0	88.09752011299133	1.0001029968261719
7	69.86064600944519	pulse	0	t		5.0	2.5	blank	1.0	88.68123626708984	
7	70.27703285217285	movie	1		300	5.0	2.5	blank	1.0	89.0976231098175	2.500361680984497
7	71.46078562736511	pulse	1	t		5.0	2.5	blank	1.0	90.28137588500977	
7	72.77739453315735	fix_post	2		12	5.0	2.5	blank	1.0	91.597984790802	0.10011816024780273
8	72.87751269340515	fix_pre	0		120	6.0	2.5	/experiments/knapen_AOT/AOT_stimuli/rescaled_final/1223_rv.mp4	0.0	91.6981029510498	1.008425235748291
8	73.0610203742981	pulse	0	t		6.0	2.5	/experiments/knapen_AOT/AOT_stimuli/rescaled_final/1223_rv.mp4	0.0	91.88161063194275	
8	73.88593792915344	movie	1		273	6.0	2.5	/experiments/knapen_AOT/AOT_stimuli/rescaled_final/1223_rv.mp4	0.0	92.7065281867981	2.492017984390259
8	74.65937185287476	pulse	1	t		6.0	2.5	/experiments/knapen_AOT/AOT_stimuli/rescaled_final/1223_rv.mp4	0.0	93.47996211051941	
8	76.26139283180237	pulse	1	t		6.0	2.5	/experiments/knapen_AOT/AOT_stimuli/rescaled_final/1223_rv.mp4	0.0	95.08198308944702	
8	76.3779559135437	fix_post	2		12	6.0	2.5	/experiments/knapen_AOT/AOT_stimuli/rescaled_final/1223_rv.mp4	0.0	95.19854617118835	0.10007238388061523
9	76.47802829742432	fix_pre	0		120	7.0	2.5	/experiments/knapen_AOT/AOT_stimuli/rescaled_final/0830_rv.mp4	0.0	95.29861855506897	1.0085539817810059
9	77.48658227920532	movie	1		269	7.0	2.5	/experiments/knapen_AOT/AOT_stimuli/rescaled_final/0830_rv.mp4	0.0	96.30717253684998	2.491905450820923
9	77.86186361312866	pulse	1	t		7.0	2.5	/experiments/knapen_AOT/AOT_stimuli/rescaled_final/0830_rv.mp4	0.0	96.68245387077332	
9	79.459805727005	pulse	1	t		7.0	2.5	/experiments/knapen_AOT/AOT_stimuli/rescaled_final/0830_rv.mp4	0.0	98.28039598464966	
9	79.97848773002625	fix_post	2		12	7.0	2.5	/experiments/knapen_AOT/AOT_stimuli/rescaled_final/0830_rv.mp4	0.0	98.7990779876709	0.10004067420959473
10	80.07852840423584	fix_pre	0		119	8.0	2.5	/experiments/knapen_AOT/AOT_stimuli/rescaled_final/0281_fw.mp4	0.0	98.8991186618805	1.0001463890075684
10	81.06237626075745	pulse	0	t		8.0	2.5	/experiments/knapen_AOT/AOT_stimuli/rescaled_final/0281_fw.mp4	0.0	99.8829665184021	
10	81.07867479324341	movie	1		276	8.0	2.5	/experiments/knapen_AOT/AOT_stimuli/rescaled_final/0281_fw.mp4	0.0	99.89926505088806	2.500417709350586
10	82.66105365753174	pulse	1	t		8.0	2.5	/experiments/knapen_AOT/AOT_stimuli/rescaled_final/0281_fw.mp4	0.0	101.48164391517639	
10	83.579092502594	fix_post	2		12	8.0	2.5	/experiments/knapen_AOT/AOT_stimuli/rescaled_final/0281_fw.mp4	0.0	102.39968276023865	0.09999775886535645
11	83.67909026145935	fix_pre	0		120	9.0	2.5	/experiments/knapen_AOT/AOT_stimuli/rescaled_final/1385_fw.mp4	0.0	102.499680519104	1.0084497928619385
11	84.26274085044861	pulse	0	t		9.0	2.5	/experiments/knapen_AOT/AOT_stimuli/rescaled_final/1385_fw.mp4	0.0	103.08333110809326	
11	84.68754005432129	movie	1		278	9.0	2.5	/experiments/knapen_AOT/AOT_stimuli/rescaled_final/1385_fw.mp4	0.0	103.50813031196594	2.492044687271118
11	85.86146879196167	pulse	1	t		9.0	2.5	/experiments/knapen_AOT/AOT_stimuli/rescaled_final/1385_fw.mp4	0.0	104.68205904960632	
11	87.17958474159241	fix_post	2		12	9.0	2.5	/experiments/knapen_AOT/AOT_stimuli/rescaled_final/1385_fw.mp4	0.0	106.00017499923706	0.10002517700195312
12	87.27960991859436	fix_pre	0		120	10.0	2.5	/experiments/knapen_AOT/AOT_stimuli/rescaled_final/1871_rv.mp4	0.0	106.10020017623901	1.00848388671875
12	87.4631736278534	pulse	0	t		10.0	2.5	/experiments/knapen_AOT/AOT_stimuli/rescaled_final/1871_rv.mp4	0.0	106.28376388549805	
12	88.28809380531311	movie	1		278	10.0	2.5	/experiments/knapen_AOT/AOT_stimuli/rescaled_final/1871_rv.mp4	0.0	107.10868406295776	2.492020845413208
12	89.06241655349731	pulse	1	t		10.0	2.5	/experiments/knapen_AOT/AOT_stimuli/rescaled_final/1871_rv.mp4	0.0	107.88300681114197	
12	90.6616005897522	pulse	1	t		10.0	2.5	/experiments/knapen_AOT/AOT_stimuli/rescaled_final/1871_rv.mp4	0.0	109.48219084739685	
12	90.78011465072632	fix_post	2		12	10.0	2.5	/experiments/knapen_AOT/AOT_stimuli/rescaled_final/1871_rv.mp4	0.0	109.60070490837097	0.10002493858337402
13	90.88013958930969	fix_pre	0		120	11.0	2.5	/experiments/knapen_AOT/AOT_stimuli/rescaled_final/1997_fw.mp4	0.0	109.70072984695435	1.0084865093231201
13	91.88862609863281	movie	1		265	11.0	2.5	/experiments/knapen_AOT/AOT_stimuli/rescaled_final/1997_fw.mp4	0.0	110.70921635627747	2.4920215606689453
13	92.26185297966003	pulse	1	t		11.0	2.5	/experiments/knapen_AOT/AOT_stimuli/rescaled_final/1997_fw.mp4	0.0	111.08244323730469	
13	93.86203455924988	pulse	1	t		11.0	2.5	/experiments/knapen_AOT/AOT_stimuli/rescaled_final/1997_fw.mp4	0.0	112.68262481689453	
13	94.38064765930176	fix_post	2		12	11.0	2.5	/experiments/knapen_AOT/AOT_stimuli/rescaled_final/1997_fw.mp4	0.0	113.20123791694641	0.10020303726196289
14	94.48085069656372	fix_pre	0		119	12.0	2.5	/experiments/knapen_AOT/AOT_stimuli/rescaled_final/1500_fw.mp4	0.0	113.30144095420837	0.9999842643737793
14	95.46442794799805	pulse	0	t		12.0	2.5	/experiments/knapen_AOT/AOT_stimuli/rescaled_final/1500_fw.mp4	0.0	114.2850182056427	
14	95.4808349609375	movie	1		278	12.0	2.5	/experiments/knapen_AOT/AOT_stimuli/rescaled_final/1500_fw.mp4	0.0	114.30142521858215	2.5004138946533203
14	97.06315779685974	pulse	1	t		12.0	2.5	/experiments/knapen_AOT/AOT_stimuli/rescaled_final/1500_fw.mp4	0.0	115.8837480545044	
14	97.98124885559082	fix_post	2		12	12.0	2.5	/experiments/knapen_AOT/AOT_stimuli/rescaled_final/1500_fw.mp4	0.0	116.80183911323547	0.09997415542602539
15	98.08122301101685	fix_pre	0		120	13.0	2.5	blank	1.0	116.9018132686615	1.0001742839813232
15	98.65828561782837	pulse	0	t		13.0	2.5	blank	1.0	117.47887587547302	
15	99.08139729499817	movie	1		300	13.0	2.5	blank	1.0	117.90198755264282	2.500338077545166
15	100.25806403160095	pulse	1	t		13.0	2.5	blank	1.0	119.0786542892456	
15	101.58173537254333	fix_post	2		12	13.0	2.5	blank	1.0	120.40232563018799	0.10002255439758301
16	101.68175792694092	fix_pre	0		120	14.0	2.5	/experiments/knapen_AOT/AOT_stimuli/rescaled_final/1640_fw.mp4	0.0	120.50234818458557	1.0085179805755615
16	101.85843062400818	pulse	0	t		14.0	2.5	/experiments/knapen_AOT/AOT_stimuli/rescaled_final/1640_fw.mp4	0.0	120.67902088165283	
16	102.69027590751648	movie	1		277	14.0	2.5	/experiments/knapen_AOT/AOT_stimuli/rescaled_final/1640_fw.mp4	0.0	121.51086616516113	2.492020845413208
16	103.46339774131775	pulse	1	t		14.0	2.5	/experiments/knapen_AOT/AOT_stimuli/rescaled_final/1640_fw.mp4	0.0	122.2839879989624	
16	105.05785179138184	pulse	1	t		14.0	2.5	/experiments/knapen_AOT/AOT_stimuli/rescaled_final/1640_fw.mp4	0.0	123.87844204902649	
16	105.18229675292969	fix_post	2		12	14.0	2.5	/experiments/knapen_AOT/AOT_stimuli/rescaled_final/1640_fw.mp4	0.0	124.00288701057434	0.10002851486206055
17	105.28232526779175	fix_pre	0		120	15.0	2.5	/experiments/knapen_AOT/AOT_stimuli/rescaled_final/1505_fw.mp4	0.0	124.1029155254364	1.008540153503418
17	106.29086542129517	movie	1		272	15.0	2.5	/experiments/knapen_AOT/AOT_stimuli/rescaled_final/1505_fw.mp4	0.0	125.11145567893982	2.4919567108154297
17	106.65860962867737	pulse	1	t		15.0	2.5	/experiments/knapen_AOT/AOT_stimuli/rescaled_final/1505_fw.mp4	0.0	125.47919988632202	
17	108.25792360305786	pulse	1	t		15.0	2.5	/experiments/knapen_AOT/AOT_stimuli/rescaled_final/1505_fw.mp4	0.0	127.07851386070251	
17	108.7828221321106	fix_post	2		12	15.0	2.5	/experiments/knapen_AOT/AOT_stimuli/rescaled_final/1505_fw.mp4	0.0	127.60341238975525	0.10002017021179199
18	108.88284230232239	fix_pre	0		118	16.0	2.5	/experiments/knapen_AOT/AOT_stimuli/rescaled_final/2022_fw.mp4	0.0	127.70343255996704	0.9918191432952881
18	109.85818648338318	pulse	0	t		16.0	2.5	/experiments/knapen_AOT/AOT_stimuli/rescaled_final/2022_fw.mp4	0.0	128.67877674102783	
18	109.87466144561768	movie	1		276	16.0	2.5	/experiments/knapen_AOT/AOT_stimuli/rescaled_final/2022_fw.mp4	0.0	128.69525170326233	2.500371217727661
18	111.45863127708435	pulse	1	t		16.0	2.5	/experiments/knapen_AOT/AOT_stimuli/rescaled_final/2022_fw.mp4	0.0	130.279221534729	
18	112.37503266334534	fix_post	2		12	16.0	2.5	/experiments/knapen_AOT/AOT_stimuli/rescaled_final/2022_fw.mp4	0.0	131.19562292099	0.1000828742980957
19	112.47511553764343	fix_pre	0		120	17.0	2.5	/experiments/knapen_AOT/AOT_stimuli/rescaled_final/0642_rv.mp4	0.0	131.2957057952881	1.0084543228149414
19	113.05876302719116	pulse	0	t		17.0	2.5	/experiments/knapen_AOT/AOT_stimuli/rescaled_final/0642_rv.mp4	0.0	131.87935328483582	
19	113.48356986045837	movie	1		267	17.0	2.5	/experiments/knapen_AOT/AOT_stimuli/rescaled_final/0642_rv.mp4	0.0	132.30416011810303	2.4920146465301514
19	114.65906429290771	pulse	1	t		17.0	2.5	/experiments/knapen_AOT/AOT_stimuli/rescaled_final/0642_rv.mp4	0.0	133.47965455055237	
19	115.97558450698853	fix_post	2		12	17.0	2.5	/experiments/knapen_AOT/AOT_stimuli/rescaled_final/0642_rv.mp4	0.0	134.79617476463318	0.10003542900085449
20	116.07561993598938	fix_pre	0		120	18.0	2.5	/experiments/knapen_AOT/AOT_stimuli/rescaled_final/0308_rv.mp4	0.0	134.89621019363403	1.008472204208374
20	116.25924825668335	pulse	0	t		18.0	2.5	/experiments/knapen_AOT/AOT_stimuli/rescaled_final/0308_rv.mp4	0.0	135.079838514328	
20	117.08409214019775	movie	1		263	18.0	2.5	/experiments/knapen_AOT/AOT_stimuli/rescaled_final/0308_rv.mp4	0.0	135.9046823978424	2.492061138153076
20	117.85898518562317	pulse	1	t		18.0	2.5	/experiments/knapen_AOT/AOT_stimuli/rescaled_final/0308_rv.mp4	0.0	136.67957544326782	
20	119.45969271659851	pulse	1	t		18.0	2.5	/experiments/knapen_AOT/AOT_stimuli/rescaled_final/0308_rv.mp4	0.0	138.28028297424316	
20	119.57615327835083	fix_post	2		12	18.0	2.5	/experiments/knapen_AOT/AOT_stimuli/rescaled_final/0308_rv.mp4	0.0	138.39674353599548	0.09999299049377441
21	119.6761462688446	fix_pre	0		120	19.0	2.5	/experiments/knapen_AOT/AOT_stimuli/rescaled_final/0025_fw.mp4	0.0	138.49673652648926	1.0084731578826904
21	120.6846194267273	movie	1		269	19.0	2.5	/experiments/knapen_AOT/AOT_stimuli/rescaled_final/0025_fw.mp4	0.0	139.50520968437195	2.49219012260437
21	121.05835151672363	pulse	1	t		19.0	2.5	/experiments/knapen_AOT/AOT_stimuli/rescaled_final/0025_fw.mp4	0.0	139.8789417743683	
21	122.65807580947876	pulse	1	t		19.0	2.5	/experiments/knapen_AOT/AOT_stimuli/rescaled_final/0025_fw.mp4	0.0	141.4786660671234	
21	123.17680954933167	fix_post	2		12	19.0	2.5	/experiments/knapen_AOT/AOT_stimuli/rescaled_final/0025_fw.mp4	0.0	141.99739980697632	0.09985876083374023
22	123.2766683101654	fix_pre	0		119	20.0	2.5	blank	1.0	142.09725856781006	0.9918828010559082
22	124.26039862632751	pulse	0	t		20.0	2.5	blank	1.0	143.08098888397217	
22	124.26855111122131	movie	1		301	20.0	2.5	blank	1.0	143.08914136886597	2.508652687072754
22	125.86061358451843	pulse	1	t		20.0	2.5	blank	1.0	144.6812038421631	
22	126.77720379829407	fix_post	2		12	20.0	2.5	blank	1.0	145.59779405593872	0.09998703002929688
23	126.87719082832336	fix_pre	0		120	21.0	2.5	/experiments/knapen_AOT/AOT_stimuli/rescaled_final/2073_rv.mp4	0.0	145.69778108596802	1.008544683456421
23	127.46085381507874	pulse	0	t		21.0	2.5	/experiments/knapen_AOT/AOT_stimuli/rescaled_final/2073_rv.mp4	0.0	146.2814440727234	
23	127.88573551177979	movie	1		266	21.0	2.5	/experiments/knapen_AOT/AOT_stimuli/rescaled_final/2073_rv.mp4	0.0	146.70632576942444	2.4920291900634766
23	129.05939412117004	pulse	1	t		21.0	2.5	/experiments/knapen_AOT/AOT_stimuli/rescaled_final/2073_rv.mp4	0.0	147.8799843788147	
23	130.37776470184326	fix_post	2		12	21.0	2.5	/experiments/knapen_AOT/AOT_stimuli/rescaled_final/2073_rv.mp4	0.0	149.19835495948792	0.09998846054077148
24	130.47775316238403	fix_pre	0		120	22.0	2.5	/experiments/knapen_AOT/AOT_stimuli/rescaled_final/0135_rv.mp4	0.0	149.2983434200287	1.0085039138793945
24	130.66137075424194	pulse	0	t		22.0	2.5	/experiments/knapen_AOT/AOT_stimuli/rescaled_final/0135_rv.mp4	0.0	149.4819610118866	
24	131.48625707626343	movie	1		260	22.0	2.5	/experiments/knapen_AOT/AOT_stimuli/rescaled_final/0135_rv.mp4	0.0	150.30684733390808	2.4921984672546387
24	132.26131081581116	pulse	1	t		22.0	2.5	/experiments/knapen_AOT/AOT_stimuli/rescaled_final/0135_rv.mp4	0.0	151.0819010734558	
24	133.85964703559875	pulse	1	t		22.0	2.5	/experiments/knapen_AOT/AOT_stimuli/rescaled_final/0135_rv.mp4	0.0	152.6802372932434	
24	133.97845554351807	fix_post	2		12	22.0	2.5	/experiments/knapen_AOT/AOT_stimuli/rescaled_final/0135_rv.mp4	0.0	152.79904580116272	0.09986400604248047
25	134.07831954956055	fix_pre	0		120	23.0	2.5	/experiments/knapen_AOT/AOT_stimuli/rescaled_final/0642_fw.mp4	0.0	152.8989098072052	1.0084588527679443
25	135.0867784023285	movie	1		277	23.0	2.5	/experiments/knapen_AOT/AOT_stimuli/rescaled_final/0642_fw.mp4	0.0	153.90736865997314	2.4920449256896973
25	135.4603853225708	pulse	1	t		23.0	2.5	/experiments/knapen_AOT/AOT_stimuli/rescaled_final/0642_fw.mp4	0.0	154.28097558021545	
25	137.0600335597992	pulse	1	t		23.0	2.5	/experiments/knapen_AOT/AOT_stimuli/rescaled_final/0642_fw.mp4	0.0	155.88062381744385	
25	137.5788233280182	fix_post	2		12	23.0	2.5	/experiments/knapen_AOT/AOT_stimuli/rescaled_final/0642_fw.mp4	0.0	156.39941358566284	0.10001349449157715
26	137.67883682250977	fix_pre	0		119	24.0	2.5	/experiments/knapen_AOT/AOT_stimuli/rescaled_final/1000_rv.mp4	0.0	156.49942708015442	1.0001652240753174
26	138.66259026527405	pulse	0	t		24.0	2.5	/experiments/knapen_AOT/AOT_stimuli/rescaled_final/1000_rv.mp4	0.0	157.4831805229187	
26	138.67900204658508	movie	1		282	24.0	2.5	/experiments/knapen_AOT/AOT_stimuli/rescaled_final/1000_rv.mp4	0.0	157.49959230422974	2.5003750324249268
26	140.26104044914246	pulse	1	t		24.0	2.5	/experiments/knapen_AOT/AOT_stimuli/rescaled_final/1000_rv.mp4	0.0	159.0816307067871	
26	141.17937707901	fix_post	2		12	24.0	2.5	/experiments/knapen_AOT/AOT_stimuli/rescaled_final/1000_rv.mp4	0.0	159.99996733665466	0.10003995895385742
27	141.27941703796387	fix_pre	0		120	25.0	2.5	/experiments/knapen_AOT/AOT_stimuli/rescaled_final/1060_rv.mp4	0.0	160.10000729560852	1.008450984954834
27	141.8633997440338	pulse	0	t		25.0	2.5	/experiments/knapen_AOT/AOT_stimuli/rescaled_final/1060_rv.mp4	0.0	160.68399000167847	
27	142.2878680229187	movie	1		284	25.0	2.5	/experiments/knapen_AOT/AOT_stimuli/rescaled_final/1060_rv.mp4	0.0	161.10845828056335	2.4920337200164795
27	143.46165704727173	pulse	1	t		25.0	2.5	/experiments/knapen_AOT/AOT_stimuli/rescaled_final/1060_rv.mp4	0.0	162.28224730491638	
27	144.77990174293518	fix_post	2		12	25.0	2.5	/experiments/knapen_AOT/AOT_stimuli/rescaled_final/1060_rv.mp4	0.0	163.60049200057983	0.10000848770141602
28	144.8799102306366	fix_pre	0		120	26.0	2.5	/experiments/knapen_AOT/AOT_stimuli/rescaled_final/0187_fw.mp4	0.0	163.70050048828125	1.0086658000946045
28	145.06351327896118	pulse	0	t		26.0	2.5	/experiments/knapen_AOT/AOT_stimuli/rescaled_final/0187_fw.mp4	0.0	163.88410353660583	
28	145.8885760307312	movie	1		276	26.0	2.5	/experiments/knapen_AOT/AOT_stimuli/rescaled_final/0187_fw.mp4	0.0	164.70916628837585	2.4919402599334717
28	146.6614284515381	pulse	1	t		26.0	2.5	/experiments/knapen_AOT/AOT_stimuli/rescaled_final/0187_fw.mp4	0.0	165.48201870918274	
28	148.26346111297607	pulse	1	t		26.0	2.5	/experiments/knapen_AOT/AOT_stimuli/rescaled_final/0187_fw.mp4	0.0	167.08405137062073	
28	148.38051629066467	fix_post	2		12	26.0	2.5	/experiments/knapen_AOT/AOT_stimuli/rescaled_final/0187_fw.mp4	0.0	167.20110654830933	0.09999585151672363
29	148.4805121421814	fix_pre	0		120	27.0	2.5	/experiments/knapen_AOT/AOT_stimuli/rescaled_final/1245_fw.mp4	0.0	167.30110239982605	1.0084166526794434
29	149.48892879486084	movie	1		285	27.0	2.5	/experiments/knapen_AOT/AOT_stimuli/rescaled_final/1245_fw.mp4	0.0	168.3095190525055	2.492049217224121
29	149.8626515865326	pulse	1	t		27.0	2.5	/experiments/knapen_AOT/AOT_stimuli/rescaled_final/1245_fw.mp4	0.0	168.68324184417725	
29	151.46235632896423	pulse	1	t		27.0	2.5	/experiments/knapen_AOT/AOT_stimuli/rescaled_final/1245_fw.mp4	0.0	170.2829465866089	
29	151.98097801208496	fix_post	2		12	27.0	2.5	/experiments/knapen_AOT/AOT_stimuli/rescaled_final/1245_fw.mp4	0.0	170.80156826972961	0.1001126766204834
30	152.08109068870544	fix_pre	0		119	28.0	2.5	blank	1.0	170.9016809463501	0.991724967956543
30	153.06473088264465	pulse	0	t		28.0	2.5	blank	1.0	171.8853211402893	
30	153.072815656662	movie	1		301	28.0	2.5	blank	1.0	171.89340591430664	2.508697748184204
30	154.65788292884827	pulse	1	t		28.0	2.5	blank	1.0	173.47847318649292	
30	155.5815134048462	fix_post	2		12	28.0	2.5	blank	1.0	174.40210366249084	0.10003185272216797
31	155.68154525756836	fix_pre	0		120	29.0	2.5	/experiments/knapen_AOT/AOT_stimuli/rescaled_final/0055_fw.mp4	0.0	174.502135515213	1.0085384845733643
31	156.2653386592865	pulse	0	t		29.0	2.5	/experiments/knapen_AOT/AOT_stimuli/rescaled_final/0055_fw.mp4	0.0	175.08592891693115	
31	156.69008374214172	movie	1		277	29.0	2.5	/experiments/knapen_AOT/AOT_stimuli/rescaled_final/0055_fw.mp4	0.0	175.51067399978638	2.4919819831848145
31	157.86332654953003	pulse	1	t		29.0	2.5	/experiments/knapen_AOT/AOT_stimuli/rescaled_final/0055_fw.mp4	0.0	176.68391680717468	
31	159.18206572532654	fix_post	2		12	29.0	2.5	/experiments/knapen_AOT/AOT_stimuli/rescaled_final/0055_fw.mp4	0.0	178.0026559829712	0.1000220775604248
32	159.28208780288696	fix_pre	0		120	30.0	2.5	/experiments/knapen_AOT/AOT_stimuli/rescaled_final/1410_rv.mp4	0.0	178.10267806053162	1.0084881782531738
32	159.45898604393005	pulse	0	t		30.0	2.5	/experiments/knapen_AOT/AOT_stimuli/rescaled_final/1410_rv.mp4	0.0	178.2795763015747	
32	160.29057598114014	movie	1		276	30.0	2.5	/experiments/knapen_AOT/AOT_stimuli/rescaled_final/1410_rv.mp4	0.0	179.1111662387848	2.492039680480957
32	161.06418657302856	pulse	1	t		30.0	2.5	/experiments/knapen_AOT/AOT_stimuli/rescaled_final/1410_rv.mp4	0.0	179.88477683067322	
32	162.66392350196838	pulse	1	t		30.0	2.5	/experiments/knapen_AOT/AOT_stimuli/rescaled_final/1410_rv.mp4	0.0	181.48451375961304	
32	162.7826156616211	fix_post	2		12	30.0	2.5	/experiments/knapen_AOT/AOT_stimuli/rescaled_final/1410_rv.mp4	0.0	181.60320591926575	0.10001850128173828
33	162.88263416290283	fix_pre	0		120	31.0	2.5	/experiments/knapen_AOT/AOT_stimuli/rescaled_final/0735_rv.mp4	0.0	181.70322442054749	1.008502721786499
33	163.89113688468933	movie	1		271	31.0	2.5	/experiments/knapen_AOT/AOT_stimuli/rescaled_final/0735_rv.mp4	0.0	182.71172714233398	2.4920032024383545
33	164.25876545906067	pulse	1	t		31.0	2.5	/experiments/knapen_AOT/AOT_stimuli/rescaled_final/0735_rv.mp4	0.0	183.07935571670532	
33	165.8582625389099	pulse	1	t		31.0	2.5	/experiments/knapen_AOT/AOT_stimuli/rescaled_final/0735_rv.mp4	0.0	184.67885279655457	
33	166.38314008712769	fix_post	2		12	31.0	2.5	/experiments/knapen_AOT/AOT_stimuli/rescaled_final/0735_rv.mp4	0.0	185.20373034477234	0.10002493858337402
34	166.48316502571106	fix_pre	0		118	32.0	2.5	/experiments/knapen_AOT/AOT_stimuli/rescaled_final/0945_fw.mp4	0.0	185.3037552833557	0.9918828010559082
34	167.4585576057434	pulse	0	t		32.0	2.5	/experiments/knapen_AOT/AOT_stimuli/rescaled_final/0945_fw.mp4	0.0	186.27914786338806	
34	167.47504782676697	movie	1		283	32.0	2.5	/experiments/knapen_AOT/AOT_stimuli/rescaled_final/0945_fw.mp4	0.0	186.29563808441162	2.5005176067352295
34	169.0588812828064	pulse	1	t		32.0	2.5	/experiments/knapen_AOT/AOT_stimuli/rescaled_final/0945_fw.mp4	0.0	187.87947154045105	
34	169.9755654335022	fix_post	2		12	32.0	2.5	/experiments/knapen_AOT/AOT_stimuli/rescaled_final/0945_fw.mp4	0.0	188.79615569114685	0.09982538223266602
35	170.07539081573486	fix_pre	0		120	33.0	2.5	/experiments/knapen_AOT/AOT_stimuli/rescaled_final/2053_fw.mp4	0.0	188.89598107337952	1.0084943771362305
35	170.6590325832367	pulse	0	t		33.0	2.5	/experiments/knapen_AOT/AOT_stimuli/rescaled_final/2053_fw.mp4	0.0	189.47962284088135	
35	171.0838851928711	movie	1		283	33.0	2.5	/experiments/knapen_AOT/AOT_stimuli/rescaled_final/2053_fw.mp4	0.0	189.90447545051575	2.49200701713562
35	172.2592613697052	pulse	1	t		33.0	2.5	/experiments/knapen_AOT/AOT_stimuli/rescaled_final/2053_fw.mp4	0.0	191.07985162734985	
35	173.5758922100067	fix_post	2		12	33.0	2.5	/experiments/knapen_AOT/AOT_stimuli/rescaled_final/2053_fw.mp4	0.0	192.39648246765137	0.10013842582702637
36	173.67603063583374	fix_pre	0		120	34.0	2.5	blank	1.0	192.4966208934784	1.0000686645507812
36	173.85954928398132	pulse	0	t		34.0	2.5	blank	1.0	192.68013954162598	
36	174.67609930038452	movie	1		300	34.0	2.5	blank	1.0	193.49668955802917	2.5003671646118164
36	175.45972323417664	pulse	1	t		34.0	2.5	blank	1.0	194.2803134918213	
36	177.05999326705933	pulse	1	t		34.0	2.5	blank	1.0	195.88058352470398	
36	177.17646646499634	fix_post	2		12	34.0	2.5	blank	1.0	195.997056722641	0.10001921653747559
37	177.2764856815338	fix_pre	0		120	35.0	2.5	/experiments/knapen_AOT/AOT_stimuli/rescaled_final/0841_rv.mp4	0.0	196.09707593917847	1.0084505081176758
37	178.2849361896515	movie	1		279	35.0	2.5	/experiments/knapen_AOT/AOT_stimuli/rescaled_final/0841_rv.mp4	0.0	197.10552644729614	2.4920601844787598
37	178.66034364700317	pulse	1	t		35.0	2.5	/experiments/knapen_AOT/AOT_stimuli/rescaled_final/0841_rv.mp4	0.0	197.48093390464783	
37	180.26057243347168	pulse	1	t		35.0	2.5	/experiments/knapen_AOT/AOT_stimuli/rescaled_final/0841_rv.mp4	0.0	199.08116269111633	
37	180.77699637413025	fix_post	2		12	35.0	2.5	/experiments/knapen_AOT/AOT_stimuli/rescaled_final/0841_rv.mp4	0.0	199.5975866317749	0.10000324249267578
38	180.87699961662292	fix_pre	0		119	36.0	2.5	/experiments/knapen_AOT/AOT_stimuli/rescaled_final/1590_fw.mp4	0.0	199.69758987426758	1.0001931190490723
38	181.8607199192047	pulse	0	t		36.0	2.5	/experiments/knapen_AOT/AOT_stimuli/rescaled_final/1590_fw.mp4	0.0	200.68131017684937	
38	181.877192735672	movie	1		260	36.0	2.5	/experiments/knapen_AOT/AOT_stimuli/rescaled_final/1590_fw.mp4	0.0	200.69778299331665	2.500314474105835
38	183.4610812664032	pulse	1	t		36.0	2.5	/experiments/knapen_AOT/AOT_stimuli/rescaled_final/1590_fw.mp4	0.0	202.28167152404785	
38	184.37750720977783	fix_post	2		12	36.0	2.5	/experiments/knapen_AOT/AOT_stimuli/rescaled_final/1590_fw.mp4	0.0	203.19809746742249	0.10003304481506348
39	184.4775402545929	fix_pre	0		120	37.0	2.5	/experiments/knapen_AOT/AOT_stimuli/rescaled_final/0344_rv.mp4	0.0	203.29813051223755	1.0084881782531738
39	185.06179189682007	pulse	0	t		37.0	2.5	/experiments/knapen_AOT/AOT_stimuli/rescaled_final/0344_rv.mp4	0.0	203.88238215446472	
39	185.48602843284607	movie	1		282	37.0	2.5	/experiments/knapen_AOT/AOT_stimuli/rescaled_final/0344_rv.mp4	0.0	204.30661869049072	2.492033004760742
39	186.66181206703186	pulse	1	t		37.0	2.5	/experiments/knapen_AOT/AOT_stimuli/rescaled_final/0344_rv.mp4	0.0	205.4824023246765	
39	187.9780614376068	fix_post	2		12	37.0	2.5	/experiments/knapen_AOT/AOT_stimuli/rescaled_final/0344_rv.mp4	0.0	206.79865169525146	0.10007905960083008
40	188.07814049720764	fix_pre	0		120	38.0	2.5	/experiments/knapen_AOT/AOT_stimuli/rescaled_final/2069_fw.mp4	0.0	206.8987307548523	1.0084357261657715
40	188.26162815093994	pulse	0	t		38.0	2.5	/experiments/knapen_AOT/AOT_stimuli/rescaled_final/2069_fw.mp4	0.0	207.0822184085846	
40	189.0865762233734	movie	1		260	38.0	2.5	/experiments/knapen_AOT/AOT_stimuli/rescaled_final/2069_fw.mp4	0.0	207.90716648101807	2.4921715259552
40	189.86171317100525	pulse	1	t		38.0	2.5	/experiments/knapen_AOT/AOT_stimuli/rescaled_final/2069_fw.mp4	0.0	208.6823034286499	
40	191.4618217945099	pulse	1	t		38.0	2.5	/experiments/knapen_AOT/AOT_stimuli/rescaled_final/2069_fw.mp4	0.0	210.28241205215454	
40	191.5787477493286	fix_post	2		12	38.0	2.5	/experiments/knapen_AOT/AOT_stimuli/rescaled_final/2069_fw.mp4	0.0	210.39933800697327	0.09984183311462402
41	191.67858958244324	fix_pre	0		120	39.0	2.5	/experiments/knapen_AOT/AOT_stimuli/rescaled_final/0696_rv.mp4	0.0	210.4991798400879	1.008526086807251
41	192.6871156692505	movie	1		286	39.0	2.5	/experiments/knapen_AOT/AOT_stimuli/rescaled_final/0696_rv.mp4	0.0	211.50770592689514	2.492023468017578
41	193.06095123291016	pulse	1	t		39.0	2.5	/experiments/knapen_AOT/AOT_stimuli/rescaled_final/0696_rv.mp4	0.0	211.8815414905548	
41	194.66051745414734	pulse	1	t		39.0	2.5	/experiments/knapen_AOT/AOT_stimuli/rescaled_final/0696_rv.mp4	0.0	213.481107711792	
41	195.17913913726807	fix_post	2		12	39.0	2.5	/experiments/knapen_AOT/AOT_stimuli/rescaled_final/0696_rv.mp4	0.0	213.99972939491272	0.1000375747680664
42	195.27917671203613	fix_pre	0		119	40.0	2.5	blank	1.0	214.0997669696808	0.9918186664581299
42	196.26290798187256	pulse	0	t		40.0	2.5	blank	1.0	215.0834982395172	
42	196.27099537849426	movie	1		301	40.0	2.5	blank	1.0	215.09158563613892	2.5086820125579834
42	197.86306262016296	pulse	1	t		40.0	2.5	blank	1.0	216.68365287780762	
42	198.77967739105225	fix_post	2		12	40.0	2.5	blank	1.0	217.6002676486969	0.10002279281616211
43	198.8797001838684	fix_pre	0		120	41.0	2.5	/experiments/knapen_AOT/AOT_stimuli/rescaled_final/1485_rv.mp4	0.0	217.70029044151306	1.0084891319274902
43	199.46340155601501	pulse	0	t		41.0	2.5	/experiments/knapen_AOT/AOT_stimuli/rescaled_final/1485_rv.mp4	0.0	218.28399181365967	
43	199.8881893157959	movie	1		289	41.0	2.5	/experiments/knapen_AOT/AOT_stimuli/rescaled_final/1485_rv.mp4	0.0	218.70877957344055	2.4920287132263184
43	201.0618064403534	pulse	1	t		41.0	2.5	/experiments/knapen_AOT/AOT_stimuli/rescaled_final/1485_rv.mp4	0.0	219.88239669799805	
43	202.38021802902222	fix_post	2		12	41.0	2.5	/experiments/knapen_AOT/AOT_stimuli/rescaled_final/1485_rv.mp4	0.0	221.20080828666687	0.10002779960632324
44	202.48024582862854	fix_pre	0		120	42.0	2.5	/experiments/knapen_AOT/AOT_stimuli/rescaled_final/1052_rv.mp4	0.0	221.3008360862732	1.0084829330444336
44	202.66384053230286	pulse	0	t		42.0	2.5	/experiments/knapen_AOT/AOT_stimuli/rescaled_final/1052_rv.mp4	0.0	221.4844307899475	
44	203.48872876167297	movie	1		274	42.0	2.5	/experiments/knapen_AOT/AOT_stimuli/rescaled_final/1052_rv.mp4	0.0	222.30931901931763	2.492030382156372
44	204.2622208595276	pulse	1	t		42.0	2.5	/experiments/knapen_AOT/AOT_stimuli/rescaled_final/1052_rv.mp4	0.0	223.08281111717224	
44	205.86471962928772	pulse	1	t		42.0	2.5	/experiments/knapen_AOT/AOT_stimuli/rescaled_final/1052_rv.mp4	0.0	224.68530988693237	
44	205.98075914382935	fix_post	2		12	42.0	2.5	/experiments/knapen_AOT/AOT_stimuli/rescaled_final/1052_rv.mp4	0.0	224.801349401474	0.10006213188171387
45	206.08082127571106	fix_pre	0		120	43.0	2.5	/experiments/knapen_AOT/AOT_stimuli/rescaled_final/0101_rv.mp4	0.0	224.9014115333557	1.008472204208374
45	207.08929347991943	movie	1		278	43.0	2.5	/experiments/knapen_AOT/AOT_stimuli/rescaled_final/0101_rv.mp4	0.0	225.9098837375641	2.492220640182495
45	207.4640247821808	pulse	1	t		43.0	2.5	/experiments/knapen_AOT/AOT_stimuli/rescaled_final/0101_rv.mp4	0.0	226.28461503982544	
45	209.06322860717773	pulse	1	t		43.0	2.5	/experiments/knapen_AOT/AOT_stimuli/rescaled_final/0101_rv.mp4	0.0	227.8838188648224	
45	209.58151412010193	fix_post	2		12	43.0	2.5	/experiments/knapen_AOT/AOT_stimuli/rescaled_final/0101_rv.mp4	0.0	228.40210437774658	0.09981632232666016
46	209.6813304424286	fix_pre	0		119	44.0	2.5	/experiments/knapen_AOT/AOT_stimuli/rescaled_final/0974_fw.mp4	0.0	228.50192070007324	1.008512020111084
46	210.6652636528015	pulse	0	t		44.0	2.5	/experiments/knapen_AOT/AOT_stimuli/rescaled_final/0974_fw.mp4	0.0	229.48585391044617	
46	210.68984246253967	movie	1		282	44.0	2.5	/experiments/knapen_AOT/AOT_stimuli/rescaled_final/0974_fw.mp4	0.0	229.51043272018433	2.4920008182525635
46	212.26621627807617	pulse	1	t		44.0	2.5	/experiments/knapen_AOT/AOT_stimuli/rescaled_final/0974_fw.mp4	0.0	231.08680653572083	
46	213.18184328079224	fix_post	2		12	44.0	2.5	/experiments/knapen_AOT/AOT_stimuli/rescaled_final/0974_fw.mp4	0.0	232.0024335384369	0.10001659393310547
47	213.28185987472534	fix_pre	0		120	45.0	2.5	/experiments/knapen_AOT/AOT_stimuli/rescaled_final/0002_rv.mp4	0.0	232.10245013237	1.0085012912750244
47	213.86548900604248	pulse	0	t		45.0	2.5	/experiments/knapen_AOT/AOT_stimuli/rescaled_final/0002_rv.mp4	0.0	232.68607926368713	
47	214.29036116600037	movie	1		266	45.0	2.5	/experiments/knapen_AOT/AOT_stimuli/rescaled_final/0002_rv.mp4	0.0	233.11095142364502	2.492035150527954
47	215.46364879608154	pulse	1	t		45.0	2.5	/experiments/knapen_AOT/AOT_stimuli/rescaled_final/0002_rv.mp4	0.0	234.2842390537262	
47	216.78239631652832	fix_post	2		12	45.0	2.5	/experiments/knapen_AOT/AOT_stimuli/rescaled_final/0002_rv.mp4	0.0	235.60298657417297	0.10001516342163086
48	216.88241147994995	fix_pre	0		120	46.0	2.5	/experiments/knapen_AOT/AOT_stimuli/rescaled_final/2131_rv.mp4	0.0	235.7030017375946	1.0084850788116455
48	217.05859184265137	pulse	0	t		46.0	2.5	/experiments/knapen_AOT/AOT_stimuli/rescaled_final/2131_rv.mp4	0.0	235.87918210029602	
48	217.8908965587616	movie	1		272	46.0	2.5	/experiments/knapen_AOT/AOT_stimuli/rescaled_final/2131_rv.mp4	0.0	236.71148681640625	2.4921321868896484
48	218.66553711891174	pulse	1	t		46.0	2.5	/experiments/knapen_AOT/AOT_stimuli/rescaled_final/2131_rv.mp4	0.0	237.4861273765564	
48	220.2647750377655	pulse	1	t		46.0	2.5	/experiments/knapen_AOT/AOT_stimuli/rescaled_final/2131_rv.mp4	0.0	239.08536529541016	
48	220.38302874565125	fix_post	2		12	46.0	2.5	/experiments/knapen_AOT/AOT_stimuli/rescaled_final/2131_rv.mp4	0.0	239.2036190032959	0.09991669654846191
49	220.4829454421997	fix_pre	0		104	47.0	2.5	blank	1.0	239.30353569984436	1.0002000331878662
49	221.48314547538757	movie	1		300	47.0	2.5	blank	1.0	240.30373573303223	2.5003514289855957
49	221.85871362686157	pulse	1	t		47.0	2.5	blank	1.0	240.67930388450623	
49	223.4586730003357	pulse	1	t		47.0	2.5	blank	1.0	242.27926325798035	
49	223.98349690437317	fix_post	2		12	47.0	2.5	blank	1.0	242.80408716201782	0.10001873970031738
50	224.0835156440735	fix_pre	0		118	48.0	2.5	/experiments/knapen_AOT/AOT_stimuli/rescaled_final/1775_fw.mp4	0.0	242.90410590171814	0.991788387298584
50	225.05885314941406	pulse	0	t		48.0	2.5	/experiments/knapen_AOT/AOT_stimuli/rescaled_final/1775_fw.mp4	0.0	243.87944340705872	
50	225.07530403137207	movie	1		275	48.0	2.5	/experiments/knapen_AOT/AOT_stimuli/rescaled_final/1775_fw.mp4	0.0	243.89589428901672	2.5003838539123535
50	226.6587917804718	pulse	1	t		48.0	2.5	/experiments/knapen_AOT/AOT_stimuli/rescaled_final/1775_fw.mp4	0.0	245.47938203811646	
50	227.57568788528442	fix_post	2		12	48.0	2.5	/experiments/knapen_AOT/AOT_stimuli/rescaled_final/1775_fw.mp4	0.0	246.39627814292908	0.10005903244018555
51	227.6757469177246	fix_pre	0		120	49.0	2.5	/experiments/knapen_AOT/AOT_stimuli/rescaled_final/1516_fw.mp4	0.0	246.49633717536926	1.0084435939788818
51	228.25942063331604	pulse	0	t		49.0	2.5	/experiments/knapen_AOT/AOT_stimuli/rescaled_final/1516_fw.mp4	0.0	247.0800108909607	
51	228.6841905117035	movie	1		277	49.0	2.5	/experiments/knapen_AOT/AOT_stimuli/rescaled_final/1516_fw.mp4	0.0	247.50478076934814	2.4920248985290527
51	229.8595893383026	pulse	1	t		49.0	2.5	/experiments/knapen_AOT/AOT_stimuli/rescaled_final/1516_fw.mp4	0.0	248.68017959594727	
51	231.17621541023254	fix_post	2		12	49.0	2.5	/experiments/knapen_AOT/AOT_stimuli/rescaled_final/1516_fw.mp4	0.0	249.9968056678772	0.10000324249267578
52	231.27621865272522	fix_pre	0		120	50.0	2.5	/experiments/knapen_AOT/AOT_stimuli/rescaled_final/1310_fw.mp4	0.0	250.09680891036987	1.00848388671875
52	231.4599027633667	pulse	0	t		50.0	2.5	/experiments/knapen_AOT/AOT_stimuli/rescaled_final/1310_fw.mp4	0.0	250.28049302101135	
52	232.28470253944397	movie	1		271	50.0	2.5	/experiments/knapen_AOT/AOT_stimuli/rescaled_final/1310_fw.mp4	0.0	251.10529279708862	2.4921493530273438
52	233.05960631370544	pulse	1	t		50.0	2.5	/experiments/knapen_AOT/AOT_stimuli/rescaled_final/1310_fw.mp4	0.0	251.8801965713501	
52	234.66069269180298	pulse	1	t		50.0	2.5	/experiments/knapen_AOT/AOT_stimuli/rescaled_final/1310_fw.mp4	0.0	253.48128294944763	
52	234.7768518924713	fix_post	2		12	50.0	2.5	/experiments/knapen_AOT/AOT_stimuli/rescaled_final/1310_fw.mp4	0.0	253.59744215011597	0.09993624687194824
53	234.87678813934326	fix_pre	0		120	51.0	2.5	/experiments/knapen_AOT/AOT_stimuli/rescaled_final/1380_fw.mp4	0.0	253.69737839698792	1.0085020065307617
53	235.88529014587402	movie	1		256	51.0	2.5	/experiments/knapen_AOT/AOT_stimuli/rescaled_final/1380_fw.mp4	0.0	254.70588040351868	2.4920685291290283
53	236.25916743278503	pulse	1	t		51.0	2.5	/experiments/knapen_AOT/AOT_stimuli/rescaled_final/1380_fw.mp4	0.0	255.0797576904297	
53	237.85884475708008	pulse	1	t		51.0	2.5	/experiments/knapen_AOT/AOT_stimuli/rescaled_final/1380_fw.mp4	0.0	256.67943501472473	
53	238.37735867500305	fix_post	2		12	51.0	2.5	/experiments/knapen_AOT/AOT_stimuli/rescaled_final/1380_fw.mp4	0.0	257.1979489326477	0.0999598503112793
54	238.47731852531433	fix_pre	0		119	52.0	2.5	/experiments/knapen_AOT/AOT_stimuli/rescaled_final/1273_rv.mp4	0.0	257.297908782959	1.0002357959747314
54	239.46118998527527	pulse	0	t		52.0	2.5	/experiments/knapen_AOT/AOT_stimuli/rescaled_final/1273_rv.mp4	0.0	258.2817802429199	
54	239.47755432128906	movie	1		276	52.0	2.5	/experiments/knapen_AOT/AOT_stimuli/rescaled_final/1273_rv.mp4	0.0	258.2981445789337	2.500309467315674
54	241.06000781059265	pulse	1	t		52.0	2.5	/experiments/knapen_AOT/AOT_stimuli/rescaled_final/1273_rv.mp4	0.0	259.8805980682373	
54	241.97786378860474	fix_post	2		12	52.0	2.5	/experiments/knapen_AOT/AOT_stimuli/rescaled_final/1273_rv.mp4	0.0	260.7984540462494	0.10002779960632324
55	242.07789158821106	fix_pre	0		120	53.0	2.5	/experiments/knapen_AOT/AOT_stimuli/rescaled_final/1882_rv.mp4	0.0	260.8984818458557	1.0084521770477295
55	242.66153407096863	pulse	0	t		53.0	2.5	/experiments/knapen_AOT/AOT_stimuli/rescaled_final/1882_rv.mp4	0.0	261.4821243286133	
55	243.0863437652588	movie	1		272	53.0	2.5	/experiments/knapen_AOT/AOT_stimuli/rescaled_final/1882_rv.mp4	0.0	261.90693402290344	2.4921162128448486
55	244.26085257530212	pulse	1	t		53.0	2.5	/experiments/knapen_AOT/AOT_stimuli/rescaled_final/1882_rv.mp4	0.0	263.0814428329468	
55	245.57845997810364	fix_post	2		11	53.0	2.5	/experiments/knapen_AOT/AOT_stimuli/rescaled_final/1882_rv.mp4	0.0	264.3990502357483	0.09994745254516602
56	245.6784074306488	fix_pre	0		120	54.0	2.5	/experiments/knapen_AOT/AOT_stimuli/rescaled_final/0490_fw.mp4	0.0	264.49899768829346	1.0085489749908447
56	245.86234378814697	pulse	0	t		54.0	2.5	/experiments/knapen_AOT/AOT_stimuli/rescaled_final/0490_fw.mp4	0.0	264.6829340457916	
56	246.68695640563965	movie	1		287	54.0	2.5	/experiments/knapen_AOT/AOT_stimuli/rescaled_final/0490_fw.mp4	0.0	265.5075466632843	2.491959571838379
56	247.460143327713	pulse	1	t		54.0	2.5	/experiments/knapen_AOT/AOT_stimuli/rescaled_final/0490_fw.mp4	0.0	266.28073358535767	
56	249.0606713294983	pulse	1	t		54.0	2.5	/experiments/knapen_AOT/AOT_stimuli/rescaled_final/0490_fw.mp4	0.0	267.88126158714294	
56	249.17891597747803	fix_post	2		12	54.0	2.5	/experiments/knapen_AOT/AOT_stimuli/rescaled_final/0490_fw.mp4	0.0	267.9995062351227	0.10002541542053223
57	249.27894139289856	fix_pre	0		120	55.0	2.5	/experiments/knapen_AOT/AOT_stimuli/rescaled_final/1997_fw.mp4	0.0	268.0995316505432	1.008497714996338
57	250.2874391078949	movie	1		269	55.0	2.5	/experiments/knapen_AOT/AOT_stimuli/rescaled_final/1997_fw.mp4	0.0	269.10802936553955	2.492032051086426
57	250.6623306274414	pulse	1	t		55.0	2.5	/experiments/knapen_AOT/AOT_stimuli/rescaled_final/1997_fw.mp4	0.0	269.48292088508606	
57	252.26083493232727	pulse	1	t		55.0	2.5	/experiments/knapen_AOT/AOT_stimuli/rescaled_final/1997_fw.mp4	0.0	271.0814251899719	
57	252.77947115898132	fix_post	2		12	55.0	2.5	/experiments/knapen_AOT/AOT_stimuli/rescaled_final/1997_fw.mp4	0.0	271.600061416626	0.0999910831451416
58	252.87946224212646	fix_pre	0		119	56.0	2.5	blank	1.0	271.7000524997711	0.9918298721313477
58	253.8632197380066	pulse	0	t		56.0	2.5	blank	1.0	272.68380999565125	
58	253.8712921142578	movie	1		301	56.0	2.5	blank	1.0	272.69188237190247	2.508735418319702
58	255.46344542503357	pulse	1	t		56.0	2.5	blank	1.0	274.2840356826782	
58	256.3800275325775	fix_post	2		12	56.0	2.5	blank	1.0	275.20061779022217	0.0999917984008789
59	256.4800193309784	fix_pre	0		120	57.0	2.5	/experiments/knapen_AOT/AOT_stimuli/rescaled_final/2168_rv.mp4	0.0	275.30060958862305	1.0084869861602783
59	257.0636451244354	pulse	0	t		57.0	2.5	/experiments/knapen_AOT/AOT_stimuli/rescaled_final/2168_rv.mp4	0.0	275.8842353820801	
59	257.4885063171387	movie	1		277	57.0	2.5	/experiments/knapen_AOT/AOT_stimuli/rescaled_final/2168_rv.mp4	0.0	276.3090965747833	2.492055892944336
59	258.6622169017792	pulse	1	t		57.0	2.5	/experiments/knapen_AOT/AOT_stimuli/rescaled_final/2168_rv.mp4	0.0	277.4828071594238	
59	259.980562210083	fix_post	2		12	57.0	2.5	/experiments/knapen_AOT/AOT_stimuli/rescaled_final/2168_rv.mp4	0.0	278.80115246772766	0.10001206398010254
60	260.0805742740631	fix_pre	0		120	58.0	2.5	/experiments/knapen_AOT/AOT_stimuli/rescaled_final/0601_rv.mp4	0.0	278.90116453170776	1.008469581604004
60	260.26414608955383	pulse	0	t		58.0	2.5	/experiments/knapen_AOT/AOT_stimuli/rescaled_final/0601_rv.mp4	0.0	279.0847363471985	
60	261.0890438556671	movie	1		275	58.0	2.5	/experiments/knapen_AOT/AOT_stimuli/rescaled_final/0601_rv.mp4	0.0	279.90963411331177	2.492053270339966
60	261.8624963760376	pulse	1	t		58.0	2.5	/experiments/knapen_AOT/AOT_stimuli/rescaled_final/0601_rv.mp4	0.0	280.68308663368225	
60	263.462806224823	pulse	1	t		58.0	2.5	/experiments/knapen_AOT/AOT_stimuli/rescaled_final/0601_rv.mp4	0.0	282.28339648246765	
60	263.5810971260071	fix_post	2		12	58.0	2.5	/experiments/knapen_AOT/AOT_stimuli/rescaled_final/0601_rv.mp4	0.0	282.40168738365173	0.09999680519104004
61	263.6810939311981	fix_pre	0		120	59.0	2.5	/experiments/knapen_AOT/AOT_stimuli/rescaled_final/1322_rv.mp4	0.0	282.5016841888428	1.0085527896881104
61	264.68964672088623	movie	1		267	59.0	2.5	/experiments/knapen_AOT/AOT_stimuli/rescaled_final/1322_rv.mp4	0.0	283.5102369785309	2.492041826248169
61	265.0630667209625	pulse	1	t		59.0	2.5	/experiments/knapen_AOT/AOT_stimuli/rescaled_final/1322_rv.mp4	0.0	283.8836569786072	
61	266.6636745929718	pulse	1	t		59.0	2.5	/experiments/knapen_AOT/AOT_stimuli/rescaled_final/1322_rv.mp4	0.0	285.48426485061646	
61	267.1816885471344	fix_post	2		12	59.0	2.5	/experiments/knapen_AOT/AOT_stimuli/rescaled_final/1322_rv.mp4	0.0	286.00227880477905	0.09995865821838379
62	267.2816472053528	fix_pre	0		119	60.0	2.5	/experiments/knapen_AOT/AOT_stimuli/rescaled_final/1714_rv.mp4	0.0	286.10223746299744	1.0002007484436035
62	268.2582926750183	pulse	0	t		60.0	2.5	/experiments/knapen_AOT/AOT_stimuli/rescaled_final/1714_rv.mp4	0.0	287.07888293266296	
62	268.2818479537964	movie	1		281	60.0	2.5	/experiments/knapen_AOT/AOT_stimuli/rescaled_final/1714_rv.mp4	0.0	287.10243821144104	2.500345230102539
62	269.8650236129761	pulse	1	t		60.0	2.5	/experiments/knapen_AOT/AOT_stimuli/rescaled_final/1714_rv.mp4	0.0	288.6856138706207	
62	270.7821931838989	fix_post	2		12	60.0	2.5	/experiments/knapen_AOT/AOT_stimuli/rescaled_final/1714_rv.mp4	0.0	289.6027834415436	0.10008525848388672
63	270.8822784423828	fix_pre	0		120	61.0	2.5	/experiments/knapen_AOT/AOT_stimuli/rescaled_final/0735_fw.mp4	0.0	289.70286870002747	1.0083858966827393
63	271.4579691886902	pulse	0	t		61.0	2.5	/experiments/knapen_AOT/AOT_stimuli/rescaled_final/0735_fw.mp4	0.0	290.27855944633484	
63	271.89066433906555	movie	1		268	61.0	2.5	/experiments/knapen_AOT/AOT_stimuli/rescaled_final/0735_fw.mp4	0.0	290.7112545967102	2.492048501968384
63	273.058709859848	pulse	1	t		61.0	2.5	/experiments/knapen_AOT/AOT_stimuli/rescaled_final/0735_fw.mp4	0.0	291.8793001174927	
63	274.38271284103394	fix_post	2		12	61.0	2.5	/experiments/knapen_AOT/AOT_stimuli/rescaled_final/0735_fw.mp4	0.0	293.2033030986786	0.10001635551452637
64	274.48272919654846	fix_pre	0		120	62.0	2.5	blank	1.0	293.3033194541931	1.0001463890075684
64	274.6579794883728	pulse	0	t		62.0	2.5	blank	1.0	293.47856974601746	
64	275.48287558555603	movie	1		300	62.0	2.5	blank	1.0	294.3034658432007	2.5003907680511475
64	276.258198261261	pulse	1	t		62.0	2.5	blank	1.0	295.07878851890564	
64	277.85842776298523	pulse	1	t		62.0	2.5	blank	1.0	296.6790180206299	
64	277.9832663536072	fix_post	2		12	62.0	2.5	blank	1.0	296.80385661125183	0.10002326965332031
65	278.0832896232605	fix_pre	0		120	63.0	2.5	/experiments/knapen_AOT/AOT_stimuli/rescaled_final/2069_fw.mp4	0.0	296.90387988090515	1.0084645748138428
65	279.09175419807434	movie	1		277	63.0	2.5	/experiments/knapen_AOT/AOT_stimuli/rescaled_final/2069_fw.mp4	0.0	297.912344455719	2.4920356273651123
65	279.45874094963074	pulse	1	t		63.0	2.5	/experiments/knapen_AOT/AOT_stimuli/rescaled_final/2069_fw.mp4	0.0	298.2793312072754	
65	281.05898666381836	pulse	1	t		63.0	2.5	/experiments/knapen_AOT/AOT_stimuli/rescaled_final/2069_fw.mp4	0.0	299.879576921463	
65	281.58378982543945	fix_post	2		12	63.0	2.5	/experiments/knapen_AOT/AOT_stimuli/rescaled_final/2069_fw.mp4	0.0	300.4043800830841	0.10003232955932617
66	281.6838221549988	fix_pre	0		118	64.0	2.5	/experiments/knapen_AOT/AOT_stimuli/rescaled_final/1310_fw.mp4	0.0	300.50441241264343	0.9918255805969238
66	282.6592233181	pulse	0	t		64.0	2.5	/experiments/knapen_AOT/AOT_stimuli/rescaled_final/1310_fw.mp4	0.0	301.47981357574463	
66	282.6756477355957	movie	1		283	64.0	2.5	/experiments/knapen_AOT/AOT_stimuli/rescaled_final/1310_fw.mp4	0.0	301.49623799324036	2.5003509521484375
66	284.25817131996155	pulse	1	t		64.0	2.5	/experiments/knapen_AOT/AOT_stimuli/rescaled_final/1310_fw.mp4	0.0	303.0787615776062	
66	285.17599868774414	fix_post	2		12	64.0	2.5	/experiments/knapen_AOT/AOT_stimuli/rescaled_final/1310_fw.mp4	0.0	303.9965889453888	0.10003256797790527
67	285.27603125572205	fix_pre	0		120	65.0	2.5	/experiments/knapen_AOT/AOT_stimuli/rescaled_final/0489_rv.mp4	0.0	304.0966215133667	1.008479356765747
67	285.85967350006104	pulse	0	t		65.0	2.5	/experiments/knapen_AOT/AOT_stimuli/rescaled_final/0489_rv.mp4	0.0	304.6802637577057	
67	286.2845106124878	movie	1		282	65.0	2.5	/experiments/knapen_AOT/AOT_stimuli/rescaled_final/0489_rv.mp4	0.0	305.10510087013245	2.492055892944336
67	287.45811128616333	pulse	1	t		65.0	2.5	/experiments/knapen_AOT/AOT_stimuli/rescaled_final/0489_rv.mp4	0.0	306.278701543808	
67	288.77656650543213	fix_post	2		12	65.0	2.5	/experiments/knapen_AOT/AOT_stimuli/rescaled_final/0489_rv.mp4	0.0	307.5971567630768	0.09999752044677734
68	288.8765640258789	fix_pre	0		120	66.0	2.5	/experiments/knapen_AOT/AOT_stimuli/rescaled_final/1083_fw.mp4	0.0	307.69715428352356	1.0085225105285645
68	289.06014013290405	pulse	0	t		66.0	2.5	/experiments/knapen_AOT/AOT_stimuli/rescaled_final/1083_fw.mp4	0.0	307.8807303905487	
68	289.88508653640747	movie	1		276	66.0	2.5	/experiments/knapen_AOT/AOT_stimuli/rescaled_final/1083_fw.mp4	0.0	308.7056767940521	2.491986036300659
68	290.65840768814087	pulse	1	t		66.0	2.5	/experiments/knapen_AOT/AOT_stimuli/rescaled_final/1083_fw.mp4	0.0	309.4789979457855	
68	292.25869703292847	pulse	1	t		66.0	2.5	/experiments/knapen_AOT/AOT_stimuli/rescaled_final/1083_fw.mp4	0.0	311.0792872905731	
68	292.37707257270813	fix_post	2		12	66.0	2.5	/experiments/knapen_AOT/AOT_stimuli/rescaled_final/1083_fw.mp4	0.0	311.1976628303528	0.10004878044128418
69	292.4771213531494	fix_pre	0		120	67.0	2.5	/experiments/knapen_AOT/AOT_stimuli/rescaled_final/1458_rv.mp4	0.0	311.29771161079407	1.0084717273712158
69	293.48559308052063	movie	1		277	67.0	2.5	/experiments/knapen_AOT/AOT_stimuli/rescaled_final/1458_rv.mp4	0.0	312.3061833381653	2.4920506477355957
69	293.85932517051697	pulse	1	t		67.0	2.5	/experiments/knapen_AOT/AOT_stimuli/rescaled_final/1458_rv.mp4	0.0	312.6799154281616	
69	295.4591791629791	pulse	1	t		67.0	2.5	/experiments/knapen_AOT/AOT_stimuli/rescaled_final/1458_rv.mp4	0.0	314.2797694206238	
69	295.9776437282562	fix_post	2		12	67.0	2.5	/experiments/knapen_AOT/AOT_stimuli/rescaled_final/1458_rv.mp4	0.0	314.7982339859009	0.10007381439208984
70	296.0777175426483	fix_pre	0		119	68.0	2.5	blank	1.0	314.89830780029297	0.9917962551116943
70	297.061318397522	pulse	0	t		68.0	2.5	blank	1.0	315.8819086551666	
70	297.06951379776	movie	1		301	68.0	2.5	blank	1.0	315.89010405540466	2.508636474609375
70	298.6616299152374	pulse	1	t		68.0	2.5	blank	1.0	317.4822201728821	
70	299.5781502723694	fix_post	2		12	68.0	2.5	blank	1.0	318.39874053001404	0.10002517700195312
71	299.67817544937134	fix_pre	0		120	69.0	2.5	/experiments/knapen_AOT/AOT_stimuli/rescaled_final/0119_rv.mp4	0.0	318.498765707016	1.0084879398345947
71	300.2618703842163	pulse	0	t		69.0	2.5	/experiments/knapen_AOT/AOT_stimuli/rescaled_final/0119_rv.mp4	0.0	319.08246064186096	
71	300.68666338920593	movie	1		268	69.0	2.5	/experiments/knapen_AOT/AOT_stimuli/rescaled_final/0119_rv.mp4	0.0	319.5072536468506	2.4921228885650635
71	301.8611400127411	pulse	1	t		69.0	2.5	/experiments/knapen_AOT/AOT_stimuli/rescaled_final/0119_rv.mp4	0.0	320.68173027038574	
71	303.178786277771	fix_post	2		12	69.0	2.5	/experiments/knapen_AOT/AOT_stimuli/rescaled_final/0119_rv.mp4	0.0	321.99937653541565	0.09993791580200195
72	303.278724193573	fix_pre	0		120	70.0	2.5	/experiments/knapen_AOT/AOT_stimuli/rescaled_final/1616_fw.mp4	0.0	322.09931445121765	1.0084788799285889
72	303.4623191356659	pulse	0	t		70.0	2.5	/experiments/knapen_AOT/AOT_stimuli/rescaled_final/1616_fw.mp4	0.0	322.28290939331055	
72	304.2872030735016	movie	1		264	70.0	2.5	/experiments/knapen_AOT/AOT_stimuli/rescaled_final/1616_fw.mp4	0.0	323.10779333114624	2.492115020751953
72	305.0607089996338	pulse	1	t		70.0	2.5	/experiments/knapen_AOT/AOT_stimuli/rescaled_final/1616_fw.mp4	0.0	323.88129925727844	
72	306.66068863868713	pulse	1	t		70.0	2.5	/experiments/knapen_AOT/AOT_stimuli/rescaled_final/1616_fw.mp4	0.0	325.4812788963318	
72	306.77931809425354	fix_post	2		12	70.0	2.5	/experiments/knapen_AOT/AOT_stimuli/rescaled_final/1616_fw.mp4	0.0	325.5999083518982	0.0999288558959961
73	306.87924695014954	fix_pre	0		120	71.0	2.5	/experiments/knapen_AOT/AOT_stimuli/rescaled_final/1842_fw.mp4	0.0	325.6998372077942	1.0084750652313232
73	307.88772201538086	movie	1		283	71.0	2.5	/experiments/knapen_AOT/AOT_stimuli/rescaled_final/1842_fw.mp4	0.0	326.7083122730255	2.4922235012054443
73	308.2621474266052	pulse	1	t		71.0	2.5	/experiments/knapen_AOT/AOT_stimuli/rescaled_final/1842_fw.mp4	0.0	327.0827376842499	
73	309.8614628314972	pulse	1	t		71.0	2.5	/experiments/knapen_AOT/AOT_stimuli/rescaled_final/1842_fw.mp4	0.0	328.68205308914185	
73	310.3799455165863	fix_post	2		12	71.0	2.5	/experiments/knapen_AOT/AOT_stimuli/rescaled_final/1842_fw.mp4	0.0	329.20053577423096	0.09986472129821777
74	310.4798102378845	fix_pre	0		119	72.0	2.5	/experiments/knapen_AOT/AOT_stimuli/rescaled_final/0031_fw.mp4	0.0	329.3004004955292	1.0001780986785889
74	311.4635879993439	pulse	0	t		72.0	2.5	/experiments/knapen_AOT/AOT_stimuli/rescaled_final/0031_fw.mp4	0.0	330.2841782569885	
74	311.4799883365631	movie	1		276	72.0	2.5	/experiments/knapen_AOT/AOT_stimuli/rescaled_final/0031_fw.mp4	0.0	330.30057859420776	2.5003364086151123
74	313.06249141693115	pulse	1	t		72.0	2.5	/experiments/knapen_AOT/AOT_stimuli/rescaled_final/0031_fw.mp4	0.0	331.8830816745758	
74	313.9803247451782	fix_post	2		12	72.0	2.5	/experiments/knapen_AOT/AOT_stimuli/rescaled_final/0031_fw.mp4	0.0	332.8009150028229	0.10008049011230469
75	314.0804052352905	fix_pre	0		120	73.0	2.5	/experiments/knapen_AOT/AOT_stimuli/rescaled_final/1187_rv.mp4	0.0	332.9009954929352	1.008448839187622
75	314.6640565395355	pulse	0	t		73.0	2.5	/experiments/knapen_AOT/AOT_stimuli/rescaled_final/1187_rv.mp4	0.0	333.4846467971802	
75	315.08885407447815	movie	1		278	73.0	2.5	/experiments/knapen_AOT/AOT_stimuli/rescaled_final/1187_rv.mp4	0.0	333.9094443321228	2.4920425415039062
75	316.2631981372833	pulse	1	t		73.0	2.5	/experiments/knapen_AOT/AOT_stimuli/rescaled_final/1187_rv.mp4	0.0	335.083788394928	
75	317.58089661598206	fix_post	2		12	73.0	2.5	/experiments/knapen_AOT/AOT_stimuli/rescaled_final/1187_rv.mp4	0.0	336.4014868736267	0.10007381439208984
76	317.68097043037415	fix_pre	0		120	74.0	2.5	/experiments/knapen_AOT/AOT_stimuli/rescaled_final/2142_rv.mp4	0.0	336.5015606880188	1.0084164142608643
76	317.86450695991516	pulse	0	t		74.0	2.5	/experiments/knapen_AOT/AOT_stimuli/rescaled_final/2142_rv.mp4	0.0	336.6850972175598	
76	318.689386844635	movie	1		271	74.0	2.5	/experiments/knapen_AOT/AOT_stimuli/rescaled_final/2142_rv.mp4	0.0	337.50997710227966	2.4920129776000977
76	319.46242570877075	pulse	1	t		74.0	2.5	/experiments/knapen_AOT/AOT_stimuli/rescaled_final/2142_rv.mp4	0.0	338.2830159664154	
76	321.06289529800415	pulse	1	t		74.0	2.5	/experiments/knapen_AOT/AOT_stimuli/rescaled_final/2142_rv.mp4	0.0	339.8834855556488	
76	321.1813998222351	fix_post	2		12	74.0	2.5	/experiments/knapen_AOT/AOT_stimuli/rescaled_final/2142_rv.mp4	0.0	340.00199007987976	0.10007238388061523
77	321.2814722061157	fix_pre	0		120	75.0	2.5	/experiments/knapen_AOT/AOT_stimuli/rescaled_final/2069_rv.mp4	0.0	340.1020624637604	1.0084307193756104
77	322.28990292549133	movie	1		271	75.0	2.5	/experiments/knapen_AOT/AOT_stimuli/rescaled_final/2069_rv.mp4	0.0	341.110493183136	2.4920730590820312
77	322.663720369339	pulse	1	t		75.0	2.5	/experiments/knapen_AOT/AOT_stimuli/rescaled_final/2069_rv.mp4	0.0	341.48431062698364	
77	324.26449036598206	pulse	1	t		75.0	2.5	/experiments/knapen_AOT/AOT_stimuli/rescaled_final/2069_rv.mp4	0.0	343.0850806236267	
77	324.78197598457336	fix_post	2		12	75.0	2.5	/experiments/knapen_AOT/AOT_stimuli/rescaled_final/2069_rv.mp4	0.0	343.602566242218	0.09999608993530273
78	324.88197207450867	fix_pre	0		119	76.0	2.5	/experiments/knapen_AOT/AOT_stimuli/rescaled_final/0280_rv.mp4	0.0	343.7025623321533	1.0002257823944092
78	325.8661162853241	pulse	0	t		76.0	2.5	/experiments/knapen_AOT/AOT_stimuli/rescaled_final/0280_rv.mp4	0.0	344.68670654296875	
78	325.8821978569031	movie	1		273	76.0	2.5	/experiments/knapen_AOT/AOT_stimuli/rescaled_final/0280_rv.mp4	0.0	344.70278811454773	2.5002968311309814
78	327.4643909931183	pulse	1	t		76.0	2.5	/experiments/knapen_AOT/AOT_stimuli/rescaled_final/0280_rv.mp4	0.0	346.28498125076294	
78	328.38249468803406	fix_post	2		12	76.0	2.5	/experiments/knapen_AOT/AOT_stimuli/rescaled_final/0280_rv.mp4	0.0	347.2030849456787	0.10001850128173828
79	328.4825131893158	fix_pre	0		120	77.0	2.5	blank	1.0	347.30310344696045	1.0001356601715088
79	329.0585083961487	pulse	0	t		77.0	2.5	blank	1.0	347.87909865379333	
79	329.4826488494873	movie	1		300	77.0	2.5	blank	1.0	348.30323910713196	2.5004098415374756
79	330.65875816345215	pulse	1	t		77.0	2.5	blank	1.0	349.4793484210968	
79	331.9830586910248	fix_post	2		12	77.0	2.5	blank	1.0	350.80364894866943	0.0999748706817627
80	332.08303356170654	fix_pre	0		120	78.0	2.5	/experiments/knapen_AOT/AOT_stimuli/rescaled_final/0315_rv.mp4	0.0	350.9036238193512	1.0085084438323975
80	332.25848507881165	pulse	0	t		78.0	2.5	/experiments/knapen_AOT/AOT_stimuli/rescaled_final/0315_rv.mp4	0.0	351.0790753364563	
80	333.09154200553894	movie	1		284	78.0	2.5	/experiments/knapen_AOT/AOT_stimuli/rescaled_final/0315_rv.mp4	0.0	351.9121322631836	2.492029905319214
80	333.86705589294434	pulse	1	t		78.0	2.5	/experiments/knapen_AOT/AOT_stimuli/rescaled_final/0315_rv.mp4	0.0	352.687646150589	
80	335.4587528705597	pulse	1	t		78.0	2.5	/experiments/knapen_AOT/AOT_stimuli/rescaled_final/0315_rv.mp4	0.0	354.27934312820435	
80	335.58357191085815	fix_post	2		12	78.0	2.5	/experiments/knapen_AOT/AOT_stimuli/rescaled_final/0315_rv.mp4	0.0	354.4041621685028	0.10002803802490234
81	335.68359994888306	fix_pre	0		120	79.0	2.5	/experiments/knapen_AOT/AOT_stimuli/rescaled_final/0057_fw.mp4	0.0	354.5041902065277	1.0084798336029053
81	336.69207978248596	movie	1		283	79.0	2.5	/experiments/knapen_AOT/AOT_stimuli/rescaled_final/0057_fw.mp4	0.0	355.5126700401306	2.4920284748077393
81	337.0583300590515	pulse	1	t		79.0	2.5	/experiments/knapen_AOT/AOT_stimuli/rescaled_final/0057_fw.mp4	0.0	355.87892031669617	
81	338.65993213653564	pulse	1	t		79.0	2.5	/experiments/knapen_AOT/AOT_stimuli/rescaled_final/0057_fw.mp4	0.0	357.4805223941803	
81	339.1841082572937	fix_post	2		12	79.0	2.5	/experiments/knapen_AOT/AOT_stimuli/rescaled_final/0057_fw.mp4	0.0	358.00469851493835	0.10001659393310547
82	339.2841248512268	fix_pre	0		118	80.0	2.5	/experiments/knapen_AOT/AOT_stimuli/rescaled_final/0637_fw.mp4	0.0	358.10471510887146	0.9918317794799805
82	340.2597818374634	pulse	0	t		80.0	2.5	/experiments/knapen_AOT/AOT_stimuli/rescaled_final/0637_fw.mp4	0.0	359.08037209510803	
82	340.2759566307068	movie	1		278	80.0	2.5	/experiments/knapen_AOT/AOT_stimuli/rescaled_final/0637_fw.mp4	0.0	359.09654688835144	2.500370979309082
82	341.8595838546753	pulse	1	t		80.0	2.5	/experiments/knapen_AOT/AOT_stimuli/rescaled_final/0637_fw.mp4	0.0	360.68017411231995	
82	342.77632761001587	fix_post	2		12	80.0	2.5	/experiments/knapen_AOT/AOT_stimuli/rescaled_final/0637_fw.mp4	0.0	361.5969178676605	0.10002279281616211
83	342.87635040283203	fix_pre	0		120	81.0	2.5	/experiments/knapen_AOT/AOT_stimuli/rescaled_final/0276_rv.mp4	0.0	361.6969406604767	1.0085511207580566
83	343.45997738838196	pulse	0	t		81.0	2.5	/experiments/knapen_AOT/AOT_stimuli/rescaled_final/0276_rv.mp4	0.0	362.2805676460266	
83	343.8849015235901	movie	1		281	81.0	2.5	/experiments/knapen_AOT/AOT_stimuli/rescaled_final/0276_rv.mp4	0.0	362.70549178123474	2.491962432861328
83	345.0602881908417	pulse	1	t		81.0	2.5	/experiments/knapen_AOT/AOT_stimuli/rescaled_final/0276_rv.mp4	0.0	363.8808784484863	
83	346.3768639564514	fix_post	2		12	81.0	2.5	/experiments/knapen_AOT/AOT_stimuli/rescaled_final/0276_rv.mp4	0.0	365.19745421409607	0.10015058517456055
84	346.477014541626	fix_pre	0		120	82.0	2.5	/experiments/knapen_AOT/AOT_stimuli/rescaled_final/1616_fw.mp4	0.0	365.29760479927063	1.0083818435668945
84	346.6605956554413	pulse	0	t		82.0	2.5	/experiments/knapen_AOT/AOT_stimuli/rescaled_final/1616_fw.mp4	0.0	365.48118591308594	
84	347.48539638519287	movie	1		267	82.0	2.5	/experiments/knapen_AOT/AOT_stimuli/rescaled_final/1616_fw.mp4	0.0	366.3059866428375	2.4920098781585693
84	348.2612829208374	pulse	1	t		82.0	2.5	/experiments/knapen_AOT/AOT_stimuli/rescaled_final/1616_fw.mp4	0.0	367.08187317848206	
84	349.85905861854553	pulse	1	t		82.0	2.5	/experiments/knapen_AOT/AOT_stimuli/rescaled_final/1616_fw.mp4	0.0	368.6796488761902	
84	349.97740626335144	fix_post	2		12	82.0	2.5	/experiments/knapen_AOT/AOT_stimuli/rescaled_final/1616_fw.mp4	0.0	368.7979965209961	0.1000528335571289
85	350.07745909690857	fix_pre	0		120	83.0	2.5	blank	1.0	368.8980493545532	1.0000958442687988
85	351.07755494117737	movie	1		300	83.0	2.5	blank	1.0	369.898145198822	2.500378370285034
85	351.4613208770752	pulse	1	t		83.0	2.5	blank	1.0	370.28191113471985	
85	353.061518907547	pulse	1	t		83.0	2.5	blank	1.0	371.88210916519165	
85	353.5779333114624	fix_post	2		12	83.0	2.5	blank	1.0	372.39852356910706	0.10003542900085449
87	353.67796874046326	stim	0		1715					372.4985589981079	14.293792724609375
87	354.6617805957794	pulse	0	t						373.4823708534241	
87	356.26191997528076	pulse	0	t						375.0825102329254	
87	357.8621096611023	pulse	0	t						376.68269991874695	
87	359.46247601509094	pulse	0	t						378.2830662727356	
87	361.0626587867737	pulse	0	t						379.88324904441833	
87	362.6628928184509	pulse	0	t						381.4834830760956	
87	364.26304817199707	pulse	0	t						383.0836384296417	
87	365.86331009864807	pulse	0	t						384.6839003562927	
87	367.46358609199524	pulse	0	t						386.2841763496399	
