trial_nr	onset	event_type	phase	response	nr_frames	movie_index	movie_duration	movie_file	blank	onset_abs	duration
0	0.15837597846984863	stim	0		85					23.12446689605713	0.7087540626525879
0	0.8583710193634033	response	0	space						23.824461936950684	
1	0.8671300411224365	stim	0		13118					23.833220958709717	109.32386708259583
1	110.17878198623657	pulse	0	t						133.14487290382385	
1	110.19099712371826	stim	1		1716					133.15708804130554	14.3004469871521
1	111.77449107170105	pulse	1	t						134.74058198928833	
1	113.37444710731506	pulse	1	t						136.34053802490234	
1	114.97551393508911	pulse	1	t						137.9416048526764	
1	116.57517409324646	pulse	1	t						139.54126501083374	
1	118.17452907562256	pulse	1	t						141.14061999320984	
1	119.77456998825073	pulse	1	t						142.740660905838	
1	121.37442207336426	pulse	1	t						144.34051299095154	
1	122.97445511817932	pulse	1	t						145.9405460357666	
2	124.49144411087036	fix_pre	0		11	0.0	2.5	/experiments/AOT/AOT_stimuli/rescaled_final/1562_rv.mp4	0.0	147.45753502845764	0.0912618637084961
2	124.57448410987854	pulse	0	t		0.0	2.5	/experiments/AOT/AOT_stimuli/rescaled_final/1562_rv.mp4	0.0	147.54057502746582	
2	124.58270597457886	movie	1		242	0.0	2.5	/experiments/AOT/AOT_stimuli/rescaled_final/1562_rv.mp4	0.0	147.54879689216614	2.508803129196167
2	126.17436003684998	pulse	1	t		0.0	2.5	/experiments/AOT/AOT_stimuli/rescaled_final/1562_rv.mp4	0.0	149.14045095443726	
2	127.09150910377502	fix_post	2		12	0.0	2.5	/experiments/AOT/AOT_stimuli/rescaled_final/1562_rv.mp4	0.0	150.0576000213623	0.09943103790283203
3	127.19094014167786	fix_pre	0		120	1.0	2.5	/experiments/AOT/AOT_stimuli/rescaled_final/1335_rv.mp4	0.0	150.15703105926514	0.9999969005584717
3	127.77446007728577	pulse	0	t		1.0	2.5	/experiments/AOT/AOT_stimuli/rescaled_final/1335_rv.mp4	0.0	150.74055099487305	
3	128.19093704223633	movie	1		243	1.0	2.5	/experiments/AOT/AOT_stimuli/rescaled_final/1335_rv.mp4	0.0	151.1570279598236	2.5000360012054443
3	129.37455105781555	pulse	1	t		1.0	2.5	/experiments/AOT/AOT_stimuli/rescaled_final/1335_rv.mp4	0.0	152.34064197540283	
3	130.69097304344177	fix_post	2		12	1.0	2.5	/experiments/AOT/AOT_stimuli/rescaled_final/1335_rv.mp4	0.0	153.65706396102905	0.0998830795288086
4	130.79085612297058	fix_pre	0		120	2.0	2.5	/experiments/AOT/AOT_stimuli/rescaled_final/0811_rv.mp4	0.0	153.75694704055786	1.00003981590271
4	130.9743571281433	pulse	0	t		2.0	2.5	/experiments/AOT/AOT_stimuli/rescaled_final/0811_rv.mp4	0.0	153.9404480457306	
4	131.7908959388733	movie	1		243	2.0	2.5	/experiments/AOT/AOT_stimuli/rescaled_final/0811_rv.mp4	0.0	154.75698685646057	2.500430107116699
4	132.57472610473633	pulse	1	t		2.0	2.5	/experiments/AOT/AOT_stimuli/rescaled_final/0811_rv.mp4	0.0	155.5408170223236	
4	134.18321204185486	pulse	1	t		2.0	2.5	/experiments/AOT/AOT_stimuli/rescaled_final/0811_rv.mp4	0.0	157.14930295944214	
4	134.29132604599	fix_post	2		12	2.0	2.5	/experiments/AOT/AOT_stimuli/rescaled_final/0811_rv.mp4	0.0	157.25741696357727	0.0999760627746582
5	134.39130210876465	fix_pre	0		120	3.0	2.5	/experiments/AOT/AOT_stimuli/rescaled_final/1764_fw.mp4	0.0	157.35739302635193	0.9995908737182617
5	135.3908929824829	movie	1		244	3.0	2.5	/experiments/AOT/AOT_stimuli/rescaled_final/1764_fw.mp4	0.0	158.3569839000702	2.500307083129883
5	135.78269696235657	pulse	1	t		3.0	2.5	/experiments/AOT/AOT_stimuli/rescaled_final/1764_fw.mp4	0.0	158.74878787994385	
5	137.3743851184845	pulse	1	t		3.0	2.5	/experiments/AOT/AOT_stimuli/rescaled_final/1764_fw.mp4	0.0	160.34047603607178	
5	137.8912000656128	fix_post	2		12	3.0	2.5	/experiments/AOT/AOT_stimuli/rescaled_final/1764_fw.mp4	0.0	160.85729098320007	0.10001206398010254
6	137.9912121295929	fix_pre	0		119	4.0	2.5	/experiments/AOT/AOT_stimuli/rescaled_final/0412_fw.mp4	0.0	160.95730304718018	0.9912388324737549
6	138.9748089313507	pulse	0	t		4.0	2.5	/experiments/AOT/AOT_stimuli/rescaled_final/0412_fw.mp4	0.0	161.940899848938	
6	138.98245096206665	movie	1		244	4.0	2.5	/experiments/AOT/AOT_stimuli/rescaled_final/0412_fw.mp4	0.0	161.94854187965393	2.5088510513305664
6	140.57502794265747	pulse	1	t		4.0	2.5	/experiments/AOT/AOT_stimuli/rescaled_final/0412_fw.mp4	0.0	163.54111886024475	
6	141.49130201339722	fix_post	2		12	4.0	2.5	/experiments/AOT/AOT_stimuli/rescaled_final/0412_fw.mp4	0.0	164.4573929309845	0.09951496124267578
7	141.5908169746399	fix_pre	0		120	5.0	2.5	/experiments/AOT/AOT_stimuli/rescaled_final/0847_fw.mp4	0.0	164.55690789222717	0.9999990463256836
7	142.17424702644348	pulse	0	t		5.0	2.5	/experiments/AOT/AOT_stimuli/rescaled_final/0847_fw.mp4	0.0	165.14033794403076	
7	142.59081602096558	movie	1		244	5.0	2.5	/experiments/AOT/AOT_stimuli/rescaled_final/0847_fw.mp4	0.0	165.55690693855286	2.5
7	143.77478504180908	pulse	1	t		5.0	2.5	/experiments/AOT/AOT_stimuli/rescaled_final/0847_fw.mp4	0.0	166.74087595939636	
7	145.09081602096558	fix_post	2		12	5.0	2.5	/experiments/AOT/AOT_stimuli/rescaled_final/0847_fw.mp4	0.0	168.05690693855286	0.10003399848937988
8	145.19085001945496	fix_pre	0		120	6.0	2.5	blank	1.0	168.15694093704224	1.0000090599060059
8	145.37466192245483	pulse	0	t		6.0	2.5	blank	1.0	168.34075284004211	
8	146.19085907936096	movie	1		300	6.0	2.5	blank	1.0	169.15694999694824	2.500354051589966
8	146.97436714172363	pulse	1	t		6.0	2.5	blank	1.0	169.9404580593109	
8	148.57490706443787	pulse	1	t		6.0	2.5	blank	1.0	171.54099798202515	
8	148.69121313095093	fix_post	2		12	6.0	2.5	blank	1.0	171.6573040485382	0.10002279281616211
9	148.7912359237671	fix_pre	0		120	7.0	2.5	/experiments/AOT/AOT_stimuli/rescaled_final/1812_fw.mp4	0.0	171.75732684135437	0.999521017074585
9	149.79075694084167	movie	1		243	7.0	2.5	/experiments/AOT/AOT_stimuli/rescaled_final/1812_fw.mp4	0.0	172.75684785842896	2.500434160232544
9	150.18308210372925	pulse	1	t		7.0	2.5	/experiments/AOT/AOT_stimuli/rescaled_final/1812_fw.mp4	0.0	173.14917302131653	
9	151.77425003051758	pulse	1	t		7.0	2.5	/experiments/AOT/AOT_stimuli/rescaled_final/1812_fw.mp4	0.0	174.74034094810486	
9	152.29119110107422	fix_post	2		12	7.0	2.5	/experiments/AOT/AOT_stimuli/rescaled_final/1812_fw.mp4	0.0	175.2572820186615	0.0999908447265625
10	152.39118194580078	fix_pre	0		119	8.0	2.5	/experiments/AOT/AOT_stimuli/rescaled_final/1289_fw.mp4	0.0	175.35727286338806	0.9916820526123047
10	153.37472701072693	pulse	0	t		8.0	2.5	/experiments/AOT/AOT_stimuli/rescaled_final/1289_fw.mp4	0.0	176.3408179283142	
10	153.3828639984131	movie	1		244	8.0	2.5	/experiments/AOT/AOT_stimuli/rescaled_final/1289_fw.mp4	0.0	176.34895491600037	2.508294105529785
10	154.9740960597992	pulse	1	t		8.0	2.5	/experiments/AOT/AOT_stimuli/rescaled_final/1289_fw.mp4	0.0	177.94018697738647	
10	155.89115810394287	fix_post	2		12	8.0	2.5	/experiments/AOT/AOT_stimuli/rescaled_final/1289_fw.mp4	0.0	178.85724902153015	0.09958004951477051
11	155.99073815345764	fix_pre	0		120	9.0	2.5	/experiments/AOT/AOT_stimuli/rescaled_final/0418_fw.mp4	0.0	178.95682907104492	1.0000989437103271
11	156.5743579864502	pulse	0	t		9.0	2.5	/experiments/AOT/AOT_stimuli/rescaled_final/0418_fw.mp4	0.0	179.54044890403748	
11	156.99083709716797	movie	1		244	9.0	2.5	/experiments/AOT/AOT_stimuli/rescaled_final/0418_fw.mp4	0.0	179.95692801475525	2.5003390312194824
11	158.17495203018188	pulse	1	t		9.0	2.5	/experiments/AOT/AOT_stimuli/rescaled_final/0418_fw.mp4	0.0	181.14104294776917	
11	159.49117612838745	fix_post	2		12	9.0	2.5	/experiments/AOT/AOT_stimuli/rescaled_final/0418_fw.mp4	0.0	182.45726704597473	0.09956598281860352
12	159.59074211120605	fix_pre	0		120	10.0	2.5	/experiments/AOT/AOT_stimuli/rescaled_final/0440_fw.mp4	0.0	182.55683302879333	0.9999330043792725
12	159.77421307563782	pulse	0	t		10.0	2.5	/experiments/AOT/AOT_stimuli/rescaled_final/0440_fw.mp4	0.0	182.7403039932251	
12	160.59067511558533	movie	1		243	10.0	2.5	/experiments/AOT/AOT_stimuli/rescaled_final/0440_fw.mp4	0.0	183.5567660331726	2.50036883354187
12	161.37414598464966	pulse	1	t		10.0	2.5	/experiments/AOT/AOT_stimuli/rescaled_final/0440_fw.mp4	0.0	184.34023690223694	
12	162.9746789932251	pulse	1	t		10.0	2.5	/experiments/AOT/AOT_stimuli/rescaled_final/0440_fw.mp4	0.0	185.94076991081238	
12	163.0910439491272	fix_post	2		12	10.0	2.5	/experiments/AOT/AOT_stimuli/rescaled_final/0440_fw.mp4	0.0	186.05713486671448	0.10039710998535156
13	163.19144105911255	fix_pre	0		120	11.0	2.5	/experiments/AOT/AOT_stimuli/rescaled_final/1247_fw.mp4	0.0	186.15753197669983	0.9993109703063965
13	164.19075202941895	movie	1		243	11.0	2.5	/experiments/AOT/AOT_stimuli/rescaled_final/1247_fw.mp4	0.0	187.15684294700623	2.5004329681396484
13	164.57528805732727	pulse	1	t		11.0	2.5	/experiments/AOT/AOT_stimuli/rescaled_final/1247_fw.mp4	0.0	187.54137897491455	
13	166.17420601844788	pulse	1	t		11.0	2.5	/experiments/AOT/AOT_stimuli/rescaled_final/1247_fw.mp4	0.0	189.14029693603516	
13	166.6911849975586	fix_post	2		12	11.0	2.5	/experiments/AOT/AOT_stimuli/rescaled_final/1247_fw.mp4	0.0	189.65727591514587	0.0995781421661377
14	166.79076313972473	fix_pre	0		120	12.0	2.5	blank	1.0	189.756854057312	0.9999299049377441
14	167.77496099472046	pulse	0	t		12.0	2.5	blank	1.0	190.74105191230774	
14	167.79069304466248	movie	1		301	12.0	2.5	blank	1.0	190.75678396224976	2.508254051208496
14	169.37410712242126	pulse	1	t		12.0	2.5	blank	1.0	192.34019804000854	
14	170.29894709587097	fix_post	2		12	12.0	2.5	blank	1.0	193.26503801345825	0.09999489784240723
15	170.39894199371338	fix_pre	0		120	13.0	2.5	/experiments/AOT/AOT_stimuli/rescaled_final/1972_rv.mp4	0.0	193.36503291130066	1.0001299381256104
15	170.97414898872375	pulse	0	t		13.0	2.5	/experiments/AOT/AOT_stimuli/rescaled_final/1972_rv.mp4	0.0	193.94023990631104	
15	171.399071931839	movie	1		244	13.0	2.5	/experiments/AOT/AOT_stimuli/rescaled_final/1972_rv.mp4	0.0	194.36516284942627	2.500373125076294
15	172.57425713539124	pulse	1	t		13.0	2.5	/experiments/AOT/AOT_stimuli/rescaled_final/1972_rv.mp4	0.0	195.54034805297852	
15	173.89944505691528	fix_post	2		12	13.0	2.5	/experiments/AOT/AOT_stimuli/rescaled_final/1972_rv.mp4	0.0	196.86553597450256	0.09997296333312988
16	173.9994180202484	fix_pre	0		120	14.0	2.5	/experiments/AOT/AOT_stimuli/rescaled_final/1953_fw.mp4	0.0	196.9655089378357	1.0000019073486328
16	174.17465901374817	pulse	0	t		14.0	2.5	/experiments/AOT/AOT_stimuli/rescaled_final/1953_fw.mp4	0.0	197.14074993133545	
16	174.99941992759705	movie	1		241	14.0	2.5	/experiments/AOT/AOT_stimuli/rescaled_final/1953_fw.mp4	0.0	197.96551084518433	2.499552011489868
16	175.77412104606628	pulse	1	t		14.0	2.5	/experiments/AOT/AOT_stimuli/rescaled_final/1953_fw.mp4	0.0	198.74021196365356	
16	177.3741099834442	pulse	1	t		14.0	2.5	/experiments/AOT/AOT_stimuli/rescaled_final/1953_fw.mp4	0.0	200.3402009010315	
16	177.4989719390869	fix_post	2		12	14.0	2.5	/experiments/AOT/AOT_stimuli/rescaled_final/1953_fw.mp4	0.0	200.4650628566742	0.10058903694152832
17	177.59956097602844	fix_pre	0		120	15.0	2.5	/experiments/AOT/AOT_stimuli/rescaled_final/1289_rv.mp4	0.0	200.56565189361572	0.9994289875030518
17	178.5989899635315	movie	1		243	15.0	2.5	/experiments/AOT/AOT_stimuli/rescaled_final/1289_rv.mp4	0.0	201.56508088111877	2.5003201961517334
17	178.97452402114868	pulse	1	t		15.0	2.5	/experiments/AOT/AOT_stimuli/rescaled_final/1289_rv.mp4	0.0	201.94061493873596	
17	180.57550692558289	pulse	1	t		15.0	2.5	/experiments/AOT/AOT_stimuli/rescaled_final/1289_rv.mp4	0.0	203.54159784317017	
17	181.09931015968323	fix_post	2		12	15.0	2.5	/experiments/AOT/AOT_stimuli/rescaled_final/1289_rv.mp4	0.0	204.0654010772705	0.09968996047973633
18	181.19900012016296	fix_pre	0		118	16.0	2.5	/experiments/AOT/AOT_stimuli/rescaled_final/0305_fw.mp4	0.0	204.16509103775024	0.983292818069458
18	182.17413115501404	pulse	0	t		16.0	2.5	/experiments/AOT/AOT_stimuli/rescaled_final/0305_fw.mp4	0.0	205.14022207260132	
18	182.18229293823242	movie	1		244	16.0	2.5	/experiments/AOT/AOT_stimuli/rescaled_final/0305_fw.mp4	0.0	205.1483838558197	2.5083072185516357
18	183.7745931148529	pulse	1	t		16.0	2.5	/experiments/AOT/AOT_stimuli/rescaled_final/0305_fw.mp4	0.0	206.74068403244019	
18	184.69060015678406	fix_post	2		12	16.0	2.5	/experiments/AOT/AOT_stimuli/rescaled_final/0305_fw.mp4	0.0	207.65669107437134	0.10061383247375488
19	184.7912139892578	fix_pre	0		120	17.0	2.5	/experiments/AOT/AOT_stimuli/rescaled_final/1678_fw.mp4	0.0	207.7573049068451	0.9998750686645508
19	185.37407112121582	pulse	0	t		17.0	2.5	/experiments/AOT/AOT_stimuli/rescaled_final/1678_fw.mp4	0.0	208.3401620388031	
19	185.79108905792236	movie	1		242	17.0	2.5	/experiments/AOT/AOT_stimuli/rescaled_final/1678_fw.mp4	0.0	208.75717997550964	2.499980926513672
19	186.9741129875183	pulse	1	t		17.0	2.5	/experiments/AOT/AOT_stimuli/rescaled_final/1678_fw.mp4	0.0	209.9402039051056	
19	188.29106998443604	fix_post	2		12	17.0	2.5	/experiments/AOT/AOT_stimuli/rescaled_final/1678_fw.mp4	0.0	211.25716090202332	0.0999140739440918
20	188.39098405838013	fix_pre	0		120	18.0	2.5	/experiments/AOT/AOT_stimuli/rescaled_final/1480_fw.mp4	0.0	211.3570749759674	1.0000250339508057
20	188.5744490623474	pulse	0	t		18.0	2.5	/experiments/AOT/AOT_stimuli/rescaled_final/1480_fw.mp4	0.0	211.5405399799347	
20	189.39100909233093	movie	1		242	18.0	2.5	/experiments/AOT/AOT_stimuli/rescaled_final/1480_fw.mp4	0.0	212.3571000099182	2.5002219676971436
20	190.17408394813538	pulse	1	t		18.0	2.5	/experiments/AOT/AOT_stimuli/rescaled_final/1480_fw.mp4	0.0	213.14017486572266	
20	191.78258204460144	pulse	1	t		18.0	2.5	/experiments/AOT/AOT_stimuli/rescaled_final/1480_fw.mp4	0.0	214.74867296218872	
20	191.89123106002808	fix_post	2		12	18.0	2.5	/experiments/AOT/AOT_stimuli/rescaled_final/1480_fw.mp4	0.0	214.85732197761536	0.0997159481048584
21	191.99094700813293	fix_pre	0		120	19.0	2.5	blank	1.0	214.95703792572021	0.9999799728393555
21	192.9909269809723	movie	1		300	19.0	2.5	blank	1.0	215.95701789855957	2.499652147293091
21	193.37398505210876	pulse	1	t		19.0	2.5	blank	1.0	216.34007596969604	
21	194.97473096847534	pulse	1	t		19.0	2.5	blank	1.0	217.94082188606262	
21	195.49057912826538	fix_post	2		12	19.0	2.5	blank	1.0	218.45667004585266	0.09998798370361328
22	195.590567111969	fix_pre	0		120	20.0	2.5	/experiments/AOT/AOT_stimuli/rescaled_final/1411_rv.mp4	0.0	218.55665802955627	1.0003910064697266
22	196.57510113716125	pulse	0	t		20.0	2.5	/experiments/AOT/AOT_stimuli/rescaled_final/1411_rv.mp4	0.0	219.54119205474854	
22	196.59095811843872	movie	1		244	20.0	2.5	/experiments/AOT/AOT_stimuli/rescaled_final/1411_rv.mp4	0.0	219.557049036026	2.5082709789276123
22	198.18209600448608	pulse	1	t		20.0	2.5	/experiments/AOT/AOT_stimuli/rescaled_final/1411_rv.mp4	0.0	221.14818692207336	
22	199.09922909736633	fix_post	2		12	20.0	2.5	/experiments/AOT/AOT_stimuli/rescaled_final/1411_rv.mp4	0.0	222.0653200149536	0.09969687461853027
23	199.19892597198486	fix_pre	0		120	21.0	2.5	/experiments/AOT/AOT_stimuli/rescaled_final/2152_rv.mp4	0.0	222.16501688957214	1.0004100799560547
23	199.77479600906372	pulse	0	t		21.0	2.5	/experiments/AOT/AOT_stimuli/rescaled_final/2152_rv.mp4	0.0	222.740886926651	
23	200.19933605194092	movie	1		242	21.0	2.5	/experiments/AOT/AOT_stimuli/rescaled_final/2152_rv.mp4	0.0	223.1654269695282	2.4994289875030518
23	201.3741409778595	pulse	1	t		21.0	2.5	/experiments/AOT/AOT_stimuli/rescaled_final/2152_rv.mp4	0.0	224.34023189544678	
23	202.69876503944397	fix_post	2		12	21.0	2.5	/experiments/AOT/AOT_stimuli/rescaled_final/2152_rv.mp4	0.0	225.66485595703125	0.10021305084228516
24	202.79897809028625	fix_pre	0		120	22.0	2.5	/experiments/AOT/AOT_stimuli/rescaled_final/1643_fw.mp4	0.0	225.76506900787354	0.9999089241027832
24	202.97396612167358	pulse	0	t		22.0	2.5	/experiments/AOT/AOT_stimuli/rescaled_final/1643_fw.mp4	0.0	225.94005703926086	
24	203.79888701438904	movie	1		243	22.0	2.5	/experiments/AOT/AOT_stimuli/rescaled_final/1643_fw.mp4	0.0	226.76497793197632	2.5001299381256104
24	204.57394313812256	pulse	1	t		22.0	2.5	/experiments/AOT/AOT_stimuli/rescaled_final/1643_fw.mp4	0.0	227.54003405570984	
24	206.17455196380615	pulse	1	t		22.0	2.5	/experiments/AOT/AOT_stimuli/rescaled_final/1643_fw.mp4	0.0	229.14064288139343	
24	206.29901695251465	fix_post	2		12	22.0	2.5	/experiments/AOT/AOT_stimuli/rescaled_final/1643_fw.mp4	0.0	229.26510787010193	0.10021519660949707
25	206.39923214912415	fix_pre	0		120	23.0	2.5	/experiments/AOT/AOT_stimuli/rescaled_final/1416_fw.mp4	0.0	229.36532306671143	0.9999909400939941
25	207.39922308921814	movie	1		244	23.0	2.5	/experiments/AOT/AOT_stimuli/rescaled_final/1416_fw.mp4	0.0	230.36531400680542	2.4995548725128174
25	207.7743899822235	pulse	1	t		23.0	2.5	/experiments/AOT/AOT_stimuli/rescaled_final/1416_fw.mp4	0.0	230.7404808998108	
25	209.37392902374268	pulse	1	t		23.0	2.5	/experiments/AOT/AOT_stimuli/rescaled_final/1416_fw.mp4	0.0	232.34001994132996	
25	209.89877796173096	fix_post	2		12	23.0	2.5	/experiments/AOT/AOT_stimuli/rescaled_final/1416_fw.mp4	0.0	232.86486887931824	0.10053610801696777
26	209.99931406974792	fix_pre	0		119	24.0	2.5	/experiments/AOT/AOT_stimuli/rescaled_final/0328_rv.mp4	0.0	232.9654049873352	0.9915480613708496
26	210.97493600845337	pulse	0	t		24.0	2.5	/experiments/AOT/AOT_stimuli/rescaled_final/0328_rv.mp4	0.0	233.94102692604065	
26	210.99086213111877	movie	1		245	24.0	2.5	/experiments/AOT/AOT_stimuli/rescaled_final/0328_rv.mp4	0.0	233.95695304870605	2.5071868896484375
26	212.5811891555786	pulse	1	t		24.0	2.5	/experiments/AOT/AOT_stimuli/rescaled_final/0328_rv.mp4	0.0	235.5472800731659	
26	213.4980490207672	fix_post	2		12	24.0	2.5	/experiments/AOT/AOT_stimuli/rescaled_final/0328_rv.mp4	0.0	236.4641399383545	0.10130596160888672
27	213.5993549823761	fix_pre	0		120	25.0	2.5	/experiments/AOT/AOT_stimuli/rescaled_final/0164_rv.mp4	0.0	236.56544589996338	1.0001740455627441
27	214.174574136734	pulse	0	t		25.0	2.5	/experiments/AOT/AOT_stimuli/rescaled_final/0164_rv.mp4	0.0	237.1406650543213	
27	214.59952902793884	movie	1		243	25.0	2.5	/experiments/AOT/AOT_stimuli/rescaled_final/0164_rv.mp4	0.0	237.56561994552612	2.4996418952941895
27	215.78279995918274	pulse	1	t		25.0	2.5	/experiments/AOT/AOT_stimuli/rescaled_final/0164_rv.mp4	0.0	238.74889087677002	
27	217.09917092323303	fix_post	2		12	25.0	2.5	/experiments/AOT/AOT_stimuli/rescaled_final/0164_rv.mp4	0.0	240.0652618408203	0.10006213188171387
28	217.19923305511475	fix_pre	0		120	26.0	2.5	/experiments/AOT/AOT_stimuli/rescaled_final/1194_fw.mp4	0.0	240.16532397270203	0.999608039855957
28	217.37431502342224	pulse	0	t		26.0	2.5	/experiments/AOT/AOT_stimuli/rescaled_final/1194_fw.mp4	0.0	240.34040594100952	
28	218.1988410949707	movie	1		248	26.0	2.5	/experiments/AOT/AOT_stimuli/rescaled_final/1194_fw.mp4	0.0	241.16493201255798	2.4990060329437256
28	218.9739351272583	pulse	1	t		26.0	2.5	/experiments/AOT/AOT_stimuli/rescaled_final/1194_fw.mp4	0.0	241.94002604484558	
28	220.57409000396729	pulse	1	t		26.0	2.5	/experiments/AOT/AOT_stimuli/rescaled_final/1194_fw.mp4	0.0	243.54018092155457	
28	220.69784712791443	fix_post	2		12	26.0	2.5	/experiments/AOT/AOT_stimuli/rescaled_final/1194_fw.mp4	0.0	243.6639380455017	0.10023784637451172
29	220.79808497428894	fix_pre	0		120	27.0	2.5	/experiments/AOT/AOT_stimuli/rescaled_final/1596_rv.mp4	0.0	243.76417589187622	1.0010950565338135
29	221.79918003082275	movie	1		244	27.0	2.5	/experiments/AOT/AOT_stimuli/rescaled_final/1596_rv.mp4	0.0	244.76527094841003	2.4990599155426025
29	222.18170595169067	pulse	1	t		27.0	2.5	/experiments/AOT/AOT_stimuli/rescaled_final/1596_rv.mp4	0.0	245.14779686927795	
29	223.7736940383911	pulse	1	t		27.0	2.5	/experiments/AOT/AOT_stimuli/rescaled_final/1596_rv.mp4	0.0	246.7397849559784	
29	224.29823994636536	fix_post	2		12	27.0	2.5	/experiments/AOT/AOT_stimuli/rescaled_final/1596_rv.mp4	0.0	247.26433086395264	0.09957313537597656
30	224.39781308174133	fix_pre	0		119	28.0	2.5	blank	1.0	247.3639039993286	0.9917030334472656
30	225.3739800453186	pulse	0	t		28.0	2.5	blank	1.0	248.34007096290588	
30	225.3895161151886	movie	1		301	28.0	2.5	blank	1.0	248.35560703277588	2.5082578659057617
30	226.98170399665833	pulse	1	t		28.0	2.5	blank	1.0	249.9477949142456	
30	227.89777398109436	fix_post	2		12	28.0	2.5	blank	1.0	250.86386489868164	0.10011696815490723
31	227.99789094924927	fix_pre	0		120	29.0	2.5	/experiments/AOT/AOT_stimuli/rescaled_final/0962_fw.mp4	0.0	250.96398186683655	0.9998791217803955
31	228.58130502700806	pulse	0	t		29.0	2.5	/experiments/AOT/AOT_stimuli/rescaled_final/0962_fw.mp4	0.0	251.54739594459534	
31	228.99777007102966	movie	1		247	29.0	2.5	/experiments/AOT/AOT_stimuli/rescaled_final/0962_fw.mp4	0.0	251.96386098861694	2.4999730587005615
31	230.18102502822876	pulse	1	t		29.0	2.5	/experiments/AOT/AOT_stimuli/rescaled_final/0962_fw.mp4	0.0	253.14711594581604	
31	231.49774312973022	fix_post	2		12	29.0	2.5	/experiments/AOT/AOT_stimuli/rescaled_final/0962_fw.mp4	0.0	254.4638340473175	0.1004478931427002
32	231.59819102287292	fix_pre	0		120	30.0	2.5	/experiments/AOT/AOT_stimuli/rescaled_final/1568_rv.mp4	0.0	254.5642819404602	1.0000309944152832
32	231.77420496940613	pulse	0	t		30.0	2.5	/experiments/AOT/AOT_stimuli/rescaled_final/1568_rv.mp4	0.0	254.7402958869934	
32	232.5982220172882	movie	1		243	30.0	2.5	/experiments/AOT/AOT_stimuli/rescaled_final/1568_rv.mp4	0.0	255.5643129348755	2.499575138092041
32	233.3813190460205	pulse	1	t		30.0	2.5	/experiments/AOT/AOT_stimuli/rescaled_final/1568_rv.mp4	0.0	256.3474099636078	
32	234.98201513290405	pulse	1	t		30.0	2.5	/experiments/AOT/AOT_stimuli/rescaled_final/1568_rv.mp4	0.0	257.94810605049133	
32	235.09779715538025	fix_post	2		12	30.0	2.5	/experiments/AOT/AOT_stimuli/rescaled_final/1568_rv.mp4	0.0	258.06388807296753	0.1004798412322998
33	235.19827699661255	fix_pre	0		120	31.0	2.5	/experiments/AOT/AOT_stimuli/rescaled_final/1479_rv.mp4	0.0	258.16436791419983	0.9996860027313232
33	236.19796299934387	movie	1		244	31.0	2.5	/experiments/AOT/AOT_stimuli/rescaled_final/1479_rv.mp4	0.0	259.16405391693115	2.499856948852539
33	236.5816421508789	pulse	1	t		31.0	2.5	/experiments/AOT/AOT_stimuli/rescaled_final/1479_rv.mp4	0.0	259.5477330684662	
33	238.18079805374146	pulse	1	t		31.0	2.5	/experiments/AOT/AOT_stimuli/rescaled_final/1479_rv.mp4	0.0	261.14688897132874	
33	238.6978199481964	fix_post	2		12	31.0	2.5	/experiments/AOT/AOT_stimuli/rescaled_final/1479_rv.mp4	0.0	261.6639108657837	0.10001707077026367
34	238.79783701896667	fix_pre	0		119	32.0	2.5	/experiments/AOT/AOT_stimuli/rescaled_final/0867_rv.mp4	0.0	261.76392793655396	0.9917049407958984
34	239.78172302246094	pulse	0	t		32.0	2.5	/experiments/AOT/AOT_stimuli/rescaled_final/0867_rv.mp4	0.0	262.7478139400482	
34	239.78954195976257	movie	1		247	32.0	2.5	/experiments/AOT/AOT_stimuli/rescaled_final/0867_rv.mp4	0.0	262.75563287734985	2.5086050033569336
34	241.38138914108276	pulse	1	t		32.0	2.5	/experiments/AOT/AOT_stimuli/rescaled_final/0867_rv.mp4	0.0	264.34748005867004	
34	242.2981469631195	fix_post	2		12	32.0	2.5	/experiments/AOT/AOT_stimuli/rescaled_final/0867_rv.mp4	0.0	265.2642378807068	0.09908509254455566
35	242.39723205566406	fix_pre	0		120	33.0	2.5	/experiments/AOT/AOT_stimuli/rescaled_final/1416_rv.mp4	0.0	265.36332297325134	1.0000479221343994
35	242.98073506355286	pulse	0	t		33.0	2.5	/experiments/AOT/AOT_stimuli/rescaled_final/1416_rv.mp4	0.0	265.94682598114014	
35	243.39727997779846	movie	1		244	33.0	2.5	/experiments/AOT/AOT_stimuli/rescaled_final/1416_rv.mp4	0.0	266.36337089538574	2.4999959468841553
35	244.58087611198425	pulse	1	t		33.0	2.5	/experiments/AOT/AOT_stimuli/rescaled_final/1416_rv.mp4	0.0	267.54696702957153	
35	245.89727592468262	fix_post	2		12	33.0	2.5	/experiments/AOT/AOT_stimuli/rescaled_final/1416_rv.mp4	0.0	268.8633668422699	0.09995913505554199
36	245.99723505973816	fix_pre	0		120	34.0	2.5	/experiments/AOT/AOT_stimuli/rescaled_final/0232_rv.mp4	0.0	268.96332597732544	1.000046968460083
36	246.18075513839722	pulse	0	t		34.0	2.5	/experiments/AOT/AOT_stimuli/rescaled_final/0232_rv.mp4	0.0	269.1468460559845	
36	246.99728202819824	movie	1		244	34.0	2.5	/experiments/AOT/AOT_stimuli/rescaled_final/0232_rv.mp4	0.0	269.9633729457855	2.4999630451202393
36	247.78072905540466	pulse	1	t		34.0	2.5	/experiments/AOT/AOT_stimuli/rescaled_final/0232_rv.mp4	0.0	270.74681997299194	
36	249.37953400611877	pulse	1	t		34.0	2.5	/experiments/AOT/AOT_stimuli/rescaled_final/0232_rv.mp4	0.0	272.34562492370605	
36	249.49724507331848	fix_post	2		12	34.0	2.5	/experiments/AOT/AOT_stimuli/rescaled_final/0232_rv.mp4	0.0	272.46333599090576	0.10078597068786621
37	249.59803104400635	fix_pre	0		120	35.0	2.5	blank	1.0	272.5641219615936	0.9991390705108643
37	250.5971701145172	movie	1		300	35.0	2.5	blank	1.0	273.5632610321045	2.5008459091186523
37	250.98080396652222	pulse	1	t		35.0	2.5	blank	1.0	273.9468948841095	
37	252.58067512512207	pulse	1	t		35.0	2.5	blank	1.0	275.54676604270935	
37	253.09801602363586	fix_post	2		12	35.0	2.5	blank	1.0	276.06410694122314	0.10033512115478516
38	253.19835114479065	fix_pre	0		119	36.0	2.5	/experiments/AOT/AOT_stimuli/rescaled_final/1560_fw.mp4	0.0	276.16444206237793	0.9904649257659912
38	254.17407298088074	pulse	0	t		36.0	2.5	/experiments/AOT/AOT_stimuli/rescaled_final/1560_fw.mp4	0.0	277.140163898468	
38	254.18881607055664	movie	1		247	36.0	2.5	/experiments/AOT/AOT_stimuli/rescaled_final/1560_fw.mp4	0.0	277.1549069881439	2.5083649158477783
38	255.7818751335144	pulse	1	t		36.0	2.5	/experiments/AOT/AOT_stimuli/rescaled_final/1560_fw.mp4	0.0	278.7479660511017	
38	256.6971809864044	fix_post	2		12	36.0	2.5	/experiments/AOT/AOT_stimuli/rescaled_final/1560_fw.mp4	0.0	279.6632719039917	0.10081315040588379
39	256.7979941368103	fix_pre	0		120	37.0	2.5	/experiments/AOT/AOT_stimuli/rescaled_final/1607_fw.mp4	0.0	279.7640850543976	0.9991588592529297
39	257.3814949989319	pulse	0	t		37.0	2.5	/experiments/AOT/AOT_stimuli/rescaled_final/1607_fw.mp4	0.0	280.34758591651917	
39	257.79715299606323	movie	1		245	37.0	2.5	/experiments/AOT/AOT_stimuli/rescaled_final/1607_fw.mp4	0.0	280.7632439136505	2.5008561611175537
39	258.98073506355286	pulse	1	t		37.0	2.5	/experiments/AOT/AOT_stimuli/rescaled_final/1607_fw.mp4	0.0	281.94682598114014	
39	260.2980091571808	fix_post	2		12	37.0	2.5	/experiments/AOT/AOT_stimuli/rescaled_final/1607_fw.mp4	0.0	283.26410007476807	0.10008597373962402
40	260.3980951309204	fix_pre	0		120	38.0	2.5	/experiments/AOT/AOT_stimuli/rescaled_final/1568_fw.mp4	0.0	283.3641860485077	1.0002408027648926
40	260.5816550254822	pulse	0	t		38.0	2.5	/experiments/AOT/AOT_stimuli/rescaled_final/1568_fw.mp4	0.0	283.54774594306946	
40	261.3983359336853	movie	1		244	38.0	2.5	/experiments/AOT/AOT_stimuli/rescaled_final/1568_fw.mp4	0.0	284.3644268512726	2.498840093612671
40	262.18090415000916	pulse	1	t		38.0	2.5	/experiments/AOT/AOT_stimuli/rescaled_final/1568_fw.mp4	0.0	285.14699506759644	
40	263.77783703804016	pulse	1	t		38.0	2.5	/experiments/AOT/AOT_stimuli/rescaled_final/1568_fw.mp4	0.0	286.74392795562744	
40	263.897176027298	fix_post	2		12	38.0	2.5	/experiments/AOT/AOT_stimuli/rescaled_final/1568_fw.mp4	0.0	286.86326694488525	0.10002398490905762
41	263.99720001220703	fix_pre	0		120	39.0	2.5	/experiments/AOT/AOT_stimuli/rescaled_final/0262_fw.mp4	0.0	286.9632909297943	0.9999489784240723
41	264.9971489906311	movie	1		248	39.0	2.5	/experiments/AOT/AOT_stimuli/rescaled_final/0262_fw.mp4	0.0	287.9632399082184	2.500897169113159
41	265.38112211227417	pulse	1	t		39.0	2.5	/experiments/AOT/AOT_stimuli/rescaled_final/0262_fw.mp4	0.0	288.34721302986145	
41	266.98060393333435	pulse	1	t		39.0	2.5	/experiments/AOT/AOT_stimuli/rescaled_final/0262_fw.mp4	0.0	289.94669485092163	
41	267.49804615974426	fix_post	2		12	39.0	2.5	/experiments/AOT/AOT_stimuli/rescaled_final/0262_fw.mp4	0.0	290.46413707733154	0.09914088249206543
42	267.5971870422363	fix_pre	0		119	40.0	2.5	/experiments/AOT/AOT_stimuli/rescaled_final/0477_rv.mp4	0.0	290.5632779598236	0.991657018661499
42	268.5807189941406	pulse	0	t		40.0	2.5	/experiments/AOT/AOT_stimuli/rescaled_final/0477_rv.mp4	0.0	291.5468099117279	
42	268.5888440608978	movie	1		245	40.0	2.5	/experiments/AOT/AOT_stimuli/rescaled_final/0477_rv.mp4	0.0	291.5549349784851	2.5083189010620117
42	270.1816680431366	pulse	1	t		40.0	2.5	/experiments/AOT/AOT_stimuli/rescaled_final/0477_rv.mp4	0.0	293.1477589607239	
42	271.09716296195984	fix_post	2		12	40.0	2.5	/experiments/AOT/AOT_stimuli/rescaled_final/0477_rv.mp4	0.0	294.0632538795471	0.09996914863586426
43	271.1971321105957	fix_pre	0		120	41.0	2.5	/experiments/AOT/AOT_stimuli/rescaled_final/1707_rv.mp4	0.0	294.163223028183	1.000885009765625
43	271.7805690765381	pulse	0	t		41.0	2.5	/experiments/AOT/AOT_stimuli/rescaled_final/1707_rv.mp4	0.0	294.74665999412537	
43	272.1980171203613	movie	1		244	41.0	2.5	/experiments/AOT/AOT_stimuli/rescaled_final/1707_rv.mp4	0.0	295.1641080379486	2.5000200271606445
43	273.3806800842285	pulse	1	t		41.0	2.5	/experiments/AOT/AOT_stimuli/rescaled_final/1707_rv.mp4	0.0	296.3467710018158	
43	274.698037147522	fix_post	2		12	41.0	2.5	/experiments/AOT/AOT_stimuli/rescaled_final/1707_rv.mp4	0.0	297.66412806510925	0.09916281700134277
44	274.7971999645233	fix_pre	0		120	42.0	2.5	blank	1.0	297.7632908821106	0.9999620914459229
44	274.9807059764862	pulse	0	t		42.0	2.5	blank	1.0	297.9467968940735	
44	275.79716205596924	movie	1		300	42.0	2.5	blank	1.0	298.7632529735565	2.4999330043792725
44	276.5805389881134	pulse	1	t		42.0	2.5	blank	1.0	299.5466299057007	
44	278.1805591583252	pulse	1	t		42.0	2.5	blank	1.0	301.1466500759125	
44	278.2970950603485	fix_post	2		12	42.0	2.5	blank	1.0	301.2631859779358	0.1000070571899414
45	278.39710211753845	fix_pre	0		120	43.0	2.5	/experiments/AOT/AOT_stimuli/rescaled_final/0755_rv.mp4	0.0	301.36319303512573	1.0008978843688965
45	279.39800000190735	movie	1		244	43.0	2.5	/experiments/AOT/AOT_stimuli/rescaled_final/0755_rv.mp4	0.0	302.36409091949463	2.5004689693450928
45	279.7804009914398	pulse	1	t		43.0	2.5	/experiments/AOT/AOT_stimuli/rescaled_final/0755_rv.mp4	0.0	302.7464919090271	
45	281.37416410446167	pulse	1	t		43.0	2.5	/experiments/AOT/AOT_stimuli/rescaled_final/0755_rv.mp4	0.0	304.34025502204895	
45	281.89846897125244	fix_post	2		12	43.0	2.5	/experiments/AOT/AOT_stimuli/rescaled_final/0755_rv.mp4	0.0	304.8645598888397	0.1004800796508789
46	281.9989490509033	fix_pre	0		119	44.0	2.5	/experiments/AOT/AOT_stimuli/rescaled_final/0508_fw.mp4	0.0	304.9650399684906	0.9915890693664551
46	282.97456908226013	pulse	0	t		44.0	2.5	/experiments/AOT/AOT_stimuli/rescaled_final/0508_fw.mp4	0.0	305.9406599998474	
46	282.9905381202698	movie	1		247	44.0	2.5	/experiments/AOT/AOT_stimuli/rescaled_final/0508_fw.mp4	0.0	305.95662903785706	2.5083048343658447
46	284.58192205429077	pulse	1	t		44.0	2.5	/experiments/AOT/AOT_stimuli/rescaled_final/0508_fw.mp4	0.0	307.54801297187805	
46	285.4988429546356	fix_post	2		12	44.0	2.5	/experiments/AOT/AOT_stimuli/rescaled_final/0508_fw.mp4	0.0	308.4649338722229	0.10004305839538574
47	285.598886013031	fix_pre	0		120	45.0	2.5	/experiments/AOT/AOT_stimuli/rescaled_final/0291_rv.mp4	0.0	308.5649769306183	1.0001640319824219
47	286.17435693740845	pulse	0	t		45.0	2.5	/experiments/AOT/AOT_stimuli/rescaled_final/0291_rv.mp4	0.0	309.1404478549957	
47	286.5990500450134	movie	1		245	45.0	2.5	/experiments/AOT/AOT_stimuli/rescaled_final/0291_rv.mp4	0.0	309.5651409626007	2.4993889331817627
47	287.78245210647583	pulse	1	t		45.0	2.5	/experiments/AOT/AOT_stimuli/rescaled_final/0291_rv.mp4	0.0	310.7485430240631	
47	289.0984389781952	fix_post	2		12	45.0	2.5	/experiments/AOT/AOT_stimuli/rescaled_final/0291_rv.mp4	0.0	312.06452989578247	0.1004190444946289
48	289.1988580226898	fix_pre	0		120	46.0	2.5	/experiments/AOT/AOT_stimuli/rescaled_final/0465_fw.mp4	0.0	312.1649489402771	0.9999411106109619
48	289.3739399909973	pulse	0	t		46.0	2.5	/experiments/AOT/AOT_stimuli/rescaled_final/0465_fw.mp4	0.0	312.3400309085846	
48	290.1987991333008	movie	1		243	46.0	2.5	/experiments/AOT/AOT_stimuli/rescaled_final/0465_fw.mp4	0.0	313.16489005088806	2.5000689029693604
48	290.9818711280823	pulse	1	t		46.0	2.5	/experiments/AOT/AOT_stimuli/rescaled_final/0465_fw.mp4	0.0	313.94796204566956	
48	292.58113408088684	pulse	1	t		46.0	2.5	/experiments/AOT/AOT_stimuli/rescaled_final/0465_fw.mp4	0.0	315.5472249984741	
48	292.69886803627014	fix_post	2		12	46.0	2.5	/experiments/AOT/AOT_stimuli/rescaled_final/0465_fw.mp4	0.0	315.6649589538574	0.09990406036376953
49	292.7987720966339	fix_pre	0		120	47.0	2.5	/experiments/AOT/AOT_stimuli/rescaled_final/0147_rv.mp4	0.0	315.7648630142212	0.9995918273925781
49	293.7983639240265	movie	1		244	47.0	2.5	/experiments/AOT/AOT_stimuli/rescaled_final/0147_rv.mp4	0.0	316.76445484161377	2.5000100135803223
49	294.1819260120392	pulse	1	t		47.0	2.5	/experiments/AOT/AOT_stimuli/rescaled_final/0147_rv.mp4	0.0	317.14801692962646	
49	295.7744679450989	pulse	1	t		47.0	2.5	/experiments/AOT/AOT_stimuli/rescaled_final/0147_rv.mp4	0.0	318.74055886268616	
49	296.2983739376068	fix_post	2		12	47.0	2.5	/experiments/AOT/AOT_stimuli/rescaled_final/0147_rv.mp4	0.0	319.2644648551941	0.10001516342163086
50	296.39838910102844	fix_pre	0		119	48.0	2.5	blank	1.0	319.3644800186157	0.9915978908538818
50	297.3742799758911	pulse	0	t		48.0	2.5	blank	1.0	320.3403708934784	
50	297.3899869918823	movie	1		301	48.0	2.5	blank	1.0	320.3560779094696	2.508754014968872
50	298.9742691516876	pulse	1	t		48.0	2.5	blank	1.0	321.9403600692749	
50	299.8987410068512	fix_post	2		12	48.0	2.5	blank	1.0	322.8648319244385	0.10001301765441895
51	299.9987540245056	fix_pre	0		120	49.0	2.5	/experiments/AOT/AOT_stimuli/rescaled_final/0037_fw.mp4	0.0	322.9648449420929	0.9999599456787109
51	300.574520111084	pulse	0	t		49.0	2.5	/experiments/AOT/AOT_stimuli/rescaled_final/0037_fw.mp4	0.0	323.54061102867126	
51	300.9987139701843	movie	1		247	49.0	2.5	/experiments/AOT/AOT_stimuli/rescaled_final/0037_fw.mp4	0.0	323.9648048877716	2.499799966812134
51	302.17405915260315	pulse	1	t		49.0	2.5	/experiments/AOT/AOT_stimuli/rescaled_final/0037_fw.mp4	0.0	325.14015007019043	
51	303.49851393699646	fix_post	2		12	49.0	2.5	/experiments/AOT/AOT_stimuli/rescaled_final/0037_fw.mp4	0.0	326.46460485458374	0.09982800483703613
52	303.5983419418335	fix_pre	0		120	50.0	2.5	/experiments/AOT/AOT_stimuli/rescaled_final/0395_rv.mp4	0.0	326.5644328594208	0.9999680519104004
52	303.773903131485	pulse	0	t		50.0	2.5	/experiments/AOT/AOT_stimuli/rescaled_final/0395_rv.mp4	0.0	326.73999404907227	
52	304.5983099937439	movie	1		245	50.0	2.5	/experiments/AOT/AOT_stimuli/rescaled_final/0395_rv.mp4	0.0	327.5644009113312	2.500396966934204
52	305.37495493888855	pulse	1	t		50.0	2.5	/experiments/AOT/AOT_stimuli/rescaled_final/0395_rv.mp4	0.0	328.34104585647583	
52	306.98238015174866	pulse	1	t		50.0	2.5	/experiments/AOT/AOT_stimuli/rescaled_final/0395_rv.mp4	0.0	329.94847106933594	
52	307.0987069606781	fix_post	2		12	50.0	2.5	/experiments/AOT/AOT_stimuli/rescaled_final/0395_rv.mp4	0.0	330.0647978782654	0.10018801689147949
53	307.1988949775696	fix_pre	0		120	51.0	2.5	/experiments/AOT/AOT_stimuli/rescaled_final/1543_fw.mp4	0.0	330.16498589515686	0.9998161792755127
53	308.1987111568451	movie	1		243	51.0	2.5	/experiments/AOT/AOT_stimuli/rescaled_final/1543_fw.mp4	0.0	331.1648020744324	2.500001907348633
53	308.58171701431274	pulse	1	t		51.0	2.5	/experiments/AOT/AOT_stimuli/rescaled_final/1543_fw.mp4	0.0	331.5478079319	
53	310.17470693588257	pulse	1	t		51.0	2.5	/experiments/AOT/AOT_stimuli/rescaled_final/1543_fw.mp4	0.0	333.14079785346985	
53	310.6987130641937	fix_post	2		12	51.0	2.5	/experiments/AOT/AOT_stimuli/rescaled_final/1543_fw.mp4	0.0	333.664803981781	0.09997987747192383
54	310.79869294166565	fix_pre	0		119	52.0	2.5	/experiments/AOT/AOT_stimuli/rescaled_final/1511_rv.mp4	0.0	333.76478385925293	0.9916870594024658
54	311.7748999595642	pulse	0	t		52.0	2.5	/experiments/AOT/AOT_stimuli/rescaled_final/1511_rv.mp4	0.0	334.7409908771515	
54	311.7903800010681	movie	1		244	52.0	2.5	/experiments/AOT/AOT_stimuli/rescaled_final/1511_rv.mp4	0.0	334.7564709186554	2.5078351497650146
54	313.38181495666504	pulse	1	t		52.0	2.5	/experiments/AOT/AOT_stimuli/rescaled_final/1511_rv.mp4	0.0	336.3479058742523	
54	314.29821515083313	fix_post	2		12	52.0	2.5	/experiments/AOT/AOT_stimuli/rescaled_final/1511_rv.mp4	0.0	337.2643060684204	0.10013580322265625
55	314.3983509540558	fix_pre	0		120	53.0	2.5	/experiments/AOT/AOT_stimuli/rescaled_final/0587_fw.mp4	0.0	337.36444187164307	1.000364065170288
55	314.974328994751	pulse	0	t		53.0	2.5	/experiments/AOT/AOT_stimuli/rescaled_final/0587_fw.mp4	0.0	337.94041991233826	
55	315.3987150192261	movie	1		244	53.0	2.5	/experiments/AOT/AOT_stimuli/rescaled_final/0587_fw.mp4	0.0	338.36480593681335	2.499933958053589
55	316.58087611198425	pulse	1	t		53.0	2.5	/experiments/AOT/AOT_stimuli/rescaled_final/0587_fw.mp4	0.0	339.54696702957153	
55	317.89864897727966	fix_post	2		12	53.0	2.5	/experiments/AOT/AOT_stimuli/rescaled_final/0587_fw.mp4	0.0	340.86473989486694	0.10010313987731934
56	317.998752117157	fix_pre	0		120	54.0	2.5	/experiments/AOT/AOT_stimuli/rescaled_final/1078_fw.mp4	0.0	340.96484303474426	0.998593807220459
56	318.182165145874	pulse	0	t		54.0	2.5	/experiments/AOT/AOT_stimuli/rescaled_final/1078_fw.mp4	0.0	341.1482560634613	
56	318.99734592437744	movie	1		243	54.0	2.5	/experiments/AOT/AOT_stimuli/rescaled_final/1078_fw.mp4	0.0	341.9634368419647	2.5004820823669434
56	319.7808051109314	pulse	1	t		54.0	2.5	/experiments/AOT/AOT_stimuli/rescaled_final/1078_fw.mp4	0.0	342.7468960285187	
56	321.3797941207886	pulse	1	t		54.0	2.5	/experiments/AOT/AOT_stimuli/rescaled_final/1078_fw.mp4	0.0	344.34588503837585	
56	321.4978280067444	fix_post	2		12	54.0	2.5	/experiments/AOT/AOT_stimuli/rescaled_final/1078_fw.mp4	0.0	344.46391892433167	0.09946107864379883
57	321.5972890853882	fix_pre	0		120	55.0	2.5	/experiments/AOT/AOT_stimuli/rescaled_final/0477_rv.mp4	0.0	344.56338000297546	1.0000228881835938
57	322.5973119735718	movie	1		244	55.0	2.5	/experiments/AOT/AOT_stimuli/rescaled_final/0477_rv.mp4	0.0	345.56340289115906	2.500602960586548
57	322.9805500507355	pulse	1	t		55.0	2.5	/experiments/AOT/AOT_stimuli/rescaled_final/0477_rv.mp4	0.0	345.94664096832275	
57	324.5808279514313	pulse	1	t		55.0	2.5	/experiments/AOT/AOT_stimuli/rescaled_final/0477_rv.mp4	0.0	347.54691886901855	
57	325.0979149341583	fix_post	2		12	55.0	2.5	/experiments/AOT/AOT_stimuli/rescaled_final/0477_rv.mp4	0.0	348.0640058517456	0.10017108917236328
58	325.1980860233307	fix_pre	0		119	56.0	2.5	blank	1.0	348.16417694091797	0.9915881156921387
58	326.18136501312256	pulse	0	t		56.0	2.5	blank	1.0	349.14745593070984	
58	326.1896741390228	movie	1		301	56.0	2.5	blank	1.0	349.1557650566101	2.5076708793640137
58	327.7808110713959	pulse	1	t		56.0	2.5	blank	1.0	350.74690198898315	
58	328.69734501838684	fix_post	2		12	56.0	2.5	blank	1.0	351.6634359359741	0.10040593147277832
59	328.7977509498596	fix_pre	0		120	57.0	2.5	/experiments/AOT/AOT_stimuli/rescaled_final/1825_fw.mp4	0.0	351.7638418674469	0.9995381832122803
59	329.38079810142517	pulse	0	t		57.0	2.5	/experiments/AOT/AOT_stimuli/rescaled_final/1825_fw.mp4	0.0	352.34688901901245	
59	329.7972891330719	movie	1		244	57.0	2.5	/experiments/AOT/AOT_stimuli/rescaled_final/1825_fw.mp4	0.0	352.7633800506592	2.499534845352173
59	330.98110008239746	pulse	1	t		57.0	2.5	/experiments/AOT/AOT_stimuli/rescaled_final/1825_fw.mp4	0.0	353.94719099998474	
59	332.2968239784241	fix_post	2		12	57.0	2.5	/experiments/AOT/AOT_stimuli/rescaled_final/1825_fw.mp4	0.0	355.26291489601135	0.10040712356567383
60	332.39723110198975	fix_pre	0		120	58.0	2.5	/experiments/AOT/AOT_stimuli/rescaled_final/1815_rv.mp4	0.0	355.363322019577	1.000532865524292
60	332.5807099342346	pulse	0	t		58.0	2.5	/experiments/AOT/AOT_stimuli/rescaled_final/1815_rv.mp4	0.0	355.5468008518219	
60	333.39776396751404	movie	1		245	58.0	2.5	/experiments/AOT/AOT_stimuli/rescaled_final/1815_rv.mp4	0.0	356.3638548851013	2.4999051094055176
60	334.18087911605835	pulse	1	t		58.0	2.5	/experiments/AOT/AOT_stimuli/rescaled_final/1815_rv.mp4	0.0	357.14697003364563	
60	335.7802560329437	pulse	1	t		58.0	2.5	/experiments/AOT/AOT_stimuli/rescaled_final/1815_rv.mp4	0.0	358.746346950531	
60	335.89766907691956	fix_post	2		12	58.0	2.5	/experiments/AOT/AOT_stimuli/rescaled_final/1815_rv.mp4	0.0	358.86375999450684	0.09912490844726562
61	335.9967939853668	fix_pre	0		120	59.0	2.5	/experiments/AOT/AOT_stimuli/rescaled_final/1731_rv.mp4	0.0	358.9628849029541	0.9999899864196777
61	336.9967839717865	movie	1		243	59.0	2.5	/experiments/AOT/AOT_stimuli/rescaled_final/1731_rv.mp4	0.0	359.9628748893738	2.500915050506592
61	337.38193798065186	pulse	1	t		59.0	2.5	/experiments/AOT/AOT_stimuli/rescaled_final/1731_rv.mp4	0.0	360.34802889823914	
61	338.9801959991455	pulse	1	t		59.0	2.5	/experiments/AOT/AOT_stimuli/rescaled_final/1731_rv.mp4	0.0	361.9462869167328	
61	339.4976990222931	fix_post	2		12	59.0	2.5	/experiments/AOT/AOT_stimuli/rescaled_final/1731_rv.mp4	0.0	362.46378993988037	0.09949803352355957
62	339.59719705581665	fix_pre	0		119	60.0	2.5	/experiments/AOT/AOT_stimuli/rescaled_final/0847_rv.mp4	0.0	362.56328797340393	0.9921169281005859
62	340.5803189277649	pulse	0	t		60.0	2.5	/experiments/AOT/AOT_stimuli/rescaled_final/0847_rv.mp4	0.0	363.5464098453522	
62	340.58931398391724	movie	1		247	60.0	2.5	/experiments/AOT/AOT_stimuli/rescaled_final/0847_rv.mp4	0.0	363.5554049015045	2.50747013092041
62	342.18065214157104	pulse	1	t		60.0	2.5	/experiments/AOT/AOT_stimuli/rescaled_final/0847_rv.mp4	0.0	365.1467430591583	
62	343.09678411483765	fix_post	2		12	60.0	2.5	/experiments/AOT/AOT_stimuli/rescaled_final/0847_rv.mp4	0.0	366.0628750324249	0.09999585151672363
63	343.19677996635437	fix_pre	0		120	61.0	2.5	blank	1.0	366.16287088394165	1.0000159740447998
63	343.7801730632782	pulse	0	t		61.0	2.5	blank	1.0	366.7462639808655	
63	344.19679594039917	movie	1		300	61.0	2.5	blank	1.0	367.16288685798645	2.4999871253967285
63	345.3802099227905	pulse	1	t		61.0	2.5	blank	1.0	368.3463008403778	
63	346.6967830657959	fix_post	2		12	61.0	2.5	blank	1.0	369.6628739833832	0.09991693496704102
64	346.79670000076294	fix_pre	0		120	62.0	2.5	/experiments/AOT/AOT_stimuli/rescaled_final/1562_rv.mp4	0.0	369.7627909183502	1.0000250339508057
64	346.9801731109619	pulse	0	t		62.0	2.5	/experiments/AOT/AOT_stimuli/rescaled_final/1562_rv.mp4	0.0	369.9462640285492	
64	347.79672503471375	movie	1		244	62.0	2.5	/experiments/AOT/AOT_stimuli/rescaled_final/1562_rv.mp4	0.0	370.762815952301	2.4999659061431885
64	348.5801811218262	pulse	1	t		62.0	2.5	/experiments/AOT/AOT_stimuli/rescaled_final/1562_rv.mp4	0.0	371.54627203941345	
64	350.1769850254059	pulse	1	t		62.0	2.5	/experiments/AOT/AOT_stimuli/rescaled_final/1562_rv.mp4	0.0	373.14307594299316	
64	350.29669094085693	fix_post	2		12	62.0	2.5	/experiments/AOT/AOT_stimuli/rescaled_final/1562_rv.mp4	0.0	373.2627818584442	0.10099411010742188
65	350.39768505096436	fix_pre	0		120	63.0	2.5	/experiments/AOT/AOT_stimuli/rescaled_final/0309_rv.mp4	0.0	373.36377596855164	0.9990310668945312
65	351.3967161178589	movie	1		245	63.0	2.5	/experiments/AOT/AOT_stimuli/rescaled_final/0309_rv.mp4	0.0	374.36280703544617	2.500018835067749
65	351.7813000679016	pulse	1	t		63.0	2.5	/experiments/AOT/AOT_stimuli/rescaled_final/0309_rv.mp4	0.0	374.7473909854889	
65	353.37365913391113	pulse	1	t		63.0	2.5	/experiments/AOT/AOT_stimuli/rescaled_final/0309_rv.mp4	0.0	376.3397500514984	
65	353.89673495292664	fix_post	2		12	63.0	2.5	/experiments/AOT/AOT_stimuli/rescaled_final/0309_rv.mp4	0.0	376.8628258705139	0.10084414482116699
66	353.9975790977478	fix_pre	0		119	64.0	2.5	/experiments/AOT/AOT_stimuli/rescaled_final/0908_rv.mp4	0.0	376.9636700153351	0.9916470050811768
66	354.98094606399536	pulse	0	t		64.0	2.5	/experiments/AOT/AOT_stimuli/rescaled_final/0908_rv.mp4	0.0	377.94703698158264	
66	354.989226102829	movie	1		244	64.0	2.5	/experiments/AOT/AOT_stimuli/rescaled_final/0908_rv.mp4	0.0	377.95531702041626	2.5074050426483154
66	356.5805251598358	pulse	1	t		64.0	2.5	/experiments/AOT/AOT_stimuli/rescaled_final/0908_rv.mp4	0.0	379.5466160774231	
66	357.4966311454773	fix_post	2		12	64.0	2.5	/experiments/AOT/AOT_stimuli/rescaled_final/0908_rv.mp4	0.0	380.4627220630646	0.10092401504516602
67	357.59755516052246	fix_pre	0		120	65.0	2.5	/experiments/AOT/AOT_stimuli/rescaled_final/1171_fw.mp4	0.0	380.56364607810974	0.999168872833252
67	358.18104696273804	pulse	0	t		65.0	2.5	/experiments/AOT/AOT_stimuli/rescaled_final/1171_fw.mp4	0.0	381.1471378803253	
67	358.5967240333557	movie	1		244	65.0	2.5	/experiments/AOT/AOT_stimuli/rescaled_final/1171_fw.mp4	0.0	381.562814950943	2.499929904937744
67	359.7802119255066	pulse	1	t		65.0	2.5	/experiments/AOT/AOT_stimuli/rescaled_final/1171_fw.mp4	0.0	382.7463028430939	
67	361.09665393829346	fix_post	2		12	65.0	2.5	/experiments/AOT/AOT_stimuli/rescaled_final/1171_fw.mp4	0.0	384.06274485588074	0.10089921951293945
68	361.1975531578064	fix_pre	0		120	66.0	2.5	/experiments/AOT/AOT_stimuli/rescaled_final/1160_fw.mp4	0.0	384.1636440753937	0.9991297721862793
68	361.3809790611267	pulse	0	t		66.0	2.5	/experiments/AOT/AOT_stimuli/rescaled_final/1160_fw.mp4	0.0	384.347069978714	
68	362.1966829299927	movie	1		244	66.0	2.5	/experiments/AOT/AOT_stimuli/rescaled_final/1160_fw.mp4	0.0	385.16277384757996	2.499953031539917
68	362.98006796836853	pulse	1	t		66.0	2.5	/experiments/AOT/AOT_stimuli/rescaled_final/1160_fw.mp4	0.0	385.9461588859558	
68	364.57727313041687	pulse	1	t		66.0	2.5	/experiments/AOT/AOT_stimuli/rescaled_final/1160_fw.mp4	0.0	387.54336404800415	
68	364.6966359615326	fix_post	2		12	66.0	2.5	/experiments/AOT/AOT_stimuli/rescaled_final/1160_fw.mp4	0.0	387.6627268791199	0.10132503509521484
69	364.7979609966278	fix_pre	0		120	67.0	2.5	/experiments/AOT/AOT_stimuli/rescaled_final/1953_rv.mp4	0.0	387.7640519142151	1.0000250339508057
69	365.7979860305786	movie	1		243	67.0	2.5	/experiments/AOT/AOT_stimuli/rescaled_final/1953_rv.mp4	0.0	388.7640769481659	2.5001819133758545
69	366.18168592453003	pulse	1	t		67.0	2.5	/experiments/AOT/AOT_stimuli/rescaled_final/1953_rv.mp4	0.0	389.1477768421173	
69	367.77427315711975	pulse	1	t		67.0	2.5	/experiments/AOT/AOT_stimuli/rescaled_final/1953_rv.mp4	0.0	390.74036407470703	
69	368.29816794395447	fix_post	2		12	67.0	2.5	/experiments/AOT/AOT_stimuli/rescaled_final/1953_rv.mp4	0.0	391.26425886154175	0.09990715980529785
70	368.39807510375977	fix_pre	0		119	68.0	2.5	blank	1.0	391.36416602134705	0.9916598796844482
70	369.3741021156311	pulse	0	t		68.0	2.5	blank	1.0	392.3401930332184	
70	369.3897349834442	movie	1		301	68.0	2.5	blank	1.0	392.3558259010315	2.508653163909912
70	370.98181104660034	pulse	1	t		68.0	2.5	blank	1.0	393.9479019641876	
70	371.8983881473541	fix_post	2		12	68.0	2.5	blank	1.0	394.8644790649414	0.0999917984008789
71	371.998379945755	fix_pre	0		120	69.0	2.5	/experiments/AOT/AOT_stimuli/rescaled_final/1599_fw.mp4	0.0	394.9644708633423	1.0
71	372.58184814453125	pulse	0	t		69.0	2.5	/experiments/AOT/AOT_stimuli/rescaled_final/1599_fw.mp4	0.0	395.54793906211853	
71	372.998379945755	movie	1		243	69.0	2.5	/experiments/AOT/AOT_stimuli/rescaled_final/1599_fw.mp4	0.0	395.9644708633423	2.4995391368865967
71	374.17499899864197	pulse	1	t		69.0	2.5	/experiments/AOT/AOT_stimuli/rescaled_final/1599_fw.mp4	0.0	397.14108991622925	
71	375.4979190826416	fix_post	2		12	69.0	2.5	/experiments/AOT/AOT_stimuli/rescaled_final/1599_fw.mp4	0.0	398.4640100002289	0.10064506530761719
72	375.5985641479492	fix_pre	0		120	70.0	2.5	/experiments/AOT/AOT_stimuli/rescaled_final/0079_fw.mp4	0.0	398.5646550655365	0.9993457794189453
72	375.78140211105347	pulse	0	t		70.0	2.5	/experiments/AOT/AOT_stimuli/rescaled_final/0079_fw.mp4	0.0	398.74749302864075	
72	376.59790992736816	movie	1		243	70.0	2.5	/experiments/AOT/AOT_stimuli/rescaled_final/0079_fw.mp4	0.0	399.56400084495544	2.5000112056732178
72	377.3813941478729	pulse	1	t		70.0	2.5	/experiments/AOT/AOT_stimuli/rescaled_final/0079_fw.mp4	0.0	400.3474850654602	
72	378.9805979728699	pulse	1	t		70.0	2.5	/experiments/AOT/AOT_stimuli/rescaled_final/0079_fw.mp4	0.0	401.94668889045715	
72	379.0979211330414	fix_post	2		12	70.0	2.5	/experiments/AOT/AOT_stimuli/rescaled_final/0079_fw.mp4	0.0	402.06401205062866	0.10000491142272949
73	379.1979260444641	fix_pre	0		120	71.0	2.5	/experiments/AOT/AOT_stimuli/rescaled_final/1411_fw.mp4	0.0	402.1640169620514	1.0004210472106934
73	380.1983470916748	movie	1		244	71.0	2.5	/experiments/AOT/AOT_stimuli/rescaled_final/1411_fw.mp4	0.0	403.1644380092621	2.499635934829712
73	380.58232712745667	pulse	1	t		71.0	2.5	/experiments/AOT/AOT_stimuli/rescaled_final/1411_fw.mp4	0.0	403.54841804504395	
73	382.17449712753296	pulse	1	t		71.0	2.5	/experiments/AOT/AOT_stimuli/rescaled_final/1411_fw.mp4	0.0	405.14058804512024	
73	382.6979830265045	fix_post	2		12	71.0	2.5	/experiments/AOT/AOT_stimuli/rescaled_final/1411_fw.mp4	0.0	405.6640739440918	0.1003420352935791
74	382.7983250617981	fix_pre	0		119	72.0	2.5	/experiments/AOT/AOT_stimuli/rescaled_final/0289_rv.mp4	0.0	405.7644159793854	0.9912199974060059
74	383.7738461494446	pulse	0	t		72.0	2.5	/experiments/AOT/AOT_stimuli/rescaled_final/0289_rv.mp4	0.0	406.73993706703186	
74	383.7895450592041	movie	1		247	72.0	2.5	/experiments/AOT/AOT_stimuli/rescaled_final/0289_rv.mp4	0.0	406.7556359767914	2.5088279247283936
74	385.3813650608063	pulse	1	t		72.0	2.5	/experiments/AOT/AOT_stimuli/rescaled_final/0289_rv.mp4	0.0	408.34745597839355	
74	386.2983729839325	fix_post	2		12	72.0	2.5	/experiments/AOT/AOT_stimuli/rescaled_final/0289_rv.mp4	0.0	409.2644639015198	0.09988594055175781
75	386.39825892448425	fix_pre	0		120	73.0	2.5	/experiments/AOT/AOT_stimuli/rescaled_final/2025_rv.mp4	0.0	409.36434984207153	0.999610185623169
75	386.98134207725525	pulse	0	t		73.0	2.5	/experiments/AOT/AOT_stimuli/rescaled_final/2025_rv.mp4	0.0	409.94743299484253	
75	387.3978691101074	movie	1		244	73.0	2.5	/experiments/AOT/AOT_stimuli/rescaled_final/2025_rv.mp4	0.0	410.3639600276947	2.5004379749298096
75	388.58183312416077	pulse	1	t		73.0	2.5	/experiments/AOT/AOT_stimuli/rescaled_final/2025_rv.mp4	0.0	411.54792404174805	
75	389.89830708503723	fix_post	2		12	73.0	2.5	/experiments/AOT/AOT_stimuli/rescaled_final/2025_rv.mp4	0.0	412.8643980026245	0.09957098960876465
76	389.997878074646	fix_pre	0		120	74.0	2.5	/experiments/AOT/AOT_stimuli/rescaled_final/0012_rv.mp4	0.0	412.9639689922333	1.0004239082336426
76	390.1744589805603	pulse	0	t		74.0	2.5	/experiments/AOT/AOT_stimuli/rescaled_final/0012_rv.mp4	0.0	413.1405498981476	
76	390.99830198287964	movie	1		245	74.0	2.5	/experiments/AOT/AOT_stimuli/rescaled_final/0012_rv.mp4	0.0	413.9643929004669	2.5000181198120117
76	391.78124499320984	pulse	1	t		74.0	2.5	/experiments/AOT/AOT_stimuli/rescaled_final/0012_rv.mp4	0.0	414.7473359107971	
76	393.37994599342346	pulse	1	t		74.0	2.5	/experiments/AOT/AOT_stimuli/rescaled_final/0012_rv.mp4	0.0	416.34603691101074	
76	393.49832010269165	fix_post	2		12	74.0	2.5	/experiments/AOT/AOT_stimuli/rescaled_final/0012_rv.mp4	0.0	416.46441102027893	0.09966802597045898
77	393.5979881286621	fix_pre	0		120	75.0	2.5	blank	1.0	416.5640790462494	0.9998478889465332
77	394.59783601760864	movie	1		300	75.0	2.5	blank	1.0	417.5639269351959	2.500415086746216
77	394.97428703308105	pulse	1	t		75.0	2.5	blank	1.0	417.94037795066833	
77	396.5742130279541	pulse	1	t		75.0	2.5	blank	1.0	419.5403039455414	
77	397.09825110435486	fix_post	2		12	75.0	2.5	blank	1.0	420.06434202194214	0.09961295127868652
78	397.19786405563354	fix_pre	0		119	76.0	2.5	/experiments/AOT/AOT_stimuli/rescaled_final/2037_fw.mp4	0.0	420.1639549732208	0.9916379451751709
78	398.1813700199127	pulse	0	t		76.0	2.5	/experiments/AOT/AOT_stimuli/rescaled_final/2037_fw.mp4	0.0	421.1474609375	
78	398.1895020008087	movie	1		244	76.0	2.5	/experiments/AOT/AOT_stimuli/rescaled_final/2037_fw.mp4	0.0	421.155592918396	2.5082991123199463
78	399.7812149524689	pulse	1	t		76.0	2.5	/experiments/AOT/AOT_stimuli/rescaled_final/2037_fw.mp4	0.0	422.74730587005615	
78	400.69780111312866	fix_post	2		12	76.0	2.5	/experiments/AOT/AOT_stimuli/rescaled_final/2037_fw.mp4	0.0	423.66389203071594	0.10007786750793457
79	400.7978789806366	fix_pre	0		120	77.0	2.5	/experiments/AOT/AOT_stimuli/rescaled_final/0369_rv.mp4	0.0	423.7639698982239	1.0000710487365723
79	401.3826570510864	pulse	0	t		77.0	2.5	/experiments/AOT/AOT_stimuli/rescaled_final/0369_rv.mp4	0.0	424.3487479686737	
79	401.79795002937317	movie	1		245	77.0	2.5	/experiments/AOT/AOT_stimuli/rescaled_final/0369_rv.mp4	0.0	424.76404094696045	2.5003719329833984
79	402.9813950061798	pulse	1	t		77.0	2.5	/experiments/AOT/AOT_stimuli/rescaled_final/0369_rv.mp4	0.0	425.9474859237671	
79	404.29832196235657	fix_post	2		12	77.0	2.5	/experiments/AOT/AOT_stimuli/rescaled_final/0369_rv.mp4	0.0	427.26441287994385	0.09987998008728027
80	404.39820194244385	fix_pre	0		120	78.0	2.5	/experiments/AOT/AOT_stimuli/rescaled_final/2054_fw.mp4	0.0	427.3642928600311	0.9999620914459229
80	404.5816330909729	pulse	0	t		78.0	2.5	/experiments/AOT/AOT_stimuli/rescaled_final/2054_fw.mp4	0.0	427.5477240085602	
80	405.39816403388977	movie	1		244	78.0	2.5	/experiments/AOT/AOT_stimuli/rescaled_final/2054_fw.mp4	0.0	428.36425495147705	2.5000500679016113
80	406.17461013793945	pulse	1	t		78.0	2.5	/experiments/AOT/AOT_stimuli/rescaled_final/2054_fw.mp4	0.0	429.14070105552673	
80	407.78064799308777	pulse	1	t		78.0	2.5	/experiments/AOT/AOT_stimuli/rescaled_final/2054_fw.mp4	0.0	430.74673891067505	
80	407.8982141017914	fix_post	2		12	78.0	2.5	/experiments/AOT/AOT_stimuli/rescaled_final/2054_fw.mp4	0.0	430.86430501937866	0.09995198249816895
81	407.99816608428955	fix_pre	0		120	79.0	2.5	/experiments/AOT/AOT_stimuli/rescaled_final/1930_fw.mp4	0.0	430.96425700187683	1.0000338554382324
81	408.9981999397278	movie	1		245	79.0	2.5	/experiments/AOT/AOT_stimuli/rescaled_final/1930_fw.mp4	0.0	431.96429085731506	2.499528169631958
81	409.38135600090027	pulse	1	t		79.0	2.5	/experiments/AOT/AOT_stimuli/rescaled_final/1930_fw.mp4	0.0	432.34744691848755	
81	410.9816720485687	pulse	1	t		79.0	2.5	/experiments/AOT/AOT_stimuli/rescaled_final/1930_fw.mp4	0.0	433.947762966156	
81	411.49772810935974	fix_post	2		12	79.0	2.5	/experiments/AOT/AOT_stimuli/rescaled_final/1930_fw.mp4	0.0	434.463819026947	0.1005709171295166
82	411.59829902648926	fix_pre	0		119	80.0	2.5	/experiments/AOT/AOT_stimuli/rescaled_final/1480_fw.mp4	0.0	434.56438994407654	0.990231990814209
82	412.58132100105286	pulse	0	t		80.0	2.5	/experiments/AOT/AOT_stimuli/rescaled_final/1480_fw.mp4	0.0	435.54741191864014	
82	412.58853101730347	movie	1		246	80.0	2.5	/experiments/AOT/AOT_stimuli/rescaled_final/1480_fw.mp4	0.0	435.55462193489075	2.508286952972412
82	414.17989802360535	pulse	1	t		80.0	2.5	/experiments/AOT/AOT_stimuli/rescaled_final/1480_fw.mp4	0.0	437.1459889411926	
82	415.0968179702759	fix_post	2		12	80.0	2.5	/experiments/AOT/AOT_stimuli/rescaled_final/1480_fw.mp4	0.0	438.06290888786316	0.10135412216186523
83	415.19817209243774	fix_pre	0		120	81.0	2.5	/experiments/AOT/AOT_stimuli/rescaled_final/2120_fw.mp4	0.0	438.164263010025	1.0000090599060059
83	415.7807149887085	pulse	0	t		81.0	2.5	/experiments/AOT/AOT_stimuli/rescaled_final/2120_fw.mp4	0.0	438.7468059062958	
83	416.19818115234375	movie	1		244	81.0	2.5	/experiments/AOT/AOT_stimuli/rescaled_final/2120_fw.mp4	0.0	439.16427206993103	2.499530792236328
83	417.38156509399414	pulse	1	t		81.0	2.5	/experiments/AOT/AOT_stimuli/rescaled_final/2120_fw.mp4	0.0	440.3476560115814	
83	418.6977119445801	fix_post	2		12	81.0	2.5	/experiments/AOT/AOT_stimuli/rescaled_final/2120_fw.mp4	0.0	441.66380286216736	0.10043621063232422
84	418.7981481552124	fix_pre	0		120	82.0	2.5	blank	1.0	441.7642390727997	1.000074863433838
84	418.981595993042	pulse	0	t		82.0	2.5	blank	1.0	441.9476869106293	
84	419.79822301864624	movie	1		300	82.0	2.5	blank	1.0	442.7643139362335	2.4999470710754395
84	420.58155512809753	pulse	1	t		82.0	2.5	blank	1.0	443.5476460456848	
84	422.18126106262207	pulse	1	t		82.0	2.5	blank	1.0	445.14735198020935	
84	422.2981700897217	fix_post	2		12	82.0	2.5	blank	1.0	445.26426100730896	0.09955286979675293
85	422.39772295951843	fix_pre	0		120	83.0	2.5	/experiments/AOT/AOT_stimuli/rescaled_final/1963_rv.mp4	0.0	445.3638138771057	1.000365972518921
85	423.39808893203735	movie	1		243	83.0	2.5	/experiments/AOT/AOT_stimuli/rescaled_final/1963_rv.mp4	0.0	446.36417984962463	2.5
85	423.7813379764557	pulse	1	t		83.0	2.5	/experiments/AOT/AOT_stimuli/rescaled_final/1963_rv.mp4	0.0	446.74742889404297	
85	425.3742880821228	pulse	1	t		83.0	2.5	/experiments/AOT/AOT_stimuli/rescaled_final/1963_rv.mp4	0.0	448.3403789997101	
85	425.89808893203735	fix_post	2		12	83.0	2.5	/experiments/AOT/AOT_stimuli/rescaled_final/1963_rv.mp4	0.0	448.86417984962463	0.0999760627746582
87	425.998064994812	stim	0		1716					448.9641559123993	14.299683094024658
87	426.9811041355133	pulse	0	t						449.9471950531006	
87	428.5811700820923	pulse	0	t						451.54726099967957	
87	430.1811411380768	pulse	0	t						453.14723205566406	
87	431.7812399864197	pulse	0	t						454.74733090400696	
87	433.37374114990234	pulse	0	t						456.3398320674896	
87	434.98152112960815	pulse	0	t						457.94761204719543	
87	436.5816831588745	pulse	0	t						459.5477740764618	
87	438.181440114975	pulse	0	t						461.14753103256226	
87	439.7810871601105	pulse	0	t						462.74717807769775	
