trial_nr	onset	event_type	phase	response	nr_frames	movie_index	movie_duration	movie_file	blank	onset_abs	duration
0	0.20810294151306152	stim	0		6298					26.50208806991577	52.491158962249756
0	52.683886766433716	response	0	space						78.97787189483643	
1	52.69926190376282	stim	0		7160					78.99324703216553	59.68850898742676
1	112.37289786338806	pulse	0	t						138.66688299179077	
1	112.38777089118958	stim	1		1715					138.68175601959229	14.297545909881592
1	113.96689081192017	pulse	1	t						140.26087594032288	
1	115.5671010017395	pulse	1	t						141.8610861301422	
1	117.16747283935547	pulse	1	t						143.46145796775818	
1	118.76772689819336	pulse	1	t						145.06171202659607	
1	120.3678138256073	pulse	1	t						146.66179895401	
1	121.96799778938293	pulse	1	t						148.26198291778564	
1	123.56838393211365	pulse	1	t						149.86236906051636	
1	125.16859793663025	pulse	1	t						151.46258306503296	
2	126.68531680107117	fix_pre	0		11	0.0	2.5	/experiments/knapen_AOT/AOT_stimuli/rescaled_final/0290_rv.mp4	0.0	152.97930192947388	0.0916140079498291
2	126.76885390281677	pulse	0	t		0.0	2.5	/experiments/knapen_AOT/AOT_stimuli/rescaled_final/0290_rv.mp4	0.0	153.06283903121948	
2	126.776930809021	movie	1		245	0.0	2.5	/experiments/knapen_AOT/AOT_stimuli/rescaled_final/0290_rv.mp4	0.0	153.0709159374237	2.508747100830078
2	128.36970496177673	pulse	1	t		0.0	2.5	/experiments/knapen_AOT/AOT_stimuli/rescaled_final/0290_rv.mp4	0.0	154.66369009017944	
2	129.28567790985107	fix_post	2		12	0.0	2.5	/experiments/knapen_AOT/AOT_stimuli/rescaled_final/0290_rv.mp4	0.0	155.57966303825378	0.10001206398010254
3	129.38568997383118	fix_pre	0		120	1.0	2.5	/experiments/knapen_AOT/AOT_stimuli/rescaled_final/1751_rv.mp4	0.0	155.6796751022339	1.000175952911377
3	129.96936678886414	pulse	0	t		1.0	2.5	/experiments/knapen_AOT/AOT_stimuli/rescaled_final/1751_rv.mp4	0.0	156.26335191726685	
3	130.38586592674255	movie	1		244	1.0	2.5	/experiments/knapen_AOT/AOT_stimuli/rescaled_final/1751_rv.mp4	0.0	156.67985105514526	2.500321865081787
3	131.56973886489868	pulse	1	t		1.0	2.5	/experiments/knapen_AOT/AOT_stimuli/rescaled_final/1751_rv.mp4	0.0	157.8637239933014	
3	132.88618779182434	fix_post	2		12	1.0	2.5	/experiments/knapen_AOT/AOT_stimuli/rescaled_final/1751_rv.mp4	0.0	159.18017292022705	0.1000220775604248
4	132.98620986938477	fix_pre	0		120	2.0	2.5	/experiments/knapen_AOT/AOT_stimuli/rescaled_final/1386_fw.mp4	0.0	159.28019499778748	1.000169038772583
4	133.16236996650696	pulse	0	t		2.0	2.5	/experiments/knapen_AOT/AOT_stimuli/rescaled_final/1386_fw.mp4	0.0	159.45635509490967	
4	133.98637890815735	movie	1		243	2.0	2.5	/experiments/knapen_AOT/AOT_stimuli/rescaled_final/1386_fw.mp4	0.0	160.28036403656006	2.500411033630371
4	134.76270389556885	pulse	1	t		2.0	2.5	/experiments/knapen_AOT/AOT_stimuli/rescaled_final/1386_fw.mp4	0.0	161.05668902397156	
4	136.37002992630005	pulse	1	t		2.0	2.5	/experiments/knapen_AOT/AOT_stimuli/rescaled_final/1386_fw.mp4	0.0	162.66401505470276	
4	136.48678994178772	fix_post	2		12	2.0	2.5	/experiments/knapen_AOT/AOT_stimuli/rescaled_final/1386_fw.mp4	0.0	162.78077507019043	0.0999758243560791
5	136.5867657661438	fix_pre	0		119	3.0	2.5	/experiments/knapen_AOT/AOT_stimuli/rescaled_final/1669_fw.mp4	0.0	162.8807508945465	0.9917690753936768
5	137.57853484153748	movie	1		244	3.0	2.5	/experiments/knapen_AOT/AOT_stimuli/rescaled_final/1669_fw.mp4	0.0	163.87251996994019	2.5003950595855713
5	137.96325182914734	pulse	1	t		3.0	2.5	/experiments/knapen_AOT/AOT_stimuli/rescaled_final/1669_fw.mp4	0.0	164.25723695755005	
5	139.56328296661377	pulse	1	t		3.0	2.5	/experiments/knapen_AOT/AOT_stimuli/rescaled_final/1669_fw.mp4	0.0	165.85726809501648	
5	140.07892990112305	fix_post	2		12	3.0	2.5	/experiments/knapen_AOT/AOT_stimuli/rescaled_final/1669_fw.mp4	0.0	166.37291502952576	0.10002708435058594
6	140.17895698547363	fix_pre	0		119	4.0	2.5	/experiments/knapen_AOT/AOT_stimuli/rescaled_final/1680_rv.mp4	0.0	166.47294211387634	0.9918398857116699
6	141.16269993782043	pulse	0	t		4.0	2.5	/experiments/knapen_AOT/AOT_stimuli/rescaled_final/1680_rv.mp4	0.0	167.45668506622314	
6	141.1707968711853	movie	1		244	4.0	2.5	/experiments/knapen_AOT/AOT_stimuli/rescaled_final/1680_rv.mp4	0.0	167.464781999588	2.5086939334869385
6	142.76329898834229	pulse	1	t		4.0	2.5	/experiments/knapen_AOT/AOT_stimuli/rescaled_final/1680_rv.mp4	0.0	169.057284116745	
6	143.67949080467224	fix_post	2		12	4.0	2.5	/experiments/knapen_AOT/AOT_stimuli/rescaled_final/1680_rv.mp4	0.0	169.97347593307495	0.10002398490905762
7	143.7795147895813	fix_pre	0		120	5.0	2.5	/experiments/knapen_AOT/AOT_stimuli/rescaled_final/1035_rv.mp4	0.0	170.073499917984	1.0001521110534668
7	144.3630747795105	pulse	0	t		5.0	2.5	/experiments/knapen_AOT/AOT_stimuli/rescaled_final/1035_rv.mp4	0.0	170.6570599079132	
7	144.77966690063477	movie	1		245	5.0	2.5	/experiments/knapen_AOT/AOT_stimuli/rescaled_final/1035_rv.mp4	0.0	171.07365202903748	2.5003390312194824
7	145.9634358882904	pulse	1	t		5.0	2.5	/experiments/knapen_AOT/AOT_stimuli/rescaled_final/1035_rv.mp4	0.0	172.25742101669312	
7	147.28000593185425	fix_post	2		12	5.0	2.5	/experiments/knapen_AOT/AOT_stimuli/rescaled_final/1035_rv.mp4	0.0	173.57399106025696	0.09997391700744629
8	147.3799798488617	fix_pre	0		120	6.0	2.5	/experiments/knapen_AOT/AOT_stimuli/rescaled_final/0114_fw.mp4	0.0	173.6739649772644	1.0002110004425049
8	147.56364798545837	pulse	0	t		6.0	2.5	/experiments/knapen_AOT/AOT_stimuli/rescaled_final/0114_fw.mp4	0.0	173.85763311386108	
8	148.3801908493042	movie	1		245	6.0	2.5	/experiments/knapen_AOT/AOT_stimuli/rescaled_final/0114_fw.mp4	0.0	174.6741759777069	2.5003669261932373
8	149.16393780708313	pulse	1	t		6.0	2.5	/experiments/knapen_AOT/AOT_stimuli/rescaled_final/0114_fw.mp4	0.0	175.45792293548584	
8	150.76405382156372	pulse	1	t		6.0	2.5	/experiments/knapen_AOT/AOT_stimuli/rescaled_final/0114_fw.mp4	0.0	177.05803894996643	
8	150.88055777549744	fix_post	2		12	6.0	2.5	/experiments/knapen_AOT/AOT_stimuli/rescaled_final/0114_fw.mp4	0.0	177.17454290390015	0.1001591682434082
9	150.98071694374084	fix_pre	0		120	7.0	2.5	blank	1.0	177.27470207214355	1.0000159740447998
9	151.98073291778564	movie	1		299	7.0	2.5	blank	1.0	178.27471804618835	2.492058038711548
9	152.36427998542786	pulse	1	t		7.0	2.5	blank	1.0	178.65826511383057	
9	153.96465587615967	pulse	1	t		7.0	2.5	blank	1.0	180.25864100456238	
9	154.4727909564972	fix_post	2		12	7.0	2.5	blank	1.0	180.7667760848999	0.09999990463256836
10	154.57279086112976	fix_pre	0		120	8.0	2.5	/experiments/knapen_AOT/AOT_stimuli/rescaled_final/2004_rv.mp4	0.0	180.86677598953247	1.0001189708709717
10	155.56487798690796	pulse	0	t		8.0	2.5	/experiments/knapen_AOT/AOT_stimuli/rescaled_final/2004_rv.mp4	0.0	181.85886311531067	
10	155.57290983200073	movie	1		252	8.0	2.5	/experiments/knapen_AOT/AOT_stimuli/rescaled_final/2004_rv.mp4	0.0	181.86689496040344	2.5087239742279053
10	157.16932487487793	pulse	1	t		8.0	2.5	/experiments/knapen_AOT/AOT_stimuli/rescaled_final/2004_rv.mp4	0.0	183.46331000328064	
10	158.08163380622864	fix_post	2		12	8.0	2.5	/experiments/knapen_AOT/AOT_stimuli/rescaled_final/2004_rv.mp4	0.0	184.37561893463135	0.10002517700195312
11	158.1816589832306	fix_pre	0		120	9.0	2.5	/experiments/knapen_AOT/AOT_stimuli/rescaled_final/1455_fw.mp4	0.0	184.4756441116333	1.000133991241455
11	158.765291929245	pulse	0	t		9.0	2.5	/experiments/knapen_AOT/AOT_stimuli/rescaled_final/1455_fw.mp4	0.0	185.0592770576477	
11	159.18179297447205	movie	1		247	9.0	2.5	/experiments/knapen_AOT/AOT_stimuli/rescaled_final/1455_fw.mp4	0.0	185.47577810287476	2.5003700256347656
11	160.36566495895386	pulse	1	t		9.0	2.5	/experiments/knapen_AOT/AOT_stimuli/rescaled_final/1455_fw.mp4	0.0	186.65965008735657	
11	161.6821630001068	fix_post	2		12	9.0	2.5	/experiments/knapen_AOT/AOT_stimuli/rescaled_final/1455_fw.mp4	0.0	187.97614812850952	0.10003089904785156
12	161.78219389915466	fix_pre	0		120	10.0	2.5	/experiments/knapen_AOT/AOT_stimuli/rescaled_final/0114_rv.mp4	0.0	188.07617902755737	1.000209093093872
12	161.96588897705078	pulse	0	t		10.0	2.5	/experiments/knapen_AOT/AOT_stimuli/rescaled_final/0114_rv.mp4	0.0	188.2598741054535	
12	162.78240299224854	movie	1		248	10.0	2.5	/experiments/knapen_AOT/AOT_stimuli/rescaled_final/0114_rv.mp4	0.0	189.07638812065125	2.500302791595459
12	163.5660309791565	pulse	1	t		10.0	2.5	/experiments/knapen_AOT/AOT_stimuli/rescaled_final/0114_rv.mp4	0.0	189.8600161075592	
12	165.1661729812622	pulse	1	t		10.0	2.5	/experiments/knapen_AOT/AOT_stimuli/rescaled_final/0114_rv.mp4	0.0	191.46015810966492	
12	165.282705783844	fix_post	2		12	10.0	2.5	/experiments/knapen_AOT/AOT_stimuli/rescaled_final/0114_rv.mp4	0.0	191.5766909122467	0.100128173828125
13	165.38283395767212	fix_pre	0		120	11.0	2.5	/experiments/knapen_AOT/AOT_stimuli/rescaled_final/1859_fw.mp4	0.0	191.67681908607483	1.0000360012054443
13	166.38286995887756	movie	1		240	11.0	2.5	/experiments/knapen_AOT/AOT_stimuli/rescaled_final/1859_fw.mp4	0.0	192.67685508728027	2.492043972015381
13	166.76691794395447	pulse	1	t		11.0	2.5	/experiments/knapen_AOT/AOT_stimuli/rescaled_final/1859_fw.mp4	0.0	193.06090307235718	
13	168.36682987213135	pulse	1	t		11.0	2.5	/experiments/knapen_AOT/AOT_stimuli/rescaled_final/1859_fw.mp4	0.0	194.66081500053406	
13	168.87491393089294	fix_post	2		12	11.0	2.5	/experiments/knapen_AOT/AOT_stimuli/rescaled_final/1859_fw.mp4	0.0	195.16889905929565	0.10001707077026367
14	168.9749310016632	fix_pre	0		120	12.0	2.5	/experiments/knapen_AOT/AOT_stimuli/rescaled_final/0990_fw.mp4	0.0	195.26891613006592	1.0001399517059326
14	169.9669098854065	pulse	0	t		12.0	2.5	/experiments/knapen_AOT/AOT_stimuli/rescaled_final/0990_fw.mp4	0.0	196.2608950138092	
14	169.97507095336914	movie	1		245	12.0	2.5	/experiments/knapen_AOT/AOT_stimuli/rescaled_final/0990_fw.mp4	0.0	196.26905608177185	2.508715867996216
14	171.56780195236206	pulse	1	t		12.0	2.5	/experiments/knapen_AOT/AOT_stimuli/rescaled_final/0990_fw.mp4	0.0	197.86178708076477	
14	172.48378682136536	fix_post	2		12	12.0	2.5	/experiments/knapen_AOT/AOT_stimuli/rescaled_final/0990_fw.mp4	0.0	198.77777194976807	0.09999895095825195
15	172.5837857723236	fix_pre	0		120	13.0	2.5	blank	1.0	198.87777090072632	1.00018310546875
15	173.16738986968994	pulse	0	t		13.0	2.5	blank	1.0	199.46137499809265	
15	173.58396887779236	movie	1		300	13.0	2.5	blank	1.0	199.87795400619507	2.5003418922424316
15	174.76770877838135	pulse	1	t		13.0	2.5	blank	1.0	201.06169390678406	
15	176.0843107700348	fix_post	2		12	13.0	2.5	blank	1.0	202.3782958984375	0.09999513626098633
16	176.18430590629578	fix_pre	0		120	14.0	2.5	/experiments/knapen_AOT/AOT_stimuli/rescaled_final/1442_rv.mp4	0.0	202.4782910346985	1.0001659393310547
16	176.3679919242859	pulse	0	t		14.0	2.5	/experiments/knapen_AOT/AOT_stimuli/rescaled_final/1442_rv.mp4	0.0	202.6619770526886	
16	177.18447184562683	movie	1		244	14.0	2.5	/experiments/knapen_AOT/AOT_stimuli/rescaled_final/1442_rv.mp4	0.0	203.47845697402954	2.500380039215088
16	177.96814799308777	pulse	1	t		14.0	2.5	/experiments/knapen_AOT/AOT_stimuli/rescaled_final/1442_rv.mp4	0.0	204.26213312149048	
16	179.5700488090515	pulse	1	t		14.0	2.5	/experiments/knapen_AOT/AOT_stimuli/rescaled_final/1442_rv.mp4	0.0	205.86403393745422	
16	179.68485188484192	fix_post	2		12	14.0	2.5	/experiments/knapen_AOT/AOT_stimuli/rescaled_final/1442_rv.mp4	0.0	205.97883701324463	0.10001492500305176
17	179.78486680984497	fix_pre	0		120	15.0	2.5	/experiments/knapen_AOT/AOT_stimuli/rescaled_final/1088_fw.mp4	0.0	206.07885193824768	1.0001721382141113
17	180.78503894805908	movie	1		245	15.0	2.5	/experiments/knapen_AOT/AOT_stimuli/rescaled_final/1088_fw.mp4	0.0	207.0790240764618	2.49200701713562
17	181.16925883293152	pulse	1	t		15.0	2.5	/experiments/knapen_AOT/AOT_stimuli/rescaled_final/1088_fw.mp4	0.0	207.46324396133423	
17	182.768896818161	pulse	1	t		15.0	2.5	/experiments/knapen_AOT/AOT_stimuli/rescaled_final/1088_fw.mp4	0.0	209.06288194656372	
17	183.2770459651947	fix_post	2		12	15.0	2.5	/experiments/knapen_AOT/AOT_stimuli/rescaled_final/1088_fw.mp4	0.0	209.5710310935974	0.10001897811889648
18	183.3770649433136	fix_pre	0		120	16.0	2.5	/experiments/knapen_AOT/AOT_stimuli/rescaled_final/0074_fw.mp4	0.0	209.6710500717163	1.000187873840332
18	184.3691189289093	pulse	0	t		16.0	2.5	/experiments/knapen_AOT/AOT_stimuli/rescaled_final/0074_fw.mp4	0.0	210.663104057312	
18	184.37725281715393	movie	1		248	16.0	2.5	/experiments/knapen_AOT/AOT_stimuli/rescaled_final/0074_fw.mp4	0.0	210.67123794555664	2.5086510181427
18	185.97008895874023	pulse	1	t		16.0	2.5	/experiments/knapen_AOT/AOT_stimuli/rescaled_final/0074_fw.mp4	0.0	212.26407408714294	
18	186.88590383529663	fix_post	2		12	16.0	2.5	/experiments/knapen_AOT/AOT_stimuli/rescaled_final/0074_fw.mp4	0.0	213.17988896369934	0.10001206398010254
19	186.98591589927673	fix_pre	0		120	17.0	2.5	/experiments/knapen_AOT/AOT_stimuli/rescaled_final/0334_fw.mp4	0.0	213.27990102767944	1.000182867050171
19	187.56956696510315	pulse	0	t		17.0	2.5	/experiments/knapen_AOT/AOT_stimuli/rescaled_final/0334_fw.mp4	0.0	213.86355209350586	
19	187.9860987663269	movie	1		245	17.0	2.5	/experiments/knapen_AOT/AOT_stimuli/rescaled_final/0334_fw.mp4	0.0	214.28008389472961	2.5003490447998047
19	189.17001080513	pulse	1	t		17.0	2.5	/experiments/knapen_AOT/AOT_stimuli/rescaled_final/0334_fw.mp4	0.0	215.46399593353271	
19	190.4864478111267	fix_post	2		12	17.0	2.5	/experiments/knapen_AOT/AOT_stimuli/rescaled_final/0334_fw.mp4	0.0	216.78043293952942	0.1000361442565918
20	190.5864839553833	fix_pre	0		120	18.0	2.5	/experiments/knapen_AOT/AOT_stimuli/rescaled_final/1137_rv.mp4	0.0	216.880469083786	1.0001509189605713
20	190.76250982284546	pulse	0	t		18.0	2.5	/experiments/knapen_AOT/AOT_stimuli/rescaled_final/1137_rv.mp4	0.0	217.05649495124817	
20	191.58663487434387	movie	1		244	18.0	2.5	/experiments/knapen_AOT/AOT_stimuli/rescaled_final/1137_rv.mp4	0.0	217.88062000274658	2.5003490447998047
20	192.37034583091736	pulse	1	t		18.0	2.5	/experiments/knapen_AOT/AOT_stimuli/rescaled_final/1137_rv.mp4	0.0	218.66433095932007	
20	193.96239495277405	pulse	1	t		18.0	2.5	/experiments/knapen_AOT/AOT_stimuli/rescaled_final/1137_rv.mp4	0.0	220.25638008117676	
20	194.08698391914368	fix_post	2		12	18.0	2.5	/experiments/knapen_AOT/AOT_stimuli/rescaled_final/1137_rv.mp4	0.0	220.3809690475464	0.10002803802490234
21	194.18701195716858	fix_pre	0		120	19.0	2.5	blank	1.0	220.4809970855713	1.0001509189605713
21	195.18716287612915	movie	1		299	19.0	2.5	blank	1.0	221.48114800453186	2.492093086242676
21	195.56238889694214	pulse	1	t		19.0	2.5	blank	1.0	221.85637402534485	
21	197.16263699531555	pulse	1	t		19.0	2.5	blank	1.0	223.45662212371826	
21	197.67925596237183	fix_post	2		12	19.0	2.5	blank	1.0	223.97324109077454	0.09998202323913574
22	197.77923798561096	fix_pre	0		119	20.0	2.5	/experiments/knapen_AOT/AOT_stimuli/rescaled_final/1582_rv.mp4	0.0	224.07322311401367	0.9918007850646973
22	198.7629737854004	pulse	0	t		20.0	2.5	/experiments/knapen_AOT/AOT_stimuli/rescaled_final/1582_rv.mp4	0.0	225.0569589138031	
22	198.77103877067566	movie	1		244	20.0	2.5	/experiments/knapen_AOT/AOT_stimuli/rescaled_final/1582_rv.mp4	0.0	225.06502389907837	2.508709192276001
22	200.36434984207153	pulse	1	t		20.0	2.5	/experiments/knapen_AOT/AOT_stimuli/rescaled_final/1582_rv.mp4	0.0	226.65833497047424	
22	201.27974796295166	fix_post	2		12	20.0	2.5	/experiments/knapen_AOT/AOT_stimuli/rescaled_final/1582_rv.mp4	0.0	227.57373309135437	0.10000491142272949
23	201.3797528743744	fix_pre	0		120	21.0	2.5	/experiments/knapen_AOT/AOT_stimuli/rescaled_final/2004_fw.mp4	0.0	227.6737380027771	1.0001640319824219
23	201.96348690986633	pulse	0	t		21.0	2.5	/experiments/knapen_AOT/AOT_stimuli/rescaled_final/2004_fw.mp4	0.0	228.25747203826904	
23	202.3799169063568	movie	1		243	21.0	2.5	/experiments/knapen_AOT/AOT_stimuli/rescaled_final/2004_fw.mp4	0.0	228.67390203475952	2.5003559589385986
23	203.563658952713	pulse	1	t		21.0	2.5	/experiments/knapen_AOT/AOT_stimuli/rescaled_final/2004_fw.mp4	0.0	229.85764408111572	
23	204.8802728652954	fix_post	2		12	21.0	2.5	/experiments/knapen_AOT/AOT_stimuli/rescaled_final/2004_fw.mp4	0.0	231.17425799369812	0.1000831127166748
24	204.98035597801208	fix_pre	0		120	22.0	2.5	/experiments/knapen_AOT/AOT_stimuli/rescaled_final/1586_fw.mp4	0.0	231.2743411064148	1.0001089572906494
24	205.16384387016296	pulse	0	t		22.0	2.5	/experiments/knapen_AOT/AOT_stimuli/rescaled_final/1586_fw.mp4	0.0	231.45782899856567	
24	205.98046493530273	movie	1		243	22.0	2.5	/experiments/knapen_AOT/AOT_stimuli/rescaled_final/1586_fw.mp4	0.0	232.27445006370544	2.500324010848999
24	206.76405596733093	pulse	1	t		22.0	2.5	/experiments/knapen_AOT/AOT_stimuli/rescaled_final/1586_fw.mp4	0.0	233.05804109573364	
24	208.3642098903656	pulse	1	t		22.0	2.5	/experiments/knapen_AOT/AOT_stimuli/rescaled_final/1586_fw.mp4	0.0	234.6581950187683	
24	208.48078894615173	fix_post	2		12	22.0	2.5	/experiments/knapen_AOT/AOT_stimuli/rescaled_final/1586_fw.mp4	0.0	234.77477407455444	0.10004186630249023
25	208.58083081245422	fix_pre	0		120	23.0	2.5	/experiments/knapen_AOT/AOT_stimuli/rescaled_final/0937_rv.mp4	0.0	234.87481594085693	1.0001649856567383
25	209.58099579811096	movie	1		242	23.0	2.5	/experiments/knapen_AOT/AOT_stimuli/rescaled_final/0937_rv.mp4	0.0	235.87498092651367	2.4920120239257812
25	209.9650309085846	pulse	1	t		23.0	2.5	/experiments/knapen_AOT/AOT_stimuli/rescaled_final/0937_rv.mp4	0.0	236.2590160369873	
25	211.5647838115692	pulse	1	t		23.0	2.5	/experiments/knapen_AOT/AOT_stimuli/rescaled_final/0937_rv.mp4	0.0	237.85876893997192	
25	212.07300782203674	fix_post	2		12	23.0	2.5	/experiments/knapen_AOT/AOT_stimuli/rescaled_final/0937_rv.mp4	0.0	238.36699295043945	0.10004997253417969
26	212.17305779457092	fix_pre	0		120	24.0	2.5	/experiments/knapen_AOT/AOT_stimuli/rescaled_final/1783_rv.mp4	0.0	238.46704292297363	1.0001120567321777
26	213.16500091552734	pulse	0	t		24.0	2.5	/experiments/knapen_AOT/AOT_stimuli/rescaled_final/1783_rv.mp4	0.0	239.45898604393005	
26	213.1731698513031	movie	1		244	24.0	2.5	/experiments/knapen_AOT/AOT_stimuli/rescaled_final/1783_rv.mp4	0.0	239.4671549797058	2.508707046508789
26	214.76662492752075	pulse	1	t		24.0	2.5	/experiments/knapen_AOT/AOT_stimuli/rescaled_final/1783_rv.mp4	0.0	241.06061005592346	
26	215.6818768978119	fix_post	2		12	24.0	2.5	/experiments/knapen_AOT/AOT_stimuli/rescaled_final/1783_rv.mp4	0.0	241.9758620262146	0.10009598731994629
27	215.78197288513184	fix_pre	0		120	25.0	2.5	/experiments/knapen_AOT/AOT_stimuli/rescaled_final/0332_fw.mp4	0.0	242.07595801353455	1.0000898838043213
27	216.36562180519104	pulse	0	t		25.0	2.5	/experiments/knapen_AOT/AOT_stimuli/rescaled_final/0332_fw.mp4	0.0	242.65960693359375	
27	216.78206276893616	movie	1		248	25.0	2.5	/experiments/knapen_AOT/AOT_stimuli/rescaled_final/0332_fw.mp4	0.0	243.07604789733887	2.500490188598633
27	217.96595287322998	pulse	1	t		25.0	2.5	/experiments/knapen_AOT/AOT_stimuli/rescaled_final/0332_fw.mp4	0.0	244.2599380016327	
27	219.2825529575348	fix_post	2		12	25.0	2.5	/experiments/knapen_AOT/AOT_stimuli/rescaled_final/0332_fw.mp4	0.0	245.5765380859375	0.09988093376159668
28	219.3824338912964	fix_pre	0		120	26.0	2.5	blank	1.0	245.6764190196991	1.0001239776611328
28	219.5660629272461	pulse	0	t		26.0	2.5	blank	1.0	245.8600480556488	
28	220.38255786895752	movie	1		300	26.0	2.5	blank	1.0	246.67654299736023	2.5004289150238037
28	221.16624784469604	pulse	1	t		26.0	2.5	blank	1.0	247.46023297309875	
28	222.76646089553833	pulse	1	t		26.0	2.5	blank	1.0	249.06044602394104	
28	222.88298678398132	fix_post	2		12	26.0	2.5	blank	1.0	249.17697191238403	0.09997320175170898
29	222.98295998573303	fix_pre	0		120	27.0	2.5	/experiments/knapen_AOT/AOT_stimuli/rescaled_final/2157_rv.mp4	0.0	249.27694511413574	1.0001637935638428
29	223.98312377929688	movie	1		242	27.0	2.5	/experiments/knapen_AOT/AOT_stimuli/rescaled_final/2157_rv.mp4	0.0	250.27710890769958	2.492143154144287
29	224.36818099021912	pulse	1	t		27.0	2.5	/experiments/knapen_AOT/AOT_stimuli/rescaled_final/2157_rv.mp4	0.0	250.66216611862183	
29	225.96700477600098	pulse	1	t		27.0	2.5	/experiments/knapen_AOT/AOT_stimuli/rescaled_final/2157_rv.mp4	0.0	252.2609899044037	
29	226.47526693344116	fix_post	2		12	27.0	2.5	/experiments/knapen_AOT/AOT_stimuli/rescaled_final/2157_rv.mp4	0.0	252.76925206184387	0.09990096092224121
30	226.5751678943634	fix_pre	0		120	28.0	2.5	/experiments/knapen_AOT/AOT_stimuli/rescaled_final/1816_fw.mp4	0.0	252.8691530227661	1.0001790523529053
30	227.56717586517334	pulse	0	t		28.0	2.5	/experiments/knapen_AOT/AOT_stimuli/rescaled_final/1816_fw.mp4	0.0	253.86116099357605	
30	227.5753469467163	movie	1		242	28.0	2.5	/experiments/knapen_AOT/AOT_stimuli/rescaled_final/1816_fw.mp4	0.0	253.86933207511902	2.5087168216705322
30	229.17202877998352	pulse	1	t		28.0	2.5	/experiments/knapen_AOT/AOT_stimuli/rescaled_final/1816_fw.mp4	0.0	255.46601390838623	
30	230.08406376838684	fix_post	2		12	28.0	2.5	/experiments/knapen_AOT/AOT_stimuli/rescaled_final/1816_fw.mp4	0.0	256.37804889678955	0.09999704360961914
31	230.18406081199646	fix_pre	0		120	29.0	2.5	/experiments/knapen_AOT/AOT_stimuli/rescaled_final/1239_rv.mp4	0.0	256.47804594039917	1.0001301765441895
31	230.76780486106873	pulse	0	t		29.0	2.5	/experiments/knapen_AOT/AOT_stimuli/rescaled_final/1239_rv.mp4	0.0	257.06178998947144	
31	231.18419098854065	movie	1		244	29.0	2.5	/experiments/knapen_AOT/AOT_stimuli/rescaled_final/1239_rv.mp4	0.0	257.47817611694336	2.500412940979004
31	232.36810684204102	pulse	1	t		29.0	2.5	/experiments/knapen_AOT/AOT_stimuli/rescaled_final/1239_rv.mp4	0.0	258.6620919704437	
31	233.68460392951965	fix_post	2		12	29.0	2.5	/experiments/knapen_AOT/AOT_stimuli/rescaled_final/1239_rv.mp4	0.0	259.97858905792236	0.10001993179321289
32	233.78462386131287	fix_pre	0		120	30.0	2.5	/experiments/knapen_AOT/AOT_stimuli/rescaled_final/1239_fw.mp4	0.0	260.0786089897156	1.0001139640808105
32	233.96810483932495	pulse	0	t		30.0	2.5	/experiments/knapen_AOT/AOT_stimuli/rescaled_final/1239_fw.mp4	0.0	260.26208996772766	
32	234.78473782539368	movie	1		245	30.0	2.5	/experiments/knapen_AOT/AOT_stimuli/rescaled_final/1239_fw.mp4	0.0	261.0787229537964	2.500347137451172
32	235.568500995636	pulse	1	t		30.0	2.5	/experiments/knapen_AOT/AOT_stimuli/rescaled_final/1239_fw.mp4	0.0	261.8624861240387	
32	237.16627883911133	pulse	1	t		30.0	2.5	/experiments/knapen_AOT/AOT_stimuli/rescaled_final/1239_fw.mp4	0.0	263.46026396751404	
32	237.28508496284485	fix_post	2		12	30.0	2.5	/experiments/knapen_AOT/AOT_stimuli/rescaled_final/1239_fw.mp4	0.0	263.57907009124756	0.10004186630249023
33	237.38512682914734	fix_pre	0		120	31.0	2.5	/experiments/knapen_AOT/AOT_stimuli/rescaled_final/0513_fw.mp4	0.0	263.67911195755005	1.0001420974731445
33	238.38526892662048	movie	1		243	31.0	2.5	/experiments/knapen_AOT/AOT_stimuli/rescaled_final/0513_fw.mp4	0.0	264.6792540550232	2.4920239448547363
33	238.76956295967102	pulse	1	t		31.0	2.5	/experiments/knapen_AOT/AOT_stimuli/rescaled_final/0513_fw.mp4	0.0	265.06354808807373	
33	240.3690378665924	pulse	1	t		31.0	2.5	/experiments/knapen_AOT/AOT_stimuli/rescaled_final/0513_fw.mp4	0.0	266.6630229949951	
33	240.87729287147522	fix_post	2		12	31.0	2.5	/experiments/knapen_AOT/AOT_stimuli/rescaled_final/0513_fw.mp4	0.0	267.17127799987793	0.10002398490905762
34	240.97731685638428	fix_pre	0		120	32.0	2.5	/experiments/knapen_AOT/AOT_stimuli/rescaled_final/0110_rv.mp4	0.0	267.271301984787	1.0001721382141113
34	241.96934700012207	pulse	0	t		32.0	2.5	/experiments/knapen_AOT/AOT_stimuli/rescaled_final/0110_rv.mp4	0.0	268.2633321285248	
34	241.9774889945984	movie	1		245	32.0	2.5	/experiments/knapen_AOT/AOT_stimuli/rescaled_final/0110_rv.mp4	0.0	268.2714741230011	2.5087838172912598
34	243.5701129436493	pulse	1	t		32.0	2.5	/experiments/knapen_AOT/AOT_stimuli/rescaled_final/0110_rv.mp4	0.0	269.864098072052	
34	244.48627281188965	fix_post	2		12	32.0	2.5	/experiments/knapen_AOT/AOT_stimuli/rescaled_final/0110_rv.mp4	0.0	270.78025794029236	0.0999460220336914
35	244.58621883392334	fix_pre	0		120	33.0	2.5	/experiments/knapen_AOT/AOT_stimuli/rescaled_final/1273_fw.mp4	0.0	270.88020396232605	1.0001251697540283
35	245.16993498802185	pulse	0	t		33.0	2.5	/experiments/knapen_AOT/AOT_stimuli/rescaled_final/1273_fw.mp4	0.0	271.46392011642456	
35	245.58634400367737	movie	1		246	33.0	2.5	/experiments/knapen_AOT/AOT_stimuli/rescaled_final/1273_fw.mp4	0.0	271.8803291320801	2.500391960144043
35	246.77008891105652	pulse	1	t		33.0	2.5	/experiments/knapen_AOT/AOT_stimuli/rescaled_final/1273_fw.mp4	0.0	273.06407403945923	
35	248.0867359638214	fix_post	2		12	33.0	2.5	/experiments/knapen_AOT/AOT_stimuli/rescaled_final/1273_fw.mp4	0.0	274.3807210922241	0.09999895095825195
36	248.18673491477966	fix_pre	0		120	34.0	2.5	blank	1.0	274.4807200431824	1.0001659393310547
36	248.36283087730408	pulse	0	t		34.0	2.5	blank	1.0	274.6568160057068	
36	249.18690085411072	movie	1		300	34.0	2.5	blank	1.0	275.4808859825134	2.500373125076294
36	249.9629328250885	pulse	1	t		34.0	2.5	blank	1.0	276.2569179534912	
36	251.5632839202881	pulse	1	t		34.0	2.5	blank	1.0	277.8572690486908	
36	251.687273979187	fix_post	2		12	34.0	2.5	blank	1.0	277.9812591075897	0.09999489784240723
37	251.78726887702942	fix_pre	0		119	35.0	2.5	/experiments/knapen_AOT/AOT_stimuli/rescaled_final/0844_fw.mp4	0.0	278.08125400543213	0.9918129444122314
37	252.77908182144165	movie	1		247	35.0	2.5	/experiments/knapen_AOT/AOT_stimuli/rescaled_final/0844_fw.mp4	0.0	279.07306694984436	2.5003700256347656
37	253.16386890411377	pulse	1	t		35.0	2.5	/experiments/knapen_AOT/AOT_stimuli/rescaled_final/0844_fw.mp4	0.0	279.4578540325165	
37	254.76389288902283	pulse	1	t		35.0	2.5	/experiments/knapen_AOT/AOT_stimuli/rescaled_final/0844_fw.mp4	0.0	281.05787801742554	
37	255.27945184707642	fix_post	2		12	35.0	2.5	/experiments/knapen_AOT/AOT_stimuli/rescaled_final/0844_fw.mp4	0.0	281.5734369754791	0.10003209114074707
38	255.37948393821716	fix_pre	0		119	36.0	2.5	/experiments/knapen_AOT/AOT_stimuli/rescaled_final/0166_fw.mp4	0.0	281.6734690666199	0.9918479919433594
38	256.36317896842957	pulse	0	t		36.0	2.5	/experiments/knapen_AOT/AOT_stimuli/rescaled_final/0166_fw.mp4	0.0	282.6571640968323	
38	256.3713319301605	movie	1		245	36.0	2.5	/experiments/knapen_AOT/AOT_stimuli/rescaled_final/0166_fw.mp4	0.0	282.66531705856323	2.508681058883667
38	257.96453380584717	pulse	1	t		36.0	2.5	/experiments/knapen_AOT/AOT_stimuli/rescaled_final/0166_fw.mp4	0.0	284.2585189342499	
38	258.8800129890442	fix_post	2		12	36.0	2.5	/experiments/knapen_AOT/AOT_stimuli/rescaled_final/0166_fw.mp4	0.0	285.1739981174469	0.09999990463256836
39	258.98001289367676	fix_pre	0		120	37.0	2.5	/experiments/knapen_AOT/AOT_stimuli/rescaled_final/0590_fw.mp4	0.0	285.27399802207947	1.0001299381256104
39	259.56371688842773	pulse	0	t		37.0	2.5	/experiments/knapen_AOT/AOT_stimuli/rescaled_final/0590_fw.mp4	0.0	285.85770201683044	
39	259.98014283180237	movie	1		246	37.0	2.5	/experiments/knapen_AOT/AOT_stimuli/rescaled_final/0590_fw.mp4	0.0	286.2741279602051	2.5003631114959717
39	261.1640319824219	pulse	1	t		37.0	2.5	/experiments/knapen_AOT/AOT_stimuli/rescaled_final/0590_fw.mp4	0.0	287.4580171108246	
39	262.48050594329834	fix_post	2		12	37.0	2.5	/experiments/knapen_AOT/AOT_stimuli/rescaled_final/0590_fw.mp4	0.0	288.77449107170105	0.10004782676696777
40	262.5805537700653	fix_pre	0		120	38.0	2.5	/experiments/knapen_AOT/AOT_stimuli/rescaled_final/1137_fw.mp4	0.0	288.874538898468	1.0001780986785889
40	262.7640538215637	pulse	0	t		38.0	2.5	/experiments/knapen_AOT/AOT_stimuli/rescaled_final/1137_fw.mp4	0.0	289.05803894996643	
40	263.5807318687439	movie	1		244	38.0	2.5	/experiments/knapen_AOT/AOT_stimuli/rescaled_final/1137_fw.mp4	0.0	289.8747169971466	2.500298023223877
40	264.36431789398193	pulse	1	t		38.0	2.5	/experiments/knapen_AOT/AOT_stimuli/rescaled_final/1137_fw.mp4	0.0	290.65830302238464	
40	265.96453976631165	pulse	1	t		38.0	2.5	/experiments/knapen_AOT/AOT_stimuli/rescaled_final/1137_fw.mp4	0.0	292.25852489471436	
40	266.0810298919678	fix_post	2		12	38.0	2.5	/experiments/knapen_AOT/AOT_stimuli/rescaled_final/1137_fw.mp4	0.0	292.3750150203705	0.10006904602050781
41	266.1810989379883	fix_pre	0		119	39.0	2.5	/experiments/knapen_AOT/AOT_stimuli/rescaled_final/0209_fw.mp4	0.0	292.475084066391	0.9917819499969482
41	267.17288088798523	movie	1		246	39.0	2.5	/experiments/knapen_AOT/AOT_stimuli/rescaled_final/0209_fw.mp4	0.0	293.46686601638794	2.5003819465637207
41	267.56499195098877	pulse	1	t		39.0	2.5	/experiments/knapen_AOT/AOT_stimuli/rescaled_final/0209_fw.mp4	0.0	293.8589770793915	
41	269.1650388240814	pulse	1	t		39.0	2.5	/experiments/knapen_AOT/AOT_stimuli/rescaled_final/0209_fw.mp4	0.0	295.45902395248413	
41	269.67326283454895	fix_post	2		12	39.0	2.5	/experiments/knapen_AOT/AOT_stimuli/rescaled_final/0209_fw.mp4	0.0	295.96724796295166	0.10002398490905762
42	269.773286819458	fix_pre	0		120	40.0	2.5	blank	1.0	296.0672719478607	1.0001471042633057
42	270.76530289649963	pulse	0	t		40.0	2.5	blank	1.0	297.05928802490234	
42	270.7734339237213	movie	1		301	40.0	2.5	blank	1.0	297.067419052124	2.50875186920166
42	272.36550092697144	pulse	1	t		40.0	2.5	blank	1.0	298.65948605537415	
42	273.282185792923	fix_post	2		12	40.0	2.5	blank	1.0	299.5761709213257	0.09997105598449707
43	273.38215684890747	fix_pre	0		120	41.0	2.5	/experiments/knapen_AOT/AOT_stimuli/rescaled_final/0023_rv.mp4	0.0	299.6761419773102	1.0001680850982666
43	273.965824842453	pulse	0	t		41.0	2.5	/experiments/knapen_AOT/AOT_stimuli/rescaled_final/0023_rv.mp4	0.0	300.2598099708557	
43	274.38232493400574	movie	1		244	41.0	2.5	/experiments/knapen_AOT/AOT_stimuli/rescaled_final/0023_rv.mp4	0.0	300.67631006240845	2.5003609657287598
43	275.5660889148712	pulse	1	t		41.0	2.5	/experiments/knapen_AOT/AOT_stimuli/rescaled_final/0023_rv.mp4	0.0	301.8600740432739	
43	276.8826858997345	fix_post	2		12	41.0	2.5	/experiments/knapen_AOT/AOT_stimuli/rescaled_final/0023_rv.mp4	0.0	303.1766710281372	0.09997296333312988
44	276.9826588630676	fix_pre	0		120	42.0	2.5	/experiments/knapen_AOT/AOT_stimuli/rescaled_final/1101_rv.mp4	0.0	303.27664399147034	1.0001721382141113
44	277.16628098487854	pulse	0	t		42.0	2.5	/experiments/knapen_AOT/AOT_stimuli/rescaled_final/1101_rv.mp4	0.0	303.46026611328125	
44	277.98283100128174	movie	1		244	42.0	2.5	/experiments/knapen_AOT/AOT_stimuli/rescaled_final/1101_rv.mp4	0.0	304.27681612968445	2.5004398822784424
44	278.7665309906006	pulse	1	t		42.0	2.5	/experiments/knapen_AOT/AOT_stimuli/rescaled_final/1101_rv.mp4	0.0	305.0605161190033	
44	280.36685395240784	pulse	1	t		42.0	2.5	/experiments/knapen_AOT/AOT_stimuli/rescaled_final/1101_rv.mp4	0.0	306.66083908081055	
44	280.4832708835602	fix_post	2		12	42.0	2.5	/experiments/knapen_AOT/AOT_stimuli/rescaled_final/1101_rv.mp4	0.0	306.7772560119629	0.09995388984680176
45	280.583224773407	fix_pre	0		120	43.0	2.5	/experiments/knapen_AOT/AOT_stimuli/rescaled_final/0590_rv.mp4	0.0	306.8772099018097	1.0001661777496338
45	281.5833909511566	movie	1		244	43.0	2.5	/experiments/knapen_AOT/AOT_stimuli/rescaled_final/0590_rv.mp4	0.0	307.8773760795593	2.492020845413208
45	281.96760177612305	pulse	1	t		43.0	2.5	/experiments/knapen_AOT/AOT_stimuli/rescaled_final/0590_rv.mp4	0.0	308.26158690452576	
45	283.56732296943665	pulse	1	t		43.0	2.5	/experiments/knapen_AOT/AOT_stimuli/rescaled_final/0590_rv.mp4	0.0	309.86130809783936	
45	284.0754117965698	fix_post	2		12	43.0	2.5	/experiments/knapen_AOT/AOT_stimuli/rescaled_final/0590_rv.mp4	0.0	310.36939692497253	0.10002017021179199
46	284.1754319667816	fix_pre	0		120	44.0	2.5	/experiments/knapen_AOT/AOT_stimuli/rescaled_final/0034_rv.mp4	0.0	310.4694170951843	1.000190019607544
46	285.1675570011139	pulse	0	t		44.0	2.5	/experiments/knapen_AOT/AOT_stimuli/rescaled_final/0034_rv.mp4	0.0	311.4615421295166	
46	285.17562198638916	movie	1		244	44.0	2.5	/experiments/knapen_AOT/AOT_stimuli/rescaled_final/0034_rv.mp4	0.0	311.46960711479187	2.5087788105010986
46	286.76836585998535	pulse	1	t		44.0	2.5	/experiments/knapen_AOT/AOT_stimuli/rescaled_final/0034_rv.mp4	0.0	313.06235098838806	
46	287.68440079689026	fix_post	2		12	44.0	2.5	/experiments/knapen_AOT/AOT_stimuli/rescaled_final/0034_rv.mp4	0.0	313.97838592529297	0.09991216659545898
47	287.7843129634857	fix_pre	0		120	45.0	2.5	/experiments/knapen_AOT/AOT_stimuli/rescaled_final/0188_rv.mp4	0.0	314.0782980918884	1.0001368522644043
47	288.3679828643799	pulse	0	t		45.0	2.5	/experiments/knapen_AOT/AOT_stimuli/rescaled_final/0188_rv.mp4	0.0	314.6619679927826	
47	288.7844498157501	movie	1		241	45.0	2.5	/experiments/knapen_AOT/AOT_stimuli/rescaled_final/0188_rv.mp4	0.0	315.07843494415283	2.5003771781921387
47	289.9682538509369	pulse	1	t		45.0	2.5	/experiments/knapen_AOT/AOT_stimuli/rescaled_final/0188_rv.mp4	0.0	316.2622389793396	
47	291.28482699394226	fix_post	2		12	45.0	2.5	/experiments/knapen_AOT/AOT_stimuli/rescaled_final/0188_rv.mp4	0.0	317.57881212234497	0.10000085830688477
48	291.38482785224915	fix_pre	0		120	46.0	2.5	/experiments/knapen_AOT/AOT_stimuli/rescaled_final/2178_fw.mp4	0.0	317.67881298065186	1.0001559257507324
48	291.56848096847534	pulse	0	t		46.0	2.5	/experiments/knapen_AOT/AOT_stimuli/rescaled_final/2178_fw.mp4	0.0	317.86246609687805	
48	292.3849837779999	movie	1		243	46.0	2.5	/experiments/knapen_AOT/AOT_stimuli/rescaled_final/2178_fw.mp4	0.0	318.6789689064026	2.5003662109375
48	293.16867780685425	pulse	1	t		46.0	2.5	/experiments/knapen_AOT/AOT_stimuli/rescaled_final/2178_fw.mp4	0.0	319.46266293525696	
48	294.76880383491516	pulse	1	t		46.0	2.5	/experiments/knapen_AOT/AOT_stimuli/rescaled_final/2178_fw.mp4	0.0	321.06278896331787	
48	294.8853499889374	fix_post	2		12	46.0	2.5	/experiments/knapen_AOT/AOT_stimuli/rescaled_final/2178_fw.mp4	0.0	321.1793351173401	0.1000359058380127
49	294.9853858947754	fix_pre	0		120	47.0	2.5	blank	1.0	321.2793710231781	1.0001370906829834
49	295.9855229854584	movie	1		299	47.0	2.5	blank	1.0	322.2795081138611	2.492050886154175
49	296.36907386779785	pulse	1	t		47.0	2.5	blank	1.0	322.66305899620056	
49	297.9694838523865	pulse	1	t		47.0	2.5	blank	1.0	324.2634689807892	
49	298.47757387161255	fix_post	2		12	47.0	2.5	blank	1.0	324.77155900001526	0.0999910831451416
50	298.5775649547577	fix_pre	0		120	48.0	2.5	/experiments/knapen_AOT/AOT_stimuli/rescaled_final/0609_fw.mp4	0.0	324.8715500831604	1.0002529621124268
50	299.56974482536316	pulse	0	t		48.0	2.5	/experiments/knapen_AOT/AOT_stimuli/rescaled_final/0609_fw.mp4	0.0	325.86372995376587	
50	299.5778179168701	movie	1		246	48.0	2.5	/experiments/knapen_AOT/AOT_stimuli/rescaled_final/0609_fw.mp4	0.0	325.8718030452728	2.508589029312134
50	301.1709988117218	pulse	1	t		48.0	2.5	/experiments/knapen_AOT/AOT_stimuli/rescaled_final/0609_fw.mp4	0.0	327.4649839401245	
50	302.08640694618225	fix_post	2		12	48.0	2.5	/experiments/knapen_AOT/AOT_stimuli/rescaled_final/0609_fw.mp4	0.0	328.38039207458496	0.1001279354095459
51	302.1865348815918	fix_pre	0		120	49.0	2.5	/experiments/knapen_AOT/AOT_stimuli/rescaled_final/0376_fw.mp4	0.0	328.4805200099945	1.0000278949737549
51	302.76266384124756	pulse	0	t		49.0	2.5	/experiments/knapen_AOT/AOT_stimuli/rescaled_final/0376_fw.mp4	0.0	329.05664896965027	
51	303.18656277656555	movie	1		244	49.0	2.5	/experiments/knapen_AOT/AOT_stimuli/rescaled_final/0376_fw.mp4	0.0	329.48054790496826	2.5004122257232666
51	304.36273288726807	pulse	1	t		49.0	2.5	/experiments/knapen_AOT/AOT_stimuli/rescaled_final/0376_fw.mp4	0.0	330.6567180156708	
51	305.6869750022888	fix_post	2		12	49.0	2.5	/experiments/knapen_AOT/AOT_stimuli/rescaled_final/0376_fw.mp4	0.0	331.9809601306915	0.10002994537353516
52	305.78700494766235	fix_pre	0		120	50.0	2.5	/experiments/knapen_AOT/AOT_stimuli/rescaled_final/1859_fw.mp4	0.0	332.08099007606506	1.000135898590088
52	305.96308493614197	pulse	0	t		50.0	2.5	/experiments/knapen_AOT/AOT_stimuli/rescaled_final/1859_fw.mp4	0.0	332.2570700645447	
52	306.78714084625244	movie	1		243	50.0	2.5	/experiments/knapen_AOT/AOT_stimuli/rescaled_final/1859_fw.mp4	0.0	333.08112597465515	2.5003609657287598
52	307.5633268356323	pulse	1	t		50.0	2.5	/experiments/knapen_AOT/AOT_stimuli/rescaled_final/1859_fw.mp4	0.0	333.85731196403503	
52	309.1627388000488	pulse	1	t		50.0	2.5	/experiments/knapen_AOT/AOT_stimuli/rescaled_final/1859_fw.mp4	0.0	335.45672392845154	
52	309.2875018119812	fix_post	2		12	50.0	2.5	/experiments/knapen_AOT/AOT_stimuli/rescaled_final/1859_fw.mp4	0.0	335.5814869403839	0.10001516342163086
53	309.38751697540283	fix_pre	0		120	51.0	2.5	/experiments/knapen_AOT/AOT_stimuli/rescaled_final/1694_fw.mp4	0.0	335.68150210380554	1.0001089572906494
53	310.3876259326935	movie	1		242	51.0	2.5	/experiments/knapen_AOT/AOT_stimuli/rescaled_final/1694_fw.mp4	0.0	336.6816110610962	2.492076873779297
53	310.7628707885742	pulse	1	t		51.0	2.5	/experiments/knapen_AOT/AOT_stimuli/rescaled_final/1694_fw.mp4	0.0	337.05685591697693	
53	312.363294839859	pulse	1	t		51.0	2.5	/experiments/knapen_AOT/AOT_stimuli/rescaled_final/1694_fw.mp4	0.0	338.6572799682617	
53	312.8797028064728	fix_post	2		12	51.0	2.5	/experiments/knapen_AOT/AOT_stimuli/rescaled_final/1694_fw.mp4	0.0	339.1736879348755	0.10002708435058594
54	312.97972989082336	fix_pre	0		119	52.0	2.5	/experiments/knapen_AOT/AOT_stimuli/rescaled_final/1669_rv.mp4	0.0	339.2737150192261	0.9918100833892822
54	313.96347093582153	pulse	0	t		52.0	2.5	/experiments/knapen_AOT/AOT_stimuli/rescaled_final/1669_rv.mp4	0.0	340.25745606422424	
54	313.97153997421265	movie	1		246	52.0	2.5	/experiments/knapen_AOT/AOT_stimuli/rescaled_final/1669_rv.mp4	0.0	340.26552510261536	2.508755922317505
54	315.564181804657	pulse	1	t		52.0	2.5	/experiments/knapen_AOT/AOT_stimuli/rescaled_final/1669_rv.mp4	0.0	341.8581669330597	
54	316.48029589653015	fix_post	2		12	52.0	2.5	/experiments/knapen_AOT/AOT_stimuli/rescaled_final/1669_rv.mp4	0.0	342.77428102493286	0.09996294975280762
55	316.58025884628296	fix_pre	0		120	53.0	2.5	/experiments/knapen_AOT/AOT_stimuli/rescaled_final/2176_fw.mp4	0.0	342.87424397468567	1.0001521110534668
55	317.1639578342438	pulse	0	t		53.0	2.5	/experiments/knapen_AOT/AOT_stimuli/rescaled_final/2176_fw.mp4	0.0	343.4579429626465	
55	317.5804109573364	movie	1		245	53.0	2.5	/experiments/knapen_AOT/AOT_stimuli/rescaled_final/2176_fw.mp4	0.0	343.87439608573914	2.5003838539123535
55	318.76417899131775	pulse	1	t		53.0	2.5	/experiments/knapen_AOT/AOT_stimuli/rescaled_final/2176_fw.mp4	0.0	345.05816411972046	
55	320.0807948112488	fix_post	2		12	53.0	2.5	/experiments/knapen_AOT/AOT_stimuli/rescaled_final/2176_fw.mp4	0.0	346.3747799396515	0.10004711151123047
56	320.18084192276	fix_pre	0		120	54.0	2.5	/experiments/knapen_AOT/AOT_stimuli/rescaled_final/1386_fw.mp4	0.0	346.4748270511627	1.0001130104064941
56	320.36433577537537	pulse	0	t		54.0	2.5	/experiments/knapen_AOT/AOT_stimuli/rescaled_final/1386_fw.mp4	0.0	346.6583209037781	
56	321.1809549331665	movie	1		243	54.0	2.5	/experiments/knapen_AOT/AOT_stimuli/rescaled_final/1386_fw.mp4	0.0	347.4749400615692	2.5003750324249268
56	321.9646968841553	pulse	1	t		54.0	2.5	/experiments/knapen_AOT/AOT_stimuli/rescaled_final/1386_fw.mp4	0.0	348.258682012558	
56	323.5647599697113	pulse	1	t		54.0	2.5	/experiments/knapen_AOT/AOT_stimuli/rescaled_final/1386_fw.mp4	0.0	349.858745098114	
56	323.68132996559143	fix_post	2		12	54.0	2.5	/experiments/knapen_AOT/AOT_stimuli/rescaled_final/1386_fw.mp4	0.0	349.97531509399414	0.10005402565002441
57	323.78138399124146	fix_pre	0		120	55.0	2.5	/experiments/knapen_AOT/AOT_stimuli/rescaled_final/0166_fw.mp4	0.0	350.07536911964417	1.0001318454742432
57	324.7815158367157	movie	1		242	55.0	2.5	/experiments/knapen_AOT/AOT_stimuli/rescaled_final/0166_fw.mp4	0.0	351.0755009651184	2.4920380115509033
57	325.1656517982483	pulse	1	t		55.0	2.5	/experiments/knapen_AOT/AOT_stimuli/rescaled_final/0166_fw.mp4	0.0	351.459636926651	
57	326.7654678821564	pulse	1	t		55.0	2.5	/experiments/knapen_AOT/AOT_stimuli/rescaled_final/0166_fw.mp4	0.0	353.0594530105591	
57	327.2735538482666	fix_post	2		12	55.0	2.5	/experiments/knapen_AOT/AOT_stimuli/rescaled_final/0166_fw.mp4	0.0	353.5675389766693	0.09998798370361328
58	327.3735418319702	fix_pre	0		120	56.0	2.5	blank	1.0	353.6675269603729	1.0001699924468994
58	328.3656859397888	pulse	0	t		56.0	2.5	blank	1.0	354.6596710681915	
58	328.3737118244171	movie	1		301	56.0	2.5	blank	1.0	354.6676969528198	2.508708953857422
58	329.9658999443054	pulse	1	t		56.0	2.5	blank	1.0	356.25988507270813	
58	330.88242077827454	fix_post	2		12	56.0	2.5	blank	1.0	357.17640590667725	0.10004401206970215
59	330.98246479034424	fix_pre	0		120	57.0	2.5	/experiments/knapen_AOT/AOT_stimuli/rescaled_final/1036_fw.mp4	0.0	357.27644991874695	1.000108003616333
59	331.5660328865051	pulse	0	t		57.0	2.5	/experiments/knapen_AOT/AOT_stimuli/rescaled_final/1036_fw.mp4	0.0	357.86001801490784	
59	331.98257279396057	movie	1		243	57.0	2.5	/experiments/knapen_AOT/AOT_stimuli/rescaled_final/1036_fw.mp4	0.0	358.2765579223633	2.5003581047058105
59	333.1664218902588	pulse	1	t		57.0	2.5	/experiments/knapen_AOT/AOT_stimuli/rescaled_final/1036_fw.mp4	0.0	359.4604070186615	
59	334.4829308986664	fix_post	2		12	57.0	2.5	/experiments/knapen_AOT/AOT_stimuli/rescaled_final/1036_fw.mp4	0.0	360.7769160270691	0.10001802444458008
60	334.58294892311096	fix_pre	0		120	58.0	2.5	/experiments/knapen_AOT/AOT_stimuli/rescaled_final/0951_fw.mp4	0.0	360.8769340515137	1.00016188621521
60	334.766578912735	pulse	0	t		58.0	2.5	/experiments/knapen_AOT/AOT_stimuli/rescaled_final/0951_fw.mp4	0.0	361.0605640411377	
60	335.5831108093262	movie	1		244	58.0	2.5	/experiments/knapen_AOT/AOT_stimuli/rescaled_final/0951_fw.mp4	0.0	361.8770959377289	2.500462055206299
60	336.36684679985046	pulse	1	t		58.0	2.5	/experiments/knapen_AOT/AOT_stimuli/rescaled_final/0951_fw.mp4	0.0	362.6608319282532	
60	337.964567899704	pulse	1	t		58.0	2.5	/experiments/knapen_AOT/AOT_stimuli/rescaled_final/0951_fw.mp4	0.0	364.2585530281067	
60	338.08357286453247	fix_post	2		12	58.0	2.5	/experiments/knapen_AOT/AOT_stimuli/rescaled_final/0951_fw.mp4	0.0	364.3775579929352	0.09991192817687988
61	338.18348479270935	fix_pre	0		120	59.0	2.5	/experiments/knapen_AOT/AOT_stimuli/rescaled_final/0003_rv.mp4	0.0	364.47746992111206	1.0001540184020996
61	339.18363881111145	movie	1		245	59.0	2.5	/experiments/knapen_AOT/AOT_stimuli/rescaled_final/0003_rv.mp4	0.0	365.47762393951416	2.4920690059661865
61	339.5677559375763	pulse	1	t		59.0	2.5	/experiments/knapen_AOT/AOT_stimuli/rescaled_final/0003_rv.mp4	0.0	365.861741065979	
61	341.16760993003845	pulse	1	t		59.0	2.5	/experiments/knapen_AOT/AOT_stimuli/rescaled_final/0003_rv.mp4	0.0	367.46159505844116	
61	341.67570781707764	fix_post	2		12	59.0	2.5	/experiments/knapen_AOT/AOT_stimuli/rescaled_final/0003_rv.mp4	0.0	367.96969294548035	0.09999513626098633
62	341.7757029533386	fix_pre	0		120	60.0	2.5	/experiments/knapen_AOT/AOT_stimuli/rescaled_final/0566_rv.mp4	0.0	368.06968808174133	1.0001649856567383
62	342.7678208351135	pulse	0	t		60.0	2.5	/experiments/knapen_AOT/AOT_stimuli/rescaled_final/0566_rv.mp4	0.0	369.06180596351624	
62	342.77586793899536	movie	1		245	60.0	2.5	/experiments/knapen_AOT/AOT_stimuli/rescaled_final/0566_rv.mp4	0.0	369.06985306739807	2.5086419582366943
62	344.3724138736725	pulse	1	t		60.0	2.5	/experiments/knapen_AOT/AOT_stimuli/rescaled_final/0566_rv.mp4	0.0	370.6663990020752	
62	345.28450989723206	fix_post	2		12	60.0	2.5	/experiments/knapen_AOT/AOT_stimuli/rescaled_final/0566_rv.mp4	0.0	371.57849502563477	0.10001301765441895
63	345.3845229148865	fix_pre	0		120	61.0	2.5	/experiments/knapen_AOT/AOT_stimuli/rescaled_final/2126_fw.mp4	0.0	371.6785080432892	1.0002250671386719
63	345.9681568145752	pulse	0	t		61.0	2.5	/experiments/knapen_AOT/AOT_stimuli/rescaled_final/2126_fw.mp4	0.0	372.2621419429779	
63	346.38474798202515	movie	1		244	61.0	2.5	/experiments/knapen_AOT/AOT_stimuli/rescaled_final/2126_fw.mp4	0.0	372.67873311042786	2.5003299713134766
63	347.5644178390503	pulse	1	t		61.0	2.5	/experiments/knapen_AOT/AOT_stimuli/rescaled_final/2126_fw.mp4	0.0	373.858402967453	
63	348.8850779533386	fix_post	2		12	61.0	2.5	/experiments/knapen_AOT/AOT_stimuli/rescaled_final/2126_fw.mp4	0.0	375.17906308174133	0.09998488426208496
64	348.9850628376007	fix_pre	0		120	62.0	2.5	blank	1.0	375.2790479660034	1.0001699924468994
64	349.16876697540283	pulse	0	t		62.0	2.5	blank	1.0	375.46275210380554	
64	349.9852328300476	movie	1		300	62.0	2.5	blank	1.0	376.2792179584503	2.535304069519043
64	350.7690358161926	pulse	1	t		62.0	2.5	blank	1.0	377.06302094459534	
64	352.36909079551697	pulse	1	t		62.0	2.5	blank	1.0	378.6630759239197	
64	352.52053689956665	fix_post	2		8	62.0	2.5	blank	1.0	378.81452202796936	0.0651090145111084
65	352.58564591407776	fix_pre	0		120	63.0	2.5	/experiments/knapen_AOT/AOT_stimuli/rescaled_final/0260_rv.mp4	0.0	378.87963104248047	1.0001749992370605
65	353.5858209133148	movie	1		245	63.0	2.5	/experiments/knapen_AOT/AOT_stimuli/rescaled_final/0260_rv.mp4	0.0	379.87980604171753	2.492011070251465
65	353.9704818725586	pulse	1	t		63.0	2.5	/experiments/knapen_AOT/AOT_stimuli/rescaled_final/0260_rv.mp4	0.0	380.2644670009613	
65	355.56981086730957	pulse	1	t		63.0	2.5	/experiments/knapen_AOT/AOT_stimuli/rescaled_final/0260_rv.mp4	0.0	381.8637959957123	
65	356.0778319835663	fix_post	2		12	63.0	2.5	/experiments/knapen_AOT/AOT_stimuli/rescaled_final/0260_rv.mp4	0.0	382.371817111969	0.09998679161071777
66	356.177818775177	fix_pre	0		120	64.0	2.5	/experiments/knapen_AOT/AOT_stimuli/rescaled_final/1670_fw.mp4	0.0	382.4718039035797	1.0001611709594727
66	357.1699929237366	pulse	0	t		64.0	2.5	/experiments/knapen_AOT/AOT_stimuli/rescaled_final/1670_fw.mp4	0.0	383.4639780521393	
66	357.1779799461365	movie	1		246	64.0	2.5	/experiments/knapen_AOT/AOT_stimuli/rescaled_final/1670_fw.mp4	0.0	383.4719650745392	2.5086588859558105
66	358.77093482017517	pulse	1	t		64.0	2.5	/experiments/knapen_AOT/AOT_stimuli/rescaled_final/1670_fw.mp4	0.0	385.0649199485779	
66	359.6866388320923	fix_post	2		12	64.0	2.5	/experiments/knapen_AOT/AOT_stimuli/rescaled_final/1670_fw.mp4	0.0	385.980623960495	0.10009098052978516
67	359.78672981262207	fix_pre	0		120	65.0	2.5	/experiments/knapen_AOT/AOT_stimuli/rescaled_final/0785_rv.mp4	0.0	386.0807149410248	1.000133991241455
67	360.3703999519348	pulse	0	t		65.0	2.5	/experiments/knapen_AOT/AOT_stimuli/rescaled_final/0785_rv.mp4	0.0	386.6643850803375	
67	360.7868638038635	movie	1		245	65.0	2.5	/experiments/knapen_AOT/AOT_stimuli/rescaled_final/0785_rv.mp4	0.0	387.08084893226624	2.5003371238708496
67	361.96326994895935	pulse	1	t		65.0	2.5	/experiments/knapen_AOT/AOT_stimuli/rescaled_final/0785_rv.mp4	0.0	388.25725507736206	
67	363.2872009277344	fix_post	2		12	65.0	2.5	/experiments/knapen_AOT/AOT_stimuli/rescaled_final/0785_rv.mp4	0.0	389.5811860561371	0.10006284713745117
68	363.3872637748718	fix_pre	0		120	66.0	2.5	/experiments/knapen_AOT/AOT_stimuli/rescaled_final/1900_fw.mp4	0.0	389.68124890327454	1.0001602172851562
68	363.56331276893616	pulse	0	t		66.0	2.5	/experiments/knapen_AOT/AOT_stimuli/rescaled_final/1900_fw.mp4	0.0	389.85729789733887	
68	364.387423992157	movie	1		244	66.0	2.5	/experiments/knapen_AOT/AOT_stimuli/rescaled_final/1900_fw.mp4	0.0	390.6814091205597	2.5003209114074707
68	365.1636619567871	pulse	1	t		66.0	2.5	/experiments/knapen_AOT/AOT_stimuli/rescaled_final/1900_fw.mp4	0.0	391.4576470851898	
68	366.7712697982788	pulse	1	t		66.0	2.5	/experiments/knapen_AOT/AOT_stimuli/rescaled_final/1900_fw.mp4	0.0	393.0652549266815	
68	366.88774490356445	fix_post	2		12	66.0	2.5	/experiments/knapen_AOT/AOT_stimuli/rescaled_final/1900_fw.mp4	0.0	393.18173003196716	0.10004901885986328
69	366.9877939224243	fix_pre	0		120	67.0	2.5	/experiments/knapen_AOT/AOT_stimuli/rescaled_final/0290_fw.mp4	0.0	393.281779050827	1.0001568794250488
69	367.98795080184937	movie	1		245	67.0	2.5	/experiments/knapen_AOT/AOT_stimuli/rescaled_final/0290_fw.mp4	0.0	394.2819359302521	2.49202299118042
69	368.37270879745483	pulse	1	t		67.0	2.5	/experiments/knapen_AOT/AOT_stimuli/rescaled_final/0290_fw.mp4	0.0	394.66669392585754	
69	369.96364879608154	pulse	1	t		67.0	2.5	/experiments/knapen_AOT/AOT_stimuli/rescaled_final/0290_fw.mp4	0.0	396.25763392448425	
69	370.4799737930298	fix_post	2		12	67.0	2.5	/experiments/knapen_AOT/AOT_stimuli/rescaled_final/0290_fw.mp4	0.0	396.7739589214325	0.10002303123474121
70	370.5799968242645	fix_pre	0		119	68.0	2.5	blank	1.0	396.87398195266724	0.9918129444122314
70	371.56362986564636	pulse	0	t		68.0	2.5	blank	1.0	397.8576149940491	
70	371.57180976867676	movie	1		301	68.0	2.5	blank	1.0	397.86579489707947	2.508709192276001
70	373.16392493247986	pulse	1	t		68.0	2.5	blank	1.0	399.45791006088257	
70	374.08051896095276	fix_post	2		12	68.0	2.5	blank	1.0	400.37450408935547	0.09998798370361328
71	374.1805069446564	fix_pre	0		120	69.0	2.5	/experiments/knapen_AOT/AOT_stimuli/rescaled_final/1422_fw.mp4	0.0	400.4744920730591	1.0001449584960938
71	374.764084815979	pulse	0	t		69.0	2.5	/experiments/knapen_AOT/AOT_stimuli/rescaled_final/1422_fw.mp4	0.0	401.0580699443817	
71	375.18065190315247	movie	1		246	69.0	2.5	/experiments/knapen_AOT/AOT_stimuli/rescaled_final/1422_fw.mp4	0.0	401.4746370315552	2.5004100799560547
71	376.3646149635315	pulse	1	t		69.0	2.5	/experiments/knapen_AOT/AOT_stimuli/rescaled_final/1422_fw.mp4	0.0	402.6586000919342	
71	377.6810619831085	fix_post	2		12	69.0	2.5	/experiments/knapen_AOT/AOT_stimuli/rescaled_final/1422_fw.mp4	0.0	403.97504711151123	0.10000491142272949
72	377.78106689453125	fix_pre	0		120	70.0	2.5	/experiments/knapen_AOT/AOT_stimuli/rescaled_final/2028_rv.mp4	0.0	404.07505202293396	1.0001389980316162
72	377.9646167755127	pulse	0	t		70.0	2.5	/experiments/knapen_AOT/AOT_stimuli/rescaled_final/2028_rv.mp4	0.0	404.2586019039154	
72	378.78120589256287	movie	1		243	70.0	2.5	/experiments/knapen_AOT/AOT_stimuli/rescaled_final/2028_rv.mp4	0.0	405.0751910209656	2.500333070755005
72	379.56480979919434	pulse	1	t		70.0	2.5	/experiments/knapen_AOT/AOT_stimuli/rescaled_final/2028_rv.mp4	0.0	405.85879492759705	
72	381.1652069091797	pulse	1	t		70.0	2.5	/experiments/knapen_AOT/AOT_stimuli/rescaled_final/2028_rv.mp4	0.0	407.4591920375824	
72	381.28153896331787	fix_post	2		12	70.0	2.5	/experiments/knapen_AOT/AOT_stimuli/rescaled_final/2028_rv.mp4	0.0	407.5755240917206	0.10004186630249023
73	381.38158082962036	fix_pre	0		120	71.0	2.5	/experiments/knapen_AOT/AOT_stimuli/rescaled_final/0224_fw.mp4	0.0	407.67556595802307	1.0002191066741943
73	382.38179993629456	movie	1		244	71.0	2.5	/experiments/knapen_AOT/AOT_stimuli/rescaled_final/0224_fw.mp4	0.0	408.67578506469727	2.491986036300659
73	382.7657079696655	pulse	1	t		71.0	2.5	/experiments/knapen_AOT/AOT_stimuli/rescaled_final/0224_fw.mp4	0.0	409.05969309806824	
73	384.36568093299866	pulse	1	t		71.0	2.5	/experiments/knapen_AOT/AOT_stimuli/rescaled_final/0224_fw.mp4	0.0	410.65966606140137	
73	384.8737859725952	fix_post	2		12	71.0	2.5	/experiments/knapen_AOT/AOT_stimuli/rescaled_final/0224_fw.mp4	0.0	411.1677711009979	0.10001397132873535
74	384.97379994392395	fix_pre	0		120	72.0	2.5	/experiments/knapen_AOT/AOT_stimuli/rescaled_final/0979_fw.mp4	0.0	411.26778507232666	1.000152826309204
74	385.96578097343445	pulse	0	t		72.0	2.5	/experiments/knapen_AOT/AOT_stimuli/rescaled_final/0979_fw.mp4	0.0	412.25976610183716	
74	385.97395277023315	movie	1		245	72.0	2.5	/experiments/knapen_AOT/AOT_stimuli/rescaled_final/0979_fw.mp4	0.0	412.26793789863586	2.508690118789673
74	387.56660890579224	pulse	1	t		72.0	2.5	/experiments/knapen_AOT/AOT_stimuli/rescaled_final/0979_fw.mp4	0.0	413.86059403419495	
74	388.4826428890228	fix_post	2		12	72.0	2.5	/experiments/knapen_AOT/AOT_stimuli/rescaled_final/0979_fw.mp4	0.0	414.77662801742554	0.10004210472106934
75	388.5826849937439	fix_pre	0		120	73.0	2.5	/experiments/knapen_AOT/AOT_stimuli/rescaled_final/0791_rv.mp4	0.0	414.8766701221466	1.0001368522644043
75	389.1663498878479	pulse	0	t		73.0	2.5	/experiments/knapen_AOT/AOT_stimuli/rescaled_final/0791_rv.mp4	0.0	415.4603350162506	
75	389.5828218460083	movie	1		244	73.0	2.5	/experiments/knapen_AOT/AOT_stimuli/rescaled_final/0791_rv.mp4	0.0	415.876806974411	2.5003271102905273
75	390.7667269706726	pulse	1	t		73.0	2.5	/experiments/knapen_AOT/AOT_stimuli/rescaled_final/0791_rv.mp4	0.0	417.0607120990753	
75	392.0831489562988	fix_post	2		12	73.0	2.5	/experiments/knapen_AOT/AOT_stimuli/rescaled_final/0791_rv.mp4	0.0	418.37713408470154	0.10003900527954102
76	392.18318796157837	fix_pre	0		120	74.0	2.5	/experiments/knapen_AOT/AOT_stimuli/rescaled_final/2057_fw.mp4	0.0	418.4771730899811	1.0001640319824219
76	392.36679792404175	pulse	0	t		74.0	2.5	/experiments/knapen_AOT/AOT_stimuli/rescaled_final/2057_fw.mp4	0.0	418.66078305244446	
76	393.1833519935608	movie	1		243	74.0	2.5	/experiments/knapen_AOT/AOT_stimuli/rescaled_final/2057_fw.mp4	0.0	419.4773371219635	2.5004148483276367
76	393.96714782714844	pulse	1	t		74.0	2.5	/experiments/knapen_AOT/AOT_stimuli/rescaled_final/2057_fw.mp4	0.0	420.26113295555115	
76	395.5670759677887	pulse	1	t		74.0	2.5	/experiments/knapen_AOT/AOT_stimuli/rescaled_final/2057_fw.mp4	0.0	421.8610610961914	
76	395.6837668418884	fix_post	2		12	74.0	2.5	/experiments/knapen_AOT/AOT_stimuli/rescaled_final/2057_fw.mp4	0.0	421.97775197029114	0.09996795654296875
77	395.7837347984314	fix_pre	0		120	75.0	2.5	/experiments/knapen_AOT/AOT_stimuli/rescaled_final/0085_fw.mp4	0.0	422.0777199268341	1.0001649856567383
77	396.78389978408813	movie	1		245	75.0	2.5	/experiments/knapen_AOT/AOT_stimuli/rescaled_final/0085_fw.mp4	0.0	423.07788491249084	2.49204421043396
77	397.16782093048096	pulse	1	t		75.0	2.5	/experiments/knapen_AOT/AOT_stimuli/rescaled_final/0085_fw.mp4	0.0	423.46180605888367	
77	398.7677788734436	pulse	1	t		75.0	2.5	/experiments/knapen_AOT/AOT_stimuli/rescaled_final/0085_fw.mp4	0.0	425.0617640018463	
77	399.2759439945221	fix_post	2		12	75.0	2.5	/experiments/knapen_AOT/AOT_stimuli/rescaled_final/0085_fw.mp4	0.0	425.5699291229248	0.09999799728393555
78	399.37594199180603	fix_pre	0		120	76.0	2.5	blank	1.0	425.66992712020874	1.0001440048217773
78	400.3679349422455	pulse	0	t		76.0	2.5	blank	1.0	426.6619200706482	
78	400.3760859966278	movie	1		301	76.0	2.5	blank	1.0	426.6700711250305	2.5087227821350098
78	401.9682037830353	pulse	1	t		76.0	2.5	blank	1.0	428.262188911438	
78	402.8848087787628	fix_post	2		12	76.0	2.5	blank	1.0	429.1787939071655	0.1000051498413086
79	402.9848139286041	fix_pre	0		120	77.0	2.5	/experiments/knapen_AOT/AOT_stimuli/rescaled_final/1832_rv.mp4	0.0	429.27879905700684	1.0001749992370605
79	403.5685269832611	pulse	0	t		77.0	2.5	/experiments/knapen_AOT/AOT_stimuli/rescaled_final/1832_rv.mp4	0.0	429.8625121116638	
79	403.9849889278412	movie	1		244	77.0	2.5	/experiments/knapen_AOT/AOT_stimuli/rescaled_final/1832_rv.mp4	0.0	430.2789740562439	2.5003199577331543
79	405.16876697540283	pulse	1	t		77.0	2.5	/experiments/knapen_AOT/AOT_stimuli/rescaled_final/1832_rv.mp4	0.0	431.46275210380554	
79	406.48530888557434	fix_post	2		12	77.0	2.5	/experiments/knapen_AOT/AOT_stimuli/rescaled_final/1832_rv.mp4	0.0	432.77929401397705	0.10006904602050781
80	406.58537793159485	fix_pre	0		120	78.0	2.5	/experiments/knapen_AOT/AOT_stimuli/rescaled_final/0003_fw.mp4	0.0	432.87936305999756	1.0002200603485107
80	406.76895093917847	pulse	0	t		78.0	2.5	/experiments/knapen_AOT/AOT_stimuli/rescaled_final/0003_fw.mp4	0.0	433.0629360675812	
80	407.58559799194336	movie	1		244	78.0	2.5	/experiments/knapen_AOT/AOT_stimuli/rescaled_final/0003_fw.mp4	0.0	433.87958312034607	2.500260829925537
80	408.36909890174866	pulse	1	t		78.0	2.5	/experiments/knapen_AOT/AOT_stimuli/rescaled_final/0003_fw.mp4	0.0	434.66308403015137	
80	409.96940183639526	pulse	1	t		78.0	2.5	/experiments/knapen_AOT/AOT_stimuli/rescaled_final/0003_fw.mp4	0.0	436.263386964798	
80	410.0858588218689	fix_post	2		9	78.0	2.5	/experiments/knapen_AOT/AOT_stimuli/rescaled_final/0003_fw.mp4	0.0	436.3798439502716	0.10004711151123047
81	410.1859059333801	fix_pre	0		119	79.0	2.5	/experiments/knapen_AOT/AOT_stimuli/rescaled_final/1827_fw.mp4	0.0	436.47989106178284	0.9917738437652588
81	411.1776797771454	movie	1		245	79.0	2.5	/experiments/knapen_AOT/AOT_stimuli/rescaled_final/1827_fw.mp4	0.0	437.4716649055481	2.500380039215088
81	411.5698459148407	pulse	1	t		79.0	2.5	/experiments/knapen_AOT/AOT_stimuli/rescaled_final/1827_fw.mp4	0.0	437.8638310432434	
81	413.17016792297363	pulse	1	t		79.0	2.5	/experiments/knapen_AOT/AOT_stimuli/rescaled_final/1827_fw.mp4	0.0	439.46415305137634	
81	413.6780598163605	fix_post	2		12	79.0	2.5	/experiments/knapen_AOT/AOT_stimuli/rescaled_final/1827_fw.mp4	0.0	439.9720449447632	0.10006999969482422
82	413.7781298160553	fix_pre	0		120	80.0	2.5	/experiments/knapen_AOT/AOT_stimuli/rescaled_final/0959_fw.mp4	0.0	440.072114944458	1.0001251697540283
82	414.7700698375702	pulse	0	t		80.0	2.5	/experiments/knapen_AOT/AOT_stimuli/rescaled_final/0959_fw.mp4	0.0	441.0640549659729	
82	414.7782549858093	movie	1		245	80.0	2.5	/experiments/knapen_AOT/AOT_stimuli/rescaled_final/0959_fw.mp4	0.0	441.07224011421204	2.5086557865142822
82	416.37079977989197	pulse	1	t		80.0	2.5	/experiments/knapen_AOT/AOT_stimuli/rescaled_final/0959_fw.mp4	0.0	442.6647849082947	
82	417.2869107723236	fix_post	2		12	80.0	2.5	/experiments/knapen_AOT/AOT_stimuli/rescaled_final/0959_fw.mp4	0.0	443.5808959007263	0.10003399848937988
83	417.386944770813	fix_pre	0		120	81.0	2.5	/experiments/knapen_AOT/AOT_stimuli/rescaled_final/0540_rv.mp4	0.0	443.6809298992157	1.000157117843628
83	417.9630219936371	pulse	0	t		81.0	2.5	/experiments/knapen_AOT/AOT_stimuli/rescaled_final/0540_rv.mp4	0.0	444.2570071220398	
83	418.3871018886566	movie	1		246	81.0	2.5	/experiments/knapen_AOT/AOT_stimuli/rescaled_final/0540_rv.mp4	0.0	444.6810870170593	2.5003819465637207
83	419.5710377693176	pulse	1	t		81.0	2.5	/experiments/knapen_AOT/AOT_stimuli/rescaled_final/0540_rv.mp4	0.0	445.86502289772034	
83	420.88748383522034	fix_post	2		12	81.0	2.5	/experiments/knapen_AOT/AOT_stimuli/rescaled_final/0540_rv.mp4	0.0	447.18146896362305	0.10001993179321289
84	420.98750376701355	fix_pre	0		120	82.0	2.5	/experiments/knapen_AOT/AOT_stimuli/rescaled_final/0117_fw.mp4	0.0	447.28148889541626	1.0002310276031494
84	421.16354393959045	pulse	0	t		82.0	2.5	/experiments/knapen_AOT/AOT_stimuli/rescaled_final/0117_fw.mp4	0.0	447.45752906799316	
84	421.9877347946167	movie	1		244	82.0	2.5	/experiments/knapen_AOT/AOT_stimuli/rescaled_final/0117_fw.mp4	0.0	448.2817199230194	2.500262975692749
84	422.7630178928375	pulse	1	t		82.0	2.5	/experiments/knapen_AOT/AOT_stimuli/rescaled_final/0117_fw.mp4	0.0	449.05700302124023	
84	424.3632369041443	pulse	1	t		82.0	2.5	/experiments/knapen_AOT/AOT_stimuli/rescaled_final/0117_fw.mp4	0.0	450.657222032547	
84	424.48799777030945	fix_post	2		12	82.0	2.5	/experiments/knapen_AOT/AOT_stimuli/rescaled_final/0117_fw.mp4	0.0	450.78198289871216	0.10004806518554688
85	424.588045835495	fix_pre	0		120	83.0	2.5	blank	1.0	450.8820309638977	1.000115156173706
85	425.5881609916687	movie	1		299	83.0	2.5	blank	1.0	451.8821461200714	2.492098808288574
85	425.9633889198303	pulse	1	t		83.0	2.5	blank	1.0	452.25737404823303	
85	427.56378293037415	pulse	1	t		83.0	2.5	blank	1.0	453.85776805877686	
85	428.0802597999573	fix_post	2		12	83.0	2.5	blank	1.0	454.37424492836	0.09998703002929688
87	428.1802468299866	stim	0		1716					454.4742319583893	14.302303075790405
87	429.1639988422394	pulse	0	t						455.4579839706421	
87	430.76414585113525	pulse	0	t						457.05813097953796	
87	432.3643009662628	pulse	0	t						458.6582860946655	
87	433.96455478668213	pulse	0	t						460.25853991508484	
87	435.56484389305115	pulse	0	t						461.85882902145386	
87	437.1649878025055	pulse	0	t						463.4589729309082	
87	438.76524782180786	pulse	0	t						465.05923295021057	
87	440.36552000045776	pulse	0	t						466.6595051288605	
87	441.9658718109131	pulse	0	t						468.2598569393158	
