trial_nr	onset	event_type	phase	response	nr_frames	movie_index	movie_duration	movie_file	blank	onset_abs	duration
0	0.13283181190490723	stim	0		153					21.577311992645264	1.2754321098327637
0	1.4002878665924072	response	0	space						22.844768047332764	
1	1.408263921737671	stim	0		14092					22.852744102478027	117.43264508247375
1	118.83627581596375	pulse	0	t						140.2807559967041	
1	118.84090900421143	stim	1		1717					140.28538918495178	14.308342933654785
1	120.43276596069336	pulse	1	t						141.87724614143372	
1	122.03281283378601	pulse	1	t						143.47729301452637	
1	123.63293886184692	pulse	1	t						145.07741904258728	
1	125.23283195495605	pulse	1	t						146.6773121356964	
1	126.83275580406189	pulse	1	t						148.27723598480225	
1	128.43279194831848	pulse	1	t						149.87727212905884	
1	130.03274083137512	pulse	1	t						151.47722101211548	
1	131.6327748298645	pulse	1	t						153.07725501060486	
2	133.1492519378662	fix_pre	0		11	0.0	2.5	/experiments/AOT/AOT_stimuli/rescaled_final/1018_rv.mp4	0.0	154.59373211860657	0.09166193008422852
2	133.23280382156372	pulse	0	t		0.0	2.5	/experiments/AOT/AOT_stimuli/rescaled_final/1018_rv.mp4	0.0	154.67728400230408	
2	133.24091386795044	movie	1		245	0.0	2.5	/experiments/AOT/AOT_stimuli/rescaled_final/1018_rv.mp4	0.0	154.6853940486908	2.5083789825439453
2	134.83276891708374	pulse	1	t		0.0	2.5	/experiments/AOT/AOT_stimuli/rescaled_final/1018_rv.mp4	0.0	156.2772490978241	
2	135.74929285049438	fix_post	2		12	0.0	2.5	/experiments/AOT/AOT_stimuli/rescaled_final/1018_rv.mp4	0.0	157.19377303123474	0.0999460220336914
3	135.84923887252808	fix_pre	0		120	1.0	2.5	/experiments/AOT/AOT_stimuli/rescaled_final/0898_fw.mp4	0.0	157.29371905326843	1.0000391006469727
3	136.4327108860016	pulse	0	t		1.0	2.5	/experiments/AOT/AOT_stimuli/rescaled_final/0898_fw.mp4	0.0	157.87719106674194	
3	136.84927797317505	movie	1		245	1.0	2.5	/experiments/AOT/AOT_stimuli/rescaled_final/0898_fw.mp4	0.0	158.2937581539154	2.500001907348633
3	138.03280091285706	pulse	1	t		1.0	2.5	/experiments/AOT/AOT_stimuli/rescaled_final/0898_fw.mp4	0.0	159.4772810935974	
3	139.34927988052368	fix_post	2		12	1.0	2.5	/experiments/AOT/AOT_stimuli/rescaled_final/0898_fw.mp4	0.0	160.79376006126404	0.09998607635498047
4	139.44926595687866	fix_pre	0		120	2.0	2.5	/experiments/AOT/AOT_stimuli/rescaled_final/1570_fw.mp4	0.0	160.89374613761902	1.0000128746032715
4	139.6327509880066	pulse	0	t		2.0	2.5	/experiments/AOT/AOT_stimuli/rescaled_final/1570_fw.mp4	0.0	161.07723116874695	
4	140.44927883148193	movie	1		244	2.0	2.5	/experiments/AOT/AOT_stimuli/rescaled_final/1570_fw.mp4	0.0	161.8937590122223	2.4999091625213623
4	141.23271679878235	pulse	1	t		2.0	2.5	/experiments/AOT/AOT_stimuli/rescaled_final/1570_fw.mp4	0.0	162.6771969795227	
4	142.83271598815918	pulse	1	t		2.0	2.5	/experiments/AOT/AOT_stimuli/rescaled_final/1570_fw.mp4	0.0	164.27719616889954	
4	142.9491879940033	fix_post	2		12	2.0	2.5	/experiments/AOT/AOT_stimuli/rescaled_final/1570_fw.mp4	0.0	164.39366817474365	0.09999489784240723
5	143.0491828918457	fix_pre	0		120	3.0	2.5	/experiments/AOT/AOT_stimuli/rescaled_final/1941_rv.mp4	0.0	164.49366307258606	1.0002429485321045
5	144.0494258403778	movie	1		245	3.0	2.5	/experiments/AOT/AOT_stimuli/rescaled_final/1941_rv.mp4	0.0	165.49390602111816	2.499359130859375
5	144.43248391151428	pulse	1	t		3.0	2.5	/experiments/AOT/AOT_stimuli/rescaled_final/1941_rv.mp4	0.0	165.87696409225464	
5	146.0321478843689	pulse	1	t		3.0	2.5	/experiments/AOT/AOT_stimuli/rescaled_final/1941_rv.mp4	0.0	167.47662806510925	
5	146.54878497123718	fix_post	2		12	3.0	2.5	/experiments/AOT/AOT_stimuli/rescaled_final/1941_rv.mp4	0.0	167.99326515197754	0.10003089904785156
6	146.64881587028503	fix_pre	0		119	4.0	2.5	/experiments/AOT/AOT_stimuli/rescaled_final/0335_fw.mp4	0.0	168.0932960510254	0.9922440052032471
6	147.63281297683716	pulse	0	t		4.0	2.5	/experiments/AOT/AOT_stimuli/rescaled_final/0335_fw.mp4	0.0	169.07729315757751	
6	147.64105987548828	movie	1		245	4.0	2.5	/experiments/AOT/AOT_stimuli/rescaled_final/0335_fw.mp4	0.0	169.08554005622864	2.5082409381866455
6	149.23213696479797	pulse	1	t		4.0	2.5	/experiments/AOT/AOT_stimuli/rescaled_final/0335_fw.mp4	0.0	170.67661714553833	
6	150.14930081367493	fix_post	2		12	4.0	2.5	/experiments/AOT/AOT_stimuli/rescaled_final/0335_fw.mp4	0.0	171.59378099441528	0.09986519813537598
7	150.2491660118103	fix_pre	0		120	5.0	2.5	/experiments/AOT/AOT_stimuli/rescaled_final/0724_fw.mp4	0.0	171.69364619255066	1.0001559257507324
7	150.83268785476685	pulse	0	t		5.0	2.5	/experiments/AOT/AOT_stimuli/rescaled_final/0724_fw.mp4	0.0	172.2771680355072	
7	151.24932193756104	movie	1		249	5.0	2.5	/experiments/AOT/AOT_stimuli/rescaled_final/0724_fw.mp4	0.0	172.6938021183014	2.499825954437256
7	152.43278098106384	pulse	1	t		5.0	2.5	/experiments/AOT/AOT_stimuli/rescaled_final/0724_fw.mp4	0.0	173.8772611618042	
7	153.7491478919983	fix_post	2		12	5.0	2.5	/experiments/AOT/AOT_stimuli/rescaled_final/0724_fw.mp4	0.0	175.19362807273865	0.10000109672546387
8	153.84914898872375	fix_pre	0		120	6.0	2.5	/experiments/AOT/AOT_stimuli/rescaled_final/1595_fw.mp4	0.0	175.2936291694641	1.00003981590271
8	154.0327389240265	pulse	0	t		6.0	2.5	/experiments/AOT/AOT_stimuli/rescaled_final/1595_fw.mp4	0.0	175.47721910476685	
8	154.84918880462646	movie	1		244	6.0	2.5	/experiments/AOT/AOT_stimuli/rescaled_final/1595_fw.mp4	0.0	176.29366898536682	2.499500036239624
8	155.63260793685913	pulse	1	t		6.0	2.5	/experiments/AOT/AOT_stimuli/rescaled_final/1595_fw.mp4	0.0	177.0770881175995	
8	157.23086881637573	pulse	1	t		6.0	2.5	/experiments/AOT/AOT_stimuli/rescaled_final/1595_fw.mp4	0.0	178.6753489971161	
8	157.3486888408661	fix_post	2		12	6.0	2.5	/experiments/AOT/AOT_stimuli/rescaled_final/1595_fw.mp4	0.0	178.79316902160645	0.10041999816894531
9	157.44910883903503	fix_pre	0		120	7.0	2.5	blank	1.0	178.8935890197754	0.9999361038208008
9	158.44904494285583	movie	1		300	7.0	2.5	blank	1.0	179.8935251235962	2.5000479221343994
9	158.83266496658325	pulse	1	t		7.0	2.5	blank	1.0	180.2771451473236	
9	160.43262100219727	pulse	1	t		7.0	2.5	blank	1.0	181.87710118293762	
9	160.94909286499023	fix_post	2		12	7.0	2.5	blank	1.0	182.3935730457306	0.09995508193969727
10	161.04904794692993	fix_pre	0		119	8.0	2.5	/experiments/AOT/AOT_stimuli/rescaled_final/1700_rv.mp4	0.0	182.4935281276703	0.9917678833007812
10	162.03260898590088	pulse	0	t		8.0	2.5	/experiments/AOT/AOT_stimuli/rescaled_final/1700_rv.mp4	0.0	183.47708916664124	
10	162.0408158302307	movie	1		244	8.0	2.5	/experiments/AOT/AOT_stimuli/rescaled_final/1700_rv.mp4	0.0	183.48529601097107	2.5078320503234863
10	163.6322159767151	pulse	1	t		8.0	2.5	/experiments/AOT/AOT_stimuli/rescaled_final/1700_rv.mp4	0.0	185.07669615745544	
10	164.5486478805542	fix_post	2		12	8.0	2.5	/experiments/AOT/AOT_stimuli/rescaled_final/1700_rv.mp4	0.0	185.99312806129456	0.10046100616455078
11	164.64910888671875	fix_pre	0		120	9.0	2.5	/experiments/AOT/AOT_stimuli/rescaled_final/0400_fw.mp4	0.0	186.0935890674591	0.9999399185180664
11	165.23257493972778	pulse	0	t		9.0	2.5	/experiments/AOT/AOT_stimuli/rescaled_final/0400_fw.mp4	0.0	186.67705512046814	
11	165.64904880523682	movie	1		245	9.0	2.5	/experiments/AOT/AOT_stimuli/rescaled_final/0400_fw.mp4	0.0	187.09352898597717	2.4999589920043945
11	166.83267188072205	pulse	1	t		9.0	2.5	/experiments/AOT/AOT_stimuli/rescaled_final/0400_fw.mp4	0.0	188.2771520614624	
11	168.1490077972412	fix_post	2		12	9.0	2.5	/experiments/AOT/AOT_stimuli/rescaled_final/0400_fw.mp4	0.0	189.59348797798157	0.10008716583251953
12	168.24909496307373	fix_pre	0		120	10.0	2.5	/experiments/AOT/AOT_stimuli/rescaled_final/1309_fw.mp4	0.0	189.6935751438141	1.0000040531158447
12	168.43261885643005	pulse	0	t		10.0	2.5	/experiments/AOT/AOT_stimuli/rescaled_final/1309_fw.mp4	0.0	189.8770990371704	
12	169.24909901618958	movie	1		243	10.0	2.5	/experiments/AOT/AOT_stimuli/rescaled_final/1309_fw.mp4	0.0	190.69357919692993	2.499501943588257
12	170.03255200386047	pulse	1	t		10.0	2.5	/experiments/AOT/AOT_stimuli/rescaled_final/1309_fw.mp4	0.0	191.47703218460083	
12	171.6311798095703	pulse	1	t		10.0	2.5	/experiments/AOT/AOT_stimuli/rescaled_final/1309_fw.mp4	0.0	193.07565999031067	
12	171.74860095977783	fix_post	2		12	10.0	2.5	/experiments/AOT/AOT_stimuli/rescaled_final/1309_fw.mp4	0.0	193.1930811405182	0.10044693946838379
13	171.84904789924622	fix_pre	0		120	11.0	2.5	/experiments/AOT/AOT_stimuli/rescaled_final/1729_fw.mp4	0.0	193.29352807998657	1.0000700950622559
13	172.84911799430847	movie	1		245	11.0	2.5	/experiments/AOT/AOT_stimuli/rescaled_final/1729_fw.mp4	0.0	194.29359817504883	2.499994993209839
13	173.23353385925293	pulse	1	t		11.0	2.5	/experiments/AOT/AOT_stimuli/rescaled_final/1729_fw.mp4	0.0	194.6780140399933	
13	174.83247089385986	pulse	1	t		11.0	2.5	/experiments/AOT/AOT_stimuli/rescaled_final/1729_fw.mp4	0.0	196.27695107460022	
13	175.3491129875183	fix_post	2		12	11.0	2.5	/experiments/AOT/AOT_stimuli/rescaled_final/1729_fw.mp4	0.0	196.79359316825867	0.09996986389160156
14	175.4490828514099	fix_pre	0		119	12.0	2.5	blank	1.0	196.89356303215027	0.9915530681610107
14	176.43251395225525	pulse	0	t		12.0	2.5	blank	1.0	197.8769941329956	
14	176.44063591957092	movie	1		301	12.0	2.5	blank	1.0	197.88511610031128	2.5084409713745117
14	178.03253293037415	pulse	1	t		12.0	2.5	blank	1.0	199.4770131111145	
14	178.94907689094543	fix_post	2		12	12.0	2.5	blank	1.0	200.3935570716858	0.09991908073425293
15	179.0489959716797	fix_pre	0		120	13.0	2.5	/experiments/AOT/AOT_stimuli/rescaled_final/1941_rv.mp4	0.0	200.49347615242004	1.0000689029693604
15	179.63261485099792	pulse	0	t		13.0	2.5	/experiments/AOT/AOT_stimuli/rescaled_final/1941_rv.mp4	0.0	201.07709503173828	
15	180.04906487464905	movie	1		243	13.0	2.5	/experiments/AOT/AOT_stimuli/rescaled_final/1941_rv.mp4	0.0	201.4935450553894	2.5000081062316895
15	181.232519865036	pulse	1	t		13.0	2.5	/experiments/AOT/AOT_stimuli/rescaled_final/1941_rv.mp4	0.0	202.67700004577637	
15	182.54907298088074	fix_post	2		12	13.0	2.5	/experiments/AOT/AOT_stimuli/rescaled_final/1941_rv.mp4	0.0	203.9935531616211	0.09992694854736328
16	182.6489999294281	fix_pre	0		120	14.0	2.5	/experiments/AOT/AOT_stimuli/rescaled_final/1376_rv.mp4	0.0	204.09348011016846	0.9999589920043945
16	182.832505941391	pulse	0	t		14.0	2.5	/experiments/AOT/AOT_stimuli/rescaled_final/1376_rv.mp4	0.0	204.27698612213135	
16	183.6489589214325	movie	1		243	14.0	2.5	/experiments/AOT/AOT_stimuli/rescaled_final/1376_rv.mp4	0.0	205.09343910217285	2.5001060962677
16	184.43254280090332	pulse	1	t		14.0	2.5	/experiments/AOT/AOT_stimuli/rescaled_final/1376_rv.mp4	0.0	205.87702298164368	
16	186.0308759212494	pulse	1	t		14.0	2.5	/experiments/AOT/AOT_stimuli/rescaled_final/1376_rv.mp4	0.0	207.47535610198975	
16	186.1490650177002	fix_post	2		12	14.0	2.5	/experiments/AOT/AOT_stimuli/rescaled_final/1376_rv.mp4	0.0	207.59354519844055	0.09999299049377441
17	186.24905800819397	fix_pre	0		120	15.0	2.5	/experiments/AOT/AOT_stimuli/rescaled_final/1321_rv.mp4	0.0	207.69353818893433	0.9999079704284668
17	187.24896597862244	movie	1		245	15.0	2.5	/experiments/AOT/AOT_stimuli/rescaled_final/1321_rv.mp4	0.0	208.6934461593628	2.5000059604644775
17	187.63200187683105	pulse	1	t		15.0	2.5	/experiments/AOT/AOT_stimuli/rescaled_final/1321_rv.mp4	0.0	209.0764820575714	
17	189.2324149608612	pulse	1	t		15.0	2.5	/experiments/AOT/AOT_stimuli/rescaled_final/1321_rv.mp4	0.0	210.67689514160156	
17	189.7489719390869	fix_post	2		12	15.0	2.5	/experiments/AOT/AOT_stimuli/rescaled_final/1321_rv.mp4	0.0	211.19345211982727	0.09998393058776855
18	189.84895586967468	fix_pre	0		119	16.0	2.5	/experiments/AOT/AOT_stimuli/rescaled_final/0498_fw.mp4	0.0	211.29343605041504	0.9916679859161377
18	190.83259296417236	pulse	0	t		16.0	2.5	/experiments/AOT/AOT_stimuli/rescaled_final/0498_fw.mp4	0.0	212.27707314491272	
18	190.84062385559082	movie	1		245	16.0	2.5	/experiments/AOT/AOT_stimuli/rescaled_final/0498_fw.mp4	0.0	212.28510403633118	2.508291006088257
18	192.4325098991394	pulse	1	t		16.0	2.5	/experiments/AOT/AOT_stimuli/rescaled_final/0498_fw.mp4	0.0	213.87699007987976	
18	193.34891486167908	fix_post	2		12	16.0	2.5	/experiments/AOT/AOT_stimuli/rescaled_final/0498_fw.mp4	0.0	214.79339504241943	0.09998798370361328
19	193.4489028453827	fix_pre	0		120	17.0	2.5	/experiments/AOT/AOT_stimuli/rescaled_final/2064_rv.mp4	0.0	214.89338302612305	1.000072956085205
19	194.0323989391327	pulse	0	t		17.0	2.5	/experiments/AOT/AOT_stimuli/rescaled_final/2064_rv.mp4	0.0	215.47687911987305	
19	194.4489758014679	movie	1		243	17.0	2.5	/experiments/AOT/AOT_stimuli/rescaled_final/2064_rv.mp4	0.0	215.89345598220825	2.499530076980591
19	195.63254380226135	pulse	1	t		17.0	2.5	/experiments/AOT/AOT_stimuli/rescaled_final/2064_rv.mp4	0.0	217.0770239830017	
19	196.9485058784485	fix_post	2		12	17.0	2.5	/experiments/AOT/AOT_stimuli/rescaled_final/2064_rv.mp4	0.0	218.39298605918884	0.10039496421813965
20	197.04890084266663	fix_pre	0		120	18.0	2.5	/experiments/AOT/AOT_stimuli/rescaled_final/0063_rv.mp4	0.0	218.49338102340698	0.9999570846557617
20	197.23239088058472	pulse	0	t		18.0	2.5	/experiments/AOT/AOT_stimuli/rescaled_final/0063_rv.mp4	0.0	218.67687106132507	
20	198.0488579273224	movie	1		243	18.0	2.5	/experiments/AOT/AOT_stimuli/rescaled_final/0063_rv.mp4	0.0	219.49333810806274	2.5001120567321777
20	198.8323769569397	pulse	1	t		18.0	2.5	/experiments/AOT/AOT_stimuli/rescaled_final/0063_rv.mp4	0.0	220.27685713768005	
20	200.44076991081238	pulse	1	t		18.0	2.5	/experiments/AOT/AOT_stimuli/rescaled_final/0063_rv.mp4	0.0	221.88525009155273	
20	200.54896998405457	fix_post	2		12	18.0	2.5	/experiments/AOT/AOT_stimuli/rescaled_final/0063_rv.mp4	0.0	221.99345016479492	0.09998893737792969
21	200.6489589214325	fix_pre	0		120	19.0	2.5	/experiments/AOT/AOT_stimuli/rescaled_final/1241_fw.mp4	0.0	222.09343910217285	1.000079870223999
21	201.6490387916565	movie	1		247	19.0	2.5	/experiments/AOT/AOT_stimuli/rescaled_final/1241_fw.mp4	0.0	223.09351897239685	2.5001561641693115
21	202.03195691108704	pulse	1	t		19.0	2.5	/experiments/AOT/AOT_stimuli/rescaled_final/1241_fw.mp4	0.0	223.4764370918274	
21	203.63245701789856	pulse	1	t		19.0	2.5	/experiments/AOT/AOT_stimuli/rescaled_final/1241_fw.mp4	0.0	225.07693719863892	
21	204.1491949558258	fix_post	2		12	19.0	2.5	/experiments/AOT/AOT_stimuli/rescaled_final/1241_fw.mp4	0.0	225.59367513656616	0.09989404678344727
22	204.24908900260925	fix_pre	0		119	20.0	2.5	/experiments/AOT/AOT_stimuli/rescaled_final/0464_fw.mp4	0.0	225.6935691833496	0.9913718700408936
22	205.2323489189148	pulse	0	t		20.0	2.5	/experiments/AOT/AOT_stimuli/rescaled_final/0464_fw.mp4	0.0	226.67682909965515	
22	205.24046087265015	movie	1		245	20.0	2.5	/experiments/AOT/AOT_stimuli/rescaled_final/0464_fw.mp4	0.0	226.6849410533905	2.5083999633789062
22	206.83195686340332	pulse	1	t		20.0	2.5	/experiments/AOT/AOT_stimuli/rescaled_final/0464_fw.mp4	0.0	228.27643704414368	
22	207.74886083602905	fix_post	2		12	20.0	2.5	/experiments/AOT/AOT_stimuli/rescaled_final/0464_fw.mp4	0.0	229.1933410167694	0.1001131534576416
23	207.8489739894867	fix_pre	0		120	21.0	2.5	blank	1.0	229.29345417022705	0.9999089241027832
23	208.43246984481812	pulse	0	t		21.0	2.5	blank	1.0	229.87695002555847	
23	208.84888291358948	movie	1		300	21.0	2.5	blank	1.0	230.29336309432983	2.499985933303833
23	210.03227186203003	pulse	1	t		21.0	2.5	blank	1.0	231.47675204277039	
23	211.3488688468933	fix_post	2		12	21.0	2.5	blank	1.0	232.79334902763367	0.09994196891784668
24	211.44881081581116	fix_pre	0		120	22.0	2.5	/experiments/AOT/AOT_stimuli/rescaled_final/0188_fw.mp4	0.0	232.8932909965515	1.0000231266021729
24	211.63233184814453	pulse	0	t		22.0	2.5	/experiments/AOT/AOT_stimuli/rescaled_final/0188_fw.mp4	0.0	233.0768120288849	
24	212.44883394241333	movie	1		244	22.0	2.5	/experiments/AOT/AOT_stimuli/rescaled_final/0188_fw.mp4	0.0	233.8933141231537	2.4999868869781494
24	213.23225498199463	pulse	1	t		22.0	2.5	/experiments/AOT/AOT_stimuli/rescaled_final/0188_fw.mp4	0.0	234.67673516273499	
24	214.84075593948364	pulse	1	t		22.0	2.5	/experiments/AOT/AOT_stimuli/rescaled_final/0188_fw.mp4	0.0	236.285236120224	
24	214.94882082939148	fix_post	2		12	22.0	2.5	/experiments/AOT/AOT_stimuli/rescaled_final/0188_fw.mp4	0.0	236.39330101013184	0.1000511646270752
25	215.04887199401855	fix_pre	0		120	23.0	2.5	/experiments/AOT/AOT_stimuli/rescaled_final/0046_rv.mp4	0.0	236.4933521747589	1.0000569820404053
25	216.04892897605896	movie	1		243	23.0	2.5	/experiments/AOT/AOT_stimuli/rescaled_final/0046_rv.mp4	0.0	237.49340915679932	2.499856948852539
25	216.43254494667053	pulse	1	t		23.0	2.5	/experiments/AOT/AOT_stimuli/rescaled_final/0046_rv.mp4	0.0	237.8770251274109	
25	218.0323269367218	pulse	1	t		23.0	2.5	/experiments/AOT/AOT_stimuli/rescaled_final/0046_rv.mp4	0.0	239.47680711746216	
25	218.5487859249115	fix_post	2		12	23.0	2.5	/experiments/AOT/AOT_stimuli/rescaled_final/0046_rv.mp4	0.0	239.99326610565186	0.10001397132873535
26	218.64879989624023	fix_pre	0		119	24.0	2.5	/experiments/AOT/AOT_stimuli/rescaled_final/0720_fw.mp4	0.0	240.0932800769806	0.9917290210723877
26	219.63232398033142	pulse	0	t		24.0	2.5	/experiments/AOT/AOT_stimuli/rescaled_final/0720_fw.mp4	0.0	241.07680416107178	
26	219.64052891731262	movie	1		247	24.0	2.5	/experiments/AOT/AOT_stimuli/rescaled_final/0720_fw.mp4	0.0	241.08500909805298	2.5083510875701904
26	221.23204684257507	pulse	1	t		24.0	2.5	/experiments/AOT/AOT_stimuli/rescaled_final/0720_fw.mp4	0.0	242.67652702331543	
26	222.1488800048828	fix_post	2		12	24.0	2.5	/experiments/AOT/AOT_stimuli/rescaled_final/0720_fw.mp4	0.0	243.59336018562317	0.09994983673095703
27	222.24882984161377	fix_pre	0		120	25.0	2.5	/experiments/AOT/AOT_stimuli/rescaled_final/0685_rv.mp4	0.0	243.69331002235413	0.9999310970306396
27	222.8324089050293	pulse	0	t		25.0	2.5	/experiments/AOT/AOT_stimuli/rescaled_final/0685_rv.mp4	0.0	244.27688908576965	
27	223.2487609386444	movie	1		245	25.0	2.5	/experiments/AOT/AOT_stimuli/rescaled_final/0685_rv.mp4	0.0	244.69324111938477	2.499955892562866
27	224.4323079586029	pulse	1	t		25.0	2.5	/experiments/AOT/AOT_stimuli/rescaled_final/0685_rv.mp4	0.0	245.87678813934326	
27	225.74871683120728	fix_post	2		12	25.0	2.5	/experiments/AOT/AOT_stimuli/rescaled_final/0685_rv.mp4	0.0	247.19319701194763	0.10012602806091309
28	225.8488428592682	fix_pre	0		120	26.0	2.5	/experiments/AOT/AOT_stimuli/rescaled_final/1653_fw.mp4	0.0	247.29332304000854	0.999485969543457
28	226.0323028564453	pulse	0	t		26.0	2.5	/experiments/AOT/AOT_stimuli/rescaled_final/1653_fw.mp4	0.0	247.47678303718567	
28	226.84832882881165	movie	1		245	26.0	2.5	/experiments/AOT/AOT_stimuli/rescaled_final/1653_fw.mp4	0.0	248.292809009552	2.4999940395355225
28	227.63223886489868	pulse	1	t		26.0	2.5	/experiments/AOT/AOT_stimuli/rescaled_final/1653_fw.mp4	0.0	249.07671904563904	
28	229.23173689842224	pulse	1	t		26.0	2.5	/experiments/AOT/AOT_stimuli/rescaled_final/1653_fw.mp4	0.0	250.6762170791626	
28	229.34832286834717	fix_post	2		12	26.0	2.5	/experiments/AOT/AOT_stimuli/rescaled_final/1653_fw.mp4	0.0	250.79280304908752	0.1004490852355957
29	229.44877195358276	fix_pre	0		120	27.0	2.5	blank	1.0	250.89325213432312	1.0000638961791992
29	230.44883584976196	movie	1		300	27.0	2.5	blank	1.0	251.89331603050232	2.4999210834503174
29	230.83225297927856	pulse	1	t		27.0	2.5	blank	1.0	252.27673316001892	
29	232.4322338104248	pulse	1	t		27.0	2.5	blank	1.0	253.87671399116516	
29	232.94875693321228	fix_post	2		12	27.0	2.5	blank	1.0	254.39323711395264	0.09996795654296875
30	233.04872488975525	fix_pre	0		119	28.0	2.5	/experiments/AOT/AOT_stimuli/rescaled_final/0009_rv.mp4	0.0	254.4932050704956	0.9916670322418213
30	234.03222179412842	pulse	0	t		28.0	2.5	/experiments/AOT/AOT_stimuli/rescaled_final/0009_rv.mp4	0.0	255.47670197486877	
30	234.04039192199707	movie	1		244	28.0	2.5	/experiments/AOT/AOT_stimuli/rescaled_final/0009_rv.mp4	0.0	255.48487210273743	2.507896900177002
30	235.63183999061584	pulse	1	t		28.0	2.5	/experiments/AOT/AOT_stimuli/rescaled_final/0009_rv.mp4	0.0	257.0763201713562	
30	236.54828882217407	fix_post	2		12	28.0	2.5	/experiments/AOT/AOT_stimuli/rescaled_final/0009_rv.mp4	0.0	257.99276900291443	0.10044407844543457
31	236.6487329006195	fix_pre	0		120	29.0	2.5	/experiments/AOT/AOT_stimuli/rescaled_final/0883_rv.mp4	0.0	258.09321308135986	1.0000109672546387
31	237.23223900794983	pulse	0	t		29.0	2.5	/experiments/AOT/AOT_stimuli/rescaled_final/0883_rv.mp4	0.0	258.6767191886902	
31	237.64874386787415	movie	1		246	29.0	2.5	/experiments/AOT/AOT_stimuli/rescaled_final/0883_rv.mp4	0.0	259.0932240486145	2.4999771118164062
31	238.83223390579224	pulse	1	t		29.0	2.5	/experiments/AOT/AOT_stimuli/rescaled_final/0883_rv.mp4	0.0	260.2767140865326	
31	240.14872097969055	fix_post	2		12	29.0	2.5	/experiments/AOT/AOT_stimuli/rescaled_final/0883_rv.mp4	0.0	261.5932011604309	0.09997296333312988
32	240.24869394302368	fix_pre	0		120	30.0	2.5	/experiments/AOT/AOT_stimuli/rescaled_final/1885_rv.mp4	0.0	261.69317412376404	1.0000638961791992
32	240.432226896286	pulse	0	t		30.0	2.5	/experiments/AOT/AOT_stimuli/rescaled_final/1885_rv.mp4	0.0	261.87670707702637	
32	241.24875783920288	movie	1		246	30.0	2.5	/experiments/AOT/AOT_stimuli/rescaled_final/1885_rv.mp4	0.0	262.69323801994324	2.4995059967041016
32	242.03217101097107	pulse	1	t		30.0	2.5	/experiments/AOT/AOT_stimuli/rescaled_final/1885_rv.mp4	0.0	263.4766511917114	
32	243.63175797462463	pulse	1	t		30.0	2.5	/experiments/AOT/AOT_stimuli/rescaled_final/1885_rv.mp4	0.0	265.076238155365	
32	243.74826383590698	fix_post	2		12	30.0	2.5	/experiments/AOT/AOT_stimuli/rescaled_final/1885_rv.mp4	0.0	265.19274401664734	0.10046911239624023
33	243.84873294830322	fix_pre	0		120	31.0	2.5	/experiments/AOT/AOT_stimuli/rescaled_final/0193_fw.mp4	0.0	265.2932131290436	0.9999740123748779
33	244.8487069606781	movie	1		247	31.0	2.5	/experiments/AOT/AOT_stimuli/rescaled_final/0193_fw.mp4	0.0	266.29318714141846	2.4995388984680176
33	245.23211979866028	pulse	1	t		31.0	2.5	/experiments/AOT/AOT_stimuli/rescaled_final/0193_fw.mp4	0.0	266.67659997940063	
33	246.8322558403015	pulse	1	t		31.0	2.5	/experiments/AOT/AOT_stimuli/rescaled_final/0193_fw.mp4	0.0	268.27673602104187	
33	247.34824585914612	fix_post	2		12	31.0	2.5	/experiments/AOT/AOT_stimuli/rescaled_final/0193_fw.mp4	0.0	268.7927260398865	0.10047101974487305
34	247.448716878891	fix_pre	0		119	32.0	2.5	/experiments/AOT/AOT_stimuli/rescaled_final/1227_fw.mp4	0.0	268.89319705963135	0.9916501045227051
34	248.4322760105133	pulse	0	t		32.0	2.5	/experiments/AOT/AOT_stimuli/rescaled_final/1227_fw.mp4	0.0	269.87675619125366	
34	248.4403669834137	movie	1		246	32.0	2.5	/experiments/AOT/AOT_stimuli/rescaled_final/1227_fw.mp4	0.0	269.88484716415405	2.5083069801330566
34	250.03190088272095	pulse	1	t		32.0	2.5	/experiments/AOT/AOT_stimuli/rescaled_final/1227_fw.mp4	0.0	271.4763810634613	
34	250.94867396354675	fix_post	2		12	32.0	2.5	/experiments/AOT/AOT_stimuli/rescaled_final/1227_fw.mp4	0.0	272.3931541442871	0.09994983673095703
35	251.0486238002777	fix_pre	0		120	33.0	2.5	/experiments/AOT/AOT_stimuli/rescaled_final/0994_fw.mp4	0.0	272.49310398101807	1.0000309944152832
35	251.6320698261261	pulse	0	t		33.0	2.5	/experiments/AOT/AOT_stimuli/rescaled_final/0994_fw.mp4	0.0	273.07655000686646	
35	252.048654794693	movie	1		243	33.0	2.5	/experiments/AOT/AOT_stimuli/rescaled_final/0994_fw.mp4	0.0	273.49313497543335	2.500005006790161
35	253.2322278022766	pulse	1	t		33.0	2.5	/experiments/AOT/AOT_stimuli/rescaled_final/0994_fw.mp4	0.0	274.67670798301697	
35	254.54865980148315	fix_post	2		12	33.0	2.5	/experiments/AOT/AOT_stimuli/rescaled_final/0994_fw.mp4	0.0	275.9931399822235	0.10002708435058594
36	254.64868688583374	fix_pre	0		120	34.0	2.5	blank	1.0	276.0931670665741	1.0001111030578613
36	254.83212995529175	pulse	0	t		34.0	2.5	blank	1.0	276.2766101360321	
36	255.6487979888916	movie	1		300	34.0	2.5	blank	1.0	277.09327816963196	2.4998769760131836
36	256.4322099685669	pulse	1	t		34.0	2.5	blank	1.0	277.87669014930725	
36	258.0317327976227	pulse	1	t		34.0	2.5	blank	1.0	279.47621297836304	
36	258.1486749649048	fix_post	2		12	34.0	2.5	blank	1.0	279.59315514564514	0.09955883026123047
37	258.248233795166	fix_pre	0		120	35.0	2.5	/experiments/AOT/AOT_stimuli/rescaled_final/1323_rv.mp4	0.0	279.6927139759064	1.0000600814819336
37	259.24829387664795	movie	1		244	35.0	2.5	/experiments/AOT/AOT_stimuli/rescaled_final/1323_rv.mp4	0.0	280.6927740573883	2.4999799728393555
37	259.631511926651	pulse	1	t		35.0	2.5	/experiments/AOT/AOT_stimuli/rescaled_final/1323_rv.mp4	0.0	281.07599210739136	
37	261.23202180862427	pulse	1	t		35.0	2.5	/experiments/AOT/AOT_stimuli/rescaled_final/1323_rv.mp4	0.0	282.6765019893646	
37	261.7482738494873	fix_post	2		12	35.0	2.5	/experiments/AOT/AOT_stimuli/rescaled_final/1323_rv.mp4	0.0	283.19275403022766	0.10028910636901855
38	261.8485629558563	fix_pre	0		119	36.0	2.5	/experiments/AOT/AOT_stimuli/rescaled_final/0058_rv.mp4	0.0	283.2930431365967	0.9918079376220703
38	262.8323998451233	pulse	0	t		36.0	2.5	/experiments/AOT/AOT_stimuli/rescaled_final/0058_rv.mp4	0.0	284.27688002586365	
38	262.8403708934784	movie	1		246	36.0	2.5	/experiments/AOT/AOT_stimuli/rescaled_final/0058_rv.mp4	0.0	284.28485107421875	2.5082740783691406
38	264.43196988105774	pulse	1	t		36.0	2.5	/experiments/AOT/AOT_stimuli/rescaled_final/0058_rv.mp4	0.0	285.8764500617981	
38	265.34864497184753	fix_post	2		12	36.0	2.5	/experiments/AOT/AOT_stimuli/rescaled_final/0058_rv.mp4	0.0	286.7931251525879	0.10001492500305176
39	265.4486598968506	fix_pre	0		120	37.0	2.5	/experiments/AOT/AOT_stimuli/rescaled_final/1241_fw.mp4	0.0	286.89314007759094	0.9999918937683105
39	266.0320258140564	pulse	0	t		37.0	2.5	/experiments/AOT/AOT_stimuli/rescaled_final/1241_fw.mp4	0.0	287.47650599479675	
39	266.4486517906189	movie	1		245	37.0	2.5	/experiments/AOT/AOT_stimuli/rescaled_final/1241_fw.mp4	0.0	287.89313197135925	2.4999330043792725
39	267.6322338581085	pulse	1	t		37.0	2.5	/experiments/AOT/AOT_stimuli/rescaled_final/1241_fw.mp4	0.0	289.0767140388489	
39	268.94858479499817	fix_post	2		12	37.0	2.5	/experiments/AOT/AOT_stimuli/rescaled_final/1241_fw.mp4	0.0	290.3930649757385	0.09996509552001953
40	269.0485498905182	fix_pre	0		120	38.0	2.5	/experiments/AOT/AOT_stimuli/rescaled_final/1091_fw.mp4	0.0	290.49303007125854	1.0000860691070557
40	269.2320330142975	pulse	0	t		38.0	2.5	/experiments/AOT/AOT_stimuli/rescaled_final/1091_fw.mp4	0.0	290.67651319503784	
40	270.04863595962524	movie	1		245	38.0	2.5	/experiments/AOT/AOT_stimuli/rescaled_final/1091_fw.mp4	0.0	291.4931161403656	2.49993896484375
40	270.8319878578186	pulse	1	t		38.0	2.5	/experiments/AOT/AOT_stimuli/rescaled_final/1091_fw.mp4	0.0	292.27646803855896	
40	272.4404499530792	pulse	1	t		38.0	2.5	/experiments/AOT/AOT_stimuli/rescaled_final/1091_fw.mp4	0.0	293.8849301338196	
40	272.548574924469	fix_post	2		12	38.0	2.5	/experiments/AOT/AOT_stimuli/rescaled_final/1091_fw.mp4	0.0	293.99305510520935	0.10004401206970215
41	272.6486189365387	fix_pre	0		120	39.0	2.5	/experiments/AOT/AOT_stimuli/rescaled_final/1395_fw.mp4	0.0	294.09309911727905	0.9999358654022217
41	273.6485548019409	movie	1		245	39.0	2.5	/experiments/AOT/AOT_stimuli/rescaled_final/1395_fw.mp4	0.0	295.0930349826813	2.500117063522339
41	274.0317578315735	pulse	1	t		39.0	2.5	/experiments/AOT/AOT_stimuli/rescaled_final/1395_fw.mp4	0.0	295.47623801231384	
41	275.6320769786835	pulse	1	t		39.0	2.5	/experiments/AOT/AOT_stimuli/rescaled_final/1395_fw.mp4	0.0	297.0765571594238	
41	276.14867186546326	fix_post	2		12	39.0	2.5	/experiments/AOT/AOT_stimuli/rescaled_final/1395_fw.mp4	0.0	297.5931520462036	0.0998389720916748
42	276.24851083755493	fix_pre	0		119	40.0	2.5	blank	1.0	297.6929910182953	0.991645097732544
42	277.2320308685303	pulse	0	t		40.0	2.5	blank	1.0	298.67651104927063	
42	277.2401559352875	movie	1		301	40.0	2.5	blank	1.0	298.68463611602783	2.5083439350128174
42	278.83208084106445	pulse	1	t		40.0	2.5	blank	1.0	300.2765610218048	
42	279.7484998703003	fix_post	2		12	40.0	2.5	blank	1.0	301.19298005104065	0.10001707077026367
43	279.84851694107056	fix_pre	0		120	41.0	2.5	/experiments/AOT/AOT_stimuli/rescaled_final/1509_rv.mp4	0.0	301.2929971218109	1.0000228881835938
43	280.4320878982544	pulse	0	t		41.0	2.5	/experiments/AOT/AOT_stimuli/rescaled_final/1509_rv.mp4	0.0	301.87656807899475	
43	280.84853982925415	movie	1		247	41.0	2.5	/experiments/AOT/AOT_stimuli/rescaled_final/1509_rv.mp4	0.0	302.2930200099945	2.5000410079956055
43	282.0321159362793	pulse	1	t		41.0	2.5	/experiments/AOT/AOT_stimuli/rescaled_final/1509_rv.mp4	0.0	303.47659611701965	
43	283.34858083724976	fix_post	2		12	41.0	2.5	/experiments/AOT/AOT_stimuli/rescaled_final/1509_rv.mp4	0.0	304.7930610179901	0.0999460220336914
44	283.44852685928345	fix_pre	0		120	42.0	2.5	/experiments/AOT/AOT_stimuli/rescaled_final/0400_rv.mp4	0.0	304.8930070400238	1.0000240802764893
44	283.6320059299469	pulse	0	t		42.0	2.5	/experiments/AOT/AOT_stimuli/rescaled_final/0400_rv.mp4	0.0	305.07648611068726	
44	284.44855093955994	movie	1		244	42.0	2.5	/experiments/AOT/AOT_stimuli/rescaled_final/0400_rv.mp4	0.0	305.8930311203003	2.499958038330078
44	285.2319769859314	pulse	1	t		42.0	2.5	/experiments/AOT/AOT_stimuli/rescaled_final/0400_rv.mp4	0.0	306.67645716667175	
44	286.83212995529175	pulse	1	t		42.0	2.5	/experiments/AOT/AOT_stimuli/rescaled_final/0400_rv.mp4	0.0	308.2766101360321	
44	286.94850897789	fix_post	2		12	42.0	2.5	/experiments/AOT/AOT_stimuli/rescaled_final/0400_rv.mp4	0.0	308.39298915863037	0.10008001327514648
45	287.04858899116516	fix_pre	0		120	43.0	2.5	/experiments/AOT/AOT_stimuli/rescaled_final/0738_rv.mp4	0.0	308.4930691719055	1.0000100135803223
45	288.0485990047455	movie	1		244	43.0	2.5	/experiments/AOT/AOT_stimuli/rescaled_final/0738_rv.mp4	0.0	309.49307918548584	2.499894857406616
45	288.4316189289093	pulse	1	t		43.0	2.5	/experiments/AOT/AOT_stimuli/rescaled_final/0738_rv.mp4	0.0	309.87609910964966	
45	290.0319998264313	pulse	1	t		43.0	2.5	/experiments/AOT/AOT_stimuli/rescaled_final/0738_rv.mp4	0.0	311.47648000717163	
45	290.5484938621521	fix_post	2		12	43.0	2.5	/experiments/AOT/AOT_stimuli/rescaled_final/0738_rv.mp4	0.0	311.99297404289246	0.10000395774841309
46	290.6484978199005	fix_pre	0		119	44.0	2.5	/experiments/AOT/AOT_stimuli/rescaled_final/0437_fw.mp4	0.0	312.09297800064087	0.9916729927062988
46	291.63199400901794	pulse	0	t		44.0	2.5	/experiments/AOT/AOT_stimuli/rescaled_final/0437_fw.mp4	0.0	313.0764741897583	
46	291.6401708126068	movie	1		244	44.0	2.5	/experiments/AOT/AOT_stimuli/rescaled_final/0437_fw.mp4	0.0	313.08465099334717	2.5078160762786865
46	293.23222398757935	pulse	1	t		44.0	2.5	/experiments/AOT/AOT_stimuli/rescaled_final/0437_fw.mp4	0.0	314.6767041683197	
46	294.1479868888855	fix_post	2		12	44.0	2.5	/experiments/AOT/AOT_stimuli/rescaled_final/0437_fw.mp4	0.0	315.59246706962585	0.10046601295471191
47	294.2484529018402	fix_pre	0		120	45.0	2.5	/experiments/AOT/AOT_stimuli/rescaled_final/1223_fw.mp4	0.0	315.69293308258057	0.9999639987945557
47	294.83195900917053	pulse	0	t		45.0	2.5	/experiments/AOT/AOT_stimuli/rescaled_final/1223_fw.mp4	0.0	316.2764391899109	
47	295.24841690063477	movie	1		244	45.0	2.5	/experiments/AOT/AOT_stimuli/rescaled_final/1223_fw.mp4	0.0	316.6928970813751	2.500087022781372
47	296.4319648742676	pulse	1	t		45.0	2.5	/experiments/AOT/AOT_stimuli/rescaled_final/1223_fw.mp4	0.0	317.87644505500793	
47	297.74850392341614	fix_post	2		12	45.0	2.5	/experiments/AOT/AOT_stimuli/rescaled_final/1223_fw.mp4	0.0	319.1929841041565	0.09995508193969727
48	297.84845900535583	fix_pre	0		120	46.0	2.5	/experiments/AOT/AOT_stimuli/rescaled_final/0850_fw.mp4	0.0	319.2929391860962	1.0000159740447998
48	298.03197383880615	pulse	0	t		46.0	2.5	/experiments/AOT/AOT_stimuli/rescaled_final/0850_fw.mp4	0.0	319.4764540195465	
48	298.84847497940063	movie	1		244	46.0	2.5	/experiments/AOT/AOT_stimuli/rescaled_final/0850_fw.mp4	0.0	320.292955160141	2.4996259212493896
48	299.6318669319153	pulse	1	t		46.0	2.5	/experiments/AOT/AOT_stimuli/rescaled_final/0850_fw.mp4	0.0	321.07634711265564	
48	301.24028182029724	pulse	1	t		46.0	2.5	/experiments/AOT/AOT_stimuli/rescaled_final/0850_fw.mp4	0.0	322.6847620010376	
48	301.34810090065	fix_post	2		12	46.0	2.5	/experiments/AOT/AOT_stimuli/rescaled_final/0850_fw.mp4	0.0	322.7925810813904	0.10040807723999023
49	301.44850897789	fix_pre	0		120	47.0	2.5	/experiments/AOT/AOT_stimuli/rescaled_final/2031_rv.mp4	0.0	322.89298915863037	1.0000050067901611
49	302.4485139846802	movie	1		243	47.0	2.5	/experiments/AOT/AOT_stimuli/rescaled_final/2031_rv.mp4	0.0	323.89299416542053	2.4998679161071777
49	302.8312888145447	pulse	1	t		47.0	2.5	/experiments/AOT/AOT_stimuli/rescaled_final/2031_rv.mp4	0.0	324.27576899528503	
49	304.4319169521332	pulse	1	t		47.0	2.5	/experiments/AOT/AOT_stimuli/rescaled_final/2031_rv.mp4	0.0	325.87639713287354	
49	304.94838190078735	fix_post	2		12	47.0	2.5	/experiments/AOT/AOT_stimuli/rescaled_final/2031_rv.mp4	0.0	326.3928620815277	0.09999895095825195
50	305.0483808517456	fix_pre	0		119	48.0	2.5	blank	1.0	326.49286103248596	0.9917299747467041
50	306.03189992904663	pulse	0	t		48.0	2.5	blank	1.0	327.476380109787	
50	306.0401108264923	movie	1		301	48.0	2.5	blank	1.0	327.48459100723267	2.508319139480591
50	307.63186597824097	pulse	1	t		48.0	2.5	blank	1.0	329.0763461589813	
50	308.5484299659729	fix_post	2		12	48.0	2.5	blank	1.0	329.99291014671326	0.09989094734191895
51	308.6483209133148	fix_pre	0		120	49.0	2.5	/experiments/AOT/AOT_stimuli/rescaled_final/1939_rv.mp4	0.0	330.0928010940552	1.0001389980316162
51	309.2318489551544	pulse	0	t		49.0	2.5	/experiments/AOT/AOT_stimuli/rescaled_final/1939_rv.mp4	0.0	330.6763291358948	
51	309.64845991134644	movie	1		244	49.0	2.5	/experiments/AOT/AOT_stimuli/rescaled_final/1939_rv.mp4	0.0	331.0929400920868	2.5000159740448
51	310.83191084861755	pulse	1	t		49.0	2.5	/experiments/AOT/AOT_stimuli/rescaled_final/1939_rv.mp4	0.0	332.2763910293579	
51	312.14847588539124	fix_post	2		12	49.0	2.5	/experiments/AOT/AOT_stimuli/rescaled_final/1939_rv.mp4	0.0	333.5929560661316	0.0998539924621582
52	312.2483298778534	fix_pre	0		120	50.0	2.5	/experiments/AOT/AOT_stimuli/rescaled_final/0304_rv.mp4	0.0	333.69281005859375	1.0001399517059326
52	312.432030916214	pulse	0	t		50.0	2.5	/experiments/AOT/AOT_stimuli/rescaled_final/0304_rv.mp4	0.0	333.87651109695435	
52	313.2484698295593	movie	1		247	50.0	2.5	/experiments/AOT/AOT_stimuli/rescaled_final/0304_rv.mp4	0.0	334.6929500102997	2.5001330375671387
52	314.03139185905457	pulse	1	t		50.0	2.5	/experiments/AOT/AOT_stimuli/rescaled_final/0304_rv.mp4	0.0	335.4758720397949	
52	315.6332588195801	pulse	1	t		50.0	2.5	/experiments/AOT/AOT_stimuli/rescaled_final/0304_rv.mp4	0.0	337.07773900032043	
52	315.74860286712646	fix_post	2		12	50.0	2.5	/experiments/AOT/AOT_stimuli/rescaled_final/0304_rv.mp4	0.0	337.1930830478668	0.09955000877380371
53	315.84815287590027	fix_pre	0		120	51.0	2.5	/experiments/AOT/AOT_stimuli/rescaled_final/2042_rv.mp4	0.0	337.2926330566406	1.0002400875091553
53	316.8483929634094	movie	1		246	51.0	2.5	/experiments/AOT/AOT_stimuli/rescaled_final/2042_rv.mp4	0.0	338.2928731441498	2.4999608993530273
53	317.23283791542053	pulse	1	t		51.0	2.5	/experiments/AOT/AOT_stimuli/rescaled_final/2042_rv.mp4	0.0	338.6773180961609	
53	318.831748008728	pulse	1	t		51.0	2.5	/experiments/AOT/AOT_stimuli/rescaled_final/2042_rv.mp4	0.0	340.2762281894684	
53	319.34835386276245	fix_post	2		12	51.0	2.5	/experiments/AOT/AOT_stimuli/rescaled_final/2042_rv.mp4	0.0	340.7928340435028	0.09999394416809082
54	319.44834780693054	fix_pre	0		119	52.0	2.5	/experiments/AOT/AOT_stimuli/rescaled_final/0168_fw.mp4	0.0	340.8928279876709	0.991624116897583
54	320.43191599845886	pulse	0	t		52.0	2.5	/experiments/AOT/AOT_stimuli/rescaled_final/0168_fw.mp4	0.0	341.8763961791992	
54	320.4399719238281	movie	1		246	52.0	2.5	/experiments/AOT/AOT_stimuli/rescaled_final/0168_fw.mp4	0.0	341.8844521045685	2.508272886276245
54	322.0401668548584	pulse	1	t		52.0	2.5	/experiments/AOT/AOT_stimuli/rescaled_final/0168_fw.mp4	0.0	343.48464703559875	
54	322.94824481010437	fix_post	2		12	52.0	2.5	/experiments/AOT/AOT_stimuli/rescaled_final/0168_fw.mp4	0.0	344.3927249908447	0.10003113746643066
55	323.0482759475708	fix_pre	0		120	53.0	2.5	/experiments/AOT/AOT_stimuli/rescaled_final/0644_fw.mp4	0.0	344.49275612831116	0.9999899864196777
55	323.6318039894104	pulse	0	t		53.0	2.5	/experiments/AOT/AOT_stimuli/rescaled_final/0644_fw.mp4	0.0	345.07628417015076	
55	324.0482659339905	movie	1		243	53.0	2.5	/experiments/AOT/AOT_stimuli/rescaled_final/0644_fw.mp4	0.0	345.49274611473083	2.49959397315979
55	325.23186683654785	pulse	1	t		53.0	2.5	/experiments/AOT/AOT_stimuli/rescaled_final/0644_fw.mp4	0.0	346.6763470172882	
55	326.54785990715027	fix_post	2		12	53.0	2.5	/experiments/AOT/AOT_stimuli/rescaled_final/0644_fw.mp4	0.0	347.9923400878906	0.10034799575805664
56	326.6482079029083	fix_pre	0		120	54.0	2.5	/experiments/AOT/AOT_stimuli/rescaled_final/0834_fw.mp4	0.0	348.0926880836487	1.0001370906829834
56	326.83178186416626	pulse	0	t		54.0	2.5	/experiments/AOT/AOT_stimuli/rescaled_final/0834_fw.mp4	0.0	348.2762620449066	
56	327.6483449935913	movie	1		244	54.0	2.5	/experiments/AOT/AOT_stimuli/rescaled_final/0834_fw.mp4	0.0	349.09282517433167	2.499851942062378
56	328.4317469596863	pulse	1	t		54.0	2.5	/experiments/AOT/AOT_stimuli/rescaled_final/0834_fw.mp4	0.0	349.87622714042664	
56	330.04011583328247	pulse	1	t		54.0	2.5	/experiments/AOT/AOT_stimuli/rescaled_final/0834_fw.mp4	0.0	351.4845960140228	
56	330.1481969356537	fix_post	2		12	54.0	2.5	/experiments/AOT/AOT_stimuli/rescaled_final/0834_fw.mp4	0.0	351.59267711639404	0.10009407997131348
57	330.248291015625	fix_pre	0		120	55.0	2.5	blank	1.0	351.69277119636536	0.99997878074646
57	331.24826979637146	movie	1		300	55.0	2.5	blank	1.0	352.6927499771118	2.4999911785125732
57	331.63183784484863	pulse	1	t		55.0	2.5	blank	1.0	353.076318025589	
57	333.23175501823425	pulse	1	t		55.0	2.5	blank	1.0	354.6762351989746	
57	333.74826097488403	fix_post	2		12	55.0	2.5	blank	1.0	355.1927411556244	0.09994387626647949
58	333.8482048511505	fix_pre	0		119	56.0	2.5	/experiments/AOT/AOT_stimuli/rescaled_final/0609_fw.mp4	0.0	355.29268503189087	0.9916551113128662
58	334.8317458629608	pulse	0	t		56.0	2.5	/experiments/AOT/AOT_stimuli/rescaled_final/0609_fw.mp4	0.0	356.2762260437012	
58	334.8398599624634	movie	1		247	56.0	2.5	/experiments/AOT/AOT_stimuli/rescaled_final/0609_fw.mp4	0.0	356.28434014320374	2.5083580017089844
58	336.4313428401947	pulse	1	t		56.0	2.5	/experiments/AOT/AOT_stimuli/rescaled_final/0609_fw.mp4	0.0	357.87582302093506	
58	337.34821796417236	fix_post	2		12	56.0	2.5	/experiments/AOT/AOT_stimuli/rescaled_final/0609_fw.mp4	0.0	358.7926981449127	0.10002803802490234
59	337.44824600219727	fix_pre	0		120	57.0	2.5	/experiments/AOT/AOT_stimuli/rescaled_final/0666_fw.mp4	0.0	358.8927261829376	1.0000669956207275
59	338.0318179130554	pulse	0	t		57.0	2.5	/experiments/AOT/AOT_stimuli/rescaled_final/0666_fw.mp4	0.0	359.4762980937958	
59	338.448312997818	movie	1		244	57.0	2.5	/experiments/AOT/AOT_stimuli/rescaled_final/0666_fw.mp4	0.0	359.89279317855835	2.4999217987060547
59	339.6318049430847	pulse	1	t		57.0	2.5	/experiments/AOT/AOT_stimuli/rescaled_final/0666_fw.mp4	0.0	361.0762851238251	
59	340.94823479652405	fix_post	2		12	57.0	2.5	/experiments/AOT/AOT_stimuli/rescaled_final/0666_fw.mp4	0.0	362.3927149772644	0.09998607635498047
60	341.048220872879	fix_pre	0		120	58.0	2.5	/experiments/AOT/AOT_stimuli/rescaled_final/0740_fw.mp4	0.0	362.4927010536194	1.000020980834961
60	341.2317099571228	pulse	0	t		58.0	2.5	/experiments/AOT/AOT_stimuli/rescaled_final/0740_fw.mp4	0.0	362.67619013786316	
60	342.048241853714	movie	1		244	58.0	2.5	/experiments/AOT/AOT_stimuli/rescaled_final/0740_fw.mp4	0.0	363.49272203445435	2.5000579357147217
60	342.83177495002747	pulse	1	t		58.0	2.5	/experiments/AOT/AOT_stimuli/rescaled_final/0740_fw.mp4	0.0	364.2762551307678	
60	344.431765794754	pulse	1	t		58.0	2.5	/experiments/AOT/AOT_stimuli/rescaled_final/0740_fw.mp4	0.0	365.8762459754944	
60	344.5482997894287	fix_post	2		12	58.0	2.5	/experiments/AOT/AOT_stimuli/rescaled_final/0740_fw.mp4	0.0	365.99277997016907	0.09991621971130371
61	344.64821600914	fix_pre	0		120	59.0	2.5	/experiments/AOT/AOT_stimuli/rescaled_final/1008_fw.mp4	0.0	366.09269618988037	1.0000360012054443
61	345.64825201034546	movie	1		243	59.0	2.5	/experiments/AOT/AOT_stimuli/rescaled_final/1008_fw.mp4	0.0	367.0927321910858	2.499957799911499
61	346.0314428806305	pulse	1	t		59.0	2.5	/experiments/AOT/AOT_stimuli/rescaled_final/1008_fw.mp4	0.0	367.47592306137085	
61	347.6316738128662	pulse	1	t		59.0	2.5	/experiments/AOT/AOT_stimuli/rescaled_final/1008_fw.mp4	0.0	369.07615399360657	
61	348.14820981025696	fix_post	2		12	59.0	2.5	/experiments/AOT/AOT_stimuli/rescaled_final/1008_fw.mp4	0.0	369.5926899909973	0.10006117820739746
62	348.24827098846436	fix_pre	0		119	60.0	2.5	/experiments/AOT/AOT_stimuli/rescaled_final/0348_rv.mp4	0.0	369.6927511692047	0.9915950298309326
62	349.2316539287567	pulse	0	t		60.0	2.5	/experiments/AOT/AOT_stimuli/rescaled_final/0348_rv.mp4	0.0	370.67613410949707	
62	349.2398660182953	movie	1		244	60.0	2.5	/experiments/AOT/AOT_stimuli/rescaled_final/0348_rv.mp4	0.0	370.68434619903564	2.508281946182251
62	350.8317668437958	pulse	1	t		60.0	2.5	/experiments/AOT/AOT_stimuli/rescaled_final/0348_rv.mp4	0.0	372.27624702453613	
62	351.74814796447754	fix_post	2		12	60.0	2.5	/experiments/AOT/AOT_stimuli/rescaled_final/0348_rv.mp4	0.0	373.1926281452179	0.10000395774841309
63	351.84815192222595	fix_pre	0		120	61.0	2.5	/experiments/AOT/AOT_stimuli/rescaled_final/0186_fw.mp4	0.0	373.2926321029663	1.0000019073486328
63	352.4316349029541	pulse	0	t		61.0	2.5	/experiments/AOT/AOT_stimuli/rescaled_final/0186_fw.mp4	0.0	373.87611508369446	
63	352.8481538295746	movie	1		247	61.0	2.5	/experiments/AOT/AOT_stimuli/rescaled_final/0186_fw.mp4	0.0	374.29263401031494	2.499953031539917
63	354.0317599773407	pulse	1	t		61.0	2.5	/experiments/AOT/AOT_stimuli/rescaled_final/0186_fw.mp4	0.0	375.47624015808105	
63	355.3481068611145	fix_post	2		12	61.0	2.5	/experiments/AOT/AOT_stimuli/rescaled_final/0186_fw.mp4	0.0	376.79258704185486	0.0999910831451416
64	355.44809794425964	fix_pre	0		120	62.0	2.5	/experiments/AOT/AOT_stimuli/rescaled_final/0116_rv.mp4	0.0	376.892578125	1.0000419616699219
64	355.63170886039734	pulse	0	t		62.0	2.5	/experiments/AOT/AOT_stimuli/rescaled_final/0116_rv.mp4	0.0	377.0761890411377	
64	356.44813990592957	movie	1		245	62.0	2.5	/experiments/AOT/AOT_stimuli/rescaled_final/0116_rv.mp4	0.0	377.8926200866699	2.4999818801879883
64	357.23171401023865	pulse	1	t		62.0	2.5	/experiments/AOT/AOT_stimuli/rescaled_final/0116_rv.mp4	0.0	378.676194190979	
64	358.83195185661316	pulse	1	t		62.0	2.5	/experiments/AOT/AOT_stimuli/rescaled_final/0116_rv.mp4	0.0	380.2764320373535	
64	358.94812178611755	fix_post	2		12	62.0	2.5	/experiments/AOT/AOT_stimuli/rescaled_final/0116_rv.mp4	0.0	380.3926019668579	0.09995722770690918
65	359.04807901382446	fix_pre	0		120	63.0	2.5	blank	1.0	380.4925591945648	1.0001578330993652
65	360.0482368469238	movie	1		300	63.0	2.5	blank	1.0	381.4927170276642	2.499936103820801
65	360.43188881874084	pulse	1	t		63.0	2.5	blank	1.0	381.8763689994812	
65	362.0315799713135	pulse	1	t		63.0	2.5	blank	1.0	383.47606015205383	
65	362.54817295074463	fix_post	2		12	63.0	2.5	blank	1.0	383.992653131485	0.09997105598449707
66	362.6481440067291	fix_pre	0		119	64.0	2.5	/experiments/AOT/AOT_stimuli/rescaled_final/0063_fw.mp4	0.0	384.0926241874695	0.9916458129882812
66	363.6315839290619	pulse	0	t		64.0	2.5	/experiments/AOT/AOT_stimuli/rescaled_final/0063_fw.mp4	0.0	385.07606410980225	
66	363.6397898197174	movie	1		245	64.0	2.5	/experiments/AOT/AOT_stimuli/rescaled_final/0063_fw.mp4	0.0	385.08427000045776	2.5083630084991455
66	365.2313668727875	pulse	1	t		64.0	2.5	/experiments/AOT/AOT_stimuli/rescaled_final/0063_fw.mp4	0.0	386.67584705352783	
66	366.14815282821655	fix_post	2		12	64.0	2.5	/experiments/AOT/AOT_stimuli/rescaled_final/0063_fw.mp4	0.0	387.5926330089569	0.0999901294708252
67	366.2481429576874	fix_pre	0		120	65.0	2.5	/experiments/AOT/AOT_stimuli/rescaled_final/0965_rv.mp4	0.0	387.69262313842773	1.000135898590088
67	366.8315818309784	pulse	0	t		65.0	2.5	/experiments/AOT/AOT_stimuli/rescaled_final/0965_rv.mp4	0.0	388.27606201171875	
67	367.24827885627747	movie	1		245	65.0	2.5	/experiments/AOT/AOT_stimuli/rescaled_final/0965_rv.mp4	0.0	388.6927590370178	2.4999101161956787
67	368.4317088127136	pulse	1	t		65.0	2.5	/experiments/AOT/AOT_stimuli/rescaled_final/0965_rv.mp4	0.0	389.876188993454	
67	369.74818897247314	fix_post	2		12	65.0	2.5	/experiments/AOT/AOT_stimuli/rescaled_final/0965_rv.mp4	0.0	391.1926691532135	0.09946799278259277
68	369.84765696525574	fix_pre	0		120	66.0	2.5	/experiments/AOT/AOT_stimuli/rescaled_final/1747_fw.mp4	0.0	391.2921371459961	1.0005040168762207
68	370.0315909385681	pulse	0	t		66.0	2.5	/experiments/AOT/AOT_stimuli/rescaled_final/1747_fw.mp4	0.0	391.4760711193085	
68	370.84816098213196	movie	1		243	66.0	2.5	/experiments/AOT/AOT_stimuli/rescaled_final/1747_fw.mp4	0.0	392.2926411628723	2.500005006790161
68	371.63213896751404	pulse	1	t		66.0	2.5	/experiments/AOT/AOT_stimuli/rescaled_final/1747_fw.mp4	0.0	393.0766191482544	
68	373.23999786376953	pulse	1	t		66.0	2.5	/experiments/AOT/AOT_stimuli/rescaled_final/1747_fw.mp4	0.0	394.6844780445099	
68	373.3481659889221	fix_post	2		12	66.0	2.5	/experiments/AOT/AOT_stimuli/rescaled_final/1747_fw.mp4	0.0	394.7926461696625	0.0999138355255127
69	373.44807982444763	fix_pre	0		120	67.0	2.5	/experiments/AOT/AOT_stimuli/rescaled_final/1705_fw.mp4	0.0	394.892560005188	1.0000121593475342
69	374.44809198379517	movie	1		244	67.0	2.5	/experiments/AOT/AOT_stimuli/rescaled_final/1705_fw.mp4	0.0	395.8925721645355	2.4999568462371826
69	374.8400149345398	pulse	1	t		67.0	2.5	/experiments/AOT/AOT_stimuli/rescaled_final/1705_fw.mp4	0.0	396.28449511528015	
69	376.43159198760986	pulse	1	t		67.0	2.5	/experiments/AOT/AOT_stimuli/rescaled_final/1705_fw.mp4	0.0	397.8760721683502	
69	376.94804883003235	fix_post	2		12	67.0	2.5	/experiments/AOT/AOT_stimuli/rescaled_final/1705_fw.mp4	0.0	398.3925290107727	0.0999600887298584
70	377.0480089187622	fix_pre	0		119	68.0	2.5	blank	1.0	398.49248909950256	0.991703987121582
70	378.0314939022064	pulse	0	t		68.0	2.5	blank	1.0	399.4759740829468	
70	378.0397129058838	movie	1		301	68.0	2.5	blank	1.0	399.48419308662415	2.5082969665527344
70	379.63149094581604	pulse	1	t		68.0	2.5	blank	1.0	401.0759711265564	
70	380.5480098724365	fix_post	2		12	68.0	2.5	blank	1.0	401.9924900531769	0.09995102882385254
71	380.6479609012604	fix_pre	0		120	69.0	2.5	/experiments/AOT/AOT_stimuli/rescaled_final/0169_fw.mp4	0.0	402.09244108200073	1.0000479221343994
71	381.23156690597534	pulse	0	t		69.0	2.5	/experiments/AOT/AOT_stimuli/rescaled_final/0169_fw.mp4	0.0	402.6760470867157	
71	381.6480088233948	movie	1		244	69.0	2.5	/experiments/AOT/AOT_stimuli/rescaled_final/0169_fw.mp4	0.0	403.09248900413513	2.5000159740448
71	382.8315649032593	pulse	1	t		69.0	2.5	/experiments/AOT/AOT_stimuli/rescaled_final/0169_fw.mp4	0.0	404.27604508399963	
71	384.1480247974396	fix_post	2		12	69.0	2.5	/experiments/AOT/AOT_stimuli/rescaled_final/0169_fw.mp4	0.0	405.59250497817993	0.09996318817138672
72	384.24798798561096	fix_pre	0		120	70.0	2.5	/experiments/AOT/AOT_stimuli/rescaled_final/0477_fw.mp4	0.0	405.6924681663513	1.00003981590271
72	384.43155884742737	pulse	0	t		70.0	2.5	/experiments/AOT/AOT_stimuli/rescaled_final/0477_fw.mp4	0.0	405.8760390281677	
72	385.2480278015137	movie	1		245	70.0	2.5	/experiments/AOT/AOT_stimuli/rescaled_final/0477_fw.mp4	0.0	406.692507982254	2.5000200271606445
72	386.0323119163513	pulse	1	t		70.0	2.5	/experiments/AOT/AOT_stimuli/rescaled_final/0477_fw.mp4	0.0	407.4767920970917	
72	387.6361780166626	pulse	1	t		70.0	2.5	/experiments/AOT/AOT_stimuli/rescaled_final/0477_fw.mp4	0.0	409.08065819740295	
72	387.7480478286743	fix_post	2		12	70.0	2.5	/experiments/AOT/AOT_stimuli/rescaled_final/0477_fw.mp4	0.0	409.1925280094147	0.09990715980529785
73	387.8479549884796	fix_pre	0		120	71.0	2.5	/experiments/AOT/AOT_stimuli/rescaled_final/0363_fw.mp4	0.0	409.29243516921997	1.000046968460083
73	388.8480019569397	movie	1		244	71.0	2.5	/experiments/AOT/AOT_stimuli/rescaled_final/0363_fw.mp4	0.0	410.29248213768005	2.4999969005584717
73	389.2317237854004	pulse	1	t		71.0	2.5	/experiments/AOT/AOT_stimuli/rescaled_final/0363_fw.mp4	0.0	410.67620396614075	
73	390.8313958644867	pulse	1	t		71.0	2.5	/experiments/AOT/AOT_stimuli/rescaled_final/0363_fw.mp4	0.0	412.27587604522705	
73	391.34799885749817	fix_post	2		12	71.0	2.5	/experiments/AOT/AOT_stimuli/rescaled_final/0363_fw.mp4	0.0	412.7924790382385	0.09992694854736328
74	391.44792580604553	fix_pre	0		119	72.0	2.5	/experiments/AOT/AOT_stimuli/rescaled_final/1162_fw.mp4	0.0	412.8924059867859	0.9916660785675049
74	392.4314420223236	pulse	0	t		72.0	2.5	/experiments/AOT/AOT_stimuli/rescaled_final/1162_fw.mp4	0.0	413.87592220306396	
74	392.43959188461304	movie	1		244	72.0	2.5	/experiments/AOT/AOT_stimuli/rescaled_final/1162_fw.mp4	0.0	413.8840720653534	2.508465051651001
74	394.0311019420624	pulse	1	t		72.0	2.5	/experiments/AOT/AOT_stimuli/rescaled_final/1162_fw.mp4	0.0	415.47558212280273	
74	394.94805693626404	fix_post	2		12	72.0	2.5	/experiments/AOT/AOT_stimuli/rescaled_final/1162_fw.mp4	0.0	416.3925371170044	0.09990787506103516
75	395.0479648113251	fix_pre	0		120	73.0	2.5	/experiments/AOT/AOT_stimuli/rescaled_final/0389_rv.mp4	0.0	416.49244499206543	0.9999949932098389
75	395.6313798427582	pulse	0	t		73.0	2.5	/experiments/AOT/AOT_stimuli/rescaled_final/0389_rv.mp4	0.0	417.07586002349854	
75	396.0479598045349	movie	1		247	73.0	2.5	/experiments/AOT/AOT_stimuli/rescaled_final/0389_rv.mp4	0.0	417.49243998527527	2.4995970726013184
75	397.2314908504486	pulse	1	t		73.0	2.5	/experiments/AOT/AOT_stimuli/rescaled_final/0389_rv.mp4	0.0	418.67597103118896	
75	398.54755687713623	fix_post	2		12	73.0	2.5	/experiments/AOT/AOT_stimuli/rescaled_final/0389_rv.mp4	0.0	419.9920370578766	0.10040593147277832
76	398.647962808609	fix_pre	0		120	74.0	2.5	/experiments/AOT/AOT_stimuli/rescaled_final/2101_rv.mp4	0.0	420.09244298934937	0.9999470710754395
76	398.83148193359375	pulse	0	t		74.0	2.5	/experiments/AOT/AOT_stimuli/rescaled_final/2101_rv.mp4	0.0	420.2759621143341	
76	399.64790987968445	movie	1		246	74.0	2.5	/experiments/AOT/AOT_stimuli/rescaled_final/2101_rv.mp4	0.0	421.0923900604248	2.4999539852142334
76	400.43167185783386	pulse	1	t		74.0	2.5	/experiments/AOT/AOT_stimuli/rescaled_final/2101_rv.mp4	0.0	421.8761520385742	
76	402.0399489402771	pulse	1	t		74.0	2.5	/experiments/AOT/AOT_stimuli/rescaled_final/2101_rv.mp4	0.0	423.48442912101746	
76	402.1478638648987	fix_post	2		12	74.0	2.5	/experiments/AOT/AOT_stimuli/rescaled_final/2101_rv.mp4	0.0	423.59234404563904	0.10008001327514648
77	402.2479438781738	fix_pre	0		120	75.0	2.5	/experiments/AOT/AOT_stimuli/rescaled_final/0303_fw.mp4	0.0	423.6924240589142	0.999932050704956
77	403.2478759288788	movie	1		246	75.0	2.5	/experiments/AOT/AOT_stimuli/rescaled_final/0303_fw.mp4	0.0	424.69235610961914	2.5000150203704834
77	403.6399199962616	pulse	1	t		75.0	2.5	/experiments/AOT/AOT_stimuli/rescaled_final/0303_fw.mp4	0.0	425.08440017700195	
77	405.23234391212463	pulse	1	t		75.0	2.5	/experiments/AOT/AOT_stimuli/rescaled_final/0303_fw.mp4	0.0	426.676824092865	
77	405.74789094924927	fix_post	2		12	75.0	2.5	/experiments/AOT/AOT_stimuli/rescaled_final/0303_fw.mp4	0.0	427.1923711299896	0.10001397132873535
78	405.847904920578	fix_pre	0		119	76.0	2.5	blank	1.0	427.29238510131836	0.9916548728942871
78	406.8313457965851	pulse	0	t		76.0	2.5	blank	1.0	428.27582597732544	
78	406.8395597934723	movie	1		301	76.0	2.5	blank	1.0	428.28403997421265	2.50838303565979
78	408.4313859939575	pulse	1	t		76.0	2.5	blank	1.0	429.8758661746979	
78	409.3479428291321	fix_post	2		12	76.0	2.5	blank	1.0	430.79242300987244	0.09992814064025879
79	409.44787096977234	fix_pre	0		120	77.0	2.5	/experiments/AOT/AOT_stimuli/rescaled_final/1321_fw.mp4	0.0	430.8923511505127	1.000067949295044
79	410.03151679039	pulse	0	t		77.0	2.5	/experiments/AOT/AOT_stimuli/rescaled_final/1321_fw.mp4	0.0	431.47599697113037	
79	410.4479389190674	movie	1		244	77.0	2.5	/experiments/AOT/AOT_stimuli/rescaled_final/1321_fw.mp4	0.0	431.89241909980774	2.4999570846557617
79	411.6314549446106	pulse	1	t		77.0	2.5	/experiments/AOT/AOT_stimuli/rescaled_final/1321_fw.mp4	0.0	433.07593512535095	
79	412.94789600372314	fix_post	2		12	77.0	2.5	/experiments/AOT/AOT_stimuli/rescaled_final/1321_fw.mp4	0.0	434.3923761844635	0.10001492500305176
80	413.0479109287262	fix_pre	0		120	78.0	2.5	/experiments/AOT/AOT_stimuli/rescaled_final/1352_fw.mp4	0.0	434.49239110946655	1.0000410079956055
80	413.231360912323	pulse	0	t		78.0	2.5	/experiments/AOT/AOT_stimuli/rescaled_final/1352_fw.mp4	0.0	434.67584109306335	
80	414.0479519367218	movie	1		243	78.0	2.5	/experiments/AOT/AOT_stimuli/rescaled_final/1352_fw.mp4	0.0	435.49243211746216	2.499917984008789
80	414.8313570022583	pulse	1	t		78.0	2.5	/experiments/AOT/AOT_stimuli/rescaled_final/1352_fw.mp4	0.0	436.27583718299866	
80	416.4397668838501	pulse	1	t		78.0	2.5	/experiments/AOT/AOT_stimuli/rescaled_final/1352_fw.mp4	0.0	437.88424706459045	
80	416.5478699207306	fix_post	2		12	78.0	2.5	/experiments/AOT/AOT_stimuli/rescaled_final/1352_fw.mp4	0.0	437.99235010147095	0.09991908073425293
81	416.64778900146484	fix_pre	0		120	79.0	2.5	/experiments/AOT/AOT_stimuli/rescaled_final/1599_rv.mp4	0.0	438.0922691822052	1.0000548362731934
81	417.64784383773804	movie	1		244	79.0	2.5	/experiments/AOT/AOT_stimuli/rescaled_final/1599_rv.mp4	0.0	439.0923240184784	2.5000410079956055
81	418.0397698879242	pulse	1	t		79.0	2.5	/experiments/AOT/AOT_stimuli/rescaled_final/1599_rv.mp4	0.0	439.48425006866455	
81	419.6321289539337	pulse	1	t		79.0	2.5	/experiments/AOT/AOT_stimuli/rescaled_final/1599_rv.mp4	0.0	441.0766091346741	
81	420.14788484573364	fix_post	2		12	79.0	2.5	/experiments/AOT/AOT_stimuli/rescaled_final/1599_rv.mp4	0.0	441.592365026474	0.099884033203125
82	420.24776887893677	fix_pre	0		120	80.0	2.5	/experiments/AOT/AOT_stimuli/rescaled_final/2122_rv.mp4	0.0	441.6922490596771	1.000072956085205
82	421.23217391967773	pulse	0	t		80.0	2.5	/experiments/AOT/AOT_stimuli/rescaled_final/2122_rv.mp4	0.0	442.6766541004181	
82	421.247841835022	movie	1		244	80.0	2.5	/experiments/AOT/AOT_stimuli/rescaled_final/2122_rv.mp4	0.0	442.69232201576233	2.508455991744995
82	422.8409149646759	pulse	1	t		80.0	2.5	/experiments/AOT/AOT_stimuli/rescaled_final/2122_rv.mp4	0.0	444.28539514541626	
82	423.75629782676697	fix_post	2		12	80.0	2.5	/experiments/AOT/AOT_stimuli/rescaled_final/2122_rv.mp4	0.0	445.2007780075073	0.09988617897033691
83	423.8561840057373	fix_pre	0		120	81.0	2.5	/experiments/AOT/AOT_stimuli/rescaled_final/2131_rv.mp4	0.0	445.30066418647766	1.0000059604644775
83	424.4314270019531	pulse	0	t		81.0	2.5	/experiments/AOT/AOT_stimuli/rescaled_final/2131_rv.mp4	0.0	445.8759071826935	
83	424.8561899662018	movie	1		245	81.0	2.5	/experiments/AOT/AOT_stimuli/rescaled_final/2131_rv.mp4	0.0	446.30067014694214	2.4997589588165283
83	426.03933691978455	pulse	1	t		81.0	2.5	/experiments/AOT/AOT_stimuli/rescaled_final/2131_rv.mp4	0.0	447.4838171005249	
83	427.3559489250183	fix_post	2		12	81.0	2.5	/experiments/AOT/AOT_stimuli/rescaled_final/2131_rv.mp4	0.0	448.80042910575867	0.10040807723999023
84	427.4563570022583	fix_pre	0		120	82.0	2.5	/experiments/AOT/AOT_stimuli/rescaled_final/2131_fw.mp4	0.0	448.90083718299866	1.0000789165496826
84	427.63154101371765	pulse	0	t		82.0	2.5	/experiments/AOT/AOT_stimuli/rescaled_final/2131_fw.mp4	0.0	449.076021194458	
84	428.456435918808	movie	1		247	82.0	2.5	/experiments/AOT/AOT_stimuli/rescaled_final/2131_fw.mp4	0.0	449.90091609954834	2.499307870864868
84	429.23122382164	pulse	1	t		82.0	2.5	/experiments/AOT/AOT_stimuli/rescaled_final/2131_fw.mp4	0.0	450.67570400238037	
84	430.8311998844147	pulse	1	t		82.0	2.5	/experiments/AOT/AOT_stimuli/rescaled_final/2131_fw.mp4	0.0	452.27568006515503	
84	430.95574378967285	fix_post	2		12	82.0	2.5	/experiments/AOT/AOT_stimuli/rescaled_final/2131_fw.mp4	0.0	452.4002239704132	0.10033416748046875
85	431.0560779571533	fix_pre	0		120	83.0	2.5	blank	1.0	452.5005581378937	1.0001120567321777
85	432.0561900138855	movie	1		300	83.0	2.5	blank	1.0	453.50067019462585	2.4998648166656494
85	432.4313688278198	pulse	1	t		83.0	2.5	blank	1.0	453.8758490085602	
85	434.0319218635559	pulse	1	t		83.0	2.5	blank	1.0	455.47640204429626	
85	434.55605483055115	fix_post	2		12	83.0	2.5	blank	1.0	456.0005350112915	0.09999799728393555
87	434.6560528278351	stim	0		1716					456.10053300857544	14.300012111663818
87	435.6321280002594	pulse	0	t						457.07660818099976	
87	437.232088804245	pulse	0	t						458.67656898498535	
87	438.8312919139862	pulse	0	t						460.27577209472656	
87	440.43214988708496	pulse	0	t						461.8766300678253	
87	442.03122901916504	pulse	0	t						463.4757091999054	
87	443.63121581077576	pulse	0	t						465.0756959915161	
87	445.23117899894714	pulse	0	t						466.6756591796875	
87	446.83119082450867	pulse	0	t						468.275671005249	
87	448.43120884895325	pulse	0	t						469.8756890296936	
