trial_nr	onset	event_type	phase	response	nr_frames	movie_index	movie_duration	movie_file	blank	onset_abs	duration
0	0.15838313102722168	stim	0		6					21.406763076782227	0.04985499382019043
0	0.1997089385986328	response	0	space						21.448088884353638	
1	0.2082381248474121	stim	0		4657					21.456618070602417	38.80817699432373
1	39.01133108139038	pulse	0	t						60.259711027145386	
1	39.01641511917114	stim	1		1717					60.26479506492615	14.308194875717163
1	40.608120918273926	pulse	1	t						61.85650086402893	
1	42.20070195198059	pulse	1	t						63.449081897735596	
1	43.80064797401428	pulse	1	t						65.04902791976929	
1	45.400733947753906	pulse	1	t						66.64911389350891	
1	47.00062894821167	pulse	1	t						68.24900889396667	
1	48.600624084472656	pulse	1	t						69.84900403022766	
1	50.20057702064514	pulse	1	t						71.44895696640015	
1	51.80084490776062	pulse	1	t						73.04922485351562	
2	53.324609994888306	fix_pre	0		11	0.0	2.5	/experiments/AOT/AOT_stimuli/rescaled_final/0212_rv.mp4	0.0	74.57298994064331	0.0917210578918457
2	53.40820002555847	pulse	0	t		0.0	2.5	/experiments/AOT/AOT_stimuli/rescaled_final/0212_rv.mp4	0.0	74.65657997131348	
2	53.41633105278015	movie	1		243	0.0	2.5	/experiments/AOT/AOT_stimuli/rescaled_final/0212_rv.mp4	0.0	74.66471099853516	2.507964849472046
2	55.00766205787659	pulse	1	t		0.0	2.5	/experiments/AOT/AOT_stimuli/rescaled_final/0212_rv.mp4	0.0	76.25604200363159	
2	55.9242959022522	fix_post	2		12	0.0	2.5	/experiments/AOT/AOT_stimuli/rescaled_final/0212_rv.mp4	0.0	77.1726758480072	0.10037803649902344
3	56.02467393875122	fix_pre	0		120	1.0	2.5	/experiments/AOT/AOT_stimuli/rescaled_final/0837_fw.mp4	0.0	77.27305388450623	0.9995071887969971
3	56.60816407203674	pulse	0	t		1.0	2.5	/experiments/AOT/AOT_stimuli/rescaled_final/0837_fw.mp4	0.0	77.85654401779175	
3	57.02418112754822	movie	1		243	1.0	2.5	/experiments/AOT/AOT_stimuli/rescaled_final/0837_fw.mp4	0.0	78.27256107330322	2.499926805496216
3	58.20812797546387	pulse	1	t		1.0	2.5	/experiments/AOT/AOT_stimuli/rescaled_final/0837_fw.mp4	0.0	79.45650792121887	
3	59.524107933044434	fix_post	2		12	1.0	2.5	/experiments/AOT/AOT_stimuli/rescaled_final/0837_fw.mp4	0.0	80.77248787879944	0.10053110122680664
4	59.62463903427124	fix_pre	0		120	2.0	2.5	/experiments/AOT/AOT_stimuli/rescaled_final/0313_rv.mp4	0.0	80.87301898002625	0.9998960494995117
4	59.80813813209534	pulse	0	t		2.0	2.5	/experiments/AOT/AOT_stimuli/rescaled_final/0313_rv.mp4	0.0	81.05651807785034	
4	60.62453508377075	movie	1		244	2.0	2.5	/experiments/AOT/AOT_stimuli/rescaled_final/0313_rv.mp4	0.0	81.87291502952576	2.500058889389038
4	61.400660037994385	pulse	1	t		2.0	2.5	/experiments/AOT/AOT_stimuli/rescaled_final/0313_rv.mp4	0.0	82.64903998374939	
4	63.00674796104431	pulse	1	t		2.0	2.5	/experiments/AOT/AOT_stimuli/rescaled_final/0313_rv.mp4	0.0	84.25512790679932	
4	63.12459397315979	fix_post	2		12	2.0	2.5	/experiments/AOT/AOT_stimuli/rescaled_final/0313_rv.mp4	0.0	84.3729739189148	0.09999203681945801
5	63.22458600997925	fix_pre	0		120	3.0	2.5	/experiments/AOT/AOT_stimuli/rescaled_final/0039_rv.mp4	0.0	84.47296595573425	0.9999411106109619
5	64.22452712059021	movie	1		244	3.0	2.5	/experiments/AOT/AOT_stimuli/rescaled_final/0039_rv.mp4	0.0	85.47290706634521	2.500140905380249
5	64.60753107070923	pulse	1	t		3.0	2.5	/experiments/AOT/AOT_stimuli/rescaled_final/0039_rv.mp4	0.0	85.85591101646423	
5	66.20070600509644	pulse	1	t		3.0	2.5	/experiments/AOT/AOT_stimuli/rescaled_final/0039_rv.mp4	0.0	87.44908595085144	
5	66.72466802597046	fix_post	2		12	3.0	2.5	/experiments/AOT/AOT_stimuli/rescaled_final/0039_rv.mp4	0.0	87.97304797172546	0.09983706474304199
6	66.8245050907135	fix_pre	0		119	4.0	2.5	/experiments/AOT/AOT_stimuli/rescaled_final/0503_rv.mp4	0.0	88.0728850364685	0.9917869567871094
6	67.80072212219238	pulse	0	t		4.0	2.5	/experiments/AOT/AOT_stimuli/rescaled_final/0503_rv.mp4	0.0	89.04910206794739	
6	67.81629204750061	movie	1		246	4.0	2.5	/experiments/AOT/AOT_stimuli/rescaled_final/0503_rv.mp4	0.0	89.06467199325562	2.5080718994140625
6	69.40757703781128	pulse	1	t		4.0	2.5	/experiments/AOT/AOT_stimuli/rescaled_final/0503_rv.mp4	0.0	90.65595698356628	
6	70.32436394691467	fix_post	2		12	4.0	2.5	/experiments/AOT/AOT_stimuli/rescaled_final/0503_rv.mp4	0.0	91.57274389266968	0.09985518455505371
7	70.42421913146973	fix_pre	0		120	5.0	2.5	/experiments/AOT/AOT_stimuli/rescaled_final/1483_fw.mp4	0.0	91.67259907722473	1.0001938343048096
7	71.00818109512329	pulse	0	t		5.0	2.5	/experiments/AOT/AOT_stimuli/rescaled_final/1483_fw.mp4	0.0	92.2565610408783	
7	71.42441296577454	movie	1		243	5.0	2.5	/experiments/AOT/AOT_stimuli/rescaled_final/1483_fw.mp4	0.0	92.67279291152954	2.500143051147461
7	72.60824513435364	pulse	1	t		5.0	2.5	/experiments/AOT/AOT_stimuli/rescaled_final/1483_fw.mp4	0.0	93.85662508010864	
7	73.924556016922	fix_post	2		12	5.0	2.5	/experiments/AOT/AOT_stimuli/rescaled_final/1483_fw.mp4	0.0	95.172935962677	0.09998893737792969
8	74.02454495429993	fix_pre	0		120	6.0	2.5	blank	1.0	95.27292490005493	0.9999489784240723
8	74.20805096626282	pulse	0	t		6.0	2.5	blank	1.0	95.45643091201782	
8	75.024493932724	movie	1		300	6.0	2.5	blank	1.0	96.272873878479	2.4999611377716064
8	75.80792307853699	pulse	1	t		6.0	2.5	blank	1.0	97.05630302429199	
8	77.40788412094116	pulse	1	t		6.0	2.5	blank	1.0	98.65626406669617	
8	77.5244550704956	fix_post	2		12	6.0	2.5	blank	1.0	98.77283501625061	0.10002589225769043
9	77.6244809627533	fix_pre	0		120	7.0	2.5	/experiments/AOT/AOT_stimuli/rescaled_final/0384_fw.mp4	0.0	98.8728609085083	0.9999711513519287
9	78.62445211410522	movie	1		243	7.0	2.5	/experiments/AOT/AOT_stimuli/rescaled_final/0384_fw.mp4	0.0	99.87283205986023	2.499572992324829
9	79.0077531337738	pulse	1	t		7.0	2.5	/experiments/AOT/AOT_stimuli/rescaled_final/0384_fw.mp4	0.0	100.25613307952881	
9	80.60060906410217	pulse	1	t		7.0	2.5	/experiments/AOT/AOT_stimuli/rescaled_final/0384_fw.mp4	0.0	101.84898900985718	
9	81.12402510643005	fix_post	2		12	7.0	2.5	/experiments/AOT/AOT_stimuli/rescaled_final/0384_fw.mp4	0.0	102.37240505218506	0.10008883476257324
10	81.22411394119263	fix_pre	0		119	8.0	2.5	/experiments/AOT/AOT_stimuli/rescaled_final/1266_rv.mp4	0.0	102.47249388694763	0.9919471740722656
10	82.20051598548889	pulse	0	t		8.0	2.5	/experiments/AOT/AOT_stimuli/rescaled_final/1266_rv.mp4	0.0	103.4488959312439	
10	82.21606111526489	movie	1		248	8.0	2.5	/experiments/AOT/AOT_stimuli/rescaled_final/1266_rv.mp4	0.0	103.4644410610199	2.507967948913574
10	83.80752611160278	pulse	1	t		8.0	2.5	/experiments/AOT/AOT_stimuli/rescaled_final/1266_rv.mp4	0.0	105.05590605735779	
10	84.72402906417847	fix_post	2		12	8.0	2.5	/experiments/AOT/AOT_stimuli/rescaled_final/1266_rv.mp4	0.0	105.97240900993347	0.10007596015930176
11	84.82410502433777	fix_pre	0		120	9.0	2.5	/experiments/AOT/AOT_stimuli/rescaled_final/0279_rv.mp4	0.0	106.07248497009277	1.000330924987793
11	85.40793490409851	pulse	0	t		9.0	2.5	/experiments/AOT/AOT_stimuli/rescaled_final/0279_rv.mp4	0.0	106.65631484985352	
11	85.82443594932556	movie	1		246	9.0	2.5	/experiments/AOT/AOT_stimuli/rescaled_final/0279_rv.mp4	0.0	107.07281589508057	2.499636173248291
11	87.00795698165894	pulse	1	t		9.0	2.5	/experiments/AOT/AOT_stimuli/rescaled_final/0279_rv.mp4	0.0	108.25633692741394	
11	88.32407212257385	fix_post	2		12	9.0	2.5	/experiments/AOT/AOT_stimuli/rescaled_final/0279_rv.mp4	0.0	109.57245206832886	0.10041499137878418
12	88.42448711395264	fix_pre	0		120	10.0	2.5	/experiments/AOT/AOT_stimuli/rescaled_final/2107_fw.mp4	0.0	109.67286705970764	0.9995899200439453
12	88.60791301727295	pulse	0	t		10.0	2.5	/experiments/AOT/AOT_stimuli/rescaled_final/2107_fw.mp4	0.0	109.85629296302795	
12	89.42407703399658	movie	1		249	10.0	2.5	/experiments/AOT/AOT_stimuli/rescaled_final/2107_fw.mp4	0.0	110.67245697975159	2.50032901763916
12	90.2079770565033	pulse	1	t		10.0	2.5	/experiments/AOT/AOT_stimuli/rescaled_final/2107_fw.mp4	0.0	111.4563570022583	
12	91.80787396430969	pulse	1	t		10.0	2.5	/experiments/AOT/AOT_stimuli/rescaled_final/2107_fw.mp4	0.0	113.0562539100647	
12	91.92440605163574	fix_post	2		12	10.0	2.5	/experiments/AOT/AOT_stimuli/rescaled_final/2107_fw.mp4	0.0	113.17278599739075	0.0995478630065918
13	92.02395391464233	fix_pre	0		120	11.0	2.5	/experiments/AOT/AOT_stimuli/rescaled_final/1297_fw.mp4	0.0	113.27233386039734	1.000042200088501
13	93.02399611473083	movie	1		244	11.0	2.5	/experiments/AOT/AOT_stimuli/rescaled_final/1297_fw.mp4	0.0	114.27237606048584	2.5003747940063477
13	93.4075391292572	pulse	1	t		11.0	2.5	/experiments/AOT/AOT_stimuli/rescaled_final/1297_fw.mp4	0.0	114.6559190750122	
13	95.0005099773407	pulse	1	t		11.0	2.5	/experiments/AOT/AOT_stimuli/rescaled_final/1297_fw.mp4	0.0	116.2488899230957	
13	95.52437090873718	fix_post	2		12	11.0	2.5	/experiments/AOT/AOT_stimuli/rescaled_final/1297_fw.mp4	0.0	116.77275085449219	0.1000511646270752
14	95.62442207336426	fix_pre	0		119	12.0	2.5	/experiments/AOT/AOT_stimuli/rescaled_final/1635_rv.mp4	0.0	116.87280201911926	0.9917659759521484
14	96.60793089866638	pulse	0	t		12.0	2.5	/experiments/AOT/AOT_stimuli/rescaled_final/1635_rv.mp4	0.0	117.85631084442139	
14	96.6161880493164	movie	1		245	12.0	2.5	/experiments/AOT/AOT_stimuli/rescaled_final/1635_rv.mp4	0.0	117.86456799507141	2.5081288814544678
14	98.2090790271759	pulse	1	t		12.0	2.5	/experiments/AOT/AOT_stimuli/rescaled_final/1635_rv.mp4	0.0	119.45745897293091	
14	99.12431693077087	fix_post	2		12	12.0	2.5	/experiments/AOT/AOT_stimuli/rescaled_final/1635_rv.mp4	0.0	120.37269687652588	0.1000521183013916
15	99.22436904907227	fix_pre	0		120	13.0	2.5	/experiments/AOT/AOT_stimuli/rescaled_final/0452_fw.mp4	0.0	120.47274899482727	0.9999909400939941
15	99.80034303665161	pulse	0	t		13.0	2.5	/experiments/AOT/AOT_stimuli/rescaled_final/0452_fw.mp4	0.0	121.04872298240662	
15	100.22435998916626	movie	1		244	13.0	2.5	/experiments/AOT/AOT_stimuli/rescaled_final/0452_fw.mp4	0.0	121.47273993492126	2.4996869564056396
15	101.4079921245575	pulse	1	t		13.0	2.5	/experiments/AOT/AOT_stimuli/rescaled_final/0452_fw.mp4	0.0	122.6563720703125	
15	102.7240469455719	fix_post	2		12	13.0	2.5	/experiments/AOT/AOT_stimuli/rescaled_final/0452_fw.mp4	0.0	123.9724268913269	0.09992218017578125
16	102.82396912574768	fix_pre	0		120	14.0	2.5	blank	1.0	124.07234907150269	0.9999089241027832
16	103.00787901878357	pulse	0	t		14.0	2.5	blank	1.0	124.25625896453857	
16	103.82387804985046	movie	1		300	14.0	2.5	blank	1.0	125.07225799560547	2.5005340576171875
16	104.60791110992432	pulse	1	t		14.0	2.5	blank	1.0	125.85629105567932	
16	106.20790600776672	pulse	1	t		14.0	2.5	blank	1.0	127.45628595352173	
16	106.32441210746765	fix_post	2		12	14.0	2.5	blank	1.0	127.57279205322266	0.09953594207763672
17	106.42394804954529	fix_pre	0		120	15.0	2.5	/experiments/AOT/AOT_stimuli/rescaled_final/2088_rv.mp4	0.0	127.6723279953003	1.000459909439087
17	107.42440795898438	movie	1		246	15.0	2.5	/experiments/AOT/AOT_stimuli/rescaled_final/2088_rv.mp4	0.0	128.67278790473938	2.499521017074585
17	107.80744695663452	pulse	1	t		15.0	2.5	/experiments/AOT/AOT_stimuli/rescaled_final/2088_rv.mp4	0.0	129.05582690238953	
17	109.40785598754883	pulse	1	t		15.0	2.5	/experiments/AOT/AOT_stimuli/rescaled_final/2088_rv.mp4	0.0	130.65623593330383	
17	109.92392897605896	fix_post	2		12	15.0	2.5	/experiments/AOT/AOT_stimuli/rescaled_final/2088_rv.mp4	0.0	131.17230892181396	0.10031294822692871
18	110.02424192428589	fix_pre	0		119	16.0	2.5	/experiments/AOT/AOT_stimuli/rescaled_final/0360_rv.mp4	0.0	131.2726218700409	0.9918301105499268
18	111.0079300403595	pulse	0	t		16.0	2.5	/experiments/AOT/AOT_stimuli/rescaled_final/0360_rv.mp4	0.0	132.2563099861145	
18	111.01607203483582	movie	1		245	16.0	2.5	/experiments/AOT/AOT_stimuli/rescaled_final/0360_rv.mp4	0.0	132.26445198059082	2.5078160762786865
18	112.60767197608948	pulse	1	t		16.0	2.5	/experiments/AOT/AOT_stimuli/rescaled_final/0360_rv.mp4	0.0	133.85605192184448	
18	113.5238881111145	fix_post	2		12	16.0	2.5	/experiments/AOT/AOT_stimuli/rescaled_final/0360_rv.mp4	0.0	134.7722680568695	0.10003185272216797
19	113.62391996383667	fix_pre	0		120	17.0	2.5	/experiments/AOT/AOT_stimuli/rescaled_final/1205_rv.mp4	0.0	134.87229990959167	1.0004630088806152
19	114.20032811164856	pulse	0	t		17.0	2.5	/experiments/AOT/AOT_stimuli/rescaled_final/1205_rv.mp4	0.0	135.44870805740356	
19	114.62438297271729	movie	1		244	17.0	2.5	/experiments/AOT/AOT_stimuli/rescaled_final/1205_rv.mp4	0.0	135.8727629184723	2.4999210834503174
19	115.80060911178589	pulse	1	t		17.0	2.5	/experiments/AOT/AOT_stimuli/rescaled_final/1205_rv.mp4	0.0	137.0489890575409	
19	117.1243040561676	fix_post	2		12	17.0	2.5	/experiments/AOT/AOT_stimuli/rescaled_final/1205_rv.mp4	0.0	138.3726840019226	0.09996390342712402
20	117.22426795959473	fix_pre	0		120	18.0	2.5	/experiments/AOT/AOT_stimuli/rescaled_final/1696_fw.mp4	0.0	138.47264790534973	1.0000090599060059
20	117.40781712532043	pulse	0	t		18.0	2.5	/experiments/AOT/AOT_stimuli/rescaled_final/1696_fw.mp4	0.0	138.65619707107544	
20	118.22427701950073	movie	1		243	18.0	2.5	/experiments/AOT/AOT_stimuli/rescaled_final/1696_fw.mp4	0.0	139.47265696525574	2.4995760917663574
20	119.0078239440918	pulse	1	t		18.0	2.5	/experiments/AOT/AOT_stimuli/rescaled_final/1696_fw.mp4	0.0	140.2562038898468	
20	120.60640907287598	pulse	1	t		18.0	2.5	/experiments/AOT/AOT_stimuli/rescaled_final/1696_fw.mp4	0.0	141.85478901863098	
20	120.72385311126709	fix_post	2		12	18.0	2.5	/experiments/AOT/AOT_stimuli/rescaled_final/1696_fw.mp4	0.0	141.9722330570221	0.10007500648498535
21	120.82392811775208	fix_pre	0		120	19.0	2.5	blank	1.0	142.07230806350708	1.0003409385681152
21	121.82426905632019	movie	1		300	19.0	2.5	blank	1.0	143.0726490020752	2.5001959800720215
21	122.20788812637329	pulse	1	t		19.0	2.5	blank	1.0	143.4562680721283	
21	123.80788397789001	pulse	1	t		19.0	2.5	blank	1.0	145.05626392364502	
21	124.32446503639221	fix_post	2		12	19.0	2.5	blank	1.0	145.57284498214722	0.09986591339111328
22	124.42433094978333	fix_pre	0		119	20.0	2.5	/experiments/AOT/AOT_stimuli/rescaled_final/1730_rv.mp4	0.0	145.67271089553833	0.9916410446166992
22	125.40728902816772	pulse	0	t		20.0	2.5	/experiments/AOT/AOT_stimuli/rescaled_final/1730_rv.mp4	0.0	146.65566897392273	
22	125.41597199440002	movie	1		242	20.0	2.5	/experiments/AOT/AOT_stimuli/rescaled_final/1730_rv.mp4	0.0	146.66435194015503	2.508631944656372
22	127.00906300544739	pulse	1	t		20.0	2.5	/experiments/AOT/AOT_stimuli/rescaled_final/1730_rv.mp4	0.0	148.2574429512024	
22	127.9246039390564	fix_post	2		12	20.0	2.5	/experiments/AOT/AOT_stimuli/rescaled_final/1730_rv.mp4	0.0	149.1729838848114	0.09968709945678711
23	128.02429103851318	fix_pre	0		120	21.0	2.5	/experiments/AOT/AOT_stimuli/rescaled_final/0463_fw.mp4	0.0	149.2726709842682	1.0000410079956055
23	128.60778307914734	pulse	0	t		21.0	2.5	/experiments/AOT/AOT_stimuli/rescaled_final/0463_fw.mp4	0.0	149.85616302490234	
23	129.0243320465088	movie	1		244	21.0	2.5	/experiments/AOT/AOT_stimuli/rescaled_final/0463_fw.mp4	0.0	150.2727119922638	2.4994869232177734
23	130.2078309059143	pulse	1	t		21.0	2.5	/experiments/AOT/AOT_stimuli/rescaled_final/0463_fw.mp4	0.0	151.4562108516693	
23	131.52381896972656	fix_post	2		12	21.0	2.5	/experiments/AOT/AOT_stimuli/rescaled_final/0463_fw.mp4	0.0	152.77219891548157	0.10040402412414551
24	131.6242229938507	fix_pre	0		120	22.0	2.5	/experiments/AOT/AOT_stimuli/rescaled_final/0831_rv.mp4	0.0	152.8726029396057	0.9999411106109619
24	131.8003659248352	pulse	0	t		22.0	2.5	/experiments/AOT/AOT_stimuli/rescaled_final/0831_rv.mp4	0.0	153.0487458705902	
24	132.62416410446167	movie	1		245	22.0	2.5	/experiments/AOT/AOT_stimuli/rescaled_final/0831_rv.mp4	0.0	153.87254405021667	2.4996728897094727
24	133.4075710773468	pulse	1	t		22.0	2.5	/experiments/AOT/AOT_stimuli/rescaled_final/0831_rv.mp4	0.0	154.6559510231018	
24	135.00591707229614	pulse	1	t		22.0	2.5	/experiments/AOT/AOT_stimuli/rescaled_final/0831_rv.mp4	0.0	156.25429701805115	
24	135.12383699417114	fix_post	2		12	22.0	2.5	/experiments/AOT/AOT_stimuli/rescaled_final/0831_rv.mp4	0.0	156.37221693992615	0.1003570556640625
25	135.2241940498352	fix_pre	0		120	23.0	2.5	/experiments/AOT/AOT_stimuli/rescaled_final/1780_fw.mp4	0.0	156.4725739955902	0.9999809265136719
25	136.22417497634888	movie	1		247	23.0	2.5	/experiments/AOT/AOT_stimuli/rescaled_final/1780_fw.mp4	0.0	157.47255492210388	2.4999170303344727
25	136.60706400871277	pulse	1	t		23.0	2.5	/experiments/AOT/AOT_stimuli/rescaled_final/1780_fw.mp4	0.0	157.85544395446777	
25	138.20769691467285	pulse	1	t		23.0	2.5	/experiments/AOT/AOT_stimuli/rescaled_final/1780_fw.mp4	0.0	159.45607686042786	
25	138.72409200668335	fix_post	2		12	23.0	2.5	/experiments/AOT/AOT_stimuli/rescaled_final/1780_fw.mp4	0.0	159.97247195243835	0.10009598731994629
26	138.8241879940033	fix_pre	0		119	24.0	2.5	/experiments/AOT/AOT_stimuli/rescaled_final/1927_rv.mp4	0.0	160.0725679397583	0.9916069507598877
26	139.80768704414368	pulse	0	t		24.0	2.5	/experiments/AOT/AOT_stimuli/rescaled_final/1927_rv.mp4	0.0	161.05606698989868	
26	139.81579494476318	movie	1		246	24.0	2.5	/experiments/AOT/AOT_stimuli/rescaled_final/1927_rv.mp4	0.0	161.0641748905182	2.5079660415649414
26	141.40735292434692	pulse	1	t		24.0	2.5	/experiments/AOT/AOT_stimuli/rescaled_final/1927_rv.mp4	0.0	162.65573287010193	
26	142.32376098632812	fix_post	2		12	24.0	2.5	/experiments/AOT/AOT_stimuli/rescaled_final/1927_rv.mp4	0.0	163.57214093208313	0.10050010681152344
27	142.42426109313965	fix_pre	0		120	25.0	2.5	/experiments/AOT/AOT_stimuli/rescaled_final/1263_fw.mp4	0.0	163.67264103889465	0.9995148181915283
27	143.00773406028748	pulse	0	t		25.0	2.5	/experiments/AOT/AOT_stimuli/rescaled_final/1263_fw.mp4	0.0	164.25611400604248	
27	143.42377591133118	movie	1		244	25.0	2.5	/experiments/AOT/AOT_stimuli/rescaled_final/1263_fw.mp4	0.0	164.67215585708618	2.499918222427368
27	144.6077001094818	pulse	1	t		25.0	2.5	/experiments/AOT/AOT_stimuli/rescaled_final/1263_fw.mp4	0.0	165.85608005523682	
27	145.92369413375854	fix_post	2		12	25.0	2.5	/experiments/AOT/AOT_stimuli/rescaled_final/1263_fw.mp4	0.0	167.17207407951355	0.10043692588806152
28	146.0241310596466	fix_pre	0		120	26.0	2.5	/experiments/AOT/AOT_stimuli/rescaled_final/0148_rv.mp4	0.0	167.2725110054016	1.000020980834961
28	146.20772790908813	pulse	0	t		26.0	2.5	/experiments/AOT/AOT_stimuli/rescaled_final/0148_rv.mp4	0.0	167.45610785484314	
28	147.02415204048157	movie	1		244	26.0	2.5	/experiments/AOT/AOT_stimuli/rescaled_final/0148_rv.mp4	0.0	168.27253198623657	2.499566078186035
28	147.8075909614563	pulse	1	t		26.0	2.5	/experiments/AOT/AOT_stimuli/rescaled_final/0148_rv.mp4	0.0	169.0559709072113	
28	149.40822100639343	pulse	1	t		26.0	2.5	/experiments/AOT/AOT_stimuli/rescaled_final/0148_rv.mp4	0.0	170.65660095214844	
28	149.5237181186676	fix_post	2		12	26.0	2.5	/experiments/AOT/AOT_stimuli/rescaled_final/0148_rv.mp4	0.0	170.7720980644226	0.10007190704345703
29	149.62379002571106	fix_pre	0		120	27.0	2.5	blank	1.0	170.87216997146606	0.999953031539917
29	150.62374305725098	movie	1		300	27.0	2.5	blank	1.0	171.87212300300598	2.5004639625549316
29	151.00761699676514	pulse	1	t		27.0	2.5	blank	1.0	172.25599694252014	
29	152.60755801200867	pulse	1	t		27.0	2.5	blank	1.0	173.85593795776367	
29	153.1242070198059	fix_post	2		12	27.0	2.5	blank	1.0	174.3725869655609	0.09993791580200195
30	153.2241449356079	fix_pre	0		119	28.0	2.5	/experiments/AOT/AOT_stimuli/rescaled_final/1771_fw.mp4	0.0	174.47252488136292	0.9916200637817383
30	154.20766305923462	pulse	0	t		28.0	2.5	/experiments/AOT/AOT_stimuli/rescaled_final/1771_fw.mp4	0.0	175.45604300498962	
30	154.21576499938965	movie	1		246	28.0	2.5	/experiments/AOT/AOT_stimuli/rescaled_final/1771_fw.mp4	0.0	175.46414494514465	2.507944107055664
30	155.8072259426117	pulse	1	t		28.0	2.5	/experiments/AOT/AOT_stimuli/rescaled_final/1771_fw.mp4	0.0	177.0556058883667	
30	156.7237091064453	fix_post	2		12	28.0	2.5	/experiments/AOT/AOT_stimuli/rescaled_final/1771_fw.mp4	0.0	177.97208905220032	0.10040879249572754
31	156.82411789894104	fix_pre	0		120	29.0	2.5	/experiments/AOT/AOT_stimuli/rescaled_final/0183_rv.mp4	0.0	178.07249784469604	1.0000321865081787
31	157.40751791000366	pulse	0	t		29.0	2.5	/experiments/AOT/AOT_stimuli/rescaled_final/0183_rv.mp4	0.0	178.65589785575867	
31	157.82415008544922	movie	1		245	29.0	2.5	/experiments/AOT/AOT_stimuli/rescaled_final/0183_rv.mp4	0.0	179.07253003120422	2.4999630451202393
31	159.00767493247986	pulse	1	t		29.0	2.5	/experiments/AOT/AOT_stimuli/rescaled_final/0183_rv.mp4	0.0	180.25605487823486	
31	160.32411313056946	fix_post	2		12	29.0	2.5	/experiments/AOT/AOT_stimuli/rescaled_final/0183_rv.mp4	0.0	181.57249307632446	0.09993886947631836
32	160.42405200004578	fix_pre	0		120	30.0	2.5	/experiments/AOT/AOT_stimuli/rescaled_final/1047_fw.mp4	0.0	181.67243194580078	1.0001280307769775
32	160.60763502120972	pulse	0	t		30.0	2.5	/experiments/AOT/AOT_stimuli/rescaled_final/1047_fw.mp4	0.0	181.85601496696472	
32	161.42418003082275	movie	1		244	30.0	2.5	/experiments/AOT/AOT_stimuli/rescaled_final/1047_fw.mp4	0.0	182.67255997657776	2.4998939037323
32	162.20763492584229	pulse	1	t		30.0	2.5	/experiments/AOT/AOT_stimuli/rescaled_final/1047_fw.mp4	0.0	183.4560148715973	
32	163.80576992034912	pulse	1	t		30.0	2.5	/experiments/AOT/AOT_stimuli/rescaled_final/1047_fw.mp4	0.0	185.05414986610413	
32	163.92407393455505	fix_post	2		12	30.0	2.5	/experiments/AOT/AOT_stimuli/rescaled_final/1047_fw.mp4	0.0	185.17245388031006	0.09990119934082031
33	164.02397513389587	fix_pre	0		120	31.0	2.5	/experiments/AOT/AOT_stimuli/rescaled_final/0847_rv.mp4	0.0	185.27235507965088	1.0001459121704102
33	165.02412104606628	movie	1		245	31.0	2.5	/experiments/AOT/AOT_stimuli/rescaled_final/0847_rv.mp4	0.0	186.2725009918213	2.499917984008789
33	165.4072790145874	pulse	1	t		31.0	2.5	/experiments/AOT/AOT_stimuli/rescaled_final/0847_rv.mp4	0.0	186.6556589603424	
33	167.00752902030945	pulse	1	t		31.0	2.5	/experiments/AOT/AOT_stimuli/rescaled_final/0847_rv.mp4	0.0	188.25590896606445	
33	167.52403903007507	fix_post	2		12	31.0	2.5	/experiments/AOT/AOT_stimuli/rescaled_final/0847_rv.mp4	0.0	188.77241897583008	0.0996239185333252
34	167.6236629486084	fix_pre	0		119	32.0	2.5	/experiments/AOT/AOT_stimuli/rescaled_final/0682_fw.mp4	0.0	188.8720428943634	0.9921000003814697
34	168.607568025589	pulse	0	t		32.0	2.5	/experiments/AOT/AOT_stimuli/rescaled_final/0682_fw.mp4	0.0	189.855947971344	
34	168.61576294898987	movie	1		245	32.0	2.5	/experiments/AOT/AOT_stimuli/rescaled_final/0682_fw.mp4	0.0	189.86414289474487	2.508280038833618
34	170.2074089050293	pulse	1	t		32.0	2.5	/experiments/AOT/AOT_stimuli/rescaled_final/0682_fw.mp4	0.0	191.4557888507843	
34	171.1240429878235	fix_post	2		12	32.0	2.5	/experiments/AOT/AOT_stimuli/rescaled_final/0682_fw.mp4	0.0	192.3724229335785	0.09969592094421387
35	171.2237389087677	fix_pre	0		120	33.0	2.5	blank	1.0	192.4721188545227	1.0002930164337158
35	171.80758500099182	pulse	0	t		33.0	2.5	blank	1.0	193.05596494674683	
35	172.22403192520142	movie	1		300	33.0	2.5	blank	1.0	193.47241187095642	2.499528169631958
35	173.40751600265503	pulse	1	t		33.0	2.5	blank	1.0	194.65589594841003	
35	174.72356009483337	fix_post	2		12	33.0	2.5	blank	1.0	195.97194004058838	0.10047793388366699
36	174.82403802871704	fix_pre	0		120	34.0	2.5	/experiments/AOT/AOT_stimuli/rescaled_final/2119_fw.mp4	0.0	196.07241797447205	1.000020980834961
36	175.0075991153717	pulse	0	t		34.0	2.5	/experiments/AOT/AOT_stimuli/rescaled_final/2119_fw.mp4	0.0	196.2559790611267	
36	175.824059009552	movie	1		249	34.0	2.5	/experiments/AOT/AOT_stimuli/rescaled_final/2119_fw.mp4	0.0	197.072438955307	2.4998691082000732
36	176.6006350517273	pulse	1	t		34.0	2.5	/experiments/AOT/AOT_stimuli/rescaled_final/2119_fw.mp4	0.0	197.8490149974823	
36	178.2076380252838	pulse	1	t		34.0	2.5	/experiments/AOT/AOT_stimuli/rescaled_final/2119_fw.mp4	0.0	199.45601797103882	
36	178.32392811775208	fix_post	2		12	34.0	2.5	/experiments/AOT/AOT_stimuli/rescaled_final/2119_fw.mp4	0.0	199.57230806350708	0.10008478164672852
37	178.4240128993988	fix_pre	0		120	35.0	2.5	/experiments/AOT/AOT_stimuli/rescaled_final/0495_fw.mp4	0.0	199.6723928451538	0.9996061325073242
37	179.42361903190613	movie	1		247	35.0	2.5	/experiments/AOT/AOT_stimuli/rescaled_final/0495_fw.mp4	0.0	200.67199897766113	2.500135898590088
37	179.81184196472168	pulse	1	t		35.0	2.5	/experiments/AOT/AOT_stimuli/rescaled_final/0495_fw.mp4	0.0	201.06022191047668	
37	181.40705490112305	pulse	1	t		35.0	2.5	/experiments/AOT/AOT_stimuli/rescaled_final/0495_fw.mp4	0.0	202.65543484687805	
37	181.92375493049622	fix_post	2		12	35.0	2.5	/experiments/AOT/AOT_stimuli/rescaled_final/0495_fw.mp4	0.0	203.17213487625122	0.0999441146850586
38	182.02369904518127	fix_pre	0		119	36.0	2.5	/experiments/AOT/AOT_stimuli/rescaled_final/1672_rv.mp4	0.0	203.27207899093628	0.9923160076141357
38	183.00775408744812	pulse	0	t		36.0	2.5	/experiments/AOT/AOT_stimuli/rescaled_final/1672_rv.mp4	0.0	204.25613403320312	
38	183.0160150527954	movie	1		245	36.0	2.5	/experiments/AOT/AOT_stimuli/rescaled_final/1672_rv.mp4	0.0	204.26439499855042	2.507946014404297
38	184.60725498199463	pulse	1	t		36.0	2.5	/experiments/AOT/AOT_stimuli/rescaled_final/1672_rv.mp4	0.0	205.85563492774963	
38	185.5239610671997	fix_post	2		12	36.0	2.5	/experiments/AOT/AOT_stimuli/rescaled_final/1672_rv.mp4	0.0	206.7723410129547	0.09959697723388672
39	185.6235580444336	fix_pre	0		120	37.0	2.5	/experiments/AOT/AOT_stimuli/rescaled_final/2083_fw.mp4	0.0	206.8719379901886	1.0003950595855713
39	186.2076919078827	pulse	0	t		37.0	2.5	/experiments/AOT/AOT_stimuli/rescaled_final/2083_fw.mp4	0.0	207.4560718536377	
39	186.62395310401917	movie	1		243	37.0	2.5	/experiments/AOT/AOT_stimuli/rescaled_final/2083_fw.mp4	0.0	207.87233304977417	2.49995493888855
39	187.80751299858093	pulse	1	t		37.0	2.5	/experiments/AOT/AOT_stimuli/rescaled_final/2083_fw.mp4	0.0	209.05589294433594	
39	189.12390804290771	fix_post	2		12	37.0	2.5	/experiments/AOT/AOT_stimuli/rescaled_final/2083_fw.mp4	0.0	210.37228798866272	0.1000359058380127
40	189.22394394874573	fix_pre	0		120	38.0	2.5	/experiments/AOT/AOT_stimuli/rescaled_final/1010_rv.mp4	0.0	210.47232389450073	1.0000510215759277
40	189.40742301940918	pulse	0	t		38.0	2.5	/experiments/AOT/AOT_stimuli/rescaled_final/1010_rv.mp4	0.0	210.65580296516418	
40	190.22399497032166	movie	1		243	38.0	2.5	/experiments/AOT/AOT_stimuli/rescaled_final/1010_rv.mp4	0.0	211.47237491607666	2.4999570846557617
40	191.00739812850952	pulse	1	t		38.0	2.5	/experiments/AOT/AOT_stimuli/rescaled_final/1010_rv.mp4	0.0	212.25577807426453	
40	192.60576701164246	pulse	1	t		38.0	2.5	/experiments/AOT/AOT_stimuli/rescaled_final/1010_rv.mp4	0.0	213.85414695739746	
40	192.72395205497742	fix_post	2		12	38.0	2.5	/experiments/AOT/AOT_stimuli/rescaled_final/1010_rv.mp4	0.0	213.97233200073242	0.09957385063171387
41	192.82352590560913	fix_pre	0		120	39.0	2.5	/experiments/AOT/AOT_stimuli/rescaled_final/0290_rv.mp4	0.0	214.07190585136414	1.0004332065582275
41	193.82395911216736	movie	1		245	39.0	2.5	/experiments/AOT/AOT_stimuli/rescaled_final/0290_rv.mp4	0.0	215.07233905792236	2.5000460147857666
41	194.20752000808716	pulse	1	t		39.0	2.5	/experiments/AOT/AOT_stimuli/rescaled_final/0290_rv.mp4	0.0	215.45589995384216	
41	195.80739903450012	pulse	1	t		39.0	2.5	/experiments/AOT/AOT_stimuli/rescaled_final/0290_rv.mp4	0.0	217.05577898025513	
41	196.32400512695312	fix_post	2		12	39.0	2.5	/experiments/AOT/AOT_stimuli/rescaled_final/0290_rv.mp4	0.0	217.57238507270813	0.09987497329711914
42	196.42388010025024	fix_pre	0		119	40.0	2.5	blank	1.0	217.67226004600525	0.9917709827423096
42	197.40745401382446	pulse	0	t		40.0	2.5	blank	1.0	218.65583395957947	
42	197.41565108299255	movie	1		301	40.0	2.5	blank	1.0	218.66403102874756	2.507798910140991
42	199.00747299194336	pulse	1	t		40.0	2.5	blank	1.0	220.25585293769836	
42	199.92344999313354	fix_post	2		12	40.0	2.5	blank	1.0	221.17182993888855	0.10045313835144043
43	200.02390313148499	fix_pre	0		120	41.0	2.5	/experiments/AOT/AOT_stimuli/rescaled_final/0314_rv.mp4	0.0	221.27228307724	0.9995639324188232
43	200.60746693611145	pulse	0	t		41.0	2.5	/experiments/AOT/AOT_stimuli/rescaled_final/0314_rv.mp4	0.0	221.85584688186646	
43	201.0234670639038	movie	1		245	41.0	2.5	/experiments/AOT/AOT_stimuli/rescaled_final/0314_rv.mp4	0.0	222.2718470096588	2.5004169940948486
43	202.207435131073	pulse	1	t		41.0	2.5	/experiments/AOT/AOT_stimuli/rescaled_final/0314_rv.mp4	0.0	223.455815076828	
43	203.52388405799866	fix_post	2		12	41.0	2.5	/experiments/AOT/AOT_stimuli/rescaled_final/0314_rv.mp4	0.0	224.77226400375366	0.09995388984680176
44	203.62383794784546	fix_pre	0		120	42.0	2.5	/experiments/AOT/AOT_stimuli/rescaled_final/1905_fw.mp4	0.0	224.87221789360046	0.9999890327453613
44	203.80741906166077	pulse	0	t		42.0	2.5	/experiments/AOT/AOT_stimuli/rescaled_final/1905_fw.mp4	0.0	225.05579900741577	
44	204.62382698059082	movie	1		244	42.0	2.5	/experiments/AOT/AOT_stimuli/rescaled_final/1905_fw.mp4	0.0	225.87220692634583	2.5000319480895996
44	205.4073519706726	pulse	1	t		42.0	2.5	/experiments/AOT/AOT_stimuli/rescaled_final/1905_fw.mp4	0.0	226.6557319164276	
44	207.0056369304657	pulse	1	t		42.0	2.5	/experiments/AOT/AOT_stimuli/rescaled_final/1905_fw.mp4	0.0	228.2540168762207	
44	207.12385892868042	fix_post	2		12	42.0	2.5	/experiments/AOT/AOT_stimuli/rescaled_final/1905_fw.mp4	0.0	228.37223887443542	0.09991717338562012
45	207.22377610206604	fix_pre	0		120	43.0	2.5	/experiments/AOT/AOT_stimuli/rescaled_final/0776_fw.mp4	0.0	228.47215604782104	1.0000498294830322
45	208.22382593154907	movie	1		245	43.0	2.5	/experiments/AOT/AOT_stimuli/rescaled_final/0776_fw.mp4	0.0	229.47220587730408	2.499603033065796
45	208.60681700706482	pulse	1	t		43.0	2.5	/experiments/AOT/AOT_stimuli/rescaled_final/0776_fw.mp4	0.0	229.85519695281982	
45	210.20729303359985	pulse	1	t		43.0	2.5	/experiments/AOT/AOT_stimuli/rescaled_final/0776_fw.mp4	0.0	231.45567297935486	
45	210.72342896461487	fix_post	2		12	43.0	2.5	/experiments/AOT/AOT_stimuli/rescaled_final/0776_fw.mp4	0.0	231.97180891036987	0.10031795501708984
46	210.82374691963196	fix_pre	0		119	44.0	2.5	/experiments/AOT/AOT_stimuli/rescaled_final/0310_rv.mp4	0.0	232.07212686538696	0.9918301105499268
46	211.8073971271515	pulse	0	t		44.0	2.5	/experiments/AOT/AOT_stimuli/rescaled_final/0310_rv.mp4	0.0	233.0557770729065	
46	211.81557703018188	movie	1		245	44.0	2.5	/experiments/AOT/AOT_stimuli/rescaled_final/0310_rv.mp4	0.0	233.0639569759369	2.5083329677581787
46	213.40685892105103	pulse	1	t		44.0	2.5	/experiments/AOT/AOT_stimuli/rescaled_final/0310_rv.mp4	0.0	234.65523886680603	
46	214.32390999794006	fix_post	2		12	44.0	2.5	/experiments/AOT/AOT_stimuli/rescaled_final/0310_rv.mp4	0.0	235.57228994369507	0.09996891021728516
47	214.42387890815735	fix_pre	0		120	45.0	2.5	/experiments/AOT/AOT_stimuli/rescaled_final/0537_rv.mp4	0.0	235.67225885391235	1.0000801086425781
47	215.00737500190735	pulse	0	t		45.0	2.5	/experiments/AOT/AOT_stimuli/rescaled_final/0537_rv.mp4	0.0	236.25575494766235	
47	215.42395901679993	movie	1		245	45.0	2.5	/experiments/AOT/AOT_stimuli/rescaled_final/0537_rv.mp4	0.0	236.67233896255493	2.4998369216918945
47	216.60738110542297	pulse	1	t		45.0	2.5	/experiments/AOT/AOT_stimuli/rescaled_final/0537_rv.mp4	0.0	237.85576105117798	
47	217.92379593849182	fix_post	2		12	45.0	2.5	/experiments/AOT/AOT_stimuli/rescaled_final/0537_rv.mp4	0.0	239.17217588424683	0.10000109672546387
48	218.02379703521729	fix_pre	0		120	46.0	2.5	/experiments/AOT/AOT_stimuli/rescaled_final/1949_fw.mp4	0.0	239.2721769809723	0.9999709129333496
48	218.2073459625244	pulse	0	t		46.0	2.5	/experiments/AOT/AOT_stimuli/rescaled_final/1949_fw.mp4	0.0	239.45572590827942	
48	219.02376794815063	movie	1		244	46.0	2.5	/experiments/AOT/AOT_stimuli/rescaled_final/1949_fw.mp4	0.0	240.27214789390564	2.499958038330078
48	219.8073709011078	pulse	1	t		46.0	2.5	/experiments/AOT/AOT_stimuli/rescaled_final/1949_fw.mp4	0.0	241.0557508468628	
48	221.40338492393494	pulse	1	t		46.0	2.5	/experiments/AOT/AOT_stimuli/rescaled_final/1949_fw.mp4	0.0	242.65176486968994	
48	221.5237259864807	fix_post	2		12	46.0	2.5	/experiments/AOT/AOT_stimuli/rescaled_final/1949_fw.mp4	0.0	242.77210593223572	0.10002899169921875
49	221.62375497817993	fix_pre	0		120	47.0	2.5	/experiments/AOT/AOT_stimuli/rescaled_final/1460_fw.mp4	0.0	242.87213492393494	1.0000290870666504
49	222.62378406524658	movie	1		247	47.0	2.5	/experiments/AOT/AOT_stimuli/rescaled_final/1460_fw.mp4	0.0	243.8721640110016	2.5000929832458496
49	223.00678396224976	pulse	1	t		47.0	2.5	/experiments/AOT/AOT_stimuli/rescaled_final/1460_fw.mp4	0.0	244.25516390800476	
49	224.60726690292358	pulse	1	t		47.0	2.5	/experiments/AOT/AOT_stimuli/rescaled_final/1460_fw.mp4	0.0	245.8556468486786	
49	225.12387704849243	fix_post	2		12	47.0	2.5	/experiments/AOT/AOT_stimuli/rescaled_final/1460_fw.mp4	0.0	246.37225699424744	0.09995198249816895
50	225.2238290309906	fix_pre	0		119	48.0	2.5	/experiments/AOT/AOT_stimuli/rescaled_final/1385_rv.mp4	0.0	246.4722089767456	0.9916360378265381
50	226.20738101005554	pulse	0	t		48.0	2.5	/experiments/AOT/AOT_stimuli/rescaled_final/1385_rv.mp4	0.0	247.45576095581055	
50	226.21546506881714	movie	1		246	48.0	2.5	/experiments/AOT/AOT_stimuli/rescaled_final/1385_rv.mp4	0.0	247.46384501457214	2.508415937423706
50	227.80685091018677	pulse	1	t		48.0	2.5	/experiments/AOT/AOT_stimuli/rescaled_final/1385_rv.mp4	0.0	249.05523085594177	
50	228.72388100624084	fix_post	2		12	48.0	2.5	/experiments/AOT/AOT_stimuli/rescaled_final/1385_rv.mp4	0.0	249.97226095199585	0.09991598129272461
51	228.82379698753357	fix_pre	0		120	49.0	2.5	blank	1.0	250.07217693328857	0.9999871253967285
51	229.40721607208252	pulse	0	t		49.0	2.5	blank	1.0	250.65559601783752	
51	229.8237841129303	movie	1		300	49.0	2.5	blank	1.0	251.0721640586853	2.4999048709869385
51	231.00734305381775	pulse	1	t		49.0	2.5	blank	1.0	252.25572299957275	
51	232.32368898391724	fix_post	2		12	49.0	2.5	blank	1.0	253.57206892967224	0.09995293617248535
52	232.42364192008972	fix_pre	0		120	50.0	2.5	/experiments/AOT/AOT_stimuli/rescaled_final/0036_fw.mp4	0.0	253.67202186584473	1.0000941753387451
52	232.60725903511047	pulse	0	t		50.0	2.5	/experiments/AOT/AOT_stimuli/rescaled_final/0036_fw.mp4	0.0	253.85563898086548	
52	233.42373609542847	movie	1		243	50.0	2.5	/experiments/AOT/AOT_stimuli/rescaled_final/0036_fw.mp4	0.0	254.67211604118347	2.5000288486480713
52	234.2072560787201	pulse	1	t		50.0	2.5	/experiments/AOT/AOT_stimuli/rescaled_final/0036_fw.mp4	0.0	255.4556360244751	
52	235.80600810050964	pulse	1	t		50.0	2.5	/experiments/AOT/AOT_stimuli/rescaled_final/0036_fw.mp4	0.0	257.05438804626465	
52	235.92376494407654	fix_post	2		12	50.0	2.5	/experiments/AOT/AOT_stimuli/rescaled_final/0036_fw.mp4	0.0	257.17214488983154	0.10004806518554688
53	236.02381300926208	fix_pre	0		120	51.0	2.5	/experiments/AOT/AOT_stimuli/rescaled_final/1633_fw.mp4	0.0	257.2721929550171	1.0000100135803223
53	237.0238230228424	movie	1		243	51.0	2.5	/experiments/AOT/AOT_stimuli/rescaled_final/1633_fw.mp4	0.0	258.2722029685974	2.500204086303711
53	237.40682291984558	pulse	1	t		51.0	2.5	/experiments/AOT/AOT_stimuli/rescaled_final/1633_fw.mp4	0.0	258.6552028656006	
53	239.0073869228363	pulse	1	t		51.0	2.5	/experiments/AOT/AOT_stimuli/rescaled_final/1633_fw.mp4	0.0	260.2557668685913	
53	239.52402710914612	fix_post	2		12	51.0	2.5	/experiments/AOT/AOT_stimuli/rescaled_final/1633_fw.mp4	0.0	260.7724070549011	0.09997797012329102
54	239.6240050792694	fix_pre	0		119	52.0	2.5	/experiments/AOT/AOT_stimuli/rescaled_final/1927_fw.mp4	0.0	260.8723850250244	0.9913990497589111
54	240.60713696479797	pulse	0	t		52.0	2.5	/experiments/AOT/AOT_stimuli/rescaled_final/1927_fw.mp4	0.0	261.855516910553	
54	240.61540412902832	movie	1		244	52.0	2.5	/experiments/AOT/AOT_stimuli/rescaled_final/1927_fw.mp4	0.0	261.8637840747833	2.5079219341278076
54	242.20838594436646	pulse	1	t		52.0	2.5	/experiments/AOT/AOT_stimuli/rescaled_final/1927_fw.mp4	0.0	263.45676589012146	
54	243.12332606315613	fix_post	2		12	52.0	2.5	/experiments/AOT/AOT_stimuli/rescaled_final/1927_fw.mp4	0.0	264.37170600891113	0.10035896301269531
55	243.22368502616882	fix_pre	0		120	53.0	2.5	/experiments/AOT/AOT_stimuli/rescaled_final/0887_fw.mp4	0.0	264.4720649719238	0.9999370574951172
55	243.8071551322937	pulse	0	t		53.0	2.5	/experiments/AOT/AOT_stimuli/rescaled_final/0887_fw.mp4	0.0	265.0555350780487	
55	244.22362208366394	movie	1		244	53.0	2.5	/experiments/AOT/AOT_stimuli/rescaled_final/0887_fw.mp4	0.0	265.47200202941895	2.5000839233398438
55	245.40717911720276	pulse	1	t		53.0	2.5	/experiments/AOT/AOT_stimuli/rescaled_final/0887_fw.mp4	0.0	266.65555906295776	
55	246.72370600700378	fix_post	2		12	53.0	2.5	/experiments/AOT/AOT_stimuli/rescaled_final/0887_fw.mp4	0.0	267.9720859527588	0.0996100902557373
56	246.82331609725952	fix_pre	0		120	54.0	2.5	/experiments/AOT/AOT_stimuli/rescaled_final/2046_rv.mp4	0.0	268.0716960430145	1.0003769397735596
56	247.00722408294678	pulse	0	t		54.0	2.5	/experiments/AOT/AOT_stimuli/rescaled_final/2046_rv.mp4	0.0	268.2556040287018	
56	247.82369303703308	movie	1		244	54.0	2.5	/experiments/AOT/AOT_stimuli/rescaled_final/2046_rv.mp4	0.0	269.0720729827881	2.4995548725128174
56	248.6070990562439	pulse	1	t		54.0	2.5	/experiments/AOT/AOT_stimuli/rescaled_final/2046_rv.mp4	0.0	269.8554790019989	
56	250.20574498176575	pulse	1	t		54.0	2.5	/experiments/AOT/AOT_stimuli/rescaled_final/2046_rv.mp4	0.0	271.45412492752075	
56	250.3232479095459	fix_post	2		12	54.0	2.5	/experiments/AOT/AOT_stimuli/rescaled_final/2046_rv.mp4	0.0	271.5716278553009	0.10036706924438477
57	250.42361497879028	fix_pre	0		120	55.0	2.5	blank	1.0	271.6719949245453	0.9996449947357178
57	251.423259973526	movie	1		300	55.0	2.5	blank	1.0	272.671639919281	2.500338077545166
57	251.80708003044128	pulse	1	t		55.0	2.5	blank	1.0	273.0554599761963	
57	253.40707111358643	pulse	1	t		55.0	2.5	blank	1.0	274.65545105934143	
57	253.92359805107117	fix_post	2		12	55.0	2.5	blank	1.0	275.1719779968262	0.09998703002929688
58	254.02358508110046	fix_pre	0		119	56.0	2.5	/experiments/AOT/AOT_stimuli/rescaled_final/0537_fw.mp4	0.0	275.27196502685547	0.991710901260376
58	255.0072901248932	pulse	0	t		56.0	2.5	/experiments/AOT/AOT_stimuli/rescaled_final/0537_fw.mp4	0.0	276.2556700706482	
58	255.01529598236084	movie	1		245	56.0	2.5	/experiments/AOT/AOT_stimuli/rescaled_final/0537_fw.mp4	0.0	276.26367592811584	2.507962942123413
58	256.60672211647034	pulse	1	t		56.0	2.5	/experiments/AOT/AOT_stimuli/rescaled_final/0537_fw.mp4	0.0	277.85510206222534	
58	257.52325892448425	fix_post	2		12	56.0	2.5	/experiments/AOT/AOT_stimuli/rescaled_final/0537_fw.mp4	0.0	278.77163887023926	0.10034012794494629
59	257.6235990524292	fix_pre	0		120	57.0	2.5	/experiments/AOT/AOT_stimuli/rescaled_final/1889_rv.mp4	0.0	278.8719789981842	1.0001380443572998
59	258.2071099281311	pulse	0	t		57.0	2.5	/experiments/AOT/AOT_stimuli/rescaled_final/1889_rv.mp4	0.0	279.4554898738861	
59	258.6237370967865	movie	1		244	57.0	2.5	/experiments/AOT/AOT_stimuli/rescaled_final/1889_rv.mp4	0.0	279.8721170425415	2.4998509883880615
59	259.80711007118225	pulse	1	t		57.0	2.5	/experiments/AOT/AOT_stimuli/rescaled_final/1889_rv.mp4	0.0	281.05549001693726	
59	261.12358808517456	fix_post	2		12	57.0	2.5	/experiments/AOT/AOT_stimuli/rescaled_final/1889_rv.mp4	0.0	282.37196803092957	0.09967398643493652
60	261.2232620716095	fix_pre	0		120	58.0	2.5	/experiments/AOT/AOT_stimuli/rescaled_final/0705_fw.mp4	0.0	282.4716420173645	1.000290870666504
60	261.40717005729675	pulse	0	t		58.0	2.5	/experiments/AOT/AOT_stimuli/rescaled_final/0705_fw.mp4	0.0	282.65555000305176	
60	262.223552942276	movie	1		244	58.0	2.5	/experiments/AOT/AOT_stimuli/rescaled_final/0705_fw.mp4	0.0	283.471932888031	2.499603033065796
60	263.00712609291077	pulse	1	t		58.0	2.5	/experiments/AOT/AOT_stimuli/rescaled_final/0705_fw.mp4	0.0	284.25550603866577	
60	264.60551500320435	pulse	1	t		58.0	2.5	/experiments/AOT/AOT_stimuli/rescaled_final/0705_fw.mp4	0.0	285.85389494895935	
60	264.7231559753418	fix_post	2		12	58.0	2.5	/experiments/AOT/AOT_stimuli/rescaled_final/0705_fw.mp4	0.0	285.9715359210968	0.10046815872192383
61	264.8236241340637	fix_pre	0		120	59.0	2.5	/experiments/AOT/AOT_stimuli/rescaled_final/1525_rv.mp4	0.0	286.0720040798187	0.9995758533477783
61	265.8231999874115	movie	1		247	59.0	2.5	/experiments/AOT/AOT_stimuli/rescaled_final/1525_rv.mp4	0.0	287.0715799331665	2.499974012374878
61	266.2067680358887	pulse	1	t		59.0	2.5	/experiments/AOT/AOT_stimuli/rescaled_final/1525_rv.mp4	0.0	287.4551479816437	
61	267.8071069717407	pulse	1	t		59.0	2.5	/experiments/AOT/AOT_stimuli/rescaled_final/1525_rv.mp4	0.0	289.0554869174957	
61	268.3231739997864	fix_post	2		12	59.0	2.5	/experiments/AOT/AOT_stimuli/rescaled_final/1525_rv.mp4	0.0	289.5715539455414	0.10044407844543457
62	268.4236180782318	fix_pre	0		119	60.0	2.5	/experiments/AOT/AOT_stimuli/rescaled_final/0332_fw.mp4	0.0	289.6719980239868	0.9916698932647705
62	269.40704703330994	pulse	0	t		60.0	2.5	/experiments/AOT/AOT_stimuli/rescaled_final/0332_fw.mp4	0.0	290.65542697906494	
62	269.4152879714966	movie	1		251	60.0	2.5	/experiments/AOT/AOT_stimuli/rescaled_final/0332_fw.mp4	0.0	290.6636679172516	2.5082969665527344
62	271.00678610801697	pulse	1	t		60.0	2.5	/experiments/AOT/AOT_stimuli/rescaled_final/0332_fw.mp4	0.0	292.255166053772	
62	271.9235849380493	fix_post	2		12	60.0	2.5	/experiments/AOT/AOT_stimuli/rescaled_final/0332_fw.mp4	0.0	293.1719648838043	0.09958100318908691
63	272.0231659412384	fix_pre	0		120	61.0	2.5	blank	1.0	293.2715458869934	1.000378131866455
63	272.6069779396057	pulse	0	t		61.0	2.5	blank	1.0	293.8553578853607	
63	273.02354407310486	movie	1		300	61.0	2.5	blank	1.0	294.27192401885986	2.499605894088745
63	274.20718598365784	pulse	1	t		61.0	2.5	blank	1.0	295.45556592941284	
63	275.5231499671936	fix_post	2		12	61.0	2.5	blank	1.0	296.7715299129486	0.10002803802490234
64	275.6231780052185	fix_pre	0		120	62.0	2.5	/experiments/AOT/AOT_stimuli/rescaled_final/1905_rv.mp4	0.0	296.8715579509735	1.0003631114959717
64	275.8070750236511	pulse	0	t		62.0	2.5	/experiments/AOT/AOT_stimuli/rescaled_final/1905_rv.mp4	0.0	297.0554549694061	
64	276.6235411167145	movie	1		243	62.0	2.5	/experiments/AOT/AOT_stimuli/rescaled_final/1905_rv.mp4	0.0	297.8719210624695	2.499555826187134
64	277.40707898139954	pulse	1	t		62.0	2.5	/experiments/AOT/AOT_stimuli/rescaled_final/1905_rv.mp4	0.0	298.65545892715454	
64	279.0057621002197	pulse	1	t		62.0	2.5	/experiments/AOT/AOT_stimuli/rescaled_final/1905_rv.mp4	0.0	300.25414204597473	
64	279.1230969429016	fix_post	2		12	62.0	2.5	/experiments/AOT/AOT_stimuli/rescaled_final/1905_rv.mp4	0.0	300.3714768886566	0.10044217109680176
65	279.2235391139984	fix_pre	0		120	63.0	2.5	/experiments/AOT/AOT_stimuli/rescaled_final/0035_fw.mp4	0.0	300.4719190597534	1.000140905380249
65	280.22368001937866	movie	1		246	63.0	2.5	/experiments/AOT/AOT_stimuli/rescaled_final/0035_fw.mp4	0.0	301.47205996513367	2.499882936477661
65	280.60629510879517	pulse	1	t		63.0	2.5	/experiments/AOT/AOT_stimuli/rescaled_final/0035_fw.mp4	0.0	301.85467505455017	
65	282.2071011066437	pulse	1	t		63.0	2.5	/experiments/AOT/AOT_stimuli/rescaled_final/0035_fw.mp4	0.0	303.4554810523987	
65	282.7235629558563	fix_post	2		12	63.0	2.5	/experiments/AOT/AOT_stimuli/rescaled_final/0035_fw.mp4	0.0	303.9719429016113	0.09994316101074219
66	282.82350611686707	fix_pre	0		119	64.0	2.5	/experiments/AOT/AOT_stimuli/rescaled_final/1930_rv.mp4	0.0	304.07188606262207	0.9915659427642822
66	283.8070271015167	pulse	0	t		64.0	2.5	/experiments/AOT/AOT_stimuli/rescaled_final/1930_rv.mp4	0.0	305.05540704727173	
66	283.81507205963135	movie	1		246	64.0	2.5	/experiments/AOT/AOT_stimuli/rescaled_final/1930_rv.mp4	0.0	305.06345200538635	2.508347988128662
66	285.40640902519226	pulse	1	t		64.0	2.5	/experiments/AOT/AOT_stimuli/rescaled_final/1930_rv.mp4	0.0	306.65478897094727	
66	286.32342004776	fix_post	2		12	64.0	2.5	/experiments/AOT/AOT_stimuli/rescaled_final/1930_rv.mp4	0.0	307.571799993515	0.10011792182922363
67	286.42353796958923	fix_pre	0		120	65.0	2.5	/experiments/AOT/AOT_stimuli/rescaled_final/1932_rv.mp4	0.0	307.67191791534424	0.9996380805969238
67	287.0070369243622	pulse	0	t		65.0	2.5	/experiments/AOT/AOT_stimuli/rescaled_final/1932_rv.mp4	0.0	308.2554168701172	
67	287.42317605018616	movie	1		246	65.0	2.5	/experiments/AOT/AOT_stimuli/rescaled_final/1932_rv.mp4	0.0	308.67155599594116	2.4999029636383057
67	288.6071310043335	pulse	1	t		65.0	2.5	/experiments/AOT/AOT_stimuli/rescaled_final/1932_rv.mp4	0.0	309.8555109500885	
67	289.92307901382446	fix_post	2		12	65.0	2.5	/experiments/AOT/AOT_stimuli/rescaled_final/1932_rv.mp4	0.0	311.17145895957947	0.10035109519958496
68	290.02343010902405	fix_pre	0		120	66.0	2.5	/experiments/AOT/AOT_stimuli/rescaled_final/1691_rv.mp4	0.0	311.27181005477905	0.9996039867401123
68	290.2070999145508	pulse	0	t		66.0	2.5	/experiments/AOT/AOT_stimuli/rescaled_final/1691_rv.mp4	0.0	311.4554798603058	
68	291.02303409576416	movie	1		246	66.0	2.5	/experiments/AOT/AOT_stimuli/rescaled_final/1691_rv.mp4	0.0	312.27141404151917	2.5004589557647705
68	291.80689811706543	pulse	1	t		66.0	2.5	/experiments/AOT/AOT_stimuli/rescaled_final/1691_rv.mp4	0.0	313.05527806282043	
68	293.4050750732422	pulse	1	t		66.0	2.5	/experiments/AOT/AOT_stimuli/rescaled_final/1691_rv.mp4	0.0	314.6534550189972	
68	293.52349305152893	fix_post	2		12	66.0	2.5	/experiments/AOT/AOT_stimuli/rescaled_final/1691_rv.mp4	0.0	314.77187299728394	0.09966397285461426
69	293.62315702438354	fix_pre	0		120	67.0	2.5	/experiments/AOT/AOT_stimuli/rescaled_final/1675_fw.mp4	0.0	314.87153697013855	1.0000669956207275
69	294.6232240200043	movie	1		245	67.0	2.5	/experiments/AOT/AOT_stimuli/rescaled_final/1675_fw.mp4	0.0	315.8716039657593	2.5002870559692383
69	295.0060739517212	pulse	1	t		67.0	2.5	/experiments/AOT/AOT_stimuli/rescaled_final/1675_fw.mp4	0.0	316.2544538974762	
69	296.6068820953369	pulse	1	t		67.0	2.5	/experiments/AOT/AOT_stimuli/rescaled_final/1675_fw.mp4	0.0	317.8552620410919	
69	297.1235110759735	fix_post	2		12	67.0	2.5	/experiments/AOT/AOT_stimuli/rescaled_final/1675_fw.mp4	0.0	318.3718910217285	0.09949803352355957
70	297.22300910949707	fix_pre	0		119	68.0	2.5	/experiments/AOT/AOT_stimuli/rescaled_final/1361_rv.mp4	0.0	318.4713890552521	0.9920799732208252
70	298.20689606666565	pulse	0	t		68.0	2.5	/experiments/AOT/AOT_stimuli/rescaled_final/1361_rv.mp4	0.0	319.45527601242065	
70	298.2150890827179	movie	1		246	68.0	2.5	/experiments/AOT/AOT_stimuli/rescaled_final/1361_rv.mp4	0.0	319.4634690284729	2.507925033569336
70	299.8063769340515	pulse	1	t		68.0	2.5	/experiments/AOT/AOT_stimuli/rescaled_final/1361_rv.mp4	0.0	321.0547568798065	
70	300.72301411628723	fix_post	2		12	68.0	2.5	/experiments/AOT/AOT_stimuli/rescaled_final/1361_rv.mp4	0.0	321.97139406204224	0.10001778602600098
71	300.82303190231323	fix_pre	0		120	69.0	2.5	blank	1.0	322.07141184806824	0.9999070167541504
71	301.4068639278412	pulse	0	t		69.0	2.5	blank	1.0	322.6552438735962	
71	301.8229389190674	movie	1		300	69.0	2.5	blank	1.0	323.0713188648224	2.500020980834961
71	303.00705790519714	pulse	1	t		69.0	2.5	blank	1.0	324.25543785095215	
71	304.32295989990234	fix_post	2		12	69.0	2.5	blank	1.0	325.57133984565735	0.10040402412414551
72	304.4233639240265	fix_pre	0		120	70.0	2.5	/experiments/AOT/AOT_stimuli/rescaled_final/1111_fw.mp4	0.0	325.6717438697815	1.0000050067901611
72	304.60698103904724	pulse	0	t		70.0	2.5	/experiments/AOT/AOT_stimuli/rescaled_final/1111_fw.mp4	0.0	325.85536098480225	
72	305.42336893081665	movie	1		244	70.0	2.5	/experiments/AOT/AOT_stimuli/rescaled_final/1111_fw.mp4	0.0	326.67174887657166	2.499690055847168
72	306.20683002471924	pulse	1	t		70.0	2.5	/experiments/AOT/AOT_stimuli/rescaled_final/1111_fw.mp4	0.0	327.45520997047424	
72	307.8054139614105	pulse	1	t		70.0	2.5	/experiments/AOT/AOT_stimuli/rescaled_final/1111_fw.mp4	0.0	329.0537939071655	
72	307.9230589866638	fix_post	2		12	70.0	2.5	/experiments/AOT/AOT_stimuli/rescaled_final/1111_fw.mp4	0.0	329.1714389324188	0.10030913352966309
73	308.0233681201935	fix_pre	0		120	71.0	2.5	/experiments/AOT/AOT_stimuli/rescaled_final/0278_fw.mp4	0.0	329.2717480659485	0.9999778270721436
73	309.0233459472656	movie	1		248	71.0	2.5	/experiments/AOT/AOT_stimuli/rescaled_final/0278_fw.mp4	0.0	330.27172589302063	2.499614953994751
73	309.4063949584961	pulse	1	t		71.0	2.5	/experiments/AOT/AOT_stimuli/rescaled_final/0278_fw.mp4	0.0	330.6547749042511	
73	311.0069091320038	pulse	1	t		71.0	2.5	/experiments/AOT/AOT_stimuli/rescaled_final/0278_fw.mp4	0.0	332.2552890777588	
73	311.5229609012604	fix_post	2		12	71.0	2.5	/experiments/AOT/AOT_stimuli/rescaled_final/0278_fw.mp4	0.0	332.7713408470154	0.0999901294708252
74	311.6229510307312	fix_pre	0		119	72.0	2.5	/experiments/AOT/AOT_stimuli/rescaled_final/1173_fw.mp4	0.0	332.8713309764862	0.9921169281005859
74	312.60680508613586	pulse	0	t		72.0	2.5	/experiments/AOT/AOT_stimuli/rescaled_final/1173_fw.mp4	0.0	333.85518503189087	
74	312.6150679588318	movie	1		248	72.0	2.5	/experiments/AOT/AOT_stimuli/rescaled_final/1173_fw.mp4	0.0	333.8634479045868	2.508244037628174
74	314.20644211769104	pulse	1	t		72.0	2.5	/experiments/AOT/AOT_stimuli/rescaled_final/1173_fw.mp4	0.0	335.45482206344604	
74	315.12331199645996	fix_post	2		12	72.0	2.5	/experiments/AOT/AOT_stimuli/rescaled_final/1173_fw.mp4	0.0	336.37169194221497	0.09975194931030273
75	315.22306394577026	fix_pre	0		120	73.0	2.5	/experiments/AOT/AOT_stimuli/rescaled_final/0569_rv.mp4	0.0	336.47144389152527	1.000270128250122
75	315.80691409111023	pulse	0	t		73.0	2.5	/experiments/AOT/AOT_stimuli/rescaled_final/0569_rv.mp4	0.0	337.05529403686523	
75	316.2233340740204	movie	1		247	73.0	2.5	/experiments/AOT/AOT_stimuli/rescaled_final/0569_rv.mp4	0.0	337.4717140197754	2.5001509189605713
75	317.4069631099701	pulse	1	t		73.0	2.5	/experiments/AOT/AOT_stimuli/rescaled_final/0569_rv.mp4	0.0	338.6553430557251	
75	318.72348499298096	fix_post	2		12	73.0	2.5	/experiments/AOT/AOT_stimuli/rescaled_final/0569_rv.mp4	0.0	339.97186493873596	0.09984898567199707
76	318.82333397865295	fix_pre	0		120	74.0	2.5	/experiments/AOT/AOT_stimuli/rescaled_final/1266_fw.mp4	0.0	340.07171392440796	0.9999570846557617
76	319.00685596466064	pulse	0	t		74.0	2.5	/experiments/AOT/AOT_stimuli/rescaled_final/1266_fw.mp4	0.0	340.25523591041565	
76	319.8232910633087	movie	1		245	74.0	2.5	/experiments/AOT/AOT_stimuli/rescaled_final/1266_fw.mp4	0.0	341.0716710090637	2.5000438690185547
76	320.60686707496643	pulse	1	t		74.0	2.5	/experiments/AOT/AOT_stimuli/rescaled_final/1266_fw.mp4	0.0	341.85524702072144	
76	322.2029221057892	pulse	1	t		74.0	2.5	/experiments/AOT/AOT_stimuli/rescaled_final/1266_fw.mp4	0.0	343.4513020515442	
76	322.32333493232727	fix_post	2		12	74.0	2.5	/experiments/AOT/AOT_stimuli/rescaled_final/1266_fw.mp4	0.0	343.5717148780823	0.09975910186767578
77	322.42309403419495	fix_pre	0		120	75.0	2.5	/experiments/AOT/AOT_stimuli/rescaled_final/1483_fw.mp4	0.0	343.67147397994995	1.000309944152832
77	323.4234039783478	movie	1		244	75.0	2.5	/experiments/AOT/AOT_stimuli/rescaled_final/1483_fw.mp4	0.0	344.6717839241028	2.499920129776001
77	323.8070149421692	pulse	1	t		75.0	2.5	/experiments/AOT/AOT_stimuli/rescaled_final/1483_fw.mp4	0.0	345.0553948879242	
77	325.4068670272827	pulse	1	t		75.0	2.5	/experiments/AOT/AOT_stimuli/rescaled_final/1483_fw.mp4	0.0	346.6552469730377	
77	325.9233241081238	fix_post	2		12	75.0	2.5	/experiments/AOT/AOT_stimuli/rescaled_final/1483_fw.mp4	0.0	347.1717040538788	0.0999917984008789
78	326.02331590652466	fix_pre	0		119	76.0	2.5	/experiments/AOT/AOT_stimuli/rescaled_final/0212_fw.mp4	0.0	347.27169585227966	0.9916400909423828
78	327.0068190097809	pulse	0	t		76.0	2.5	/experiments/AOT/AOT_stimuli/rescaled_final/0212_fw.mp4	0.0	348.2551989555359	
78	327.01495599746704	movie	1		247	76.0	2.5	/experiments/AOT/AOT_stimuli/rescaled_final/0212_fw.mp4	0.0	348.26333594322205	2.507909059524536
78	328.6068820953369	pulse	1	t		76.0	2.5	/experiments/AOT/AOT_stimuli/rescaled_final/0212_fw.mp4	0.0	349.8552620410919	
78	329.5228650569916	fix_post	2		12	76.0	2.5	/experiments/AOT/AOT_stimuli/rescaled_final/0212_fw.mp4	0.0	350.7712450027466	0.10041499137878418
79	329.62328004837036	fix_pre	0		120	77.0	2.5	blank	1.0	350.87165999412537	1.0000338554382324
79	330.2067840099335	pulse	0	t		77.0	2.5	blank	1.0	351.4551639556885	
79	330.6233139038086	movie	1		300	77.0	2.5	blank	1.0	351.8716938495636	2.4995081424713135
79	331.80672812461853	pulse	1	t		77.0	2.5	blank	1.0	353.05510807037354	
79	333.1228220462799	fix_post	2		12	77.0	2.5	blank	1.0	354.3712019920349	0.10048198699951172
80	333.2233040332794	fix_pre	0		120	78.0	2.5	/experiments/AOT/AOT_stimuli/rescaled_final/1231_fw.mp4	0.0	354.4716839790344	1.0000360012054443
80	333.40689301490784	pulse	0	t		78.0	2.5	/experiments/AOT/AOT_stimuli/rescaled_final/1231_fw.mp4	0.0	354.65527296066284	
80	334.22334003448486	movie	1		248	78.0	2.5	/experiments/AOT/AOT_stimuli/rescaled_final/1231_fw.mp4	0.0	355.47171998023987	2.499850034713745
80	335.0068459510803	pulse	1	t		78.0	2.5	/experiments/AOT/AOT_stimuli/rescaled_final/1231_fw.mp4	0.0	356.2552258968353	
80	336.6052360534668	pulse	1	t		78.0	2.5	/experiments/AOT/AOT_stimuli/rescaled_final/1231_fw.mp4	0.0	357.8536159992218	
80	336.7231900691986	fix_post	2		12	78.0	2.5	/experiments/AOT/AOT_stimuli/rescaled_final/1231_fw.mp4	0.0	357.9715700149536	0.0996549129486084
81	336.8228449821472	fix_pre	0		120	79.0	2.5	/experiments/AOT/AOT_stimuli/rescaled_final/0513_fw.mp4	0.0	358.0712249279022	1.0003559589385986
81	337.8232009410858	movie	1		245	79.0	2.5	/experiments/AOT/AOT_stimuli/rescaled_final/0513_fw.mp4	0.0	359.0715808868408	2.5000200271606445
81	338.20654296875	pulse	1	t		79.0	2.5	/experiments/AOT/AOT_stimuli/rescaled_final/0513_fw.mp4	0.0	359.454922914505	
81	339.80668210983276	pulse	1	t		79.0	2.5	/experiments/AOT/AOT_stimuli/rescaled_final/0513_fw.mp4	0.0	361.05506205558777	
81	340.32322096824646	fix_post	2		12	79.0	2.5	/experiments/AOT/AOT_stimuli/rescaled_final/0513_fw.mp4	0.0	361.57160091400146	0.1000361442565918
82	340.42325711250305	fix_pre	0		119	80.0	2.5	/experiments/AOT/AOT_stimuli/rescaled_final/0128_rv.mp4	0.0	361.67163705825806	0.9916369915008545
82	341.40676403045654	pulse	0	t		80.0	2.5	/experiments/AOT/AOT_stimuli/rescaled_final/0128_rv.mp4	0.0	362.65514397621155	
82	341.4148941040039	movie	1		245	80.0	2.5	/experiments/AOT/AOT_stimuli/rescaled_final/0128_rv.mp4	0.0	362.6632740497589	2.507906913757324
82	343.00615906715393	pulse	1	t		80.0	2.5	/experiments/AOT/AOT_stimuli/rescaled_final/0128_rv.mp4	0.0	364.25453901290894	
82	343.92280101776123	fix_post	2		12	80.0	2.5	/experiments/AOT/AOT_stimuli/rescaled_final/0128_rv.mp4	0.0	365.17118096351624	0.09997701644897461
83	344.0227780342102	fix_pre	0		120	81.0	2.5	/experiments/AOT/AOT_stimuli/rescaled_final/0036_rv.mp4	0.0	365.2711579799652	1.0005688667297363
83	344.606614112854	pulse	0	t		81.0	2.5	/experiments/AOT/AOT_stimuli/rescaled_final/0036_rv.mp4	0.0	365.854994058609	
83	345.02334690093994	movie	1		243	81.0	2.5	/experiments/AOT/AOT_stimuli/rescaled_final/0036_rv.mp4	0.0	366.27172684669495	2.499437093734741
83	346.2067859172821	pulse	1	t		81.0	2.5	/experiments/AOT/AOT_stimuli/rescaled_final/0036_rv.mp4	0.0	367.4551658630371	
83	347.5227839946747	fix_post	2		12	81.0	2.5	/experiments/AOT/AOT_stimuli/rescaled_final/0036_rv.mp4	0.0	368.7711639404297	0.09998297691345215
84	347.62276697158813	fix_pre	0		120	82.0	2.5	/experiments/AOT/AOT_stimuli/rescaled_final/0728_rv.mp4	0.0	368.87114691734314	1.0003759860992432
84	347.8067629337311	pulse	0	t		82.0	2.5	/experiments/AOT/AOT_stimuli/rescaled_final/0728_rv.mp4	0.0	369.0551428794861	
84	348.6231429576874	movie	1		247	82.0	2.5	/experiments/AOT/AOT_stimuli/rescaled_final/0728_rv.mp4	0.0	369.8715229034424	2.500322103500366
84	349.40631890296936	pulse	1	t		82.0	2.5	/experiments/AOT/AOT_stimuli/rescaled_final/0728_rv.mp4	0.0	370.65469884872437	
84	351.00660490989685	pulse	1	t		82.0	2.5	/experiments/AOT/AOT_stimuli/rescaled_final/0728_rv.mp4	0.0	372.25498485565186	
84	351.12346506118774	fix_post	2		12	82.0	2.5	/experiments/AOT/AOT_stimuli/rescaled_final/0728_rv.mp4	0.0	372.37184500694275	0.1001279354095459
85	351.2235929965973	fix_pre	0		120	83.0	2.5	blank	1.0	372.4719729423523	0.999143123626709
85	352.222736120224	movie	1		300	83.0	2.5	blank	1.0	373.471116065979	2.5005218982696533
85	352.6067159175873	pulse	1	t		83.0	2.5	blank	1.0	373.8550958633423	
85	354.20665192604065	pulse	1	t		83.0	2.5	blank	1.0	375.45503187179565	
85	354.72325801849365	fix_post	2		12	83.0	2.5	blank	1.0	375.97163796424866	0.09987592697143555
87	354.8231339454651	stim	0		1716					376.0715138912201	14.300008058547974
87	355.8067190647125	pulse	0	t						377.05509901046753	
87	357.40658593177795	pulse	0	t						378.65496587753296	
87	359.0065670013428	pulse	0	t						380.2549469470978	
87	360.606605052948	pulse	0	t						381.854984998703	
87	362.20659708976746	pulse	0	t						383.45497703552246	
87	363.8064908981323	pulse	0	t						385.05487084388733	
87	365.40661692619324	pulse	0	t						386.65499687194824	
87	367.0065760612488	pulse	0	t						388.2549560070038	
87	368.60654306411743	pulse	0	t						389.85492300987244	
