trial_nr	onset	event_type	phase	response	nr_frames	movie_index	movie_duration	movie_file	blank	onset_abs	duration
0	0.20833683013916016	stim	0		64					26.91010284423828	0.5332851409912109
0	0.7335448265075684	response	0	space						27.43531084060669	
1	0.7416219711303711	stim	0		4246					27.443387985229492	35.39982295036316
1	36.131656885147095	pulse	0	t						62.833422899246216	
1	36.14144492149353	stim	1		1716					62.84321093559265	14.30764102935791
1	37.72249984741211	pulse	1	t						64.42426586151123	
1	39.32258200645447	pulse	1	t						66.02434802055359	
1	40.9227409362793	pulse	1	t						67.62450695037842	
1	42.52308893203735	pulse	1	t						69.22485494613647	
1	44.123392820358276	pulse	1	t						70.8251588344574	
1	45.72357797622681	pulse	1	t						72.42534399032593	
1	47.32374691963196	pulse	1	t						74.02551293373108	
1	48.92404079437256	pulse	1	t						75.62580680847168	
2	50.44908595085144	fix_pre	0		10	0.0	2.5	/experiments/knapen_AOT/AOT_stimuli/rescaled_final/1757_rv.mp4	0.0	77.15085196495056	0.08328700065612793
2	50.524372816085815	pulse	0	t		0.0	2.5	/experiments/knapen_AOT/AOT_stimuli/rescaled_final/1757_rv.mp4	0.0	77.22613883018494	
2	50.53237295150757	movie	1		243	0.0	2.5	/experiments/knapen_AOT/AOT_stimuli/rescaled_final/1757_rv.mp4	0.0	77.23413896560669	2.5087099075317383
2	52.12870192527771	pulse	1	t		0.0	2.5	/experiments/knapen_AOT/AOT_stimuli/rescaled_final/1757_rv.mp4	0.0	78.83046793937683	
2	53.04108285903931	fix_post	2		12	0.0	2.5	/experiments/knapen_AOT/AOT_stimuli/rescaled_final/1757_rv.mp4	0.0	79.74284887313843	0.10003995895385742
3	53.141122817993164	fix_pre	0		120	1.0	2.5	/experiments/knapen_AOT/AOT_stimuli/rescaled_final/2172_rv.mp4	0.0	79.84288883209229	1.000150203704834
3	53.72475981712341	pulse	0	t		1.0	2.5	/experiments/knapen_AOT/AOT_stimuli/rescaled_final/2172_rv.mp4	0.0	80.42652583122253	
3	54.141273021698	movie	1		245	1.0	2.5	/experiments/knapen_AOT/AOT_stimuli/rescaled_final/2172_rv.mp4	0.0	80.84303903579712	2.5003647804260254
3	55.32507801055908	pulse	1	t		1.0	2.5	/experiments/knapen_AOT/AOT_stimuli/rescaled_final/2172_rv.mp4	0.0	82.0268440246582	
3	56.64163780212402	fix_post	2		12	1.0	2.5	/experiments/knapen_AOT/AOT_stimuli/rescaled_final/2172_rv.mp4	0.0	83.34340381622314	0.10001111030578613
4	56.74164891242981	fix_pre	0		120	2.0	2.5	/experiments/knapen_AOT/AOT_stimuli/rescaled_final/0375_rv.mp4	0.0	83.44341492652893	1.0001640319824219
4	56.92532992362976	pulse	0	t		2.0	2.5	/experiments/knapen_AOT/AOT_stimuli/rescaled_final/0375_rv.mp4	0.0	83.62709593772888	
4	57.74181294441223	movie	1		244	2.0	2.5	/experiments/knapen_AOT/AOT_stimuli/rescaled_final/0375_rv.mp4	0.0	84.44357895851135	2.5003600120544434
4	58.525601863861084	pulse	1	t		2.0	2.5	/experiments/knapen_AOT/AOT_stimuli/rescaled_final/0375_rv.mp4	0.0	85.2273678779602	
4	60.12578296661377	pulse	1	t		2.0	2.5	/experiments/knapen_AOT/AOT_stimuli/rescaled_final/0375_rv.mp4	0.0	86.82754898071289	
4	60.242172956466675	fix_post	2		12	2.0	2.5	/experiments/knapen_AOT/AOT_stimuli/rescaled_final/0375_rv.mp4	0.0	86.9439389705658	0.1000070571899414
5	60.342180013656616	fix_pre	0		120	3.0	2.5	/experiments/knapen_AOT/AOT_stimuli/rescaled_final/0980_rv.mp4	0.0	87.04394602775574	1.000175952911377
5	61.34235596656799	movie	1		242	3.0	2.5	/experiments/knapen_AOT/AOT_stimuli/rescaled_final/0980_rv.mp4	0.0	88.04412198066711	2.4920599460601807
5	61.72639799118042	pulse	1	t		3.0	2.5	/experiments/knapen_AOT/AOT_stimuli/rescaled_final/0980_rv.mp4	0.0	88.42816400527954	
5	63.32628083229065	pulse	1	t		3.0	2.5	/experiments/knapen_AOT/AOT_stimuli/rescaled_final/0980_rv.mp4	0.0	90.02804684638977	
5	63.834415912628174	fix_post	2		12	3.0	2.5	/experiments/knapen_AOT/AOT_stimuli/rescaled_final/0980_rv.mp4	0.0	90.5361819267273	0.09996795654296875
6	63.93438386917114	fix_pre	0		120	4.0	2.5	/experiments/knapen_AOT/AOT_stimuli/rescaled_final/1145_fw.mp4	0.0	90.63614988327026	1.0001699924468994
6	64.9265079498291	pulse	0	t		4.0	2.5	/experiments/knapen_AOT/AOT_stimuli/rescaled_final/1145_fw.mp4	0.0	91.62827396392822	
6	64.93455386161804	movie	1		246	4.0	2.5	/experiments/knapen_AOT/AOT_stimuli/rescaled_final/1145_fw.mp4	0.0	91.63631987571716	2.508754014968872
6	66.52795696258545	pulse	1	t		4.0	2.5	/experiments/knapen_AOT/AOT_stimuli/rescaled_final/1145_fw.mp4	0.0	93.22972297668457	
6	67.44330787658691	fix_post	2		12	4.0	2.5	/experiments/knapen_AOT/AOT_stimuli/rescaled_final/1145_fw.mp4	0.0	94.14507389068604	0.09996700286865234
7	67.54327487945557	fix_pre	0		120	5.0	2.5	blank	1.0	94.24504089355469	1.0001859664916992
7	68.12684988975525	pulse	0	t		5.0	2.5	blank	1.0	94.82861590385437	
7	68.54346084594727	movie	1		300	5.0	2.5	blank	1.0	95.24522686004639	2.5003299713134766
7	69.72711086273193	pulse	1	t		5.0	2.5	blank	1.0	96.42887687683105	
7	71.04379081726074	fix_post	2		12	5.0	2.5	blank	1.0	97.74555683135986	0.10001420974731445
8	71.14380502700806	fix_pre	0		120	6.0	2.5	/experiments/knapen_AOT/AOT_stimuli/rescaled_final/1351_fw.mp4	0.0	97.84557104110718	1.0001797676086426
8	71.32748579978943	pulse	0	t		6.0	2.5	/experiments/knapen_AOT/AOT_stimuli/rescaled_final/1351_fw.mp4	0.0	98.02925181388855	
8	72.1439847946167	movie	1		244	6.0	2.5	/experiments/knapen_AOT/AOT_stimuli/rescaled_final/1351_fw.mp4	0.0	98.84575080871582	2.5003762245178223
8	72.9276978969574	pulse	1	t		6.0	2.5	/experiments/knapen_AOT/AOT_stimuli/rescaled_final/1351_fw.mp4	0.0	99.62946391105652	
8	74.52803492546082	pulse	1	t		6.0	2.5	/experiments/knapen_AOT/AOT_stimuli/rescaled_final/1351_fw.mp4	0.0	101.22980093955994	
8	74.64436101913452	fix_post	2		12	6.0	2.5	/experiments/knapen_AOT/AOT_stimuli/rescaled_final/1351_fw.mp4	0.0	101.34612703323364	0.0999917984008789
9	74.7443528175354	fix_pre	0		120	7.0	2.5	/experiments/knapen_AOT/AOT_stimuli/rescaled_final/0100_fw.mp4	0.0	101.44611883163452	1.0001192092895508
9	75.74447202682495	movie	1		244	7.0	2.5	/experiments/knapen_AOT/AOT_stimuli/rescaled_final/0100_fw.mp4	0.0	102.44623804092407	2.4920878410339355
9	76.1286849975586	pulse	1	t		7.0	2.5	/experiments/knapen_AOT/AOT_stimuli/rescaled_final/0100_fw.mp4	0.0	102.83045101165771	
9	77.72103095054626	pulse	1	t		7.0	2.5	/experiments/knapen_AOT/AOT_stimuli/rescaled_final/0100_fw.mp4	0.0	104.42279696464539	
9	78.23655986785889	fix_post	2		10	7.0	2.5	/experiments/knapen_AOT/AOT_stimuli/rescaled_final/0100_fw.mp4	0.0	104.93832588195801	0.10001492500305176
10	78.33657479286194	fix_pre	0		120	8.0	2.5	/experiments/knapen_AOT/AOT_stimuli/rescaled_final/0980_fw.mp4	0.0	105.03834080696106	1.0001461505889893
10	79.32099294662476	pulse	0	t		8.0	2.5	/experiments/knapen_AOT/AOT_stimuli/rescaled_final/0980_fw.mp4	0.0	106.02275896072388	
10	79.33672094345093	movie	1		244	8.0	2.5	/experiments/knapen_AOT/AOT_stimuli/rescaled_final/0980_fw.mp4	0.0	106.03848695755005	2.5086820125579834
10	80.92938995361328	pulse	1	t		8.0	2.5	/experiments/knapen_AOT/AOT_stimuli/rescaled_final/0980_fw.mp4	0.0	107.6311559677124	
10	81.84540295600891	fix_post	2		12	8.0	2.5	/experiments/knapen_AOT/AOT_stimuli/rescaled_final/0980_fw.mp4	0.0	108.54716897010803	0.10003185272216797
11	81.94543480873108	fix_pre	0		120	9.0	2.5	/experiments/knapen_AOT/AOT_stimuli/rescaled_final/1983_rv.mp4	0.0	108.6472008228302	1.0001380443572998
11	82.52083492279053	pulse	0	t		9.0	2.5	/experiments/knapen_AOT/AOT_stimuli/rescaled_final/1983_rv.mp4	0.0	109.22260093688965	
11	82.94557285308838	movie	1		247	9.0	2.5	/experiments/knapen_AOT/AOT_stimuli/rescaled_final/1983_rv.mp4	0.0	109.6473388671875	2.5003650188446045
11	84.12530183792114	pulse	1	t		9.0	2.5	/experiments/knapen_AOT/AOT_stimuli/rescaled_final/1983_rv.mp4	0.0	110.82706785202026	
11	85.44593787193298	fix_post	2		12	9.0	2.5	/experiments/knapen_AOT/AOT_stimuli/rescaled_final/1983_rv.mp4	0.0	112.1477038860321	0.10001611709594727
12	85.54595398902893	fix_pre	0		120	10.0	2.5	/experiments/knapen_AOT/AOT_stimuli/rescaled_final/1633_fw.mp4	0.0	112.24772000312805	1.0001800060272217
12	85.72123289108276	pulse	0	t		10.0	2.5	/experiments/knapen_AOT/AOT_stimuli/rescaled_final/1633_fw.mp4	0.0	112.42299890518188	
12	86.54613399505615	movie	1		245	10.0	2.5	/experiments/knapen_AOT/AOT_stimuli/rescaled_final/1633_fw.mp4	0.0	113.24790000915527	2.50034499168396
12	87.32159495353699	pulse	1	t		10.0	2.5	/experiments/knapen_AOT/AOT_stimuli/rescaled_final/1633_fw.mp4	0.0	114.02336096763611	
12	88.92166686058044	pulse	1	t		10.0	2.5	/experiments/knapen_AOT/AOT_stimuli/rescaled_final/1633_fw.mp4	0.0	115.62343287467957	
12	89.04647898674011	fix_post	2		12	10.0	2.5	/experiments/knapen_AOT/AOT_stimuli/rescaled_final/1633_fw.mp4	0.0	115.74824500083923	0.10005903244018555
13	89.1465380191803	fix_pre	0		120	11.0	2.5	/experiments/knapen_AOT/AOT_stimuli/rescaled_final/1104_rv.mp4	0.0	115.84830403327942	1.0001018047332764
13	90.14663982391357	movie	1		243	11.0	2.5	/experiments/knapen_AOT/AOT_stimuli/rescaled_final/1104_rv.mp4	0.0	116.8484058380127	2.4920520782470703
13	90.52186179161072	pulse	1	t		11.0	2.5	/experiments/knapen_AOT/AOT_stimuli/rescaled_final/1104_rv.mp4	0.0	117.22362780570984	
13	92.12217998504639	pulse	1	t		11.0	2.5	/experiments/knapen_AOT/AOT_stimuli/rescaled_final/1104_rv.mp4	0.0	118.82394599914551	
13	92.63869190216064	fix_post	2		12	11.0	2.5	/experiments/knapen_AOT/AOT_stimuli/rescaled_final/1104_rv.mp4	0.0	119.34045791625977	0.10002303123474121
14	92.73871493339539	fix_pre	0		119	12.0	2.5	blank	1.0	119.4404809474945	0.9918239116668701
14	93.72236394882202	pulse	0	t		12.0	2.5	blank	1.0	120.42412996292114	
14	93.73053884506226	movie	1		301	12.0	2.5	blank	1.0	120.43230485916138	2.5087220668792725
14	95.32264590263367	pulse	1	t		12.0	2.5	blank	1.0	122.02441191673279	
14	96.23926091194153	fix_post	2		12	12.0	2.5	blank	1.0	122.94102692604065	0.09998798370361328
15	96.33924889564514	fix_pre	0		120	13.0	2.5	/experiments/knapen_AOT/AOT_stimuli/rescaled_final/0736_fw.mp4	0.0	123.04101490974426	1.000135898590088
15	96.92282485961914	pulse	0	t		13.0	2.5	/experiments/knapen_AOT/AOT_stimuli/rescaled_final/0736_fw.mp4	0.0	123.62459087371826	
15	97.33938479423523	movie	1		244	13.0	2.5	/experiments/knapen_AOT/AOT_stimuli/rescaled_final/0736_fw.mp4	0.0	124.04115080833435	2.500373125076294
15	98.5232470035553	pulse	1	t		13.0	2.5	/experiments/knapen_AOT/AOT_stimuli/rescaled_final/0736_fw.mp4	0.0	125.22501301765442	
15	99.83975791931152	fix_post	2		12	13.0	2.5	/experiments/knapen_AOT/AOT_stimuli/rescaled_final/0736_fw.mp4	0.0	126.54152393341064	0.10002994537353516
16	99.93978786468506	fix_pre	0		120	14.0	2.5	/experiments/knapen_AOT/AOT_stimuli/rescaled_final/1017_fw.mp4	0.0	126.64155387878418	1.0001709461212158
16	100.12334489822388	pulse	0	t		14.0	2.5	/experiments/knapen_AOT/AOT_stimuli/rescaled_final/1017_fw.mp4	0.0	126.825110912323	
16	100.93995881080627	movie	1		245	14.0	2.5	/experiments/knapen_AOT/AOT_stimuli/rescaled_final/1017_fw.mp4	0.0	127.6417248249054	2.500383138656616
16	101.72363185882568	pulse	1	t		14.0	2.5	/experiments/knapen_AOT/AOT_stimuli/rescaled_final/1017_fw.mp4	0.0	128.4253978729248	
16	103.32168984413147	pulse	1	t		14.0	2.5	/experiments/knapen_AOT/AOT_stimuli/rescaled_final/1017_fw.mp4	0.0	130.0234558582306	
16	103.44034194946289	fix_post	2		12	14.0	2.5	/experiments/knapen_AOT/AOT_stimuli/rescaled_final/1017_fw.mp4	0.0	130.142107963562	0.09996604919433594
17	103.54030799865723	fix_pre	0		120	15.0	2.5	/experiments/knapen_AOT/AOT_stimuli/rescaled_final/1426_rv.mp4	0.0	130.24207401275635	1.0001728534698486
17	104.54048085212708	movie	1		246	15.0	2.5	/experiments/knapen_AOT/AOT_stimuli/rescaled_final/1426_rv.mp4	0.0	131.2422468662262	2.4920289516448975
17	104.92461895942688	pulse	1	t		15.0	2.5	/experiments/knapen_AOT/AOT_stimuli/rescaled_final/1426_rv.mp4	0.0	131.626384973526	
17	106.52428102493286	pulse	1	t		15.0	2.5	/experiments/knapen_AOT/AOT_stimuli/rescaled_final/1426_rv.mp4	0.0	133.22604703903198	
17	107.03250980377197	fix_post	2		12	15.0	2.5	/experiments/knapen_AOT/AOT_stimuli/rescaled_final/1426_rv.mp4	0.0	133.7342758178711	0.10009503364562988
18	107.1326048374176	fix_pre	0		120	16.0	2.5	/experiments/knapen_AOT/AOT_stimuli/rescaled_final/1739_fw.mp4	0.0	133.83437085151672	1.000082015991211
18	108.12453579902649	pulse	0	t		16.0	2.5	/experiments/knapen_AOT/AOT_stimuli/rescaled_final/1739_fw.mp4	0.0	134.8263018131256	
18	108.13268685340881	movie	1		244	16.0	2.5	/experiments/knapen_AOT/AOT_stimuli/rescaled_final/1739_fw.mp4	0.0	134.83445286750793	2.5086870193481445
18	109.72547698020935	pulse	1	t		16.0	2.5	/experiments/knapen_AOT/AOT_stimuli/rescaled_final/1739_fw.mp4	0.0	136.42724299430847	
18	110.64137387275696	fix_post	2		12	16.0	2.5	/experiments/knapen_AOT/AOT_stimuli/rescaled_final/1739_fw.mp4	0.0	137.34313988685608	0.10000014305114746
19	110.7413740158081	fix_pre	0		120	17.0	2.5	/experiments/knapen_AOT/AOT_stimuli/rescaled_final/0828_rv.mp4	0.0	137.44314002990723	1.0001928806304932
19	111.32502794265747	pulse	0	t		17.0	2.5	/experiments/knapen_AOT/AOT_stimuli/rescaled_final/0828_rv.mp4	0.0	138.0267939567566	
19	111.7415668964386	movie	1		244	17.0	2.5	/experiments/knapen_AOT/AOT_stimuli/rescaled_final/0828_rv.mp4	0.0	138.44333291053772	2.5003459453582764
19	112.92537498474121	pulse	1	t		17.0	2.5	/experiments/knapen_AOT/AOT_stimuli/rescaled_final/0828_rv.mp4	0.0	139.62714099884033	
19	114.24191284179688	fix_post	2		12	17.0	2.5	/experiments/knapen_AOT/AOT_stimuli/rescaled_final/0828_rv.mp4	0.0	140.943678855896	0.10000801086425781
20	114.34192085266113	fix_pre	0		120	18.0	2.5	/experiments/knapen_AOT/AOT_stimuli/rescaled_final/1223_rv.mp4	0.0	141.04368686676025	1.0001699924468994
20	114.52552890777588	pulse	0	t		18.0	2.5	/experiments/knapen_AOT/AOT_stimuli/rescaled_final/1223_rv.mp4	0.0	141.227294921875	
20	115.34209084510803	movie	1		244	18.0	2.5	/experiments/knapen_AOT/AOT_stimuli/rescaled_final/1223_rv.mp4	0.0	142.04385685920715	2.5003621578216553
20	116.12579894065857	pulse	1	t		18.0	2.5	/experiments/knapen_AOT/AOT_stimuli/rescaled_final/1223_rv.mp4	0.0	142.8275649547577	
20	117.72596096992493	pulse	1	t		18.0	2.5	/experiments/knapen_AOT/AOT_stimuli/rescaled_final/1223_rv.mp4	0.0	144.42772698402405	
20	117.84245300292969	fix_post	2		12	18.0	2.5	/experiments/knapen_AOT/AOT_stimuli/rescaled_final/1223_rv.mp4	0.0	144.5442190170288	0.09999895095825195
21	117.94245195388794	fix_pre	0		120	19.0	2.5	/experiments/knapen_AOT/AOT_stimuli/rescaled_final/0081_fw.mp4	0.0	144.64421796798706	1.0001490116119385
21	118.94260096549988	movie	1		243	19.0	2.5	/experiments/knapen_AOT/AOT_stimuli/rescaled_final/0081_fw.mp4	0.0	145.644366979599	2.492079019546509
21	119.33070397377014	pulse	1	t		19.0	2.5	/experiments/knapen_AOT/AOT_stimuli/rescaled_final/0081_fw.mp4	0.0	146.03246998786926	
21	120.92652797698975	pulse	1	t		19.0	2.5	/experiments/knapen_AOT/AOT_stimuli/rescaled_final/0081_fw.mp4	0.0	147.62829399108887	
21	121.43467998504639	fix_post	2		12	19.0	2.5	/experiments/knapen_AOT/AOT_stimuli/rescaled_final/0081_fw.mp4	0.0	148.1364459991455	0.10002303123474121
22	121.53470301628113	fix_pre	0		120	20.0	2.5	blank	1.0	148.23646903038025	1.0001368522644043
22	122.52666592597961	pulse	0	t		20.0	2.5	blank	1.0	149.22843194007874	
22	122.53483986854553	movie	1		301	20.0	2.5	blank	1.0	149.23660588264465	2.508713960647583
22	124.12700486183167	pulse	1	t		20.0	2.5	blank	1.0	150.8287708759308	
22	125.04355382919312	fix_post	2		12	20.0	2.5	blank	1.0	151.74531984329224	0.10001301765441895
23	125.14356684684753	fix_pre	0		120	21.0	2.5	/experiments/knapen_AOT/AOT_stimuli/rescaled_final/1867_fw.mp4	0.0	151.84533286094666	1.0001399517059326
23	125.72720193862915	pulse	0	t		21.0	2.5	/experiments/knapen_AOT/AOT_stimuli/rescaled_final/1867_fw.mp4	0.0	152.42896795272827	
23	126.14370679855347	movie	1		245	21.0	2.5	/experiments/knapen_AOT/AOT_stimuli/rescaled_final/1867_fw.mp4	0.0	152.8454728126526	2.500399112701416
23	127.3275408744812	pulse	1	t		21.0	2.5	/experiments/knapen_AOT/AOT_stimuli/rescaled_final/1867_fw.mp4	0.0	154.02930688858032	
23	128.64410591125488	fix_post	2		12	21.0	2.5	/experiments/knapen_AOT/AOT_stimuli/rescaled_final/1867_fw.mp4	0.0	155.345871925354	0.10001492500305176
24	128.74412083625793	fix_pre	0		120	22.0	2.5	/experiments/knapen_AOT/AOT_stimuli/rescaled_final/1055_rv.mp4	0.0	155.44588685035706	1.000148057937622
24	128.92768597602844	pulse	0	t		22.0	2.5	/experiments/knapen_AOT/AOT_stimuli/rescaled_final/1055_rv.mp4	0.0	155.62945199012756	
24	129.74426889419556	movie	1		243	22.0	2.5	/experiments/knapen_AOT/AOT_stimuli/rescaled_final/1055_rv.mp4	0.0	156.44603490829468	2.500322103500366
24	130.52787399291992	pulse	1	t		22.0	2.5	/experiments/knapen_AOT/AOT_stimuli/rescaled_final/1055_rv.mp4	0.0	157.22964000701904	
24	132.12798595428467	pulse	1	t		22.0	2.5	/experiments/knapen_AOT/AOT_stimuli/rescaled_final/1055_rv.mp4	0.0	158.8297519683838	
24	132.24459099769592	fix_post	2		12	22.0	2.5	/experiments/knapen_AOT/AOT_stimuli/rescaled_final/1055_rv.mp4	0.0	158.94635701179504	0.1000218391418457
25	132.34461283683777	fix_pre	0		119	23.0	2.5	/experiments/knapen_AOT/AOT_stimuli/rescaled_final/0033_rv.mp4	0.0	159.0463788509369	0.991832971572876
25	133.33644580841064	movie	1		245	23.0	2.5	/experiments/knapen_AOT/AOT_stimuli/rescaled_final/0033_rv.mp4	0.0	160.03821182250977	2.5003561973571777
25	133.72437191009521	pulse	1	t		23.0	2.5	/experiments/knapen_AOT/AOT_stimuli/rescaled_final/0033_rv.mp4	0.0	160.42613792419434	
25	135.32129788398743	pulse	1	t		23.0	2.5	/experiments/knapen_AOT/AOT_stimuli/rescaled_final/0033_rv.mp4	0.0	162.02306389808655	
25	135.83680200576782	fix_post	2		12	23.0	2.5	/experiments/knapen_AOT/AOT_stimuli/rescaled_final/0033_rv.mp4	0.0	162.53856801986694	0.10005688667297363
26	135.9368588924408	fix_pre	0		120	24.0	2.5	/experiments/knapen_AOT/AOT_stimuli/rescaled_final/0980_fw.mp4	0.0	162.63862490653992	1.0002069473266602
26	136.92135500907898	pulse	0	t		24.0	2.5	/experiments/knapen_AOT/AOT_stimuli/rescaled_final/0980_fw.mp4	0.0	163.6231210231781	
26	136.93706583976746	movie	1		240	24.0	2.5	/experiments/knapen_AOT/AOT_stimuli/rescaled_final/0980_fw.mp4	0.0	163.63883185386658	2.508625030517578
26	138.529620885849	pulse	1	t		24.0	2.5	/experiments/knapen_AOT/AOT_stimuli/rescaled_final/0980_fw.mp4	0.0	165.23138689994812	
26	139.44569087028503	fix_post	2		12	24.0	2.5	/experiments/knapen_AOT/AOT_stimuli/rescaled_final/0980_fw.mp4	0.0	166.14745688438416	0.100006103515625
27	139.54569697380066	fix_pre	0		120	25.0	2.5	/experiments/knapen_AOT/AOT_stimuli/rescaled_final/1095_fw.mp4	0.0	166.24746298789978	1.000140905380249
27	140.12094497680664	pulse	0	t		25.0	2.5	/experiments/knapen_AOT/AOT_stimuli/rescaled_final/1095_fw.mp4	0.0	166.82271099090576	
27	140.5458378791809	movie	1		245	25.0	2.5	/experiments/knapen_AOT/AOT_stimuli/rescaled_final/1095_fw.mp4	0.0	167.24760389328003	2.500380039215088
27	141.72226881980896	pulse	1	t		25.0	2.5	/experiments/knapen_AOT/AOT_stimuli/rescaled_final/1095_fw.mp4	0.0	168.42403483390808	
27	143.046217918396	fix_post	2		12	25.0	2.5	/experiments/knapen_AOT/AOT_stimuli/rescaled_final/1095_fw.mp4	0.0	169.74798393249512	0.10001111030578613
28	143.14622902870178	fix_pre	0		120	26.0	2.5	blank	1.0	169.8479950428009	1.0002059936523438
28	143.3215959072113	pulse	0	t		26.0	2.5	blank	1.0	170.02336192131042	
28	144.14643502235413	movie	1		299	26.0	2.5	blank	1.0	170.84820103645325	2.4920239448547363
28	144.92171788215637	pulse	1	t		26.0	2.5	blank	1.0	171.6234838962555	
28	146.5219337940216	pulse	1	t		26.0	2.5	blank	1.0	173.22369980812073	
28	146.63845896720886	fix_post	2		12	26.0	2.5	blank	1.0	173.34022498130798	0.1000218391418457
29	146.7384808063507	fix_pre	0		120	27.0	2.5	/experiments/knapen_AOT/AOT_stimuli/rescaled_final/0542_fw.mp4	0.0	173.44024682044983	1.0001311302185059
29	147.7386119365692	movie	1		247	27.0	2.5	/experiments/knapen_AOT/AOT_stimuli/rescaled_final/0542_fw.mp4	0.0	174.44037795066833	2.5003368854522705
29	148.1240849494934	pulse	1	t		27.0	2.5	/experiments/knapen_AOT/AOT_stimuli/rescaled_final/0542_fw.mp4	0.0	174.82585096359253	
29	149.72256302833557	pulse	1	t		27.0	2.5	/experiments/knapen_AOT/AOT_stimuli/rescaled_final/0542_fw.mp4	0.0	176.4243290424347	
29	150.23894882202148	fix_post	2		12	27.0	2.5	/experiments/knapen_AOT/AOT_stimuli/rescaled_final/0542_fw.mp4	0.0	176.9407148361206	0.10001707077026367
30	150.33896589279175	fix_pre	0		119	28.0	2.5	/experiments/knapen_AOT/AOT_stimuli/rescaled_final/0222_rv.mp4	0.0	177.04073190689087	0.991818904876709
30	151.32275891304016	pulse	0	t		28.0	2.5	/experiments/knapen_AOT/AOT_stimuli/rescaled_final/0222_rv.mp4	0.0	178.02452492713928	
30	151.33078479766846	movie	1		246	28.0	2.5	/experiments/knapen_AOT/AOT_stimuli/rescaled_final/0222_rv.mp4	0.0	178.03255081176758	2.5087361335754395
30	152.92339301109314	pulse	1	t		28.0	2.5	/experiments/knapen_AOT/AOT_stimuli/rescaled_final/0222_rv.mp4	0.0	179.62515902519226	
30	153.8395209312439	fix_post	2		12	28.0	2.5	/experiments/knapen_AOT/AOT_stimuli/rescaled_final/0222_rv.mp4	0.0	180.54128694534302	0.10005688667297363
31	153.93957781791687	fix_pre	0		120	29.0	2.5	/experiments/knapen_AOT/AOT_stimuli/rescaled_final/1576_rv.mp4	0.0	180.641343832016	1.0000860691070557
31	154.52322387695312	pulse	0	t		29.0	2.5	/experiments/knapen_AOT/AOT_stimuli/rescaled_final/1576_rv.mp4	0.0	181.22498989105225	
31	154.93966388702393	movie	1		244	29.0	2.5	/experiments/knapen_AOT/AOT_stimuli/rescaled_final/1576_rv.mp4	0.0	181.64142990112305	2.500368118286133
31	156.1235568523407	pulse	1	t		29.0	2.5	/experiments/knapen_AOT/AOT_stimuli/rescaled_final/1576_rv.mp4	0.0	182.82532286643982	
31	157.44003200531006	fix_post	2		12	29.0	2.5	/experiments/knapen_AOT/AOT_stimuli/rescaled_final/1576_rv.mp4	0.0	184.14179801940918	0.10002899169921875
32	157.54006099700928	fix_pre	0		120	30.0	2.5	/experiments/knapen_AOT/AOT_stimuli/rescaled_final/1477_fw.mp4	0.0	184.2418270111084	1.0001499652862549
32	157.72368693351746	pulse	0	t		30.0	2.5	/experiments/knapen_AOT/AOT_stimuli/rescaled_final/1477_fw.mp4	0.0	184.42545294761658	
32	158.54021096229553	movie	1		245	30.0	2.5	/experiments/knapen_AOT/AOT_stimuli/rescaled_final/1477_fw.mp4	0.0	185.24197697639465	2.5003650188446045
32	159.32395386695862	pulse	1	t		30.0	2.5	/experiments/knapen_AOT/AOT_stimuli/rescaled_final/1477_fw.mp4	0.0	186.02571988105774	
32	160.921532869339	pulse	1	t		30.0	2.5	/experiments/knapen_AOT/AOT_stimuli/rescaled_final/1477_fw.mp4	0.0	187.6232988834381	
32	161.04057598114014	fix_post	2		12	30.0	2.5	/experiments/knapen_AOT/AOT_stimuli/rescaled_final/1477_fw.mp4	0.0	187.74234199523926	0.1000218391418457
33	161.14059782028198	fix_pre	0		120	31.0	2.5	/experiments/knapen_AOT/AOT_stimuli/rescaled_final/1323_rv.mp4	0.0	187.8423638343811	1.000148057937622
33	162.1407458782196	movie	1		242	31.0	2.5	/experiments/knapen_AOT/AOT_stimuli/rescaled_final/1323_rv.mp4	0.0	188.84251189231873	2.4920339584350586
33	162.52491998672485	pulse	1	t		31.0	2.5	/experiments/knapen_AOT/AOT_stimuli/rescaled_final/1323_rv.mp4	0.0	189.22668600082397	
33	164.12469696998596	pulse	1	t		31.0	2.5	/experiments/knapen_AOT/AOT_stimuli/rescaled_final/1323_rv.mp4	0.0	190.82646298408508	
33	164.63277983665466	fix_post	2		12	31.0	2.5	/experiments/knapen_AOT/AOT_stimuli/rescaled_final/1323_rv.mp4	0.0	191.33454585075378	0.10000109672546387
34	164.73278093338013	fix_pre	0		120	32.0	2.5	/experiments/knapen_AOT/AOT_stimuli/rescaled_final/1576_fw.mp4	0.0	191.43454694747925	1.0001749992370605
34	165.72479796409607	pulse	0	t		32.0	2.5	/experiments/knapen_AOT/AOT_stimuli/rescaled_final/1576_fw.mp4	0.0	192.4265639781952	
34	165.7329559326172	movie	1		246	32.0	2.5	/experiments/knapen_AOT/AOT_stimuli/rescaled_final/1576_fw.mp4	0.0	192.4347219467163	2.5086798667907715
34	167.32560300827026	pulse	1	t		32.0	2.5	/experiments/knapen_AOT/AOT_stimuli/rescaled_final/1576_fw.mp4	0.0	194.02736902236938	
34	168.24163579940796	fix_post	2		12	32.0	2.5	/experiments/knapen_AOT/AOT_stimuli/rescaled_final/1576_fw.mp4	0.0	194.94340181350708	0.10002708435058594
35	168.34166288375854	fix_pre	0		120	33.0	2.5	/experiments/knapen_AOT/AOT_stimuli/rescaled_final/0792_fw.mp4	0.0	195.04342889785767	1.0001559257507324
35	168.92529487609863	pulse	0	t		33.0	2.5	/experiments/knapen_AOT/AOT_stimuli/rescaled_final/0792_fw.mp4	0.0	195.62706089019775	
35	169.34181880950928	movie	1		243	33.0	2.5	/experiments/knapen_AOT/AOT_stimuli/rescaled_final/0792_fw.mp4	0.0	196.0435848236084	2.5004851818084717
35	170.52578687667847	pulse	1	t		33.0	2.5	/experiments/knapen_AOT/AOT_stimuli/rescaled_final/0792_fw.mp4	0.0	197.2275528907776	
35	171.84230399131775	fix_post	2		12	33.0	2.5	/experiments/knapen_AOT/AOT_stimuli/rescaled_final/0792_fw.mp4	0.0	198.54407000541687	0.09992194175720215
36	171.94222593307495	fix_pre	0		120	34.0	2.5	/experiments/knapen_AOT/AOT_stimuli/rescaled_final/1017_fw.mp4	0.0	198.64399194717407	1.000201940536499
36	172.12577891349792	pulse	0	t		34.0	2.5	/experiments/knapen_AOT/AOT_stimuli/rescaled_final/1017_fw.mp4	0.0	198.82754492759705	
36	172.94242787361145	movie	1		245	34.0	2.5	/experiments/knapen_AOT/AOT_stimuli/rescaled_final/1017_fw.mp4	0.0	199.64419388771057	2.500347137451172
36	173.7259910106659	pulse	1	t		34.0	2.5	/experiments/knapen_AOT/AOT_stimuli/rescaled_final/1017_fw.mp4	0.0	200.42775702476501	
36	175.32381582260132	pulse	1	t		34.0	2.5	/experiments/knapen_AOT/AOT_stimuli/rescaled_final/1017_fw.mp4	0.0	202.02558183670044	
36	175.44277501106262	fix_post	2		12	34.0	2.5	/experiments/knapen_AOT/AOT_stimuli/rescaled_final/1017_fw.mp4	0.0	202.14454102516174	0.09998583793640137
37	175.54276084899902	fix_pre	0		119	35.0	2.5	blank	1.0	202.24452686309814	0.9918351173400879
37	176.5345959663391	movie	1		300	35.0	2.5	blank	1.0	203.23636198043823	2.5003368854522705
37	176.9265649318695	pulse	1	t		35.0	2.5	blank	1.0	203.62833094596863	
37	178.52674889564514	pulse	1	t		35.0	2.5	blank	1.0	205.22851490974426	
37	179.03493285179138	fix_post	2		12	35.0	2.5	blank	1.0	205.7366988658905	0.10001301765441895
38	179.1349458694458	fix_pre	0		120	36.0	2.5	/experiments/knapen_AOT/AOT_stimuli/rescaled_final/0712_rv.mp4	0.0	205.83671188354492	1.0001540184020996
38	180.12697887420654	pulse	0	t		36.0	2.5	/experiments/knapen_AOT/AOT_stimuli/rescaled_final/0712_rv.mp4	0.0	206.82874488830566	
38	180.1350998878479	movie	1		246	36.0	2.5	/experiments/knapen_AOT/AOT_stimuli/rescaled_final/0712_rv.mp4	0.0	206.83686590194702	2.508697986602783
38	181.72777390480042	pulse	1	t		36.0	2.5	/experiments/knapen_AOT/AOT_stimuli/rescaled_final/0712_rv.mp4	0.0	208.42953991889954	
38	182.64379787445068	fix_post	2		12	36.0	2.5	/experiments/knapen_AOT/AOT_stimuli/rescaled_final/0712_rv.mp4	0.0	209.3455638885498	0.10000300407409668
39	182.74380087852478	fix_pre	0		120	37.0	2.5	/experiments/knapen_AOT/AOT_stimuli/rescaled_final/0843_fw.mp4	0.0	209.4455668926239	1.0001919269561768
39	183.3275179862976	pulse	0	t		37.0	2.5	/experiments/knapen_AOT/AOT_stimuli/rescaled_final/0843_fw.mp4	0.0	210.02928400039673	
39	183.74399280548096	movie	1		245	37.0	2.5	/experiments/knapen_AOT/AOT_stimuli/rescaled_final/0843_fw.mp4	0.0	210.44575881958008	2.500455141067505
39	184.92779183387756	pulse	1	t		37.0	2.5	/experiments/knapen_AOT/AOT_stimuli/rescaled_final/0843_fw.mp4	0.0	211.62955784797668	
39	186.24444794654846	fix_post	2		12	37.0	2.5	/experiments/knapen_AOT/AOT_stimuli/rescaled_final/0843_fw.mp4	0.0	212.94621396064758	0.09988903999328613
40	186.34433698654175	fix_pre	0		120	38.0	2.5	/experiments/knapen_AOT/AOT_stimuli/rescaled_final/0431_rv.mp4	0.0	213.04610300064087	1.0002329349517822
40	186.52788996696472	pulse	0	t		38.0	2.5	/experiments/knapen_AOT/AOT_stimuli/rescaled_final/0431_rv.mp4	0.0	213.22965598106384	
40	187.34456992149353	movie	1		243	38.0	2.5	/experiments/knapen_AOT/AOT_stimuli/rescaled_final/0431_rv.mp4	0.0	214.04633593559265	2.500322103500366
40	188.1282308101654	pulse	1	t		38.0	2.5	/experiments/knapen_AOT/AOT_stimuli/rescaled_final/0431_rv.mp4	0.0	214.82999682426453	
40	189.72865796089172	pulse	1	t		38.0	2.5	/experiments/knapen_AOT/AOT_stimuli/rescaled_final/0431_rv.mp4	0.0	216.43042397499084	
40	189.8448920249939	fix_post	2		12	38.0	2.5	/experiments/knapen_AOT/AOT_stimuli/rescaled_final/0431_rv.mp4	0.0	216.54665803909302	0.10009598731994629
41	189.94498801231384	fix_pre	0		120	39.0	2.5	/experiments/knapen_AOT/AOT_stimuli/rescaled_final/1685_fw.mp4	0.0	216.64675402641296	1.0000879764556885
41	190.94507598876953	movie	1		242	39.0	2.5	/experiments/knapen_AOT/AOT_stimuli/rescaled_final/1685_fw.mp4	0.0	217.64684200286865	2.4920120239257812
41	191.3301420211792	pulse	1	t		39.0	2.5	/experiments/knapen_AOT/AOT_stimuli/rescaled_final/1685_fw.mp4	0.0	218.03190803527832	
41	192.92164087295532	pulse	1	t		39.0	2.5	/experiments/knapen_AOT/AOT_stimuli/rescaled_final/1685_fw.mp4	0.0	219.62340688705444	
41	193.4370880126953	fix_post	2		12	39.0	2.5	/experiments/knapen_AOT/AOT_stimuli/rescaled_final/1685_fw.mp4	0.0	220.13885402679443	0.10002684593200684
42	193.53711485862732	fix_pre	0		120	40.0	2.5	/experiments/knapen_AOT/AOT_stimuli/rescaled_final/0650_rv.mp4	0.0	220.23888087272644	1.000157117843628
42	194.5216338634491	pulse	0	t		40.0	2.5	/experiments/knapen_AOT/AOT_stimuli/rescaled_final/0650_rv.mp4	0.0	221.22339987754822	
42	194.53727197647095	movie	1		245	40.0	2.5	/experiments/knapen_AOT/AOT_stimuli/rescaled_final/0650_rv.mp4	0.0	221.23903799057007	2.5087099075317383
42	196.12109994888306	pulse	1	t		40.0	2.5	/experiments/knapen_AOT/AOT_stimuli/rescaled_final/0650_rv.mp4	0.0	222.82286596298218	
42	197.04598188400269	fix_post	2		12	40.0	2.5	/experiments/knapen_AOT/AOT_stimuli/rescaled_final/0650_rv.mp4	0.0	223.7477478981018	0.09998798370361328
43	197.1459698677063	fix_pre	0		120	41.0	2.5	blank	1.0	223.84773588180542	1.0001790523529053
43	197.72126293182373	pulse	0	t		41.0	2.5	blank	1.0	224.42302894592285	
43	198.1461489200592	movie	1		297	41.0	2.5	blank	1.0	224.84791493415833	2.5003790855407715
43	199.32147598266602	pulse	1	t		41.0	2.5	blank	1.0	226.02324199676514	
43	200.64652800559998	fix_post	2		12	41.0	2.5	blank	1.0	227.3482940196991	0.09998178482055664
44	200.74650979042053	fix_pre	0		120	42.0	2.5	/experiments/knapen_AOT/AOT_stimuli/rescaled_final/1003_rv.mp4	0.0	227.44827580451965	1.0001962184906006
44	200.92175102233887	pulse	0	t		42.0	2.5	/experiments/knapen_AOT/AOT_stimuli/rescaled_final/1003_rv.mp4	0.0	227.623517036438	
44	201.74670600891113	movie	1		245	42.0	2.5	/experiments/knapen_AOT/AOT_stimuli/rescaled_final/1003_rv.mp4	0.0	228.44847202301025	2.500321865081787
44	202.52193999290466	pulse	1	t		42.0	2.5	/experiments/knapen_AOT/AOT_stimuli/rescaled_final/1003_rv.mp4	0.0	229.22370600700378	
44	204.1223030090332	pulse	1	t		42.0	2.5	/experiments/knapen_AOT/AOT_stimuli/rescaled_final/1003_rv.mp4	0.0	230.82406902313232	
44	204.24702787399292	fix_post	2		12	42.0	2.5	/experiments/knapen_AOT/AOT_stimuli/rescaled_final/1003_rv.mp4	0.0	230.94879388809204	0.10001897811889648
45	204.34704685211182	fix_pre	0		120	43.0	2.5	/experiments/knapen_AOT/AOT_stimuli/rescaled_final/1209_rv.mp4	0.0	231.04881286621094	1.0001420974731445
45	205.34718894958496	movie	1		244	43.0	2.5	/experiments/knapen_AOT/AOT_stimuli/rescaled_final/1209_rv.mp4	0.0	232.04895496368408	2.492094039916992
45	205.72256588935852	pulse	1	t		43.0	2.5	/experiments/knapen_AOT/AOT_stimuli/rescaled_final/1209_rv.mp4	0.0	232.42433190345764	
45	207.3228018283844	pulse	1	t		43.0	2.5	/experiments/knapen_AOT/AOT_stimuli/rescaled_final/1209_rv.mp4	0.0	234.02456784248352	
45	207.83928298950195	fix_post	2		12	43.0	2.5	/experiments/knapen_AOT/AOT_stimuli/rescaled_final/1209_rv.mp4	0.0	234.54104900360107	0.10001683235168457
46	207.93929982185364	fix_pre	0		119	44.0	2.5	/experiments/knapen_AOT/AOT_stimuli/rescaled_final/0910_fw.mp4	0.0	234.64106583595276	0.9917809963226318
46	208.92302894592285	pulse	0	t		44.0	2.5	/experiments/knapen_AOT/AOT_stimuli/rescaled_final/0910_fw.mp4	0.0	235.62479496002197	
46	208.93108081817627	movie	1		244	44.0	2.5	/experiments/knapen_AOT/AOT_stimuli/rescaled_final/0910_fw.mp4	0.0	235.6328468322754	2.508683204650879
46	210.52369689941406	pulse	1	t		44.0	2.5	/experiments/knapen_AOT/AOT_stimuli/rescaled_final/0910_fw.mp4	0.0	237.22546291351318	
46	211.43976402282715	fix_post	2		12	44.0	2.5	/experiments/knapen_AOT/AOT_stimuli/rescaled_final/0910_fw.mp4	0.0	238.14153003692627	0.10003995895385742
47	211.539803981781	fix_pre	0		120	45.0	2.5	/experiments/knapen_AOT/AOT_stimuli/rescaled_final/1488_rv.mp4	0.0	238.24156999588013	1.0001659393310547
47	212.12350797653198	pulse	0	t		45.0	2.5	/experiments/knapen_AOT/AOT_stimuli/rescaled_final/1488_rv.mp4	0.0	238.8252739906311	
47	212.53996992111206	movie	1		244	45.0	2.5	/experiments/knapen_AOT/AOT_stimuli/rescaled_final/1488_rv.mp4	0.0	239.24173593521118	2.5004210472106934
47	213.72374081611633	pulse	1	t		45.0	2.5	/experiments/knapen_AOT/AOT_stimuli/rescaled_final/1488_rv.mp4	0.0	240.42550683021545	
47	215.04039096832275	fix_post	2		12	45.0	2.5	/experiments/knapen_AOT/AOT_stimuli/rescaled_final/1488_rv.mp4	0.0	241.74215698242188	0.09994387626647949
48	215.14033484458923	fix_pre	0		120	46.0	2.5	/experiments/knapen_AOT/AOT_stimuli/rescaled_final/1209_fw.mp4	0.0	241.84210085868835	1.0001471042633057
48	215.323814868927	pulse	0	t		46.0	2.5	/experiments/knapen_AOT/AOT_stimuli/rescaled_final/1209_fw.mp4	0.0	242.02558088302612	
48	216.14048194885254	movie	1		245	46.0	2.5	/experiments/knapen_AOT/AOT_stimuli/rescaled_final/1209_fw.mp4	0.0	242.84224796295166	2.5003609657287598
48	216.92421102523804	pulse	1	t		46.0	2.5	/experiments/knapen_AOT/AOT_stimuli/rescaled_final/1209_fw.mp4	0.0	243.62597703933716	
48	218.5218448638916	pulse	1	t		46.0	2.5	/experiments/knapen_AOT/AOT_stimuli/rescaled_final/1209_fw.mp4	0.0	245.22361087799072	
48	218.6408429145813	fix_post	2		12	46.0	2.5	/experiments/knapen_AOT/AOT_stimuli/rescaled_final/1209_fw.mp4	0.0	245.34260892868042	0.10001397132873535
49	218.74085688591003	fix_pre	0		120	47.0	2.5	blank	1.0	245.44262290000916	1.000133991241455
49	219.7409908771515	movie	1		299	47.0	2.5	blank	1.0	246.4427568912506	2.4920830726623535
49	220.12468099594116	pulse	1	t		47.0	2.5	blank	1.0	246.82644701004028	
49	221.72482681274414	pulse	1	t		47.0	2.5	blank	1.0	248.42659282684326	
49	222.23307394981384	fix_post	2		12	47.0	2.5	blank	1.0	248.93483996391296	0.10004687309265137
50	222.3331208229065	fix_pre	0		120	48.0	2.5	/experiments/knapen_AOT/AOT_stimuli/rescaled_final/1790_fw.mp4	0.0	249.03488683700562	1.0001280307769775
50	223.32529282569885	pulse	0	t		48.0	2.5	/experiments/knapen_AOT/AOT_stimuli/rescaled_final/1790_fw.mp4	0.0	250.02705883979797	
50	223.33324885368347	movie	1		245	48.0	2.5	/experiments/knapen_AOT/AOT_stimuli/rescaled_final/1790_fw.mp4	0.0	250.0350148677826	2.5086770057678223
50	224.92991089820862	pulse	1	t		48.0	2.5	/experiments/knapen_AOT/AOT_stimuli/rescaled_final/1790_fw.mp4	0.0	251.63167691230774	
50	225.8419258594513	fix_post	2		12	48.0	2.5	/experiments/knapen_AOT/AOT_stimuli/rescaled_final/1790_fw.mp4	0.0	252.54369187355042	0.1000370979309082
51	225.9419629573822	fix_pre	0		120	49.0	2.5	/experiments/knapen_AOT/AOT_stimuli/rescaled_final/1095_fw.mp4	0.0	252.64372897148132	1.000140905380249
51	226.52555394172668	pulse	0	t		49.0	2.5	/experiments/knapen_AOT/AOT_stimuli/rescaled_final/1095_fw.mp4	0.0	253.2273199558258	
51	226.94210386276245	movie	1		245	49.0	2.5	/experiments/knapen_AOT/AOT_stimuli/rescaled_final/1095_fw.mp4	0.0	253.64386987686157	2.5003769397735596
51	228.12585592269897	pulse	1	t		49.0	2.5	/experiments/knapen_AOT/AOT_stimuli/rescaled_final/1095_fw.mp4	0.0	254.8276219367981	
51	229.442480802536	fix_post	2		12	49.0	2.5	/experiments/knapen_AOT/AOT_stimuli/rescaled_final/1095_fw.mp4	0.0	256.14424681663513	0.10006117820739746
52	229.5425419807434	fix_pre	0		120	50.0	2.5	/experiments/knapen_AOT/AOT_stimuli/rescaled_final/1104_fw.mp4	0.0	256.24430799484253	1.0000989437103271
52	229.7261519432068	pulse	0	t		50.0	2.5	/experiments/knapen_AOT/AOT_stimuli/rescaled_final/1104_fw.mp4	0.0	256.4279179573059	
52	230.54264092445374	movie	1		244	50.0	2.5	/experiments/knapen_AOT/AOT_stimuli/rescaled_final/1104_fw.mp4	0.0	257.24440693855286	2.5003559589385986
52	231.32640099525452	pulse	1	t		50.0	2.5	/experiments/knapen_AOT/AOT_stimuli/rescaled_final/1104_fw.mp4	0.0	258.02816700935364	
52	232.9265878200531	pulse	1	t		50.0	2.5	/experiments/knapen_AOT/AOT_stimuli/rescaled_final/1104_fw.mp4	0.0	259.6283538341522	
52	233.04299688339233	fix_post	2		12	50.0	2.5	/experiments/knapen_AOT/AOT_stimuli/rescaled_final/1104_fw.mp4	0.0	259.74476289749146	0.1000370979309082
53	233.14303398132324	fix_pre	0		120	51.0	2.5	/experiments/knapen_AOT/AOT_stimuli/rescaled_final/1889_fw.mp4	0.0	259.84479999542236	1.0001468658447266
53	234.14318084716797	movie	1		244	51.0	2.5	/experiments/knapen_AOT/AOT_stimuli/rescaled_final/1889_fw.mp4	0.0	260.8449468612671	2.492035150527954
53	234.5271759033203	pulse	1	t		51.0	2.5	/experiments/knapen_AOT/AOT_stimuli/rescaled_final/1889_fw.mp4	0.0	261.22894191741943	
53	236.12711381912231	pulse	1	t		51.0	2.5	/experiments/knapen_AOT/AOT_stimuli/rescaled_final/1889_fw.mp4	0.0	262.82887983322144	
53	236.63521599769592	fix_post	2		12	51.0	2.5	/experiments/knapen_AOT/AOT_stimuli/rescaled_final/1889_fw.mp4	0.0	263.33698201179504	0.10001993179321289
54	236.73523592948914	fix_pre	0		120	52.0	2.5	/experiments/knapen_AOT/AOT_stimuli/rescaled_final/0191_rv.mp4	0.0	263.43700194358826	1.0001699924468994
54	237.7274248600006	pulse	0	t		52.0	2.5	/experiments/knapen_AOT/AOT_stimuli/rescaled_final/0191_rv.mp4	0.0	264.42919087409973	
54	237.73540592193604	movie	1		246	52.0	2.5	/experiments/knapen_AOT/AOT_stimuli/rescaled_final/0191_rv.mp4	0.0	264.43717193603516	2.5086729526519775
54	239.32804799079895	pulse	1	t		52.0	2.5	/experiments/knapen_AOT/AOT_stimuli/rescaled_final/0191_rv.mp4	0.0	266.02981400489807	
54	240.244078874588	fix_post	2		12	52.0	2.5	/experiments/knapen_AOT/AOT_stimuli/rescaled_final/0191_rv.mp4	0.0	266.94584488868713	0.10004305839538574
55	240.3441219329834	fix_pre	0		120	53.0	2.5	/experiments/knapen_AOT/AOT_stimuli/rescaled_final/0195_fw.mp4	0.0	267.0458879470825	1.0001599788665771
55	240.92780590057373	pulse	0	t		53.0	2.5	/experiments/knapen_AOT/AOT_stimuli/rescaled_final/0195_fw.mp4	0.0	267.62957191467285	
55	241.34428191184998	movie	1		244	53.0	2.5	/experiments/knapen_AOT/AOT_stimuli/rescaled_final/0195_fw.mp4	0.0	268.0460479259491	2.500335931777954
55	242.52087593078613	pulse	1	t		53.0	2.5	/experiments/knapen_AOT/AOT_stimuli/rescaled_final/0195_fw.mp4	0.0	269.22264194488525	
55	243.84461784362793	fix_post	2		12	53.0	2.5	/experiments/knapen_AOT/AOT_stimuli/rescaled_final/0195_fw.mp4	0.0	270.54638385772705	0.10001111030578613
56	243.94462895393372	fix_pre	0		120	54.0	2.5	/experiments/knapen_AOT/AOT_stimuli/rescaled_final/0431_fw.mp4	0.0	270.64639496803284	1.0001609325408936
56	244.12067294120789	pulse	0	t		54.0	2.5	/experiments/knapen_AOT/AOT_stimuli/rescaled_final/0431_fw.mp4	0.0	270.822438955307	
56	244.9447898864746	movie	1		244	54.0	2.5	/experiments/knapen_AOT/AOT_stimuli/rescaled_final/0431_fw.mp4	0.0	271.64655590057373	2.500361919403076
56	245.72103595733643	pulse	1	t		54.0	2.5	/experiments/knapen_AOT/AOT_stimuli/rescaled_final/0431_fw.mp4	0.0	272.42280197143555	
56	247.3302938938141	pulse	1	t		54.0	2.5	/experiments/knapen_AOT/AOT_stimuli/rescaled_final/0431_fw.mp4	0.0	274.0320599079132	
56	247.44515180587769	fix_post	2		12	54.0	2.5	/experiments/knapen_AOT/AOT_stimuli/rescaled_final/0431_fw.mp4	0.0	274.1469178199768	0.10011911392211914
57	247.5452709197998	fix_pre	0		120	55.0	2.5	blank	1.0	274.2470369338989	1.0000720024108887
57	248.5453429222107	movie	1		299	55.0	2.5	blank	1.0	275.2471089363098	2.492060899734497
57	248.92139387130737	pulse	1	t		55.0	2.5	blank	1.0	275.6231598854065	
57	250.52086687088013	pulse	1	t		55.0	2.5	blank	1.0	277.22263288497925	
57	251.0374038219452	fix_post	2		12	55.0	2.5	blank	1.0	277.7391698360443	0.09995508193969727
58	251.1373589038849	fix_pre	0		119	56.0	2.5	/experiments/knapen_AOT/AOT_stimuli/rescaled_final/0324_fw.mp4	0.0	277.839124917984	0.9919300079345703
58	252.12098789215088	pulse	0	t		56.0	2.5	/experiments/knapen_AOT/AOT_stimuli/rescaled_final/0324_fw.mp4	0.0	278.82275390625	
58	252.12928891181946	movie	1		245	56.0	2.5	/experiments/knapen_AOT/AOT_stimuli/rescaled_final/0324_fw.mp4	0.0	278.8310549259186	2.508635997772217
58	253.72166800498962	pulse	1	t		56.0	2.5	/experiments/knapen_AOT/AOT_stimuli/rescaled_final/0324_fw.mp4	0.0	280.42343401908875	
58	254.63792490959167	fix_post	2		12	56.0	2.5	/experiments/knapen_AOT/AOT_stimuli/rescaled_final/0324_fw.mp4	0.0	281.3396909236908	0.09999203681945801
59	254.73791694641113	fix_pre	0		120	57.0	2.5	/experiments/knapen_AOT/AOT_stimuli/rescaled_final/0191_fw.mp4	0.0	281.43968296051025	1.000133991241455
59	255.32166290283203	pulse	0	t		57.0	2.5	/experiments/knapen_AOT/AOT_stimuli/rescaled_final/0191_fw.mp4	0.0	282.02342891693115	
59	255.7380509376526	movie	1		245	57.0	2.5	/experiments/knapen_AOT/AOT_stimuli/rescaled_final/0191_fw.mp4	0.0	282.4398169517517	2.5004019737243652
59	256.9218738079071	pulse	1	t		57.0	2.5	/experiments/knapen_AOT/AOT_stimuli/rescaled_final/0191_fw.mp4	0.0	283.6236398220062	
59	258.23845291137695	fix_post	2		12	57.0	2.5	/experiments/knapen_AOT/AOT_stimuli/rescaled_final/0191_fw.mp4	0.0	284.9402189254761	0.1000208854675293
60	258.3384737968445	fix_pre	0		120	58.0	2.5	/experiments/knapen_AOT/AOT_stimuli/rescaled_final/1979_rv.mp4	0.0	285.0402398109436	1.0001320838928223
60	258.5219919681549	pulse	0	t		58.0	2.5	/experiments/knapen_AOT/AOT_stimuli/rescaled_final/1979_rv.mp4	0.0	285.223757982254	
60	259.3386058807373	movie	1		242	58.0	2.5	/experiments/knapen_AOT/AOT_stimuli/rescaled_final/1979_rv.mp4	0.0	286.0403718948364	2.5003719329833984
60	260.12223196029663	pulse	1	t		58.0	2.5	/experiments/knapen_AOT/AOT_stimuli/rescaled_final/1979_rv.mp4	0.0	286.82399797439575	
60	261.72256994247437	pulse	1	t		58.0	2.5	/experiments/knapen_AOT/AOT_stimuli/rescaled_final/1979_rv.mp4	0.0	288.4243359565735	
60	261.8389778137207	fix_post	2		12	58.0	2.5	/experiments/knapen_AOT/AOT_stimuli/rescaled_final/1979_rv.mp4	0.0	288.5407438278198	0.09999203681945801
61	261.93896985054016	fix_pre	0		120	59.0	2.5	/experiments/knapen_AOT/AOT_stimuli/rescaled_final/0308_rv.mp4	0.0	288.6407358646393	1.0001630783081055
61	262.93913292884827	movie	1		243	59.0	2.5	/experiments/knapen_AOT/AOT_stimuli/rescaled_final/0308_rv.mp4	0.0	289.6408989429474	2.4920530319213867
61	263.3233599662781	pulse	1	t		59.0	2.5	/experiments/knapen_AOT/AOT_stimuli/rescaled_final/0308_rv.mp4	0.0	290.0251259803772	
61	264.9229209423065	pulse	1	t		59.0	2.5	/experiments/knapen_AOT/AOT_stimuli/rescaled_final/0308_rv.mp4	0.0	291.62468695640564	
61	265.43118596076965	fix_post	2		12	59.0	2.5	/experiments/knapen_AOT/AOT_stimuli/rescaled_final/0308_rv.mp4	0.0	292.1329519748688	0.10000300407409668
62	265.53118896484375	fix_pre	0		120	60.0	2.5	/experiments/knapen_AOT/AOT_stimuli/rescaled_final/0324_rv.mp4	0.0	292.23295497894287	1.0001649856567383
62	266.5231409072876	pulse	0	t		60.0	2.5	/experiments/knapen_AOT/AOT_stimuli/rescaled_final/0324_rv.mp4	0.0	293.2249069213867	
62	266.5313539505005	movie	1		245	60.0	2.5	/experiments/knapen_AOT/AOT_stimuli/rescaled_final/0324_rv.mp4	0.0	293.2331199645996	2.5086910724639893
62	268.1239719390869	pulse	1	t		60.0	2.5	/experiments/knapen_AOT/AOT_stimuli/rescaled_final/0324_rv.mp4	0.0	294.82573795318604	
62	269.0400450229645	fix_post	2		12	60.0	2.5	/experiments/knapen_AOT/AOT_stimuli/rescaled_final/0324_rv.mp4	0.0	295.7418110370636	0.10000491142272949
63	269.1400499343872	fix_pre	0		120	61.0	2.5	/experiments/knapen_AOT/AOT_stimuli/rescaled_final/0980_rv.mp4	0.0	295.8418159484863	1.0001819133758545
63	269.7236969470978	pulse	0	t		61.0	2.5	/experiments/knapen_AOT/AOT_stimuli/rescaled_final/0980_rv.mp4	0.0	296.4254629611969	
63	270.14023184776306	movie	1		243	61.0	2.5	/experiments/knapen_AOT/AOT_stimuli/rescaled_final/0980_rv.mp4	0.0	296.8419978618622	2.5003819465637207
63	271.32406783103943	pulse	1	t		61.0	2.5	/experiments/knapen_AOT/AOT_stimuli/rescaled_final/0980_rv.mp4	0.0	298.02583384513855	
63	272.6406137943268	fix_post	2		12	61.0	2.5	/experiments/knapen_AOT/AOT_stimuli/rescaled_final/0980_rv.mp4	0.0	299.3423798084259	0.09998703002929688
64	272.7406008243561	fix_pre	0		120	62.0	2.5	blank	1.0	299.4423668384552	1.0001671314239502
64	272.92421889305115	pulse	0	t		62.0	2.5	blank	1.0	299.62598490715027	
64	273.74076795578003	movie	1		300	62.0	2.5	blank	1.0	300.44253396987915	2.5003650188446045
64	274.5244188308716	pulse	1	t		62.0	2.5	blank	1.0	301.2261848449707	
64	276.12467885017395	pulse	1	t		62.0	2.5	blank	1.0	302.82644486427307	
64	276.24113297462463	fix_post	2		12	62.0	2.5	blank	1.0	302.94289898872375	0.10001683235168457
65	276.3411498069763	fix_pre	0		120	63.0	2.5	/experiments/knapen_AOT/AOT_stimuli/rescaled_final/0495_fw.mp4	0.0	303.04291582107544	1.0001580715179443
65	277.34130787849426	movie	1		244	63.0	2.5	/experiments/knapen_AOT/AOT_stimuli/rescaled_final/0495_fw.mp4	0.0	304.0430738925934	2.4920520782470703
65	277.72634387016296	pulse	1	t		63.0	2.5	/experiments/knapen_AOT/AOT_stimuli/rescaled_final/0495_fw.mp4	0.0	304.4281098842621	
65	279.325248003006	pulse	1	t		63.0	2.5	/experiments/knapen_AOT/AOT_stimuli/rescaled_final/0495_fw.mp4	0.0	306.0270140171051	
65	279.83335995674133	fix_post	2		12	63.0	2.5	/experiments/knapen_AOT/AOT_stimuli/rescaled_final/0495_fw.mp4	0.0	306.53512597084045	0.10000491142272949
66	279.93336486816406	fix_pre	0		120	64.0	2.5	/experiments/knapen_AOT/AOT_stimuli/rescaled_final/2067_rv.mp4	0.0	306.6351308822632	1.000133991241455
66	280.9253649711609	pulse	0	t		64.0	2.5	/experiments/knapen_AOT/AOT_stimuli/rescaled_final/2067_rv.mp4	0.0	307.62713098526	
66	280.9334988594055	movie	1		246	64.0	2.5	/experiments/knapen_AOT/AOT_stimuli/rescaled_final/2067_rv.mp4	0.0	307.63526487350464	2.5087010860443115
66	282.5263919830322	pulse	1	t		64.0	2.5	/experiments/knapen_AOT/AOT_stimuli/rescaled_final/2067_rv.mp4	0.0	309.22815799713135	
66	283.44219994544983	fix_post	2		12	64.0	2.5	/experiments/knapen_AOT/AOT_stimuli/rescaled_final/2067_rv.mp4	0.0	310.14396595954895	0.10000991821289062
67	283.5422098636627	fix_pre	0		120	65.0	2.5	/experiments/knapen_AOT/AOT_stimuli/rescaled_final/2038_rv.mp4	0.0	310.24397587776184	1.0001721382141113
67	284.1259310245514	pulse	0	t		65.0	2.5	/experiments/knapen_AOT/AOT_stimuli/rescaled_final/2038_rv.mp4	0.0	310.8276970386505	
67	284.54238200187683	movie	1		247	65.0	2.5	/experiments/knapen_AOT/AOT_stimuli/rescaled_final/2038_rv.mp4	0.0	311.24414801597595	2.5003609657287598
67	285.7261209487915	pulse	1	t		65.0	2.5	/experiments/knapen_AOT/AOT_stimuli/rescaled_final/2038_rv.mp4	0.0	312.4278869628906	
67	287.0427429676056	fix_post	2		12	65.0	2.5	/experiments/knapen_AOT/AOT_stimuli/rescaled_final/2038_rv.mp4	0.0	313.7445089817047	0.10001492500305176
68	287.14275789260864	fix_pre	0		120	66.0	2.5	/experiments/knapen_AOT/AOT_stimuli/rescaled_final/1759_fw.mp4	0.0	313.84452390670776	1.0001599788665771
68	287.3263599872589	pulse	0	t		66.0	2.5	/experiments/knapen_AOT/AOT_stimuli/rescaled_final/1759_fw.mp4	0.0	314.02812600135803	
68	288.1429178714752	movie	1		244	66.0	2.5	/experiments/knapen_AOT/AOT_stimuli/rescaled_final/1759_fw.mp4	0.0	314.84468388557434	2.5003740787506104
68	288.9265089035034	pulse	1	t		66.0	2.5	/experiments/knapen_AOT/AOT_stimuli/rescaled_final/1759_fw.mp4	0.0	315.62827491760254	
68	290.52677392959595	pulse	1	t		66.0	2.5	/experiments/knapen_AOT/AOT_stimuli/rescaled_final/1759_fw.mp4	0.0	317.22853994369507	
68	290.64329195022583	fix_post	2		12	66.0	2.5	/experiments/knapen_AOT/AOT_stimuli/rescaled_final/1759_fw.mp4	0.0	317.34505796432495	0.09998393058776855
69	290.7432758808136	fix_pre	0		120	67.0	2.5	/experiments/knapen_AOT/AOT_stimuli/rescaled_final/0802_rv.mp4	0.0	317.4450418949127	1.0002031326293945
69	291.743479013443	movie	1		244	67.0	2.5	/experiments/knapen_AOT/AOT_stimuli/rescaled_final/0802_rv.mp4	0.0	318.4452450275421	2.492015838623047
69	292.12775897979736	pulse	1	t		67.0	2.5	/experiments/knapen_AOT/AOT_stimuli/rescaled_final/0802_rv.mp4	0.0	318.8295249938965	
69	293.72723293304443	pulse	1	t		67.0	2.5	/experiments/knapen_AOT/AOT_stimuli/rescaled_final/0802_rv.mp4	0.0	320.42899894714355	
69	294.23549485206604	fix_post	2		12	67.0	2.5	/experiments/knapen_AOT/AOT_stimuli/rescaled_final/0802_rv.mp4	0.0	320.93726086616516	0.10000300407409668
70	294.33549785614014	fix_pre	0		120	68.0	2.5	/experiments/knapen_AOT/AOT_stimuli/rescaled_final/0910_rv.mp4	0.0	321.03726387023926	1.0001540184020996
70	295.3275079727173	pulse	0	t		68.0	2.5	/experiments/knapen_AOT/AOT_stimuli/rescaled_final/0910_rv.mp4	0.0	322.0292739868164	
70	295.33565187454224	movie	1		244	68.0	2.5	/experiments/knapen_AOT/AOT_stimuli/rescaled_final/0910_rv.mp4	0.0	322.03741788864136	2.5087039470672607
70	296.9288909435272	pulse	1	t		68.0	2.5	/experiments/knapen_AOT/AOT_stimuli/rescaled_final/0910_rv.mp4	0.0	323.63065695762634	
70	297.8443558216095	fix_post	2		12	68.0	2.5	/experiments/knapen_AOT/AOT_stimuli/rescaled_final/0910_rv.mp4	0.0	324.5461218357086	0.10001206398010254
71	297.9443678855896	fix_pre	0		120	69.0	2.5	blank	1.0	324.6461338996887	1.000148057937622
71	298.5279748439789	pulse	0	t		69.0	2.5	blank	1.0	325.229740858078	
71	298.9445159435272	movie	1		300	69.0	2.5	blank	1.0	325.64628195762634	2.500385046005249
71	300.1283338069916	pulse	1	t		69.0	2.5	blank	1.0	326.8300998210907	
71	301.44490098953247	fix_post	2		12	69.0	2.5	blank	1.0	328.1466670036316	0.10004186630249023
72	301.54494285583496	fix_pre	0		120	70.0	2.5	/experiments/knapen_AOT/AOT_stimuli/rescaled_final/1983_fw.mp4	0.0	328.2467088699341	1.0001440048217773
72	301.72855496406555	pulse	0	t		70.0	2.5	/experiments/knapen_AOT/AOT_stimuli/rescaled_final/1983_fw.mp4	0.0	328.4303209781647	
72	302.54508686065674	movie	1		248	70.0	2.5	/experiments/knapen_AOT/AOT_stimuli/rescaled_final/1983_fw.mp4	0.0	329.24685287475586	2.500399112701416
72	303.3214509487152	pulse	1	t		70.0	2.5	/experiments/knapen_AOT/AOT_stimuli/rescaled_final/1983_fw.mp4	0.0	330.02321696281433	
72	304.921434879303	pulse	1	t		70.0	2.5	/experiments/knapen_AOT/AOT_stimuli/rescaled_final/1983_fw.mp4	0.0	331.6232008934021	
72	305.04548597335815	fix_post	2		12	70.0	2.5	/experiments/knapen_AOT/AOT_stimuli/rescaled_final/1983_fw.mp4	0.0	331.7472519874573	0.0999610424041748
73	305.14544701576233	fix_pre	0		119	71.0	2.5	/experiments/knapen_AOT/AOT_stimuli/rescaled_final/0843_fw.mp4	0.0	331.84721302986145	0.9918248653411865
73	306.1372718811035	movie	1		245	71.0	2.5	/experiments/knapen_AOT/AOT_stimuli/rescaled_final/0843_fw.mp4	0.0	332.83903789520264	2.500373125076294
73	306.5250418186188	pulse	1	t		71.0	2.5	/experiments/knapen_AOT/AOT_stimuli/rescaled_final/0843_fw.mp4	0.0	333.2268078327179	
73	308.1220397949219	pulse	1	t		71.0	2.5	/experiments/knapen_AOT/AOT_stimuli/rescaled_final/0843_fw.mp4	0.0	334.823805809021	
73	308.6376450061798	fix_post	2		12	71.0	2.5	/experiments/knapen_AOT/AOT_stimuli/rescaled_final/0843_fw.mp4	0.0	335.33941102027893	0.09998583793640137
74	308.7376308441162	fix_pre	0		120	72.0	2.5	/experiments/knapen_AOT/AOT_stimuli/rescaled_final/0344_rv.mp4	0.0	335.43939685821533	1.00018310546875
74	309.7221269607544	pulse	0	t		72.0	2.5	/experiments/knapen_AOT/AOT_stimuli/rescaled_final/0344_rv.mp4	0.0	336.4238929748535	
74	309.73781394958496	movie	1		246	72.0	2.5	/experiments/knapen_AOT/AOT_stimuli/rescaled_final/0344_rv.mp4	0.0	336.4395799636841	2.508699893951416
74	311.3216428756714	pulse	1	t		72.0	2.5	/experiments/knapen_AOT/AOT_stimuli/rescaled_final/0344_rv.mp4	0.0	338.0234088897705	
74	312.2465138435364	fix_post	2		12	72.0	2.5	/experiments/knapen_AOT/AOT_stimuli/rescaled_final/0344_rv.mp4	0.0	338.9482798576355	0.10001802444458008
75	312.34653186798096	fix_pre	0		120	73.0	2.5	/experiments/knapen_AOT/AOT_stimuli/rescaled_final/1223_rv.mp4	0.0	339.0482978820801	1.0001411437988281
75	312.9217369556427	pulse	0	t		73.0	2.5	/experiments/knapen_AOT/AOT_stimuli/rescaled_final/1223_rv.mp4	0.0	339.6235029697418	
75	313.3466730117798	movie	1		244	73.0	2.5	/experiments/knapen_AOT/AOT_stimuli/rescaled_final/1223_rv.mp4	0.0	340.0484390258789	2.500389814376831
75	314.52320194244385	pulse	1	t		73.0	2.5	/experiments/knapen_AOT/AOT_stimuli/rescaled_final/1223_rv.mp4	0.0	341.22496795654297	
75	315.8470628261566	fix_post	2		12	73.0	2.5	/experiments/knapen_AOT/AOT_stimuli/rescaled_final/1223_rv.mp4	0.0	342.54882884025574	0.10000205039978027
76	315.9470648765564	fix_pre	0		120	74.0	2.5	/experiments/knapen_AOT/AOT_stimuli/rescaled_final/1255_rv.mp4	0.0	342.6488308906555	1.0001680850982666
76	316.1223769187927	pulse	0	t		74.0	2.5	/experiments/knapen_AOT/AOT_stimuli/rescaled_final/1255_rv.mp4	0.0	342.82414293289185	
76	316.94723296165466	movie	1		242	74.0	2.5	/experiments/knapen_AOT/AOT_stimuli/rescaled_final/1255_rv.mp4	0.0	343.6489989757538	2.492121934890747
76	317.7226359844208	pulse	1	t		74.0	2.5	/experiments/knapen_AOT/AOT_stimuli/rescaled_final/1255_rv.mp4	0.0	344.4244019985199	
76	319.3227767944336	pulse	1	t		74.0	2.5	/experiments/knapen_AOT/AOT_stimuli/rescaled_final/1255_rv.mp4	0.0	346.0245428085327	
76	319.4393548965454	fix_post	2		12	74.0	2.5	/experiments/knapen_AOT/AOT_stimuli/rescaled_final/1255_rv.mp4	0.0	346.14112091064453	0.0999751091003418
77	319.53933000564575	fix_pre	0		120	75.0	2.5	blank	1.0	346.2410960197449	1.000087022781372
77	320.5394170284271	movie	1		300	75.0	2.5	blank	1.0	347.24118304252625	2.500365972518921
77	320.92302894592285	pulse	1	t		75.0	2.5	blank	1.0	347.624794960022	
77	322.52327394485474	pulse	1	t		75.0	2.5	blank	1.0	349.22503995895386	
77	323.03978300094604	fix_post	2		12	75.0	2.5	blank	1.0	349.74154901504517	0.10001492500305176
78	323.1397979259491	fix_pre	0		119	76.0	2.5	/experiments/knapen_AOT/AOT_stimuli/rescaled_final/1612_rv.mp4	0.0	349.8415639400482	0.9918289184570312
78	324.1236038208008	pulse	0	t		76.0	2.5	/experiments/knapen_AOT/AOT_stimuli/rescaled_final/1612_rv.mp4	0.0	350.8253698348999	
78	324.1316268444061	movie	1		242	76.0	2.5	/experiments/knapen_AOT/AOT_stimuli/rescaled_final/1612_rv.mp4	0.0	350.83339285850525	2.5087859630584717
78	325.72794580459595	pulse	1	t		76.0	2.5	/experiments/knapen_AOT/AOT_stimuli/rescaled_final/1612_rv.mp4	0.0	352.42971181869507	
78	326.6404128074646	fix_post	2		12	76.0	2.5	/experiments/knapen_AOT/AOT_stimuli/rescaled_final/1612_rv.mp4	0.0	353.3421788215637	0.09993720054626465
79	326.74035000801086	fix_pre	0		120	77.0	2.5	/experiments/knapen_AOT/AOT_stimuli/rescaled_final/1426_fw.mp4	0.0	353.44211602211	1.0001490116119385
79	327.32392287254333	pulse	0	t		77.0	2.5	/experiments/knapen_AOT/AOT_stimuli/rescaled_final/1426_fw.mp4	0.0	354.02568888664246	
79	327.7404990196228	movie	1		247	77.0	2.5	/experiments/knapen_AOT/AOT_stimuli/rescaled_final/1426_fw.mp4	0.0	354.4422650337219	2.5003509521484375
79	328.924329996109	pulse	1	t		77.0	2.5	/experiments/knapen_AOT/AOT_stimuli/rescaled_final/1426_fw.mp4	0.0	355.62609601020813	
79	330.24084997177124	fix_post	2		12	77.0	2.5	/experiments/knapen_AOT/AOT_stimuli/rescaled_final/1426_fw.mp4	0.0	356.94261598587036	0.10001301765441895
80	330.34086298942566	fix_pre	0		120	78.0	2.5	/experiments/knapen_AOT/AOT_stimuli/rescaled_final/2089_fw.mp4	0.0	357.0426290035248	1.0001578330993652
80	330.5245769023895	pulse	0	t		78.0	2.5	/experiments/knapen_AOT/AOT_stimuli/rescaled_final/2089_fw.mp4	0.0	357.22634291648865	
80	331.341020822525	movie	1		244	78.0	2.5	/experiments/knapen_AOT/AOT_stimuli/rescaled_final/2089_fw.mp4	0.0	358.04278683662415	2.50040602684021
80	332.12472581863403	pulse	1	t		78.0	2.5	/experiments/knapen_AOT/AOT_stimuli/rescaled_final/2089_fw.mp4	0.0	358.82649183273315	
80	333.72503685951233	pulse	1	t		78.0	2.5	/experiments/knapen_AOT/AOT_stimuli/rescaled_final/2089_fw.mp4	0.0	360.42680287361145	
80	333.84142684936523	fix_post	2		12	78.0	2.5	/experiments/knapen_AOT/AOT_stimuli/rescaled_final/2089_fw.mp4	0.0	360.54319286346436	0.10001611709594727
81	333.9414429664612	fix_pre	0		120	79.0	2.5	/experiments/knapen_AOT/AOT_stimuli/rescaled_final/1103_fw.mp4	0.0	360.6432089805603	1.0001449584960938
81	334.9415879249573	movie	1		243	79.0	2.5	/experiments/knapen_AOT/AOT_stimuli/rescaled_final/1103_fw.mp4	0.0	361.6433539390564	2.492034912109375
81	335.32552886009216	pulse	1	t		79.0	2.5	/experiments/knapen_AOT/AOT_stimuli/rescaled_final/1103_fw.mp4	0.0	362.0272948741913	
81	336.9255259037018	pulse	1	t		79.0	2.5	/experiments/knapen_AOT/AOT_stimuli/rescaled_final/1103_fw.mp4	0.0	363.6272919178009	
81	337.43362283706665	fix_post	2		12	79.0	2.5	/experiments/knapen_AOT/AOT_stimuli/rescaled_final/1103_fw.mp4	0.0	364.13538885116577	0.09998512268066406
82	337.5336079597473	fix_pre	0		120	80.0	2.5	/experiments/knapen_AOT/AOT_stimuli/rescaled_final/1710_rv.mp4	0.0	364.23537397384644	1.0001559257507324
82	338.5256760120392	pulse	0	t		80.0	2.5	/experiments/knapen_AOT/AOT_stimuli/rescaled_final/1710_rv.mp4	0.0	365.2274420261383	
82	338.53376388549805	movie	1		247	80.0	2.5	/experiments/knapen_AOT/AOT_stimuli/rescaled_final/1710_rv.mp4	0.0	365.23552989959717	2.508734941482544
82	340.1265218257904	pulse	1	t		80.0	2.5	/experiments/knapen_AOT/AOT_stimuli/rescaled_final/1710_rv.mp4	0.0	366.8282878398895	
82	341.0424988269806	fix_post	2		12	80.0	2.5	/experiments/knapen_AOT/AOT_stimuli/rescaled_final/1710_rv.mp4	0.0	367.7442648410797	0.10001516342163086
83	341.1425139904022	fix_pre	0		120	81.0	2.5	/experiments/knapen_AOT/AOT_stimuli/rescaled_final/1485_fw.mp4	0.0	367.84428000450134	1.0001308917999268
83	341.7261338233948	pulse	0	t		81.0	2.5	/experiments/knapen_AOT/AOT_stimuli/rescaled_final/1485_fw.mp4	0.0	368.4278998374939	
83	342.14264488220215	movie	1		245	81.0	2.5	/experiments/knapen_AOT/AOT_stimuli/rescaled_final/1485_fw.mp4	0.0	368.84441089630127	2.500330924987793
83	343.3264570236206	pulse	1	t		81.0	2.5	/experiments/knapen_AOT/AOT_stimuli/rescaled_final/1485_fw.mp4	0.0	370.0282230377197	
83	344.64297580718994	fix_post	2		12	81.0	2.5	/experiments/knapen_AOT/AOT_stimuli/rescaled_final/1485_fw.mp4	0.0	371.34474182128906	0.10009121894836426
84	344.7430670261383	fix_pre	0		120	82.0	2.5	/experiments/knapen_AOT/AOT_stimuli/rescaled_final/2067_fw.mp4	0.0	371.4448330402374	1.0001368522644043
84	344.92663383483887	pulse	0	t		82.0	2.5	/experiments/knapen_AOT/AOT_stimuli/rescaled_final/2067_fw.mp4	0.0	371.628399848938	
84	345.7432038784027	movie	1		251	82.0	2.5	/experiments/knapen_AOT/AOT_stimuli/rescaled_final/2067_fw.mp4	0.0	372.44496989250183	2.500369071960449
84	346.5267758369446	pulse	1	t		82.0	2.5	/experiments/knapen_AOT/AOT_stimuli/rescaled_final/2067_fw.mp4	0.0	373.2285418510437	
84	348.12704586982727	pulse	1	t		82.0	2.5	/experiments/knapen_AOT/AOT_stimuli/rescaled_final/2067_fw.mp4	0.0	374.8288118839264	
84	348.24357295036316	fix_post	2		12	82.0	2.5	/experiments/knapen_AOT/AOT_stimuli/rescaled_final/2067_fw.mp4	0.0	374.9453389644623	0.09997701644897461
85	348.34354996681213	fix_pre	0		120	83.0	2.5	blank	1.0	375.04531598091125	1.000152826309204
85	349.34370279312134	movie	1		299	83.0	2.5	blank	1.0	376.04546880722046	2.4920780658721924
85	349.72733187675476	pulse	1	t		83.0	2.5	blank	1.0	376.4290978908539	
85	351.3275718688965	pulse	1	t		83.0	2.5	blank	1.0	378.0293378829956	
85	351.83578085899353	fix_post	2		12	83.0	2.5	blank	1.0	378.53754687309265	0.09997296333312988
87	351.93575382232666	stim	0		1716					378.6375198364258	14.302213191986084
87	352.9278128147125	pulse	0	t						379.62957882881165	
87	354.52809286117554	pulse	0	t						381.22985887527466	
87	356.12086486816406	pulse	0	t						382.8226308822632	
87	357.7211308479309	pulse	0	t						384.42289686203003	
87	359.32136487960815	pulse	0	t						386.0231308937073	
87	360.92161297798157	pulse	0	t						387.6233789920807	
87	362.5218229293823	pulse	0	t						389.22358894348145	
87	364.12104082107544	pulse	0	t						390.82280683517456	
87	365.72123980522156	pulse	0	t						392.4230058193207	
