trial_nr	onset	event_type	phase	response	nr_frames	movie_index	movie_duration	movie_file	blank	onset_abs	duration
0	0.1499650478363037	stim	0		12					20.117820978164673	0.09995603561401367
0	0.24201703071594238	response	0	space						20.20987296104431	
1	0.24992108345031738	stim	0		4770					20.217777013778687	39.74982500076294
1	39.99275493621826	pulse	0	t						59.96061086654663	
1	39.99974608421326	stim	1		1717					59.967602014541626	14.308290004730225
1	41.59153509140015	pulse	1	t						61.559391021728516	
1	43.1916880607605	pulse	1	t						63.15954399108887	
1	44.79155397415161	pulse	1	t						64.75940990447998	
1	46.391108989715576	pulse	1	t						66.35896492004395	
1	47.991678953170776	pulse	1	t						67.95953488349915	
1	49.591583013534546	pulse	1	t						69.55943894386292	
1	51.19157290458679	pulse	1	t						71.15942883491516	
1	52.79142904281616	pulse	1	t						72.75928497314453	
2	54.30803608894348	fix_pre	0		11	0.0	2.5	/experiments/AOT/AOT_stimuli/rescaled_final/1913_fw.mp4	0.0	74.27589201927185	0.09169888496398926
2	54.391525983810425	pulse	0	t		0.0	2.5	/experiments/AOT/AOT_stimuli/rescaled_final/1913_fw.mp4	0.0	74.3593819141388	
2	54.39973497390747	movie	1		244	0.0	2.5	/experiments/AOT/AOT_stimuli/rescaled_final/1913_fw.mp4	0.0	74.36759090423584	2.5082590579986572
2	55.99158692359924	pulse	1	t		0.0	2.5	/experiments/AOT/AOT_stimuli/rescaled_final/1913_fw.mp4	0.0	75.95944285392761	
2	56.90799403190613	fix_post	2		12	0.0	2.5	/experiments/AOT/AOT_stimuli/rescaled_final/1913_fw.mp4	0.0	76.8758499622345	0.09995102882385254
3	57.00794506072998	fix_pre	0		120	1.0	2.5	/experiments/AOT/AOT_stimuli/rescaled_final/1291_fw.mp4	0.0	76.97580099105835	1.0000128746032715
3	57.59154295921326	pulse	0	t		1.0	2.5	/experiments/AOT/AOT_stimuli/rescaled_final/1291_fw.mp4	0.0	77.55939888954163	
3	58.00795793533325	movie	1		244	1.0	2.5	/experiments/AOT/AOT_stimuli/rescaled_final/1291_fw.mp4	0.0	77.97581386566162	2.5001211166381836
3	59.19149899482727	pulse	1	t		1.0	2.5	/experiments/AOT/AOT_stimuli/rescaled_final/1291_fw.mp4	0.0	79.15935492515564	
3	60.508079051971436	fix_post	2		12	1.0	2.5	/experiments/AOT/AOT_stimuli/rescaled_final/1291_fw.mp4	0.0	80.4759349822998	0.10001301765441895
4	60.608092069625854	fix_pre	0		120	2.0	2.5	/experiments/AOT/AOT_stimuli/rescaled_final/1328_rv.mp4	0.0	80.57594799995422	0.9999778270721436
4	60.791455030441284	pulse	0	t		2.0	2.5	/experiments/AOT/AOT_stimuli/rescaled_final/1328_rv.mp4	0.0	80.75931096076965	
4	61.608069896698	movie	1		246	2.0	2.5	/experiments/AOT/AOT_stimuli/rescaled_final/1328_rv.mp4	0.0	81.57592582702637	2.499526023864746
4	62.391560077667236	pulse	1	t		2.0	2.5	/experiments/AOT/AOT_stimuli/rescaled_final/1328_rv.mp4	0.0	82.3594160079956	
4	63.990350008010864	pulse	1	t		2.0	2.5	/experiments/AOT/AOT_stimuli/rescaled_final/1328_rv.mp4	0.0	83.95820593833923	
4	64.10759592056274	fix_post	2		12	2.0	2.5	/experiments/AOT/AOT_stimuli/rescaled_final/1328_rv.mp4	0.0	84.07545185089111	0.10048103332519531
5	64.20807695388794	fix_pre	0		120	3.0	2.5	/experiments/AOT/AOT_stimuli/rescaled_final/1724_rv.mp4	0.0	84.17593288421631	0.9998841285705566
5	65.2079610824585	movie	1		246	3.0	2.5	/experiments/AOT/AOT_stimuli/rescaled_final/1724_rv.mp4	0.0	85.17581701278687	2.500128984451294
5	65.59154510498047	pulse	1	t		3.0	2.5	/experiments/AOT/AOT_stimuli/rescaled_final/1724_rv.mp4	0.0	85.55940103530884	
5	67.19149994850159	pulse	1	t		3.0	2.5	/experiments/AOT/AOT_stimuli/rescaled_final/1724_rv.mp4	0.0	87.15935587882996	
5	67.70809006690979	fix_post	2		12	3.0	2.5	/experiments/AOT/AOT_stimuli/rescaled_final/1724_rv.mp4	0.0	87.67594599723816	0.09985494613647461
6	67.80794501304626	fix_pre	0		119	4.0	2.5	/experiments/AOT/AOT_stimuli/rescaled_final/1402_fw.mp4	0.0	87.77580094337463	0.991718053817749
6	68.79151606559753	pulse	0	t		4.0	2.5	/experiments/AOT/AOT_stimuli/rescaled_final/1402_fw.mp4	0.0	88.7593719959259	
6	68.79966306686401	movie	1		244	4.0	2.5	/experiments/AOT/AOT_stimuli/rescaled_final/1402_fw.mp4	0.0	88.76751899719238	2.507877826690674
6	70.39121699333191	pulse	1	t		4.0	2.5	/experiments/AOT/AOT_stimuli/rescaled_final/1402_fw.mp4	0.0	90.35907292366028	
6	71.30754089355469	fix_post	2		12	4.0	2.5	/experiments/AOT/AOT_stimuli/rescaled_final/1402_fw.mp4	0.0	91.27539682388306	0.10048103332519531
7	71.40802192687988	fix_pre	0		120	5.0	2.5	/experiments/AOT/AOT_stimuli/rescaled_final/0357_rv.mp4	0.0	91.37587785720825	0.999873161315918
7	71.9914300441742	pulse	0	t		5.0	2.5	/experiments/AOT/AOT_stimuli/rescaled_final/0357_rv.mp4	0.0	91.95928597450256	
7	72.4078950881958	movie	1		244	5.0	2.5	/experiments/AOT/AOT_stimuli/rescaled_final/0357_rv.mp4	0.0	92.37575101852417	2.5001089572906494
7	73.59150505065918	pulse	1	t		5.0	2.5	/experiments/AOT/AOT_stimuli/rescaled_final/0357_rv.mp4	0.0	93.55936098098755	
7	74.90800404548645	fix_post	2		12	5.0	2.5	/experiments/AOT/AOT_stimuli/rescaled_final/0357_rv.mp4	0.0	94.87585997581482	0.0996098518371582
8	75.00761389732361	fix_pre	0		120	6.0	2.5	/experiments/AOT/AOT_stimuli/rescaled_final/2061_rv.mp4	0.0	94.97546982765198	1.0004801750183105
8	75.19145894050598	pulse	0	t		6.0	2.5	/experiments/AOT/AOT_stimuli/rescaled_final/2061_rv.mp4	0.0	95.15931487083435	
8	76.00809407234192	movie	1		241	6.0	2.5	/experiments/AOT/AOT_stimuli/rescaled_final/2061_rv.mp4	0.0	95.97595000267029	2.4998838901519775
8	76.79146194458008	pulse	1	t		6.0	2.5	/experiments/AOT/AOT_stimuli/rescaled_final/2061_rv.mp4	0.0	96.75931787490845	
8	78.38985204696655	pulse	1	t		6.0	2.5	/experiments/AOT/AOT_stimuli/rescaled_final/2061_rv.mp4	0.0	98.35770797729492	
8	78.5079779624939	fix_post	2		12	6.0	2.5	/experiments/AOT/AOT_stimuli/rescaled_final/2061_rv.mp4	0.0	98.47583389282227	0.0999290943145752
9	78.60790705680847	fix_pre	0		120	7.0	2.5	blank	1.0	98.57576298713684	0.9999949932098389
9	79.60790205001831	movie	1		300	7.0	2.5	blank	1.0	99.57575798034668	2.5003738403320312
9	79.99145293235779	pulse	1	t		7.0	2.5	blank	1.0	99.95930886268616	
9	81.5910210609436	pulse	1	t		7.0	2.5	blank	1.0	101.55887699127197	
9	82.10827589035034	fix_post	2		12	7.0	2.5	blank	1.0	102.07613182067871	0.09939908981323242
10	82.20767498016357	fix_pre	0		119	8.0	2.5	/experiments/AOT/AOT_stimuli/rescaled_final/0248_fw.mp4	0.0	102.17553091049194	0.9921009540557861
10	83.19125699996948	pulse	0	t		8.0	2.5	/experiments/AOT/AOT_stimuli/rescaled_final/0248_fw.mp4	0.0	103.15911293029785	
10	83.19977593421936	movie	1		246	8.0	2.5	/experiments/AOT/AOT_stimuli/rescaled_final/0248_fw.mp4	0.0	103.16763186454773	2.5077221393585205
10	84.79268288612366	pulse	1	t		8.0	2.5	/experiments/AOT/AOT_stimuli/rescaled_final/0248_fw.mp4	0.0	104.76053881645203	
10	85.70749807357788	fix_post	2		12	8.0	2.5	/experiments/AOT/AOT_stimuli/rescaled_final/0248_fw.mp4	0.0	105.67535400390625	0.10041189193725586
11	85.80790996551514	fix_pre	0		120	9.0	2.5	/experiments/AOT/AOT_stimuli/rescaled_final/0400_fw.mp4	0.0	105.7757658958435	1.0000190734863281
11	86.39146304130554	pulse	0	t		9.0	2.5	/experiments/AOT/AOT_stimuli/rescaled_final/0400_fw.mp4	0.0	106.35931897163391	
11	86.80792903900146	movie	1		247	9.0	2.5	/experiments/AOT/AOT_stimuli/rescaled_final/0400_fw.mp4	0.0	106.77578496932983	2.499598979949951
11	87.99142408370972	pulse	1	t		9.0	2.5	/experiments/AOT/AOT_stimuli/rescaled_final/0400_fw.mp4	0.0	107.95928001403809	
11	89.30752801895142	fix_post	2		12	9.0	2.5	/experiments/AOT/AOT_stimuli/rescaled_final/0400_fw.mp4	0.0	109.27538394927979	0.10035991668701172
12	89.40788793563843	fix_pre	0		120	10.0	2.5	/experiments/AOT/AOT_stimuli/rescaled_final/0236_rv.mp4	0.0	109.3757438659668	0.9999921321868896
12	89.59129309654236	pulse	0	t		10.0	2.5	/experiments/AOT/AOT_stimuli/rescaled_final/0236_rv.mp4	0.0	109.55914902687073	
12	90.40788006782532	movie	1		246	10.0	2.5	/experiments/AOT/AOT_stimuli/rescaled_final/0236_rv.mp4	0.0	110.37573599815369	2.5000250339508057
12	91.19143605232239	pulse	1	t		10.0	2.5	/experiments/AOT/AOT_stimuli/rescaled_final/0236_rv.mp4	0.0	111.15929198265076	
12	92.78735494613647	pulse	1	t		10.0	2.5	/experiments/AOT/AOT_stimuli/rescaled_final/0236_rv.mp4	0.0	112.75521087646484	
12	92.90790510177612	fix_post	2		12	10.0	2.5	/experiments/AOT/AOT_stimuli/rescaled_final/0236_rv.mp4	0.0	112.87576103210449	0.09998297691345215
13	93.00788807868958	fix_pre	0		120	11.0	2.5	/experiments/AOT/AOT_stimuli/rescaled_final/0053_fw.mp4	0.0	112.97574400901794	0.9996049404144287
13	94.007493019104	movie	1		244	11.0	2.5	/experiments/AOT/AOT_stimuli/rescaled_final/0053_fw.mp4	0.0	113.97534894943237	2.5000219345092773
13	94.39111495018005	pulse	1	t		11.0	2.5	/experiments/AOT/AOT_stimuli/rescaled_final/0053_fw.mp4	0.0	114.35897088050842	
13	95.99140000343323	pulse	1	t		11.0	2.5	/experiments/AOT/AOT_stimuli/rescaled_final/0053_fw.mp4	0.0	115.9592559337616	
13	96.50751495361328	fix_post	2		12	11.0	2.5	/experiments/AOT/AOT_stimuli/rescaled_final/0053_fw.mp4	0.0	116.47537088394165	0.10035896301269531
14	96.60787391662598	fix_pre	0		119	12.0	2.5	blank	1.0	116.57572984695435	0.9916880130767822
14	97.59138894081116	pulse	0	t		12.0	2.5	blank	1.0	117.55924487113953	
14	97.59956192970276	movie	1		301	12.0	2.5	blank	1.0	117.56741786003113	2.5083820819854736
14	99.19142007827759	pulse	1	t		12.0	2.5	blank	1.0	119.15927600860596	
14	100.10794401168823	fix_post	2		12	12.0	2.5	blank	1.0	120.0757999420166	0.09994792938232422
15	100.20789194107056	fix_pre	0		120	13.0	2.5	/experiments/AOT/AOT_stimuli/rescaled_final/2039_fw.mp4	0.0	120.17574787139893	1.0000331401824951
15	100.79139494895935	pulse	0	t		13.0	2.5	/experiments/AOT/AOT_stimuli/rescaled_final/2039_fw.mp4	0.0	120.75925087928772	
15	101.20792508125305	movie	1		242	13.0	2.5	/experiments/AOT/AOT_stimuli/rescaled_final/2039_fw.mp4	0.0	121.17578101158142	2.499511957168579
15	102.39144492149353	pulse	1	t		13.0	2.5	/experiments/AOT/AOT_stimuli/rescaled_final/2039_fw.mp4	0.0	122.3593008518219	
15	103.70743703842163	fix_post	2		12	13.0	2.5	/experiments/AOT/AOT_stimuli/rescaled_final/2039_fw.mp4	0.0	123.67529296875	0.10046696662902832
16	103.80790400505066	fix_pre	0		120	14.0	2.5	/experiments/AOT/AOT_stimuli/rescaled_final/1757_rv.mp4	0.0	123.77575993537903	0.9999339580535889
16	103.99137687683105	pulse	0	t		14.0	2.5	/experiments/AOT/AOT_stimuli/rescaled_final/1757_rv.mp4	0.0	123.95923280715942	
16	104.80783796310425	movie	1		244	14.0	2.5	/experiments/AOT/AOT_stimuli/rescaled_final/1757_rv.mp4	0.0	124.77569389343262	2.4996120929718018
16	105.59137010574341	pulse	1	t		14.0	2.5	/experiments/AOT/AOT_stimuli/rescaled_final/1757_rv.mp4	0.0	125.55922603607178	
16	107.18973207473755	pulse	1	t		14.0	2.5	/experiments/AOT/AOT_stimuli/rescaled_final/1757_rv.mp4	0.0	127.15758800506592	
16	107.30745005607605	fix_post	2		12	14.0	2.5	/experiments/AOT/AOT_stimuli/rescaled_final/1757_rv.mp4	0.0	127.27530598640442	0.10038495063781738
17	107.40783500671387	fix_pre	0		120	15.0	2.5	/experiments/AOT/AOT_stimuli/rescaled_final/1427_fw.mp4	0.0	127.37569093704224	0.9999790191650391
17	108.4078140258789	movie	1		248	15.0	2.5	/experiments/AOT/AOT_stimuli/rescaled_final/1427_fw.mp4	0.0	128.37566995620728	2.4995670318603516
17	108.79131603240967	pulse	1	t		15.0	2.5	/experiments/AOT/AOT_stimuli/rescaled_final/1427_fw.mp4	0.0	128.75917196273804	
17	110.39136099815369	pulse	1	t		15.0	2.5	/experiments/AOT/AOT_stimuli/rescaled_final/1427_fw.mp4	0.0	130.35921692848206	
17	110.90738105773926	fix_post	2		12	15.0	2.5	/experiments/AOT/AOT_stimuli/rescaled_final/1427_fw.mp4	0.0	130.87523698806763	0.1000509262084961
18	111.00743198394775	fix_pre	0		119	16.0	2.5	/experiments/AOT/AOT_stimuli/rescaled_final/0163_fw.mp4	0.0	130.97528791427612	0.9921360015869141
18	111.99135708808899	pulse	0	t		16.0	2.5	/experiments/AOT/AOT_stimuli/rescaled_final/0163_fw.mp4	0.0	131.95921301841736	
18	111.99956798553467	movie	1		245	16.0	2.5	/experiments/AOT/AOT_stimuli/rescaled_final/0163_fw.mp4	0.0	131.96742391586304	2.507797956466675
18	113.5923080444336	pulse	1	t		16.0	2.5	/experiments/AOT/AOT_stimuli/rescaled_final/0163_fw.mp4	0.0	133.56016397476196	
18	114.50736594200134	fix_post	2		12	16.0	2.5	/experiments/AOT/AOT_stimuli/rescaled_final/0163_fw.mp4	0.0	134.4752218723297	0.10040903091430664
19	114.60777497291565	fix_pre	0		120	17.0	2.5	/experiments/AOT/AOT_stimuli/rescaled_final/2124_rv.mp4	0.0	134.57563090324402	1.000028133392334
19	115.19126987457275	pulse	0	t		17.0	2.5	/experiments/AOT/AOT_stimuli/rescaled_final/2124_rv.mp4	0.0	135.15912580490112	
19	115.60780310630798	movie	1		243	17.0	2.5	/experiments/AOT/AOT_stimuli/rescaled_final/2124_rv.mp4	0.0	135.57565903663635	2.5000548362731934
19	116.79138898849487	pulse	1	t		17.0	2.5	/experiments/AOT/AOT_stimuli/rescaled_final/2124_rv.mp4	0.0	136.75924491882324	
19	118.10785794258118	fix_post	2		12	17.0	2.5	/experiments/AOT/AOT_stimuli/rescaled_final/2124_rv.mp4	0.0	138.07571387290955	0.09999394416809082
20	118.20785188674927	fix_pre	0		120	18.0	2.5	/experiments/AOT/AOT_stimuli/rescaled_final/0123_fw.mp4	0.0	138.17570781707764	0.9999032020568848
20	118.39141488075256	pulse	0	t		18.0	2.5	/experiments/AOT/AOT_stimuli/rescaled_final/0123_fw.mp4	0.0	138.35927081108093	
20	119.20775508880615	movie	1		243	18.0	2.5	/experiments/AOT/AOT_stimuli/rescaled_final/0123_fw.mp4	0.0	139.17561101913452	2.5000288486480713
20	119.99127793312073	pulse	1	t		18.0	2.5	/experiments/AOT/AOT_stimuli/rescaled_final/0123_fw.mp4	0.0	139.9591338634491	
20	121.58961606025696	pulse	1	t		18.0	2.5	/experiments/AOT/AOT_stimuli/rescaled_final/0123_fw.mp4	0.0	141.55747199058533	
20	121.70778393745422	fix_post	2		12	18.0	2.5	/experiments/AOT/AOT_stimuli/rescaled_final/0123_fw.mp4	0.0	141.6756398677826	0.09995603561401367
21	121.80773997306824	fix_pre	0		120	19.0	2.5	/experiments/AOT/AOT_stimuli/rescaled_final/1654_fw.mp4	0.0	141.7755959033966	0.9999809265136719
21	122.80772089958191	movie	1		244	19.0	2.5	/experiments/AOT/AOT_stimuli/rescaled_final/1654_fw.mp4	0.0	142.77557682991028	2.500113010406494
21	123.19076204299927	pulse	1	t		19.0	2.5	/experiments/AOT/AOT_stimuli/rescaled_final/1654_fw.mp4	0.0	143.15861797332764	
21	124.79123997688293	pulse	1	t		19.0	2.5	/experiments/AOT/AOT_stimuli/rescaled_final/1654_fw.mp4	0.0	144.7590959072113	
21	125.3078339099884	fix_post	2		12	19.0	2.5	/experiments/AOT/AOT_stimuli/rescaled_final/1654_fw.mp4	0.0	145.27568984031677	0.09995317459106445
22	125.40778708457947	fix_pre	0		119	20.0	2.5	blank	1.0	145.37564301490784	0.9915568828582764
22	126.39131903648376	pulse	0	t		20.0	2.5	blank	1.0	146.35917496681213	
22	126.39934396743774	movie	1		301	20.0	2.5	blank	1.0	146.3671998977661	2.5083940029144287
22	127.99123191833496	pulse	1	t		20.0	2.5	blank	1.0	147.95908784866333	
22	128.90773797035217	fix_post	2		12	20.0	2.5	blank	1.0	148.87559390068054	0.09961390495300293
23	129.00735187530518	fix_pre	0		120	21.0	2.5	/experiments/AOT/AOT_stimuli/rescaled_final/1212_fw.mp4	0.0	148.97520780563354	1.0004291534423828
23	129.5912470817566	pulse	0	t		21.0	2.5	/experiments/AOT/AOT_stimuli/rescaled_final/1212_fw.mp4	0.0	149.55910301208496	
23	130.00778102874756	movie	1		243	21.0	2.5	/experiments/AOT/AOT_stimuli/rescaled_final/1212_fw.mp4	0.0	149.97563695907593	2.499971866607666
23	131.1912739276886	pulse	1	t		21.0	2.5	/experiments/AOT/AOT_stimuli/rescaled_final/1212_fw.mp4	0.0	151.15912985801697	
23	132.50775289535522	fix_post	2		12	21.0	2.5	/experiments/AOT/AOT_stimuli/rescaled_final/1212_fw.mp4	0.0	152.4756088256836	0.09998512268066406
24	132.6077380180359	fix_pre	0		120	22.0	2.5	/experiments/AOT/AOT_stimuli/rescaled_final/1230_rv.mp4	0.0	152.57559394836426	0.9995439052581787
24	132.7912518978119	pulse	0	t		22.0	2.5	/experiments/AOT/AOT_stimuli/rescaled_final/1230_rv.mp4	0.0	152.75910782814026	
24	133.60728192329407	movie	1		244	22.0	2.5	/experiments/AOT/AOT_stimuli/rescaled_final/1230_rv.mp4	0.0	153.57513785362244	2.5004611015319824
24	134.39122009277344	pulse	1	t		22.0	2.5	/experiments/AOT/AOT_stimuli/rescaled_final/1230_rv.mp4	0.0	154.3590760231018	
24	135.99125909805298	pulse	1	t		22.0	2.5	/experiments/AOT/AOT_stimuli/rescaled_final/1230_rv.mp4	0.0	155.95911502838135	
24	136.10774302482605	fix_post	2		12	22.0	2.5	/experiments/AOT/AOT_stimuli/rescaled_final/1230_rv.mp4	0.0	156.07559895515442	0.09958600997924805
25	136.2073290348053	fix_pre	0		120	23.0	2.5	/experiments/AOT/AOT_stimuli/rescaled_final/2053_rv.mp4	0.0	156.17518496513367	1.0
25	137.2073290348053	movie	1		245	23.0	2.5	/experiments/AOT/AOT_stimuli/rescaled_final/2053_rv.mp4	0.0	157.17518496513367	2.5007288455963135
25	137.5902500152588	pulse	1	t		23.0	2.5	/experiments/AOT/AOT_stimuli/rescaled_final/2053_rv.mp4	0.0	157.55810594558716	
25	139.19140696525574	pulse	1	t		23.0	2.5	/experiments/AOT/AOT_stimuli/rescaled_final/2053_rv.mp4	0.0	159.1592628955841	
25	139.7080578804016	fix_post	2		12	23.0	2.5	/experiments/AOT/AOT_stimuli/rescaled_final/2053_rv.mp4	0.0	159.67591381072998	0.09990715980529785
26	139.8079650402069	fix_pre	0		119	24.0	2.5	/experiments/AOT/AOT_stimuli/rescaled_final/0011_fw.mp4	0.0	159.77582097053528	0.9913499355316162
26	140.791198015213	pulse	0	t		24.0	2.5	/experiments/AOT/AOT_stimuli/rescaled_final/0011_fw.mp4	0.0	160.75905394554138	
26	140.79931497573853	movie	1		244	24.0	2.5	/experiments/AOT/AOT_stimuli/rescaled_final/0011_fw.mp4	0.0	160.7671709060669	2.5083730220794678
26	142.39105796813965	pulse	1	t		24.0	2.5	/experiments/AOT/AOT_stimuli/rescaled_final/0011_fw.mp4	0.0	162.35891389846802	
26	143.307687997818	fix_post	2		12	24.0	2.5	/experiments/AOT/AOT_stimuli/rescaled_final/0011_fw.mp4	0.0	163.27554392814636	0.10004591941833496
27	143.40773391723633	fix_pre	0		120	25.0	2.5	/experiments/AOT/AOT_stimuli/rescaled_final/0770_rv.mp4	0.0	163.3755898475647	0.9999420642852783
27	143.99119806289673	pulse	0	t		25.0	2.5	/experiments/AOT/AOT_stimuli/rescaled_final/0770_rv.mp4	0.0	163.9590539932251	
27	144.4076759815216	movie	1		243	25.0	2.5	/experiments/AOT/AOT_stimuli/rescaled_final/0770_rv.mp4	0.0	164.37553191184998	2.499990940093994
27	145.5912139415741	pulse	1	t		25.0	2.5	/experiments/AOT/AOT_stimuli/rescaled_final/0770_rv.mp4	0.0	165.55906987190247	
27	146.9076669216156	fix_post	2		12	25.0	2.5	/experiments/AOT/AOT_stimuli/rescaled_final/0770_rv.mp4	0.0	166.87552285194397	0.0995950698852539
28	147.00726199150085	fix_pre	0		120	26.0	2.5	/experiments/AOT/AOT_stimuli/rescaled_final/1508_rv.mp4	0.0	166.97511792182922	1.0003249645233154
28	147.19112992286682	pulse	0	t		26.0	2.5	/experiments/AOT/AOT_stimuli/rescaled_final/1508_rv.mp4	0.0	167.1589858531952	
28	148.00758695602417	movie	1		243	26.0	2.5	/experiments/AOT/AOT_stimuli/rescaled_final/1508_rv.mp4	0.0	167.97544288635254	2.5000369548797607
28	148.7911159992218	pulse	1	t		26.0	2.5	/experiments/AOT/AOT_stimuli/rescaled_final/1508_rv.mp4	0.0	168.75897192955017	
28	150.3893768787384	pulse	1	t		26.0	2.5	/experiments/AOT/AOT_stimuli/rescaled_final/1508_rv.mp4	0.0	170.35723280906677	
28	150.50762391090393	fix_post	2		12	26.0	2.5	/experiments/AOT/AOT_stimuli/rescaled_final/1508_rv.mp4	0.0	170.4754798412323	0.10002613067626953
29	150.6076500415802	fix_pre	0		120	27.0	2.5	/experiments/AOT/AOT_stimuli/rescaled_final/2143_fw.mp4	0.0	170.57550597190857	0.9999809265136719
29	151.60763096809387	movie	1		243	27.0	2.5	/experiments/AOT/AOT_stimuli/rescaled_final/2143_fw.mp4	0.0	171.57548689842224	2.4997050762176514
29	151.99075603485107	pulse	1	t		27.0	2.5	/experiments/AOT/AOT_stimuli/rescaled_final/2143_fw.mp4	0.0	171.95861196517944	
29	153.59109592437744	pulse	1	t		27.0	2.5	/experiments/AOT/AOT_stimuli/rescaled_final/2143_fw.mp4	0.0	173.5589518547058	
29	154.10733604431152	fix_post	2		12	27.0	2.5	/experiments/AOT/AOT_stimuli/rescaled_final/2143_fw.mp4	0.0	174.0751919746399	0.10027599334716797
30	154.2076120376587	fix_pre	0		119	28.0	2.5	blank	1.0	174.17546796798706	0.9916250705718994
30	155.191143989563	pulse	0	t		28.0	2.5	blank	1.0	175.15899991989136	
30	155.1992371082306	movie	1		301	28.0	2.5	blank	1.0	175.16709303855896	2.5084128379821777
30	156.79113698005676	pulse	1	t		28.0	2.5	blank	1.0	176.75899291038513	
30	157.70764994621277	fix_post	2		12	28.0	2.5	blank	1.0	177.67550587654114	0.09996199607849121
31	157.80761194229126	fix_pre	0		120	29.0	2.5	/experiments/AOT/AOT_stimuli/rescaled_final/0190_fw.mp4	0.0	177.77546787261963	0.9997010231018066
31	158.39114809036255	pulse	0	t		29.0	2.5	/experiments/AOT/AOT_stimuli/rescaled_final/0190_fw.mp4	0.0	178.35900402069092	
31	158.80731296539307	movie	1		245	29.0	2.5	/experiments/AOT/AOT_stimuli/rescaled_final/0190_fw.mp4	0.0	178.77516889572144	2.5000250339508057
31	159.99114203453064	pulse	1	t		29.0	2.5	/experiments/AOT/AOT_stimuli/rescaled_final/0190_fw.mp4	0.0	179.958997964859	
31	161.30733799934387	fix_post	2		12	29.0	2.5	/experiments/AOT/AOT_stimuli/rescaled_final/0190_fw.mp4	0.0	181.27519392967224	0.10021805763244629
32	161.40755605697632	fix_pre	0		120	30.0	2.5	/experiments/AOT/AOT_stimuli/rescaled_final/0264_fw.mp4	0.0	181.3754119873047	1.0000879764556885
32	161.5911419391632	pulse	0	t		30.0	2.5	/experiments/AOT/AOT_stimuli/rescaled_final/0264_fw.mp4	0.0	181.55899786949158	
32	162.407644033432	movie	1		243	30.0	2.5	/experiments/AOT/AOT_stimuli/rescaled_final/0264_fw.mp4	0.0	182.37549996376038	2.499500036239624
32	163.19110703468323	pulse	1	t		30.0	2.5	/experiments/AOT/AOT_stimuli/rescaled_final/0264_fw.mp4	0.0	183.1589629650116	
32	164.7893750667572	pulse	1	t		30.0	2.5	/experiments/AOT/AOT_stimuli/rescaled_final/0264_fw.mp4	0.0	184.75723099708557	
32	164.90714406967163	fix_post	2		12	30.0	2.5	/experiments/AOT/AOT_stimuli/rescaled_final/0264_fw.mp4	0.0	184.875	0.10034990310668945
33	165.00749397277832	fix_pre	0		120	31.0	2.5	/experiments/AOT/AOT_stimuli/rescaled_final/1865_rv.mp4	0.0	184.9753499031067	0.9999880790710449
33	166.00748205184937	movie	1		243	31.0	2.5	/experiments/AOT/AOT_stimuli/rescaled_final/1865_rv.mp4	0.0	185.97533798217773	2.4996659755706787
33	166.39059209823608	pulse	1	t		31.0	2.5	/experiments/AOT/AOT_stimuli/rescaled_final/1865_rv.mp4	0.0	186.35844802856445	
33	167.99105405807495	pulse	1	t		31.0	2.5	/experiments/AOT/AOT_stimuli/rescaled_final/1865_rv.mp4	0.0	187.95890998840332	
33	168.50714802742004	fix_post	2		12	31.0	2.5	/experiments/AOT/AOT_stimuli/rescaled_final/1865_rv.mp4	0.0	188.4750039577484	0.10047197341918945
34	168.60762000083923	fix_pre	0		119	32.0	2.5	/experiments/AOT/AOT_stimuli/rescaled_final/1431_fw.mp4	0.0	188.5754759311676	0.9915509223937988
34	169.59109497070312	pulse	0	t		32.0	2.5	/experiments/AOT/AOT_stimuli/rescaled_final/1431_fw.mp4	0.0	189.5589509010315	
34	169.59917092323303	movie	1		246	32.0	2.5	/experiments/AOT/AOT_stimuli/rescaled_final/1431_fw.mp4	0.0	189.5670268535614	2.508406162261963
34	171.19067788124084	pulse	1	t		32.0	2.5	/experiments/AOT/AOT_stimuli/rescaled_final/1431_fw.mp4	0.0	191.1585338115692	
34	172.107577085495	fix_post	2		12	32.0	2.5	/experiments/AOT/AOT_stimuli/rescaled_final/1431_fw.mp4	0.0	192.07543301582336	0.0999917984008789
35	172.20756888389587	fix_pre	0		120	33.0	2.5	blank	1.0	192.17542481422424	1.000087022781372
35	172.79107093811035	pulse	0	t		33.0	2.5	blank	1.0	192.75892686843872	
35	173.20765590667725	movie	1		300	33.0	2.5	blank	1.0	193.17551183700562	2.499847173690796
35	174.39102506637573	pulse	1	t		33.0	2.5	blank	1.0	194.3588809967041	
35	175.70750308036804	fix_post	2		12	33.0	2.5	blank	1.0	195.6753590106964	0.10011696815490723
36	175.80762004852295	fix_pre	0		120	34.0	2.5	/experiments/AOT/AOT_stimuli/rescaled_final/1427_rv.mp4	0.0	195.77547597885132	0.9999070167541504
36	175.9910979270935	pulse	0	t		34.0	2.5	/experiments/AOT/AOT_stimuli/rescaled_final/1427_rv.mp4	0.0	195.95895385742188	
36	176.8075270652771	movie	1		249	34.0	2.5	/experiments/AOT/AOT_stimuli/rescaled_final/1427_rv.mp4	0.0	196.77538299560547	2.4996659755706787
36	177.59100103378296	pulse	1	t		34.0	2.5	/experiments/AOT/AOT_stimuli/rescaled_final/1427_rv.mp4	0.0	197.55885696411133	
36	179.19103288650513	pulse	1	t		34.0	2.5	/experiments/AOT/AOT_stimuli/rescaled_final/1427_rv.mp4	0.0	199.1588888168335	
36	179.30719304084778	fix_post	2		12	34.0	2.5	/experiments/AOT/AOT_stimuli/rescaled_final/1427_rv.mp4	0.0	199.27504897117615	0.10027003288269043
37	179.40746307373047	fix_pre	0		120	35.0	2.5	/experiments/AOT/AOT_stimuli/rescaled_final/0053_rv.mp4	0.0	199.37531900405884	1.0001318454742432
37	180.4075949192047	movie	1		244	35.0	2.5	/experiments/AOT/AOT_stimuli/rescaled_final/0053_rv.mp4	0.0	200.37545084953308	2.499798059463501
37	180.79062795639038	pulse	1	t		35.0	2.5	/experiments/AOT/AOT_stimuli/rescaled_final/0053_rv.mp4	0.0	200.75848388671875	
37	182.39107298851013	pulse	1	t		35.0	2.5	/experiments/AOT/AOT_stimuli/rescaled_final/0053_rv.mp4	0.0	202.3589289188385	
37	182.9073929786682	fix_post	2		12	35.0	2.5	/experiments/AOT/AOT_stimuli/rescaled_final/0053_rv.mp4	0.0	202.87524890899658	0.1000370979309082
38	183.00743007659912	fix_pre	0		119	36.0	2.5	/experiments/AOT/AOT_stimuli/rescaled_final/0572_fw.mp4	0.0	202.9752860069275	0.991675853729248
38	183.99092197418213	pulse	0	t		36.0	2.5	/experiments/AOT/AOT_stimuli/rescaled_final/0572_fw.mp4	0.0	203.9587779045105	
38	183.99910593032837	movie	1		246	36.0	2.5	/experiments/AOT/AOT_stimuli/rescaled_final/0572_fw.mp4	0.0	203.96696186065674	2.508368968963623
38	185.5904130935669	pulse	1	t		36.0	2.5	/experiments/AOT/AOT_stimuli/rescaled_final/0572_fw.mp4	0.0	205.55826902389526	
38	186.507474899292	fix_post	2		12	36.0	2.5	/experiments/AOT/AOT_stimuli/rescaled_final/0572_fw.mp4	0.0	206.47533082962036	0.09999299049377441
39	186.60746788978577	fix_pre	0		120	37.0	2.5	/experiments/AOT/AOT_stimuli/rescaled_final/1834_rv.mp4	0.0	206.57532382011414	1.00006103515625
39	187.19122505187988	pulse	0	t		37.0	2.5	/experiments/AOT/AOT_stimuli/rescaled_final/1834_rv.mp4	0.0	207.15908098220825	
39	187.60752892494202	movie	1		243	37.0	2.5	/experiments/AOT/AOT_stimuli/rescaled_final/1834_rv.mp4	0.0	207.57538485527039	2.4999501705169678
39	188.79101610183716	pulse	1	t		37.0	2.5	/experiments/AOT/AOT_stimuli/rescaled_final/1834_rv.mp4	0.0	208.75887203216553	
39	190.10747909545898	fix_post	2		12	37.0	2.5	/experiments/AOT/AOT_stimuli/rescaled_final/1834_rv.mp4	0.0	210.07533502578735	0.09992194175720215
40	190.2074010372162	fix_pre	0		120	38.0	2.5	/experiments/AOT/AOT_stimuli/rescaled_final/0407_rv.mp4	0.0	210.17525696754456	1.000087022781372
40	190.39091992378235	pulse	0	t		38.0	2.5	/experiments/AOT/AOT_stimuli/rescaled_final/0407_rv.mp4	0.0	210.35877585411072	
40	191.20748805999756	movie	1		245	38.0	2.5	/experiments/AOT/AOT_stimuli/rescaled_final/0407_rv.mp4	0.0	211.17534399032593	2.4996469020843506
40	191.99094796180725	pulse	1	t		38.0	2.5	/experiments/AOT/AOT_stimuli/rescaled_final/0407_rv.mp4	0.0	211.95880389213562	
40	193.5900330543518	pulse	1	t		38.0	2.5	/experiments/AOT/AOT_stimuli/rescaled_final/0407_rv.mp4	0.0	213.55788898468018	
40	193.7071349620819	fix_post	2		12	38.0	2.5	/experiments/AOT/AOT_stimuli/rescaled_final/0407_rv.mp4	0.0	213.67499089241028	0.09994006156921387
41	193.80707502365112	fix_pre	0		120	39.0	2.5	/experiments/AOT/AOT_stimuli/rescaled_final/0693_rv.mp4	0.0	213.7749309539795	1.0005650520324707
41	194.8076400756836	movie	1		243	39.0	2.5	/experiments/AOT/AOT_stimuli/rescaled_final/0693_rv.mp4	0.0	214.77549600601196	2.499392032623291
41	195.19108510017395	pulse	1	t		39.0	2.5	/experiments/AOT/AOT_stimuli/rescaled_final/0693_rv.mp4	0.0	215.15894103050232	
41	196.79096698760986	pulse	1	t		39.0	2.5	/experiments/AOT/AOT_stimuli/rescaled_final/0693_rv.mp4	0.0	216.75882291793823	
41	197.30703210830688	fix_post	2		12	39.0	2.5	/experiments/AOT/AOT_stimuli/rescaled_final/0693_rv.mp4	0.0	217.27488803863525	0.09996390342712402
42	197.406996011734	fix_pre	0		119	40.0	2.5	/experiments/AOT/AOT_stimuli/rescaled_final/1246_rv.mp4	0.0	217.37485194206238	0.9920768737792969
42	198.3908679485321	pulse	0	t		40.0	2.5	/experiments/AOT/AOT_stimuli/rescaled_final/1246_rv.mp4	0.0	218.35872387886047	
42	198.3990728855133	movie	1		247	40.0	2.5	/experiments/AOT/AOT_stimuli/rescaled_final/1246_rv.mp4	0.0	218.36692881584167	2.5079190731048584
42	199.9904990196228	pulse	1	t		40.0	2.5	/experiments/AOT/AOT_stimuli/rescaled_final/1246_rv.mp4	0.0	219.95835494995117	
42	200.90699195861816	fix_post	2		12	40.0	2.5	/experiments/AOT/AOT_stimuli/rescaled_final/1246_rv.mp4	0.0	220.87484788894653	0.10033202171325684
43	201.00732398033142	fix_pre	0		120	41.0	2.5	/experiments/AOT/AOT_stimuli/rescaled_final/0134_rv.mp4	0.0	220.9751799106598	1.0000050067901611
43	201.59084010124207	pulse	0	t		41.0	2.5	/experiments/AOT/AOT_stimuli/rescaled_final/0134_rv.mp4	0.0	221.55869603157043	
43	202.00732898712158	movie	1		244	41.0	2.5	/experiments/AOT/AOT_stimuli/rescaled_final/0134_rv.mp4	0.0	221.97518491744995	2.499994993209839
43	203.1908791065216	pulse	1	t		41.0	2.5	/experiments/AOT/AOT_stimuli/rescaled_final/0134_rv.mp4	0.0	223.15873503684998	
43	204.50732398033142	fix_post	2		12	41.0	2.5	/experiments/AOT/AOT_stimuli/rescaled_final/0134_rv.mp4	0.0	224.4751799106598	0.10004591941833496
44	204.60736989974976	fix_pre	0		120	42.0	2.5	blank	1.0	224.57522583007812	1.0000011920928955
44	204.79088807106018	pulse	0	t		42.0	2.5	blank	1.0	224.75874400138855	
44	205.60737109184265	movie	1		300	42.0	2.5	blank	1.0	225.57522702217102	2.499518871307373
44	206.39084100723267	pulse	1	t		42.0	2.5	blank	1.0	226.35869693756104	
44	207.99077987670898	pulse	1	t		42.0	2.5	blank	1.0	227.95863580703735	
44	208.10688996315002	fix_post	2		12	42.0	2.5	blank	1.0	228.0747458934784	0.10044193267822266
45	208.20733189582825	fix_pre	0		120	43.0	2.5	/experiments/AOT/AOT_stimuli/rescaled_final/0277_rv.mp4	0.0	228.17518782615662	0.9999539852142334
45	209.20728588104248	movie	1		243	43.0	2.5	/experiments/AOT/AOT_stimuli/rescaled_final/0277_rv.mp4	0.0	229.17514181137085	2.5001020431518555
45	209.5906538963318	pulse	1	t		43.0	2.5	/experiments/AOT/AOT_stimuli/rescaled_final/0277_rv.mp4	0.0	229.55850982666016	
45	211.19086599349976	pulse	1	t		43.0	2.5	/experiments/AOT/AOT_stimuli/rescaled_final/0277_rv.mp4	0.0	231.15872192382812	
45	211.70738792419434	fix_post	2		12	43.0	2.5	/experiments/AOT/AOT_stimuli/rescaled_final/0277_rv.mp4	0.0	231.6752438545227	0.09989809989929199
46	211.80728602409363	fix_pre	0		119	44.0	2.5	/experiments/AOT/AOT_stimuli/rescaled_final/0791_fw.mp4	0.0	231.775141954422	0.9916720390319824
46	212.7908580303192	pulse	0	t		44.0	2.5	/experiments/AOT/AOT_stimuli/rescaled_final/0791_fw.mp4	0.0	232.75871396064758	
46	212.7989580631256	movie	1		245	44.0	2.5	/experiments/AOT/AOT_stimuli/rescaled_final/0791_fw.mp4	0.0	232.76681399345398	2.5083348751068115
46	214.39099597930908	pulse	1	t		44.0	2.5	/experiments/AOT/AOT_stimuli/rescaled_final/0791_fw.mp4	0.0	234.35885190963745	
46	215.30729293823242	fix_post	2		12	44.0	2.5	/experiments/AOT/AOT_stimuli/rescaled_final/0791_fw.mp4	0.0	235.2751488685608	0.10003304481506348
47	215.40732598304749	fix_pre	0		120	45.0	2.5	/experiments/AOT/AOT_stimuli/rescaled_final/1025_fw.mp4	0.0	235.37518191337585	1.0000391006469727
47	215.99085307121277	pulse	0	t		45.0	2.5	/experiments/AOT/AOT_stimuli/rescaled_final/1025_fw.mp4	0.0	235.95870900154114	
47	216.40736508369446	movie	1		243	45.0	2.5	/experiments/AOT/AOT_stimuli/rescaled_final/1025_fw.mp4	0.0	236.37522101402283	2.4995598793029785
47	217.59094905853271	pulse	1	t		45.0	2.5	/experiments/AOT/AOT_stimuli/rescaled_final/1025_fw.mp4	0.0	237.55880498886108	
47	218.90692496299744	fix_post	2		12	45.0	2.5	/experiments/AOT/AOT_stimuli/rescaled_final/1025_fw.mp4	0.0	238.8747808933258	0.1005251407623291
48	219.00745010375977	fix_pre	0		120	46.0	2.5	/experiments/AOT/AOT_stimuli/rescaled_final/1485_rv.mp4	0.0	238.97530603408813	0.9998669624328613
48	219.19085001945496	pulse	0	t		46.0	2.5	/experiments/AOT/AOT_stimuli/rescaled_final/1485_rv.mp4	0.0	239.15870594978333	
48	220.00731706619263	movie	1		245	46.0	2.5	/experiments/AOT/AOT_stimuli/rescaled_final/1485_rv.mp4	0.0	239.975172996521	2.5000038146972656
48	220.79078006744385	pulse	1	t		46.0	2.5	/experiments/AOT/AOT_stimuli/rescaled_final/1485_rv.mp4	0.0	240.75863599777222	
48	222.3895070552826	pulse	1	t		46.0	2.5	/experiments/AOT/AOT_stimuli/rescaled_final/1485_rv.mp4	0.0	242.35736298561096	
48	222.5073208808899	fix_post	2		12	46.0	2.5	/experiments/AOT/AOT_stimuli/rescaled_final/1485_rv.mp4	0.0	242.47517681121826	0.09992599487304688
49	222.60724687576294	fix_pre	0		120	47.0	2.5	/experiments/AOT/AOT_stimuli/rescaled_final/0460_rv.mp4	0.0	242.5751028060913	0.9996461868286133
49	223.60689306259155	movie	1		245	47.0	2.5	/experiments/AOT/AOT_stimuli/rescaled_final/0460_rv.mp4	0.0	243.57474899291992	2.4999349117279053
49	223.9906198978424	pulse	1	t		47.0	2.5	/experiments/AOT/AOT_stimuli/rescaled_final/0460_rv.mp4	0.0	243.95847582817078	
49	225.59074306488037	pulse	1	t		47.0	2.5	/experiments/AOT/AOT_stimuli/rescaled_final/0460_rv.mp4	0.0	245.55859899520874	
49	226.10682797431946	fix_post	2		12	47.0	2.5	/experiments/AOT/AOT_stimuli/rescaled_final/0460_rv.mp4	0.0	246.07468390464783	0.10037994384765625
50	226.20720791816711	fix_pre	0		119	48.0	2.5	/experiments/AOT/AOT_stimuli/rescaled_final/1255_rv.mp4	0.0	246.17506384849548	0.9916980266571045
50	227.19077801704407	pulse	0	t		48.0	2.5	/experiments/AOT/AOT_stimuli/rescaled_final/1255_rv.mp4	0.0	247.15863394737244	
50	227.19890594482422	movie	1		246	48.0	2.5	/experiments/AOT/AOT_stimuli/rescaled_final/1255_rv.mp4	0.0	247.1667618751526	2.5083980560302734
50	228.79095792770386	pulse	1	t		48.0	2.5	/experiments/AOT/AOT_stimuli/rescaled_final/1255_rv.mp4	0.0	248.75881385803223	
50	229.7073040008545	fix_post	2		12	48.0	2.5	/experiments/AOT/AOT_stimuli/rescaled_final/1255_rv.mp4	0.0	249.67515993118286	0.09999895095825195
51	229.80730295181274	fix_pre	0		120	49.0	2.5	blank	1.0	249.7751588821411	0.999993085861206
51	230.39071607589722	pulse	0	t		49.0	2.5	blank	1.0	250.3585720062256	
51	230.80729603767395	movie	1		300	49.0	2.5	blank	1.0	250.77515196800232	2.4999430179595947
51	231.99072289466858	pulse	1	t		49.0	2.5	blank	1.0	251.95857882499695	
51	233.30723905563354	fix_post	2		12	49.0	2.5	blank	1.0	253.2750949859619	0.0999610424041748
52	233.40720009803772	fix_pre	0		120	50.0	2.5	/experiments/AOT/AOT_stimuli/rescaled_final/1039_fw.mp4	0.0	253.3750560283661	0.9999768733978271
52	233.59078407287598	pulse	0	t		50.0	2.5	/experiments/AOT/AOT_stimuli/rescaled_final/1039_fw.mp4	0.0	253.55864000320435	
52	234.40717697143555	movie	1		243	50.0	2.5	/experiments/AOT/AOT_stimuli/rescaled_final/1039_fw.mp4	0.0	254.37503290176392	2.499993085861206
52	235.1906909942627	pulse	1	t		50.0	2.5	/experiments/AOT/AOT_stimuli/rescaled_final/1039_fw.mp4	0.0	255.15854692459106	
52	236.78906393051147	pulse	1	t		50.0	2.5	/experiments/AOT/AOT_stimuli/rescaled_final/1039_fw.mp4	0.0	256.75691986083984	
52	236.90717005729675	fix_post	2		12	50.0	2.5	/experiments/AOT/AOT_stimuli/rescaled_final/1039_fw.mp4	0.0	256.8750259876251	0.10004901885986328
53	237.00721907615662	fix_pre	0		120	51.0	2.5	/experiments/AOT/AOT_stimuli/rescaled_final/0100_rv.mp4	0.0	256.975075006485	1.0000739097595215
53	238.00729298591614	movie	1		244	51.0	2.5	/experiments/AOT/AOT_stimuli/rescaled_final/0100_rv.mp4	0.0	257.9751489162445	2.499613046646118
53	238.3904640674591	pulse	1	t		51.0	2.5	/experiments/AOT/AOT_stimuli/rescaled_final/0100_rv.mp4	0.0	258.3583199977875	
53	239.99071502685547	pulse	1	t		51.0	2.5	/experiments/AOT/AOT_stimuli/rescaled_final/0100_rv.mp4	0.0	259.95857095718384	
53	240.50690603256226	fix_post	2		12	51.0	2.5	/experiments/AOT/AOT_stimuli/rescaled_final/0100_rv.mp4	0.0	260.4747619628906	0.10029387474060059
54	240.60719990730286	fix_pre	0		119	52.0	2.5	/experiments/AOT/AOT_stimuli/rescaled_final/1835_fw.mp4	0.0	260.5750558376312	0.9916629791259766
54	241.59074902534485	pulse	0	t		52.0	2.5	/experiments/AOT/AOT_stimuli/rescaled_final/1835_fw.mp4	0.0	261.5586049556732	
54	241.59886288642883	movie	1		244	52.0	2.5	/experiments/AOT/AOT_stimuli/rescaled_final/1835_fw.mp4	0.0	261.5667188167572	2.508357048034668
54	243.19039797782898	pulse	1	t		52.0	2.5	/experiments/AOT/AOT_stimuli/rescaled_final/1835_fw.mp4	0.0	263.15825390815735	
54	244.1072199344635	fix_post	2		12	52.0	2.5	/experiments/AOT/AOT_stimuli/rescaled_final/1835_fw.mp4	0.0	264.07507586479187	0.0999910831451416
55	244.20721101760864	fix_pre	0		120	53.0	2.5	/experiments/AOT/AOT_stimuli/rescaled_final/2141_fw.mp4	0.0	264.175066947937	0.9995498657226562
55	244.79085206985474	pulse	0	t		53.0	2.5	/experiments/AOT/AOT_stimuli/rescaled_final/2141_fw.mp4	0.0	264.7587080001831	
55	245.2067608833313	movie	1		244	53.0	2.5	/experiments/AOT/AOT_stimuli/rescaled_final/2141_fw.mp4	0.0	265.17461681365967	2.500411033630371
55	246.39076399803162	pulse	1	t		53.0	2.5	/experiments/AOT/AOT_stimuli/rescaled_final/2141_fw.mp4	0.0	266.35861992836	
55	247.70717191696167	fix_post	2		12	53.0	2.5	/experiments/AOT/AOT_stimuli/rescaled_final/2141_fw.mp4	0.0	267.67502784729004	0.10004305839538574
56	247.80721497535706	fix_pre	0		120	54.0	2.5	/experiments/AOT/AOT_stimuli/rescaled_final/2010_fw.mp4	0.0	267.7750709056854	0.9995551109313965
56	247.99068307876587	pulse	0	t		54.0	2.5	/experiments/AOT/AOT_stimuli/rescaled_final/2010_fw.mp4	0.0	267.95853900909424	
56	248.80677008628845	movie	1		244	54.0	2.5	/experiments/AOT/AOT_stimuli/rescaled_final/2010_fw.mp4	0.0	268.7746260166168	2.5007219314575195
56	249.59033703804016	pulse	1	t		54.0	2.5	/experiments/AOT/AOT_stimuli/rescaled_final/2010_fw.mp4	0.0	269.55819296836853	
56	251.18953490257263	pulse	1	t		54.0	2.5	/experiments/AOT/AOT_stimuli/rescaled_final/2010_fw.mp4	0.0	271.157390832901	
56	251.30749201774597	fix_post	2		12	54.0	2.5	/experiments/AOT/AOT_stimuli/rescaled_final/2010_fw.mp4	0.0	271.27534794807434	0.1000368595123291
57	251.4075288772583	fix_pre	0		120	55.0	2.5	blank	1.0	271.37538480758667	0.9992191791534424
57	252.40674805641174	movie	1		300	55.0	2.5	blank	1.0	272.3746039867401	2.5004210472106934
57	252.79064202308655	pulse	1	t		55.0	2.5	blank	1.0	272.7584979534149	
57	254.39063096046448	pulse	1	t		55.0	2.5	blank	1.0	274.35848689079285	
57	254.90716910362244	fix_post	2		12	55.0	2.5	blank	1.0	274.8750250339508	0.10003399848937988
58	255.00720310211182	fix_pre	0		119	56.0	2.5	/experiments/AOT/AOT_stimuli/rescaled_final/0864_rv.mp4	0.0	274.9750590324402	0.991649866104126
58	255.9906349182129	pulse	0	t		56.0	2.5	/experiments/AOT/AOT_stimuli/rescaled_final/0864_rv.mp4	0.0	275.95849084854126	
58	255.99885296821594	movie	1		246	56.0	2.5	/experiments/AOT/AOT_stimuli/rescaled_final/0864_rv.mp4	0.0	275.9667088985443	2.5083870887756348
58	257.59024000167847	pulse	1	t		56.0	2.5	/experiments/AOT/AOT_stimuli/rescaled_final/0864_rv.mp4	0.0	277.55809593200684	
58	258.5072400569916	fix_post	2		12	56.0	2.5	/experiments/AOT/AOT_stimuli/rescaled_final/0864_rv.mp4	0.0	278.47509598731995	0.09988999366760254
59	258.6071300506592	fix_pre	0		120	57.0	2.5	/experiments/AOT/AOT_stimuli/rescaled_final/0331_fw.mp4	0.0	278.57498598098755	1.0000369548797607
59	259.19060587882996	pulse	0	t		57.0	2.5	/experiments/AOT/AOT_stimuli/rescaled_final/0331_fw.mp4	0.0	279.1584618091583	
59	259.60716700553894	movie	1		243	57.0	2.5	/experiments/AOT/AOT_stimuli/rescaled_final/0331_fw.mp4	0.0	279.5750229358673	2.5000059604644775
59	260.7907040119171	pulse	1	t		57.0	2.5	/experiments/AOT/AOT_stimuli/rescaled_final/0331_fw.mp4	0.0	280.7585599422455	
59	262.1071729660034	fix_post	2		12	57.0	2.5	/experiments/AOT/AOT_stimuli/rescaled_final/0331_fw.mp4	0.0	282.0750288963318	0.09955000877380371
60	262.2067229747772	fix_pre	0		120	58.0	2.5	/experiments/AOT/AOT_stimuli/rescaled_final/1212_rv.mp4	0.0	282.1745789051056	1.0004279613494873
60	262.39058804512024	pulse	0	t		58.0	2.5	/experiments/AOT/AOT_stimuli/rescaled_final/1212_rv.mp4	0.0	282.3584439754486	
60	263.2071509361267	movie	1		244	58.0	2.5	/experiments/AOT/AOT_stimuli/rescaled_final/1212_rv.mp4	0.0	283.1750068664551	2.49997615814209
60	263.9905641078949	pulse	1	t		58.0	2.5	/experiments/AOT/AOT_stimuli/rescaled_final/1212_rv.mp4	0.0	283.95842003822327	
60	265.5887849330902	pulse	1	t		58.0	2.5	/experiments/AOT/AOT_stimuli/rescaled_final/1212_rv.mp4	0.0	285.5566408634186	
60	265.7071270942688	fix_post	2		12	58.0	2.5	/experiments/AOT/AOT_stimuli/rescaled_final/1212_rv.mp4	0.0	285.67498302459717	0.0999898910522461
61	265.80711698532104	fix_pre	0		120	59.0	2.5	/experiments/AOT/AOT_stimuli/rescaled_final/1989_rv.mp4	0.0	285.7749729156494	1.0000030994415283
61	266.8071200847626	movie	1		247	59.0	2.5	/experiments/AOT/AOT_stimuli/rescaled_final/1989_rv.mp4	0.0	286.77497601509094	2.499570846557617
61	267.1903429031372	pulse	1	t		59.0	2.5	/experiments/AOT/AOT_stimuli/rescaled_final/1989_rv.mp4	0.0	287.1581988334656	
61	268.790580034256	pulse	1	t		59.0	2.5	/experiments/AOT/AOT_stimuli/rescaled_final/1989_rv.mp4	0.0	288.75843596458435	
61	269.3066909313202	fix_post	2		12	59.0	2.5	/experiments/AOT/AOT_stimuli/rescaled_final/1989_rv.mp4	0.0	289.27454686164856	0.10037112236022949
62	269.4070620536804	fix_pre	0		119	60.0	2.5	/experiments/AOT/AOT_stimuli/rescaled_final/1497_rv.mp4	0.0	289.3749179840088	0.9916908740997314
62	270.3906259536743	pulse	0	t		60.0	2.5	/experiments/AOT/AOT_stimuli/rescaled_final/1497_rv.mp4	0.0	290.3584818840027	
62	270.39875292778015	movie	1		247	60.0	2.5	/experiments/AOT/AOT_stimuli/rescaled_final/1497_rv.mp4	0.0	290.3666088581085	2.5082931518554688
62	271.9902729988098	pulse	1	t		60.0	2.5	/experiments/AOT/AOT_stimuli/rescaled_final/1497_rv.mp4	0.0	291.9581289291382	
62	272.9070460796356	fix_post	2		12	60.0	2.5	/experiments/AOT/AOT_stimuli/rescaled_final/1497_rv.mp4	0.0	292.874902009964	0.09961295127868652
63	273.0066590309143	fix_pre	0		120	61.0	2.5	/experiments/AOT/AOT_stimuli/rescaled_final/1357_rv.mp4	0.0	292.9745149612427	1.000441074371338
63	273.59057903289795	pulse	0	t		61.0	2.5	/experiments/AOT/AOT_stimuli/rescaled_final/1357_rv.mp4	0.0	293.5584349632263	
63	274.00710010528564	movie	1		243	61.0	2.5	/experiments/AOT/AOT_stimuli/rescaled_final/1357_rv.mp4	0.0	293.974956035614	2.4995219707489014
63	275.1905789375305	pulse	1	t		61.0	2.5	/experiments/AOT/AOT_stimuli/rescaled_final/1357_rv.mp4	0.0	295.1584348678589	
63	276.50662207603455	fix_post	2		12	61.0	2.5	/experiments/AOT/AOT_stimuli/rescaled_final/1357_rv.mp4	0.0	296.4744780063629	0.10037589073181152
64	276.60699796676636	fix_pre	0		120	62.0	2.5	/experiments/AOT/AOT_stimuli/rescaled_final/0982_fw.mp4	0.0	296.5748538970947	1.0000801086425781
64	276.79049587249756	pulse	0	t		62.0	2.5	/experiments/AOT/AOT_stimuli/rescaled_final/0982_fw.mp4	0.0	296.7583518028259	
64	277.60707807540894	movie	1		243	62.0	2.5	/experiments/AOT/AOT_stimuli/rescaled_final/0982_fw.mp4	0.0	297.5749340057373	2.4999258518218994
64	278.3904960155487	pulse	1	t		62.0	2.5	/experiments/AOT/AOT_stimuli/rescaled_final/0982_fw.mp4	0.0	298.3583519458771	
64	279.98885703086853	pulse	1	t		62.0	2.5	/experiments/AOT/AOT_stimuli/rescaled_final/0982_fw.mp4	0.0	299.9567129611969	
64	280.10700392723083	fix_post	2		12	62.0	2.5	/experiments/AOT/AOT_stimuli/rescaled_final/0982_fw.mp4	0.0	300.0748598575592	0.10003399848937988
65	280.2070379257202	fix_pre	0		120	63.0	2.5	blank	1.0	300.1748938560486	0.9995181560516357
65	281.20655608177185	movie	1		300	63.0	2.5	blank	1.0	301.1744120121002	2.500502824783325
65	281.59056997299194	pulse	1	t		63.0	2.5	blank	1.0	301.5584259033203	
65	283.1905059814453	pulse	1	t		63.0	2.5	blank	1.0	303.1583619117737	
65	283.7070589065552	fix_post	2		12	63.0	2.5	blank	1.0	303.67491483688354	0.09990310668945312
66	283.80696201324463	fix_pre	0		119	64.0	2.5	/experiments/AOT/AOT_stimuli/rescaled_final/0330_rv.mp4	0.0	303.774817943573	0.9917218685150146
66	284.7905979156494	pulse	0	t		64.0	2.5	/experiments/AOT/AOT_stimuli/rescaled_final/0330_rv.mp4	0.0	304.7584538459778	
66	284.79868388175964	movie	1		244	64.0	2.5	/experiments/AOT/AOT_stimuli/rescaled_final/0330_rv.mp4	0.0	304.766539812088	2.5083141326904297
66	286.39026403427124	pulse	1	t		64.0	2.5	/experiments/AOT/AOT_stimuli/rescaled_final/0330_rv.mp4	0.0	306.3581199645996	
66	287.3069980144501	fix_post	2		12	64.0	2.5	/experiments/AOT/AOT_stimuli/rescaled_final/0330_rv.mp4	0.0	307.27485394477844	0.10002589225769043
67	287.40702390670776	fix_pre	0		120	65.0	2.5	/experiments/AOT/AOT_stimuli/rescaled_final/1431_fw.mp4	0.0	307.37487983703613	1.0000650882720947
67	287.99041295051575	pulse	0	t		65.0	2.5	/experiments/AOT/AOT_stimuli/rescaled_final/1431_fw.mp4	0.0	307.9582688808441	
67	288.40708899497986	movie	1		246	65.0	2.5	/experiments/AOT/AOT_stimuli/rescaled_final/1431_fw.mp4	0.0	308.3749449253082	2.499941110610962
67	289.5905849933624	pulse	1	t		65.0	2.5	/experiments/AOT/AOT_stimuli/rescaled_final/1431_fw.mp4	0.0	309.5584409236908	
67	290.9070301055908	fix_post	2		12	65.0	2.5	/experiments/AOT/AOT_stimuli/rescaled_final/1431_fw.mp4	0.0	310.8748860359192	0.10001087188720703
68	291.007040977478	fix_pre	0		120	66.0	2.5	/experiments/AOT/AOT_stimuli/rescaled_final/0459_fw.mp4	0.0	310.9748969078064	0.9999151229858398
68	291.1905219554901	pulse	0	t		66.0	2.5	/experiments/AOT/AOT_stimuli/rescaled_final/0459_fw.mp4	0.0	311.1583778858185	
68	292.00695610046387	movie	1		244	66.0	2.5	/experiments/AOT/AOT_stimuli/rescaled_final/0459_fw.mp4	0.0	311.97481203079224	2.5000507831573486
68	292.7904419898987	pulse	1	t		66.0	2.5	/experiments/AOT/AOT_stimuli/rescaled_final/0459_fw.mp4	0.0	312.75829792022705	
68	294.38924407958984	pulse	1	t		66.0	2.5	/experiments/AOT/AOT_stimuli/rescaled_final/0459_fw.mp4	0.0	314.3571000099182	
68	294.5070068836212	fix_post	2		12	66.0	2.5	/experiments/AOT/AOT_stimuli/rescaled_final/0459_fw.mp4	0.0	314.4748628139496	0.0999300479888916
69	294.6069369316101	fix_pre	0		120	67.0	2.5	/experiments/AOT/AOT_stimuli/rescaled_final/0791_rv.mp4	0.0	314.5747928619385	0.9996240139007568
69	295.60656094551086	movie	1		244	67.0	2.5	/experiments/AOT/AOT_stimuli/rescaled_final/0791_rv.mp4	0.0	315.57441687583923	2.500383138656616
69	295.9901270866394	pulse	1	t		67.0	2.5	/experiments/AOT/AOT_stimuli/rescaled_final/0791_rv.mp4	0.0	315.9579830169678	
69	297.5904059410095	pulse	1	t		67.0	2.5	/experiments/AOT/AOT_stimuli/rescaled_final/0791_rv.mp4	0.0	317.5582618713379	
69	298.1069440841675	fix_post	2		12	67.0	2.5	/experiments/AOT/AOT_stimuli/rescaled_final/0791_rv.mp4	0.0	318.07480001449585	0.10003185272216797
70	298.20697593688965	fix_pre	0		119	68.0	2.5	blank	1.0	318.174831867218	0.9916210174560547
70	299.1904079914093	pulse	0	t		68.0	2.5	blank	1.0	319.15826392173767	
70	299.1985969543457	movie	1		301	68.0	2.5	blank	1.0	319.1664528846741	2.5083229541778564
70	300.7904601097107	pulse	1	t		68.0	2.5	blank	1.0	320.75831604003906	
70	301.70691990852356	fix_post	2		12	68.0	2.5	blank	1.0	321.67477583885193	0.0996391773223877
71	301.80655908584595	fix_pre	0		120	69.0	2.5	/experiments/AOT/AOT_stimuli/rescaled_final/1744_rv.mp4	0.0	321.7744150161743	1.0004429817199707
71	302.3905200958252	pulse	0	t		69.0	2.5	/experiments/AOT/AOT_stimuli/rescaled_final/1744_rv.mp4	0.0	322.35837602615356	
71	302.8070020675659	movie	1		243	69.0	2.5	/experiments/AOT/AOT_stimuli/rescaled_final/1744_rv.mp4	0.0	322.7748579978943	2.499687910079956
71	303.99002504348755	pulse	1	t		69.0	2.5	/experiments/AOT/AOT_stimuli/rescaled_final/1744_rv.mp4	0.0	323.9578809738159	
71	305.3066899776459	fix_post	2		12	69.0	2.5	/experiments/AOT/AOT_stimuli/rescaled_final/1744_rv.mp4	0.0	325.27454590797424	0.09993195533752441
72	305.4066219329834	fix_pre	0		120	70.0	2.5	/experiments/AOT/AOT_stimuli/rescaled_final/1590_rv.mp4	0.0	325.37447786331177	1.0005030632019043
72	305.5901029109955	pulse	0	t		70.0	2.5	/experiments/AOT/AOT_stimuli/rescaled_final/1590_rv.mp4	0.0	325.55795884132385	
72	306.4071249961853	movie	1		243	70.0	2.5	/experiments/AOT/AOT_stimuli/rescaled_final/1590_rv.mp4	0.0	326.3749809265137	2.499819040298462
72	307.19033002853394	pulse	1	t		70.0	2.5	/experiments/AOT/AOT_stimuli/rescaled_final/1590_rv.mp4	0.0	327.1581859588623	
72	308.78868794441223	pulse	1	t		70.0	2.5	/experiments/AOT/AOT_stimuli/rescaled_final/1590_rv.mp4	0.0	328.7565438747406	
72	308.90694403648376	fix_post	2		12	70.0	2.5	/experiments/AOT/AOT_stimuli/rescaled_final/1590_rv.mp4	0.0	328.87479996681213	0.10012388229370117
73	309.00706791877747	fix_pre	0		120	71.0	2.5	/experiments/AOT/AOT_stimuli/rescaled_final/0040_fw.mp4	0.0	328.97492384910583	0.9998371601104736
73	310.00690507888794	movie	1		248	71.0	2.5	/experiments/AOT/AOT_stimuli/rescaled_final/0040_fw.mp4	0.0	329.9747610092163	2.499521017074585
73	310.3903648853302	pulse	1	t		71.0	2.5	/experiments/AOT/AOT_stimuli/rescaled_final/0040_fw.mp4	0.0	330.35822081565857	
73	311.9902980327606	pulse	1	t		71.0	2.5	/experiments/AOT/AOT_stimuli/rescaled_final/0040_fw.mp4	0.0	331.958153963089	
73	312.5064260959625	fix_post	2		12	71.0	2.5	/experiments/AOT/AOT_stimuli/rescaled_final/0040_fw.mp4	0.0	332.4742820262909	0.10046982765197754
74	312.6068959236145	fix_pre	0		119	72.0	2.5	/experiments/AOT/AOT_stimuli/rescaled_final/0064_fw.mp4	0.0	332.57475185394287	0.9915981292724609
74	313.5903060436249	pulse	0	t		72.0	2.5	/experiments/AOT/AOT_stimuli/rescaled_final/0064_fw.mp4	0.0	333.55816197395325	
74	313.59849405288696	movie	1		250	72.0	2.5	/experiments/AOT/AOT_stimuli/rescaled_final/0064_fw.mp4	0.0	333.56634998321533	2.5083398818969727
74	315.1898310184479	pulse	1	t		72.0	2.5	/experiments/AOT/AOT_stimuli/rescaled_final/0064_fw.mp4	0.0	335.15768694877625	
74	316.10683393478394	fix_post	2		12	72.0	2.5	/experiments/AOT/AOT_stimuli/rescaled_final/0064_fw.mp4	0.0	336.0746898651123	0.0995640754699707
75	316.2063980102539	fix_pre	0		120	73.0	2.5	/experiments/AOT/AOT_stimuli/rescaled_final/1471_fw.mp4	0.0	336.1742539405823	1.0005600452423096
75	316.790344953537	pulse	0	t		73.0	2.5	/experiments/AOT/AOT_stimuli/rescaled_final/1471_fw.mp4	0.0	336.75820088386536	
75	317.2069580554962	movie	1		244	73.0	2.5	/experiments/AOT/AOT_stimuli/rescaled_final/1471_fw.mp4	0.0	337.1748139858246	2.499868869781494
75	318.39049887657166	pulse	1	t		73.0	2.5	/experiments/AOT/AOT_stimuli/rescaled_final/1471_fw.mp4	0.0	338.3583548069	
75	319.7068269252777	fix_post	2		12	73.0	2.5	/experiments/AOT/AOT_stimuli/rescaled_final/1471_fw.mp4	0.0	339.6746828556061	0.10006594657897949
76	319.8068928718567	fix_pre	0		120	74.0	2.5	/experiments/AOT/AOT_stimuli/rescaled_final/0377_fw.mp4	0.0	339.77474880218506	0.9999451637268066
76	319.9904320240021	pulse	0	t		74.0	2.5	/experiments/AOT/AOT_stimuli/rescaled_final/0377_fw.mp4	0.0	339.95828795433044	
76	320.8068380355835	movie	1		244	74.0	2.5	/experiments/AOT/AOT_stimuli/rescaled_final/0377_fw.mp4	0.0	340.77469396591187	2.5001020431518555
76	321.5903820991516	pulse	1	t		74.0	2.5	/experiments/AOT/AOT_stimuli/rescaled_final/0377_fw.mp4	0.0	341.55823802948	
76	323.1889328956604	pulse	1	t		74.0	2.5	/experiments/AOT/AOT_stimuli/rescaled_final/0377_fw.mp4	0.0	343.15678882598877	
76	323.30694007873535	fix_post	2		12	74.0	2.5	/experiments/AOT/AOT_stimuli/rescaled_final/0377_fw.mp4	0.0	343.2747960090637	0.09986186027526855
77	323.4068019390106	fix_pre	0		120	75.0	2.5	blank	1.0	343.374657869339	0.9999780654907227
77	324.40678000450134	movie	1		300	75.0	2.5	blank	1.0	344.3746359348297	2.4996490478515625
77	324.790314912796	pulse	1	t		75.0	2.5	blank	1.0	344.7581708431244	
77	326.39039397239685	pulse	1	t		75.0	2.5	blank	1.0	346.3582499027252	
77	326.9064290523529	fix_post	2		12	75.0	2.5	blank	1.0	346.8742849826813	0.10050201416015625
78	327.00693106651306	fix_pre	0		119	76.0	2.5	/experiments/AOT/AOT_stimuli/rescaled_final/0027_rv.mp4	0.0	346.97478699684143	0.9915440082550049
78	327.9903109073639	pulse	0	t		76.0	2.5	/experiments/AOT/AOT_stimuli/rescaled_final/0027_rv.mp4	0.0	347.95816683769226	
78	327.99847507476807	movie	1		244	76.0	2.5	/experiments/AOT/AOT_stimuli/rescaled_final/0027_rv.mp4	0.0	347.96633100509644	2.5084009170532227
78	329.5904130935669	pulse	1	t		76.0	2.5	/experiments/AOT/AOT_stimuli/rescaled_final/0027_rv.mp4	0.0	349.55826902389526	
78	330.5068759918213	fix_post	2		12	76.0	2.5	/experiments/AOT/AOT_stimuli/rescaled_final/0027_rv.mp4	0.0	350.47473192214966	0.09998703002929688
79	330.6068630218506	fix_pre	0		120	77.0	2.5	/experiments/AOT/AOT_stimuli/rescaled_final/0817_rv.mp4	0.0	350.57471895217896	0.9999990463256836
79	331.1902780532837	pulse	0	t		77.0	2.5	/experiments/AOT/AOT_stimuli/rescaled_final/0817_rv.mp4	0.0	351.15813398361206	
79	331.60686206817627	movie	1		245	77.0	2.5	/experiments/AOT/AOT_stimuli/rescaled_final/0817_rv.mp4	0.0	351.57471799850464	2.4998810291290283
79	332.7902879714966	pulse	1	t		77.0	2.5	/experiments/AOT/AOT_stimuli/rescaled_final/0817_rv.mp4	0.0	352.75814390182495	
79	334.1067430973053	fix_post	2		12	77.0	2.5	/experiments/AOT/AOT_stimuli/rescaled_final/0817_rv.mp4	0.0	354.07459902763367	0.10002279281616211
80	334.20676589012146	fix_pre	0		120	78.0	2.5	/experiments/AOT/AOT_stimuli/rescaled_final/0488_rv.mp4	0.0	354.17462182044983	1.000016212463379
80	334.3902509212494	pulse	0	t		78.0	2.5	/experiments/AOT/AOT_stimuli/rescaled_final/0488_rv.mp4	0.0	354.35810685157776	
80	335.20678210258484	movie	1		245	78.0	2.5	/experiments/AOT/AOT_stimuli/rescaled_final/0488_rv.mp4	0.0	355.1746380329132	2.4999959468841553
80	335.99024200439453	pulse	1	t		78.0	2.5	/experiments/AOT/AOT_stimuli/rescaled_final/0488_rv.mp4	0.0	355.9580979347229	
80	337.5890460014343	pulse	1	t		78.0	2.5	/experiments/AOT/AOT_stimuli/rescaled_final/0488_rv.mp4	0.0	357.5569019317627	
80	337.706778049469	fix_post	2		12	78.0	2.5	/experiments/AOT/AOT_stimuli/rescaled_final/0488_rv.mp4	0.0	357.67463397979736	0.0999448299407959
81	337.8067228794098	fix_pre	0		120	79.0	2.5	/experiments/AOT/AOT_stimuli/rescaled_final/0100_fw.mp4	0.0	357.77457880973816	0.9999949932098389
81	338.80671787261963	movie	1		247	79.0	2.5	/experiments/AOT/AOT_stimuli/rescaled_final/0100_fw.mp4	0.0	358.774573802948	2.499674081802368
81	339.1899890899658	pulse	1	t		79.0	2.5	/experiments/AOT/AOT_stimuli/rescaled_final/0100_fw.mp4	0.0	359.1578450202942	
81	340.7902410030365	pulse	1	t		79.0	2.5	/experiments/AOT/AOT_stimuli/rescaled_final/0100_fw.mp4	0.0	360.75809693336487	
81	341.306391954422	fix_post	2		12	79.0	2.5	/experiments/AOT/AOT_stimuli/rescaled_final/0100_fw.mp4	0.0	361.27424788475037	0.1004021167755127
82	341.4067940711975	fix_pre	0		119	80.0	2.5	/experiments/AOT/AOT_stimuli/rescaled_final/1724_fw.mp4	0.0	361.3746500015259	0.9916379451751709
82	342.3902609348297	pulse	0	t		80.0	2.5	/experiments/AOT/AOT_stimuli/rescaled_final/1724_fw.mp4	0.0	362.3581168651581	
82	342.3984320163727	movie	1		245	80.0	2.5	/experiments/AOT/AOT_stimuli/rescaled_final/1724_fw.mp4	0.0	362.36628794670105	2.5083940029144287
82	343.9905209541321	pulse	1	t		80.0	2.5	/experiments/AOT/AOT_stimuli/rescaled_final/1724_fw.mp4	0.0	363.95837688446045	
82	344.9068260192871	fix_post	2		12	80.0	2.5	/experiments/AOT/AOT_stimuli/rescaled_final/1724_fw.mp4	0.0	364.8746819496155	0.09995198249816895
83	345.0067780017853	fix_pre	0		120	81.0	2.5	/experiments/AOT/AOT_stimuli/rescaled_final/1794_fw.mp4	0.0	364.97463393211365	1.0000770092010498
83	345.5902690887451	pulse	0	t		81.0	2.5	/experiments/AOT/AOT_stimuli/rescaled_final/1794_fw.mp4	0.0	365.5581250190735	
83	346.0068550109863	movie	1		246	81.0	2.5	/experiments/AOT/AOT_stimuli/rescaled_final/1794_fw.mp4	0.0	365.9747109413147	2.4994258880615234
83	347.1903600692749	pulse	1	t		81.0	2.5	/experiments/AOT/AOT_stimuli/rescaled_final/1794_fw.mp4	0.0	367.15821599960327	
83	348.50628089904785	fix_post	2		12	81.0	2.5	/experiments/AOT/AOT_stimuli/rescaled_final/1794_fw.mp4	0.0	368.4741368293762	0.10009598731994629
84	348.6063768863678	fix_pre	0		120	82.0	2.5	blank	1.0	368.57423281669617	1.000399112701416
84	348.79022002220154	pulse	0	t		82.0	2.5	blank	1.0	368.7580759525299	
84	349.6067759990692	movie	1		300	82.0	2.5	blank	1.0	369.5746319293976	2.4994499683380127
84	350.39022397994995	pulse	1	t		82.0	2.5	blank	1.0	370.3580799102783	
84	351.99021196365356	pulse	1	t		82.0	2.5	blank	1.0	371.95806789398193	
84	352.1062259674072	fix_post	2		12	82.0	2.5	blank	1.0	372.0740818977356	0.10016512870788574
85	352.2063910961151	fix_pre	0		120	83.0	2.5	/experiments/AOT/AOT_stimuli/rescaled_final/0469_rv.mp4	0.0	372.1742470264435	1.0002708435058594
85	353.206661939621	movie	1		243	83.0	2.5	/experiments/AOT/AOT_stimuli/rescaled_final/0469_rv.mp4	0.0	373.17451786994934	2.500030994415283
85	353.58963799476624	pulse	1	t		83.0	2.5	/experiments/AOT/AOT_stimuli/rescaled_final/0469_rv.mp4	0.0	373.5574939250946	
85	355.1901979446411	pulse	1	t		83.0	2.5	/experiments/AOT/AOT_stimuli/rescaled_final/0469_rv.mp4	0.0	375.1580538749695	
85	355.70669293403625	fix_post	2		12	83.0	2.5	/experiments/AOT/AOT_stimuli/rescaled_final/0469_rv.mp4	0.0	375.6745488643646	0.09952497482299805
87	355.80621790885925	stim	0		1716					375.7740738391876	14.300477981567383
87	356.79025888442993	pulse	0	t						376.7581148147583	
87	358.3900990486145	pulse	0	t						378.35795497894287	
87	359.98970890045166	pulse	0	t						379.95756483078003	
87	361.58994698524475	pulse	0	t						381.5578029155731	
87	363.18996810913086	pulse	0	t						383.15782403945923	
87	364.79017400741577	pulse	0	t						384.75802993774414	
87	366.39021396636963	pulse	0	t						386.358069896698	
87	367.9901440143585	pulse	0	t						387.9579999446869	
87	369.59008407592773	pulse	0	t						389.5579400062561	
