trial_nr	onset	event_type	phase	response	nr_frames	movie_index	movie_duration	movie_file	blank	onset_abs	duration
0	0.18319487571716309	stim	0		19					22.670581817626953	0.15828895568847656
0	0.3334159851074219	response	0	space						22.820802927017212	
1	0.34148383140563965	stim	0		4561					22.82887077331543	38.033467054367065
1	38.345096826553345	pulse	0	t						60.832483768463135	
1	38.374950885772705	stim	1		1716					60.862337827682495	14.299251079559326
1	39.94017291069031	pulse	1	t						62.4275598526001	
1	41.54028296470642	pulse	1	t						64.02766990661621	
1	43.139580965042114	pulse	1	t						65.6269679069519	
1	44.739835023880005	pulse	1	t						67.2272219657898	
1	46.34017586708069	pulse	1	t						68.82756280899048	
1	47.940276861190796	pulse	1	t						70.42766380310059	
1	49.54059982299805	pulse	1	t						72.02798676490784	
1	51.140830993652344	pulse	1	t						73.62821793556213	
2	52.67420196533203	fix_pre	0		9	0.0	2.5	/experiments/knapen_AOT/AOT_stimuli/rescaled_final/1129_fw.mp4	0.0	75.16158890724182	0.07502293586730957
2	52.74105095863342	pulse	0	t		0.0	2.5	/experiments/knapen_AOT/AOT_stimuli/rescaled_final/1129_fw.mp4	0.0	75.22843790054321	
2	52.74922490119934	movie	1		242	0.0	2.5	/experiments/knapen_AOT/AOT_stimuli/rescaled_final/1129_fw.mp4	0.0	75.23661184310913	2.508707046508789
2	54.34266781806946	pulse	1	t		0.0	2.5	/experiments/knapen_AOT/AOT_stimuli/rescaled_final/1129_fw.mp4	0.0	76.83005475997925	
2	55.25793194770813	fix_post	2		12	0.0	2.5	/experiments/knapen_AOT/AOT_stimuli/rescaled_final/1129_fw.mp4	0.0	77.74531888961792	0.10001397132873535
3	55.357945919036865	fix_pre	0		120	1.0	2.5	/experiments/knapen_AOT/AOT_stimuli/rescaled_final/1917_rv.mp4	0.0	77.84533286094666	1.0001499652862549
3	55.94156002998352	pulse	0	t		1.0	2.5	/experiments/knapen_AOT/AOT_stimuli/rescaled_final/1917_rv.mp4	0.0	78.42894697189331	
3	56.35809588432312	movie	1		245	1.0	2.5	/experiments/knapen_AOT/AOT_stimuli/rescaled_final/1917_rv.mp4	0.0	78.84548282623291	2.500343084335327
3	57.54188585281372	pulse	1	t		1.0	2.5	/experiments/knapen_AOT/AOT_stimuli/rescaled_final/1917_rv.mp4	0.0	80.02927279472351	
3	58.85843896865845	fix_post	2		12	1.0	2.5	/experiments/knapen_AOT/AOT_stimuli/rescaled_final/1917_rv.mp4	0.0	81.34582591056824	0.10004305839538574
4	58.95848202705383	fix_pre	0		120	2.0	2.5	/experiments/knapen_AOT/AOT_stimuli/rescaled_final/1292_rv.mp4	0.0	81.44586896896362	1.000126838684082
4	59.14220690727234	pulse	0	t		2.0	2.5	/experiments/knapen_AOT/AOT_stimuli/rescaled_final/1292_rv.mp4	0.0	81.62959384918213	
4	59.958608865737915	movie	1		244	2.0	2.5	/experiments/knapen_AOT/AOT_stimuli/rescaled_final/1292_rv.mp4	0.0	82.4459958076477	2.500370979309082
4	60.742271900177	pulse	1	t		2.0	2.5	/experiments/knapen_AOT/AOT_stimuli/rescaled_final/1292_rv.mp4	0.0	83.22965884208679	
4	62.34252381324768	pulse	1	t		2.0	2.5	/experiments/knapen_AOT/AOT_stimuli/rescaled_final/1292_rv.mp4	0.0	84.82991075515747	
4	62.458979845047	fix_post	2		12	2.0	2.5	/experiments/knapen_AOT/AOT_stimuli/rescaled_final/1292_rv.mp4	0.0	84.94636678695679	0.10002017021179199
5	62.55900001525879	fix_pre	0		120	3.0	2.5	/experiments/knapen_AOT/AOT_stimuli/rescaled_final/0251_rv.mp4	0.0	85.04638695716858	1.0001299381256104
5	63.5591299533844	movie	1		243	3.0	2.5	/experiments/knapen_AOT/AOT_stimuli/rescaled_final/0251_rv.mp4	0.0	86.04651689529419	2.4920449256896973
5	63.943081855773926	pulse	1	t		3.0	2.5	/experiments/knapen_AOT/AOT_stimuli/rescaled_final/0251_rv.mp4	0.0	86.43046879768372	
5	65.54304385185242	pulse	1	t		3.0	2.5	/experiments/knapen_AOT/AOT_stimuli/rescaled_final/0251_rv.mp4	0.0	88.0304307937622	
5	66.0511748790741	fix_post	2		12	3.0	2.5	/experiments/knapen_AOT/AOT_stimuli/rescaled_final/0251_rv.mp4	0.0	88.53856182098389	0.10006904602050781
6	66.1512439250946	fix_pre	0		120	4.0	2.5	/experiments/knapen_AOT/AOT_stimuli/rescaled_final/0707_fw.mp4	0.0	88.6386308670044	1.000114917755127
6	67.14327192306519	pulse	0	t		4.0	2.5	/experiments/knapen_AOT/AOT_stimuli/rescaled_final/0707_fw.mp4	0.0	89.63065886497498	
6	67.15135884284973	movie	1		245	4.0	2.5	/experiments/knapen_AOT/AOT_stimuli/rescaled_final/0707_fw.mp4	0.0	89.63874578475952	2.5087051391601562
6	68.74471998214722	pulse	1	t		4.0	2.5	/experiments/knapen_AOT/AOT_stimuli/rescaled_final/0707_fw.mp4	0.0	91.232106924057	
6	69.66006398200989	fix_post	2		12	4.0	2.5	/experiments/knapen_AOT/AOT_stimuli/rescaled_final/0707_fw.mp4	0.0	92.14745092391968	0.10002684593200684
7	69.7600908279419	fix_pre	0		120	5.0	2.5	/experiments/knapen_AOT/AOT_stimuli/rescaled_final/0699_rv.mp4	0.0	92.24747776985168	1.0001370906829834
7	70.34375500679016	pulse	0	t		5.0	2.5	/experiments/knapen_AOT/AOT_stimuli/rescaled_final/0699_rv.mp4	0.0	92.83114194869995	
7	70.76022791862488	movie	1		244	5.0	2.5	/experiments/knapen_AOT/AOT_stimuli/rescaled_final/0699_rv.mp4	0.0	93.24761486053467	2.500349998474121
7	71.94414186477661	pulse	1	t		5.0	2.5	/experiments/knapen_AOT/AOT_stimuli/rescaled_final/0699_rv.mp4	0.0	94.4315288066864	
7	73.260577917099	fix_post	2		12	5.0	2.5	/experiments/knapen_AOT/AOT_stimuli/rescaled_final/0699_rv.mp4	0.0	95.74796485900879	0.10008001327514648
8	73.36065793037415	fix_pre	0		120	6.0	2.5	blank	1.0	95.84804487228394	1.0001308917999268
8	73.54420280456543	pulse	0	t		6.0	2.5	blank	1.0	96.03158974647522	
8	74.36078882217407	movie	1		300	6.0	2.5	blank	1.0	96.84817576408386	2.50039005279541
8	75.144357919693	pulse	1	t		6.0	2.5	blank	1.0	97.63174486160278	
8	76.74467587471008	pulse	1	t		6.0	2.5	blank	1.0	99.23206281661987	
8	76.86117887496948	fix_post	2		12	6.0	2.5	blank	1.0	99.34856581687927	0.1000051498413086
9	76.96118402481079	fix_pre	0		119	7.0	2.5	/experiments/knapen_AOT/AOT_stimuli/rescaled_final/0671_rv.mp4	0.0	99.44857096672058	0.9917709827423096
9	77.9529550075531	movie	1		244	7.0	2.5	/experiments/knapen_AOT/AOT_stimuli/rescaled_final/0671_rv.mp4	0.0	100.44034194946289	2.5003809928894043
9	78.34505295753479	pulse	1	t		7.0	2.5	/experiments/knapen_AOT/AOT_stimuli/rescaled_final/0671_rv.mp4	0.0	100.83243989944458	
9	79.94521284103394	pulse	1	t		7.0	2.5	/experiments/knapen_AOT/AOT_stimuli/rescaled_final/0671_rv.mp4	0.0	102.43259978294373	
9	80.4533360004425	fix_post	2		12	7.0	2.5	/experiments/knapen_AOT/AOT_stimuli/rescaled_final/0671_rv.mp4	0.0	102.9407229423523	0.10003280639648438
10	80.55336880683899	fix_pre	0		120	8.0	2.5	/experiments/knapen_AOT/AOT_stimuli/rescaled_final/0379_fw.mp4	0.0	103.04075574874878	1.0001800060272217
10	81.54539585113525	pulse	0	t		8.0	2.5	/experiments/knapen_AOT/AOT_stimuli/rescaled_final/0379_fw.mp4	0.0	104.03278279304504	
10	81.55354881286621	movie	1		244	8.0	2.5	/experiments/knapen_AOT/AOT_stimuli/rescaled_final/0379_fw.mp4	0.0	104.040935754776	2.508635997772217
10	83.14609980583191	pulse	1	t		8.0	2.5	/experiments/knapen_AOT/AOT_stimuli/rescaled_final/0379_fw.mp4	0.0	105.6334867477417	
10	84.06218481063843	fix_post	2		12	8.0	2.5	/experiments/knapen_AOT/AOT_stimuli/rescaled_final/0379_fw.mp4	0.0	106.54957175254822	0.10007619857788086
11	84.16226100921631	fix_pre	0		120	9.0	2.5	/experiments/knapen_AOT/AOT_stimuli/rescaled_final/1837_rv.mp4	0.0	106.6496479511261	1.0001327991485596
11	84.74597382545471	pulse	0	t		9.0	2.5	/experiments/knapen_AOT/AOT_stimuli/rescaled_final/1837_rv.mp4	0.0	107.2333607673645	
11	85.16239380836487	movie	1		243	9.0	2.5	/experiments/knapen_AOT/AOT_stimuli/rescaled_final/1837_rv.mp4	0.0	107.64978075027466	2.500359058380127
11	86.34618902206421	pulse	1	t		9.0	2.5	/experiments/knapen_AOT/AOT_stimuli/rescaled_final/1837_rv.mp4	0.0	108.833575963974	
11	87.662752866745	fix_post	2		12	9.0	2.5	/experiments/knapen_AOT/AOT_stimuli/rescaled_final/1837_rv.mp4	0.0	110.15013980865479	0.10002613067626953
12	87.76277899742126	fix_pre	0		118	10.0	2.5	/experiments/knapen_AOT/AOT_stimuli/rescaled_final/1831_fw.mp4	0.0	110.25016593933105	1.000182867050171
12	87.94634985923767	pulse	0	t		10.0	2.5	/experiments/knapen_AOT/AOT_stimuli/rescaled_final/1831_fw.mp4	0.0	110.43373680114746	
12	88.76296186447144	movie	1		243	10.0	2.5	/experiments/knapen_AOT/AOT_stimuli/rescaled_final/1831_fw.mp4	0.0	111.25034880638123	2.500307083129883
12	89.54665398597717	pulse	1	t		10.0	2.5	/experiments/knapen_AOT/AOT_stimuli/rescaled_final/1831_fw.mp4	0.0	112.03404092788696	
12	91.14667391777039	pulse	1	t		10.0	2.5	/experiments/knapen_AOT/AOT_stimuli/rescaled_final/1831_fw.mp4	0.0	113.63406085968018	
12	91.26326894760132	fix_post	2		12	10.0	2.5	/experiments/knapen_AOT/AOT_stimuli/rescaled_final/1831_fw.mp4	0.0	113.75065588951111	0.10005998611450195
13	91.36332893371582	fix_pre	0		119	11.0	2.5	/experiments/knapen_AOT/AOT_stimuli/rescaled_final/1055_rv.mp4	0.0	113.85071587562561	0.99180006980896
13	92.35512900352478	movie	1		243	11.0	2.5	/experiments/knapen_AOT/AOT_stimuli/rescaled_final/1055_rv.mp4	0.0	114.84251594543457	2.5004358291625977
13	92.74314785003662	pulse	1	t		11.0	2.5	/experiments/knapen_AOT/AOT_stimuli/rescaled_final/1055_rv.mp4	0.0	115.23053479194641	
13	94.34736680984497	pulse	1	t		11.0	2.5	/experiments/knapen_AOT/AOT_stimuli/rescaled_final/1055_rv.mp4	0.0	116.83475375175476	
13	94.85556483268738	fix_post	2		12	11.0	2.5	/experiments/knapen_AOT/AOT_stimuli/rescaled_final/1055_rv.mp4	0.0	117.34295177459717	0.09996604919433594
14	94.95553088188171	fix_pre	0		120	12.0	2.5	blank	1.0	117.4429178237915	1.0001780986785889
14	95.94749283790588	pulse	0	t		12.0	2.5	blank	1.0	118.43487977981567	
14	95.9557089805603	movie	1		301	12.0	2.5	blank	1.0	118.44309592247009	2.5086629390716553
14	97.54029297828674	pulse	1	t		12.0	2.5	blank	1.0	120.02767992019653	
14	98.46437191963196	fix_post	2		12	12.0	2.5	blank	1.0	120.95175886154175	0.10000395774841309
15	98.56437587738037	fix_pre	0		120	13.0	2.5	/experiments/knapen_AOT/AOT_stimuli/rescaled_final/1310_fw.mp4	0.0	121.05176281929016	1.0001420974731445
15	99.14059090614319	pulse	0	t		13.0	2.5	/experiments/knapen_AOT/AOT_stimuli/rescaled_final/1310_fw.mp4	0.0	121.62797784805298	
15	99.56451797485352	movie	1		244	13.0	2.5	/experiments/knapen_AOT/AOT_stimuli/rescaled_final/1310_fw.mp4	0.0	122.0519049167633	2.5003600120544434
15	100.74031090736389	pulse	1	t		13.0	2.5	/experiments/knapen_AOT/AOT_stimuli/rescaled_final/1310_fw.mp4	0.0	123.22769784927368	
15	102.06487798690796	fix_post	2		12	13.0	2.5	/experiments/knapen_AOT/AOT_stimuli/rescaled_final/1310_fw.mp4	0.0	124.55226492881775	0.10007286071777344
16	102.16495084762573	fix_pre	0		120	14.0	2.5	/experiments/knapen_AOT/AOT_stimuli/rescaled_final/1529_fw.mp4	0.0	124.65233778953552	1.0001239776611328
16	102.34100198745728	pulse	0	t		14.0	2.5	/experiments/knapen_AOT/AOT_stimuli/rescaled_final/1529_fw.mp4	0.0	124.82838892936707	
16	103.16507482528687	movie	1		243	14.0	2.5	/experiments/knapen_AOT/AOT_stimuli/rescaled_final/1529_fw.mp4	0.0	125.65246176719666	2.5003461837768555
16	103.94051694869995	pulse	1	t		14.0	2.5	/experiments/knapen_AOT/AOT_stimuli/rescaled_final/1529_fw.mp4	0.0	126.42790389060974	
16	105.54057788848877	pulse	1	t		14.0	2.5	/experiments/knapen_AOT/AOT_stimuli/rescaled_final/1529_fw.mp4	0.0	128.02796483039856	
16	105.66542100906372	fix_post	2		12	14.0	2.5	/experiments/knapen_AOT/AOT_stimuli/rescaled_final/1529_fw.mp4	0.0	128.1528079509735	0.10003280639648438
17	105.7654538154602	fix_pre	0		119	15.0	2.5	/experiments/knapen_AOT/AOT_stimuli/rescaled_final/0044_rv.mp4	0.0	128.25284075737	0.9918069839477539
17	106.75726079940796	movie	1		243	15.0	2.5	/experiments/knapen_AOT/AOT_stimuli/rescaled_final/0044_rv.mp4	0.0	129.24464774131775	2.5004711151123047
17	107.14133381843567	pulse	1	t		15.0	2.5	/experiments/knapen_AOT/AOT_stimuli/rescaled_final/0044_rv.mp4	0.0	129.62872076034546	
17	108.74112486839294	pulse	1	t		15.0	2.5	/experiments/knapen_AOT/AOT_stimuli/rescaled_final/0044_rv.mp4	0.0	131.22851181030273	
17	109.25773191452026	fix_post	2		12	15.0	2.5	/experiments/knapen_AOT/AOT_stimuli/rescaled_final/0044_rv.mp4	0.0	131.74511885643005	0.09991598129272461
18	109.35764789581299	fix_pre	0		119	16.0	2.5	/experiments/knapen_AOT/AOT_stimuli/rescaled_final/1499_rv.mp4	0.0	131.84503483772278	0.9918200969696045
18	110.34135389328003	pulse	0	t		16.0	2.5	/experiments/knapen_AOT/AOT_stimuli/rescaled_final/1499_rv.mp4	0.0	132.82874083518982	
18	110.34946799278259	movie	1		245	16.0	2.5	/experiments/knapen_AOT/AOT_stimuli/rescaled_final/1499_rv.mp4	0.0	132.83685493469238	2.508685827255249
18	111.9422299861908	pulse	1	t		16.0	2.5	/experiments/knapen_AOT/AOT_stimuli/rescaled_final/1499_rv.mp4	0.0	134.4296169281006	
18	112.85815382003784	fix_post	2		12	16.0	2.5	/experiments/knapen_AOT/AOT_stimuli/rescaled_final/1499_rv.mp4	0.0	135.34554076194763	0.10003209114074707
19	112.95818591117859	fix_pre	0		120	17.0	2.5	/experiments/knapen_AOT/AOT_stimuli/rescaled_final/1591_fw.mp4	0.0	135.44557285308838	1.0001640319824219
19	113.54186797142029	pulse	0	t		17.0	2.5	/experiments/knapen_AOT/AOT_stimuli/rescaled_final/1591_fw.mp4	0.0	136.02925491333008	
19	113.95834994316101	movie	1		244	17.0	2.5	/experiments/knapen_AOT/AOT_stimuli/rescaled_final/1591_fw.mp4	0.0	136.4457368850708	2.5004220008850098
19	115.14212393760681	pulse	1	t		17.0	2.5	/experiments/knapen_AOT/AOT_stimuli/rescaled_final/1591_fw.mp4	0.0	137.6295108795166	
19	116.45877194404602	fix_post	2		12	17.0	2.5	/experiments/knapen_AOT/AOT_stimuli/rescaled_final/1591_fw.mp4	0.0	138.9461588859558	0.09996891021728516
20	116.5587408542633	fix_pre	0		120	18.0	2.5	/experiments/knapen_AOT/AOT_stimuli/rescaled_final/1346_fw.mp4	0.0	139.0461277961731	1.0001411437988281
20	116.74232888221741	pulse	0	t		18.0	2.5	/experiments/knapen_AOT/AOT_stimuli/rescaled_final/1346_fw.mp4	0.0	139.2297158241272	
20	117.55888199806213	movie	1		243	18.0	2.5	/experiments/knapen_AOT/AOT_stimuli/rescaled_final/1346_fw.mp4	0.0	140.04626893997192	2.500347852706909
20	118.34253191947937	pulse	1	t		18.0	2.5	/experiments/knapen_AOT/AOT_stimuli/rescaled_final/1346_fw.mp4	0.0	140.82991886138916	
20	119.942706823349	pulse	1	t		18.0	2.5	/experiments/knapen_AOT/AOT_stimuli/rescaled_final/1346_fw.mp4	0.0	142.4300937652588	
20	120.05922985076904	fix_post	2		12	18.0	2.5	/experiments/knapen_AOT/AOT_stimuli/rescaled_final/1346_fw.mp4	0.0	142.54661679267883	0.10002708435058594
21	120.15925693511963	fix_pre	0		120	19.0	2.5	blank	1.0	142.64664387702942	1.0001280307769775
21	121.1593849658966	movie	1		299	19.0	2.5	blank	1.0	143.6467719078064	2.4921000003814697
21	121.54303789138794	pulse	1	t		19.0	2.5	blank	1.0	144.03042483329773	
21	123.14331603050232	pulse	1	t		19.0	2.5	blank	1.0	145.6307029724121	
21	123.65148496627808	fix_post	2		12	19.0	2.5	blank	1.0	146.13887190818787	0.09999489784240723
22	123.75147986412048	fix_pre	0		120	20.0	2.5	/experiments/knapen_AOT/AOT_stimuli/rescaled_final/0849_rv.mp4	0.0	146.23886680603027	1.0001580715179443
22	124.7434868812561	pulse	0	t		20.0	2.5	/experiments/knapen_AOT/AOT_stimuli/rescaled_final/0849_rv.mp4	0.0	147.2308738231659	
22	124.75163793563843	movie	1		246	20.0	2.5	/experiments/knapen_AOT/AOT_stimuli/rescaled_final/0849_rv.mp4	0.0	147.23902487754822	2.5086510181427
22	126.34431195259094	pulse	1	t		20.0	2.5	/experiments/knapen_AOT/AOT_stimuli/rescaled_final/0849_rv.mp4	0.0	148.83169889450073	
22	127.26028895378113	fix_post	2		12	20.0	2.5	/experiments/knapen_AOT/AOT_stimuli/rescaled_final/0849_rv.mp4	0.0	149.74767589569092	0.09999489784240723
23	127.36028385162354	fix_pre	0		120	21.0	2.5	/experiments/knapen_AOT/AOT_stimuli/rescaled_final/1474_fw.mp4	0.0	149.84767079353333	1.0002269744873047
23	127.94395089149475	pulse	0	t		21.0	2.5	/experiments/knapen_AOT/AOT_stimuli/rescaled_final/1474_fw.mp4	0.0	150.43133783340454	
23	128.36051082611084	movie	1		244	21.0	2.5	/experiments/knapen_AOT/AOT_stimuli/rescaled_final/1474_fw.mp4	0.0	150.84789776802063	2.500338077545166
23	129.5406289100647	pulse	1	t		21.0	2.5	/experiments/knapen_AOT/AOT_stimuli/rescaled_final/1474_fw.mp4	0.0	152.0280158519745	
23	130.860848903656	fix_post	2		12	21.0	2.5	/experiments/knapen_AOT/AOT_stimuli/rescaled_final/1474_fw.mp4	0.0	153.3482358455658	0.10004091262817383
24	130.96088981628418	fix_pre	0		120	22.0	2.5	/experiments/knapen_AOT/AOT_stimuli/rescaled_final/1372_fw.mp4	0.0	153.44827675819397	1.0001401901245117
24	131.14441990852356	pulse	0	t		22.0	2.5	/experiments/knapen_AOT/AOT_stimuli/rescaled_final/1372_fw.mp4	0.0	153.63180685043335	
24	131.9610300064087	movie	1		243	22.0	2.5	/experiments/knapen_AOT/AOT_stimuli/rescaled_final/1372_fw.mp4	0.0	154.44841694831848	2.5003600120544434
24	132.74475288391113	pulse	1	t		22.0	2.5	/experiments/knapen_AOT/AOT_stimuli/rescaled_final/1372_fw.mp4	0.0	155.23213982582092	
24	134.3450379371643	pulse	1	t		22.0	2.5	/experiments/knapen_AOT/AOT_stimuli/rescaled_final/1372_fw.mp4	0.0	156.8324248790741	
24	134.46139001846313	fix_post	2		12	22.0	2.5	/experiments/knapen_AOT/AOT_stimuli/rescaled_final/1372_fw.mp4	0.0	156.94877696037292	0.10004186630249023
25	134.56143188476562	fix_pre	0		120	23.0	2.5	/experiments/knapen_AOT/AOT_stimuli/rescaled_final/1577_rv.mp4	0.0	157.04881882667542	1.0002191066741943
25	135.56165099143982	movie	1		242	23.0	2.5	/experiments/knapen_AOT/AOT_stimuli/rescaled_final/1577_rv.mp4	0.0	158.0490379333496	2.492036819458008
25	135.95016384124756	pulse	1	t		23.0	2.5	/experiments/knapen_AOT/AOT_stimuli/rescaled_final/1577_rv.mp4	0.0	158.43755078315735	
25	137.54540300369263	pulse	1	t		23.0	2.5	/experiments/knapen_AOT/AOT_stimuli/rescaled_final/1577_rv.mp4	0.0	160.03278994560242	
25	138.05368781089783	fix_post	2		12	23.0	2.5	/experiments/knapen_AOT/AOT_stimuli/rescaled_final/1577_rv.mp4	0.0	160.54107475280762	0.09992313385009766
26	138.15361094474792	fix_pre	0		120	24.0	2.5	/experiments/knapen_AOT/AOT_stimuli/rescaled_final/1536_fw.mp4	0.0	160.64099788665771	1.0001509189605713
26	139.14566683769226	pulse	0	t		24.0	2.5	/experiments/knapen_AOT/AOT_stimuli/rescaled_final/1536_fw.mp4	0.0	161.63305377960205	
26	139.1537618637085	movie	1		245	24.0	2.5	/experiments/knapen_AOT/AOT_stimuli/rescaled_final/1536_fw.mp4	0.0	161.6411488056183	2.508686065673828
26	140.7471740245819	pulse	1	t		24.0	2.5	/experiments/knapen_AOT/AOT_stimuli/rescaled_final/1536_fw.mp4	0.0	163.2345609664917	
26	141.66244792938232	fix_post	2		12	24.0	2.5	/experiments/knapen_AOT/AOT_stimuli/rescaled_final/1536_fw.mp4	0.0	164.14983487129211	0.10002493858337402
27	141.7624728679657	fix_pre	0		120	25.0	2.5	/experiments/knapen_AOT/AOT_stimuli/rescaled_final/1099_fw.mp4	0.0	164.2498598098755	1.0001659393310547
27	142.34605884552002	pulse	0	t		25.0	2.5	/experiments/knapen_AOT/AOT_stimuli/rescaled_final/1099_fw.mp4	0.0	164.8334457874298	
27	142.76263880729675	movie	1		244	25.0	2.5	/experiments/knapen_AOT/AOT_stimuli/rescaled_final/1099_fw.mp4	0.0	165.25002574920654	2.5003421306610107
27	143.94650197029114	pulse	1	t		25.0	2.5	/experiments/knapen_AOT/AOT_stimuli/rescaled_final/1099_fw.mp4	0.0	166.43388891220093	
27	145.26298093795776	fix_post	2		12	25.0	2.5	/experiments/knapen_AOT/AOT_stimuli/rescaled_final/1099_fw.mp4	0.0	167.75036787986755	0.10004687309265137
28	145.36302781105042	fix_pre	0		120	26.0	2.5	/experiments/knapen_AOT/AOT_stimuli/rescaled_final/1011_fw.mp4	0.0	167.8504147529602	1.0001440048217773
28	145.54662489891052	pulse	0	t		26.0	2.5	/experiments/knapen_AOT/AOT_stimuli/rescaled_final/1011_fw.mp4	0.0	168.0340118408203	
28	146.3631718158722	movie	1		242	26.0	2.5	/experiments/knapen_AOT/AOT_stimuli/rescaled_final/1011_fw.mp4	0.0	168.85055875778198	2.4921631813049316
28	147.1468689441681	pulse	1	t		26.0	2.5	/experiments/knapen_AOT/AOT_stimuli/rescaled_final/1011_fw.mp4	0.0	169.63425588607788	
28	148.7485430240631	pulse	1	t		26.0	2.5	/experiments/knapen_AOT/AOT_stimuli/rescaled_final/1011_fw.mp4	0.0	171.2359299659729	
28	148.85533499717712	fix_post	2		13	26.0	2.5	/experiments/knapen_AOT/AOT_stimuli/rescaled_final/1011_fw.mp4	0.0	171.3427219390869	0.10824394226074219
29	148.96357893943787	fix_pre	0		120	27.0	2.5	blank	1.0	171.45096588134766	1.000133991241455
29	149.96371293067932	movie	1		299	27.0	2.5	blank	1.0	172.4510998725891	2.492055892944336
29	150.3398768901825	pulse	1	t		27.0	2.5	blank	1.0	172.82726383209229	
29	151.93991589546204	pulse	1	t		27.0	2.5	blank	1.0	174.42730283737183	
29	152.45576882362366	fix_post	2		12	27.0	2.5	blank	1.0	174.94315576553345	0.09998011589050293
30	152.55574893951416	fix_pre	0		120	28.0	2.5	/experiments/knapen_AOT/AOT_stimuli/rescaled_final/0898_rv.mp4	0.0	175.04313588142395	1.0001928806304932
30	153.54018688201904	pulse	0	t		28.0	2.5	/experiments/knapen_AOT/AOT_stimuli/rescaled_final/0898_rv.mp4	0.0	176.02757382392883	
30	153.55594182014465	movie	1		244	28.0	2.5	/experiments/knapen_AOT/AOT_stimuli/rescaled_final/0898_rv.mp4	0.0	176.04332876205444	2.508784055709839
30	155.14841485023499	pulse	1	t		28.0	2.5	/experiments/knapen_AOT/AOT_stimuli/rescaled_final/0898_rv.mp4	0.0	177.63580179214478	
30	156.0647258758545	fix_post	2		12	28.0	2.5	/experiments/knapen_AOT/AOT_stimuli/rescaled_final/0898_rv.mp4	0.0	178.55211281776428	0.0999290943145752
31	156.16465497016907	fix_pre	0		120	29.0	2.5	/experiments/knapen_AOT/AOT_stimuli/rescaled_final/0640_fw.mp4	0.0	178.65204191207886	1.0001568794250488
31	156.7406599521637	pulse	0	t		29.0	2.5	/experiments/knapen_AOT/AOT_stimuli/rescaled_final/0640_fw.mp4	0.0	179.2280468940735	
31	157.16481184959412	movie	1		243	29.0	2.5	/experiments/knapen_AOT/AOT_stimuli/rescaled_final/0640_fw.mp4	0.0	179.6521987915039	2.500312089920044
31	158.34454989433289	pulse	1	t		29.0	2.5	/experiments/knapen_AOT/AOT_stimuli/rescaled_final/0640_fw.mp4	0.0	180.83193683624268	
31	159.66512393951416	fix_post	2		12	29.0	2.5	/experiments/knapen_AOT/AOT_stimuli/rescaled_final/0640_fw.mp4	0.0	182.15251088142395	0.1000680923461914
32	159.76519203186035	fix_pre	0		120	30.0	2.5	/experiments/knapen_AOT/AOT_stimuli/rescaled_final/0707_rv.mp4	0.0	182.25257897377014	1.000126838684082
32	159.94034481048584	pulse	0	t		30.0	2.5	/experiments/knapen_AOT/AOT_stimuli/rescaled_final/0707_rv.mp4	0.0	182.42773175239563	
32	160.76531887054443	movie	1		244	30.0	2.5	/experiments/knapen_AOT/AOT_stimuli/rescaled_final/0707_rv.mp4	0.0	183.25270581245422	2.5003509521484375
32	161.54058480262756	pulse	1	t		30.0	2.5	/experiments/knapen_AOT/AOT_stimuli/rescaled_final/0707_rv.mp4	0.0	184.02797174453735	
32	163.1409409046173	pulse	1	t		30.0	2.5	/experiments/knapen_AOT/AOT_stimuli/rescaled_final/0707_rv.mp4	0.0	185.6283278465271	
32	163.26566982269287	fix_post	2		12	30.0	2.5	/experiments/knapen_AOT/AOT_stimuli/rescaled_final/0707_rv.mp4	0.0	185.75305676460266	0.10002708435058594
33	163.36569690704346	fix_pre	0		119	31.0	2.5	/experiments/knapen_AOT/AOT_stimuli/rescaled_final/0286_rv.mp4	0.0	185.85308384895325	0.991818904876709
33	164.35751581192017	movie	1		243	31.0	2.5	/experiments/knapen_AOT/AOT_stimuli/rescaled_final/0286_rv.mp4	0.0	186.84490275382996	2.50034499168396
33	164.74185585975647	pulse	1	t		31.0	2.5	/experiments/knapen_AOT/AOT_stimuli/rescaled_final/0286_rv.mp4	0.0	187.22924280166626	
33	166.34136986732483	pulse	1	t		31.0	2.5	/experiments/knapen_AOT/AOT_stimuli/rescaled_final/0286_rv.mp4	0.0	188.82875680923462	
33	166.85786080360413	fix_post	2		12	31.0	2.5	/experiments/knapen_AOT/AOT_stimuli/rescaled_final/0286_rv.mp4	0.0	189.34524774551392	0.10006117820739746
34	166.95792198181152	fix_pre	0		119	32.0	2.5	/experiments/knapen_AOT/AOT_stimuli/rescaled_final/0237_fw.mp4	0.0	189.4453089237213	0.9918038845062256
34	167.94161891937256	pulse	0	t		32.0	2.5	/experiments/knapen_AOT/AOT_stimuli/rescaled_final/0237_fw.mp4	0.0	190.42900586128235	
34	167.94972586631775	movie	1		245	32.0	2.5	/experiments/knapen_AOT/AOT_stimuli/rescaled_final/0237_fw.mp4	0.0	190.43711280822754	2.508686065673828
34	169.54240489006042	pulse	1	t		32.0	2.5	/experiments/knapen_AOT/AOT_stimuli/rescaled_final/0237_fw.mp4	0.0	192.02979183197021	
34	170.45841193199158	fix_post	2		12	32.0	2.5	/experiments/knapen_AOT/AOT_stimuli/rescaled_final/0237_fw.mp4	0.0	192.94579887390137	0.10002708435058594
35	170.55843901634216	fix_pre	0		120	33.0	2.5	/experiments/knapen_AOT/AOT_stimuli/rescaled_final/1353_rv.mp4	0.0	193.04582595825195	1.0001869201660156
35	171.14213585853577	pulse	0	t		33.0	2.5	/experiments/knapen_AOT/AOT_stimuli/rescaled_final/1353_rv.mp4	0.0	193.62952280044556	
35	171.55862593650818	movie	1		244	33.0	2.5	/experiments/knapen_AOT/AOT_stimuli/rescaled_final/1353_rv.mp4	0.0	194.04601287841797	2.5003299713134766
35	172.74238181114197	pulse	1	t		33.0	2.5	/experiments/knapen_AOT/AOT_stimuli/rescaled_final/1353_rv.mp4	0.0	195.22976875305176	
35	174.05895590782166	fix_post	2		12	33.0	2.5	/experiments/knapen_AOT/AOT_stimuli/rescaled_final/1353_rv.mp4	0.0	196.54634284973145	0.10007905960083008
36	174.15903496742249	fix_pre	0		120	34.0	2.5	/experiments/knapen_AOT/AOT_stimuli/rescaled_final/1973_fw.mp4	0.0	196.64642190933228	1.0000948905944824
36	174.34260487556458	pulse	0	t		34.0	2.5	/experiments/knapen_AOT/AOT_stimuli/rescaled_final/1973_fw.mp4	0.0	196.82999181747437	
36	175.15912985801697	movie	1		244	34.0	2.5	/experiments/knapen_AOT/AOT_stimuli/rescaled_final/1973_fw.mp4	0.0	197.64651679992676	2.500339984893799
36	175.94283294677734	pulse	1	t		34.0	2.5	/experiments/knapen_AOT/AOT_stimuli/rescaled_final/1973_fw.mp4	0.0	198.43021988868713	
36	177.5430200099945	pulse	1	t		34.0	2.5	/experiments/knapen_AOT/AOT_stimuli/rescaled_final/1973_fw.mp4	0.0	200.0304069519043	
36	177.65946984291077	fix_post	2		12	34.0	2.5	/experiments/knapen_AOT/AOT_stimuli/rescaled_final/1973_fw.mp4	0.0	200.14685678482056	0.10009217262268066
37	177.75956201553345	fix_pre	0		120	35.0	2.5	blank	1.0	200.24694895744324	1.0001158714294434
37	178.7596778869629	movie	1		299	35.0	2.5	blank	1.0	201.24706482887268	2.4920570850372314
37	179.14330101013184	pulse	1	t		35.0	2.5	blank	1.0	201.63068795204163	
37	180.7435758113861	pulse	1	t		35.0	2.5	blank	1.0	203.2309627532959	
37	181.25173497200012	fix_post	2		12	35.0	2.5	blank	1.0	203.7391219139099	0.0999758243560791
38	181.3517107963562	fix_pre	0		120	36.0	2.5	/experiments/knapen_AOT/AOT_stimuli/rescaled_final/0126_fw.mp4	0.0	203.839097738266	1.0001730918884277
38	182.34379196166992	pulse	0	t		36.0	2.5	/experiments/knapen_AOT/AOT_stimuli/rescaled_final/0126_fw.mp4	0.0	204.8311789035797	
38	182.35188388824463	movie	1		244	36.0	2.5	/experiments/knapen_AOT/AOT_stimuli/rescaled_final/0126_fw.mp4	0.0	204.83927083015442	2.508742094039917
38	183.9445858001709	pulse	1	t		36.0	2.5	/experiments/knapen_AOT/AOT_stimuli/rescaled_final/0126_fw.mp4	0.0	206.4319727420807	
38	184.86062598228455	fix_post	2		12	36.0	2.5	/experiments/knapen_AOT/AOT_stimuli/rescaled_final/0126_fw.mp4	0.0	207.34801292419434	0.09998083114624023
39	184.9606068134308	fix_pre	0		120	37.0	2.5	/experiments/knapen_AOT/AOT_stimuli/rescaled_final/2010_rv.mp4	0.0	207.44799375534058	1.0001461505889893
39	185.5443389415741	pulse	0	t		37.0	2.5	/experiments/knapen_AOT/AOT_stimuli/rescaled_final/2010_rv.mp4	0.0	208.0317258834839	
39	185.96075296401978	movie	1		245	37.0	2.5	/experiments/knapen_AOT/AOT_stimuli/rescaled_final/2010_rv.mp4	0.0	208.44813990592957	2.5003669261932373
39	187.1446189880371	pulse	1	t		37.0	2.5	/experiments/knapen_AOT/AOT_stimuli/rescaled_final/2010_rv.mp4	0.0	209.6320059299469	
39	188.461119890213	fix_post	2		12	37.0	2.5	/experiments/knapen_AOT/AOT_stimuli/rescaled_final/2010_rv.mp4	0.0	210.9485068321228	0.10002708435058594
40	188.5611469745636	fix_pre	0		120	38.0	2.5	/experiments/knapen_AOT/AOT_stimuli/rescaled_final/0219_rv.mp4	0.0	211.0485339164734	1.0001249313354492
40	188.74471402168274	pulse	0	t		38.0	2.5	/experiments/knapen_AOT/AOT_stimuli/rescaled_final/0219_rv.mp4	0.0	211.23210096359253	
40	189.56127190589905	movie	1		244	38.0	2.5	/experiments/knapen_AOT/AOT_stimuli/rescaled_final/0219_rv.mp4	0.0	212.04865884780884	2.500391960144043
40	190.34500288963318	pulse	1	t		38.0	2.5	/experiments/knapen_AOT/AOT_stimuli/rescaled_final/0219_rv.mp4	0.0	212.83238983154297	
40	191.94524097442627	pulse	1	t		38.0	2.5	/experiments/knapen_AOT/AOT_stimuli/rescaled_final/0219_rv.mp4	0.0	214.43262791633606	
40	192.0616638660431	fix_post	2		12	38.0	2.5	/experiments/knapen_AOT/AOT_stimuli/rescaled_final/0219_rv.mp4	0.0	214.54905080795288	0.09998798370361328
41	192.1616518497467	fix_pre	0		120	39.0	2.5	/experiments/knapen_AOT/AOT_stimuli/rescaled_final/1099_rv.mp4	0.0	214.6490387916565	1.0001630783081055
41	193.1618149280548	movie	1		243	39.0	2.5	/experiments/knapen_AOT/AOT_stimuli/rescaled_final/1099_rv.mp4	0.0	215.6492018699646	2.4920449256896973
41	193.5459499359131	pulse	1	t		39.0	2.5	/experiments/knapen_AOT/AOT_stimuli/rescaled_final/1099_rv.mp4	0.0	216.03333687782288	
41	195.14577889442444	pulse	1	t		39.0	2.5	/experiments/knapen_AOT/AOT_stimuli/rescaled_final/1099_rv.mp4	0.0	217.63316583633423	
41	195.6538598537445	fix_post	2		12	39.0	2.5	/experiments/knapen_AOT/AOT_stimuli/rescaled_final/1099_rv.mp4	0.0	218.1412467956543	0.10001707077026367
42	195.75387692451477	fix_pre	0		120	40.0	2.5	/experiments/knapen_AOT/AOT_stimuli/rescaled_final/1541_fw.mp4	0.0	218.24126386642456	1.0001399517059326
42	196.74600481987	pulse	0	t		40.0	2.5	/experiments/knapen_AOT/AOT_stimuli/rescaled_final/1541_fw.mp4	0.0	219.23339176177979	
42	196.7540168762207	movie	1		245	40.0	2.5	/experiments/knapen_AOT/AOT_stimuli/rescaled_final/1541_fw.mp4	0.0	219.2414038181305	2.5087599754333496
42	198.34674882888794	pulse	1	t		40.0	2.5	/experiments/knapen_AOT/AOT_stimuli/rescaled_final/1541_fw.mp4	0.0	220.83413577079773	
42	199.26277685165405	fix_post	2		12	40.0	2.5	/experiments/knapen_AOT/AOT_stimuli/rescaled_final/1541_fw.mp4	0.0	221.75016379356384	0.09998416900634766
43	199.3627610206604	fix_pre	0		120	41.0	2.5	/experiments/knapen_AOT/AOT_stimuli/rescaled_final/1512_rv.mp4	0.0	221.8501479625702	1.0001459121704102
43	199.94629502296448	pulse	0	t		41.0	2.5	/experiments/knapen_AOT/AOT_stimuli/rescaled_final/1512_rv.mp4	0.0	222.43368196487427	
43	200.3629069328308	movie	1		244	41.0	2.5	/experiments/knapen_AOT/AOT_stimuli/rescaled_final/1512_rv.mp4	0.0	222.8502938747406	2.5003280639648438
43	201.5466799736023	pulse	1	t		41.0	2.5	/experiments/knapen_AOT/AOT_stimuli/rescaled_final/1512_rv.mp4	0.0	224.03406691551208	
43	202.86323499679565	fix_post	2		12	41.0	2.5	/experiments/knapen_AOT/AOT_stimuli/rescaled_final/1512_rv.mp4	0.0	225.35062193870544	0.10003399848937988
44	202.96326899528503	fix_pre	0		120	42.0	2.5	blank	1.0	225.45065593719482	1.000147819519043
44	203.14691400527954	pulse	0	t		42.0	2.5	blank	1.0	225.63430094718933	
44	203.96341681480408	movie	1		300	42.0	2.5	blank	1.0	226.45080375671387	2.500380039215088
44	204.73953986167908	pulse	1	t		42.0	2.5	blank	1.0	227.22692680358887	
44	206.33981895446777	pulse	1	t		42.0	2.5	blank	1.0	228.82720589637756	
44	206.46379685401917	fix_post	2		12	42.0	2.5	blank	1.0	228.95118379592896	0.10001516342163086
45	206.5638120174408	fix_pre	0		118	43.0	2.5	/experiments/knapen_AOT/AOT_stimuli/rescaled_final/1598_fw.mp4	0.0	229.0511989593506	1.0002119541168213
45	207.56402397155762	movie	1		242	43.0	2.5	/experiments/knapen_AOT/AOT_stimuli/rescaled_final/1598_fw.mp4	0.0	230.0514109134674	2.491947889328003
45	207.94851779937744	pulse	1	t		43.0	2.5	/experiments/knapen_AOT/AOT_stimuli/rescaled_final/1598_fw.mp4	0.0	230.43590474128723	
45	209.53980088233948	pulse	1	t		43.0	2.5	/experiments/knapen_AOT/AOT_stimuli/rescaled_final/1598_fw.mp4	0.0	232.02718782424927	
45	210.05597186088562	fix_post	2		12	43.0	2.5	/experiments/knapen_AOT/AOT_stimuli/rescaled_final/1598_fw.mp4	0.0	232.5433588027954	0.10003209114074707
46	210.15600395202637	fix_pre	0		119	44.0	2.5	/experiments/knapen_AOT/AOT_stimuli/rescaled_final/0728_fw.mp4	0.0	232.64339089393616	0.9918169975280762
46	211.1396849155426	pulse	0	t		44.0	2.5	/experiments/knapen_AOT/AOT_stimuli/rescaled_final/0728_fw.mp4	0.0	233.6270718574524	
46	211.14782094955444	movie	1		245	44.0	2.5	/experiments/knapen_AOT/AOT_stimuli/rescaled_final/0728_fw.mp4	0.0	233.63520789146423	2.508671998977661
46	212.74053192138672	pulse	1	t		44.0	2.5	/experiments/knapen_AOT/AOT_stimuli/rescaled_final/0728_fw.mp4	0.0	235.2279188632965	
46	213.6564929485321	fix_post	2		12	44.0	2.5	/experiments/knapen_AOT/AOT_stimuli/rescaled_final/0728_fw.mp4	0.0	236.1438798904419	0.10009407997131348
47	213.75658702850342	fix_pre	0		120	45.0	2.5	/experiments/knapen_AOT/AOT_stimuli/rescaled_final/0254_rv.mp4	0.0	236.2439739704132	1.0001418590545654
47	214.34020590782166	pulse	0	t		45.0	2.5	/experiments/knapen_AOT/AOT_stimuli/rescaled_final/0254_rv.mp4	0.0	236.82759284973145	
47	214.75672888755798	movie	1		244	45.0	2.5	/experiments/knapen_AOT/AOT_stimuli/rescaled_final/0254_rv.mp4	0.0	237.24411582946777	2.5002999305725098
47	215.94045090675354	pulse	1	t		45.0	2.5	/experiments/knapen_AOT/AOT_stimuli/rescaled_final/0254_rv.mp4	0.0	238.42783784866333	
47	217.2570288181305	fix_post	2		12	45.0	2.5	/experiments/knapen_AOT/AOT_stimuli/rescaled_final/0254_rv.mp4	0.0	239.74441576004028	0.10005712509155273
48	217.35708594322205	fix_pre	0		120	46.0	2.5	/experiments/knapen_AOT/AOT_stimuli/rescaled_final/0959_rv.mp4	0.0	239.84447288513184	1.0001389980316162
48	217.54068303108215	pulse	0	t		46.0	2.5	/experiments/knapen_AOT/AOT_stimuli/rescaled_final/0959_rv.mp4	0.0	240.02806997299194	
48	218.35722494125366	movie	1		243	46.0	2.5	/experiments/knapen_AOT/AOT_stimuli/rescaled_final/0959_rv.mp4	0.0	240.84461188316345	2.5003929138183594
48	219.1409409046173	pulse	1	t		46.0	2.5	/experiments/knapen_AOT/AOT_stimuli/rescaled_final/0959_rv.mp4	0.0	241.6283278465271	
48	220.74090695381165	pulse	1	t		46.0	2.5	/experiments/knapen_AOT/AOT_stimuli/rescaled_final/0959_rv.mp4	0.0	243.22829389572144	
48	220.85761785507202	fix_post	2		12	46.0	2.5	/experiments/knapen_AOT/AOT_stimuli/rescaled_final/0959_rv.mp4	0.0	243.3450047969818	0.09999704360961914
49	220.95761489868164	fix_pre	0		119	47.0	2.5	/experiments/knapen_AOT/AOT_stimuli/rescaled_final/0429_fw.mp4	0.0	243.44500184059143	0.9917960166931152
49	221.94941091537476	movie	1		244	47.0	2.5	/experiments/knapen_AOT/AOT_stimuli/rescaled_final/0429_fw.mp4	0.0	244.43679785728455	2.500369071960449
49	222.34147000312805	pulse	1	t		47.0	2.5	/experiments/knapen_AOT/AOT_stimuli/rescaled_final/0429_fw.mp4	0.0	244.82885694503784	
49	223.9416069984436	pulse	1	t		47.0	2.5	/experiments/knapen_AOT/AOT_stimuli/rescaled_final/0429_fw.mp4	0.0	246.4289939403534	
49	224.4497799873352	fix_post	2		12	47.0	2.5	/experiments/knapen_AOT/AOT_stimuli/rescaled_final/0429_fw.mp4	0.0	246.937166929245	0.10002303123474121
50	224.54980301856995	fix_pre	0		120	48.0	2.5	blank	1.0	247.03718996047974	1.0001628398895264
50	225.54188799858093	pulse	0	t		48.0	2.5	blank	1.0	248.02927494049072	
50	225.54996585845947	movie	1		301	48.0	2.5	blank	1.0	248.03735280036926	2.5087220668792725
50	227.14207482337952	pulse	1	t		48.0	2.5	blank	1.0	249.6294617652893	
50	228.05868792533875	fix_post	2		12	48.0	2.5	blank	1.0	250.54607486724854	0.10001707077026367
51	228.158704996109	fix_pre	0		120	49.0	2.5	/experiments/knapen_AOT/AOT_stimuli/rescaled_final/1937_rv.mp4	0.0	250.6460919380188	1.0001378059387207
51	228.74227285385132	pulse	0	t		49.0	2.5	/experiments/knapen_AOT/AOT_stimuli/rescaled_final/1937_rv.mp4	0.0	251.2296597957611	
51	229.15884280204773	movie	1		244	49.0	2.5	/experiments/knapen_AOT/AOT_stimuli/rescaled_final/1937_rv.mp4	0.0	251.64622974395752	2.500373125076294
51	230.3426718711853	pulse	1	t		49.0	2.5	/experiments/knapen_AOT/AOT_stimuli/rescaled_final/1937_rv.mp4	0.0	252.8300588130951	
51	231.65921592712402	fix_post	2		12	49.0	2.5	/experiments/knapen_AOT/AOT_stimuli/rescaled_final/1937_rv.mp4	0.0	254.1466028690338	0.10001587867736816
52	231.7592318058014	fix_pre	0		120	50.0	2.5	/experiments/knapen_AOT/AOT_stimuli/rescaled_final/0327_rv.mp4	0.0	254.24661874771118	1.0001521110534668
52	231.94293189048767	pulse	0	t		50.0	2.5	/experiments/knapen_AOT/AOT_stimuli/rescaled_final/0327_rv.mp4	0.0	254.43031883239746	
52	232.75938391685486	movie	1		244	50.0	2.5	/experiments/knapen_AOT/AOT_stimuli/rescaled_final/0327_rv.mp4	0.0	255.24677085876465	2.500478982925415
52	233.54305386543274	pulse	1	t		50.0	2.5	/experiments/knapen_AOT/AOT_stimuli/rescaled_final/0327_rv.mp4	0.0	256.03044080734253	
52	235.14337587356567	pulse	1	t		50.0	2.5	/experiments/knapen_AOT/AOT_stimuli/rescaled_final/0327_rv.mp4	0.0	257.63076281547546	
52	235.25986289978027	fix_post	2		12	50.0	2.5	/experiments/knapen_AOT/AOT_stimuli/rescaled_final/0327_rv.mp4	0.0	257.74724984169006	0.09991312026977539
53	235.35977602005005	fix_pre	0		120	51.0	2.5	/experiments/knapen_AOT/AOT_stimuli/rescaled_final/0376_rv.mp4	0.0	257.84716296195984	1.0001649856567383
53	236.3599410057068	movie	1		243	51.0	2.5	/experiments/knapen_AOT/AOT_stimuli/rescaled_final/0376_rv.mp4	0.0	258.8473279476166	2.492004871368408
53	236.7441008090973	pulse	1	t		51.0	2.5	/experiments/knapen_AOT/AOT_stimuli/rescaled_final/0376_rv.mp4	0.0	259.2314877510071	
53	238.34390997886658	pulse	1	t		51.0	2.5	/experiments/knapen_AOT/AOT_stimuli/rescaled_final/0376_rv.mp4	0.0	260.83129692077637	
53	238.8519458770752	fix_post	2		12	51.0	2.5	/experiments/knapen_AOT/AOT_stimuli/rescaled_final/0376_rv.mp4	0.0	261.339332818985	0.10000801086425781
54	238.95195388793945	fix_pre	0		120	52.0	2.5	/experiments/knapen_AOT/AOT_stimuli/rescaled_final/0251_fw.mp4	0.0	261.43934082984924	1.0001640319824219
54	239.94405794143677	pulse	0	t		52.0	2.5	/experiments/knapen_AOT/AOT_stimuli/rescaled_final/0251_fw.mp4	0.0	262.43144488334656	
54	239.95211791992188	movie	1		246	52.0	2.5	/experiments/knapen_AOT/AOT_stimuli/rescaled_final/0251_fw.mp4	0.0	262.43950486183167	2.5086829662323
54	241.54901885986328	pulse	1	t		52.0	2.5	/experiments/knapen_AOT/AOT_stimuli/rescaled_final/0251_fw.mp4	0.0	264.03640580177307	
54	242.46080088615417	fix_post	2		12	52.0	2.5	/experiments/knapen_AOT/AOT_stimuli/rescaled_final/0251_fw.mp4	0.0	264.94818782806396	0.10001897811889648
55	242.56081986427307	fix_pre	0		120	53.0	2.5	/experiments/knapen_AOT/AOT_stimuli/rescaled_final/1973_rv.mp4	0.0	265.04820680618286	1.0002429485321045
55	243.1444869041443	pulse	0	t		53.0	2.5	/experiments/knapen_AOT/AOT_stimuli/rescaled_final/1973_rv.mp4	0.0	265.6318738460541	
55	243.56106281280518	movie	1		244	53.0	2.5	/experiments/knapen_AOT/AOT_stimuli/rescaled_final/1973_rv.mp4	0.0	266.04844975471497	2.5003151893615723
55	244.7413148880005	pulse	1	t		53.0	2.5	/experiments/knapen_AOT/AOT_stimuli/rescaled_final/1973_rv.mp4	0.0	267.2287018299103	
55	246.06137800216675	fix_post	2		12	53.0	2.5	/experiments/knapen_AOT/AOT_stimuli/rescaled_final/1973_rv.mp4	0.0	268.54876494407654	0.10001397132873535
56	246.16139197349548	fix_pre	0		120	54.0	2.5	blank	1.0	268.6487789154053	1.0001239776611328
56	246.34502696990967	pulse	0	t		54.0	2.5	blank	1.0	268.83241391181946	
56	247.16151595115662	movie	1		300	54.0	2.5	blank	1.0	269.6489028930664	2.5003650188446045
56	247.94521689414978	pulse	1	t		54.0	2.5	blank	1.0	270.43260383605957	
56	249.545343875885	pulse	1	t		54.0	2.5	blank	1.0	272.0327308177948	
56	249.66188097000122	fix_post	2		12	54.0	2.5	blank	1.0	272.149267911911	0.10006093978881836
57	249.76194190979004	fix_pre	0		120	55.0	2.5	/experiments/knapen_AOT/AOT_stimuli/rescaled_final/0908_rv.mp4	0.0	272.24932885169983	1.000128984451294
57	250.76207089424133	movie	1		243	55.0	2.5	/experiments/knapen_AOT/AOT_stimuli/rescaled_final/0908_rv.mp4	0.0	273.2494578361511	2.4920129776000977
57	251.1499629020691	pulse	1	t		55.0	2.5	/experiments/knapen_AOT/AOT_stimuli/rescaled_final/0908_rv.mp4	0.0	273.6373498439789	
57	252.7460379600525	pulse	1	t		55.0	2.5	/experiments/knapen_AOT/AOT_stimuli/rescaled_final/0908_rv.mp4	0.0	275.2334249019623	
57	253.25408387184143	fix_post	2		12	55.0	2.5	/experiments/knapen_AOT/AOT_stimuli/rescaled_final/0908_rv.mp4	0.0	275.7414708137512	0.10002899169921875
58	253.35411286354065	fix_pre	0		120	56.0	2.5	/experiments/knapen_AOT/AOT_stimuli/rescaled_final/0224_fw.mp4	0.0	275.84149980545044	1.000157117843628
58	254.34616994857788	pulse	0	t		56.0	2.5	/experiments/knapen_AOT/AOT_stimuli/rescaled_final/0224_fw.mp4	0.0	276.83355689048767	
58	254.35426998138428	movie	1		245	56.0	2.5	/experiments/knapen_AOT/AOT_stimuli/rescaled_final/0224_fw.mp4	0.0	276.84165692329407	2.508697986602783
58	255.94678688049316	pulse	1	t		56.0	2.5	/experiments/knapen_AOT/AOT_stimuli/rescaled_final/0224_fw.mp4	0.0	278.43417382240295	
58	256.86296796798706	fix_post	2		12	56.0	2.5	/experiments/knapen_AOT/AOT_stimuli/rescaled_final/0224_fw.mp4	0.0	279.35035490989685	0.10002589225769043
59	256.96299386024475	fix_pre	0		120	57.0	2.5	/experiments/knapen_AOT/AOT_stimuli/rescaled_final/0662_fw.mp4	0.0	279.45038080215454	1.000180959701538
59	257.5466718673706	pulse	0	t		57.0	2.5	/experiments/knapen_AOT/AOT_stimuli/rescaled_final/0662_fw.mp4	0.0	280.0340588092804	
59	257.9631748199463	movie	1		243	57.0	2.5	/experiments/knapen_AOT/AOT_stimuli/rescaled_final/0662_fw.mp4	0.0	280.4505617618561	2.500319004058838
59	259.14698100090027	pulse	1	t		57.0	2.5	/experiments/knapen_AOT/AOT_stimuli/rescaled_final/0662_fw.mp4	0.0	281.63436794281006	
59	260.4634938240051	fix_post	2		12	57.0	2.5	/experiments/knapen_AOT/AOT_stimuli/rescaled_final/0662_fw.mp4	0.0	282.9508807659149	0.1000971794128418
60	260.56359100341797	fix_pre	0		120	58.0	2.5	/experiments/knapen_AOT/AOT_stimuli/rescaled_final/2091_rv.mp4	0.0	283.05097794532776	1.0001029968261719
60	260.74715995788574	pulse	0	t		58.0	2.5	/experiments/knapen_AOT/AOT_stimuli/rescaled_final/2091_rv.mp4	0.0	283.23454689979553	
60	261.56369400024414	movie	1		244	58.0	2.5	/experiments/knapen_AOT/AOT_stimuli/rescaled_final/2091_rv.mp4	0.0	284.05108094215393	2.5004608631134033
60	262.3473289012909	pulse	1	t		58.0	2.5	/experiments/knapen_AOT/AOT_stimuli/rescaled_final/2091_rv.mp4	0.0	284.8347158432007	
60	263.9491558074951	pulse	1	t		58.0	2.5	/experiments/knapen_AOT/AOT_stimuli/rescaled_final/2091_rv.mp4	0.0	286.4365427494049	
60	264.06415486335754	fix_post	2		12	58.0	2.5	/experiments/knapen_AOT/AOT_stimuli/rescaled_final/2091_rv.mp4	0.0	286.55154180526733	0.09993815422058105
61	264.1640930175781	fix_pre	0		120	59.0	2.5	/experiments/knapen_AOT/AOT_stimuli/rescaled_final/0359_fw.mp4	0.0	286.6514799594879	1.0001039505004883
61	265.1641969680786	movie	1		240	59.0	2.5	/experiments/knapen_AOT/AOT_stimuli/rescaled_final/0359_fw.mp4	0.0	287.6515839099884	2.4920408725738525
61	265.54819989204407	pulse	1	t		59.0	2.5	/experiments/knapen_AOT/AOT_stimuli/rescaled_final/0359_fw.mp4	0.0	288.03558683395386	
61	267.14069294929504	pulse	1	t		59.0	2.5	/experiments/knapen_AOT/AOT_stimuli/rescaled_final/0359_fw.mp4	0.0	289.62807989120483	
61	267.65623784065247	fix_post	2		12	59.0	2.5	/experiments/knapen_AOT/AOT_stimuli/rescaled_final/0359_fw.mp4	0.0	290.14362478256226	0.10002803802490234
62	267.75626587867737	fix_pre	0		120	60.0	2.5	/experiments/knapen_AOT/AOT_stimuli/rescaled_final/0937_fw.mp4	0.0	290.24365282058716	1.0001559257507324
62	268.740788936615	pulse	0	t		60.0	2.5	/experiments/knapen_AOT/AOT_stimuli/rescaled_final/0937_fw.mp4	0.0	291.2281758785248	
62	268.7564218044281	movie	1		244	60.0	2.5	/experiments/knapen_AOT/AOT_stimuli/rescaled_final/0937_fw.mp4	0.0	291.2438087463379	2.508759021759033
62	270.35326886177063	pulse	1	t		60.0	2.5	/experiments/knapen_AOT/AOT_stimuli/rescaled_final/0937_fw.mp4	0.0	292.8406558036804	
62	271.26518082618713	fix_post	2		12	60.0	2.5	/experiments/knapen_AOT/AOT_stimuli/rescaled_final/0937_fw.mp4	0.0	293.7525677680969	0.09993815422058105
63	271.3651189804077	fix_pre	0		120	61.0	2.5	blank	1.0	293.8525059223175	1.0001678466796875
63	271.94053888320923	pulse	0	t		61.0	2.5	blank	1.0	294.427925825119	
63	272.3652868270874	movie	1		300	61.0	2.5	blank	1.0	294.8526737689972	2.5003771781921387
63	273.54057693481445	pulse	1	t		61.0	2.5	blank	1.0	296.02796387672424	
63	274.86566400527954	fix_post	2		12	61.0	2.5	blank	1.0	297.35305094718933	0.1000058650970459
64	274.9656698703766	fix_pre	0		120	62.0	2.5	/experiments/knapen_AOT/AOT_stimuli/rescaled_final/1754_rv.mp4	0.0	297.4530568122864	1.0001530647277832
64	275.14096999168396	pulse	0	t		62.0	2.5	/experiments/knapen_AOT/AOT_stimuli/rescaled_final/1754_rv.mp4	0.0	297.62835693359375	
64	275.96582293510437	movie	1		247	62.0	2.5	/experiments/knapen_AOT/AOT_stimuli/rescaled_final/1754_rv.mp4	0.0	298.45320987701416	2.500333070755005
64	276.7412669658661	pulse	1	t		62.0	2.5	/experiments/knapen_AOT/AOT_stimuli/rescaled_final/1754_rv.mp4	0.0	299.2286539077759	
64	278.3413898944855	pulse	1	t		62.0	2.5	/experiments/knapen_AOT/AOT_stimuli/rescaled_final/1754_rv.mp4	0.0	300.82877683639526	
64	278.4661560058594	fix_post	2		12	62.0	2.5	/experiments/knapen_AOT/AOT_stimuli/rescaled_final/1754_rv.mp4	0.0	300.95354294776917	0.10004091262817383
65	278.56619691848755	fix_pre	0		119	63.0	2.5	/experiments/knapen_AOT/AOT_stimuli/rescaled_final/2119_rv.mp4	0.0	301.05358386039734	0.9918310642242432
65	279.5580279827118	movie	1		249	63.0	2.5	/experiments/knapen_AOT/AOT_stimuli/rescaled_final/2119_rv.mp4	0.0	302.0454149246216	2.5003468990325928
65	279.942911863327	pulse	1	t		63.0	2.5	/experiments/knapen_AOT/AOT_stimuli/rescaled_final/2119_rv.mp4	0.0	302.4302988052368	
65	281.54191303253174	pulse	1	t		63.0	2.5	/experiments/knapen_AOT/AOT_stimuli/rescaled_final/2119_rv.mp4	0.0	304.0292999744415	
65	282.0583748817444	fix_post	2		12	63.0	2.5	/experiments/knapen_AOT/AOT_stimuli/rescaled_final/2119_rv.mp4	0.0	304.5457618236542	0.10004806518554688
66	282.15842294692993	fix_pre	0		119	64.0	2.5	/experiments/knapen_AOT/AOT_stimuli/rescaled_final/1996_fw.mp4	0.0	304.6458098888397	0.9918229579925537
66	283.14210391044617	pulse	0	t		64.0	2.5	/experiments/knapen_AOT/AOT_stimuli/rescaled_final/1996_fw.mp4	0.0	305.62949085235596	
66	283.1502459049225	movie	1		244	64.0	2.5	/experiments/knapen_AOT/AOT_stimuli/rescaled_final/1996_fw.mp4	0.0	305.6376328468323	2.5087339878082275
66	284.7468409538269	pulse	1	t		64.0	2.5	/experiments/knapen_AOT/AOT_stimuli/rescaled_final/1996_fw.mp4	0.0	307.2342278957367	
66	285.6589798927307	fix_post	2		12	64.0	2.5	/experiments/knapen_AOT/AOT_stimuli/rescaled_final/1996_fw.mp4	0.0	308.1463668346405	0.09994697570800781
67	285.7589268684387	fix_pre	0		120	65.0	2.5	/experiments/knapen_AOT/AOT_stimuli/rescaled_final/1474_fw.mp4	0.0	308.2463138103485	1.0001940727233887
67	286.3425199985504	pulse	0	t		65.0	2.5	/experiments/knapen_AOT/AOT_stimuli/rescaled_final/1474_fw.mp4	0.0	308.8299069404602	
67	286.7591209411621	movie	1		244	65.0	2.5	/experiments/knapen_AOT/AOT_stimuli/rescaled_final/1474_fw.mp4	0.0	309.2465078830719	2.5003669261932373
67	287.9428958892822	pulse	1	t		65.0	2.5	/experiments/knapen_AOT/AOT_stimuli/rescaled_final/1474_fw.mp4	0.0	310.430282831192	
67	289.25948786735535	fix_post	2		12	65.0	2.5	/experiments/knapen_AOT/AOT_stimuli/rescaled_final/1474_fw.mp4	0.0	311.74687480926514	0.09998798370361328
68	289.35947585105896	fix_pre	0		120	66.0	2.5	/experiments/knapen_AOT/AOT_stimuli/rescaled_final/1845_fw.mp4	0.0	311.84686279296875	1.0001511573791504
68	289.54305386543274	pulse	0	t		66.0	2.5	/experiments/knapen_AOT/AOT_stimuli/rescaled_final/1845_fw.mp4	0.0	312.03044080734253	
68	290.3596270084381	movie	1		243	66.0	2.5	/experiments/knapen_AOT/AOT_stimuli/rescaled_final/1845_fw.mp4	0.0	312.8470139503479	2.500347852706909
68	291.1432738304138	pulse	1	t		66.0	2.5	/experiments/knapen_AOT/AOT_stimuli/rescaled_final/1845_fw.mp4	0.0	313.6306607723236	
68	292.74350595474243	pulse	1	t		66.0	2.5	/experiments/knapen_AOT/AOT_stimuli/rescaled_final/1845_fw.mp4	0.0	315.2308928966522	
68	292.859974861145	fix_post	2		12	66.0	2.5	/experiments/knapen_AOT/AOT_stimuli/rescaled_final/1845_fw.mp4	0.0	315.3473618030548	0.1000370979309082
69	292.9600119590759	fix_pre	0		120	67.0	2.5	/experiments/knapen_AOT/AOT_stimuli/rescaled_final/0659_fw.mp4	0.0	315.4473989009857	1.0001609325408936
69	293.9601728916168	movie	1		243	67.0	2.5	/experiments/knapen_AOT/AOT_stimuli/rescaled_final/0659_fw.mp4	0.0	316.4475598335266	2.4919891357421875
69	294.3443748950958	pulse	1	t		67.0	2.5	/experiments/knapen_AOT/AOT_stimuli/rescaled_final/0659_fw.mp4	0.0	316.8317618370056	
69	295.94405794143677	pulse	1	t		67.0	2.5	/experiments/knapen_AOT/AOT_stimuli/rescaled_final/0659_fw.mp4	0.0	318.43144488334656	
69	296.452162027359	fix_post	2		12	67.0	2.5	/experiments/knapen_AOT/AOT_stimuli/rescaled_final/0659_fw.mp4	0.0	318.9395489692688	0.10006189346313477
70	296.55222392082214	fix_pre	0		120	68.0	2.5	blank	1.0	319.03961086273193	1.000148057937622
70	297.5443069934845	pulse	0	t		68.0	2.5	blank	1.0	320.0316939353943	
70	297.55237197875977	movie	1		301	68.0	2.5	blank	1.0	320.03975892066956	2.5087180137634277
70	299.1444818973541	pulse	1	t		68.0	2.5	blank	1.0	321.6318688392639	
70	300.0610899925232	fix_post	2		12	68.0	2.5	blank	1.0	322.548476934433	0.09999299049377441
71	300.16108298301697	fix_pre	0		120	69.0	2.5	/experiments/knapen_AOT/AOT_stimuli/rescaled_final/0447_rv.mp4	0.0	322.64846992492676	1.000147819519043
71	300.7447578907013	pulse	0	t		69.0	2.5	/experiments/knapen_AOT/AOT_stimuli/rescaled_final/0447_rv.mp4	0.0	323.2321448326111	
71	301.161230802536	movie	1		245	69.0	2.5	/experiments/knapen_AOT/AOT_stimuli/rescaled_final/0447_rv.mp4	0.0	323.6486177444458	2.5004961490631104
71	302.3451108932495	pulse	1	t		69.0	2.5	/experiments/knapen_AOT/AOT_stimuli/rescaled_final/0447_rv.mp4	0.0	324.8324978351593	
71	303.6617269515991	fix_post	2		12	69.0	2.5	/experiments/knapen_AOT/AOT_stimuli/rescaled_final/0447_rv.mp4	0.0	326.1491138935089	0.09992194175720215
72	303.7616488933563	fix_pre	0		120	70.0	2.5	/experiments/knapen_AOT/AOT_stimuli/rescaled_final/0359_rv.mp4	0.0	326.2490358352661	1.000140905380249
72	303.9452829360962	pulse	0	t		70.0	2.5	/experiments/knapen_AOT/AOT_stimuli/rescaled_final/0359_rv.mp4	0.0	326.432669878006	
72	304.7617897987366	movie	1		245	70.0	2.5	/experiments/knapen_AOT/AOT_stimuli/rescaled_final/0359_rv.mp4	0.0	327.24917674064636	2.500380039215088
72	305.54540491104126	pulse	1	t		70.0	2.5	/experiments/knapen_AOT/AOT_stimuli/rescaled_final/0359_rv.mp4	0.0	328.03279185295105	
72	307.14327597618103	pulse	1	t		70.0	2.5	/experiments/knapen_AOT/AOT_stimuli/rescaled_final/0359_rv.mp4	0.0	329.6306629180908	
72	307.26216983795166	fix_post	2		12	70.0	2.5	/experiments/knapen_AOT/AOT_stimuli/rescaled_final/0359_rv.mp4	0.0	329.74955677986145	0.09997200965881348
73	307.3621418476105	fix_pre	0		120	71.0	2.5	/experiments/knapen_AOT/AOT_stimuli/rescaled_final/0310_fw.mp4	0.0	329.84952878952026	1.000143051147461
73	308.36228489875793	movie	1		244	71.0	2.5	/experiments/knapen_AOT/AOT_stimuli/rescaled_final/0310_fw.mp4	0.0	330.8496718406677	2.492187976837158
73	308.74742698669434	pulse	1	t		71.0	2.5	/experiments/knapen_AOT/AOT_stimuli/rescaled_final/0310_fw.mp4	0.0	331.2348139286041	
73	310.34621596336365	pulse	1	t		71.0	2.5	/experiments/knapen_AOT/AOT_stimuli/rescaled_final/0310_fw.mp4	0.0	332.83360290527344	
73	310.8544728755951	fix_post	2		12	71.0	2.5	/experiments/knapen_AOT/AOT_stimuli/rescaled_final/0310_fw.mp4	0.0	333.3418598175049	0.09988808631896973
74	310.95436096191406	fix_pre	0		120	72.0	2.5	/experiments/knapen_AOT/AOT_stimuli/rescaled_final/1152_fw.mp4	0.0	333.44174790382385	1.0001928806304932
74	311.9463448524475	pulse	0	t		72.0	2.5	/experiments/knapen_AOT/AOT_stimuli/rescaled_final/1152_fw.mp4	0.0	334.4337317943573	
74	311.95455384254456	movie	1		245	72.0	2.5	/experiments/knapen_AOT/AOT_stimuli/rescaled_final/1152_fw.mp4	0.0	334.44194078445435	2.5087599754333496
74	313.5471429824829	pulse	1	t		72.0	2.5	/experiments/knapen_AOT/AOT_stimuli/rescaled_final/1152_fw.mp4	0.0	336.0345299243927	
74	314.4633138179779	fix_post	2		12	72.0	2.5	/experiments/knapen_AOT/AOT_stimuli/rescaled_final/1152_fw.mp4	0.0	336.9507007598877	0.09991121292114258
75	314.56322503089905	fix_pre	0		120	73.0	2.5	/experiments/knapen_AOT/AOT_stimuli/rescaled_final/0254_fw.mp4	0.0	337.05061197280884	1.0001919269561768
75	315.1469168663025	pulse	0	t		73.0	2.5	/experiments/knapen_AOT/AOT_stimuli/rescaled_final/0254_fw.mp4	0.0	337.6343038082123	
75	315.5634169578552	movie	1		245	73.0	2.5	/experiments/knapen_AOT/AOT_stimuli/rescaled_final/0254_fw.mp4	0.0	338.050803899765	2.5003340244293213
75	316.74016785621643	pulse	1	t		73.0	2.5	/experiments/knapen_AOT/AOT_stimuli/rescaled_final/0254_fw.mp4	0.0	339.2275547981262	
75	318.06375098228455	fix_post	2		12	73.0	2.5	/experiments/knapen_AOT/AOT_stimuli/rescaled_final/0254_fw.mp4	0.0	340.55113792419434	0.1000218391418457
76	318.1637728214264	fix_pre	0		120	74.0	2.5	/experiments/knapen_AOT/AOT_stimuli/rescaled_final/2042_rv.mp4	0.0	340.6511597633362	1.0001020431518555
76	318.33993101119995	pulse	0	t		74.0	2.5	/experiments/knapen_AOT/AOT_stimuli/rescaled_final/2042_rv.mp4	0.0	340.82731795310974	
76	319.16387486457825	movie	1		246	74.0	2.5	/experiments/knapen_AOT/AOT_stimuli/rescaled_final/2042_rv.mp4	0.0	341.65126180648804	2.5004079341888428
76	319.9402058124542	pulse	1	t		74.0	2.5	/experiments/knapen_AOT/AOT_stimuli/rescaled_final/2042_rv.mp4	0.0	342.427592754364	
76	321.5402820110321	pulse	1	t		74.0	2.5	/experiments/knapen_AOT/AOT_stimuli/rescaled_final/2042_rv.mp4	0.0	344.0276689529419	
76	321.6642827987671	fix_post	2		9	74.0	2.5	/experiments/knapen_AOT/AOT_stimuli/rescaled_final/2042_rv.mp4	0.0	344.1516697406769	0.10006403923034668
77	321.76434683799744	fix_pre	0		120	75.0	2.5	/experiments/knapen_AOT/AOT_stimuli/rescaled_final/0251_fw.mp4	0.0	344.2517337799072	1.000115156173706
77	322.76446199417114	movie	1		244	75.0	2.5	/experiments/knapen_AOT/AOT_stimuli/rescaled_final/0251_fw.mp4	0.0	345.25184893608093	2.4920668601989746
77	323.1488308906555	pulse	1	t		75.0	2.5	/experiments/knapen_AOT/AOT_stimuli/rescaled_final/0251_fw.mp4	0.0	345.6362178325653	
77	324.7409338951111	pulse	1	t		75.0	2.5	/experiments/knapen_AOT/AOT_stimuli/rescaled_final/0251_fw.mp4	0.0	347.2283208370209	
77	325.2565288543701	fix_post	2		12	75.0	2.5	/experiments/knapen_AOT/AOT_stimuli/rescaled_final/0251_fw.mp4	0.0	347.7439157962799	0.09997105598449707
78	325.3564999103546	fix_pre	0		119	76.0	2.5	blank	1.0	347.8438868522644	0.9918410778045654
78	326.34027791023254	pulse	0	t		76.0	2.5	blank	1.0	348.82766485214233	
78	326.3483409881592	movie	1		301	76.0	2.5	blank	1.0	348.83572793006897	2.50870680809021
78	327.9404158592224	pulse	1	t		76.0	2.5	blank	1.0	350.4278028011322	
78	328.8570477962494	fix_post	2		12	76.0	2.5	blank	1.0	351.3444347381592	0.10002517700195312
79	328.95707297325134	fix_pre	0		120	77.0	2.5	/experiments/knapen_AOT/AOT_stimuli/rescaled_final/1353_fw.mp4	0.0	351.44445991516113	1.0001208782196045
79	329.54077887535095	pulse	0	t		77.0	2.5	/experiments/knapen_AOT/AOT_stimuli/rescaled_final/1353_fw.mp4	0.0	352.02816581726074	
79	329.95719385147095	movie	1		244	77.0	2.5	/experiments/knapen_AOT/AOT_stimuli/rescaled_final/1353_fw.mp4	0.0	352.44458079338074	2.5003740787506104
79	331.1410939693451	pulse	1	t		77.0	2.5	/experiments/knapen_AOT/AOT_stimuli/rescaled_final/1353_fw.mp4	0.0	353.6284809112549	
79	332.45756793022156	fix_post	2		12	77.0	2.5	/experiments/knapen_AOT/AOT_stimuli/rescaled_final/1353_fw.mp4	0.0	354.94495487213135	0.1000070571899414
80	332.5575749874115	fix_pre	0		120	78.0	2.5	/experiments/knapen_AOT/AOT_stimuli/rescaled_final/0546_rv.mp4	0.0	355.0449619293213	1.0001928806304932
80	332.74120593070984	pulse	0	t		78.0	2.5	/experiments/knapen_AOT/AOT_stimuli/rescaled_final/0546_rv.mp4	0.0	355.22859287261963	
80	333.557767868042	movie	1		244	78.0	2.5	/experiments/knapen_AOT/AOT_stimuli/rescaled_final/0546_rv.mp4	0.0	356.0451548099518	2.5003321170806885
80	334.3413939476013	pulse	1	t		78.0	2.5	/experiments/knapen_AOT/AOT_stimuli/rescaled_final/0546_rv.mp4	0.0	356.8287808895111	
80	335.9417498111725	pulse	1	t		78.0	2.5	/experiments/knapen_AOT/AOT_stimuli/rescaled_final/0546_rv.mp4	0.0	358.4291367530823	
80	336.0580999851227	fix_post	2		12	78.0	2.5	/experiments/knapen_AOT/AOT_stimuli/rescaled_final/0546_rv.mp4	0.0	358.54548692703247	0.10001897811889648
81	336.1581189632416	fix_pre	0		120	79.0	2.5	/experiments/knapen_AOT/AOT_stimuli/rescaled_final/0191_fw.mp4	0.0	358.64550590515137	1.0001239776611328
81	337.1582429409027	movie	1		244	79.0	2.5	/experiments/knapen_AOT/AOT_stimuli/rescaled_final/0191_fw.mp4	0.0	359.6456298828125	2.492037057876587
81	337.542377948761	pulse	1	t		79.0	2.5	/experiments/knapen_AOT/AOT_stimuli/rescaled_final/0191_fw.mp4	0.0	360.0297648906708	
81	339.142187833786	pulse	1	t		79.0	2.5	/experiments/knapen_AOT/AOT_stimuli/rescaled_final/0191_fw.mp4	0.0	361.6295747756958	
81	339.6502799987793	fix_post	2		12	79.0	2.5	/experiments/knapen_AOT/AOT_stimuli/rescaled_final/0191_fw.mp4	0.0	362.1376669406891	0.10004997253417969
82	339.7503299713135	fix_pre	0		120	80.0	2.5	/experiments/knapen_AOT/AOT_stimuli/rescaled_final/1467_fw.mp4	0.0	362.23771691322327	1.0001888275146484
82	340.7422959804535	pulse	0	t		80.0	2.5	/experiments/knapen_AOT/AOT_stimuli/rescaled_final/1467_fw.mp4	0.0	363.2296829223633	
82	340.7505187988281	movie	1		245	80.0	2.5	/experiments/knapen_AOT/AOT_stimuli/rescaled_final/1467_fw.mp4	0.0	363.2379057407379	2.508634090423584
82	342.3439497947693	pulse	1	t		80.0	2.5	/experiments/knapen_AOT/AOT_stimuli/rescaled_final/1467_fw.mp4	0.0	364.8313367366791	
82	343.2591528892517	fix_post	2		12	80.0	2.5	/experiments/knapen_AOT/AOT_stimuli/rescaled_final/1467_fw.mp4	0.0	365.7465398311615	0.10005807876586914
83	343.3592109680176	fix_pre	0		120	81.0	2.5	/experiments/knapen_AOT/AOT_stimuli/rescaled_final/0212_rv.mp4	0.0	365.84659790992737	1.000152826309204
83	343.94293999671936	pulse	0	t		81.0	2.5	/experiments/knapen_AOT/AOT_stimuli/rescaled_final/0212_rv.mp4	0.0	366.43032693862915	
83	344.3593637943268	movie	1		244	81.0	2.5	/experiments/knapen_AOT/AOT_stimuli/rescaled_final/0212_rv.mp4	0.0	366.8467507362366	2.5003230571746826
83	345.5432507991791	pulse	1	t		81.0	2.5	/experiments/knapen_AOT/AOT_stimuli/rescaled_final/0212_rv.mp4	0.0	368.03063774108887	
83	346.85968685150146	fix_post	2		12	81.0	2.5	/experiments/knapen_AOT/AOT_stimuli/rescaled_final/0212_rv.mp4	0.0	369.34707379341125	0.10006403923034668
84	346.9597508907318	fix_pre	0		120	82.0	2.5	blank	1.0	369.4471378326416	1.0001039505004883
84	347.14329981803894	pulse	0	t		82.0	2.5	blank	1.0	369.63068675994873	
84	347.9598548412323	movie	1		300	82.0	2.5	blank	1.0	370.4472417831421	2.500418186187744
84	348.74347281455994	pulse	1	t		82.0	2.5	blank	1.0	371.2308597564697	
84	350.3437809944153	pulse	1	t		82.0	2.5	blank	1.0	372.8311679363251	
84	350.46027302742004	fix_post	2		12	82.0	2.5	blank	1.0	372.94765996932983	0.09998297691345215
85	350.5602560043335	fix_pre	0		119	83.0	2.5	/experiments/knapen_AOT/AOT_stimuli/rescaled_final/1131_rv.mp4	0.0	373.0476429462433	0.9918379783630371
85	351.55209398269653	movie	1		244	83.0	2.5	/experiments/knapen_AOT/AOT_stimuli/rescaled_final/1131_rv.mp4	0.0	374.0394809246063	2.5003888607025146
85	351.94421195983887	pulse	1	t		83.0	2.5	/experiments/knapen_AOT/AOT_stimuli/rescaled_final/1131_rv.mp4	0.0	374.43159890174866	
85	353.54425501823425	pulse	1	t		83.0	2.5	/experiments/knapen_AOT/AOT_stimuli/rescaled_final/1131_rv.mp4	0.0	376.03164196014404	
85	354.05248284339905	fix_post	2		12	83.0	2.5	/experiments/knapen_AOT/AOT_stimuli/rescaled_final/1131_rv.mp4	0.0	376.53986978530884	0.09996914863586426
87	354.1524519920349	stim	0		1716					376.6398389339447	14.302271842956543
87	355.1444549560547	pulse	0	t						377.6318418979645	
87	356.7447409629822	pulse	0	t						379.23212790489197	
87	358.34508180618286	pulse	0	t						380.83246874809265	
87	359.94528102874756	pulse	0	t						382.43266797065735	
87	361.5454180240631	pulse	0	t						384.0328049659729	
87	363.14569187164307	pulse	0	t						385.63307881355286	
87	364.7459659576416	pulse	0	t						387.2333528995514	
87	366.3462178707123	pulse	0	t						388.83360481262207	
87	367.94631600379944	pulse	0	t						390.43370294570923	
