trial_nr	onset	event_type	phase	response	nr_frames	movie_index	movie_duration	movie_file	blank	onset_abs	duration
0	0.14992403984069824	stim	0		121					23.7340030670166	1.00826096534729
0	1.1501858234405518	response	0	space						24.734264850616455	
1	1.1581850051879883	stim	0		40972					24.74226403236389	341.4317629337311
1	342.58484983444214	pulse	0	t						366.16892886161804	
1	342.58994793891907	stim	1		1717					366.17402696609497	14.30816388130188
1	344.1817829608917	pulse	1	t						367.7658619880676	
1	345.7816879749298	pulse	1	t						369.3657670021057	
1	347.38174700737	pulse	1	t						370.9658260345459	
1	348.98183393478394	pulse	1	t						372.56591296195984	
1	350.58174085617065	pulse	1	t						374.16581988334656	
1	352.18177485466003	pulse	1	t						375.76585388183594	
1	353.78169894218445	pulse	1	t						377.36577796936035	
1	355.38173484802246	pulse	1	t						378.96581387519836	
2	356.89811182022095	fix_pre	0		11	0.0	2.5	/experiments/AOT/AOT_stimuli/rescaled_final/0165_fw.mp4	0.0	380.48219084739685	0.09171009063720703
2	356.98178696632385	pulse	0	t		0.0	2.5	/experiments/AOT/AOT_stimuli/rescaled_final/0165_fw.mp4	0.0	380.56586599349976	
2	356.98982191085815	movie	1		240	0.0	2.5	/experiments/AOT/AOT_stimuli/rescaled_final/0165_fw.mp4	0.0	380.57390093803406	2.5084290504455566
2	358.58123302459717	pulse	1	t		0.0	2.5	/experiments/AOT/AOT_stimuli/rescaled_final/0165_fw.mp4	0.0	382.16531205177307	
2	359.4982509613037	fix_post	2		12	0.0	2.5	/experiments/AOT/AOT_stimuli/rescaled_final/0165_fw.mp4	0.0	383.0823299884796	0.09996199607849121
3	359.5982129573822	fix_pre	0		120	1.0	2.5	/experiments/AOT/AOT_stimuli/rescaled_final/0335_fw.mp4	0.0	383.1822919845581	1.0000560283660889
3	360.1817579269409	pulse	0	t		1.0	2.5	/experiments/AOT/AOT_stimuli/rescaled_final/0335_fw.mp4	0.0	383.7658369541168	
3	360.5982689857483	movie	1		242	1.0	2.5	/experiments/AOT/AOT_stimuli/rescaled_final/0335_fw.mp4	0.0	384.1823480129242	2.499990940093994
3	361.7818019390106	pulse	1	t		1.0	2.5	/experiments/AOT/AOT_stimuli/rescaled_final/0335_fw.mp4	0.0	385.3658809661865	
3	363.0982599258423	fix_post	2		12	1.0	2.5	/experiments/AOT/AOT_stimuli/rescaled_final/0335_fw.mp4	0.0	386.6823389530182	0.10009598731994629
4	363.19835591316223	fix_pre	0		120	2.0	2.5	/experiments/AOT/AOT_stimuli/rescaled_final/0895_fw.mp4	0.0	386.78243494033813	0.999920129776001
4	363.38166403770447	pulse	0	t		2.0	2.5	/experiments/AOT/AOT_stimuli/rescaled_final/0895_fw.mp4	0.0	386.96574306488037	
4	364.19827604293823	movie	1		245	2.0	2.5	/experiments/AOT/AOT_stimuli/rescaled_final/0895_fw.mp4	0.0	387.78235507011414	2.4998939037323
4	364.98167300224304	pulse	1	t		2.0	2.5	/experiments/AOT/AOT_stimuli/rescaled_final/0895_fw.mp4	0.0	388.56575202941895	
4	366.57980394363403	pulse	1	t		2.0	2.5	/experiments/AOT/AOT_stimuli/rescaled_final/0895_fw.mp4	0.0	390.16388297080994	
4	366.69816994667053	fix_post	2		12	2.0	2.5	/experiments/AOT/AOT_stimuli/rescaled_final/0895_fw.mp4	0.0	390.28224897384644	0.10004806518554688
5	366.7982180118561	fix_pre	0		120	3.0	2.5	/experiments/AOT/AOT_stimuli/rescaled_final/0601_fw.mp4	0.0	390.382297039032	1.0000379085540771
5	367.79825592041016	movie	1		245	3.0	2.5	/experiments/AOT/AOT_stimuli/rescaled_final/0601_fw.mp4	0.0	391.38233494758606	2.499427080154419
5	368.18131494522095	pulse	1	t		3.0	2.5	/experiments/AOT/AOT_stimuli/rescaled_final/0601_fw.mp4	0.0	391.76539397239685	
5	369.7816848754883	pulse	1	t		3.0	2.5	/experiments/AOT/AOT_stimuli/rescaled_final/0601_fw.mp4	0.0	393.3657639026642	
5	370.2976830005646	fix_post	2		12	3.0	2.5	/experiments/AOT/AOT_stimuli/rescaled_final/0601_fw.mp4	0.0	393.8817620277405	0.1004788875579834
6	370.39816188812256	fix_pre	0		119	4.0	2.5	/experiments/AOT/AOT_stimuli/rescaled_final/1016_fw.mp4	0.0	393.98224091529846	0.9917359352111816
6	371.38169288635254	pulse	0	t		4.0	2.5	/experiments/AOT/AOT_stimuli/rescaled_final/1016_fw.mp4	0.0	394.96577191352844	
6	371.38989782333374	movie	1		244	4.0	2.5	/experiments/AOT/AOT_stimuli/rescaled_final/1016_fw.mp4	0.0	394.97397685050964	2.5082430839538574
6	372.9817819595337	pulse	1	t		4.0	2.5	/experiments/AOT/AOT_stimuli/rescaled_final/1016_fw.mp4	0.0	396.5658609867096	
6	373.8981409072876	fix_post	2		12	4.0	2.5	/experiments/AOT/AOT_stimuli/rescaled_final/1016_fw.mp4	0.0	397.4822199344635	0.09997105598449707
7	373.9981119632721	fix_pre	0		120	5.0	2.5	/experiments/AOT/AOT_stimuli/rescaled_final/0883_fw.mp4	0.0	397.582190990448	0.9996168613433838
7	374.581750869751	pulse	0	t		5.0	2.5	/experiments/AOT/AOT_stimuli/rescaled_final/0883_fw.mp4	0.0	398.1658298969269	
7	374.9977288246155	movie	1		244	5.0	2.5	/experiments/AOT/AOT_stimuli/rescaled_final/0883_fw.mp4	0.0	398.5818078517914	2.5004031658172607
7	376.1817169189453	pulse	1	t		5.0	2.5	/experiments/AOT/AOT_stimuli/rescaled_final/0883_fw.mp4	0.0	399.7657959461212	
7	377.49813199043274	fix_post	2		12	5.0	2.5	/experiments/AOT/AOT_stimuli/rescaled_final/0883_fw.mp4	0.0	401.08221101760864	0.10002493858337402
8	377.5981569290161	fix_pre	0		120	6.0	2.5	/experiments/AOT/AOT_stimuli/rescaled_final/1988_rv.mp4	0.0	401.182235956192	0.999924898147583
8	377.78163981437683	pulse	0	t		6.0	2.5	/experiments/AOT/AOT_stimuli/rescaled_final/1988_rv.mp4	0.0	401.36571884155273	
8	378.5980818271637	movie	1		244	6.0	2.5	/experiments/AOT/AOT_stimuli/rescaled_final/1988_rv.mp4	0.0	402.1821608543396	2.4996771812438965
8	379.3811888694763	pulse	1	t		6.0	2.5	/experiments/AOT/AOT_stimuli/rescaled_final/1988_rv.mp4	0.0	402.9652678966522	
8	380.97971987724304	pulse	1	t		6.0	2.5	/experiments/AOT/AOT_stimuli/rescaled_final/1988_rv.mp4	0.0	404.56379890441895	
8	381.0977590084076	fix_post	2		12	6.0	2.5	/experiments/AOT/AOT_stimuli/rescaled_final/1988_rv.mp4	0.0	404.6818380355835	0.10005903244018555
9	381.1978180408478	fix_pre	0		120	7.0	2.5	blank	1.0	404.7818970680237	1.0001649856567383
9	382.1979830265045	movie	1		300	7.0	2.5	blank	1.0	405.7820620536804	2.499663829803467
9	382.5814878940582	pulse	1	t		7.0	2.5	blank	1.0	406.16556692123413	
9	384.1815948486328	pulse	1	t		7.0	2.5	blank	1.0	407.7656738758087	
9	384.697646856308	fix_post	2		12	7.0	2.5	blank	1.0	408.2817258834839	0.10047411918640137
10	384.7981209754944	fix_pre	0		119	8.0	2.5	/experiments/AOT/AOT_stimuli/rescaled_final/0671_rv.mp4	0.0	408.3822000026703	0.991595983505249
10	385.7815580368042	pulse	0	t		8.0	2.5	/experiments/AOT/AOT_stimuli/rescaled_final/0671_rv.mp4	0.0	409.3656370639801	
10	385.78971695899963	movie	1		245	8.0	2.5	/experiments/AOT/AOT_stimuli/rescaled_final/0671_rv.mp4	0.0	409.37379598617554	2.5082929134368896
10	387.3811650276184	pulse	1	t		8.0	2.5	/experiments/AOT/AOT_stimuli/rescaled_final/0671_rv.mp4	0.0	410.9652440547943	
10	388.2980098724365	fix_post	2		12	8.0	2.5	/experiments/AOT/AOT_stimuli/rescaled_final/0671_rv.mp4	0.0	411.8820888996124	0.09999203681945801
11	388.398001909256	fix_pre	0		120	9.0	2.5	/experiments/AOT/AOT_stimuli/rescaled_final/1705_fw.mp4	0.0	411.9820809364319	1.0000801086425781
11	388.98145484924316	pulse	0	t		9.0	2.5	/experiments/AOT/AOT_stimuli/rescaled_final/1705_fw.mp4	0.0	412.56553387641907	
11	389.39808201789856	movie	1		243	9.0	2.5	/experiments/AOT/AOT_stimuli/rescaled_final/1705_fw.mp4	0.0	412.98216104507446	2.4999639987945557
11	390.5815830230713	pulse	1	t		9.0	2.5	/experiments/AOT/AOT_stimuli/rescaled_final/1705_fw.mp4	0.0	414.1656620502472	
11	391.8980460166931	fix_post	2		12	9.0	2.5	/experiments/AOT/AOT_stimuli/rescaled_final/1705_fw.mp4	0.0	415.482125043869	0.10014200210571289
12	391.9981880187988	fix_pre	0		120	10.0	2.5	/experiments/AOT/AOT_stimuli/rescaled_final/1918_rv.mp4	0.0	415.58226704597473	0.9994399547576904
12	392.181480884552	pulse	0	t		10.0	2.5	/experiments/AOT/AOT_stimuli/rescaled_final/1918_rv.mp4	0.0	415.7655599117279	
12	392.9976279735565	movie	1		245	10.0	2.5	/experiments/AOT/AOT_stimuli/rescaled_final/1918_rv.mp4	0.0	416.5817070007324	2.5003979206085205
12	393.78143787384033	pulse	1	t		10.0	2.5	/experiments/AOT/AOT_stimuli/rescaled_final/1918_rv.mp4	0.0	417.36551690101624	
12	395.37982296943665	pulse	1	t		10.0	2.5	/experiments/AOT/AOT_stimuli/rescaled_final/1918_rv.mp4	0.0	418.96390199661255	
12	395.49802589416504	fix_post	2		12	10.0	2.5	/experiments/AOT/AOT_stimuli/rescaled_final/1918_rv.mp4	0.0	419.08210492134094	0.10000991821289062
13	395.59803581237793	fix_pre	0		120	11.0	2.5	/experiments/AOT/AOT_stimuli/rescaled_final/1014_fw.mp4	0.0	419.18211483955383	0.9999880790710449
13	396.598023891449	movie	1		245	11.0	2.5	/experiments/AOT/AOT_stimuli/rescaled_final/1014_fw.mp4	0.0	420.1821029186249	2.499545097351074
13	396.98288893699646	pulse	1	t		11.0	2.5	/experiments/AOT/AOT_stimuli/rescaled_final/1014_fw.mp4	0.0	420.56696796417236	
13	398.58145785331726	pulse	1	t		11.0	2.5	/experiments/AOT/AOT_stimuli/rescaled_final/1014_fw.mp4	0.0	422.16553688049316	
13	399.09756898880005	fix_post	2		12	11.0	2.5	/experiments/AOT/AOT_stimuli/rescaled_final/1014_fw.mp4	0.0	422.68164801597595	0.10035085678100586
14	399.19791984558105	fix_pre	0		119	12.0	2.5	/experiments/AOT/AOT_stimuli/rescaled_final/0662_rv.mp4	0.0	422.78199887275696	0.991706132888794
14	400.18145203590393	pulse	0	t		12.0	2.5	/experiments/AOT/AOT_stimuli/rescaled_final/0662_rv.mp4	0.0	423.76553106307983	
14	400.18962597846985	movie	1		244	12.0	2.5	/experiments/AOT/AOT_stimuli/rescaled_final/0662_rv.mp4	0.0	423.77370500564575	2.508431911468506
14	401.7811849117279	pulse	1	t		12.0	2.5	/experiments/AOT/AOT_stimuli/rescaled_final/0662_rv.mp4	0.0	425.3652639389038	
14	402.69805788993835	fix_post	2		12	12.0	2.5	/experiments/AOT/AOT_stimuli/rescaled_final/0662_rv.mp4	0.0	426.28213691711426	0.09991908073425293
15	402.7979769706726	fix_pre	0		120	13.0	2.5	blank	1.0	426.3820559978485	1.0000050067901611
15	403.381511926651	pulse	0	t		13.0	2.5	blank	1.0	426.9655909538269	
15	403.79798197746277	movie	1		300	13.0	2.5	blank	1.0	427.3820610046387	2.499664068222046
15	404.9814670085907	pulse	1	t		13.0	2.5	blank	1.0	428.5655460357666	
15	406.2976460456848	fix_post	2		12	13.0	2.5	blank	1.0	429.8817250728607	0.10038280487060547
16	406.3980288505554	fix_pre	0		120	14.0	2.5	/experiments/AOT/AOT_stimuli/rescaled_final/1743_rv.mp4	0.0	429.9821078777313	0.9999871253967285
16	406.5815169811249	pulse	0	t		14.0	2.5	/experiments/AOT/AOT_stimuli/rescaled_final/1743_rv.mp4	0.0	430.1655960083008	
16	407.39801597595215	movie	1		243	14.0	2.5	/experiments/AOT/AOT_stimuli/rescaled_final/1743_rv.mp4	0.0	430.98209500312805	2.4998910427093506
16	408.18143582344055	pulse	1	t		14.0	2.5	/experiments/AOT/AOT_stimuli/rescaled_final/1743_rv.mp4	0.0	431.76551485061646	
16	409.78003787994385	pulse	1	t		14.0	2.5	/experiments/AOT/AOT_stimuli/rescaled_final/1743_rv.mp4	0.0	433.36411690711975	
16	409.8979070186615	fix_post	2		12	14.0	2.5	/experiments/AOT/AOT_stimuli/rescaled_final/1743_rv.mp4	0.0	433.4819860458374	0.10007786750793457
17	409.99798488616943	fix_pre	0		120	15.0	2.5	/experiments/AOT/AOT_stimuli/rescaled_final/0704_fw.mp4	0.0	433.58206391334534	0.9999909400939941
17	410.9979758262634	movie	1		245	15.0	2.5	/experiments/AOT/AOT_stimuli/rescaled_final/0704_fw.mp4	0.0	434.58205485343933	2.4998881816864014
17	411.38116788864136	pulse	1	t		15.0	2.5	/experiments/AOT/AOT_stimuli/rescaled_final/0704_fw.mp4	0.0	434.96524691581726	
17	412.98146390914917	pulse	1	t		15.0	2.5	/experiments/AOT/AOT_stimuli/rescaled_final/0704_fw.mp4	0.0	436.5655429363251	
17	413.49786400794983	fix_post	2		12	15.0	2.5	/experiments/AOT/AOT_stimuli/rescaled_final/0704_fw.mp4	0.0	437.08194303512573	0.1000528335571289
18	413.59791684150696	fix_pre	0		119	16.0	2.5	/experiments/AOT/AOT_stimuli/rescaled_final/0996_rv.mp4	0.0	437.18199586868286	0.991706132888794
18	414.5814468860626	pulse	0	t		16.0	2.5	/experiments/AOT/AOT_stimuli/rescaled_final/0996_rv.mp4	0.0	438.1655259132385	
18	414.58962297439575	movie	1		247	16.0	2.5	/experiments/AOT/AOT_stimuli/rescaled_final/0996_rv.mp4	0.0	438.17370200157166	2.5083789825439453
18	416.1813118457794	pulse	1	t		16.0	2.5	/experiments/AOT/AOT_stimuli/rescaled_final/0996_rv.mp4	0.0	439.7653908729553	
18	417.0980019569397	fix_post	2		12	16.0	2.5	/experiments/AOT/AOT_stimuli/rescaled_final/0996_rv.mp4	0.0	440.6820809841156	0.09999895095825195
19	417.19800090789795	fix_pre	0		120	17.0	2.5	/experiments/AOT/AOT_stimuli/rescaled_final/0601_fw.mp4	0.0	440.78207993507385	1.0000269412994385
19	417.7814688682556	pulse	0	t		17.0	2.5	/experiments/AOT/AOT_stimuli/rescaled_final/0601_fw.mp4	0.0	441.3655478954315	
19	418.1980278491974	movie	1		246	17.0	2.5	/experiments/AOT/AOT_stimuli/rescaled_final/0601_fw.mp4	0.0	441.7821068763733	2.5000901222229004
19	419.3814389705658	pulse	1	t		17.0	2.5	/experiments/AOT/AOT_stimuli/rescaled_final/0601_fw.mp4	0.0	442.9655179977417	
19	420.6981179714203	fix_post	2		12	17.0	2.5	/experiments/AOT/AOT_stimuli/rescaled_final/0601_fw.mp4	0.0	444.2821969985962	0.0998539924621582
20	420.79797196388245	fix_pre	0		120	18.0	2.5	/experiments/AOT/AOT_stimuli/rescaled_final/1255_rv.mp4	0.0	444.38205099105835	1.00006103515625
20	420.9814438819885	pulse	0	t		18.0	2.5	/experiments/AOT/AOT_stimuli/rescaled_final/1255_rv.mp4	0.0	444.56552290916443	
20	421.7980329990387	movie	1		243	18.0	2.5	/experiments/AOT/AOT_stimuli/rescaled_final/1255_rv.mp4	0.0	445.3821120262146	2.499819040298462
20	422.581405878067	pulse	1	t		18.0	2.5	/experiments/AOT/AOT_stimuli/rescaled_final/1255_rv.mp4	0.0	446.1654849052429	
20	424.1800220012665	pulse	1	t		18.0	2.5	/experiments/AOT/AOT_stimuli/rescaled_final/1255_rv.mp4	0.0	447.7641010284424	
20	424.29785203933716	fix_post	2		12	18.0	2.5	/experiments/AOT/AOT_stimuli/rescaled_final/1255_rv.mp4	0.0	447.88193106651306	0.10004377365112305
21	424.3978958129883	fix_pre	0		120	19.0	2.5	/experiments/AOT/AOT_stimuli/rescaled_final/0969_rv.mp4	0.0	447.9819748401642	1.000075101852417
21	425.3979709148407	movie	1		245	19.0	2.5	/experiments/AOT/AOT_stimuli/rescaled_final/0969_rv.mp4	0.0	448.9820499420166	2.499898910522461
21	425.7811028957367	pulse	1	t		19.0	2.5	/experiments/AOT/AOT_stimuli/rescaled_final/0969_rv.mp4	0.0	449.3651819229126	
21	427.3814899921417	pulse	1	t		19.0	2.5	/experiments/AOT/AOT_stimuli/rescaled_final/0969_rv.mp4	0.0	450.9655690193176	
21	427.89786982536316	fix_post	2		12	19.0	2.5	/experiments/AOT/AOT_stimuli/rescaled_final/0969_rv.mp4	0.0	451.48194885253906	0.10003018379211426
22	427.9979000091553	fix_pre	0		119	20.0	2.5	/experiments/AOT/AOT_stimuli/rescaled_final/1255_rv.mp4	0.0	451.5819790363312	0.9916119575500488
22	428.9815058708191	pulse	0	t		20.0	2.5	/experiments/AOT/AOT_stimuli/rescaled_final/1255_rv.mp4	0.0	452.565584897995	
22	428.9895119667053	movie	1		244	20.0	2.5	/experiments/AOT/AOT_stimuli/rescaled_final/1255_rv.mp4	0.0	452.5735909938812	2.508358955383301
22	430.58109498023987	pulse	1	t		20.0	2.5	/experiments/AOT/AOT_stimuli/rescaled_final/1255_rv.mp4	0.0	454.16517400741577	
22	431.4978709220886	fix_post	2		12	20.0	2.5	/experiments/AOT/AOT_stimuli/rescaled_final/1255_rv.mp4	0.0	455.0819499492645	0.09999608993530273
23	431.5978670120239	fix_pre	0		120	21.0	2.5	blank	1.0	455.18194603919983	1.0000228881835938
23	432.1814239025116	pulse	0	t		21.0	2.5	blank	1.0	455.7655029296875	
23	432.5978899002075	movie	1		300	21.0	2.5	blank	1.0	456.1819689273834	2.4999730587005615
23	433.78148889541626	pulse	1	t		21.0	2.5	blank	1.0	457.36556792259216	
23	435.0978629589081	fix_post	2		12	21.0	2.5	blank	1.0	458.681941986084	0.09956192970275879
24	435.19742488861084	fix_pre	0		120	22.0	2.5	/experiments/AOT/AOT_stimuli/rescaled_final/0715_fw.mp4	0.0	458.78150391578674	1.00046706199646
24	435.3808898925781	pulse	0	t		22.0	2.5	/experiments/AOT/AOT_stimuli/rescaled_final/0715_fw.mp4	0.0	458.964968919754	
24	436.1978919506073	movie	1		244	22.0	2.5	/experiments/AOT/AOT_stimuli/rescaled_final/0715_fw.mp4	0.0	459.7819709777832	2.4998779296875
24	436.9809339046478	pulse	1	t		22.0	2.5	/experiments/AOT/AOT_stimuli/rescaled_final/0715_fw.mp4	0.0	460.56501293182373	
24	438.58126187324524	pulse	1	t		22.0	2.5	/experiments/AOT/AOT_stimuli/rescaled_final/0715_fw.mp4	0.0	462.16534090042114	
24	438.6977698802948	fix_post	2		12	22.0	2.5	/experiments/AOT/AOT_stimuli/rescaled_final/0715_fw.mp4	0.0	462.2818489074707	0.10047698020935059
25	438.79824686050415	fix_pre	0		120	23.0	2.5	/experiments/AOT/AOT_stimuli/rescaled_final/1288_fw.mp4	0.0	462.38232588768005	0.9996190071105957
25	439.79786586761475	movie	1		245	23.0	2.5	/experiments/AOT/AOT_stimuli/rescaled_final/1288_fw.mp4	0.0	463.38194489479065	2.499988079071045
25	440.1809289455414	pulse	1	t		23.0	2.5	/experiments/AOT/AOT_stimuli/rescaled_final/1288_fw.mp4	0.0	463.7650079727173	
25	441.78139781951904	pulse	1	t		23.0	2.5	/experiments/AOT/AOT_stimuli/rescaled_final/1288_fw.mp4	0.0	465.36547684669495	
25	442.2978539466858	fix_post	2		12	23.0	2.5	/experiments/AOT/AOT_stimuli/rescaled_final/1288_fw.mp4	0.0	465.8819329738617	0.09991002082824707
26	442.39776396751404	fix_pre	0		119	24.0	2.5	/experiments/AOT/AOT_stimuli/rescaled_final/1995_rv.mp4	0.0	465.98184299468994	0.9918050765991211
26	443.3813509941101	pulse	0	t		24.0	2.5	/experiments/AOT/AOT_stimuli/rescaled_final/1995_rv.mp4	0.0	466.965430021286	
26	443.38956904411316	movie	1		246	24.0	2.5	/experiments/AOT/AOT_stimuli/rescaled_final/1995_rv.mp4	0.0	466.97364807128906	2.5078117847442627
26	444.98109793663025	pulse	1	t		24.0	2.5	/experiments/AOT/AOT_stimuli/rescaled_final/1995_rv.mp4	0.0	468.56517696380615	
26	445.8973808288574	fix_post	2		12	24.0	2.5	/experiments/AOT/AOT_stimuli/rescaled_final/1995_rv.mp4	0.0	469.4814598560333	0.10044503211975098
27	445.9978258609772	fix_pre	0		120	25.0	2.5	/experiments/AOT/AOT_stimuli/rescaled_final/0950_fw.mp4	0.0	469.5819048881531	0.9999210834503174
27	446.58125495910645	pulse	0	t		25.0	2.5	/experiments/AOT/AOT_stimuli/rescaled_final/0950_fw.mp4	0.0	470.16533398628235	
27	446.9977469444275	movie	1		244	25.0	2.5	/experiments/AOT/AOT_stimuli/rescaled_final/0950_fw.mp4	0.0	470.5818259716034	2.4999868869781494
27	448.1813428401947	pulse	1	t		25.0	2.5	/experiments/AOT/AOT_stimuli/rescaled_final/0950_fw.mp4	0.0	471.7654218673706	
27	449.49773383140564	fix_post	2		12	25.0	2.5	/experiments/AOT/AOT_stimuli/rescaled_final/0950_fw.mp4	0.0	473.08181285858154	0.10008621215820312
28	449.59782004356384	fix_pre	0		120	26.0	2.5	blank	1.0	473.18189907073975	0.9999268054962158
28	449.7812600135803	pulse	0	t		26.0	2.5	blank	1.0	473.3653390407562	
28	450.59774684906006	movie	1		300	26.0	2.5	blank	1.0	474.18182587623596	2.499986171722412
28	451.38123083114624	pulse	1	t		26.0	2.5	blank	1.0	474.96530985832214	
28	452.98120188713074	pulse	1	t		26.0	2.5	blank	1.0	476.56528091430664	
28	453.09773302078247	fix_post	2		12	26.0	2.5	blank	1.0	476.6818120479584	0.09994697570800781
29	453.1976799964905	fix_pre	0		120	27.0	2.5	/experiments/AOT/AOT_stimuli/rescaled_final/0890_rv.mp4	0.0	476.7817590236664	1.000143051147461
29	454.19782304763794	movie	1		245	27.0	2.5	/experiments/AOT/AOT_stimuli/rescaled_final/0890_rv.mp4	0.0	477.78190207481384	2.4999048709869385
29	454.58088088035583	pulse	1	t		27.0	2.5	/experiments/AOT/AOT_stimuli/rescaled_final/0890_rv.mp4	0.0	478.16495990753174	
29	456.18119192123413	pulse	1	t		27.0	2.5	/experiments/AOT/AOT_stimuli/rescaled_final/0890_rv.mp4	0.0	479.76527094841003	
29	456.6977279186249	fix_post	2		12	27.0	2.5	/experiments/AOT/AOT_stimuli/rescaled_final/0890_rv.mp4	0.0	480.2818069458008	0.10004305839538574
30	456.79777097702026	fix_pre	0		119	28.0	2.5	/experiments/AOT/AOT_stimuli/rescaled_final/0014_fw.mp4	0.0	480.38185000419617	0.9917459487915039
30	457.78132486343384	pulse	0	t		28.0	2.5	/experiments/AOT/AOT_stimuli/rescaled_final/0014_fw.mp4	0.0	481.36540389060974	
30	457.78951692581177	movie	1		247	28.0	2.5	/experiments/AOT/AOT_stimuli/rescaled_final/0014_fw.mp4	0.0	481.37359595298767	2.5083088874816895
30	459.38066601753235	pulse	1	t		28.0	2.5	/experiments/AOT/AOT_stimuli/rescaled_final/0014_fw.mp4	0.0	482.96474504470825	
30	460.29782581329346	fix_post	2		12	28.0	2.5	/experiments/AOT/AOT_stimuli/rescaled_final/0014_fw.mp4	0.0	483.88190484046936	0.09990501403808594
31	460.39773082733154	fix_pre	0		120	29.0	2.5	/experiments/AOT/AOT_stimuli/rescaled_final/0821_rv.mp4	0.0	483.98180985450745	1.000082015991211
31	460.9811809062958	pulse	0	t		29.0	2.5	/experiments/AOT/AOT_stimuli/rescaled_final/0821_rv.mp4	0.0	484.5652599334717	
31	461.39781284332275	movie	1		246	29.0	2.5	/experiments/AOT/AOT_stimuli/rescaled_final/0821_rv.mp4	0.0	484.98189187049866	2.499897003173828
31	462.58128690719604	pulse	1	t		29.0	2.5	/experiments/AOT/AOT_stimuli/rescaled_final/0821_rv.mp4	0.0	486.16536593437195	
31	463.8977098464966	fix_post	2		12	29.0	2.5	/experiments/AOT/AOT_stimuli/rescaled_final/0821_rv.mp4	0.0	487.4817888736725	0.10007810592651367
32	463.9977879524231	fix_pre	0		120	30.0	2.5	/experiments/AOT/AOT_stimuli/rescaled_final/0199_fw.mp4	0.0	487.581866979599	0.999985933303833
32	464.181254863739	pulse	0	t		30.0	2.5	/experiments/AOT/AOT_stimuli/rescaled_final/0199_fw.mp4	0.0	487.7653338909149	
32	464.99777388572693	movie	1		246	30.0	2.5	/experiments/AOT/AOT_stimuli/rescaled_final/0199_fw.mp4	0.0	488.58185291290283	2.4999330043792725
32	465.7812259197235	pulse	1	t		30.0	2.5	/experiments/AOT/AOT_stimuli/rescaled_final/0199_fw.mp4	0.0	489.3653049468994	
32	467.38127088546753	pulse	1	t		30.0	2.5	/experiments/AOT/AOT_stimuli/rescaled_final/0199_fw.mp4	0.0	490.96534991264343	
32	467.4977068901062	fix_post	2		12	30.0	2.5	/experiments/AOT/AOT_stimuli/rescaled_final/0199_fw.mp4	0.0	491.0817859172821	0.09958600997924805
33	467.59729290008545	fix_pre	0		120	31.0	2.5	/experiments/AOT/AOT_stimuli/rescaled_final/1287_rv.mp4	0.0	491.18137192726135	1.0004289150238037
33	468.59772181510925	movie	1		244	31.0	2.5	/experiments/AOT/AOT_stimuli/rescaled_final/1287_rv.mp4	0.0	492.18180084228516	2.5000100135803223
33	468.9807460308075	pulse	1	t		31.0	2.5	/experiments/AOT/AOT_stimuli/rescaled_final/1287_rv.mp4	0.0	492.5648250579834	
33	470.5812020301819	pulse	1	t		31.0	2.5	/experiments/AOT/AOT_stimuli/rescaled_final/1287_rv.mp4	0.0	494.1652810573578	
33	471.0977318286896	fix_post	2		12	31.0	2.5	/experiments/AOT/AOT_stimuli/rescaled_final/1287_rv.mp4	0.0	494.6818108558655	0.09997105598449707
34	471.1977028846741	fix_pre	0		119	32.0	2.5	/experiments/AOT/AOT_stimuli/rescaled_final/0368_fw.mp4	0.0	494.78178191185	0.9916970729827881
34	472.18132400512695	pulse	0	t		32.0	2.5	/experiments/AOT/AOT_stimuli/rescaled_final/0368_fw.mp4	0.0	495.76540303230286	
34	472.18939995765686	movie	1		245	32.0	2.5	/experiments/AOT/AOT_stimuli/rescaled_final/0368_fw.mp4	0.0	495.77347898483276	2.5082309246063232
34	473.78091287612915	pulse	1	t		32.0	2.5	/experiments/AOT/AOT_stimuli/rescaled_final/0368_fw.mp4	0.0	497.36499190330505	
34	474.6976308822632	fix_post	2		12	32.0	2.5	/experiments/AOT/AOT_stimuli/rescaled_final/0368_fw.mp4	0.0	498.2817099094391	0.1000051498413086
35	474.7976360321045	fix_pre	0		120	33.0	2.5	/experiments/AOT/AOT_stimuli/rescaled_final/0101_fw.mp4	0.0	498.3817150592804	0.9999229907989502
35	475.3811728954315	pulse	0	t		33.0	2.5	/experiments/AOT/AOT_stimuli/rescaled_final/0101_fw.mp4	0.0	498.9652519226074	
35	475.79755902290344	movie	1		242	33.0	2.5	/experiments/AOT/AOT_stimuli/rescaled_final/0101_fw.mp4	0.0	499.38163805007935	2.4997220039367676
35	476.9812710285187	pulse	1	t		33.0	2.5	/experiments/AOT/AOT_stimuli/rescaled_final/0101_fw.mp4	0.0	500.5653500556946	
35	478.2972810268402	fix_post	2		12	33.0	2.5	/experiments/AOT/AOT_stimuli/rescaled_final/0101_fw.mp4	0.0	501.8813600540161	0.10049200057983398
36	478.39777302742004	fix_pre	0		120	34.0	2.5	blank	1.0	501.98185205459595	0.9998419284820557
36	478.58110904693604	pulse	0	t		34.0	2.5	blank	1.0	502.16518807411194	
36	479.3976149559021	movie	1		300	34.0	2.5	blank	1.0	502.981693983078	2.500074863433838
36	480.18111395835876	pulse	1	t		34.0	2.5	blank	1.0	503.76519298553467	
36	481.781124830246	pulse	1	t		34.0	2.5	blank	1.0	505.3652038574219	
36	481.89768981933594	fix_post	2		12	34.0	2.5	blank	1.0	505.48176884651184	0.09995317459106445
37	481.997642993927	fix_pre	0		120	35.0	2.5	/experiments/AOT/AOT_stimuli/rescaled_final/0335_rv.mp4	0.0	505.5817220211029	1.0000560283660889
37	482.9976990222931	movie	1		243	35.0	2.5	/experiments/AOT/AOT_stimuli/rescaled_final/0335_rv.mp4	0.0	506.581778049469	2.499509811401367
37	483.3807170391083	pulse	1	t		35.0	2.5	/experiments/AOT/AOT_stimuli/rescaled_final/0335_rv.mp4	0.0	506.9647960662842	
37	484.9810848236084	pulse	1	t		35.0	2.5	/experiments/AOT/AOT_stimuli/rescaled_final/0335_rv.mp4	0.0	508.5651638507843	
37	485.49720883369446	fix_post	2		12	35.0	2.5	/experiments/AOT/AOT_stimuli/rescaled_final/0335_rv.mp4	0.0	509.08128786087036	0.10043716430664062
38	485.5976459980011	fix_pre	0		119	36.0	2.5	/experiments/AOT/AOT_stimuli/rescaled_final/2080_fw.mp4	0.0	509.181725025177	0.9916419982910156
38	486.5811359882355	pulse	0	t		36.0	2.5	/experiments/AOT/AOT_stimuli/rescaled_final/2080_fw.mp4	0.0	510.1652150154114	
38	486.5892879962921	movie	1		245	36.0	2.5	/experiments/AOT/AOT_stimuli/rescaled_final/2080_fw.mp4	0.0	510.173367023468	2.50832200050354
38	488.1822199821472	pulse	1	t		36.0	2.5	/experiments/AOT/AOT_stimuli/rescaled_final/2080_fw.mp4	0.0	511.7662990093231	
38	489.09760999679565	fix_post	2		12	36.0	2.5	/experiments/AOT/AOT_stimuli/rescaled_final/2080_fw.mp4	0.0	512.6816890239716	0.10003995895385742
39	489.1976499557495	fix_pre	0		120	37.0	2.5	/experiments/AOT/AOT_stimuli/rescaled_final/1690_rv.mp4	0.0	512.7817289829254	1.0000078678131104
39	489.781142950058	pulse	0	t		37.0	2.5	/experiments/AOT/AOT_stimuli/rescaled_final/1690_rv.mp4	0.0	513.3652219772339	
39	490.1976578235626	movie	1		245	37.0	2.5	/experiments/AOT/AOT_stimuli/rescaled_final/1690_rv.mp4	0.0	513.7817368507385	2.499666213989258
39	491.3811390399933	pulse	1	t		37.0	2.5	/experiments/AOT/AOT_stimuli/rescaled_final/1690_rv.mp4	0.0	514.9652180671692	
39	492.6973240375519	fix_post	2		12	37.0	2.5	/experiments/AOT/AOT_stimuli/rescaled_final/1690_rv.mp4	0.0	516.2814030647278	0.09998798370361328
40	492.7973120212555	fix_pre	0		120	38.0	2.5	/experiments/AOT/AOT_stimuli/rescaled_final/1824_rv.mp4	0.0	516.3813910484314	1.0000858306884766
40	492.98082399368286	pulse	0	t		38.0	2.5	/experiments/AOT/AOT_stimuli/rescaled_final/1824_rv.mp4	0.0	516.5649030208588	
40	493.79739785194397	movie	1		245	38.0	2.5	/experiments/AOT/AOT_stimuli/rescaled_final/1824_rv.mp4	0.0	517.3814768791199	2.5001790523529053
40	494.5809588432312	pulse	1	t		38.0	2.5	/experiments/AOT/AOT_stimuli/rescaled_final/1824_rv.mp4	0.0	518.1650378704071	
40	496.1807270050049	pulse	1	t		38.0	2.5	/experiments/AOT/AOT_stimuli/rescaled_final/1824_rv.mp4	0.0	519.7648060321808	
40	496.2975769042969	fix_post	2		12	38.0	2.5	/experiments/AOT/AOT_stimuli/rescaled_final/1824_rv.mp4	0.0	519.8816559314728	0.09998202323913574
41	496.397558927536	fix_pre	0		120	39.0	2.5	/experiments/AOT/AOT_stimuli/rescaled_final/1300_fw.mp4	0.0	519.9816379547119	1.000014066696167
41	497.3975729942322	movie	1		246	39.0	2.5	/experiments/AOT/AOT_stimuli/rescaled_final/1300_fw.mp4	0.0	520.9816520214081	2.499905824661255
41	497.7806718349457	pulse	1	t		39.0	2.5	/experiments/AOT/AOT_stimuli/rescaled_final/1300_fw.mp4	0.0	521.3647508621216	
41	499.38108682632446	pulse	1	t		39.0	2.5	/experiments/AOT/AOT_stimuli/rescaled_final/1300_fw.mp4	0.0	522.9651658535004	
41	499.89747881889343	fix_post	2		12	39.0	2.5	/experiments/AOT/AOT_stimuli/rescaled_final/1300_fw.mp4	0.0	523.4815578460693	0.10001206398010254
42	499.99749088287354	fix_pre	0		119	40.0	2.5	/experiments/AOT/AOT_stimuli/rescaled_final/1007_fw.mp4	0.0	523.5815699100494	0.9917430877685547
42	500.9809949398041	pulse	0	t		40.0	2.5	/experiments/AOT/AOT_stimuli/rescaled_final/1007_fw.mp4	0.0	524.56507396698	
42	500.9892339706421	movie	1		245	40.0	2.5	/experiments/AOT/AOT_stimuli/rescaled_final/1007_fw.mp4	0.0	524.573312997818	2.5083818435668945
42	502.58055996894836	pulse	1	t		40.0	2.5	/experiments/AOT/AOT_stimuli/rescaled_final/1007_fw.mp4	0.0	526.1646389961243	
42	503.497615814209	fix_post	2		12	40.0	2.5	/experiments/AOT/AOT_stimuli/rescaled_final/1007_fw.mp4	0.0	527.0816948413849	0.09982013702392578
43	503.5974359512329	fix_pre	0		120	41.0	2.5	blank	1.0	527.1815149784088	1.0001780986785889
43	504.1810369491577	pulse	0	t		41.0	2.5	blank	1.0	527.7651159763336	
43	504.5976140499115	movie	1		300	41.0	2.5	blank	1.0	528.1816930770874	2.499513864517212
43	505.78099393844604	pulse	1	t		41.0	2.5	blank	1.0	529.365072965622	
43	507.0971279144287	fix_post	2		12	41.0	2.5	blank	1.0	530.6812069416046	0.10041499137878418
44	507.1975429058075	fix_pre	0		120	42.0	2.5	/experiments/AOT/AOT_stimuli/rescaled_final/1940_rv.mp4	0.0	530.7816219329834	1.0000319480895996
44	507.38099694252014	pulse	0	t		42.0	2.5	/experiments/AOT/AOT_stimuli/rescaled_final/1940_rv.mp4	0.0	530.965075969696	
44	508.1975748538971	movie	1		244	42.0	2.5	/experiments/AOT/AOT_stimuli/rescaled_final/1940_rv.mp4	0.0	531.781653881073	2.499953031539917
44	508.98096799850464	pulse	1	t		42.0	2.5	/experiments/AOT/AOT_stimuli/rescaled_final/1940_rv.mp4	0.0	532.5650470256805	
44	510.58053493499756	pulse	1	t		42.0	2.5	/experiments/AOT/AOT_stimuli/rescaled_final/1940_rv.mp4	0.0	534.1646139621735	
44	510.697527885437	fix_post	2		12	42.0	2.5	/experiments/AOT/AOT_stimuli/rescaled_final/1940_rv.mp4	0.0	534.2816069126129	0.0999910831451416
45	510.79751896858215	fix_pre	0		120	43.0	2.5	/experiments/AOT/AOT_stimuli/rescaled_final/1150_rv.mp4	0.0	534.381597995758	0.9999608993530273
45	511.7974798679352	movie	1		243	43.0	2.5	/experiments/AOT/AOT_stimuli/rescaled_final/1150_rv.mp4	0.0	535.3815588951111	2.500020980834961
45	512.1804988384247	pulse	1	t		43.0	2.5	/experiments/AOT/AOT_stimuli/rescaled_final/1150_rv.mp4	0.0	535.7645778656006	
45	513.7809569835663	pulse	1	t		43.0	2.5	/experiments/AOT/AOT_stimuli/rescaled_final/1150_rv.mp4	0.0	537.3650360107422	
45	514.2975008487701	fix_post	2		12	43.0	2.5	/experiments/AOT/AOT_stimuli/rescaled_final/1150_rv.mp4	0.0	537.881579875946	0.10000419616699219
46	514.3975050449371	fix_pre	0		119	44.0	2.5	/experiments/AOT/AOT_stimuli/rescaled_final/0259_fw.mp4	0.0	537.981584072113	0.9915947914123535
46	515.3810060024261	pulse	0	t		44.0	2.5	/experiments/AOT/AOT_stimuli/rescaled_final/0259_fw.mp4	0.0	538.965085029602	
46	515.3890998363495	movie	1		243	44.0	2.5	/experiments/AOT/AOT_stimuli/rescaled_final/0259_fw.mp4	0.0	538.9731788635254	2.5085031986236572
46	516.9820079803467	pulse	1	t		44.0	2.5	/experiments/AOT/AOT_stimuli/rescaled_final/0259_fw.mp4	0.0	540.5660870075226	
46	517.8976030349731	fix_post	2		12	44.0	2.5	/experiments/AOT/AOT_stimuli/rescaled_final/0259_fw.mp4	0.0	541.481682062149	0.09984993934631348
47	517.9974529743195	fix_pre	0		120	45.0	2.5	/experiments/AOT/AOT_stimuli/rescaled_final/0102_rv.mp4	0.0	541.5815320014954	1.000046968460083
47	518.5808680057526	pulse	0	t		45.0	2.5	/experiments/AOT/AOT_stimuli/rescaled_final/0102_rv.mp4	0.0	542.1649470329285	
47	518.9974999427795	movie	1		244	45.0	2.5	/experiments/AOT/AOT_stimuli/rescaled_final/0102_rv.mp4	0.0	542.5815789699554	2.4998910427093506
47	520.1811578273773	pulse	1	t		45.0	2.5	/experiments/AOT/AOT_stimuli/rescaled_final/0102_rv.mp4	0.0	543.7652368545532	
47	521.4973909854889	fix_post	2		12	45.0	2.5	/experiments/AOT/AOT_stimuli/rescaled_final/0102_rv.mp4	0.0	545.0814700126648	0.10004305839538574
48	521.5974340438843	fix_pre	0		120	46.0	2.5	/experiments/AOT/AOT_stimuli/rescaled_final/0040_fw.mp4	0.0	545.1815130710602	0.999931812286377
48	521.7809679508209	pulse	0	t		46.0	2.5	/experiments/AOT/AOT_stimuli/rescaled_final/0040_fw.mp4	0.0	545.3650469779968	
48	522.5973658561707	movie	1		246	46.0	2.5	/experiments/AOT/AOT_stimuli/rescaled_final/0040_fw.mp4	0.0	546.1814448833466	2.500072956085205
48	523.3808898925781	pulse	1	t		46.0	2.5	/experiments/AOT/AOT_stimuli/rescaled_final/0040_fw.mp4	0.0	546.964968919754	
48	524.9809830188751	pulse	1	t		46.0	2.5	/experiments/AOT/AOT_stimuli/rescaled_final/0040_fw.mp4	0.0	548.565062046051	
48	525.0974388122559	fix_post	2		12	46.0	2.5	/experiments/AOT/AOT_stimuli/rescaled_final/0040_fw.mp4	0.0	548.6815178394318	0.10001206398010254
49	525.197450876236	fix_pre	0		120	47.0	2.5	blank	1.0	548.7815299034119	1.0000009536743164
49	526.1974518299103	movie	1		300	47.0	2.5	blank	1.0	549.7815308570862	2.499981164932251
49	526.5809140205383	pulse	1	t		47.0	2.5	blank	1.0	550.1649930477142	
49	528.1810059547424	pulse	1	t		47.0	2.5	blank	1.0	551.7650849819183	
49	528.6974329948425	fix_post	2		12	47.0	2.5	blank	1.0	552.2815120220184	0.10003495216369629
50	528.7974679470062	fix_pre	0		119	48.0	2.5	/experiments/AOT/AOT_stimuli/rescaled_final/0608_rv.mp4	0.0	552.3815469741821	0.9915690422058105
50	529.7808718681335	pulse	0	t		48.0	2.5	/experiments/AOT/AOT_stimuli/rescaled_final/0608_rv.mp4	0.0	553.3649508953094	
50	529.789036989212	movie	1		245	48.0	2.5	/experiments/AOT/AOT_stimuli/rescaled_final/0608_rv.mp4	0.0	553.3731160163879	2.5083160400390625
50	531.3805718421936	pulse	1	t		48.0	2.5	/experiments/AOT/AOT_stimuli/rescaled_final/0608_rv.mp4	0.0	554.9646508693695	
50	532.2973530292511	fix_post	2		12	48.0	2.5	/experiments/AOT/AOT_stimuli/rescaled_final/0608_rv.mp4	0.0	555.881432056427	0.10001301765441895
51	532.3973660469055	fix_pre	0		120	49.0	2.5	/experiments/AOT/AOT_stimuli/rescaled_final/0831_rv.mp4	0.0	555.9814450740814	1.0000438690185547
51	532.9807798862457	pulse	0	t		49.0	2.5	/experiments/AOT/AOT_stimuli/rescaled_final/0831_rv.mp4	0.0	556.5648589134216	
51	533.3974099159241	movie	1		243	49.0	2.5	/experiments/AOT/AOT_stimuli/rescaled_final/0831_rv.mp4	0.0	556.9814889431	2.500032901763916
51	534.5808889865875	pulse	1	t		49.0	2.5	/experiments/AOT/AOT_stimuli/rescaled_final/0831_rv.mp4	0.0	558.1649680137634	
51	535.897442817688	fix_post	2		12	49.0	2.5	/experiments/AOT/AOT_stimuli/rescaled_final/0831_rv.mp4	0.0	559.4815218448639	0.10000109672546387
52	535.9974439144135	fix_pre	0		120	50.0	2.5	/experiments/AOT/AOT_stimuli/rescaled_final/0504_fw.mp4	0.0	559.5815229415894	1.0000090599060059
52	536.180853843689	pulse	0	t		50.0	2.5	/experiments/AOT/AOT_stimuli/rescaled_final/0504_fw.mp4	0.0	559.7649328708649	
52	536.9974529743195	movie	1		244	50.0	2.5	/experiments/AOT/AOT_stimuli/rescaled_final/0504_fw.mp4	0.0	560.5815320014954	2.4998960494995117
52	537.7809209823608	pulse	1	t		50.0	2.5	/experiments/AOT/AOT_stimuli/rescaled_final/0504_fw.mp4	0.0	561.3650000095367	
52	539.3892779350281	pulse	1	t		50.0	2.5	/experiments/AOT/AOT_stimuli/rescaled_final/0504_fw.mp4	0.0	562.973356962204	
52	539.497349023819	fix_post	2		12	50.0	2.5	/experiments/AOT/AOT_stimuli/rescaled_final/0504_fw.mp4	0.0	563.0814280509949	0.10003089904785156
53	539.5973799228668	fix_pre	0		120	51.0	2.5	/experiments/AOT/AOT_stimuli/rescaled_final/0781_fw.mp4	0.0	563.1814589500427	1.0000109672546387
53	540.5973908901215	movie	1		243	51.0	2.5	/experiments/AOT/AOT_stimuli/rescaled_final/0781_fw.mp4	0.0	564.1814699172974	2.499969005584717
53	540.9818279743195	pulse	1	t		51.0	2.5	/experiments/AOT/AOT_stimuli/rescaled_final/0781_fw.mp4	0.0	564.5659070014954	
53	542.5807900428772	pulse	1	t		51.0	2.5	/experiments/AOT/AOT_stimuli/rescaled_final/0781_fw.mp4	0.0	566.1648690700531	
53	543.0973598957062	fix_post	2		12	51.0	2.5	/experiments/AOT/AOT_stimuli/rescaled_final/0781_fw.mp4	0.0	566.6814389228821	0.10002398490905762
54	543.1973838806152	fix_pre	0		119	52.0	2.5	/experiments/AOT/AOT_stimuli/rescaled_final/1940_fw.mp4	0.0	566.7814629077911	0.9916260242462158
54	544.180881023407	pulse	0	t		52.0	2.5	/experiments/AOT/AOT_stimuli/rescaled_final/1940_fw.mp4	0.0	567.7649600505829	
54	544.1890099048615	movie	1		245	52.0	2.5	/experiments/AOT/AOT_stimuli/rescaled_final/1940_fw.mp4	0.0	567.7730889320374	2.5083560943603516
54	545.7804138660431	pulse	1	t		52.0	2.5	/experiments/AOT/AOT_stimuli/rescaled_final/1940_fw.mp4	0.0	569.364492893219	
54	546.6973659992218	fix_post	2		12	52.0	2.5	/experiments/AOT/AOT_stimuli/rescaled_final/1940_fw.mp4	0.0	570.2814450263977	0.09999895095825195
55	546.79736495018	fix_pre	0		120	53.0	2.5	/experiments/AOT/AOT_stimuli/rescaled_final/1539_rv.mp4	0.0	570.381443977356	0.999553918838501
55	547.380450963974	pulse	0	t		53.0	2.5	/experiments/AOT/AOT_stimuli/rescaled_final/1539_rv.mp4	0.0	570.9645299911499	
55	547.7969188690186	movie	1		243	53.0	2.5	/experiments/AOT/AOT_stimuli/rescaled_final/1539_rv.mp4	0.0	571.3809978961945	2.5007901191711426
55	548.9810359477997	pulse	1	t		53.0	2.5	/experiments/AOT/AOT_stimuli/rescaled_final/1539_rv.mp4	0.0	572.5651149749756	
55	550.2977089881897	fix_post	2		12	53.0	2.5	/experiments/AOT/AOT_stimuli/rescaled_final/1539_rv.mp4	0.0	573.8817880153656	0.09999895095825195
56	550.397707939148	fix_pre	0		120	54.0	2.5	blank	1.0	573.9817869663239	0.9996678829193115
56	550.5808010101318	pulse	0	t		54.0	2.5	blank	1.0	574.1648800373077	
56	551.3973758220673	movie	1		300	54.0	2.5	blank	1.0	574.9814548492432	2.499922037124634
56	552.1808159351349	pulse	1	t		54.0	2.5	blank	1.0	575.7648949623108	
56	553.7808308601379	pulse	1	t		54.0	2.5	blank	1.0	577.3649098873138	
56	553.8972978591919	fix_post	2		12	54.0	2.5	blank	1.0	577.4813768863678	0.09996795654296875
57	553.9972658157349	fix_pre	0		120	55.0	2.5	/experiments/AOT/AOT_stimuli/rescaled_final/0609_rv.mp4	0.0	577.5813448429108	1.0000441074371338
57	554.997309923172	movie	1		244	55.0	2.5	/experiments/AOT/AOT_stimuli/rescaled_final/0609_rv.mp4	0.0	578.5813889503479	2.4999001026153564
57	555.3801379203796	pulse	1	t		55.0	2.5	/experiments/AOT/AOT_stimuli/rescaled_final/0609_rv.mp4	0.0	578.9642169475555	
57	556.9807608127594	pulse	1	t		55.0	2.5	/experiments/AOT/AOT_stimuli/rescaled_final/0609_rv.mp4	0.0	580.5648398399353	
57	557.4972100257874	fix_post	2		12	55.0	2.5	/experiments/AOT/AOT_stimuli/rescaled_final/0609_rv.mp4	0.0	581.0812890529633	0.10000181198120117
58	557.5972118377686	fix_pre	0		119	56.0	2.5	/experiments/AOT/AOT_stimuli/rescaled_final/1940_fw.mp4	0.0	581.1812908649445	0.9918420314788818
58	558.5807819366455	pulse	0	t		56.0	2.5	/experiments/AOT/AOT_stimuli/rescaled_final/1940_fw.mp4	0.0	582.1648609638214	
58	558.5890538692474	movie	1		245	56.0	2.5	/experiments/AOT/AOT_stimuli/rescaled_final/1940_fw.mp4	0.0	582.1731328964233	2.5082130432128906
58	560.1803379058838	pulse	1	t		56.0	2.5	/experiments/AOT/AOT_stimuli/rescaled_final/1940_fw.mp4	0.0	583.7644169330597	
58	561.0972669124603	fix_post	2		12	56.0	2.5	/experiments/AOT/AOT_stimuli/rescaled_final/1940_fw.mp4	0.0	584.6813459396362	0.09996390342712402
59	561.1972308158875	fix_pre	0		120	57.0	2.5	/experiments/AOT/AOT_stimuli/rescaled_final/1757_rv.mp4	0.0	584.7813098430634	0.9999921321868896
59	561.7807919979095	pulse	0	t		57.0	2.5	/experiments/AOT/AOT_stimuli/rescaled_final/1757_rv.mp4	0.0	585.3648710250854	
59	562.1972229480743	movie	1		243	57.0	2.5	/experiments/AOT/AOT_stimuli/rescaled_final/1757_rv.mp4	0.0	585.7813019752502	2.4999489784240723
59	563.3808288574219	pulse	1	t		57.0	2.5	/experiments/AOT/AOT_stimuli/rescaled_final/1757_rv.mp4	0.0	586.9649078845978	
59	564.6971719264984	fix_post	2		12	57.0	2.5	/experiments/AOT/AOT_stimuli/rescaled_final/1757_rv.mp4	0.0	588.2812509536743	0.1000669002532959
60	564.7972388267517	fix_pre	0		120	58.0	2.5	/experiments/AOT/AOT_stimuli/rescaled_final/0693_rv.mp4	0.0	588.3813178539276	1.0000011920928955
60	564.9808149337769	pulse	0	t		58.0	2.5	/experiments/AOT/AOT_stimuli/rescaled_final/0693_rv.mp4	0.0	588.5648939609528	
60	565.7972400188446	movie	1		243	58.0	2.5	/experiments/AOT/AOT_stimuli/rescaled_final/0693_rv.mp4	0.0	589.3813190460205	2.5000088214874268
60	566.5807268619537	pulse	1	t		58.0	2.5	/experiments/AOT/AOT_stimuli/rescaled_final/0693_rv.mp4	0.0	590.1648058891296	
60	568.1891629695892	pulse	1	t		58.0	2.5	/experiments/AOT/AOT_stimuli/rescaled_final/0693_rv.mp4	0.0	591.7732419967651	
60	568.297248840332	fix_post	2		12	58.0	2.5	/experiments/AOT/AOT_stimuli/rescaled_final/0693_rv.mp4	0.0	591.8813278675079	0.09993720054626465
61	568.3971860408783	fix_pre	0		120	59.0	2.5	/experiments/AOT/AOT_stimuli/rescaled_final/1679_fw.mp4	0.0	591.9812650680542	1.0000059604644775
61	569.3971920013428	movie	1		244	59.0	2.5	/experiments/AOT/AOT_stimuli/rescaled_final/1679_fw.mp4	0.0	592.9812710285187	2.500046968460083
61	569.7806189060211	pulse	1	t		59.0	2.5	/experiments/AOT/AOT_stimuli/rescaled_final/1679_fw.mp4	0.0	593.364697933197	
61	571.3807058334351	pulse	1	t		59.0	2.5	/experiments/AOT/AOT_stimuli/rescaled_final/1679_fw.mp4	0.0	594.964784860611	
61	571.8972389698029	fix_post	2		12	59.0	2.5	/experiments/AOT/AOT_stimuli/rescaled_final/1679_fw.mp4	0.0	595.4813179969788	0.10002684593200684
62	571.9972658157349	fix_pre	0		119	60.0	2.5	/experiments/AOT/AOT_stimuli/rescaled_final/0365_rv.mp4	0.0	595.5813448429108	0.9916431903839111
62	572.980623960495	pulse	0	t		60.0	2.5	/experiments/AOT/AOT_stimuli/rescaled_final/0365_rv.mp4	0.0	596.5647029876709	
62	572.9889090061188	movie	1		248	60.0	2.5	/experiments/AOT/AOT_stimuli/rescaled_final/0365_rv.mp4	0.0	596.5729880332947	2.50793194770813
62	574.5803689956665	pulse	1	t		60.0	2.5	/experiments/AOT/AOT_stimuli/rescaled_final/0365_rv.mp4	0.0	598.1644480228424	
62	575.4968409538269	fix_post	2		12	60.0	2.5	/experiments/AOT/AOT_stimuli/rescaled_final/0365_rv.mp4	0.0	599.0809199810028	0.10043907165527344
63	575.5972800254822	fix_pre	0		120	61.0	2.5	/experiments/AOT/AOT_stimuli/rescaled_final/1095_rv.mp4	0.0	599.1813590526581	1.0000228881835938
63	576.180657863617	pulse	0	t		61.0	2.5	/experiments/AOT/AOT_stimuli/rescaled_final/1095_rv.mp4	0.0	599.7647368907928	
63	576.5973029136658	movie	1		247	61.0	2.5	/experiments/AOT/AOT_stimuli/rescaled_final/1095_rv.mp4	0.0	600.1813819408417	2.4999020099639893
63	577.7807910442352	pulse	1	t		61.0	2.5	/experiments/AOT/AOT_stimuli/rescaled_final/1095_rv.mp4	0.0	601.3648700714111	
63	579.0972049236298	fix_post	2		12	61.0	2.5	/experiments/AOT/AOT_stimuli/rescaled_final/1095_rv.mp4	0.0	602.6812839508057	0.10006594657897949
64	579.1972708702087	fix_pre	0		120	62.0	2.5	blank	1.0	602.7813498973846	0.9998519420623779
64	579.3806319236755	pulse	0	t		62.0	2.5	blank	1.0	602.9647109508514	
64	580.1971228122711	movie	1		300	62.0	2.5	blank	1.0	603.781201839447	2.5001060962677
64	580.980703830719	pulse	1	t		62.0	2.5	blank	1.0	604.5647828578949	
64	582.5804898738861	pulse	1	t		62.0	2.5	blank	1.0	606.164568901062	
64	582.6972289085388	fix_post	2		12	62.0	2.5	blank	1.0	606.2813079357147	0.10002994537353516
65	582.7972588539124	fix_pre	0		120	63.0	2.5	/experiments/AOT/AOT_stimuli/rescaled_final/1652_rv.mp4	0.0	606.3813378810883	0.9999899864196777
65	583.797248840332	movie	1		242	63.0	2.5	/experiments/AOT/AOT_stimuli/rescaled_final/1652_rv.mp4	0.0	607.3813278675079	2.4995501041412354
65	584.180321931839	pulse	1	t		63.0	2.5	/experiments/AOT/AOT_stimuli/rescaled_final/1652_rv.mp4	0.0	607.7644009590149	
65	585.7808179855347	pulse	1	t		63.0	2.5	/experiments/AOT/AOT_stimuli/rescaled_final/1652_rv.mp4	0.0	609.3648970127106	
65	586.2967989444733	fix_post	2		12	63.0	2.5	/experiments/AOT/AOT_stimuli/rescaled_final/1652_rv.mp4	0.0	609.8808779716492	0.10045909881591797
66	586.3972580432892	fix_pre	0		119	64.0	2.5	/experiments/AOT/AOT_stimuli/rescaled_final/0902_fw.mp4	0.0	609.9813370704651	0.9916098117828369
66	587.3806729316711	pulse	0	t		64.0	2.5	/experiments/AOT/AOT_stimuli/rescaled_final/0902_fw.mp4	0.0	610.964751958847	
66	587.388867855072	movie	1		245	64.0	2.5	/experiments/AOT/AOT_stimuli/rescaled_final/0902_fw.mp4	0.0	610.9729468822479	2.508308172225952
66	588.9805018901825	pulse	1	t		64.0	2.5	/experiments/AOT/AOT_stimuli/rescaled_final/0902_fw.mp4	0.0	612.5645809173584	
66	589.897176027298	fix_post	2		12	64.0	2.5	/experiments/AOT/AOT_stimuli/rescaled_final/0902_fw.mp4	0.0	613.4812550544739	0.10002779960632324
67	589.9972038269043	fix_pre	0		120	65.0	2.5	/experiments/AOT/AOT_stimuli/rescaled_final/1331_rv.mp4	0.0	613.5812828540802	0.9999639987945557
67	590.5807180404663	pulse	0	t		65.0	2.5	/experiments/AOT/AOT_stimuli/rescaled_final/1331_rv.mp4	0.0	614.1647970676422	
67	590.9971678256989	movie	1		244	65.0	2.5	/experiments/AOT/AOT_stimuli/rescaled_final/1331_rv.mp4	0.0	614.5812468528748	2.5000181198120117
67	592.180657863617	pulse	1	t		65.0	2.5	/experiments/AOT/AOT_stimuli/rescaled_final/1331_rv.mp4	0.0	615.7647368907928	
67	593.4971859455109	fix_post	2		12	65.0	2.5	/experiments/AOT/AOT_stimuli/rescaled_final/1331_rv.mp4	0.0	617.0812649726868	0.0999748706817627
68	593.5971608161926	fix_pre	0		120	66.0	2.5	/experiments/AOT/AOT_stimuli/rescaled_final/0302_fw.mp4	0.0	617.1812398433685	1.0000660419464111
68	593.7806029319763	pulse	0	t		66.0	2.5	/experiments/AOT/AOT_stimuli/rescaled_final/0302_fw.mp4	0.0	617.3646819591522	
68	594.597226858139	movie	1		242	66.0	2.5	/experiments/AOT/AOT_stimuli/rescaled_final/0302_fw.mp4	0.0	618.1813058853149	2.4999101161956787
68	595.3806178569794	pulse	1	t		66.0	2.5	/experiments/AOT/AOT_stimuli/rescaled_final/0302_fw.mp4	0.0	618.9646968841553	
68	596.9890449047089	pulse	1	t		66.0	2.5	/experiments/AOT/AOT_stimuli/rescaled_final/0302_fw.mp4	0.0	620.5731239318848	
68	597.0971369743347	fix_post	2		12	66.0	2.5	/experiments/AOT/AOT_stimuli/rescaled_final/0302_fw.mp4	0.0	620.6812160015106	0.10002398490905762
69	597.1971609592438	fix_pre	0		120	67.0	2.5	/experiments/AOT/AOT_stimuli/rescaled_final/1178_fw.mp4	0.0	620.7812399864197	1.0000150203704834
69	598.1971759796143	movie	1		242	67.0	2.5	/experiments/AOT/AOT_stimuli/rescaled_final/1178_fw.mp4	0.0	621.7812550067902	2.4999349117279053
69	598.5804269313812	pulse	1	t		67.0	2.5	/experiments/AOT/AOT_stimuli/rescaled_final/1178_fw.mp4	0.0	622.1645059585571	
69	600.1805999279022	pulse	1	t		67.0	2.5	/experiments/AOT/AOT_stimuli/rescaled_final/1178_fw.mp4	0.0	623.7646789550781	
69	600.6971108913422	fix_post	2		12	67.0	2.5	/experiments/AOT/AOT_stimuli/rescaled_final/1178_fw.mp4	0.0	624.2811899185181	0.10000109672546387
70	600.7971119880676	fix_pre	0		119	68.0	2.5	/experiments/AOT/AOT_stimuli/rescaled_final/1705_rv.mp4	0.0	624.3811910152435	0.991663932800293
70	601.7806458473206	pulse	0	t		68.0	2.5	/experiments/AOT/AOT_stimuli/rescaled_final/1705_rv.mp4	0.0	625.3647248744965	
70	601.7887759208679	movie	1		245	68.0	2.5	/experiments/AOT/AOT_stimuli/rescaled_final/1705_rv.mp4	0.0	625.3728549480438	2.5079569816589355
70	603.3800778388977	pulse	1	t		68.0	2.5	/experiments/AOT/AOT_stimuli/rescaled_final/1705_rv.mp4	0.0	626.9641568660736	
70	604.2967329025269	fix_post	2		12	68.0	2.5	/experiments/AOT/AOT_stimuli/rescaled_final/1705_rv.mp4	0.0	627.8808119297028	0.10002803802490234
71	604.3967609405518	fix_pre	0		120	69.0	2.5	blank	1.0	627.9808399677277	1.0005249977111816
71	604.9807708263397	pulse	0	t		69.0	2.5	blank	1.0	628.5648498535156	
71	605.3972859382629	movie	1		300	69.0	2.5	blank	1.0	628.9813649654388	2.499778985977173
71	606.5805468559265	pulse	1	t		69.0	2.5	blank	1.0	630.1646258831024	
71	607.8970649242401	fix_post	2		12	69.0	2.5	blank	1.0	631.481143951416	0.09996390342712402
72	607.9970288276672	fix_pre	0		120	70.0	2.5	/experiments/AOT/AOT_stimuli/rescaled_final/1098_rv.mp4	0.0	631.5811078548431	1.000089168548584
72	608.1805219650269	pulse	0	t		70.0	2.5	/experiments/AOT/AOT_stimuli/rescaled_final/1098_rv.mp4	0.0	631.7646009922028	
72	608.9971179962158	movie	1		244	70.0	2.5	/experiments/AOT/AOT_stimuli/rescaled_final/1098_rv.mp4	0.0	632.5811970233917	2.4998559951782227
72	609.7804839611053	pulse	1	t		70.0	2.5	/experiments/AOT/AOT_stimuli/rescaled_final/1098_rv.mp4	0.0	633.3645629882812	
72	611.3804650306702	pulse	1	t		70.0	2.5	/experiments/AOT/AOT_stimuli/rescaled_final/1098_rv.mp4	0.0	634.9645440578461	
72	611.496973991394	fix_post	2		12	70.0	2.5	/experiments/AOT/AOT_stimuli/rescaled_final/1098_rv.mp4	0.0	635.08105301857	0.10001182556152344
73	611.5969858169556	fix_pre	0		120	71.0	2.5	/experiments/AOT/AOT_stimuli/rescaled_final/1315_rv.mp4	0.0	635.1810648441315	1.0000200271606445
73	612.5970058441162	movie	1		245	71.0	2.5	/experiments/AOT/AOT_stimuli/rescaled_final/1315_rv.mp4	0.0	636.1810848712921	2.5000150203704834
73	612.9804108142853	pulse	1	t		71.0	2.5	/experiments/AOT/AOT_stimuli/rescaled_final/1315_rv.mp4	0.0	636.5644898414612	
73	614.5804388523102	pulse	1	t		71.0	2.5	/experiments/AOT/AOT_stimuli/rescaled_final/1315_rv.mp4	0.0	638.1645178794861	
73	615.0970208644867	fix_post	2		12	71.0	2.5	/experiments/AOT/AOT_stimuli/rescaled_final/1315_rv.mp4	0.0	638.6810998916626	0.09991908073425293
74	615.196939945221	fix_pre	0		119	72.0	2.5	/experiments/AOT/AOT_stimuli/rescaled_final/0608_fw.mp4	0.0	638.7810189723969	0.9996600151062012
74	616.1805908679962	pulse	0	t		72.0	2.5	/experiments/AOT/AOT_stimuli/rescaled_final/0608_fw.mp4	0.0	639.7646698951721	
74	616.1965999603271	movie	1		243	72.0	2.5	/experiments/AOT/AOT_stimuli/rescaled_final/0608_fw.mp4	0.0	639.780678987503	2.5003669261932373
74	617.7800929546356	pulse	1	t		72.0	2.5	/experiments/AOT/AOT_stimuli/rescaled_final/0608_fw.mp4	0.0	641.3641719818115	
74	618.6969668865204	fix_post	2		12	72.0	2.5	/experiments/AOT/AOT_stimuli/rescaled_final/0608_fw.mp4	0.0	642.2810459136963	0.10005998611450195
75	618.7970268726349	fix_pre	0		120	73.0	2.5	/experiments/AOT/AOT_stimuli/rescaled_final/1346_fw.mp4	0.0	642.3811058998108	0.999946117401123
75	619.3805119991302	pulse	0	t		73.0	2.5	/experiments/AOT/AOT_stimuli/rescaled_final/1346_fw.mp4	0.0	642.9645910263062	
75	619.796972990036	movie	1		244	73.0	2.5	/experiments/AOT/AOT_stimuli/rescaled_final/1346_fw.mp4	0.0	643.3810520172119	2.500044822692871
75	620.9805788993835	pulse	1	t		73.0	2.5	/experiments/AOT/AOT_stimuli/rescaled_final/1346_fw.mp4	0.0	644.5646579265594	
75	622.2970178127289	fix_post	2		12	73.0	2.5	/experiments/AOT/AOT_stimuli/rescaled_final/1346_fw.mp4	0.0	645.8810968399048	0.09990715980529785
76	622.3969249725342	fix_pre	0		120	74.0	2.5	/experiments/AOT/AOT_stimuli/rescaled_final/0400_fw.mp4	0.0	645.9810039997101	1.0000360012054443
76	622.5804588794708	pulse	0	t		74.0	2.5	/experiments/AOT/AOT_stimuli/rescaled_final/0400_fw.mp4	0.0	646.1645379066467	
76	623.3969609737396	movie	1		245	74.0	2.5	/experiments/AOT/AOT_stimuli/rescaled_final/0400_fw.mp4	0.0	646.9810400009155	2.4995980262756348
76	624.1804389953613	pulse	1	t		74.0	2.5	/experiments/AOT/AOT_stimuli/rescaled_final/0400_fw.mp4	0.0	647.7645180225372	
76	625.7804930210114	pulse	1	t		74.0	2.5	/experiments/AOT/AOT_stimuli/rescaled_final/0400_fw.mp4	0.0	649.3645720481873	
76	625.8965590000153	fix_post	2		12	74.0	2.5	/experiments/AOT/AOT_stimuli/rescaled_final/0400_fw.mp4	0.0	649.4806380271912	0.1003868579864502
77	625.9969458580017	fix_pre	0		120	75.0	2.5	/experiments/AOT/AOT_stimuli/rescaled_final/1007_fw.mp4	0.0	649.5810248851776	1.0000741481781006
77	626.9970200061798	movie	1		243	75.0	2.5	/experiments/AOT/AOT_stimuli/rescaled_final/1007_fw.mp4	0.0	650.5810990333557	2.4998979568481445
77	627.3801620006561	pulse	1	t		75.0	2.5	/experiments/AOT/AOT_stimuli/rescaled_final/1007_fw.mp4	0.0	650.964241027832	
77	628.9804120063782	pulse	1	t		75.0	2.5	/experiments/AOT/AOT_stimuli/rescaled_final/1007_fw.mp4	0.0	652.5644910335541	
77	629.496917963028	fix_post	2		12	75.0	2.5	/experiments/AOT/AOT_stimuli/rescaled_final/1007_fw.mp4	0.0	653.0809969902039	0.09996199607849121
78	629.5968799591064	fix_pre	0		119	76.0	2.5	blank	1.0	653.1809589862823	0.9917669296264648
78	630.5804698467255	pulse	0	t		76.0	2.5	blank	1.0	654.1645488739014	
78	630.5886468887329	movie	1		301	76.0	2.5	blank	1.0	654.1727259159088	2.5082590579986572
78	632.1804790496826	pulse	1	t		76.0	2.5	blank	1.0	655.7645580768585	
78	633.0969059467316	fix_post	2		12	76.0	2.5	blank	1.0	656.6809849739075	0.10006093978881836
79	633.1969668865204	fix_pre	0		120	77.0	2.5	/experiments/AOT/AOT_stimuli/rescaled_final/1942_fw.mp4	0.0	656.7810459136963	0.9999449253082275
79	633.7804980278015	pulse	0	t		77.0	2.5	/experiments/AOT/AOT_stimuli/rescaled_final/1942_fw.mp4	0.0	657.3645770549774	
79	634.1969118118286	movie	1		243	77.0	2.5	/experiments/AOT/AOT_stimuli/rescaled_final/1942_fw.mp4	0.0	657.7809908390045	2.4999420642852783
79	635.3804309368134	pulse	1	t		77.0	2.5	/experiments/AOT/AOT_stimuli/rescaled_final/1942_fw.mp4	0.0	658.9645099639893	
79	636.6968538761139	fix_post	2		12	77.0	2.5	/experiments/AOT/AOT_stimuli/rescaled_final/1942_fw.mp4	0.0	660.2809329032898	0.10001707077026367
80	636.7968709468842	fix_pre	0		120	78.0	2.5	/experiments/AOT/AOT_stimuli/rescaled_final/0165_rv.mp4	0.0	660.3809499740601	1.0002720355987549
80	636.9804298877716	pulse	0	t		78.0	2.5	/experiments/AOT/AOT_stimuli/rescaled_final/0165_rv.mp4	0.0	660.5645089149475	
80	637.7971429824829	movie	1		244	78.0	2.5	/experiments/AOT/AOT_stimuli/rescaled_final/0165_rv.mp4	0.0	661.3812220096588	2.4998068809509277
80	638.5804438591003	pulse	1	t		78.0	2.5	/experiments/AOT/AOT_stimuli/rescaled_final/0165_rv.mp4	0.0	662.1645228862762	
80	640.1803739070892	pulse	1	t		78.0	2.5	/experiments/AOT/AOT_stimuli/rescaled_final/0165_rv.mp4	0.0	663.7644529342651	
80	640.2969498634338	fix_post	2		12	78.0	2.5	/experiments/AOT/AOT_stimuli/rescaled_final/0165_rv.mp4	0.0	663.8810288906097	0.10002517700195312
81	640.3969750404358	fix_pre	0		120	79.0	2.5	/experiments/AOT/AOT_stimuli/rescaled_final/0058_fw.mp4	0.0	663.9810540676117	0.9999568462371826
81	641.396931886673	movie	1		248	79.0	2.5	/experiments/AOT/AOT_stimuli/rescaled_final/0058_fw.mp4	0.0	664.9810109138489	2.5000150203704834
81	641.7800488471985	pulse	1	t		79.0	2.5	/experiments/AOT/AOT_stimuli/rescaled_final/0058_fw.mp4	0.0	665.3641278743744	
81	643.380383014679	pulse	1	t		79.0	2.5	/experiments/AOT/AOT_stimuli/rescaled_final/0058_fw.mp4	0.0	666.9644620418549	
81	643.8969469070435	fix_post	2		12	79.0	2.5	/experiments/AOT/AOT_stimuli/rescaled_final/0058_fw.mp4	0.0	667.4810259342194	0.09997105598449707
82	643.996917963028	fix_pre	0		119	80.0	2.5	/experiments/AOT/AOT_stimuli/rescaled_final/1942_rv.mp4	0.0	667.5809969902039	0.9916250705718994
82	644.9803938865662	pulse	0	t		80.0	2.5	/experiments/AOT/AOT_stimuli/rescaled_final/1942_rv.mp4	0.0	668.5644729137421	
82	644.9885430335999	movie	1		244	80.0	2.5	/experiments/AOT/AOT_stimuli/rescaled_final/1942_rv.mp4	0.0	668.5726220607758	2.507941961288452
82	646.5887308120728	pulse	1	t		80.0	2.5	/experiments/AOT/AOT_stimuli/rescaled_final/1942_rv.mp4	0.0	670.1728098392487	
82	647.4964849948883	fix_post	2		12	80.0	2.5	/experiments/AOT/AOT_stimuli/rescaled_final/1942_rv.mp4	0.0	671.0805640220642	0.1003718376159668
83	647.5968568325043	fix_pre	0		120	81.0	2.5	/experiments/AOT/AOT_stimuli/rescaled_final/1421_fw.mp4	0.0	671.1809358596802	0.9999990463256836
83	648.1803569793701	pulse	0	t		81.0	2.5	/experiments/AOT/AOT_stimuli/rescaled_final/1421_fw.mp4	0.0	671.764436006546	
83	648.59685587883	movie	1		244	81.0	2.5	/experiments/AOT/AOT_stimuli/rescaled_final/1421_fw.mp4	0.0	672.1809349060059	2.4995839595794678
83	649.7803988456726	pulse	1	t		81.0	2.5	/experiments/AOT/AOT_stimuli/rescaled_final/1421_fw.mp4	0.0	673.3644778728485	
83	651.0964398384094	fix_post	2		12	81.0	2.5	/experiments/AOT/AOT_stimuli/rescaled_final/1421_fw.mp4	0.0	674.6805188655853	0.10036420822143555
84	651.1968040466309	fix_pre	0		120	82.0	2.5	/experiments/AOT/AOT_stimuli/rescaled_final/1671_rv.mp4	0.0	674.7808830738068	1.0000929832458496
84	651.3804249763489	pulse	0	t		82.0	2.5	/experiments/AOT/AOT_stimuli/rescaled_final/1671_rv.mp4	0.0	674.9645040035248	
84	652.1968970298767	movie	1		243	82.0	2.5	/experiments/AOT/AOT_stimuli/rescaled_final/1671_rv.mp4	0.0	675.7809760570526	2.4999239444732666
84	652.9802439212799	pulse	1	t		82.0	2.5	/experiments/AOT/AOT_stimuli/rescaled_final/1671_rv.mp4	0.0	676.5643229484558	
84	654.5886869430542	pulse	1	t		82.0	2.5	/experiments/AOT/AOT_stimuli/rescaled_final/1671_rv.mp4	0.0	678.1727659702301	
84	654.69682097435	fix_post	2		12	82.0	2.5	/experiments/AOT/AOT_stimuli/rescaled_final/1671_rv.mp4	0.0	678.2809000015259	0.09999299049377441
85	654.7968139648438	fix_pre	0		120	83.0	2.5	blank	1.0	678.3808929920197	1.000067949295044
85	655.7968819141388	movie	1		300	83.0	2.5	blank	1.0	679.3809609413147	2.4999680519104004
85	656.1804368495941	pulse	1	t		83.0	2.5	blank	1.0	679.76451587677	
85	657.7802469730377	pulse	1	t		83.0	2.5	blank	1.0	681.3643260002136	
85	658.2968499660492	fix_post	2		12	83.0	2.5	blank	1.0	681.8809289932251	0.10004186630249023
87	658.3968918323517	stim	0		1716					681.9809708595276	14.299901008605957
87	659.3798730373383	pulse	0	t						682.9639520645142	
87	660.9800078868866	pulse	0	t						684.5640869140625	
87	662.5802109241486	pulse	0	t						686.1642899513245	
87	664.1802928447723	pulse	0	t						687.7643718719482	
87	665.7802019119263	pulse	0	t						689.3642809391022	
87	667.3801598548889	pulse	0	t						690.9642388820648	
87	668.9802918434143	pulse	0	t						692.5643708705902	
87	670.5801558494568	pulse	0	t						694.1642348766327	
87	672.1801788806915	pulse	0	t						695.7642579078674	
