trial_nr	onset	event_type	phase	response	nr_frames	movie_index	movie_duration	movie_file	blank	onset_abs	duration
0	0.15824317932128906	stim	0		1					16.104007244110107	0.008328676223754883
0	0.15961027145385742	response	0	space						16.105374336242676	
1	0.16657185554504395	stim	0		3484					16.112335920333862	29.04287052154541
1	29.196349382400513	pulse	0	t						45.14211344718933	
1	29.209442377090454	stim	1		1714					45.15520644187927	14.29698371887207
1	30.7964870929718	pulse	1	t						46.74225115776062	
1	32.3966498374939	pulse	1	t						48.342413902282715	
1	33.997097969055176	pulse	1	t						49.942862033843994	
1	35.59707951545715	pulse	1	t						51.54284358024597	
1	37.19731545448303	pulse	1	t						53.14307951927185	
1	38.79753088951111	pulse	1	t						54.74329495429993	
1	40.39780306816101	pulse	1	t						56.34356713294983	
1	41.99805402755737	pulse	1	t						57.94381809234619	
2	43.506426095962524	fix_pre	0		12	0.0	2.5	/experiments/Knapen_AOT/AOT_stimuli/rescaled_final/1077_rv.mp4	0.0	59.45219016075134	0.12505030632019043
2	43.59847927093506	pulse	0	t		0.0	2.5	/experiments/Knapen_AOT/AOT_stimuli/rescaled_final/1077_rv.mp4	0.0	59.54424333572388	
2	43.631476402282715	movie	1		283	0.0	2.5	/experiments/Knapen_AOT/AOT_stimuli/rescaled_final/1077_rv.mp4	0.0	59.57724046707153	2.483670473098755
2	45.196836709976196	pulse	1	t		0.0	2.5	/experiments/Knapen_AOT/AOT_stimuli/rescaled_final/1077_rv.mp4	0.0	61.142600774765015	
2	46.11514687538147	fix_post	2		12	0.0	2.5	/experiments/Knapen_AOT/AOT_stimuli/rescaled_final/1077_rv.mp4	0.0	62.06091094017029	0.10001683235168457
3	46.215163707733154	fix_pre	0		120	1.0	2.5	/experiments/Knapen_AOT/AOT_stimuli/rescaled_final/1487_fw.mp4	0.0	62.16092777252197	1.0085511207580566
3	46.799081563949585	pulse	0	t		1.0	2.5	/experiments/Knapen_AOT/AOT_stimuli/rescaled_final/1487_fw.mp4	0.0	62.7448456287384	
3	47.22371482849121	movie	1		284	1.0	2.5	/experiments/Knapen_AOT/AOT_stimuli/rescaled_final/1487_fw.mp4	0.0	63.16947889328003	2.4919815063476562
3	48.397162437438965	pulse	1	t		1.0	2.5	/experiments/Knapen_AOT/AOT_stimuli/rescaled_final/1487_fw.mp4	0.0	64.34292650222778	
3	49.71569633483887	fix_post	2		12	1.0	2.5	/experiments/Knapen_AOT/AOT_stimuli/rescaled_final/1487_fw.mp4	0.0	65.66146039962769	0.1000211238861084
4	49.815717458724976	fix_pre	0		120	2.0	2.5	/experiments/Knapen_AOT/AOT_stimuli/rescaled_final/0281_fw.mp4	0.0	65.7614815235138	1.0084846019744873
4	49.99238586425781	pulse	0	t		2.0	2.5	/experiments/Knapen_AOT/AOT_stimuli/rescaled_final/0281_fw.mp4	0.0	65.93814992904663	
4	50.82420206069946	movie	1		288	2.0	2.5	/experiments/Knapen_AOT/AOT_stimuli/rescaled_final/0281_fw.mp4	0.0	66.76996612548828	2.4920389652252197
4	51.59787392616272	pulse	1	t		2.0	2.5	/experiments/Knapen_AOT/AOT_stimuli/rescaled_final/0281_fw.mp4	0.0	67.54363799095154	
4	53.19854760169983	pulse	1	t		2.0	2.5	/experiments/Knapen_AOT/AOT_stimuli/rescaled_final/0281_fw.mp4	0.0	69.14431166648865	
4	53.31624102592468	fix_post	2		12	2.0	2.5	/experiments/Knapen_AOT/AOT_stimuli/rescaled_final/0281_fw.mp4	0.0	69.2620050907135	0.10005855560302734
5	53.41629958152771	fix_pre	0		120	3.0	2.5	/experiments/Knapen_AOT/AOT_stimuli/rescaled_final/0510_fw.mp4	0.0	69.36206364631653	1.0084903240203857
5	54.424789905548096	movie	1		290	3.0	2.5	/experiments/Knapen_AOT/AOT_stimuli/rescaled_final/0510_fw.mp4	0.0	70.37055397033691	2.4919726848602295
5	54.80018162727356	pulse	1	t		3.0	2.5	/experiments/Knapen_AOT/AOT_stimuli/rescaled_final/0510_fw.mp4	0.0	70.74594569206238	
5	56.39245009422302	pulse	1	t		3.0	2.5	/experiments/Knapen_AOT/AOT_stimuli/rescaled_final/0510_fw.mp4	0.0	72.33821415901184	
5	56.916762590408325	fix_post	2		12	3.0	2.5	/experiments/Knapen_AOT/AOT_stimuli/rescaled_final/0510_fw.mp4	0.0	72.86252665519714	0.10005378723144531
6	57.01681637763977	fix_pre	0		118	4.0	2.5	/experiments/Knapen_AOT/AOT_stimuli/rescaled_final/1176_fw.mp4	0.0	72.96258044242859	0.9918222427368164
6	57.99227499961853	pulse	0	t		4.0	2.5	/experiments/Knapen_AOT/AOT_stimuli/rescaled_final/1176_fw.mp4	0.0	73.93803906440735	
6	58.00863862037659	movie	1		287	4.0	2.5	/experiments/Knapen_AOT/AOT_stimuli/rescaled_final/1176_fw.mp4	0.0	73.9544026851654	2.500429391860962
6	59.59247064590454	pulse	1	t		4.0	2.5	/experiments/Knapen_AOT/AOT_stimuli/rescaled_final/1176_fw.mp4	0.0	75.53823471069336	
6	60.50906801223755	fix_post	2		12	4.0	2.5	/experiments/Knapen_AOT/AOT_stimuli/rescaled_final/1176_fw.mp4	0.0	76.45483207702637	0.09995412826538086
7	60.60902214050293	fix_pre	0		120	5.0	2.5	/experiments/Knapen_AOT/AOT_stimuli/rescaled_final/0637_fw.mp4	0.0	76.55478620529175	1.0084452629089355
7	61.19264101982117	pulse	0	t		5.0	2.5	/experiments/Knapen_AOT/AOT_stimuli/rescaled_final/0637_fw.mp4	0.0	77.13840508460999	
7	61.617467403411865	movie	1		278	5.0	2.5	/experiments/Knapen_AOT/AOT_stimuli/rescaled_final/0637_fw.mp4	0.0	77.56323146820068	2.4920339584350586
7	62.7928352355957	pulse	1	t		5.0	2.5	/experiments/Knapen_AOT/AOT_stimuli/rescaled_final/0637_fw.mp4	0.0	78.73859930038452	
7	64.10950136184692	fix_post	2		12	5.0	2.5	/experiments/Knapen_AOT/AOT_stimuli/rescaled_final/0637_fw.mp4	0.0	80.05526542663574	0.10008120536804199
8	64.20958256721497	fix_pre	0		120	6.0	2.5	blank	1.0	80.15534663200378	1.0000998973846436
8	64.3931028842926	pulse	0	t		6.0	2.5	blank	1.0	80.33886694908142	
8	65.20968246459961	movie	1		300	6.0	2.5	blank	1.0	81.15544652938843	2.500377893447876
8	65.99336791038513	pulse	1	t		6.0	2.5	blank	1.0	81.93913197517395	
8	67.59374713897705	pulse	1	t		6.0	2.5	blank	1.0	83.53951120376587	
8	67.71006035804749	fix_post	2		12	6.0	2.5	blank	1.0	83.6558244228363	0.10003805160522461
9	67.81009840965271	fix_pre	0		120	7.0	2.5	/experiments/Knapen_AOT/AOT_stimuli/rescaled_final/1032_rv.mp4	0.0	83.75586247444153	1.008577585220337
9	68.81867599487305	movie	1		290	7.0	2.5	/experiments/Knapen_AOT/AOT_stimuli/rescaled_final/1032_rv.mp4	0.0	84.76444005966187	2.4919166564941406
9	69.19272494316101	pulse	1	t		7.0	2.5	/experiments/Knapen_AOT/AOT_stimuli/rescaled_final/1032_rv.mp4	0.0	85.13848900794983	
9	70.79409098625183	pulse	1	t		7.0	2.5	/experiments/Knapen_AOT/AOT_stimuli/rescaled_final/1032_rv.mp4	0.0	86.73985505104065	
9	71.31059265136719	fix_post	2		12	7.0	2.5	/experiments/Knapen_AOT/AOT_stimuli/rescaled_final/1032_rv.mp4	0.0	87.256356716156	0.10006189346313477
10	71.41065454483032	fix_pre	0		119	8.0	2.5	/experiments/Knapen_AOT/AOT_stimuli/rescaled_final/0597_rv.mp4	0.0	87.35641860961914	1.0001323223114014
10	72.39441752433777	pulse	0	t		8.0	2.5	/experiments/Knapen_AOT/AOT_stimuli/rescaled_final/0597_rv.mp4	0.0	88.34018158912659	
10	72.41078686714172	movie	1		291	8.0	2.5	/experiments/Knapen_AOT/AOT_stimuli/rescaled_final/0597_rv.mp4	0.0	88.35655093193054	2.500342607498169
10	73.99288821220398	pulse	1	t		8.0	2.5	/experiments/Knapen_AOT/AOT_stimuli/rescaled_final/0597_rv.mp4	0.0	89.9386522769928	
10	74.91112947463989	fix_post	2		12	8.0	2.5	/experiments/Knapen_AOT/AOT_stimuli/rescaled_final/0597_rv.mp4	0.0	90.85689353942871	0.10001802444458008
11	75.01114749908447	fix_pre	0		120	9.0	2.5	/experiments/Knapen_AOT/AOT_stimuli/rescaled_final/1128_fw.mp4	0.0	90.95691156387329	1.008577585220337
11	75.59497785568237	pulse	0	t		9.0	2.5	/experiments/Knapen_AOT/AOT_stimuli/rescaled_final/1128_fw.mp4	0.0	91.54074192047119	
11	76.01972508430481	movie	1		283	9.0	2.5	/experiments/Knapen_AOT/AOT_stimuli/rescaled_final/1128_fw.mp4	0.0	91.96548914909363	2.4919705390930176
11	77.19399499893188	pulse	1	t		9.0	2.5	/experiments/Knapen_AOT/AOT_stimuli/rescaled_final/1128_fw.mp4	0.0	93.1397590637207	
11	78.51169562339783	fix_post	2		12	9.0	2.5	/experiments/Knapen_AOT/AOT_stimuli/rescaled_final/1128_fw.mp4	0.0	94.45745968818665	0.10003924369812012
12	78.61173486709595	fix_pre	0		120	10.0	2.5	/experiments/Knapen_AOT/AOT_stimuli/rescaled_final/2121_fw.mp4	0.0	94.55749893188477	1.0085837841033936
12	78.79529905319214	pulse	0	t		10.0	2.5	/experiments/Knapen_AOT/AOT_stimuli/rescaled_final/2121_fw.mp4	0.0	94.74106311798096	
12	79.62031865119934	movie	1		289	10.0	2.5	/experiments/Knapen_AOT/AOT_stimuli/rescaled_final/2121_fw.mp4	0.0	95.56608271598816	2.4919381141662598
12	80.39372944831848	pulse	1	t		10.0	2.5	/experiments/Knapen_AOT/AOT_stimuli/rescaled_final/2121_fw.mp4	0.0	96.3394935131073	
12	81.99365305900574	pulse	1	t		10.0	2.5	/experiments/Knapen_AOT/AOT_stimuli/rescaled_final/2121_fw.mp4	0.0	97.93941712379456	
12	82.1122567653656	fix_post	2		12	10.0	2.5	/experiments/Knapen_AOT/AOT_stimuli/rescaled_final/2121_fw.mp4	0.0	98.05802083015442	0.09997153282165527
13	82.21222829818726	fix_pre	0		120	11.0	2.5	/experiments/Knapen_AOT/AOT_stimuli/rescaled_final/0450_rv.mp4	0.0	98.15799236297607	1.008561134338379
13	83.22078943252563	movie	1		284	11.0	2.5	/experiments/Knapen_AOT/AOT_stimuli/rescaled_final/0450_rv.mp4	0.0	99.16655349731445	2.4919586181640625
13	83.594473361969	pulse	1	t		11.0	2.5	/experiments/Knapen_AOT/AOT_stimuli/rescaled_final/0450_rv.mp4	0.0	99.54023742675781	
13	85.19814205169678	pulse	1	t		11.0	2.5	/experiments/Knapen_AOT/AOT_stimuli/rescaled_final/0450_rv.mp4	0.0	101.1439061164856	
13	85.7127480506897	fix_post	2		12	11.0	2.5	/experiments/Knapen_AOT/AOT_stimuli/rescaled_final/0450_rv.mp4	0.0	101.65851211547852	0.10001873970031738
14	85.81276679039001	fix_pre	0		119	12.0	2.5	blank	1.0	101.75853085517883	0.9918251037597656
14	86.79648041725159	pulse	0	t		12.0	2.5	blank	1.0	102.7422444820404	
14	86.80459189414978	movie	1		301	12.0	2.5	blank	1.0	102.7503559589386	2.508707284927368
14	88.39675307273865	pulse	1	t		12.0	2.5	blank	1.0	104.34251713752747	
14	89.31329917907715	fix_post	2		12	12.0	2.5	blank	1.0	105.25906324386597	0.10007882118225098
15	89.4133780002594	fix_pre	0		120	13.0	2.5	/experiments/Knapen_AOT/AOT_stimuli/rescaled_final/1542_fw.mp4	0.0	105.35914206504822	1.008467435836792
15	89.99705243110657	pulse	0	t		13.0	2.5	/experiments/Knapen_AOT/AOT_stimuli/rescaled_final/1542_fw.mp4	0.0	105.94281649589539	
15	90.42184543609619	movie	1		289	13.0	2.5	/experiments/Knapen_AOT/AOT_stimuli/rescaled_final/1542_fw.mp4	0.0	106.36760950088501	2.4920032024383545
15	91.59553909301758	pulse	1	t		13.0	2.5	/experiments/Knapen_AOT/AOT_stimuli/rescaled_final/1542_fw.mp4	0.0	107.5413031578064	
15	92.91384863853455	fix_post	2		12	13.0	2.5	/experiments/Knapen_AOT/AOT_stimuli/rescaled_final/1542_fw.mp4	0.0	108.85961270332336	0.10005354881286621
16	93.01390218734741	fix_pre	0		120	14.0	2.5	/experiments/Knapen_AOT/AOT_stimuli/rescaled_final/0218_fw.mp4	0.0	108.95966625213623	1.0084238052368164
16	93.19743394851685	pulse	0	t		14.0	2.5	/experiments/Knapen_AOT/AOT_stimuli/rescaled_final/0218_fw.mp4	0.0	109.14319801330566	
16	94.02232599258423	movie	1		287	14.0	2.5	/experiments/Knapen_AOT/AOT_stimuli/rescaled_final/0218_fw.mp4	0.0	109.96809005737305	2.492058277130127
16	94.79626965522766	pulse	1	t		14.0	2.5	/experiments/Knapen_AOT/AOT_stimuli/rescaled_final/0218_fw.mp4	0.0	110.74203372001648	
16	96.39590096473694	pulse	1	t		14.0	2.5	/experiments/Knapen_AOT/AOT_stimuli/rescaled_final/0218_fw.mp4	0.0	112.34166502952576	
16	96.51438426971436	fix_post	2		12	14.0	2.5	/experiments/Knapen_AOT/AOT_stimuli/rescaled_final/0218_fw.mp4	0.0	112.46014833450317	0.10008621215820312
17	96.61447048187256	fix_pre	0		120	15.0	2.5	/experiments/Knapen_AOT/AOT_stimuli/rescaled_final/2135_fw.mp4	0.0	112.56023454666138	1.0085334777832031
17	97.62300395965576	movie	1		289	15.0	2.5	/experiments/Knapen_AOT/AOT_stimuli/rescaled_final/2135_fw.mp4	0.0	113.56876802444458	2.4920637607574463
17	97.99687504768372	pulse	1	t		15.0	2.5	/experiments/Knapen_AOT/AOT_stimuli/rescaled_final/2135_fw.mp4	0.0	113.94263911247253	
17	99.59639978408813	pulse	1	t		15.0	2.5	/experiments/Knapen_AOT/AOT_stimuli/rescaled_final/2135_fw.mp4	0.0	115.54216384887695	
17	100.11506772041321	fix_post	2		12	15.0	2.5	/experiments/Knapen_AOT/AOT_stimuli/rescaled_final/2135_fw.mp4	0.0	116.06083178520203	0.09988856315612793
18	100.21495628356934	fix_pre	0		119	16.0	2.5	/experiments/Knapen_AOT/AOT_stimuli/rescaled_final/1525_fw.mp4	0.0	116.16072034835815	1.0001604557037354
18	101.19873285293579	pulse	0	t		16.0	2.5	/experiments/Knapen_AOT/AOT_stimuli/rescaled_final/1525_fw.mp4	0.0	117.14449691772461	
18	101.21511673927307	movie	1		290	16.0	2.5	/experiments/Knapen_AOT/AOT_stimuli/rescaled_final/1525_fw.mp4	0.0	117.16088080406189	2.5003769397735596
18	102.79739451408386	pulse	1	t		16.0	2.5	/experiments/Knapen_AOT/AOT_stimuli/rescaled_final/1525_fw.mp4	0.0	118.74315857887268	
18	103.71549367904663	fix_post	2		12	16.0	2.5	/experiments/Knapen_AOT/AOT_stimuli/rescaled_final/1525_fw.mp4	0.0	119.66125774383545	0.10002374649047852
19	103.81551742553711	fix_pre	0		120	17.0	2.5	/experiments/Knapen_AOT/AOT_stimuli/rescaled_final/1392_rv.mp4	0.0	119.76128149032593	1.0085716247558594
19	104.39946484565735	pulse	0	t		17.0	2.5	/experiments/Knapen_AOT/AOT_stimuli/rescaled_final/1392_rv.mp4	0.0	120.34522891044617	
19	104.82408905029297	movie	1		287	17.0	2.5	/experiments/Knapen_AOT/AOT_stimuli/rescaled_final/1392_rv.mp4	0.0	120.76985311508179	2.492011070251465
19	105.9979817867279	pulse	1	t		17.0	2.5	/experiments/Knapen_AOT/AOT_stimuli/rescaled_final/1392_rv.mp4	0.0	121.94374585151672	
19	107.31610012054443	fix_post	2		12	17.0	2.5	/experiments/Knapen_AOT/AOT_stimuli/rescaled_final/1392_rv.mp4	0.0	123.26186418533325	0.0999453067779541
20	107.41604542732239	fix_pre	0		120	18.0	2.5	/experiments/Knapen_AOT/AOT_stimuli/rescaled_final/1176_rv.mp4	0.0	123.3618094921112	1.0085036754608154
20	107.59976530075073	pulse	0	t		18.0	2.5	/experiments/Knapen_AOT/AOT_stimuli/rescaled_final/1176_rv.mp4	0.0	123.54552936553955	
20	108.4245491027832	movie	1		285	18.0	2.5	/experiments/Knapen_AOT/AOT_stimuli/rescaled_final/1176_rv.mp4	0.0	124.37031316757202	2.4919846057891846
20	109.19928407669067	pulse	1	t		18.0	2.5	/experiments/Knapen_AOT/AOT_stimuli/rescaled_final/1176_rv.mp4	0.0	125.14504814147949	
20	110.79821681976318	pulse	1	t		18.0	2.5	/experiments/Knapen_AOT/AOT_stimuli/rescaled_final/1176_rv.mp4	0.0	126.743980884552	
20	110.91653370857239	fix_post	2		12	18.0	2.5	/experiments/Knapen_AOT/AOT_stimuli/rescaled_final/1176_rv.mp4	0.0	126.8622977733612	0.10007810592651367
21	111.0166118144989	fix_pre	0		120	19.0	2.5	/experiments/Knapen_AOT/AOT_stimuli/rescaled_final/1326_fw.mp4	0.0	126.96237587928772	1.0084686279296875
21	112.02508044242859	movie	1		286	19.0	2.5	/experiments/Knapen_AOT/AOT_stimuli/rescaled_final/1326_fw.mp4	0.0	127.97084450721741	2.492205858230591
21	112.39975094795227	pulse	1	t		19.0	2.5	/experiments/Knapen_AOT/AOT_stimuli/rescaled_final/1326_fw.mp4	0.0	128.3455150127411	
21	113.99258804321289	pulse	1	t		19.0	2.5	/experiments/Knapen_AOT/AOT_stimuli/rescaled_final/1326_fw.mp4	0.0	129.9383521080017	
21	114.51728630065918	fix_post	2		12	19.0	2.5	/experiments/Knapen_AOT/AOT_stimuli/rescaled_final/1326_fw.mp4	0.0	130.463050365448	0.09983205795288086
22	114.61711835861206	fix_pre	0		118	20.0	2.5	/experiments/Knapen_AOT/AOT_stimuli/rescaled_final/0478_rv.mp4	0.0	130.56288242340088	1.000194787979126
22	115.5925190448761	pulse	0	t		20.0	2.5	/experiments/Knapen_AOT/AOT_stimuli/rescaled_final/0478_rv.mp4	0.0	131.53828310966492	
22	115.61731314659119	movie	1		285	20.0	2.5	/experiments/Knapen_AOT/AOT_stimuli/rescaled_final/0478_rv.mp4	0.0	131.56307721138	2.491966724395752
22	117.19280290603638	pulse	1	t		20.0	2.5	/experiments/Knapen_AOT/AOT_stimuli/rescaled_final/0478_rv.mp4	0.0	133.1385669708252	
22	118.10927987098694	fix_post	2		12	20.0	2.5	/experiments/Knapen_AOT/AOT_stimuli/rescaled_final/0478_rv.mp4	0.0	134.05504393577576	0.10003137588500977
23	118.20931124687195	fix_pre	0		120	21.0	2.5	blank	1.0	134.15507531166077	1.0001680850982666
23	118.79305052757263	pulse	0	t		21.0	2.5	blank	1.0	134.73881459236145	
23	119.20947933197021	movie	1		300	21.0	2.5	blank	1.0	135.15524339675903	2.5003879070281982
23	120.3934051990509	pulse	1	t		21.0	2.5	blank	1.0	136.33916926383972	
23	121.70986723899841	fix_post	2		12	21.0	2.5	blank	1.0	137.65563130378723	0.10000133514404297
24	121.80986857414246	fix_pre	0		120	22.0	2.5	/experiments/Knapen_AOT/AOT_stimuli/rescaled_final/2146_rv.mp4	0.0	137.75563263893127	1.0085780620574951
24	121.99361991882324	pulse	0	t		22.0	2.5	/experiments/Knapen_AOT/AOT_stimuli/rescaled_final/2146_rv.mp4	0.0	137.93938398361206	
24	122.81844663619995	movie	1		287	22.0	2.5	/experiments/Knapen_AOT/AOT_stimuli/rescaled_final/2146_rv.mp4	0.0	138.76421070098877	2.491969108581543
24	123.59378623962402	pulse	1	t		22.0	2.5	/experiments/Knapen_AOT/AOT_stimuli/rescaled_final/2146_rv.mp4	0.0	139.53955030441284	
24	125.19390106201172	pulse	1	t		22.0	2.5	/experiments/Knapen_AOT/AOT_stimuli/rescaled_final/2146_rv.mp4	0.0	141.13966512680054	
24	125.3104157447815	fix_post	2		12	22.0	2.5	/experiments/Knapen_AOT/AOT_stimuli/rescaled_final/2146_rv.mp4	0.0	141.2561798095703	0.09998440742492676
25	125.41040015220642	fix_pre	0		120	23.0	2.5	/experiments/Knapen_AOT/AOT_stimuli/rescaled_final/2152_rv.mp4	0.0	141.35616421699524	1.0085124969482422
25	126.41891264915466	movie	1		282	23.0	2.5	/experiments/Knapen_AOT/AOT_stimuli/rescaled_final/2152_rv.mp4	0.0	142.36467671394348	2.492027521133423
25	126.79265856742859	pulse	1	t		23.0	2.5	/experiments/Knapen_AOT/AOT_stimuli/rescaled_final/2152_rv.mp4	0.0	142.7384226322174	
25	128.39448857307434	pulse	1	t		23.0	2.5	/experiments/Knapen_AOT/AOT_stimuli/rescaled_final/2152_rv.mp4	0.0	144.34025263786316	
25	128.9109401702881	fix_post	2		12	23.0	2.5	/experiments/Knapen_AOT/AOT_stimuli/rescaled_final/2152_rv.mp4	0.0	144.8567042350769	0.10006213188171387
26	129.0110023021698	fix_pre	0		119	24.0	2.5	/experiments/Knapen_AOT/AOT_stimuli/rescaled_final/0266_rv.mp4	0.0	144.95676636695862	1.0001375675201416
26	129.99488043785095	pulse	0	t		24.0	2.5	/experiments/Knapen_AOT/AOT_stimuli/rescaled_final/0266_rv.mp4	0.0	145.94064450263977	
26	130.01113986968994	movie	1		293	24.0	2.5	/experiments/Knapen_AOT/AOT_stimuli/rescaled_final/0266_rv.mp4	0.0	145.95690393447876	2.500338315963745
26	131.59362649917603	pulse	1	t		24.0	2.5	/experiments/Knapen_AOT/AOT_stimuli/rescaled_final/0266_rv.mp4	0.0	147.53939056396484	
26	132.5114781856537	fix_post	2		12	24.0	2.5	/experiments/Knapen_AOT/AOT_stimuli/rescaled_final/0266_rv.mp4	0.0	148.4572422504425	0.1000370979309082
27	132.6115152835846	fix_pre	0		120	25.0	2.5	/experiments/Knapen_AOT/AOT_stimuli/rescaled_final/0930_rv.mp4	0.0	148.5572793483734	1.0084800720214844
27	133.19516324996948	pulse	0	t		25.0	2.5	/experiments/Knapen_AOT/AOT_stimuli/rescaled_final/0930_rv.mp4	0.0	149.1409273147583	
27	133.61999535560608	movie	1		290	25.0	2.5	/experiments/Knapen_AOT/AOT_stimuli/rescaled_final/0930_rv.mp4	0.0	149.5657594203949	2.492021322250366
27	134.79392647743225	pulse	1	t		25.0	2.5	/experiments/Knapen_AOT/AOT_stimuli/rescaled_final/0930_rv.mp4	0.0	150.73969054222107	
27	136.11201667785645	fix_post	2		12	25.0	2.5	/experiments/Knapen_AOT/AOT_stimuli/rescaled_final/0930_rv.mp4	0.0	152.05778074264526	0.10007071495056152
28	136.212087392807	fix_pre	0		120	26.0	2.5	/experiments/Knapen_AOT/AOT_stimuli/rescaled_final/0691_fw.mp4	0.0	152.15785145759583	1.0084662437438965
28	136.3955636024475	pulse	0	t		26.0	2.5	/experiments/Knapen_AOT/AOT_stimuli/rescaled_final/0691_fw.mp4	0.0	152.34132766723633	
28	137.2205536365509	movie	1		283	26.0	2.5	/experiments/Knapen_AOT/AOT_stimuli/rescaled_final/0691_fw.mp4	0.0	153.16631770133972	2.491978645324707
28	137.99368238449097	pulse	1	t		26.0	2.5	/experiments/Knapen_AOT/AOT_stimuli/rescaled_final/0691_fw.mp4	0.0	153.93944644927979	
28	139.5943787097931	pulse	1	t		26.0	2.5	/experiments/Knapen_AOT/AOT_stimuli/rescaled_final/0691_fw.mp4	0.0	155.5401427745819	
28	139.7125322818756	fix_post	2		12	26.0	2.5	/experiments/Knapen_AOT/AOT_stimuli/rescaled_final/0691_fw.mp4	0.0	155.65829634666443	0.10005331039428711
29	139.8125855922699	fix_pre	0		120	27.0	2.5	blank	1.0	155.75834965705872	1.000150203704834
29	140.81273579597473	movie	1		300	27.0	2.5	blank	1.0	156.75849986076355	2.5003504753112793
29	141.19631218910217	pulse	1	t		27.0	2.5	blank	1.0	157.142076253891	
29	142.79664540290833	pulse	1	t		27.0	2.5	blank	1.0	158.74240946769714	
29	143.313086271286	fix_post	2		12	27.0	2.5	blank	1.0	159.25885033607483	0.10006928443908691
30	143.4131555557251	fix_pre	0		119	28.0	2.5	/experiments/Knapen_AOT/AOT_stimuli/rescaled_final/1010_rv.mp4	0.0	159.35891962051392	1.0001440048217773
30	144.39687299728394	pulse	0	t		28.0	2.5	/experiments/Knapen_AOT/AOT_stimuli/rescaled_final/1010_rv.mp4	0.0	160.34263706207275	
30	144.41329956054688	movie	1		291	28.0	2.5	/experiments/Knapen_AOT/AOT_stimuli/rescaled_final/1010_rv.mp4	0.0	160.3590636253357	2.5086960792541504
30	145.99619221687317	pulse	1	t		28.0	2.5	/experiments/Knapen_AOT/AOT_stimuli/rescaled_final/1010_rv.mp4	0.0	161.941956281662	
30	146.92199563980103	fix_post	2		11	28.0	2.5	/experiments/Knapen_AOT/AOT_stimuli/rescaled_final/1010_rv.mp4	0.0	162.86775970458984	0.09167695045471191
31	147.01367259025574	fix_pre	0		120	29.0	2.5	/experiments/Knapen_AOT/AOT_stimuli/rescaled_final/1379_fw.mp4	0.0	162.95943665504456	1.0085210800170898
31	147.59730625152588	pulse	0	t		29.0	2.5	/experiments/Knapen_AOT/AOT_stimuli/rescaled_final/1379_fw.mp4	0.0	163.5430703163147	
31	148.02219367027283	movie	1		287	29.0	2.5	/experiments/Knapen_AOT/AOT_stimuli/rescaled_final/1379_fw.mp4	0.0	163.96795773506165	2.491989850997925
31	149.19567227363586	pulse	1	t		29.0	2.5	/experiments/Knapen_AOT/AOT_stimuli/rescaled_final/1379_fw.mp4	0.0	165.14143633842468	
31	150.51418352127075	fix_post	2		12	29.0	2.5	/experiments/Knapen_AOT/AOT_stimuli/rescaled_final/1379_fw.mp4	0.0	166.45994758605957	0.10004091262817383
32	150.61422443389893	fix_pre	0		120	30.0	2.5	/experiments/Knapen_AOT/AOT_stimuli/rescaled_final/0513_fw.mp4	0.0	166.55998849868774	1.0085198879241943
32	150.79775977134705	pulse	0	t		30.0	2.5	/experiments/Knapen_AOT/AOT_stimuli/rescaled_final/0513_fw.mp4	0.0	166.74352383613586	
32	151.62274432182312	movie	1		276	30.0	2.5	/experiments/Knapen_AOT/AOT_stimuli/rescaled_final/0513_fw.mp4	0.0	167.56850838661194	2.49198317527771
32	152.3963873386383	pulse	1	t		30.0	2.5	/experiments/Knapen_AOT/AOT_stimuli/rescaled_final/0513_fw.mp4	0.0	168.34215140342712	
32	153.9963698387146	pulse	1	t		30.0	2.5	/experiments/Knapen_AOT/AOT_stimuli/rescaled_final/0513_fw.mp4	0.0	169.94213390350342	
32	154.11472749710083	fix_post	2		12	30.0	2.5	/experiments/Knapen_AOT/AOT_stimuli/rescaled_final/0513_fw.mp4	0.0	170.06049156188965	0.10002541542053223
33	154.21475291252136	fix_pre	0		120	31.0	2.5	/experiments/Knapen_AOT/AOT_stimuli/rescaled_final/1711_rv.mp4	0.0	170.16051697731018	1.0084731578826904
33	155.22322607040405	movie	1		285	31.0	2.5	/experiments/Knapen_AOT/AOT_stimuli/rescaled_final/1711_rv.mp4	0.0	171.16899013519287	2.4920432567596436
33	155.5970447063446	pulse	1	t		31.0	2.5	/experiments/Knapen_AOT/AOT_stimuli/rescaled_final/1711_rv.mp4	0.0	171.54280877113342	
33	157.19653606414795	pulse	1	t		31.0	2.5	/experiments/Knapen_AOT/AOT_stimuli/rescaled_final/1711_rv.mp4	0.0	173.14230012893677	
33	157.7152693271637	fix_post	2		12	31.0	2.5	/experiments/Knapen_AOT/AOT_stimuli/rescaled_final/1711_rv.mp4	0.0	173.66103339195251	0.10005784034729004
34	157.815327167511	fix_pre	0		119	32.0	2.5	/experiments/Knapen_AOT/AOT_stimuli/rescaled_final/0709_rv.mp4	0.0	173.7610912322998	1.0001280307769775
34	158.79913353919983	pulse	0	t		32.0	2.5	/experiments/Knapen_AOT/AOT_stimuli/rescaled_final/0709_rv.mp4	0.0	174.74489760398865	
34	158.81545519828796	movie	1		288	32.0	2.5	/experiments/Knapen_AOT/AOT_stimuli/rescaled_final/0709_rv.mp4	0.0	174.76121926307678	2.5003674030303955
34	160.3975043296814	pulse	1	t		32.0	2.5	/experiments/Knapen_AOT/AOT_stimuli/rescaled_final/0709_rv.mp4	0.0	176.34326839447021	
34	161.31582260131836	fix_post	2		12	32.0	2.5	/experiments/Knapen_AOT/AOT_stimuli/rescaled_final/0709_rv.mp4	0.0	177.26158666610718	0.1000356674194336
35	161.4158582687378	fix_pre	0		120	33.0	2.5	blank	1.0	177.3616223335266	1.0001699924468994
35	161.99956274032593	pulse	0	t		33.0	2.5	blank	1.0	177.94532680511475	
35	162.4160282611847	movie	1		300	33.0	2.5	blank	1.0	178.3617923259735	2.500307083129883
35	163.60001158714294	pulse	1	t		33.0	2.5	blank	1.0	179.54577565193176	
35	164.91633534431458	fix_post	2		12	33.0	2.5	blank	1.0	180.8620994091034	0.10013270378112793
36	165.0164680480957	fix_pre	0		120	34.0	2.5	/experiments/Knapen_AOT/AOT_stimuli/rescaled_final/1070_fw.mp4	0.0	180.96223211288452	1.0084316730499268
36	165.1999433040619	pulse	0	t		34.0	2.5	/experiments/Knapen_AOT/AOT_stimuli/rescaled_final/1070_fw.mp4	0.0	181.1457073688507	
36	166.02489972114563	movie	1		281	34.0	2.5	/experiments/Knapen_AOT/AOT_stimuli/rescaled_final/1070_fw.mp4	0.0	181.97066378593445	2.491988182067871
36	166.79811453819275	pulse	1	t		34.0	2.5	/experiments/Knapen_AOT/AOT_stimuli/rescaled_final/1070_fw.mp4	0.0	182.74387860298157	
36	168.39838576316833	pulse	1	t		34.0	2.5	/experiments/Knapen_AOT/AOT_stimuli/rescaled_final/1070_fw.mp4	0.0	184.34414982795715	
36	168.5168879032135	fix_post	2		12	34.0	2.5	/experiments/Knapen_AOT/AOT_stimuli/rescaled_final/1070_fw.mp4	0.0	184.46265196800232	0.10001420974731445
37	168.61690211296082	fix_pre	0		120	35.0	2.5	/experiments/Knapen_AOT/AOT_stimuli/rescaled_final/1569_rv.mp4	0.0	184.56266617774963	1.0085861682891846
37	169.62548828125	movie	1		283	35.0	2.5	/experiments/Knapen_AOT/AOT_stimuli/rescaled_final/1569_rv.mp4	0.0	185.57125234603882	2.491960048675537
37	169.99944305419922	pulse	1	t		35.0	2.5	/experiments/Knapen_AOT/AOT_stimuli/rescaled_final/1569_rv.mp4	0.0	185.94520711898804	
37	171.59853982925415	pulse	1	t		35.0	2.5	/experiments/Knapen_AOT/AOT_stimuli/rescaled_final/1569_rv.mp4	0.0	187.54430389404297	
37	172.11744832992554	fix_post	2		12	35.0	2.5	/experiments/Knapen_AOT/AOT_stimuli/rescaled_final/1569_rv.mp4	0.0	188.06321239471436	0.1000509262084961
38	172.21749925613403	fix_pre	0		118	36.0	2.5	/experiments/Knapen_AOT/AOT_stimuli/rescaled_final/0416_rv.mp4	0.0	188.16326332092285	0.9918179512023926
38	173.19299507141113	pulse	0	t		36.0	2.5	/experiments/Knapen_AOT/AOT_stimuli/rescaled_final/0416_rv.mp4	0.0	189.13875913619995	
38	173.20931720733643	movie	1		291	36.0	2.5	/experiments/Knapen_AOT/AOT_stimuli/rescaled_final/0416_rv.mp4	0.0	189.15508127212524	2.5003468990325928
38	174.79332399368286	pulse	1	t		36.0	2.5	/experiments/Knapen_AOT/AOT_stimuli/rescaled_final/0416_rv.mp4	0.0	190.73908805847168	
38	175.70966410636902	fix_post	2		12	36.0	2.5	/experiments/Knapen_AOT/AOT_stimuli/rescaled_final/0416_rv.mp4	0.0	191.65542817115784	0.1000669002532959
39	175.80973100662231	fix_pre	0		120	37.0	2.5	/experiments/Knapen_AOT/AOT_stimuli/rescaled_final/1482_rv.mp4	0.0	191.75549507141113	1.008422613143921
39	176.39331793785095	pulse	0	t		37.0	2.5	/experiments/Knapen_AOT/AOT_stimuli/rescaled_final/1482_rv.mp4	0.0	192.33908200263977	
39	176.81815361976624	movie	1		287	37.0	2.5	/experiments/Knapen_AOT/AOT_stimuli/rescaled_final/1482_rv.mp4	0.0	192.76391768455505	2.4920127391815186
39	177.99357986450195	pulse	1	t		37.0	2.5	/experiments/Knapen_AOT/AOT_stimuli/rescaled_final/1482_rv.mp4	0.0	193.93934392929077	
39	179.31016635894775	fix_post	2		12	37.0	2.5	/experiments/Knapen_AOT/AOT_stimuli/rescaled_final/1482_rv.mp4	0.0	195.25593042373657	0.10006165504455566
40	179.4102280139923	fix_pre	0		120	38.0	2.5	/experiments/Knapen_AOT/AOT_stimuli/rescaled_final/1830_fw.mp4	0.0	195.35599207878113	1.0084717273712158
40	179.59376430511475	pulse	0	t		38.0	2.5	/experiments/Knapen_AOT/AOT_stimuli/rescaled_final/1830_fw.mp4	0.0	195.53952836990356	
40	180.41869974136353	movie	1		289	38.0	2.5	/experiments/Knapen_AOT/AOT_stimuli/rescaled_final/1830_fw.mp4	0.0	196.36446380615234	2.4920055866241455
40	181.1933150291443	pulse	1	t		38.0	2.5	/experiments/Knapen_AOT/AOT_stimuli/rescaled_final/1830_fw.mp4	0.0	197.1390790939331	
40	182.7921679019928	pulse	1	t		38.0	2.5	/experiments/Knapen_AOT/AOT_stimuli/rescaled_final/1830_fw.mp4	0.0	198.73793196678162	
40	182.91070532798767	fix_post	2		12	38.0	2.5	/experiments/Knapen_AOT/AOT_stimuli/rescaled_final/1830_fw.mp4	0.0	198.8564693927765	0.10012078285217285
41	183.01082611083984	fix_pre	0		120	39.0	2.5	/experiments/Knapen_AOT/AOT_stimuli/rescaled_final/1345_fw.mp4	0.0	198.95659017562866	1.008420467376709
41	184.01924657821655	movie	1		285	39.0	2.5	/experiments/Knapen_AOT/AOT_stimuli/rescaled_final/1345_fw.mp4	0.0	199.96501064300537	2.492037534713745
41	184.39327263832092	pulse	1	t		39.0	2.5	/experiments/Knapen_AOT/AOT_stimuli/rescaled_final/1345_fw.mp4	0.0	200.33903670310974	
41	185.99473357200623	pulse	1	t		39.0	2.5	/experiments/Knapen_AOT/AOT_stimuli/rescaled_final/1345_fw.mp4	0.0	201.94049763679504	
41	186.5112841129303	fix_post	2		12	39.0	2.5	/experiments/Knapen_AOT/AOT_stimuli/rescaled_final/1345_fw.mp4	0.0	202.45704817771912	0.10000348091125488
42	186.61128759384155	fix_pre	0		119	40.0	2.5	/experiments/Knapen_AOT/AOT_stimuli/rescaled_final/1032_fw.mp4	0.0	202.55705165863037	1.0001556873321533
42	187.59509587287903	pulse	0	t		40.0	2.5	/experiments/Knapen_AOT/AOT_stimuli/rescaled_final/1032_fw.mp4	0.0	203.54085993766785	
42	187.6114432811737	movie	1		283	40.0	2.5	/experiments/Knapen_AOT/AOT_stimuli/rescaled_final/1032_fw.mp4	0.0	203.55720734596252	2.5003466606140137
42	189.19397044181824	pulse	1	t		40.0	2.5	/experiments/Knapen_AOT/AOT_stimuli/rescaled_final/1032_fw.mp4	0.0	205.13973450660706	
42	190.11178994178772	fix_post	2		12	40.0	2.5	/experiments/Knapen_AOT/AOT_stimuli/rescaled_final/1032_fw.mp4	0.0	206.05755400657654	0.100067138671875
43	190.2118570804596	fix_pre	0		120	41.0	2.5	/experiments/Knapen_AOT/AOT_stimuli/rescaled_final/0189_fw.mp4	0.0	206.1576211452484	1.008479356765747
43	190.7954385280609	pulse	0	t		41.0	2.5	/experiments/Knapen_AOT/AOT_stimuli/rescaled_final/0189_fw.mp4	0.0	206.74120259284973	
43	191.22033643722534	movie	1		274	41.0	2.5	/experiments/Knapen_AOT/AOT_stimuli/rescaled_final/0189_fw.mp4	0.0	207.16610050201416	2.491999387741089
43	192.394873380661	pulse	1	t		41.0	2.5	/experiments/Knapen_AOT/AOT_stimuli/rescaled_final/0189_fw.mp4	0.0	208.34063744544983	
43	193.71233582496643	fix_post	2		12	41.0	2.5	/experiments/Knapen_AOT/AOT_stimuli/rescaled_final/0189_fw.mp4	0.0	209.65809988975525	0.10008454322814941
44	193.81242036819458	fix_pre	0		120	42.0	2.5	blank	1.0	209.7581844329834	1.0000653266906738
44	193.99590754508972	pulse	0	t		42.0	2.5	blank	1.0	209.94167160987854	
44	194.81248569488525	movie	1		300	42.0	2.5	blank	1.0	210.75824975967407	2.5004029273986816
44	195.59617161750793	pulse	1	t		42.0	2.5	blank	1.0	211.54193568229675	
44	197.19653177261353	pulse	1	t		42.0	2.5	blank	1.0	213.14229583740234	
44	197.31288862228394	fix_post	2		12	42.0	2.5	blank	1.0	213.25865268707275	0.10013365745544434
45	197.41302227973938	fix_pre	0		120	43.0	2.5	/experiments/Knapen_AOT/AOT_stimuli/rescaled_final/1816_fw.mp4	0.0	213.3587863445282	1.008399248123169
45	198.42142152786255	movie	1		281	43.0	2.5	/experiments/Knapen_AOT/AOT_stimuli/rescaled_final/1816_fw.mp4	0.0	214.36718559265137	2.492053270339966
45	198.79715418815613	pulse	1	t		43.0	2.5	/experiments/Knapen_AOT/AOT_stimuli/rescaled_final/1816_fw.mp4	0.0	214.74291825294495	
45	200.3952021598816	pulse	1	t		43.0	2.5	/experiments/Knapen_AOT/AOT_stimuli/rescaled_final/1816_fw.mp4	0.0	216.3409662246704	
45	200.91347479820251	fix_post	2		12	43.0	2.5	/experiments/Knapen_AOT/AOT_stimuli/rescaled_final/1816_fw.mp4	0.0	216.85923886299133	0.09994721412658691
46	201.0134220123291	fix_pre	0		119	44.0	2.5	/experiments/Knapen_AOT/AOT_stimuli/rescaled_final/0490_rv.mp4	0.0	216.95918607711792	1.0002236366271973
46	201.99715089797974	pulse	0	t		44.0	2.5	/experiments/Knapen_AOT/AOT_stimuli/rescaled_final/0490_rv.mp4	0.0	217.94291496276855	
46	202.0136456489563	movie	1		293	44.0	2.5	/experiments/Knapen_AOT/AOT_stimuli/rescaled_final/0490_rv.mp4	0.0	217.95940971374512	2.5003139972686768
46	203.59588384628296	pulse	1	t		44.0	2.5	/experiments/Knapen_AOT/AOT_stimuli/rescaled_final/0490_rv.mp4	0.0	219.54164791107178	
46	204.51395964622498	fix_post	2		12	44.0	2.5	/experiments/Knapen_AOT/AOT_stimuli/rescaled_final/0490_rv.mp4	0.0	220.4597237110138	0.10018134117126465
47	204.61414098739624	fix_pre	0		120	45.0	2.5	/experiments/Knapen_AOT/AOT_stimuli/rescaled_final/2135_fw.mp4	0.0	220.55990505218506	1.0084354877471924
47	205.19759154319763	pulse	0	t		45.0	2.5	/experiments/Knapen_AOT/AOT_stimuli/rescaled_final/2135_fw.mp4	0.0	221.14335560798645	
47	205.62257647514343	movie	1		285	45.0	2.5	/experiments/Knapen_AOT/AOT_stimuli/rescaled_final/2135_fw.mp4	0.0	221.56834053993225	2.4919281005859375
47	206.79658555984497	pulse	1	t		45.0	2.5	/experiments/Knapen_AOT/AOT_stimuli/rescaled_final/2135_fw.mp4	0.0	222.7423496246338	
47	208.11450457572937	fix_post	2		12	45.0	2.5	/experiments/Knapen_AOT/AOT_stimuli/rescaled_final/2135_fw.mp4	0.0	224.0602686405182	0.10003352165222168
48	208.2145380973816	fix_pre	0		120	46.0	2.5	/experiments/Knapen_AOT/AOT_stimuli/rescaled_final/0281_fw.mp4	0.0	224.1603021621704	1.0084965229034424
48	208.39809250831604	pulse	0	t		46.0	2.5	/experiments/Knapen_AOT/AOT_stimuli/rescaled_final/0281_fw.mp4	0.0	224.34385657310486	
48	209.22303462028503	movie	1		285	46.0	2.5	/experiments/Knapen_AOT/AOT_stimuli/rescaled_final/0281_fw.mp4	0.0	225.16879868507385	2.492032766342163
48	209.9969186782837	pulse	1	t		46.0	2.5	/experiments/Knapen_AOT/AOT_stimuli/rescaled_final/0281_fw.mp4	0.0	225.9426827430725	
48	211.59646320343018	pulse	1	t		46.0	2.5	/experiments/Knapen_AOT/AOT_stimuli/rescaled_final/0281_fw.mp4	0.0	227.542227268219	
48	211.7150673866272	fix_post	2		12	46.0	2.5	/experiments/Knapen_AOT/AOT_stimuli/rescaled_final/0281_fw.mp4	0.0	227.66083145141602	0.0999903678894043
49	211.8150577545166	fix_pre	0		120	47.0	2.5	blank	1.0	227.76082181930542	1.0001780986785889
49	212.8152358531952	movie	1		300	47.0	2.5	blank	1.0	228.760999917984	2.5003392696380615
49	213.1988217830658	pulse	1	t		47.0	2.5	blank	1.0	229.14458584785461	
49	214.79905772209167	pulse	1	t		47.0	2.5	blank	1.0	230.7448217868805	
49	215.31557512283325	fix_post	2		12	47.0	2.5	blank	1.0	231.26133918762207	0.10004019737243652
50	215.4156153202057	fix_pre	0		119	48.0	2.5	/experiments/Knapen_AOT/AOT_stimuli/rescaled_final/1538_rv.mp4	0.0	231.3613793849945	1.0085952281951904
50	216.3996183872223	pulse	0	t		48.0	2.5	/experiments/Knapen_AOT/AOT_stimuli/rescaled_final/1538_rv.mp4	0.0	232.3453824520111	
50	216.42421054840088	movie	1		270	48.0	2.5	/experiments/Knapen_AOT/AOT_stimuli/rescaled_final/1538_rv.mp4	0.0	232.3699746131897	2.4919240474700928
50	217.99810123443604	pulse	1	t		48.0	2.5	/experiments/Knapen_AOT/AOT_stimuli/rescaled_final/1538_rv.mp4	0.0	233.94386529922485	
50	218.91613459587097	fix_post	2		12	48.0	2.5	/experiments/Knapen_AOT/AOT_stimuli/rescaled_final/1538_rv.mp4	0.0	234.8618986606598	0.10008597373962402
51	219.0162205696106	fix_pre	0		120	49.0	2.5	/experiments/Knapen_AOT/AOT_stimuli/rescaled_final/2078_rv.mp4	0.0	234.9619846343994	1.0084171295166016
51	219.59234261512756	pulse	0	t		49.0	2.5	/experiments/Knapen_AOT/AOT_stimuli/rescaled_final/2078_rv.mp4	0.0	235.53810667991638	
51	220.0246376991272	movie	1		281	49.0	2.5	/experiments/Knapen_AOT/AOT_stimuli/rescaled_final/2078_rv.mp4	0.0	235.97040176391602	2.492032766342163
51	221.198575258255	pulse	1	t		49.0	2.5	/experiments/Knapen_AOT/AOT_stimuli/rescaled_final/2078_rv.mp4	0.0	237.14433932304382	
51	222.51667046546936	fix_post	2		12	49.0	2.5	/experiments/Knapen_AOT/AOT_stimuli/rescaled_final/2078_rv.mp4	0.0	238.46243453025818	0.10011053085327148
52	222.61678099632263	fix_pre	0		120	50.0	2.5	/experiments/Knapen_AOT/AOT_stimuli/rescaled_final/1043_fw.mp4	0.0	238.56254506111145	1.0084035396575928
52	222.79260897636414	pulse	0	t		50.0	2.5	/experiments/Knapen_AOT/AOT_stimuli/rescaled_final/1043_fw.mp4	0.0	238.73837304115295	
52	223.62518453598022	movie	1		278	50.0	2.5	/experiments/Knapen_AOT/AOT_stimuli/rescaled_final/1043_fw.mp4	0.0	239.57094860076904	2.4920384883880615
52	224.39256501197815	pulse	1	t		50.0	2.5	/experiments/Knapen_AOT/AOT_stimuli/rescaled_final/1043_fw.mp4	0.0	240.33832907676697	
52	225.9926905632019	pulse	1	t		50.0	2.5	/experiments/Knapen_AOT/AOT_stimuli/rescaled_final/1043_fw.mp4	0.0	241.93845462799072	
52	226.1172230243683	fix_post	2		12	50.0	2.5	/experiments/Knapen_AOT/AOT_stimuli/rescaled_final/1043_fw.mp4	0.0	242.0629870891571	0.10000491142272949
53	226.21722793579102	fix_pre	0		120	51.0	2.5	/experiments/Knapen_AOT/AOT_stimuli/rescaled_final/0542_rv.mp4	0.0	242.16299200057983	1.0085406303405762
53	227.2257685661316	movie	1		284	51.0	2.5	/experiments/Knapen_AOT/AOT_stimuli/rescaled_final/0542_rv.mp4	0.0	243.1715326309204	2.4919800758361816
53	227.5926821231842	pulse	1	t		51.0	2.5	/experiments/Knapen_AOT/AOT_stimuli/rescaled_final/0542_rv.mp4	0.0	243.53844618797302	
53	229.19290924072266	pulse	1	t		51.0	2.5	/experiments/Knapen_AOT/AOT_stimuli/rescaled_final/0542_rv.mp4	0.0	245.13867330551147	
53	229.71774864196777	fix_post	2		12	51.0	2.5	/experiments/Knapen_AOT/AOT_stimuli/rescaled_final/0542_rv.mp4	0.0	245.6635127067566	0.10002803802490234
54	229.81777667999268	fix_pre	0		118	52.0	2.5	/experiments/Knapen_AOT/AOT_stimuli/rescaled_final/0508_rv.mp4	0.0	245.7635407447815	0.9918437004089355
54	230.79333186149597	pulse	0	t		52.0	2.5	/experiments/Knapen_AOT/AOT_stimuli/rescaled_final/0508_rv.mp4	0.0	246.7390959262848	
54	230.8096203804016	movie	1		278	52.0	2.5	/experiments/Knapen_AOT/AOT_stimuli/rescaled_final/0508_rv.mp4	0.0	246.75538444519043	2.5003576278686523
54	232.39261198043823	pulse	1	t		52.0	2.5	/experiments/Knapen_AOT/AOT_stimuli/rescaled_final/0508_rv.mp4	0.0	248.33837604522705	
54	233.30997800827026	fix_post	2		12	52.0	2.5	/experiments/Knapen_AOT/AOT_stimuli/rescaled_final/0508_rv.mp4	0.0	249.25574207305908	0.10003662109375
55	233.410014629364	fix_pre	0		120	53.0	2.5	/experiments/Knapen_AOT/AOT_stimuli/rescaled_final/1267_fw.mp4	0.0	249.35577869415283	1.0085515975952148
55	233.9937927722931	pulse	0	t		53.0	2.5	/experiments/Knapen_AOT/AOT_stimuli/rescaled_final/1267_fw.mp4	0.0	249.9395568370819	
55	234.41856622695923	movie	1		283	53.0	2.5	/experiments/Knapen_AOT/AOT_stimuli/rescaled_final/1267_fw.mp4	0.0	250.36433029174805	2.491943359375
55	235.59239196777344	pulse	1	t		53.0	2.5	/experiments/Knapen_AOT/AOT_stimuli/rescaled_final/1267_fw.mp4	0.0	251.53815603256226	
55	236.91050958633423	fix_post	2		12	53.0	2.5	/experiments/Knapen_AOT/AOT_stimuli/rescaled_final/1267_fw.mp4	0.0	252.85627365112305	0.10001659393310547
56	237.01052618026733	fix_pre	0		120	54.0	2.5	blank	1.0	252.95629024505615	1.0002007484436035
56	237.19410872459412	pulse	0	t		54.0	2.5	blank	1.0	253.13987278938293	
56	238.01072692871094	movie	1		300	54.0	2.5	blank	1.0	253.95649099349976	2.500343084335327
56	238.79436349868774	pulse	1	t		54.0	2.5	blank	1.0	254.74012756347656	
56	240.39454889297485	pulse	1	t		54.0	2.5	blank	1.0	256.3403129577637	
56	240.51107001304626	fix_post	2		12	54.0	2.5	blank	1.0	256.4568340778351	0.10007143020629883
57	240.61114144325256	fix_pre	0		120	55.0	2.5	/experiments/Knapen_AOT/AOT_stimuli/rescaled_final/0460_fw.mp4	0.0	256.5569055080414	1.0084493160247803
57	241.61959075927734	movie	1		283	55.0	2.5	/experiments/Knapen_AOT/AOT_stimuli/rescaled_final/0460_fw.mp4	0.0	257.56535482406616	2.49198055267334
57	241.9937298297882	pulse	1	t		55.0	2.5	/experiments/Knapen_AOT/AOT_stimuli/rescaled_final/0460_fw.mp4	0.0	257.939493894577	
57	243.59277200698853	pulse	1	t		55.0	2.5	/experiments/Knapen_AOT/AOT_stimuli/rescaled_final/0460_fw.mp4	0.0	259.53853607177734	
57	244.11157131195068	fix_post	2		12	55.0	2.5	/experiments/Knapen_AOT/AOT_stimuli/rescaled_final/0460_fw.mp4	0.0	260.0573353767395	0.10010766983032227
58	244.211678981781	fix_pre	0		119	56.0	2.5	/experiments/Knapen_AOT/AOT_stimuli/rescaled_final/1176_fw.mp4	0.0	260.1574430465698	1.0000669956207275
58	245.19537925720215	pulse	0	t		56.0	2.5	/experiments/Knapen_AOT/AOT_stimuli/rescaled_final/1176_fw.mp4	0.0	261.14114332199097	
58	245.21174597740173	movie	1		278	56.0	2.5	/experiments/Knapen_AOT/AOT_stimuli/rescaled_final/1176_fw.mp4	0.0	261.15751004219055	2.5004005432128906
58	246.79438138008118	pulse	1	t		56.0	2.5	/experiments/Knapen_AOT/AOT_stimuli/rescaled_final/1176_fw.mp4	0.0	262.74014544487	
58	247.71214652061462	fix_post	2		12	56.0	2.5	/experiments/Knapen_AOT/AOT_stimuli/rescaled_final/1176_fw.mp4	0.0	263.65791058540344	0.10003519058227539
59	247.8121817111969	fix_pre	0		120	57.0	2.5	/experiments/Knapen_AOT/AOT_stimuli/rescaled_final/1169_rv.mp4	0.0	263.7579457759857	1.0084404945373535
59	248.39589834213257	pulse	0	t		57.0	2.5	/experiments/Knapen_AOT/AOT_stimuli/rescaled_final/1169_rv.mp4	0.0	264.3416624069214	
59	248.82062220573425	movie	1		282	57.0	2.5	/experiments/Knapen_AOT/AOT_stimuli/rescaled_final/1169_rv.mp4	0.0	264.76638627052307	2.492032766342163
59	249.99487900733948	pulse	1	t		57.0	2.5	/experiments/Knapen_AOT/AOT_stimuli/rescaled_final/1169_rv.mp4	0.0	265.9406430721283	
59	251.31265497207642	fix_post	2		12	57.0	2.5	/experiments/Knapen_AOT/AOT_stimuli/rescaled_final/1169_rv.mp4	0.0	267.25841903686523	0.10006117820739746
60	251.4127161502838	fix_pre	0		120	58.0	2.5	/experiments/Knapen_AOT/AOT_stimuli/rescaled_final/0293_rv.mp4	0.0	267.35848021507263	1.008460283279419
60	251.59629583358765	pulse	0	t		58.0	2.5	/experiments/Knapen_AOT/AOT_stimuli/rescaled_final/0293_rv.mp4	0.0	267.54205989837646	
60	252.42117643356323	movie	1		291	58.0	2.5	/experiments/Knapen_AOT/AOT_stimuli/rescaled_final/0293_rv.mp4	0.0	268.36694049835205	2.4920358657836914
60	253.19469785690308	pulse	1	t		58.0	2.5	/experiments/Knapen_AOT/AOT_stimuli/rescaled_final/0293_rv.mp4	0.0	269.1404619216919	
60	254.7947747707367	pulse	1	t		58.0	2.5	/experiments/Knapen_AOT/AOT_stimuli/rescaled_final/0293_rv.mp4	0.0	270.7405388355255	
60	254.91321229934692	fix_post	2		12	58.0	2.5	/experiments/Knapen_AOT/AOT_stimuli/rescaled_final/0293_rv.mp4	0.0	270.85897636413574	0.10006022453308105
61	255.01327252388	fix_pre	0		120	59.0	2.5	/experiments/Knapen_AOT/AOT_stimuli/rescaled_final/1077_rv.mp4	0.0	270.9590365886688	1.00846266746521
61	256.0217351913452	movie	1		269	59.0	2.5	/experiments/Knapen_AOT/AOT_stimuli/rescaled_final/1077_rv.mp4	0.0	271.96749925613403	2.492015838623047
61	256.397047996521	pulse	1	t		59.0	2.5	/experiments/Knapen_AOT/AOT_stimuli/rescaled_final/1077_rv.mp4	0.0	272.3428120613098	
61	257.99531269073486	pulse	1	t		59.0	2.5	/experiments/Knapen_AOT/AOT_stimuli/rescaled_final/1077_rv.mp4	0.0	273.9410767555237	
61	258.51375102996826	fix_post	2		12	59.0	2.5	/experiments/Knapen_AOT/AOT_stimuli/rescaled_final/1077_rv.mp4	0.0	274.4595150947571	0.10005879402160645
62	258.61380982398987	fix_pre	0		119	60.0	2.5	/experiments/Knapen_AOT/AOT_stimuli/rescaled_final/1695_fw.mp4	0.0	274.5595738887787	1.0085411071777344
62	259.59752440452576	pulse	0	t		60.0	2.5	/experiments/Knapen_AOT/AOT_stimuli/rescaled_final/1695_fw.mp4	0.0	275.5432884693146	
62	259.6223509311676	movie	1		280	60.0	2.5	/experiments/Knapen_AOT/AOT_stimuli/rescaled_final/1695_fw.mp4	0.0	275.5681149959564	2.4919350147247314
62	261.195983171463	pulse	1	t		60.0	2.5	/experiments/Knapen_AOT/AOT_stimuli/rescaled_final/1695_fw.mp4	0.0	277.14174723625183	
62	262.11428594589233	fix_post	2		12	60.0	2.5	/experiments/Knapen_AOT/AOT_stimuli/rescaled_final/1695_fw.mp4	0.0	278.06005001068115	0.10004639625549316
63	262.2143323421478	fix_pre	0		120	61.0	2.5	blank	1.0	278.16009640693665	1.0001769065856934
63	262.79808735847473	pulse	0	t		61.0	2.5	blank	1.0	278.74385142326355	
63	263.2145092487335	movie	1		300	61.0	2.5	blank	1.0	279.16027331352234	2.5003325939178467
63	264.39863085746765	pulse	1	t		61.0	2.5	blank	1.0	280.34439492225647	
63	265.71484184265137	fix_post	2		12	61.0	2.5	blank	1.0	281.6606059074402	0.10012698173522949
64	265.8149688243866	fix_pre	0		120	62.0	2.5	/experiments/Knapen_AOT/AOT_stimuli/rescaled_final/1825_rv.mp4	0.0	281.7607328891754	1.0084078311920166
64	265.9984345436096	pulse	0	t		62.0	2.5	/experiments/Knapen_AOT/AOT_stimuli/rescaled_final/1825_rv.mp4	0.0	281.94419860839844	
64	266.8233766555786	movie	1		280	62.0	2.5	/experiments/Knapen_AOT/AOT_stimuli/rescaled_final/1825_rv.mp4	0.0	282.76914072036743	2.491995334625244
64	267.5971541404724	pulse	1	t		62.0	2.5	/experiments/Knapen_AOT/AOT_stimuli/rescaled_final/1825_rv.mp4	0.0	283.54291820526123	
64	269.19733357429504	pulse	1	t		62.0	2.5	/experiments/Knapen_AOT/AOT_stimuli/rescaled_final/1825_rv.mp4	0.0	285.14309763908386	
64	269.31537199020386	fix_post	2		12	62.0	2.5	/experiments/Knapen_AOT/AOT_stimuli/rescaled_final/1825_rv.mp4	0.0	285.2611360549927	0.10007405281066895
65	269.4154460430145	fix_pre	0		120	63.0	2.5	/experiments/Knapen_AOT/AOT_stimuli/rescaled_final/0448_fw.mp4	0.0	285.36121010780334	1.008460521697998
65	270.4239065647125	movie	1		282	63.0	2.5	/experiments/Knapen_AOT/AOT_stimuli/rescaled_final/0448_fw.mp4	0.0	286.36967062950134	2.4920482635498047
65	270.79790472984314	pulse	1	t		63.0	2.5	/experiments/Knapen_AOT/AOT_stimuli/rescaled_final/0448_fw.mp4	0.0	286.74366879463196	
65	272.39849185943604	pulse	1	t		63.0	2.5	/experiments/Knapen_AOT/AOT_stimuli/rescaled_final/0448_fw.mp4	0.0	288.34425592422485	
65	272.91595482826233	fix_post	2		12	63.0	2.5	/experiments/Knapen_AOT/AOT_stimuli/rescaled_final/0448_fw.mp4	0.0	288.86171889305115	0.1000518798828125
66	273.01600670814514	fix_pre	0		119	64.0	2.5	/experiments/Knapen_AOT/AOT_stimuli/rescaled_final/1386_rv.mp4	0.0	288.96177077293396	1.0084490776062012
66	273.99275851249695	pulse	0	t		64.0	2.5	/experiments/Knapen_AOT/AOT_stimuli/rescaled_final/1386_rv.mp4	0.0	289.93852257728577	
66	274.02445578575134	movie	1		287	64.0	2.5	/experiments/Knapen_AOT/AOT_stimuli/rescaled_final/1386_rv.mp4	0.0	289.97021985054016	2.4920411109924316
66	275.5986433029175	pulse	1	t		64.0	2.5	/experiments/Knapen_AOT/AOT_stimuli/rescaled_final/1386_rv.mp4	0.0	291.5444073677063	
66	276.5164968967438	fix_post	2		12	64.0	2.5	/experiments/Knapen_AOT/AOT_stimuli/rescaled_final/1386_rv.mp4	0.0	292.4622609615326	0.10003232955932617
67	276.6165292263031	fix_pre	0		120	65.0	2.5	/experiments/Knapen_AOT/AOT_stimuli/rescaled_final/0709_rv.mp4	0.0	292.5622932910919	1.0084755420684814
67	277.2002990245819	pulse	0	t		65.0	2.5	/experiments/Knapen_AOT/AOT_stimuli/rescaled_final/0709_rv.mp4	0.0	293.1460630893707	
67	277.6250047683716	movie	1		273	65.0	2.5	/experiments/Knapen_AOT/AOT_stimuli/rescaled_final/0709_rv.mp4	0.0	293.5707688331604	2.4920525550842285
67	278.7990016937256	pulse	1	t		65.0	2.5	/experiments/Knapen_AOT/AOT_stimuli/rescaled_final/0709_rv.mp4	0.0	294.7447657585144	
67	280.1170573234558	fix_post	2		12	65.0	2.5	/experiments/Knapen_AOT/AOT_stimuli/rescaled_final/0709_rv.mp4	0.0	296.06282138824463	0.10001516342163086
68	280.21707248687744	fix_pre	0		120	66.0	2.5	/experiments/Knapen_AOT/AOT_stimuli/rescaled_final/1561_rv.mp4	0.0	296.16283655166626	1.008458137512207
68	280.3942413330078	pulse	0	t		66.0	2.5	/experiments/Knapen_AOT/AOT_stimuli/rescaled_final/1561_rv.mp4	0.0	296.34000539779663	
68	281.22553062438965	movie	1		281	66.0	2.5	/experiments/Knapen_AOT/AOT_stimuli/rescaled_final/1561_rv.mp4	0.0	297.17129468917847	2.492053270339966
68	281.9927394390106	pulse	1	t		66.0	2.5	/experiments/Knapen_AOT/AOT_stimuli/rescaled_final/1561_rv.mp4	0.0	297.93850350379944	
68	283.59328985214233	pulse	1	t		66.0	2.5	/experiments/Knapen_AOT/AOT_stimuli/rescaled_final/1561_rv.mp4	0.0	299.53905391693115	
68	283.7175838947296	fix_post	2		12	66.0	2.5	/experiments/Knapen_AOT/AOT_stimuli/rescaled_final/1561_rv.mp4	0.0	299.66334795951843	0.09998297691345215
69	283.81756687164307	fix_pre	0		120	67.0	2.5	/experiments/Knapen_AOT/AOT_stimuli/rescaled_final/0187_fw.mp4	0.0	299.7633309364319	1.0085258483886719
69	284.82609272003174	movie	1		271	67.0	2.5	/experiments/Knapen_AOT/AOT_stimuli/rescaled_final/0187_fw.mp4	0.0	300.77185678482056	2.492011785507202
69	285.193008184433	pulse	1	t		67.0	2.5	/experiments/Knapen_AOT/AOT_stimuli/rescaled_final/0187_fw.mp4	0.0	301.1387722492218	
69	286.7934069633484	pulse	1	t		67.0	2.5	/experiments/Knapen_AOT/AOT_stimuli/rescaled_final/0187_fw.mp4	0.0	302.7391710281372	
69	287.31810450553894	fix_post	2		12	67.0	2.5	/experiments/Knapen_AOT/AOT_stimuli/rescaled_final/0187_fw.mp4	0.0	303.26386857032776	0.10002303123474121
70	287.4181275367737	fix_pre	0		118	68.0	2.5	blank	1.0	303.3638916015625	0.9834256172180176
70	288.39346146583557	pulse	0	t		68.0	2.5	blank	1.0	304.3392255306244	
70	288.4015531539917	movie	1		301	68.0	2.5	blank	1.0	304.3473172187805	2.5087850093841553
70	289.99366211891174	pulse	1	t		68.0	2.5	blank	1.0	305.93942618370056	
70	290.91033816337585	fix_post	2		12	68.0	2.5	blank	1.0	306.8561022281647	0.09999203681945801
71	291.0103302001953	fix_pre	0		120	69.0	2.5	/experiments/Knapen_AOT/AOT_stimuli/rescaled_final/0788_fw.mp4	0.0	306.95609426498413	1.0084733963012695
71	291.59407806396484	pulse	0	t		69.0	2.5	/experiments/Knapen_AOT/AOT_stimuli/rescaled_final/0788_fw.mp4	0.0	307.53984212875366	
71	292.0188035964966	movie	1		272	69.0	2.5	/experiments/Knapen_AOT/AOT_stimuli/rescaled_final/0788_fw.mp4	0.0	307.9645676612854	2.4920778274536133
71	293.1942322254181	pulse	1	t		69.0	2.5	/experiments/Knapen_AOT/AOT_stimuli/rescaled_final/0788_fw.mp4	0.0	309.1399962902069	
71	294.5108814239502	fix_post	2		12	69.0	2.5	/experiments/Knapen_AOT/AOT_stimuli/rescaled_final/0788_fw.mp4	0.0	310.456645488739	0.09996795654296875
72	294.61084938049316	fix_pre	0		120	70.0	2.5	/experiments/Knapen_AOT/AOT_stimuli/rescaled_final/0934_fw.mp4	0.0	310.556613445282	1.0085480213165283
72	294.79449439048767	pulse	0	t		70.0	2.5	/experiments/Knapen_AOT/AOT_stimuli/rescaled_final/0934_fw.mp4	0.0	310.7402584552765	
72	295.6193974018097	movie	1		281	70.0	2.5	/experiments/Knapen_AOT/AOT_stimuli/rescaled_final/0934_fw.mp4	0.0	311.5651614665985	2.4919967651367188
72	296.39335227012634	pulse	1	t		70.0	2.5	/experiments/Knapen_AOT/AOT_stimuli/rescaled_final/0934_fw.mp4	0.0	312.33911633491516	
72	297.9935975074768	pulse	1	t		70.0	2.5	/experiments/Knapen_AOT/AOT_stimuli/rescaled_final/0934_fw.mp4	0.0	313.9393615722656	
72	298.1113941669464	fix_post	2		12	70.0	2.5	/experiments/Knapen_AOT/AOT_stimuli/rescaled_final/0934_fw.mp4	0.0	314.05715823173523	0.10003352165222168
73	298.21142768859863	fix_pre	0		120	71.0	2.5	/experiments/Knapen_AOT/AOT_stimuli/rescaled_final/0303_fw.mp4	0.0	314.15719175338745	1.008488655090332
73	299.21991634368896	movie	1		270	71.0	2.5	/experiments/Knapen_AOT/AOT_stimuli/rescaled_final/0303_fw.mp4	0.0	315.1656804084778	2.491966962814331
73	299.59445977211	pulse	1	t		71.0	2.5	/experiments/Knapen_AOT/AOT_stimuli/rescaled_final/0303_fw.mp4	0.0	315.5402238368988	
73	301.19464087486267	pulse	1	t		71.0	2.5	/experiments/Knapen_AOT/AOT_stimuli/rescaled_final/0303_fw.mp4	0.0	317.1404049396515	
73	301.7118833065033	fix_post	2		12	71.0	2.5	/experiments/Knapen_AOT/AOT_stimuli/rescaled_final/0303_fw.mp4	0.0	317.6576473712921	0.10013699531555176
74	301.81202030181885	fix_pre	0		119	72.0	2.5	/experiments/Knapen_AOT/AOT_stimuli/rescaled_final/0584_fw.mp4	0.0	317.75778436660767	1.0001096725463867
74	302.79589676856995	pulse	0	t		72.0	2.5	/experiments/Knapen_AOT/AOT_stimuli/rescaled_final/0584_fw.mp4	0.0	318.74166083335876	
74	302.81212997436523	movie	1		283	72.0	2.5	/experiments/Knapen_AOT/AOT_stimuli/rescaled_final/0584_fw.mp4	0.0	318.75789403915405	2.500316619873047
74	304.39491415023804	pulse	1	t		72.0	2.5	/experiments/Knapen_AOT/AOT_stimuli/rescaled_final/0584_fw.mp4	0.0	320.34067821502686	
74	305.3124465942383	fix_post	2		12	72.0	2.5	/experiments/Knapen_AOT/AOT_stimuli/rescaled_final/0584_fw.mp4	0.0	321.2582106590271	0.10003495216369629
75	305.412481546402	fix_pre	0		120	73.0	2.5	/experiments/Knapen_AOT/AOT_stimuli/rescaled_final/1487_fw.mp4	0.0	321.3582456111908	1.0084943771362305
75	305.9962167739868	pulse	0	t		73.0	2.5	/experiments/Knapen_AOT/AOT_stimuli/rescaled_final/1487_fw.mp4	0.0	321.94198083877563	
75	306.4209759235382	movie	1		282	73.0	2.5	/experiments/Knapen_AOT/AOT_stimuli/rescaled_final/1487_fw.mp4	0.0	322.366739988327	2.492103338241577
75	307.59459233283997	pulse	1	t		73.0	2.5	/experiments/Knapen_AOT/AOT_stimuli/rescaled_final/1487_fw.mp4	0.0	323.5403563976288	
75	308.9130792617798	fix_post	2		12	73.0	2.5	/experiments/Knapen_AOT/AOT_stimuli/rescaled_final/1487_fw.mp4	0.0	324.8588433265686	0.09998345375061035
76	309.0130627155304	fix_pre	0		120	74.0	2.5	/experiments/Knapen_AOT/AOT_stimuli/rescaled_final/1349_rv.mp4	0.0	324.9588267803192	1.0085115432739258
76	309.1966953277588	pulse	0	t		74.0	2.5	/experiments/Knapen_AOT/AOT_stimuli/rescaled_final/1349_rv.mp4	0.0	325.1424593925476	
76	310.0215742588043	movie	1		279	74.0	2.5	/experiments/Knapen_AOT/AOT_stimuli/rescaled_final/1349_rv.mp4	0.0	325.96733832359314	2.492014169692993
76	310.7951066493988	pulse	1	t		74.0	2.5	/experiments/Knapen_AOT/AOT_stimuli/rescaled_final/1349_rv.mp4	0.0	326.7408707141876	
76	312.39534521102905	pulse	1	t		74.0	2.5	/experiments/Knapen_AOT/AOT_stimuli/rescaled_final/1349_rv.mp4	0.0	328.34110927581787	
76	312.5135884284973	fix_post	2		12	74.0	2.5	/experiments/Knapen_AOT/AOT_stimuli/rescaled_final/1349_rv.mp4	0.0	328.45935249328613	0.1000967025756836
77	312.613685131073	fix_pre	0		120	75.0	2.5	/experiments/Knapen_AOT/AOT_stimuli/rescaled_final/0273_rv.mp4	0.0	328.5594491958618	1.0084600448608398
77	313.62214517593384	movie	1		278	75.0	2.5	/experiments/Knapen_AOT/AOT_stimuli/rescaled_final/0273_rv.mp4	0.0	329.56790924072266	2.4919180870056152
77	313.9954493045807	pulse	1	t		75.0	2.5	/experiments/Knapen_AOT/AOT_stimuli/rescaled_final/0273_rv.mp4	0.0	329.9412133693695	
77	315.5958442687988	pulse	1	t		75.0	2.5	/experiments/Knapen_AOT/AOT_stimuli/rescaled_final/0273_rv.mp4	0.0	331.54160833358765	
77	316.11406326293945	fix_post	2		12	75.0	2.5	/experiments/Knapen_AOT/AOT_stimuli/rescaled_final/0273_rv.mp4	0.0	332.05982732772827	0.10003161430358887
78	316.21409487724304	fix_pre	0		119	76.0	2.5	/experiments/Knapen_AOT/AOT_stimuli/rescaled_final/0225_fw.mp4	0.0	332.15985894203186	1.000201940536499
78	317.19812655448914	pulse	0	t		76.0	2.5	/experiments/Knapen_AOT/AOT_stimuli/rescaled_final/0225_fw.mp4	0.0	333.14389061927795	
78	317.21429681777954	movie	1		279	76.0	2.5	/experiments/Knapen_AOT/AOT_stimuli/rescaled_final/0225_fw.mp4	0.0	333.16006088256836	2.5003132820129395
78	318.79642033576965	pulse	1	t		76.0	2.5	/experiments/Knapen_AOT/AOT_stimuli/rescaled_final/0225_fw.mp4	0.0	334.7421844005585	
78	319.7146100997925	fix_post	2		12	76.0	2.5	/experiments/Knapen_AOT/AOT_stimuli/rescaled_final/0225_fw.mp4	0.0	335.6603741645813	0.1000518798828125
79	319.8146619796753	fix_pre	0		120	77.0	2.5	blank	1.0	335.7604260444641	1.0001609325408936
79	320.39847683906555	pulse	0	t		77.0	2.5	blank	1.0	336.34424090385437	
79	320.8148229122162	movie	1		300	77.0	2.5	blank	1.0	336.760586977005	2.500354051589966
79	321.99862265586853	pulse	1	t		77.0	2.5	blank	1.0	337.94438672065735	
79	323.31517696380615	fix_post	2		12	77.0	2.5	blank	1.0	339.26094102859497	0.10012197494506836
80	323.4152989387512	fix_pre	0		120	78.0	2.5	/experiments/Knapen_AOT/AOT_stimuli/rescaled_final/0819_fw.mp4	0.0	339.36106300354004	1.0083529949188232
80	323.5987482070923	pulse	0	t		78.0	2.5	/experiments/Knapen_AOT/AOT_stimuli/rescaled_final/0819_fw.mp4	0.0	339.5445122718811	
80	324.42365193367004	movie	1		288	78.0	2.5	/experiments/Knapen_AOT/AOT_stimuli/rescaled_final/0819_fw.mp4	0.0	340.36941599845886	2.4920382499694824
80	325.19752383232117	pulse	1	t		78.0	2.5	/experiments/Knapen_AOT/AOT_stimuli/rescaled_final/0819_fw.mp4	0.0	341.14328789711	
80	326.797753572464	pulse	1	t		78.0	2.5	/experiments/Knapen_AOT/AOT_stimuli/rescaled_final/0819_fw.mp4	0.0	342.7435176372528	
80	326.9156901836395	fix_post	2		12	78.0	2.5	/experiments/Knapen_AOT/AOT_stimuli/rescaled_final/0819_fw.mp4	0.0	342.86145424842834	0.10002446174621582
81	327.01571464538574	fix_pre	0		120	79.0	2.5	/experiments/Knapen_AOT/AOT_stimuli/rescaled_final/1821_rv.mp4	0.0	342.96147871017456	1.008544921875
81	328.02425956726074	movie	1		268	79.0	2.5	/experiments/Knapen_AOT/AOT_stimuli/rescaled_final/1821_rv.mp4	0.0	343.97002363204956	2.4919774532318115
81	328.3983497619629	pulse	1	t		79.0	2.5	/experiments/Knapen_AOT/AOT_stimuli/rescaled_final/1821_rv.mp4	0.0	344.3441138267517	
81	329.99824142456055	pulse	1	t		79.0	2.5	/experiments/Knapen_AOT/AOT_stimuli/rescaled_final/1821_rv.mp4	0.0	345.94400548934937	
81	330.51623702049255	fix_post	2		12	79.0	2.5	/experiments/Knapen_AOT/AOT_stimuli/rescaled_final/1821_rv.mp4	0.0	346.4620010852814	0.10000967979431152
82	330.61624670028687	fix_pre	0		119	80.0	2.5	/experiments/Knapen_AOT/AOT_stimuli/rescaled_final/1525_rv.mp4	0.0	346.5620107650757	1.000636100769043
82	331.59355568885803	pulse	0	t		80.0	2.5	/experiments/Knapen_AOT/AOT_stimuli/rescaled_final/1525_rv.mp4	0.0	347.53931975364685	
82	331.6168828010559	movie	1		284	80.0	2.5	/experiments/Knapen_AOT/AOT_stimuli/rescaled_final/1525_rv.mp4	0.0	347.5626468658447	2.4999442100524902
82	333.19905138015747	pulse	1	t		80.0	2.5	/experiments/Knapen_AOT/AOT_stimuli/rescaled_final/1525_rv.mp4	0.0	349.1448154449463	
82	334.1168270111084	fix_post	2		12	80.0	2.5	/experiments/Knapen_AOT/AOT_stimuli/rescaled_final/1525_rv.mp4	0.0	350.0625910758972	0.09995508193969727
83	334.2167820930481	fix_pre	0		120	81.0	2.5	/experiments/Knapen_AOT/AOT_stimuli/rescaled_final/2085_fw.mp4	0.0	350.1625461578369	1.0085711479187012
83	334.79352736473083	pulse	0	t		81.0	2.5	/experiments/Knapen_AOT/AOT_stimuli/rescaled_final/2085_fw.mp4	0.0	350.73929142951965	
83	335.2253532409668	movie	1		282	81.0	2.5	/experiments/Knapen_AOT/AOT_stimuli/rescaled_final/2085_fw.mp4	0.0	351.1711173057556	2.4919843673706055
83	336.3988747596741	pulse	1	t		81.0	2.5	/experiments/Knapen_AOT/AOT_stimuli/rescaled_final/2085_fw.mp4	0.0	352.3446388244629	
83	337.7173376083374	fix_post	2		12	81.0	2.5	/experiments/Knapen_AOT/AOT_stimuli/rescaled_final/2085_fw.mp4	0.0	353.6631016731262	0.10004329681396484
84	337.81738090515137	fix_pre	0		120	82.0	2.5	blank	1.0	353.7631449699402	1.00010347366333
84	337.9937560558319	pulse	0	t		82.0	2.5	blank	1.0	353.9395201206207	
84	338.8174843788147	movie	1		300	82.0	2.5	blank	1.0	354.7632484436035	2.5004520416259766
84	339.59359216690063	pulse	1	t		82.0	2.5	blank	1.0	355.53935623168945	
84	341.19326305389404	pulse	1	t		82.0	2.5	blank	1.0	357.13902711868286	
84	341.3179364204407	fix_post	2		12	82.0	2.5	blank	1.0	357.2637004852295	0.10002398490905762
85	341.41796040534973	fix_pre	0		120	83.0	2.5	/experiments/Knapen_AOT/AOT_stimuli/rescaled_final/1196_fw.mp4	0.0	357.36372447013855	1.008439302444458
85	342.4263997077942	movie	1		266	83.0	2.5	/experiments/Knapen_AOT/AOT_stimuli/rescaled_final/1196_fw.mp4	0.0	358.372163772583	2.492039680480957
85	342.79367208480835	pulse	1	t		83.0	2.5	/experiments/Knapen_AOT/AOT_stimuli/rescaled_final/1196_fw.mp4	0.0	358.73943614959717	
85	344.39382147789	pulse	1	t		83.0	2.5	/experiments/Knapen_AOT/AOT_stimuli/rescaled_final/1196_fw.mp4	0.0	360.33958554267883	
85	344.91843938827515	fix_post	2		12	83.0	2.5	/experiments/Knapen_AOT/AOT_stimuli/rescaled_final/1196_fw.mp4	0.0	360.86420345306396	0.11669278144836426
87	345.0351321697235	stim	0		1713					360.98089623451233	14.277094841003418
87	345.9939410686493	pulse	0	t						361.9397051334381	
87	347.5942895412445	pulse	0	t						363.5400536060333	
87	349.1942455768585	pulse	0	t						365.14000964164734	
87	350.7945954799652	pulse	0	t						366.740359544754	
87	352.3947546482086	pulse	0	t						368.34051871299744	
87	353.99503779411316	pulse	0	t						369.940801858902	
87	355.59518122673035	pulse	0	t						371.54094529151917	
87	357.1954689025879	pulse	0	t						373.1412329673767	
87	358.7957091331482	pulse	0	t						374.741473197937	
