trial_nr	onset	event_type	phase	response	nr_frames	movie_index	movie_duration	movie_file	blank	onset_abs	duration
0	0.1666414737701416	stim	0		2					94.56742858886719	0.01653909683227539
0	0.17540788650512695	response	0	space						94.57619500160217	
1	0.183180570602417	stim	0		4770					94.58396768569946	39.76426982879639
1	39.93712019920349	pulse	0	t						134.33790731430054	
1	39.947450399398804	stim	1		1715					134.34823751449585	14.302073955535889
1	41.531370401382446	pulse	1	t						135.9321575164795	
1	43.13138484954834	pulse	1	t						137.53217196464539	
1	44.731616258621216	pulse	1	t						139.13240337371826	
1	46.3318829536438	pulse	1	t						140.73267006874084	
1	47.9320867061615	pulse	1	t						142.33287382125854	
1	49.53236985206604	pulse	1	t						143.9331569671631	
1	51.13259553909302	pulse	1	t						145.53338265419006	
1	52.73313307762146	pulse	1	t						147.1339201927185	
2	54.24952435493469	fix_pre	0		11	0.0	2.5	/experiments/knapen_AOT/AOT_stimuli/rescaled_final/1802_rv.mp4	0.0	148.65031147003174	0.1084592342376709
2	54.33311200141907	pulse	0	t		0.0	2.5	/experiments/knapen_AOT/AOT_stimuli/rescaled_final/1802_rv.mp4	0.0	148.7338991165161	
2	54.35798358917236	movie	1		278	0.0	2.5	/experiments/knapen_AOT/AOT_stimuli/rescaled_final/1802_rv.mp4	0.0	148.7587707042694	2.4919323921203613
2	55.93170619010925	pulse	1	t		0.0	2.5	/experiments/knapen_AOT/AOT_stimuli/rescaled_final/1802_rv.mp4	0.0	150.3324933052063	
2	56.849915981292725	fix_post	2		12	0.0	2.5	/experiments/knapen_AOT/AOT_stimuli/rescaled_final/1802_rv.mp4	0.0	151.25070309638977	0.09999966621398926
3	56.949915647506714	fix_pre	0		120	1.0	2.5	/experiments/knapen_AOT/AOT_stimuli/rescaled_final/1017_fw.mp4	0.0	151.35070276260376	1.008512258529663
3	57.53359580039978	pulse	0	t		1.0	2.5	/experiments/knapen_AOT/AOT_stimuli/rescaled_final/1017_fw.mp4	0.0	151.93438291549683	
3	57.95842790603638	movie	1		259	1.0	2.5	/experiments/knapen_AOT/AOT_stimuli/rescaled_final/1017_fw.mp4	0.0	152.35921502113342	2.4920272827148438
3	59.13320565223694	pulse	1	t		1.0	2.5	/experiments/knapen_AOT/AOT_stimuli/rescaled_final/1017_fw.mp4	0.0	153.53399276733398	
3	60.45045518875122	fix_post	2		12	1.0	2.5	/experiments/knapen_AOT/AOT_stimuli/rescaled_final/1017_fw.mp4	0.0	154.85124230384827	0.10004878044128418
4	60.550503969192505	fix_pre	0		120	2.0	2.5	/experiments/knapen_AOT/AOT_stimuli/rescaled_final/1731_fw.mp4	0.0	154.95129108428955	1.0084476470947266
4	60.73428463935852	pulse	0	t		2.0	2.5	/experiments/knapen_AOT/AOT_stimuli/rescaled_final/1731_fw.mp4	0.0	155.13507175445557	
4	61.55895161628723	movie	1		277	2.0	2.5	/experiments/knapen_AOT/AOT_stimuli/rescaled_final/1731_fw.mp4	0.0	155.95973873138428	2.492037534713745
4	62.332032680511475	pulse	1	t		2.0	2.5	/experiments/knapen_AOT/AOT_stimuli/rescaled_final/1731_fw.mp4	0.0	156.73281979560852	
4	63.93264842033386	pulse	1	t		2.0	2.5	/experiments/knapen_AOT/AOT_stimuli/rescaled_final/1731_fw.mp4	0.0	158.3334355354309	
4	64.05098915100098	fix_post	2		12	2.0	2.5	/experiments/knapen_AOT/AOT_stimuli/rescaled_final/1731_fw.mp4	0.0	158.45177626609802	0.10001420974731445
5	64.15100336074829	fix_pre	0		120	3.0	2.5	/experiments/knapen_AOT/AOT_stimuli/rescaled_final/1306_fw.mp4	0.0	158.55179047584534	1.0085089206695557
5	65.15951228141785	movie	1		275	3.0	2.5	/experiments/knapen_AOT/AOT_stimuli/rescaled_final/1306_fw.mp4	0.0	159.5602993965149	2.4920220375061035
5	65.53328537940979	pulse	1	t		3.0	2.5	/experiments/knapen_AOT/AOT_stimuli/rescaled_final/1306_fw.mp4	0.0	159.93407249450684	
5	67.13257765769958	pulse	1	t		3.0	2.5	/experiments/knapen_AOT/AOT_stimuli/rescaled_final/1306_fw.mp4	0.0	161.53336477279663	
5	67.65153431892395	fix_post	2		12	3.0	2.5	/experiments/knapen_AOT/AOT_stimuli/rescaled_final/1306_fw.mp4	0.0	162.052321434021	0.10015487670898438
6	67.75168919563293	fix_pre	0		119	4.0	2.5	/experiments/knapen_AOT/AOT_stimuli/rescaled_final/1092_rv.mp4	0.0	162.15247631072998	1.0000660419464111
6	68.73531460762024	pulse	0	t		4.0	2.5	/experiments/knapen_AOT/AOT_stimuli/rescaled_final/1092_rv.mp4	0.0	163.13610172271729	
6	68.75175523757935	movie	1		272	4.0	2.5	/experiments/knapen_AOT/AOT_stimuli/rescaled_final/1092_rv.mp4	0.0	163.1525423526764	2.500349521636963
6	70.33563756942749	pulse	1	t		4.0	2.5	/experiments/knapen_AOT/AOT_stimuli/rescaled_final/1092_rv.mp4	0.0	164.73642468452454	
6	71.25210475921631	fix_post	2		12	4.0	2.5	/experiments/knapen_AOT/AOT_stimuli/rescaled_final/1092_rv.mp4	0.0	165.65289187431335	0.10003232955932617
7	71.35213708877563	fix_pre	0		120	5.0	2.5	blank	1.0	165.75292420387268	1.000105857849121
7	71.93574833869934	pulse	0	t		5.0	2.5	blank	1.0	166.3365354537964	
7	72.35224294662476	movie	1		300	5.0	2.5	blank	1.0	166.7530300617218	2.5003809928894043
7	73.53598976135254	pulse	1	t		5.0	2.5	blank	1.0	167.93677687644958	
7	74.85262393951416	fix_post	2		12	5.0	2.5	blank	1.0	169.2534110546112	0.10002827644348145
8	74.95265221595764	fix_pre	0		120	6.0	2.5	/experiments/knapen_AOT/AOT_stimuli/rescaled_final/0110_fw.mp4	0.0	169.3534393310547	1.0084874629974365
8	75.13623142242432	pulse	0	t		6.0	2.5	/experiments/knapen_AOT/AOT_stimuli/rescaled_final/0110_fw.mp4	0.0	169.53701853752136	
8	75.96113967895508	movie	1		274	6.0	2.5	/experiments/knapen_AOT/AOT_stimuli/rescaled_final/0110_fw.mp4	0.0	170.36192679405212	2.491997241973877
8	76.73688006401062	pulse	1	t		6.0	2.5	/experiments/knapen_AOT/AOT_stimuli/rescaled_final/0110_fw.mp4	0.0	171.13766717910767	
8	78.33445954322815	pulse	1	t		6.0	2.5	/experiments/knapen_AOT/AOT_stimuli/rescaled_final/0110_fw.mp4	0.0	172.7352466583252	
8	78.45313692092896	fix_post	2		12	6.0	2.5	/experiments/knapen_AOT/AOT_stimuli/rescaled_final/0110_fw.mp4	0.0	172.853924036026	0.10004353523254395
9	78.5531804561615	fix_pre	0		120	7.0	2.5	/experiments/knapen_AOT/AOT_stimuli/rescaled_final/1878_rv.mp4	0.0	172.95396757125854	1.0084805488586426
9	79.56166100502014	movie	1		274	7.0	2.5	/experiments/knapen_AOT/AOT_stimuli/rescaled_final/1878_rv.mp4	0.0	173.9624481201172	2.4920380115509033
9	79.9359815120697	pulse	1	t		7.0	2.5	/experiments/knapen_AOT/AOT_stimuli/rescaled_final/1878_rv.mp4	0.0	174.33676862716675	
9	81.53671860694885	pulse	1	t		7.0	2.5	/experiments/knapen_AOT/AOT_stimuli/rescaled_final/1878_rv.mp4	0.0	175.9375057220459	
9	82.05369901657104	fix_post	2		12	7.0	2.5	/experiments/knapen_AOT/AOT_stimuli/rescaled_final/1878_rv.mp4	0.0	176.4544861316681	0.10001611709594727
10	82.15371513366699	fix_pre	0		119	8.0	2.5	/experiments/knapen_AOT/AOT_stimuli/rescaled_final/1152_rv.mp4	0.0	176.55450224876404	1.0001745223999023
10	83.13746476173401	pulse	0	t		8.0	2.5	/experiments/knapen_AOT/AOT_stimuli/rescaled_final/1152_rv.mp4	0.0	177.53825187683105	
10	83.1538896560669	movie	1		278	8.0	2.5	/experiments/knapen_AOT/AOT_stimuli/rescaled_final/1152_rv.mp4	0.0	177.55467677116394	2.500354528427124
10	84.73645520210266	pulse	1	t		8.0	2.5	/experiments/knapen_AOT/AOT_stimuli/rescaled_final/1152_rv.mp4	0.0	179.1372423171997	
10	85.65424418449402	fix_post	2		12	8.0	2.5	/experiments/knapen_AOT/AOT_stimuli/rescaled_final/1152_rv.mp4	0.0	180.05503129959106	0.1000978946685791
11	85.7543420791626	fix_pre	0		120	9.0	2.5	/experiments/knapen_AOT/AOT_stimuli/rescaled_final/1357_fw.mp4	0.0	180.15512919425964	1.0084443092346191
11	86.33790135383606	pulse	0	t		9.0	2.5	/experiments/knapen_AOT/AOT_stimuli/rescaled_final/1357_fw.mp4	0.0	180.7386884689331	
11	86.76278638839722	movie	1		287	9.0	2.5	/experiments/knapen_AOT/AOT_stimuli/rescaled_final/1357_fw.mp4	0.0	181.16357350349426	2.4919943809509277
11	87.9359962940216	pulse	1	t		9.0	2.5	/experiments/knapen_AOT/AOT_stimuli/rescaled_final/1357_fw.mp4	0.0	182.33678340911865	
11	89.25478076934814	fix_post	2		12	9.0	2.5	/experiments/knapen_AOT/AOT_stimuli/rescaled_final/1357_fw.mp4	0.0	183.6555678844452	0.10001015663146973
12	89.35479092597961	fix_pre	0		120	10.0	2.5	/experiments/knapen_AOT/AOT_stimuli/rescaled_final/1464_rv.mp4	0.0	183.75557804107666	1.008772850036621
12	89.53052496910095	pulse	0	t		10.0	2.5	/experiments/knapen_AOT/AOT_stimuli/rescaled_final/1464_rv.mp4	0.0	183.931312084198	
12	90.36356377601624	movie	1		275	10.0	2.5	/experiments/knapen_AOT/AOT_stimuli/rescaled_final/1464_rv.mp4	0.0	184.76435089111328	2.4917633533477783
12	91.13077926635742	pulse	1	t		10.0	2.5	/experiments/knapen_AOT/AOT_stimuli/rescaled_final/1464_rv.mp4	0.0	185.53156638145447	
12	92.73073101043701	pulse	1	t		10.0	2.5	/experiments/knapen_AOT/AOT_stimuli/rescaled_final/1464_rv.mp4	0.0	187.13151812553406	
12	92.85532712936401	fix_post	2		12	10.0	2.5	/experiments/knapen_AOT/AOT_stimuli/rescaled_final/1464_rv.mp4	0.0	187.25611424446106	0.10002994537353516
13	92.95535707473755	fix_pre	0		120	11.0	2.5	/experiments/knapen_AOT/AOT_stimuli/rescaled_final/0671_rv.mp4	0.0	187.3561441898346	1.0085034370422363
13	93.96386051177979	movie	1		273	11.0	2.5	/experiments/knapen_AOT/AOT_stimuli/rescaled_final/0671_rv.mp4	0.0	188.36464762687683	2.4919965267181396
13	94.33081150054932	pulse	1	t		11.0	2.5	/experiments/knapen_AOT/AOT_stimuli/rescaled_final/0671_rv.mp4	0.0	188.73159861564636	
13	95.93116736412048	pulse	1	t		11.0	2.5	/experiments/knapen_AOT/AOT_stimuli/rescaled_final/0671_rv.mp4	0.0	190.33195447921753	
13	96.45585703849792	fix_post	2		12	11.0	2.5	/experiments/knapen_AOT/AOT_stimuli/rescaled_final/0671_rv.mp4	0.0	190.85664415359497	0.10006833076477051
14	96.5559253692627	fix_pre	0		118	12.0	2.5	/experiments/knapen_AOT/AOT_stimuli/rescaled_final/1974_fw.mp4	0.0	190.95671248435974	0.9918601512908936
14	97.53134322166443	pulse	0	t		12.0	2.5	/experiments/knapen_AOT/AOT_stimuli/rescaled_final/1974_fw.mp4	0.0	191.93213033676147	
14	97.54778552055359	movie	1		265	12.0	2.5	/experiments/knapen_AOT/AOT_stimuli/rescaled_final/1974_fw.mp4	0.0	191.94857263565063	2.500288724899292
14	99.13156294822693	pulse	1	t		12.0	2.5	/experiments/knapen_AOT/AOT_stimuli/rescaled_final/1974_fw.mp4	0.0	193.53235006332397	
14	100.04807424545288	fix_post	2		12	12.0	2.5	/experiments/knapen_AOT/AOT_stimuli/rescaled_final/1974_fw.mp4	0.0	194.44886136054993	0.1000211238861084
15	100.14809536933899	fix_pre	0		120	13.0	2.5	blank	1.0	194.54888248443604	1.0001399517059326
15	100.73175287246704	pulse	0	t		13.0	2.5	blank	1.0	195.1325399875641	
15	101.14823532104492	movie	1		300	13.0	2.5	blank	1.0	195.54902243614197	2.5003714561462402
15	102.33214282989502	pulse	1	t		13.0	2.5	blank	1.0	196.73292994499207	
15	103.64860677719116	fix_post	2		12	13.0	2.5	blank	1.0	198.0493938922882	0.10001897811889648
16	103.74862575531006	fix_pre	0		120	14.0	2.5	/experiments/knapen_AOT/AOT_stimuli/rescaled_final/0155_rv.mp4	0.0	198.1494128704071	1.0086631774902344
16	103.9325156211853	pulse	0	t		14.0	2.5	/experiments/knapen_AOT/AOT_stimuli/rescaled_final/0155_rv.mp4	0.0	198.33330273628235	
16	104.7572889328003	movie	1		260	14.0	2.5	/experiments/knapen_AOT/AOT_stimuli/rescaled_final/0155_rv.mp4	0.0	199.15807604789734	2.4918699264526367
16	105.53110814094543	pulse	1	t		14.0	2.5	/experiments/knapen_AOT/AOT_stimuli/rescaled_final/0155_rv.mp4	0.0	199.93189525604248	
16	107.13286304473877	pulse	1	t		14.0	2.5	/experiments/knapen_AOT/AOT_stimuli/rescaled_final/0155_rv.mp4	0.0	201.53365015983582	
16	107.24915885925293	fix_post	2		12	14.0	2.5	/experiments/knapen_AOT/AOT_stimuli/rescaled_final/0155_rv.mp4	0.0	201.64994597434998	0.10013222694396973
17	107.3492910861969	fix_pre	0		120	15.0	2.5	/experiments/knapen_AOT/AOT_stimuli/rescaled_final/0518_fw.mp4	0.0	201.75007820129395	1.0083503723144531
17	108.35764145851135	movie	1		262	15.0	2.5	/experiments/knapen_AOT/AOT_stimuli/rescaled_final/0518_fw.mp4	0.0	202.7584285736084	2.4920880794525146
17	108.73232746124268	pulse	1	t		15.0	2.5	/experiments/knapen_AOT/AOT_stimuli/rescaled_final/0518_fw.mp4	0.0	203.13311457633972	
17	110.33087372779846	pulse	1	t		15.0	2.5	/experiments/knapen_AOT/AOT_stimuli/rescaled_final/0518_fw.mp4	0.0	204.7316608428955	
17	110.84972953796387	fix_post	2		12	15.0	2.5	/experiments/knapen_AOT/AOT_stimuli/rescaled_final/0518_fw.mp4	0.0	205.2505166530609	0.0999751091003418
18	110.94970464706421	fix_pre	0		119	16.0	2.5	/experiments/knapen_AOT/AOT_stimuli/rescaled_final/1846_fw.mp4	0.0	205.35049176216125	1.000274419784546
18	111.9334282875061	pulse	0	t		16.0	2.5	/experiments/knapen_AOT/AOT_stimuli/rescaled_final/1846_fw.mp4	0.0	206.33421540260315	
18	111.94997906684875	movie	1		276	16.0	2.5	/experiments/knapen_AOT/AOT_stimuli/rescaled_final/1846_fw.mp4	0.0	206.3507661819458	2.50026798248291
18	113.53264927864075	pulse	1	t		16.0	2.5	/experiments/knapen_AOT/AOT_stimuli/rescaled_final/1846_fw.mp4	0.0	207.9334363937378	
18	114.45024704933167	fix_post	2		12	16.0	2.5	/experiments/knapen_AOT/AOT_stimuli/rescaled_final/1846_fw.mp4	0.0	208.8510341644287	0.100006103515625
19	114.55025315284729	fix_pre	0		120	17.0	2.5	/experiments/knapen_AOT/AOT_stimuli/rescaled_final/0011_fw.mp4	0.0	208.95104026794434	1.0085017681121826
19	115.13395023345947	pulse	0	t		17.0	2.5	/experiments/knapen_AOT/AOT_stimuli/rescaled_final/0011_fw.mp4	0.0	209.53473734855652	
19	115.55875492095947	movie	1		276	17.0	2.5	/experiments/knapen_AOT/AOT_stimuli/rescaled_final/0011_fw.mp4	0.0	209.95954203605652	2.500337600708008
19	116.7321412563324	pulse	1	t		17.0	2.5	/experiments/knapen_AOT/AOT_stimuli/rescaled_final/0011_fw.mp4	0.0	211.13292837142944	
19	118.05909252166748	fix_post	2		11	17.0	2.5	/experiments/knapen_AOT/AOT_stimuli/rescaled_final/0011_fw.mp4	0.0	212.45987963676453	0.09171915054321289
20	118.1508116722107	fix_pre	0		120	18.0	2.5	/experiments/knapen_AOT/AOT_stimuli/rescaled_final/0667_fw.mp4	0.0	212.55159878730774	1.0084857940673828
20	118.33437514305115	pulse	0	t		18.0	2.5	/experiments/knapen_AOT/AOT_stimuli/rescaled_final/0667_fw.mp4	0.0	212.7351622581482	
20	119.15929746627808	movie	1		280	18.0	2.5	/experiments/knapen_AOT/AOT_stimuli/rescaled_final/0667_fw.mp4	0.0	213.56008458137512	2.4922125339508057
20	119.93227434158325	pulse	1	t		18.0	2.5	/experiments/knapen_AOT/AOT_stimuli/rescaled_final/0667_fw.mp4	0.0	214.3330614566803	
20	121.53277564048767	pulse	1	t		18.0	2.5	/experiments/knapen_AOT/AOT_stimuli/rescaled_final/0667_fw.mp4	0.0	215.93356275558472	
20	121.65151000022888	fix_post	2		12	18.0	2.5	/experiments/knapen_AOT/AOT_stimuli/rescaled_final/0667_fw.mp4	0.0	216.05229711532593	0.09980440139770508
21	121.75131440162659	fix_pre	0		120	19.0	2.5	/experiments/knapen_AOT/AOT_stimuli/rescaled_final/1581_fw.mp4	0.0	216.15210151672363	1.0085129737854004
21	122.75982737541199	movie	1		279	19.0	2.5	/experiments/knapen_AOT/AOT_stimuli/rescaled_final/1581_fw.mp4	0.0	217.16061449050903	2.4920170307159424
21	123.13459467887878	pulse	1	t		19.0	2.5	/experiments/knapen_AOT/AOT_stimuli/rescaled_final/1581_fw.mp4	0.0	217.53538179397583	
21	124.73484897613525	pulse	1	t		19.0	2.5	/experiments/knapen_AOT/AOT_stimuli/rescaled_final/1581_fw.mp4	0.0	219.1356360912323	
21	125.25184440612793	fix_post	2		12	19.0	2.5	/experiments/knapen_AOT/AOT_stimuli/rescaled_final/1581_fw.mp4	0.0	219.65263152122498	0.1000213623046875
22	125.35186576843262	fix_pre	0		119	20.0	2.5	/experiments/knapen_AOT/AOT_stimuli/rescaled_final/0961_rv.mp4	0.0	219.75265288352966	1.0001604557037354
22	126.33560132980347	pulse	0	t		20.0	2.5	/experiments/knapen_AOT/AOT_stimuli/rescaled_final/0961_rv.mp4	0.0	220.7363884449005	
22	126.35202622413635	movie	1		285	20.0	2.5	/experiments/knapen_AOT/AOT_stimuli/rescaled_final/0961_rv.mp4	0.0	220.7528133392334	2.50036883354187
22	127.93410801887512	pulse	1	t		20.0	2.5	/experiments/knapen_AOT/AOT_stimuli/rescaled_final/0961_rv.mp4	0.0	222.33489513397217	
22	128.85239505767822	fix_post	2		12	20.0	2.5	/experiments/knapen_AOT/AOT_stimuli/rescaled_final/0961_rv.mp4	0.0	223.25318217277527	0.10000967979431152
23	128.95240473747253	fix_pre	0		120	21.0	2.5	blank	1.0	223.35319185256958	1.000145435333252
23	129.53598141670227	pulse	0	t		21.0	2.5	blank	1.0	223.93676853179932	
23	129.9525501728058	movie	1		300	21.0	2.5	blank	1.0	224.35333728790283	2.5003905296325684
23	131.13627696037292	pulse	1	t		21.0	2.5	blank	1.0	225.53706407546997	
23	132.45294070243835	fix_post	2		12	21.0	2.5	blank	1.0	226.8537278175354	0.10001111030578613
24	132.55295181274414	fix_pre	0		120	22.0	2.5	/experiments/knapen_AOT/AOT_stimuli/rescaled_final/0879_rv.mp4	0.0	226.9537389278412	1.0084800720214844
24	132.73655319213867	pulse	0	t		22.0	2.5	/experiments/knapen_AOT/AOT_stimuli/rescaled_final/0879_rv.mp4	0.0	227.13734030723572	
24	133.56143188476562	movie	1		280	22.0	2.5	/experiments/knapen_AOT/AOT_stimuli/rescaled_final/0879_rv.mp4	0.0	227.96221899986267	2.4920332431793213
24	134.33489561080933	pulse	1	t		22.0	2.5	/experiments/knapen_AOT/AOT_stimuli/rescaled_final/0879_rv.mp4	0.0	228.73568272590637	
24	135.9349582195282	pulse	1	t		22.0	2.5	/experiments/knapen_AOT/AOT_stimuli/rescaled_final/0879_rv.mp4	0.0	230.33574533462524	
24	136.05346512794495	fix_post	2		12	22.0	2.5	/experiments/knapen_AOT/AOT_stimuli/rescaled_final/0879_rv.mp4	0.0	230.454252243042	0.10003995895385742
25	136.1535050868988	fix_pre	0		120	23.0	2.5	/experiments/knapen_AOT/AOT_stimuli/rescaled_final/0238_rv.mp4	0.0	230.55429220199585	1.0085253715515137
25	137.16203045845032	movie	1		275	23.0	2.5	/experiments/knapen_AOT/AOT_stimuli/rescaled_final/0238_rv.mp4	0.0	231.56281757354736	2.4919910430908203
25	137.53611278533936	pulse	1	t		23.0	2.5	/experiments/knapen_AOT/AOT_stimuli/rescaled_final/0238_rv.mp4	0.0	231.9368999004364	
25	139.1360855102539	pulse	1	t		23.0	2.5	/experiments/knapen_AOT/AOT_stimuli/rescaled_final/0238_rv.mp4	0.0	233.53687262535095	
25	139.65402150154114	fix_post	2		12	23.0	2.5	/experiments/knapen_AOT/AOT_stimuli/rescaled_final/0238_rv.mp4	0.0	234.05480861663818	0.1000068187713623
26	139.7540283203125	fix_pre	0		119	24.0	2.5	/experiments/knapen_AOT/AOT_stimuli/rescaled_final/0705_fw.mp4	0.0	234.15481543540955	1.0001778602600098
26	140.73768615722656	pulse	0	t		24.0	2.5	/experiments/knapen_AOT/AOT_stimuli/rescaled_final/0705_fw.mp4	0.0	235.1384732723236	
26	140.7542061805725	movie	1		278	24.0	2.5	/experiments/knapen_AOT/AOT_stimuli/rescaled_final/0705_fw.mp4	0.0	235.15499329566956	2.5003840923309326
26	142.33767867088318	pulse	1	t		24.0	2.5	/experiments/knapen_AOT/AOT_stimuli/rescaled_final/0705_fw.mp4	0.0	236.73846578598022	
26	143.25459027290344	fix_post	2		12	24.0	2.5	/experiments/knapen_AOT/AOT_stimuli/rescaled_final/0705_fw.mp4	0.0	237.6553773880005	0.10003852844238281
27	143.35462880134583	fix_pre	0		120	25.0	2.5	/experiments/knapen_AOT/AOT_stimuli/rescaled_final/0151_rv.mp4	0.0	237.75541591644287	1.0084655284881592
27	143.93819093704224	pulse	0	t		25.0	2.5	/experiments/knapen_AOT/AOT_stimuli/rescaled_final/0151_rv.mp4	0.0	238.33897805213928	
27	144.36309432983398	movie	1		272	25.0	2.5	/experiments/knapen_AOT/AOT_stimuli/rescaled_final/0151_rv.mp4	0.0	238.76388144493103	2.491992473602295
27	145.53774738311768	pulse	1	t		25.0	2.5	/experiments/knapen_AOT/AOT_stimuli/rescaled_final/0151_rv.mp4	0.0	239.93853449821472	
27	146.85508680343628	fix_post	2		12	25.0	2.5	/experiments/knapen_AOT/AOT_stimuli/rescaled_final/0151_rv.mp4	0.0	241.25587391853333	0.10002779960632324
28	146.9551146030426	fix_pre	0		120	26.0	2.5	/experiments/knapen_AOT/AOT_stimuli/rescaled_final/0938_fw.mp4	0.0	241.35590171813965	1.0085184574127197
28	147.131929397583	pulse	0	t		26.0	2.5	/experiments/knapen_AOT/AOT_stimuli/rescaled_final/0938_fw.mp4	0.0	241.53271651268005	
28	147.96363306045532	movie	1		260	26.0	2.5	/experiments/knapen_AOT/AOT_stimuli/rescaled_final/0938_fw.mp4	0.0	242.36442017555237	2.4920589923858643
28	148.73715806007385	pulse	1	t		26.0	2.5	/experiments/knapen_AOT/AOT_stimuli/rescaled_final/0938_fw.mp4	0.0	243.1379451751709	
28	150.33106899261475	pulse	1	t		26.0	2.5	/experiments/knapen_AOT/AOT_stimuli/rescaled_final/0938_fw.mp4	0.0	244.7318561077118	
28	150.4556920528412	fix_post	2		12	26.0	2.5	/experiments/knapen_AOT/AOT_stimuli/rescaled_final/0938_fw.mp4	0.0	244.85647916793823	0.09997296333312988
29	150.55566501617432	fix_pre	0		120	27.0	2.5	/experiments/knapen_AOT/AOT_stimuli/rescaled_final/1878_fw.mp4	0.0	244.95645213127136	1.0084710121154785
29	151.5641360282898	movie	1		286	27.0	2.5	/experiments/knapen_AOT/AOT_stimuli/rescaled_final/1878_fw.mp4	0.0	245.96492314338684	2.4920637607574463
29	151.93115639686584	pulse	1	t		27.0	2.5	/experiments/knapen_AOT/AOT_stimuli/rescaled_final/1878_fw.mp4	0.0	246.3319435119629	
29	153.53140091896057	pulse	1	t		27.0	2.5	/experiments/knapen_AOT/AOT_stimuli/rescaled_final/1878_fw.mp4	0.0	247.93218803405762	
29	154.05619978904724	fix_post	2		12	27.0	2.5	/experiments/knapen_AOT/AOT_stimuli/rescaled_final/1878_fw.mp4	0.0	248.4569869041443	0.10000324249267578
30	154.15620303153992	fix_pre	0		118	28.0	2.5	blank	1.0	248.55699014663696	0.9834544658660889
30	155.13157081604004	pulse	0	t		28.0	2.5	blank	1.0	249.53235793113708	
30	155.139657497406	movie	1		301	28.0	2.5	blank	1.0	249.54044461250305	2.50873064994812
30	156.73180294036865	pulse	1	t		28.0	2.5	blank	1.0	251.1325900554657	
30	157.64838814735413	fix_post	2		12	28.0	2.5	blank	1.0	252.04917526245117	0.10001111030578613
31	157.7483992576599	fix_pre	0		120	29.0	2.5	/experiments/knapen_AOT/AOT_stimuli/rescaled_final/2007_rv.mp4	0.0	252.14918637275696	1.008498191833496
31	158.33207249641418	pulse	0	t		29.0	2.5	/experiments/knapen_AOT/AOT_stimuli/rescaled_final/2007_rv.mp4	0.0	252.73285961151123	
31	158.7568974494934	movie	1		280	29.0	2.5	/experiments/knapen_AOT/AOT_stimuli/rescaled_final/2007_rv.mp4	0.0	253.15768456459045	2.492030620574951
31	159.93232536315918	pulse	1	t		29.0	2.5	/experiments/knapen_AOT/AOT_stimuli/rescaled_final/2007_rv.mp4	0.0	254.33311247825623	
31	161.24892807006836	fix_post	2		12	29.0	2.5	/experiments/knapen_AOT/AOT_stimuli/rescaled_final/2007_rv.mp4	0.0	255.6497151851654	0.10001540184020996
32	161.34894347190857	fix_pre	0		120	30.0	2.5	/experiments/knapen_AOT/AOT_stimuli/rescaled_final/0866_fw.mp4	0.0	255.74973058700562	1.0084853172302246
32	161.53249835968018	pulse	0	t		30.0	2.5	/experiments/knapen_AOT/AOT_stimuli/rescaled_final/0866_fw.mp4	0.0	255.93328547477722	
32	162.3574287891388	movie	1		279	30.0	2.5	/experiments/knapen_AOT/AOT_stimuli/rescaled_final/0866_fw.mp4	0.0	256.75821590423584	2.4920730590820312
32	163.13152146339417	pulse	1	t		30.0	2.5	/experiments/knapen_AOT/AOT_stimuli/rescaled_final/0866_fw.mp4	0.0	257.5323085784912	
32	164.73283982276917	pulse	1	t		30.0	2.5	/experiments/knapen_AOT/AOT_stimuli/rescaled_final/0866_fw.mp4	0.0	259.1336269378662	
32	164.84950184822083	fix_post	2		12	30.0	2.5	/experiments/knapen_AOT/AOT_stimuli/rescaled_final/0866_fw.mp4	0.0	259.25028896331787	0.09997129440307617
33	164.9494731426239	fix_pre	0		120	31.0	2.5	/experiments/knapen_AOT/AOT_stimuli/rescaled_final/0905_fw.mp4	0.0	259.35026025772095	1.0085134506225586
33	165.95798659324646	movie	1		265	31.0	2.5	/experiments/knapen_AOT/AOT_stimuli/rescaled_final/0905_fw.mp4	0.0	260.3587737083435	2.492030620574951
33	166.33243203163147	pulse	1	t		31.0	2.5	/experiments/knapen_AOT/AOT_stimuli/rescaled_final/0905_fw.mp4	0.0	260.7332191467285	
33	167.93369674682617	pulse	1	t		31.0	2.5	/experiments/knapen_AOT/AOT_stimuli/rescaled_final/0905_fw.mp4	0.0	262.3344838619232	
33	168.4500172138214	fix_post	2		12	31.0	2.5	/experiments/knapen_AOT/AOT_stimuli/rescaled_final/0905_fw.mp4	0.0	262.85080432891846	0.09999585151672363
34	168.55001306533813	fix_pre	0		119	32.0	2.5	/experiments/knapen_AOT/AOT_stimuli/rescaled_final/2115_fw.mp4	0.0	262.9508001804352	1.000422716140747
34	169.5336880683899	pulse	0	t		32.0	2.5	/experiments/knapen_AOT/AOT_stimuli/rescaled_final/2115_fw.mp4	0.0	263.93447518348694	
34	169.55043578147888	movie	1		273	32.0	2.5	/experiments/knapen_AOT/AOT_stimuli/rescaled_final/2115_fw.mp4	0.0	263.9512228965759	2.5001344680786133
34	171.1325705051422	pulse	1	t		32.0	2.5	/experiments/knapen_AOT/AOT_stimuli/rescaled_final/2115_fw.mp4	0.0	265.53335762023926	
34	172.0505702495575	fix_post	2		12	32.0	2.5	/experiments/knapen_AOT/AOT_stimuli/rescaled_final/2115_fw.mp4	0.0	266.45135736465454	0.1000053882598877
35	172.15057563781738	fix_pre	0		120	33.0	2.5	blank	1.0	266.55136275291443	1.0001261234283447
35	172.73430919647217	pulse	0	t		33.0	2.5	blank	1.0	267.1350963115692	
35	173.15070176124573	movie	1		300	33.0	2.5	blank	1.0	267.5514888763428	2.500380516052246
35	174.3344292640686	pulse	1	t		33.0	2.5	blank	1.0	268.73521637916565	
35	175.65108227729797	fix_post	2		12	33.0	2.5	blank	1.0	270.051869392395	0.1000223159790039
36	175.75110459327698	fix_pre	0		120	34.0	2.5	/experiments/knapen_AOT/AOT_stimuli/rescaled_final/0519_rv.mp4	0.0	270.151891708374	1.0085203647613525
36	175.93467545509338	pulse	0	t		34.0	2.5	/experiments/knapen_AOT/AOT_stimuli/rescaled_final/0519_rv.mp4	0.0	270.33546257019043	
36	176.75962495803833	movie	1		282	34.0	2.5	/experiments/knapen_AOT/AOT_stimuli/rescaled_final/0519_rv.mp4	0.0	271.1604120731354	2.491997480392456
36	177.5345959663391	pulse	1	t		34.0	2.5	/experiments/knapen_AOT/AOT_stimuli/rescaled_final/0519_rv.mp4	0.0	271.93538308143616	
36	179.13335156440735	pulse	1	t		34.0	2.5	/experiments/knapen_AOT/AOT_stimuli/rescaled_final/0519_rv.mp4	0.0	273.5341386795044	
36	179.2516224384308	fix_post	2		12	34.0	2.5	/experiments/knapen_AOT/AOT_stimuli/rescaled_final/0519_rv.mp4	0.0	273.65240955352783	0.10004162788391113
37	179.3516640663147	fix_pre	0		120	35.0	2.5	/experiments/knapen_AOT/AOT_stimuli/rescaled_final/2024_rv.mp4	0.0	273.75245118141174	1.008683681488037
37	180.36034774780273	movie	1		279	35.0	2.5	/experiments/knapen_AOT/AOT_stimuli/rescaled_final/2024_rv.mp4	0.0	274.7611348628998	2.491842746734619
37	180.73391437530518	pulse	1	t		35.0	2.5	/experiments/knapen_AOT/AOT_stimuli/rescaled_final/2024_rv.mp4	0.0	275.1347014904022	
37	182.33334827423096	pulse	1	t		35.0	2.5	/experiments/knapen_AOT/AOT_stimuli/rescaled_final/2024_rv.mp4	0.0	276.734135389328	
37	182.85219049453735	fix_post	2		12	35.0	2.5	/experiments/knapen_AOT/AOT_stimuli/rescaled_final/2024_rv.mp4	0.0	277.2529776096344	0.10001945495605469
38	182.9522099494934	fix_pre	0		119	36.0	2.5	/experiments/knapen_AOT/AOT_stimuli/rescaled_final/1475_rv.mp4	0.0	277.35299706459045	1.00016450881958
38	183.9360954761505	pulse	0	t		36.0	2.5	/experiments/knapen_AOT/AOT_stimuli/rescaled_final/1475_rv.mp4	0.0	278.33688259124756	
38	183.952374458313	movie	1		280	36.0	2.5	/experiments/knapen_AOT/AOT_stimuli/rescaled_final/1475_rv.mp4	0.0	278.35316157341003	2.5003371238708496
38	185.53452563285828	pulse	1	t		36.0	2.5	/experiments/knapen_AOT/AOT_stimuli/rescaled_final/1475_rv.mp4	0.0	279.9353127479553	
38	186.45271158218384	fix_post	2		12	36.0	2.5	/experiments/knapen_AOT/AOT_stimuli/rescaled_final/1475_rv.mp4	0.0	280.8534986972809	0.10004639625549316
39	186.55275797843933	fix_pre	0		120	37.0	2.5	/experiments/knapen_AOT/AOT_stimuli/rescaled_final/1676_fw.mp4	0.0	280.9535450935364	1.0085217952728271
39	187.13638973236084	pulse	0	t		37.0	2.5	/experiments/knapen_AOT/AOT_stimuli/rescaled_final/1676_fw.mp4	0.0	281.5371768474579	
39	187.56127977371216	movie	1		272	37.0	2.5	/experiments/knapen_AOT/AOT_stimuli/rescaled_final/1676_fw.mp4	0.0	281.9620668888092	2.4919822216033936
39	188.73672556877136	pulse	1	t		37.0	2.5	/experiments/knapen_AOT/AOT_stimuli/rescaled_final/1676_fw.mp4	0.0	283.1375126838684	
39	190.05326199531555	fix_post	2		12	37.0	2.5	/experiments/knapen_AOT/AOT_stimuli/rescaled_final/1676_fw.mp4	0.0	284.4540491104126	0.10001564025878906
40	190.15327763557434	fix_pre	0		120	38.0	2.5	/experiments/knapen_AOT/AOT_stimuli/rescaled_final/0454_rv.mp4	0.0	284.5540647506714	1.0085220336914062
40	190.3368375301361	pulse	0	t		38.0	2.5	/experiments/knapen_AOT/AOT_stimuli/rescaled_final/0454_rv.mp4	0.0	284.73762464523315	
40	191.16179966926575	movie	1		272	38.0	2.5	/experiments/knapen_AOT/AOT_stimuli/rescaled_final/0454_rv.mp4	0.0	285.5625867843628	2.4919910430908203
40	191.93507742881775	pulse	1	t		38.0	2.5	/experiments/knapen_AOT/AOT_stimuli/rescaled_final/0454_rv.mp4	0.0	286.3358645439148	
40	193.53628206253052	pulse	1	t		38.0	2.5	/experiments/knapen_AOT/AOT_stimuli/rescaled_final/0454_rv.mp4	0.0	287.93706917762756	
40	193.65379071235657	fix_post	2		12	38.0	2.5	/experiments/knapen_AOT/AOT_stimuli/rescaled_final/0454_rv.mp4	0.0	288.0545778274536	0.1000208854675293
41	193.7538115978241	fix_pre	0		120	39.0	2.5	/experiments/knapen_AOT/AOT_stimuli/rescaled_final/0267_rv.mp4	0.0	288.15459871292114	1.00850510597229
41	194.7623167037964	movie	1		280	39.0	2.5	/experiments/knapen_AOT/AOT_stimuli/rescaled_final/0267_rv.mp4	0.0	289.16310381889343	2.4920146465301514
41	195.13769817352295	pulse	1	t		39.0	2.5	/experiments/knapen_AOT/AOT_stimuli/rescaled_final/0267_rv.mp4	0.0	289.53848528862	
41	196.73631381988525	pulse	1	t		39.0	2.5	/experiments/knapen_AOT/AOT_stimuli/rescaled_final/0267_rv.mp4	0.0	291.1371009349823	
41	197.25433135032654	fix_post	2		12	39.0	2.5	/experiments/knapen_AOT/AOT_stimuli/rescaled_final/0267_rv.mp4	0.0	291.6551184654236	0.1000211238861084
42	197.35435247421265	fix_pre	0		119	40.0	2.5	/experiments/knapen_AOT/AOT_stimuli/rescaled_final/1360_fw.mp4	0.0	291.7551395893097	1.0002126693725586
42	198.33807587623596	pulse	0	t		40.0	2.5	/experiments/knapen_AOT/AOT_stimuli/rescaled_final/1360_fw.mp4	0.0	292.738862991333	
42	198.3545651435852	movie	1		284	40.0	2.5	/experiments/knapen_AOT/AOT_stimuli/rescaled_final/1360_fw.mp4	0.0	292.75535225868225	2.5003154277801514
42	199.936781167984	pulse	1	t		40.0	2.5	/experiments/knapen_AOT/AOT_stimuli/rescaled_final/1360_fw.mp4	0.0	294.33756828308105	
42	200.85488057136536	fix_post	2		12	40.0	2.5	/experiments/knapen_AOT/AOT_stimuli/rescaled_final/1360_fw.mp4	0.0	295.2556676864624	0.10001921653747559
43	200.95489978790283	fix_pre	0		120	41.0	2.5	blank	1.0	295.3556869029999	1.0001225471496582
43	201.5385401248932	pulse	0	t		41.0	2.5	blank	1.0	295.93932723999023	
43	201.9550223350525	movie	1		300	41.0	2.5	blank	1.0	296.35580945014954	2.500380277633667
43	203.13879823684692	pulse	1	t		41.0	2.5	blank	1.0	297.53958535194397	
43	204.45540261268616	fix_post	2		12	41.0	2.5	blank	1.0	298.8561897277832	0.10002875328063965
44	204.5554313659668	fix_pre	0		120	42.0	2.5	/experiments/knapen_AOT/AOT_stimuli/rescaled_final/2081_fw.mp4	0.0	298.95621848106384	1.0085105895996094
44	204.7390489578247	pulse	0	t		42.0	2.5	/experiments/knapen_AOT/AOT_stimuli/rescaled_final/2081_fw.mp4	0.0	299.13983607292175	
44	205.5639419555664	movie	1		285	42.0	2.5	/experiments/knapen_AOT/AOT_stimuli/rescaled_final/2081_fw.mp4	0.0	299.96472907066345	2.4920239448547363
44	206.33707356452942	pulse	1	t		42.0	2.5	/experiments/knapen_AOT/AOT_stimuli/rescaled_final/2081_fw.mp4	0.0	300.73786067962646	
44	207.93161177635193	pulse	1	t		42.0	2.5	/experiments/knapen_AOT/AOT_stimuli/rescaled_final/2081_fw.mp4	0.0	302.332398891449	
44	208.05596590042114	fix_post	2		12	42.0	2.5	/experiments/knapen_AOT/AOT_stimuli/rescaled_final/2081_fw.mp4	0.0	302.4567530155182	0.1000525951385498
45	208.1560184955597	fix_pre	0		120	43.0	2.5	/experiments/knapen_AOT/AOT_stimuli/rescaled_final/1222_fw.mp4	0.0	302.55680561065674	1.0084502696990967
45	209.1644687652588	movie	1		270	43.0	2.5	/experiments/knapen_AOT/AOT_stimuli/rescaled_final/1222_fw.mp4	0.0	303.56525588035583	2.4920241832733154
45	209.53150820732117	pulse	1	t		43.0	2.5	/experiments/knapen_AOT/AOT_stimuli/rescaled_final/1222_fw.mp4	0.0	303.9322953224182	
45	211.13166308403015	pulse	1	t		43.0	2.5	/experiments/knapen_AOT/AOT_stimuli/rescaled_final/1222_fw.mp4	0.0	305.5324501991272	
45	211.6564929485321	fix_post	2		12	43.0	2.5	/experiments/knapen_AOT/AOT_stimuli/rescaled_final/1222_fw.mp4	0.0	306.05728006362915	0.10009479522705078
46	211.75658774375916	fix_pre	0		118	44.0	2.5	/experiments/knapen_AOT/AOT_stimuli/rescaled_final/1681_rv.mp4	0.0	306.1573748588562	0.9917454719543457
46	212.7319598197937	pulse	0	t		44.0	2.5	/experiments/knapen_AOT/AOT_stimuli/rescaled_final/1681_rv.mp4	0.0	307.13274693489075	
46	212.7483332157135	movie	1		263	44.0	2.5	/experiments/knapen_AOT/AOT_stimuli/rescaled_final/1681_rv.mp4	0.0	307.14912033081055	2.5087361335754395
46	214.3325116634369	pulse	1	t		44.0	2.5	/experiments/knapen_AOT/AOT_stimuli/rescaled_final/1681_rv.mp4	0.0	308.73329877853394	
46	215.25706934928894	fix_post	2		11	44.0	2.5	/experiments/knapen_AOT/AOT_stimuli/rescaled_final/1681_rv.mp4	0.0	309.657856464386	0.09165072441101074
47	215.34872007369995	fix_pre	0		120	45.0	2.5	/experiments/knapen_AOT/AOT_stimuli/rescaled_final/1616_fw.mp4	0.0	309.749507188797	1.008603572845459
47	215.93264889717102	pulse	0	t		45.0	2.5	/experiments/knapen_AOT/AOT_stimuli/rescaled_final/1616_fw.mp4	0.0	310.33343601226807	
47	216.3573236465454	movie	1		269	45.0	2.5	/experiments/knapen_AOT/AOT_stimuli/rescaled_final/1616_fw.mp4	0.0	310.75811076164246	2.492034912109375
47	217.53294038772583	pulse	1	t		45.0	2.5	/experiments/knapen_AOT/AOT_stimuli/rescaled_final/1616_fw.mp4	0.0	311.9337275028229	
47	218.84935855865479	fix_post	2		12	45.0	2.5	/experiments/knapen_AOT/AOT_stimuli/rescaled_final/1616_fw.mp4	0.0	313.25014567375183	0.09992742538452148
48	218.9492859840393	fix_pre	0		120	46.0	2.5	/experiments/knapen_AOT/AOT_stimuli/rescaled_final/0519_fw.mp4	0.0	313.35007309913635	1.0084702968597412
48	219.13286566734314	pulse	0	t		46.0	2.5	/experiments/knapen_AOT/AOT_stimuli/rescaled_final/0519_fw.mp4	0.0	313.5336527824402	
48	219.95775628089905	movie	1		268	46.0	2.5	/experiments/knapen_AOT/AOT_stimuli/rescaled_final/0519_fw.mp4	0.0	314.3585433959961	2.492013454437256
48	220.7318398952484	pulse	1	t		46.0	2.5	/experiments/knapen_AOT/AOT_stimuli/rescaled_final/0519_fw.mp4	0.0	315.13262701034546	
48	222.3315761089325	pulse	1	t		46.0	2.5	/experiments/knapen_AOT/AOT_stimuli/rescaled_final/0519_fw.mp4	0.0	316.73236322402954	
48	222.4497697353363	fix_post	2		12	46.0	2.5	/experiments/knapen_AOT/AOT_stimuli/rescaled_final/0519_fw.mp4	0.0	316.85055685043335	0.10007810592651367
49	222.54984784126282	fix_pre	0		120	47.0	2.5	blank	1.0	316.95063495635986	1.0001096725463867
49	223.5499575138092	movie	1		300	47.0	2.5	blank	1.0	317.95074462890625	2.5003674030303955
49	223.9335606098175	pulse	1	t		47.0	2.5	blank	1.0	318.33434772491455	
49	225.53383660316467	pulse	1	t		47.0	2.5	blank	1.0	319.9346237182617	
49	226.0503249168396	fix_post	2		12	47.0	2.5	blank	1.0	320.45111203193665	0.1000223159790039
50	226.1503472328186	fix_pre	0		119	48.0	2.5	/experiments/knapen_AOT/AOT_stimuli/rescaled_final/2149_fw.mp4	0.0	320.55113434791565	1.0001509189605713
50	227.13400840759277	pulse	0	t		48.0	2.5	/experiments/knapen_AOT/AOT_stimuli/rescaled_final/2149_fw.mp4	0.0	321.5347955226898	
50	227.15049815177917	movie	1		288	48.0	2.5	/experiments/knapen_AOT/AOT_stimuli/rescaled_final/2149_fw.mp4	0.0	321.5512852668762	2.500369071960449
50	228.7336688041687	pulse	1	t		48.0	2.5	/experiments/knapen_AOT/AOT_stimuli/rescaled_final/2149_fw.mp4	0.0	323.13445591926575	
50	229.65086722373962	fix_post	2		12	48.0	2.5	/experiments/knapen_AOT/AOT_stimuli/rescaled_final/2149_fw.mp4	0.0	324.05165433883667	0.1000223159790039
51	229.75088953971863	fix_pre	0		120	49.0	2.5	/experiments/knapen_AOT/AOT_stimuli/rescaled_final/0161_rv.mp4	0.0	324.1516766548157	1.0084965229034424
51	230.3345205783844	pulse	0	t		49.0	2.5	/experiments/knapen_AOT/AOT_stimuli/rescaled_final/0161_rv.mp4	0.0	324.73530769348145	
51	230.75938606262207	movie	1		264	49.0	2.5	/experiments/knapen_AOT/AOT_stimuli/rescaled_final/0161_rv.mp4	0.0	325.1601731777191	2.492060661315918
51	231.93297958374023	pulse	1	t		49.0	2.5	/experiments/knapen_AOT/AOT_stimuli/rescaled_final/0161_rv.mp4	0.0	326.3337666988373	
51	233.251446723938	fix_post	2		12	49.0	2.5	/experiments/knapen_AOT/AOT_stimuli/rescaled_final/0161_rv.mp4	0.0	327.65223383903503	0.10000157356262207
52	233.3514482975006	fix_pre	0		120	50.0	2.5	/experiments/knapen_AOT/AOT_stimuli/rescaled_final/0011_rv.mp4	0.0	327.75223541259766	1.0085315704345703
52	233.53501319885254	pulse	0	t		50.0	2.5	/experiments/knapen_AOT/AOT_stimuli/rescaled_final/0011_rv.mp4	0.0	327.9358003139496	
52	234.35997986793518	movie	1		277	50.0	2.5	/experiments/knapen_AOT/AOT_stimuli/rescaled_final/0011_rv.mp4	0.0	328.7607669830322	2.4919731616973877
52	235.13331604003906	pulse	1	t		50.0	2.5	/experiments/knapen_AOT/AOT_stimuli/rescaled_final/0011_rv.mp4	0.0	329.5341031551361	
52	236.73480939865112	pulse	1	t		50.0	2.5	/experiments/knapen_AOT/AOT_stimuli/rescaled_final/0011_rv.mp4	0.0	331.13559651374817	
52	236.85195302963257	fix_post	2		12	50.0	2.5	/experiments/knapen_AOT/AOT_stimuli/rescaled_final/0011_rv.mp4	0.0	331.2527401447296	0.10004496574401855
53	236.9519979953766	fix_pre	0		120	51.0	2.5	/experiments/knapen_AOT/AOT_stimuli/rescaled_final/1571_fw.mp4	0.0	331.35278511047363	1.0084784030914307
53	237.96047639846802	movie	1		284	51.0	2.5	/experiments/knapen_AOT/AOT_stimuli/rescaled_final/1571_fw.mp4	0.0	332.36126351356506	2.4920339584350586
53	238.33372354507446	pulse	1	t		51.0	2.5	/experiments/knapen_AOT/AOT_stimuli/rescaled_final/1571_fw.mp4	0.0	332.7345106601715	
53	239.93384671211243	pulse	1	t		51.0	2.5	/experiments/knapen_AOT/AOT_stimuli/rescaled_final/1571_fw.mp4	0.0	334.3346338272095	
53	240.45251035690308	fix_post	2		12	51.0	2.5	/experiments/knapen_AOT/AOT_stimuli/rescaled_final/1571_fw.mp4	0.0	334.8532974720001	0.10000324249267578
54	240.55251359939575	fix_pre	0		119	52.0	2.5	/experiments/knapen_AOT/AOT_stimuli/rescaled_final/1897_rv.mp4	0.0	334.9533007144928	1.0085394382476807
54	241.53621101379395	pulse	0	t		52.0	2.5	/experiments/knapen_AOT/AOT_stimuli/rescaled_final/1897_rv.mp4	0.0	335.936998128891	
54	241.56105303764343	movie	1		277	52.0	2.5	/experiments/knapen_AOT/AOT_stimuli/rescaled_final/1897_rv.mp4	0.0	335.9618401527405	2.4919631481170654
54	243.13506317138672	pulse	1	t		52.0	2.5	/experiments/knapen_AOT/AOT_stimuli/rescaled_final/1897_rv.mp4	0.0	337.53585028648376	
54	244.0530161857605	fix_post	2		12	52.0	2.5	/experiments/knapen_AOT/AOT_stimuli/rescaled_final/1897_rv.mp4	0.0	338.45380330085754	0.10002636909484863
55	244.15304255485535	fix_pre	0		120	53.0	2.5	/experiments/knapen_AOT/AOT_stimuli/rescaled_final/0010_rv.mp4	0.0	338.5538296699524	1.0085020065307617
55	244.73667740821838	pulse	0	t		53.0	2.5	/experiments/knapen_AOT/AOT_stimuli/rescaled_final/0010_rv.mp4	0.0	339.13746452331543	
55	245.1615445613861	movie	1		281	53.0	2.5	/experiments/knapen_AOT/AOT_stimuli/rescaled_final/0010_rv.mp4	0.0	339.56233167648315	2.4920566082000732
55	246.33505129814148	pulse	1	t		53.0	2.5	/experiments/knapen_AOT/AOT_stimuli/rescaled_final/0010_rv.mp4	0.0	340.7358384132385	
55	247.65360116958618	fix_post	2		12	53.0	2.5	/experiments/knapen_AOT/AOT_stimuli/rescaled_final/0010_rv.mp4	0.0	342.0543882846832	0.10001587867736816
56	247.75361704826355	fix_pre	0		120	54.0	2.5	blank	1.0	342.1544041633606	1.0001146793365479
56	247.93722081184387	pulse	0	t		54.0	2.5	blank	1.0	342.3380079269409	
56	248.7537317276001	movie	1		300	54.0	2.5	blank	1.0	343.15451884269714	2.5004122257232666
56	249.53745317459106	pulse	1	t		54.0	2.5	blank	1.0	343.9382402896881	
56	251.13766813278198	pulse	1	t		54.0	2.5	blank	1.0	345.538455247879	
56	251.25414395332336	fix_post	2		12	54.0	2.5	blank	1.0	345.6549310684204	0.09998393058776855
57	251.35412788391113	fix_pre	0		120	55.0	2.5	/experiments/knapen_AOT/AOT_stimuli/rescaled_final/1314_fw.mp4	0.0	345.7549149990082	1.0085246562957764
57	252.3626525402069	movie	1		265	55.0	2.5	/experiments/knapen_AOT/AOT_stimuli/rescaled_final/1314_fw.mp4	0.0	346.76343965530396	2.492018699645996
57	252.7364091873169	pulse	1	t		55.0	2.5	/experiments/knapen_AOT/AOT_stimuli/rescaled_final/1314_fw.mp4	0.0	347.13719630241394	
57	254.33600783348083	pulse	1	t		55.0	2.5	/experiments/knapen_AOT/AOT_stimuli/rescaled_final/1314_fw.mp4	0.0	348.7367949485779	
57	254.8546712398529	fix_post	2		12	55.0	2.5	/experiments/knapen_AOT/AOT_stimuli/rescaled_final/1314_fw.mp4	0.0	349.25545835494995	0.10004973411560059
58	254.9547209739685	fix_pre	0		119	56.0	2.5	/experiments/knapen_AOT/AOT_stimuli/rescaled_final/1616_rv.mp4	0.0	349.35550808906555	1.0001859664916992
58	255.93849325180054	pulse	0	t		56.0	2.5	/experiments/knapen_AOT/AOT_stimuli/rescaled_final/1616_rv.mp4	0.0	350.3392803668976	
58	255.9549069404602	movie	1		274	56.0	2.5	/experiments/knapen_AOT/AOT_stimuli/rescaled_final/1616_rv.mp4	0.0	350.35569405555725	2.50036358833313
58	257.53703022003174	pulse	1	t		56.0	2.5	/experiments/knapen_AOT/AOT_stimuli/rescaled_final/1616_rv.mp4	0.0	351.9378173351288	
58	258.45527052879333	fix_post	2		12	56.0	2.5	/experiments/knapen_AOT/AOT_stimuli/rescaled_final/1616_rv.mp4	0.0	352.8560576438904	0.09998393058776855
59	258.5552544593811	fix_pre	0		120	57.0	2.5	/experiments/knapen_AOT/AOT_stimuli/rescaled_final/2165_fw.mp4	0.0	352.95604157447815	1.0085182189941406
59	259.13095259666443	pulse	0	t		57.0	2.5	/experiments/knapen_AOT/AOT_stimuli/rescaled_final/2165_fw.mp4	0.0	353.5317397117615	
59	259.56377267837524	movie	1		273	57.0	2.5	/experiments/knapen_AOT/AOT_stimuli/rescaled_final/2165_fw.mp4	0.0	353.9645597934723	2.491988182067871
59	260.7308831214905	pulse	1	t		57.0	2.5	/experiments/knapen_AOT/AOT_stimuli/rescaled_final/2165_fw.mp4	0.0	355.1316702365875	
59	262.0557608604431	fix_post	2		12	57.0	2.5	/experiments/knapen_AOT/AOT_stimuli/rescaled_final/2165_fw.mp4	0.0	356.45654797554016	0.0999915599822998
60	262.1557524204254	fix_pre	0		120	58.0	2.5	/experiments/knapen_AOT/AOT_stimuli/rescaled_final/0057_fw.mp4	0.0	356.55653953552246	1.0084967613220215
60	262.33123660087585	pulse	0	t		58.0	2.5	/experiments/knapen_AOT/AOT_stimuli/rescaled_final/0057_fw.mp4	0.0	356.7320237159729	
60	263.16424918174744	movie	1		262	58.0	2.5	/experiments/knapen_AOT/AOT_stimuli/rescaled_final/0057_fw.mp4	0.0	357.5650362968445	2.4920785427093506
60	263.9316062927246	pulse	1	t		58.0	2.5	/experiments/knapen_AOT/AOT_stimuli/rescaled_final/0057_fw.mp4	0.0	358.33239340782166	
60	265.53146529197693	pulse	1	t		58.0	2.5	/experiments/knapen_AOT/AOT_stimuli/rescaled_final/0057_fw.mp4	0.0	359.932252407074	
60	265.6563277244568	fix_post	2		12	58.0	2.5	/experiments/knapen_AOT/AOT_stimuli/rescaled_final/0057_fw.mp4	0.0	360.05711483955383	0.09997415542602539
61	265.7563018798828	fix_pre	0		120	59.0	2.5	/experiments/knapen_AOT/AOT_stimuli/rescaled_final/0667_fw.mp4	0.0	360.15708899497986	1.008500099182129
61	266.76480197906494	movie	1		269	59.0	2.5	/experiments/knapen_AOT/AOT_stimuli/rescaled_final/0667_fw.mp4	0.0	361.165589094162	2.4920156002044678
61	267.13176012039185	pulse	1	t		59.0	2.5	/experiments/knapen_AOT/AOT_stimuli/rescaled_final/0667_fw.mp4	0.0	361.5325472354889	
61	268.7319827079773	pulse	1	t		59.0	2.5	/experiments/knapen_AOT/AOT_stimuli/rescaled_final/0667_fw.mp4	0.0	363.13276982307434	
61	269.2568175792694	fix_post	2		12	59.0	2.5	/experiments/knapen_AOT/AOT_stimuli/rescaled_final/0667_fw.mp4	0.0	363.65760469436646	0.10007667541503906
62	269.35689425468445	fix_pre	0		118	60.0	2.5	/experiments/knapen_AOT/AOT_stimuli/rescaled_final/1560_rv.mp4	0.0	363.7576813697815	0.991771936416626
62	270.3323197364807	pulse	0	t		60.0	2.5	/experiments/knapen_AOT/AOT_stimuli/rescaled_final/1560_rv.mp4	0.0	364.73310685157776	
62	270.3486661911011	movie	1		277	60.0	2.5	/experiments/knapen_AOT/AOT_stimuli/rescaled_final/1560_rv.mp4	0.0	364.7494533061981	2.5003676414489746
62	271.9323356151581	pulse	1	t		60.0	2.5	/experiments/knapen_AOT/AOT_stimuli/rescaled_final/1560_rv.mp4	0.0	366.3331227302551	
62	272.84903383255005	fix_post	2		12	60.0	2.5	/experiments/knapen_AOT/AOT_stimuli/rescaled_final/1560_rv.mp4	0.0	367.2498209476471	0.1000053882598877
63	272.94903922080994	fix_pre	0		120	61.0	2.5	/experiments/knapen_AOT/AOT_stimuli/rescaled_final/2115_rv.mp4	0.0	367.349826335907	1.0085372924804688
63	273.53269028663635	pulse	0	t		61.0	2.5	/experiments/knapen_AOT/AOT_stimuli/rescaled_final/2115_rv.mp4	0.0	367.9334774017334	
63	273.9575765132904	movie	1		278	61.0	2.5	/experiments/knapen_AOT/AOT_stimuli/rescaled_final/2115_rv.mp4	0.0	368.35836362838745	2.4920060634613037
63	275.131147146225	pulse	1	t		61.0	2.5	/experiments/knapen_AOT/AOT_stimuli/rescaled_final/2115_rv.mp4	0.0	369.531934261322	
63	276.4495825767517	fix_post	2		12	61.0	2.5	/experiments/knapen_AOT/AOT_stimuli/rescaled_final/2115_rv.mp4	0.0	370.85036969184875	0.10005760192871094
64	276.5496401786804	fix_pre	0		120	62.0	2.5	blank	1.0	370.95042729377747	1.0000877380371094
64	276.73342204093933	pulse	0	t		62.0	2.5	blank	1.0	371.1342091560364	
64	277.54972791671753	movie	1		300	62.0	2.5	blank	1.0	371.9505150318146	2.5003623962402344
64	278.33409690856934	pulse	1	t		62.0	2.5	blank	1.0	372.7348840236664	
64	279.93393325805664	pulse	1	t		62.0	2.5	blank	1.0	374.3347203731537	
64	280.05009031295776	fix_post	2		12	62.0	2.5	blank	1.0	374.4508774280548	0.10002613067626953
65	280.15011644363403	fix_pre	0		120	63.0	2.5	/experiments/knapen_AOT/AOT_stimuli/rescaled_final/0617_fw.mp4	0.0	374.5509035587311	1.0085177421569824
65	281.158634185791	movie	1		280	63.0	2.5	/experiments/knapen_AOT/AOT_stimuli/rescaled_final/0617_fw.mp4	0.0	375.55942130088806	2.4920191764831543
65	281.5323169231415	pulse	1	t		63.0	2.5	/experiments/knapen_AOT/AOT_stimuli/rescaled_final/0617_fw.mp4	0.0	375.9331040382385	
65	283.13204431533813	pulse	1	t		63.0	2.5	/experiments/knapen_AOT/AOT_stimuli/rescaled_final/0617_fw.mp4	0.0	377.5328314304352	
65	283.65065336227417	fix_post	2		12	63.0	2.5	/experiments/knapen_AOT/AOT_stimuli/rescaled_final/0617_fw.mp4	0.0	378.0514404773712	0.1000058650970459
66	283.7506592273712	fix_pre	0		119	64.0	2.5	/experiments/knapen_AOT/AOT_stimuli/rescaled_final/0825_fw.mp4	0.0	378.15144634246826	1.0001552104949951
66	284.73433685302734	pulse	0	t		64.0	2.5	/experiments/knapen_AOT/AOT_stimuli/rescaled_final/0825_fw.mp4	0.0	379.1351239681244	
66	284.7508144378662	movie	1		278	64.0	2.5	/experiments/knapen_AOT/AOT_stimuli/rescaled_final/0825_fw.mp4	0.0	379.15160155296326	2.50040864944458
66	286.3331255912781	pulse	1	t		64.0	2.5	/experiments/knapen_AOT/AOT_stimuli/rescaled_final/0825_fw.mp4	0.0	380.7339127063751	
66	287.2512230873108	fix_post	2		12	64.0	2.5	/experiments/knapen_AOT/AOT_stimuli/rescaled_final/0825_fw.mp4	0.0	381.65201020240784	0.10000920295715332
67	287.35123229026794	fix_pre	0		120	65.0	2.5	/experiments/knapen_AOT/AOT_stimuli/rescaled_final/0445_fw.mp4	0.0	381.752019405365	1.0084753036499023
67	287.9350230693817	pulse	0	t		65.0	2.5	/experiments/knapen_AOT/AOT_stimuli/rescaled_final/0445_fw.mp4	0.0	382.33581018447876	
67	288.35970759391785	movie	1		282	65.0	2.5	/experiments/knapen_AOT/AOT_stimuli/rescaled_final/0445_fw.mp4	0.0	382.7604947090149	2.4920268058776855
67	289.53339886665344	pulse	1	t		65.0	2.5	/experiments/knapen_AOT/AOT_stimuli/rescaled_final/0445_fw.mp4	0.0	383.9341859817505	
67	290.85173439979553	fix_post	2		12	65.0	2.5	/experiments/knapen_AOT/AOT_stimuli/rescaled_final/0445_fw.mp4	0.0	385.2525215148926	0.1000070571899414
68	290.9517414569855	fix_pre	0		120	66.0	2.5	/experiments/knapen_AOT/AOT_stimuli/rescaled_final/1731_rv.mp4	0.0	385.3525285720825	1.0085220336914062
68	291.1354739665985	pulse	0	t		66.0	2.5	/experiments/knapen_AOT/AOT_stimuli/rescaled_final/1731_rv.mp4	0.0	385.53626108169556	
68	291.9602634906769	movie	1		282	66.0	2.5	/experiments/knapen_AOT/AOT_stimuli/rescaled_final/1731_rv.mp4	0.0	386.3610506057739	2.492020606994629
68	292.73351764678955	pulse	1	t		66.0	2.5	/experiments/knapen_AOT/AOT_stimuli/rescaled_final/1731_rv.mp4	0.0	387.1343047618866	
68	294.3335950374603	pulse	1	t		66.0	2.5	/experiments/knapen_AOT/AOT_stimuli/rescaled_final/1731_rv.mp4	0.0	388.7343821525574	
68	294.4522840976715	fix_post	2		12	66.0	2.5	/experiments/knapen_AOT/AOT_stimuli/rescaled_final/1731_rv.mp4	0.0	388.85307121276855	0.1000518798828125
69	294.5523359775543	fix_pre	0		120	67.0	2.5	/experiments/knapen_AOT/AOT_stimuli/rescaled_final/0363_fw.mp4	0.0	388.95312309265137	1.0084435939788818
69	295.5607795715332	movie	1		282	67.0	2.5	/experiments/knapen_AOT/AOT_stimuli/rescaled_final/0363_fw.mp4	0.0	389.96156668663025	2.4920246601104736
69	295.93499517440796	pulse	1	t		67.0	2.5	/experiments/knapen_AOT/AOT_stimuli/rescaled_final/0363_fw.mp4	0.0	390.335782289505	
69	297.5339951515198	pulse	1	t		67.0	2.5	/experiments/knapen_AOT/AOT_stimuli/rescaled_final/0363_fw.mp4	0.0	391.9347822666168	
69	298.0528042316437	fix_post	2		12	67.0	2.5	/experiments/knapen_AOT/AOT_stimuli/rescaled_final/0363_fw.mp4	0.0	392.4535913467407	0.10002398490905762
70	298.15282821655273	fix_pre	0		119	68.0	2.5	/experiments/knapen_AOT/AOT_stimuli/rescaled_final/1386_fw.mp4	0.0	392.5536153316498	1.0001752376556396
70	299.1365718841553	pulse	0	t		68.0	2.5	/experiments/knapen_AOT/AOT_stimuli/rescaled_final/1386_fw.mp4	0.0	393.5373589992523	
70	299.1530034542084	movie	1		291	68.0	2.5	/experiments/knapen_AOT/AOT_stimuli/rescaled_final/1386_fw.mp4	0.0	393.5537905693054	2.500354528427124
70	300.735511302948	pulse	1	t		68.0	2.5	/experiments/knapen_AOT/AOT_stimuli/rescaled_final/1386_fw.mp4	0.0	395.13629841804504	
70	301.6533579826355	fix_post	2		12	68.0	2.5	/experiments/knapen_AOT/AOT_stimuli/rescaled_final/1386_fw.mp4	0.0	396.05414509773254	0.09999918937683105
71	301.75335717201233	fix_pre	0		120	69.0	2.5	/experiments/knapen_AOT/AOT_stimuli/rescaled_final/0483_rv.mp4	0.0	396.1541442871094	1.0085418224334717
71	302.33699464797974	pulse	0	t		69.0	2.5	/experiments/knapen_AOT/AOT_stimuli/rescaled_final/0483_rv.mp4	0.0	396.7377817630768	
71	302.7618989944458	movie	1		289	69.0	2.5	/experiments/knapen_AOT/AOT_stimuli/rescaled_final/0483_rv.mp4	0.0	397.16268610954285	2.4920239448547363
71	303.93542981147766	pulse	1	t		69.0	2.5	/experiments/knapen_AOT/AOT_stimuli/rescaled_final/0483_rv.mp4	0.0	398.3362169265747	
71	305.25392293930054	fix_post	2		12	69.0	2.5	/experiments/knapen_AOT/AOT_stimuli/rescaled_final/0483_rv.mp4	0.0	399.6547100543976	0.10002970695495605
72	305.3539526462555	fix_pre	0		120	70.0	2.5	blank	1.0	399.75473976135254	1.0000884532928467
72	305.53122878074646	pulse	0	t		70.0	2.5	blank	1.0	399.9320158958435	
72	306.35404109954834	movie	1		300	70.0	2.5	blank	1.0	400.7548282146454	2.500382423400879
72	307.1377274990082	pulse	1	t		70.0	2.5	blank	1.0	401.5385146141052	
72	308.73796367645264	pulse	1	t		70.0	2.5	blank	1.0	403.1387507915497	
72	308.8544235229492	fix_post	2		12	70.0	2.5	blank	1.0	403.25521063804626	0.1000208854675293
73	308.95444440841675	fix_pre	0		120	71.0	2.5	/experiments/knapen_AOT/AOT_stimuli/rescaled_final/1869_rv.mp4	0.0	403.3552315235138	1.00852370262146
73	309.9629681110382	movie	1		286	71.0	2.5	/experiments/knapen_AOT/AOT_stimuli/rescaled_final/1869_rv.mp4	0.0	404.36375522613525	2.492112874984741
73	310.3364043235779	pulse	1	t		71.0	2.5	/experiments/knapen_AOT/AOT_stimuli/rescaled_final/1869_rv.mp4	0.0	404.7371914386749	
73	311.93613481521606	pulse	1	t		71.0	2.5	/experiments/knapen_AOT/AOT_stimuli/rescaled_final/1869_rv.mp4	0.0	406.3369219303131	
73	312.45508098602295	fix_post	2		12	71.0	2.5	/experiments/knapen_AOT/AOT_stimuli/rescaled_final/1869_rv.mp4	0.0	406.85586810112	0.09990739822387695
74	312.5549883842468	fix_pre	0		119	72.0	2.5	/experiments/knapen_AOT/AOT_stimuli/rescaled_final/0785_fw.mp4	0.0	406.9557754993439	1.00014328956604
74	313.5386915206909	pulse	0	t		72.0	2.5	/experiments/knapen_AOT/AOT_stimuli/rescaled_final/0785_fw.mp4	0.0	407.93947863578796	
74	313.55513167381287	movie	1		271	72.0	2.5	/experiments/knapen_AOT/AOT_stimuli/rescaled_final/0785_fw.mp4	0.0	407.9559187889099	2.5003724098205566
74	315.13707518577576	pulse	1	t		72.0	2.5	/experiments/knapen_AOT/AOT_stimuli/rescaled_final/0785_fw.mp4	0.0	409.5378623008728	
74	316.0555040836334	fix_post	2		12	72.0	2.5	/experiments/knapen_AOT/AOT_stimuli/rescaled_final/0785_fw.mp4	0.0	410.45629119873047	0.10006141662597656
75	316.1555655002594	fix_pre	0		120	73.0	2.5	/experiments/knapen_AOT/AOT_stimuli/rescaled_final/0909_fw.mp4	0.0	410.55635261535645	1.008467435836792
75	316.73123931884766	pulse	0	t		73.0	2.5	/experiments/knapen_AOT/AOT_stimuli/rescaled_final/0909_fw.mp4	0.0	411.1320264339447	
75	317.1640329360962	movie	1		266	73.0	2.5	/experiments/knapen_AOT/AOT_stimuli/rescaled_final/0909_fw.mp4	0.0	411.56482005119324	2.492020845413208
75	318.3316295146942	pulse	1	t		73.0	2.5	/experiments/knapen_AOT/AOT_stimuli/rescaled_final/0909_fw.mp4	0.0	412.73241662979126	
75	319.6560537815094	fix_post	2		12	73.0	2.5	/experiments/knapen_AOT/AOT_stimuli/rescaled_final/0909_fw.mp4	0.0	414.05684089660645	0.10001230239868164
76	319.7560660839081	fix_pre	0		120	74.0	2.5	/experiments/knapen_AOT/AOT_stimuli/rescaled_final/0905_rv.mp4	0.0	414.1568531990051	1.0085206031799316
76	319.9314160346985	pulse	0	t		74.0	2.5	/experiments/knapen_AOT/AOT_stimuli/rescaled_final/0905_rv.mp4	0.0	414.33220314979553	
76	320.764586687088	movie	1		272	74.0	2.5	/experiments/knapen_AOT/AOT_stimuli/rescaled_final/0905_rv.mp4	0.0	415.16537380218506	2.49214768409729
76	321.5315454006195	pulse	1	t		74.0	2.5	/experiments/knapen_AOT/AOT_stimuli/rescaled_final/0905_rv.mp4	0.0	415.93233251571655	
76	323.13189029693604	pulse	1	t		74.0	2.5	/experiments/knapen_AOT/AOT_stimuli/rescaled_final/0905_rv.mp4	0.0	417.5326774120331	
76	323.2567343711853	fix_post	2		12	74.0	2.5	/experiments/knapen_AOT/AOT_stimuli/rescaled_final/0905_rv.mp4	0.0	417.65752148628235	0.09991002082824707
77	323.35664439201355	fix_pre	0		120	75.0	2.5	/experiments/knapen_AOT/AOT_stimuli/rescaled_final/2149_rv.mp4	0.0	417.7574315071106	1.0084877014160156
77	324.36513209342957	movie	1		285	75.0	2.5	/experiments/knapen_AOT/AOT_stimuli/rescaled_final/2149_rv.mp4	0.0	418.7659192085266	2.4920032024383545
77	324.7322106361389	pulse	1	t		75.0	2.5	/experiments/knapen_AOT/AOT_stimuli/rescaled_final/2149_rv.mp4	0.0	419.13299775123596	
77	326.33242201805115	pulse	1	t		75.0	2.5	/experiments/knapen_AOT/AOT_stimuli/rescaled_final/2149_rv.mp4	0.0	420.7332091331482	
77	326.8571352958679	fix_post	2		12	75.0	2.5	/experiments/knapen_AOT/AOT_stimuli/rescaled_final/2149_rv.mp4	0.0	421.25792241096497	0.10004258155822754
78	326.95717787742615	fix_pre	0		118	76.0	2.5	blank	1.0	421.3579649925232	0.9834213256835938
78	327.93271565437317	pulse	0	t		76.0	2.5	blank	1.0	422.3335027694702	
78	327.94059920310974	movie	1		301	76.0	2.5	blank	1.0	422.3413863182068	2.5087451934814453
78	329.53281927108765	pulse	1	t		76.0	2.5	blank	1.0	423.9336063861847	
78	330.4493443965912	fix_post	2		12	76.0	2.5	blank	1.0	424.85013151168823	0.10005521774291992
79	330.5493996143341	fix_pre	0		120	77.0	2.5	/experiments/knapen_AOT/AOT_stimuli/rescaled_final/0361_rv.mp4	0.0	424.95018672943115	1.0084400177001953
79	331.1330177783966	pulse	0	t		77.0	2.5	/experiments/knapen_AOT/AOT_stimuli/rescaled_final/0361_rv.mp4	0.0	425.53380489349365	
79	331.5578396320343	movie	1		272	77.0	2.5	/experiments/knapen_AOT/AOT_stimuli/rescaled_final/0361_rv.mp4	0.0	425.95862674713135	2.492076873779297
79	332.7326159477234	pulse	1	t		77.0	2.5	/experiments/knapen_AOT/AOT_stimuli/rescaled_final/0361_rv.mp4	0.0	427.13340306282043	
79	334.0499165058136	fix_post	2		12	77.0	2.5	/experiments/knapen_AOT/AOT_stimuli/rescaled_final/0361_rv.mp4	0.0	428.45070362091064	0.09998750686645508
80	334.14990401268005	fix_pre	0		120	78.0	2.5	/experiments/knapen_AOT/AOT_stimuli/rescaled_final/0363_rv.mp4	0.0	428.5506911277771	1.008500576019287
80	334.33348655700684	pulse	0	t		78.0	2.5	/experiments/knapen_AOT/AOT_stimuli/rescaled_final/0363_rv.mp4	0.0	428.7342736721039	
80	335.15840458869934	movie	1		280	78.0	2.5	/experiments/knapen_AOT/AOT_stimuli/rescaled_final/0363_rv.mp4	0.0	429.5591917037964	2.4920079708099365
80	335.93165349960327	pulse	1	t		78.0	2.5	/experiments/knapen_AOT/AOT_stimuli/rescaled_final/0363_rv.mp4	0.0	430.3324406147003	
80	337.53193068504333	pulse	1	t		78.0	2.5	/experiments/knapen_AOT/AOT_stimuli/rescaled_final/0363_rv.mp4	0.0	431.9327178001404	
80	337.6504125595093	fix_post	2		12	78.0	2.5	/experiments/knapen_AOT/AOT_stimuli/rescaled_final/0363_rv.mp4	0.0	432.0511996746063	0.10002994537353516
81	337.7504425048828	fix_pre	0		120	79.0	2.5	/experiments/knapen_AOT/AOT_stimuli/rescaled_final/0477_fw.mp4	0.0	432.15122961997986	1.0084702968597412
81	338.75891280174255	movie	1		265	79.0	2.5	/experiments/knapen_AOT/AOT_stimuli/rescaled_final/0477_fw.mp4	0.0	433.1596999168396	2.4920578002929688
81	339.13426327705383	pulse	1	t		79.0	2.5	/experiments/knapen_AOT/AOT_stimuli/rescaled_final/0477_fw.mp4	0.0	433.5350503921509	
81	340.73455834388733	pulse	1	t		79.0	2.5	/experiments/knapen_AOT/AOT_stimuli/rescaled_final/0477_fw.mp4	0.0	435.1353454589844	
81	341.2509706020355	fix_post	2		12	79.0	2.5	/experiments/knapen_AOT/AOT_stimuli/rescaled_final/0477_fw.mp4	0.0	435.65175771713257	0.10005903244018555
82	341.3510296344757	fix_pre	0		119	80.0	2.5	/experiments/knapen_AOT/AOT_stimuli/rescaled_final/0567_fw.mp4	0.0	435.75181674957275	1.0001401901245117
82	342.334680557251	pulse	0	t		80.0	2.5	/experiments/knapen_AOT/AOT_stimuli/rescaled_final/0567_fw.mp4	0.0	436.735467672348	
82	342.3511698246002	movie	1		285	80.0	2.5	/experiments/knapen_AOT/AOT_stimuli/rescaled_final/0567_fw.mp4	0.0	436.75195693969727	2.500326156616211
82	343.93354773521423	pulse	1	t		80.0	2.5	/experiments/knapen_AOT/AOT_stimuli/rescaled_final/0567_fw.mp4	0.0	438.3343348503113	
82	344.85149598121643	fix_post	2		12	80.0	2.5	/experiments/knapen_AOT/AOT_stimuli/rescaled_final/0567_fw.mp4	0.0	439.2522830963135	0.10003280639648438
83	344.9515287876129	fix_pre	0		120	81.0	2.5	/experiments/knapen_AOT/AOT_stimuli/rescaled_final/1238_rv.mp4	0.0	439.35231590270996	1.0084948539733887
83	345.535258769989	pulse	0	t		81.0	2.5	/experiments/knapen_AOT/AOT_stimuli/rescaled_final/1238_rv.mp4	0.0	439.93604588508606	
83	345.9600236415863	movie	1		278	81.0	2.5	/experiments/knapen_AOT/AOT_stimuli/rescaled_final/1238_rv.mp4	0.0	440.36081075668335	2.4920241832733154
83	347.1334104537964	pulse	1	t		81.0	2.5	/experiments/knapen_AOT/AOT_stimuli/rescaled_final/1238_rv.mp4	0.0	441.53419756889343	
83	348.4520478248596	fix_post	2		12	81.0	2.5	/experiments/knapen_AOT/AOT_stimuli/rescaled_final/1238_rv.mp4	0.0	442.85283493995667	0.10003113746643066
84	348.55207896232605	fix_pre	0		120	82.0	2.5	blank	1.0	442.9528660774231	1.0002005100250244
84	348.7356560230255	pulse	0	t		82.0	2.5	blank	1.0	443.13644313812256	
84	349.5522794723511	movie	1		300	82.0	2.5	blank	1.0	443.9530665874481	2.5003113746643066
84	350.3359651565552	pulse	1	t		82.0	2.5	blank	1.0	444.7367522716522	
84	351.93618750572205	pulse	1	t		82.0	2.5	blank	1.0	446.3369746208191	
84	352.0525908470154	fix_post	2		12	82.0	2.5	blank	1.0	446.4533779621124	0.10004854202270508
85	352.1526393890381	fix_pre	0		120	83.0	2.5	/experiments/knapen_AOT/AOT_stimuli/rescaled_final/2113_rv.mp4	0.0	446.55342650413513	1.0084736347198486
85	353.16111302375793	movie	1		286	83.0	2.5	/experiments/knapen_AOT/AOT_stimuli/rescaled_final/2113_rv.mp4	0.0	447.561900138855	2.492044687271118
85	353.53511333465576	pulse	1	t		83.0	2.5	/experiments/knapen_AOT/AOT_stimuli/rescaled_final/2113_rv.mp4	0.0	447.9359004497528	
85	355.1342465877533	pulse	1	t		83.0	2.5	/experiments/knapen_AOT/AOT_stimuli/rescaled_final/2113_rv.mp4	0.0	449.53503370285034	
85	355.65315771102905	fix_post	2		11	83.0	2.5	/experiments/knapen_AOT/AOT_stimuli/rescaled_final/2113_rv.mp4	0.0	450.0539448261261	0.09998774528503418
87	355.7531454563141	stim	0		1715					450.15393257141113	14.29384446144104
87	356.73698711395264	pulse	0	t						451.1377742290497	
87	358.33701825141907	pulse	0	t						452.7378053665161	
87	359.9373309612274	pulse	0	t						454.33811807632446	
87	361.53758907318115	pulse	0	t						455.9383761882782	
87	363.137850522995	pulse	0	t						457.53863763809204	
87	364.73808670043945	pulse	0	t						459.1388738155365	
87	366.33830857276917	pulse	0	t						460.7390956878662	
87	367.93876814842224	pulse	0	t						462.3395552635193	
87	369.53879618644714	pulse	0	t						463.9395833015442	
