trial_nr	onset	event_type	phase	response	nr_frames	movie_index	movie_duration	movie_file	blank	onset_abs	duration
0	0.15812373161315918	stim	0		6					20.136292934417725	0.049865007400512695
0	0.199937105178833	response	0	space						20.1781063079834	
1	0.20798873901367188	stim	0		4600					20.186157941818237	38.347535371780396
1	38.54599165916443	pulse	0	t						58.524160861968994	
1	38.55552411079407	stim	1		1715					58.53369331359863	14.302109956741333
1	40.13928008079529	pulse	1	t						60.11744928359985	
1	41.739460468292236	pulse	1	t						61.7176296710968	
1	43.33973455429077	pulse	1	t						63.31790375709534	
1	44.93993878364563	pulse	1	t						64.9181079864502	
1	46.54033851623535	pulse	1	t						66.51850771903992	
1	48.14049983024597	pulse	1	t						68.11866903305054	
1	49.74068069458008	pulse	1	t						69.71884989738464	
1	51.34088921546936	pulse	1	t						71.31905841827393	
2	52.8576340675354	fix_pre	0		11	0.0	2.5	/experiments/Knapen_AOT/AOT_stimuli/rescaled_final/0139_fw.mp4	0.0	72.83580327033997	0.10841965675354004
2	52.9411883354187	pulse	0	t		0.0	2.5	/experiments/Knapen_AOT/AOT_stimuli/rescaled_final/0139_fw.mp4	0.0	72.91935753822327	
2	52.96605372428894	movie	1		278	0.0	2.5	/experiments/Knapen_AOT/AOT_stimuli/rescaled_final/0139_fw.mp4	0.0	72.9442229270935	2.491985559463501
2	54.53965163230896	pulse	1	t		0.0	2.5	/experiments/Knapen_AOT/AOT_stimuli/rescaled_final/0139_fw.mp4	0.0	74.51782083511353	
2	55.45803928375244	fix_post	2		12	0.0	2.5	/experiments/Knapen_AOT/AOT_stimuli/rescaled_final/0139_fw.mp4	0.0	75.436208486557	0.0999763011932373
3	55.55801558494568	fix_pre	0		120	1.0	2.5	/experiments/Knapen_AOT/AOT_stimuli/rescaled_final/0656_rv.mp4	0.0	75.53618478775024	1.0085432529449463
3	56.141677379608154	pulse	0	t		1.0	2.5	/experiments/Knapen_AOT/AOT_stimuli/rescaled_final/0656_rv.mp4	0.0	76.11984658241272	
3	56.566558837890625	movie	1		284	1.0	2.5	/experiments/Knapen_AOT/AOT_stimuli/rescaled_final/0656_rv.mp4	0.0	76.54472804069519	2.491999626159668
3	57.7398681640625	pulse	1	t		1.0	2.5	/experiments/Knapen_AOT/AOT_stimuli/rescaled_final/0656_rv.mp4	0.0	77.71803736686707	
3	59.05855846405029	fix_post	2		12	1.0	2.5	/experiments/Knapen_AOT/AOT_stimuli/rescaled_final/0656_rv.mp4	0.0	79.03672766685486	0.10008358955383301
4	59.158642053604126	fix_pre	0		120	2.0	2.5	/experiments/Knapen_AOT/AOT_stimuli/rescaled_final/1467_rv.mp4	0.0	79.13681125640869	1.0084142684936523
4	59.342140674591064	pulse	0	t		2.0	2.5	/experiments/Knapen_AOT/AOT_stimuli/rescaled_final/1467_rv.mp4	0.0	79.32030987739563	
4	60.16705632209778	movie	1		286	2.0	2.5	/experiments/Knapen_AOT/AOT_stimuli/rescaled_final/1467_rv.mp4	0.0	80.14522552490234	2.4920120239257812
4	60.94036245346069	pulse	1	t		2.0	2.5	/experiments/Knapen_AOT/AOT_stimuli/rescaled_final/1467_rv.mp4	0.0	80.91853165626526	
4	62.540501832962036	pulse	1	t		2.0	2.5	/experiments/Knapen_AOT/AOT_stimuli/rescaled_final/1467_rv.mp4	0.0	82.5186710357666	
4	62.65906834602356	fix_post	2		12	2.0	2.5	/experiments/Knapen_AOT/AOT_stimuli/rescaled_final/1467_rv.mp4	0.0	82.63723754882812	0.10001516342163086
5	62.75908350944519	fix_pre	0		120	3.0	2.5	/experiments/Knapen_AOT/AOT_stimuli/rescaled_final/0138_fw.mp4	0.0	82.73725271224976	1.0084991455078125
5	63.767582654953	movie	1		283	3.0	2.5	/experiments/Knapen_AOT/AOT_stimuli/rescaled_final/0138_fw.mp4	0.0	83.74575185775757	2.49204421043396
5	64.14097452163696	pulse	1	t		3.0	2.5	/experiments/Knapen_AOT/AOT_stimuli/rescaled_final/0138_fw.mp4	0.0	84.11914372444153	
5	65.7409553527832	pulse	1	t		3.0	2.5	/experiments/Knapen_AOT/AOT_stimuli/rescaled_final/0138_fw.mp4	0.0	85.71912455558777	
5	66.25962686538696	fix_post	2		12	3.0	2.5	/experiments/Knapen_AOT/AOT_stimuli/rescaled_final/0138_fw.mp4	0.0	86.23779606819153	0.09999799728393555
6	66.3596248626709	fix_pre	0		119	4.0	2.5	/experiments/Knapen_AOT/AOT_stimuli/rescaled_final/1378_rv.mp4	0.0	86.33779406547546	1.0001628398895264
6	67.34340119361877	pulse	0	t		4.0	2.5	/experiments/Knapen_AOT/AOT_stimuli/rescaled_final/1378_rv.mp4	0.0	87.32157039642334	
6	67.35978770256042	movie	1		278	4.0	2.5	/experiments/Knapen_AOT/AOT_stimuli/rescaled_final/1378_rv.mp4	0.0	87.33795690536499	2.500566005706787
6	68.94364738464355	pulse	1	t		4.0	2.5	/experiments/Knapen_AOT/AOT_stimuli/rescaled_final/1378_rv.mp4	0.0	88.92181658744812	
6	69.86035370826721	fix_post	2		12	4.0	2.5	/experiments/Knapen_AOT/AOT_stimuli/rescaled_final/1378_rv.mp4	0.0	89.83852291107178	0.09985017776489258
7	69.9602038860321	fix_pre	0		120	5.0	2.5	/experiments/Knapen_AOT/AOT_stimuli/rescaled_final/0196_fw.mp4	0.0	89.93837308883667	1.0084800720214844
7	70.53574228286743	pulse	0	t		5.0	2.5	/experiments/Knapen_AOT/AOT_stimuli/rescaled_final/0196_fw.mp4	0.0	90.513911485672	
7	70.96868395805359	movie	1		289	5.0	2.5	/experiments/Knapen_AOT/AOT_stimuli/rescaled_final/0196_fw.mp4	0.0	90.94685316085815	2.4920568466186523
7	72.13571882247925	pulse	1	t		5.0	2.5	/experiments/Knapen_AOT/AOT_stimuli/rescaled_final/0196_fw.mp4	0.0	92.11388802528381	
7	73.46074080467224	fix_post	2		12	5.0	2.5	/experiments/Knapen_AOT/AOT_stimuli/rescaled_final/0196_fw.mp4	0.0	93.4389100074768	0.0999593734741211
8	73.56070017814636	fix_pre	0		120	6.0	2.5	/experiments/Knapen_AOT/AOT_stimuli/rescaled_final/1639_rv.mp4	0.0	93.53886938095093	1.0085365772247314
8	73.7363007068634	pulse	0	t		6.0	2.5	/experiments/Knapen_AOT/AOT_stimuli/rescaled_final/1639_rv.mp4	0.0	93.71446990966797	
8	74.5692367553711	movie	1		288	6.0	2.5	/experiments/Knapen_AOT/AOT_stimuli/rescaled_final/1639_rv.mp4	0.0	94.54740595817566	2.4919824600219727
8	75.33613753318787	pulse	1	t		6.0	2.5	/experiments/Knapen_AOT/AOT_stimuli/rescaled_final/1639_rv.mp4	0.0	95.31430673599243	
8	76.93642711639404	pulse	1	t		6.0	2.5	/experiments/Knapen_AOT/AOT_stimuli/rescaled_final/1639_rv.mp4	0.0	96.91459631919861	
8	77.06121921539307	fix_post	2		12	6.0	2.5	/experiments/Knapen_AOT/AOT_stimuli/rescaled_final/1639_rv.mp4	0.0	97.03938841819763	0.10003113746643066
9	77.1612503528595	fix_pre	0		120	7.0	2.5	blank	1.0	97.13941955566406	1.000147819519043
9	78.16139817237854	movie	1		300	7.0	2.5	blank	1.0	98.1395673751831	2.500373125076294
9	78.53661036491394	pulse	1	t		7.0	2.5	blank	1.0	98.5147795677185	
9	80.13697576522827	pulse	1	t		7.0	2.5	blank	1.0	100.11514496803284	
9	80.66177129745483	fix_post	2		12	7.0	2.5	blank	1.0	100.6399405002594	0.1000819206237793
10	80.76185321807861	fix_pre	0		118	8.0	2.5	/experiments/Knapen_AOT/AOT_stimuli/rescaled_final/1402_fw.mp4	0.0	100.74002242088318	0.9917664527893066
10	81.73717093467712	pulse	0	t		8.0	2.5	/experiments/Knapen_AOT/AOT_stimuli/rescaled_final/1402_fw.mp4	0.0	101.71534013748169	
10	81.75361967086792	movie	1		280	8.0	2.5	/experiments/Knapen_AOT/AOT_stimuli/rescaled_final/1402_fw.mp4	0.0	101.73178887367249	2.500413179397583
10	83.33582496643066	pulse	1	t		8.0	2.5	/experiments/Knapen_AOT/AOT_stimuli/rescaled_final/1402_fw.mp4	0.0	103.31399416923523	
10	84.2540328502655	fix_post	2		12	8.0	2.5	/experiments/Knapen_AOT/AOT_stimuli/rescaled_final/1402_fw.mp4	0.0	104.23220205307007	0.10002374649047852
11	84.35405659675598	fix_pre	0		120	9.0	2.5	/experiments/Knapen_AOT/AOT_stimuli/rescaled_final/1883_fw.mp4	0.0	104.33222579956055	1.008439064025879
11	84.93764328956604	pulse	0	t		9.0	2.5	/experiments/Knapen_AOT/AOT_stimuli/rescaled_final/1883_fw.mp4	0.0	104.9158124923706	
11	85.36249566078186	movie	1		279	9.0	2.5	/experiments/Knapen_AOT/AOT_stimuli/rescaled_final/1883_fw.mp4	0.0	105.34066486358643	2.492067337036133
11	86.53612399101257	pulse	1	t		9.0	2.5	/experiments/Knapen_AOT/AOT_stimuli/rescaled_final/1883_fw.mp4	0.0	106.51429319381714	
11	87.854562997818	fix_post	2		12	9.0	2.5	/experiments/Knapen_AOT/AOT_stimuli/rescaled_final/1883_fw.mp4	0.0	107.83273220062256	0.10003066062927246
12	87.95459365844727	fix_pre	0		120	10.0	2.5	/experiments/Knapen_AOT/AOT_stimuli/rescaled_final/1657_rv.mp4	0.0	107.93276286125183	1.008526086807251
12	88.13808393478394	pulse	0	t		10.0	2.5	/experiments/Knapen_AOT/AOT_stimuli/rescaled_final/1657_rv.mp4	0.0	108.1162531375885	
12	88.96311974525452	movie	1		274	10.0	2.5	/experiments/Knapen_AOT/AOT_stimuli/rescaled_final/1657_rv.mp4	0.0	108.94128894805908	2.491957902908325
12	89.73842167854309	pulse	1	t		10.0	2.5	/experiments/Knapen_AOT/AOT_stimuli/rescaled_final/1657_rv.mp4	0.0	109.71659088134766	
12	91.33651423454285	pulse	1	t		10.0	2.5	/experiments/Knapen_AOT/AOT_stimuli/rescaled_final/1657_rv.mp4	0.0	111.31468343734741	
12	91.45507764816284	fix_post	2		12	10.0	2.5	/experiments/Knapen_AOT/AOT_stimuli/rescaled_final/1657_rv.mp4	0.0	111.43324685096741	0.10000991821289062
13	91.55508756637573	fix_pre	0		120	11.0	2.5	/experiments/Knapen_AOT/AOT_stimuli/rescaled_final/1111_fw.mp4	0.0	111.5332567691803	1.0084991455078125
13	92.56358671188354	movie	1		284	11.0	2.5	/experiments/Knapen_AOT/AOT_stimuli/rescaled_final/1111_fw.mp4	0.0	112.54175591468811	2.492020845413208
13	92.93707799911499	pulse	1	t		11.0	2.5	/experiments/Knapen_AOT/AOT_stimuli/rescaled_final/1111_fw.mp4	0.0	112.91524720191956	
13	94.53703927993774	pulse	1	t		11.0	2.5	/experiments/Knapen_AOT/AOT_stimuli/rescaled_final/1111_fw.mp4	0.0	114.51520848274231	
13	95.05560755729675	fix_post	2		12	11.0	2.5	/experiments/Knapen_AOT/AOT_stimuli/rescaled_final/1111_fw.mp4	0.0	115.03377676010132	0.10001516342163086
14	95.15562272071838	fix_pre	0		119	12.0	2.5	blank	1.0	115.13379192352295	0.9918081760406494
14	96.13934636116028	pulse	0	t		12.0	2.5	blank	1.0	116.11751556396484	
14	96.14743089675903	movie	1		301	12.0	2.5	blank	1.0	116.1256000995636	2.5087273120880127
14	97.73952221870422	pulse	1	t		12.0	2.5	blank	1.0	117.71769142150879	
14	98.65615820884705	fix_post	2		12	12.0	2.5	blank	1.0	118.63432741165161	0.10000753402709961
15	98.75616574287415	fix_pre	0		120	13.0	2.5	/experiments/Knapen_AOT/AOT_stimuli/rescaled_final/1947_rv.mp4	0.0	118.73433494567871	1.00850248336792
15	99.34020590782166	pulse	0	t		13.0	2.5	/experiments/Knapen_AOT/AOT_stimuli/rescaled_final/1947_rv.mp4	0.0	119.31837511062622	
15	99.76466822624207	movie	1		284	13.0	2.5	/experiments/Knapen_AOT/AOT_stimuli/rescaled_final/1947_rv.mp4	0.0	119.74283742904663	2.492095947265625
15	100.93805718421936	pulse	1	t		13.0	2.5	/experiments/Knapen_AOT/AOT_stimuli/rescaled_final/1947_rv.mp4	0.0	120.91622638702393	
15	102.25676417350769	fix_post	2		12	13.0	2.5	/experiments/Knapen_AOT/AOT_stimuli/rescaled_final/1947_rv.mp4	0.0	122.23493337631226	0.09995222091674805
16	102.35671639442444	fix_pre	0		120	14.0	2.5	/experiments/Knapen_AOT/AOT_stimuli/rescaled_final/0825_fw.mp4	0.0	122.334885597229	1.0085649490356445
16	102.54027533531189	pulse	0	t		14.0	2.5	/experiments/Knapen_AOT/AOT_stimuli/rescaled_final/0825_fw.mp4	0.0	122.51844453811646	
16	103.36528134346008	movie	1		288	14.0	2.5	/experiments/Knapen_AOT/AOT_stimuli/rescaled_final/0825_fw.mp4	0.0	123.34345054626465	2.4920032024383545
16	104.13837456703186	pulse	1	t		14.0	2.5	/experiments/Knapen_AOT/AOT_stimuli/rescaled_final/0825_fw.mp4	0.0	124.11654376983643	
16	105.7389144897461	pulse	1	t		14.0	2.5	/experiments/Knapen_AOT/AOT_stimuli/rescaled_final/0825_fw.mp4	0.0	125.71708369255066	
16	105.85728454589844	fix_post	2		12	14.0	2.5	/experiments/Knapen_AOT/AOT_stimuli/rescaled_final/0825_fw.mp4	0.0	125.835453748703	0.09999680519104004
17	105.95728135108948	fix_pre	0		120	15.0	2.5	/experiments/Knapen_AOT/AOT_stimuli/rescaled_final/0109_fw.mp4	0.0	125.93545055389404	1.008528709411621
17	106.9658100605011	movie	1		283	15.0	2.5	/experiments/Knapen_AOT/AOT_stimuli/rescaled_final/0109_fw.mp4	0.0	126.94397926330566	2.491969585418701
17	107.33956599235535	pulse	1	t		15.0	2.5	/experiments/Knapen_AOT/AOT_stimuli/rescaled_final/0109_fw.mp4	0.0	127.31773519515991	
17	108.93940591812134	pulse	1	t		15.0	2.5	/experiments/Knapen_AOT/AOT_stimuli/rescaled_final/0109_fw.mp4	0.0	128.9175751209259	
17	109.4577796459198	fix_post	2		12	15.0	2.5	/experiments/Knapen_AOT/AOT_stimuli/rescaled_final/0109_fw.mp4	0.0	129.43594884872437	0.10000896453857422
18	109.55778861045837	fix_pre	0		119	16.0	2.5	/experiments/Knapen_AOT/AOT_stimuli/rescaled_final/1891_rv.mp4	0.0	129.53595781326294	1.00016450881958
18	110.54153227806091	pulse	0	t		16.0	2.5	/experiments/Knapen_AOT/AOT_stimuli/rescaled_final/1891_rv.mp4	0.0	130.51970148086548	
18	110.55795311927795	movie	1		286	16.0	2.5	/experiments/Knapen_AOT/AOT_stimuli/rescaled_final/1891_rv.mp4	0.0	130.53612232208252	2.5003697872161865
18	112.14026355743408	pulse	1	t		16.0	2.5	/experiments/Knapen_AOT/AOT_stimuli/rescaled_final/1891_rv.mp4	0.0	132.11843276023865	
18	113.05832290649414	fix_post	2		12	16.0	2.5	/experiments/Knapen_AOT/AOT_stimuli/rescaled_final/1891_rv.mp4	0.0	133.0364921092987	0.10001087188720703
19	113.15833377838135	fix_pre	0		120	17.0	2.5	/experiments/Knapen_AOT/AOT_stimuli/rescaled_final/1608_fw.mp4	0.0	133.1365029811859	1.0085527896881104
19	113.74219703674316	pulse	0	t		17.0	2.5	/experiments/Knapen_AOT/AOT_stimuli/rescaled_final/1608_fw.mp4	0.0	133.72036623954773	
19	114.16688656806946	movie	1		283	17.0	2.5	/experiments/Knapen_AOT/AOT_stimuli/rescaled_final/1608_fw.mp4	0.0	134.14505577087402	2.491971731185913
19	115.34020328521729	pulse	1	t		17.0	2.5	/experiments/Knapen_AOT/AOT_stimuli/rescaled_final/1608_fw.mp4	0.0	135.31837248802185	
19	116.65885829925537	fix_post	2		12	17.0	2.5	/experiments/Knapen_AOT/AOT_stimuli/rescaled_final/1608_fw.mp4	0.0	136.63702750205994	0.10000729560852051
20	116.75886559486389	fix_pre	0		120	18.0	2.5	/experiments/Knapen_AOT/AOT_stimuli/rescaled_final/0911_fw.mp4	0.0	136.73703479766846	1.0085787773132324
20	116.94246053695679	pulse	0	t		18.0	2.5	/experiments/Knapen_AOT/AOT_stimuli/rescaled_final/0911_fw.mp4	0.0	136.92062973976135	
20	117.76744437217712	movie	1		280	18.0	2.5	/experiments/Knapen_AOT/AOT_stimuli/rescaled_final/0911_fw.mp4	0.0	137.7456135749817	2.4919538497924805
20	118.54037690162659	pulse	1	t		18.0	2.5	/experiments/Knapen_AOT/AOT_stimuli/rescaled_final/0911_fw.mp4	0.0	138.51854610443115	
20	120.14117193222046	pulse	1	t		18.0	2.5	/experiments/Knapen_AOT/AOT_stimuli/rescaled_final/0911_fw.mp4	0.0	140.11934113502502	
20	120.2593982219696	fix_post	2		12	18.0	2.5	/experiments/Knapen_AOT/AOT_stimuli/rescaled_final/0911_fw.mp4	0.0	140.23756742477417	0.10001802444458008
21	120.35941624641418	fix_pre	0		120	19.0	2.5	blank	1.0	140.33758544921875	1.0001575946807861
21	121.35957384109497	movie	1		300	19.0	2.5	blank	1.0	141.33774304389954	2.5003840923309326
21	121.74331450462341	pulse	1	t		19.0	2.5	blank	1.0	141.72148370742798	
21	123.34335041046143	pulse	1	t		19.0	2.5	blank	1.0	143.321519613266	
21	123.8599579334259	fix_post	2		12	19.0	2.5	blank	1.0	143.83812713623047	0.10001182556152344
22	123.95996975898743	fix_pre	0		119	20.0	2.5	/experiments/Knapen_AOT/AOT_stimuli/rescaled_final/1474_rv.mp4	0.0	143.938138961792	1.00016188621521
22	124.93681621551514	pulse	0	t		20.0	2.5	/experiments/Knapen_AOT/AOT_stimuli/rescaled_final/1474_rv.mp4	0.0	144.9149854183197	
22	124.96013164520264	movie	1		292	20.0	2.5	/experiments/Knapen_AOT/AOT_stimuli/rescaled_final/1474_rv.mp4	0.0	144.9383008480072	2.5003468990325928
22	126.54271221160889	pulse	1	t		20.0	2.5	/experiments/Knapen_AOT/AOT_stimuli/rescaled_final/1474_rv.mp4	0.0	146.52088141441345	
22	127.46047854423523	fix_post	2		12	20.0	2.5	/experiments/Knapen_AOT/AOT_stimuli/rescaled_final/1474_rv.mp4	0.0	147.4386477470398	0.10001945495605469
23	127.56049799919128	fix_pre	0		120	21.0	2.5	/experiments/Knapen_AOT/AOT_stimuli/rescaled_final/1891_rv.mp4	0.0	147.53866720199585	1.0085573196411133
23	128.13609433174133	pulse	0	t		21.0	2.5	/experiments/Knapen_AOT/AOT_stimuli/rescaled_final/1891_rv.mp4	0.0	148.1142635345459	
23	128.5690553188324	movie	1		289	21.0	2.5	/experiments/Knapen_AOT/AOT_stimuli/rescaled_final/1891_rv.mp4	0.0	148.54722452163696	2.4919774532318115
23	129.73615074157715	pulse	1	t		21.0	2.5	/experiments/Knapen_AOT/AOT_stimuli/rescaled_final/1891_rv.mp4	0.0	149.7143199443817	
23	131.0610327720642	fix_post	2		12	21.0	2.5	/experiments/Knapen_AOT/AOT_stimuli/rescaled_final/1891_rv.mp4	0.0	151.03920197486877	0.10008478164672852
24	131.16111755371094	fix_pre	0		120	22.0	2.5	/experiments/Knapen_AOT/AOT_stimuli/rescaled_final/0817_rv.mp4	0.0	151.1392867565155	1.0084054470062256
24	131.3362648487091	pulse	0	t		22.0	2.5	/experiments/Knapen_AOT/AOT_stimuli/rescaled_final/0817_rv.mp4	0.0	151.31443405151367	
24	132.16952300071716	movie	1		279	22.0	2.5	/experiments/Knapen_AOT/AOT_stimuli/rescaled_final/0817_rv.mp4	0.0	152.14769220352173	2.4920411109924316
24	132.93653655052185	pulse	1	t		22.0	2.5	/experiments/Knapen_AOT/AOT_stimuli/rescaled_final/0817_rv.mp4	0.0	152.91470575332642	
24	134.53678846359253	pulse	1	t		22.0	2.5	/experiments/Knapen_AOT/AOT_stimuli/rescaled_final/0817_rv.mp4	0.0	154.5149576663971	
24	134.6615641117096	fix_post	2		12	22.0	2.5	/experiments/Knapen_AOT/AOT_stimuli/rescaled_final/0817_rv.mp4	0.0	154.63973331451416	0.10007166862487793
25	134.76163578033447	fix_pre	0		120	23.0	2.5	/experiments/Knapen_AOT/AOT_stimuli/rescaled_final/0353_rv.mp4	0.0	154.73980498313904	1.0085499286651611
25	135.77018570899963	movie	1		262	23.0	2.5	/experiments/Knapen_AOT/AOT_stimuli/rescaled_final/0353_rv.mp4	0.0	155.7483549118042	2.491929292678833
25	136.13625597953796	pulse	1	t		23.0	2.5	/experiments/Knapen_AOT/AOT_stimuli/rescaled_final/0353_rv.mp4	0.0	156.11442518234253	
25	137.73752903938293	pulse	1	t		23.0	2.5	/experiments/Knapen_AOT/AOT_stimuli/rescaled_final/0353_rv.mp4	0.0	157.7156982421875	
25	138.26211500167847	fix_post	2		12	23.0	2.5	/experiments/Knapen_AOT/AOT_stimuli/rescaled_final/0353_rv.mp4	0.0	158.24028420448303	0.10000991821289062
26	138.36212491989136	fix_pre	0		118	24.0	2.5	/experiments/Knapen_AOT/AOT_stimuli/rescaled_final/1244_rv.mp4	0.0	158.34029412269592	1.0001888275146484
26	139.33747935295105	pulse	0	t		24.0	2.5	/experiments/Knapen_AOT/AOT_stimuli/rescaled_final/1244_rv.mp4	0.0	159.31564855575562	
26	139.362313747406	movie	1		285	24.0	2.5	/experiments/Knapen_AOT/AOT_stimuli/rescaled_final/1244_rv.mp4	0.0	159.34048295021057	2.49204158782959
26	140.93646597862244	pulse	1	t		24.0	2.5	/experiments/Knapen_AOT/AOT_stimuli/rescaled_final/1244_rv.mp4	0.0	160.914635181427	
26	141.8543553352356	fix_post	2		12	24.0	2.5	/experiments/Knapen_AOT/AOT_stimuli/rescaled_final/1244_rv.mp4	0.0	161.83252453804016	0.10002994537353516
27	141.95438528060913	fix_pre	0		120	25.0	2.5	/experiments/Knapen_AOT/AOT_stimuli/rescaled_final/0022_rv.mp4	0.0	161.9325544834137	1.0084593296051025
27	142.53808331489563	pulse	0	t		25.0	2.5	/experiments/Knapen_AOT/AOT_stimuli/rescaled_final/0022_rv.mp4	0.0	162.5162525177002	
27	142.96284461021423	movie	1		272	25.0	2.5	/experiments/Knapen_AOT/AOT_stimuli/rescaled_final/0022_rv.mp4	0.0	162.9410138130188	2.492003917694092
27	144.13864302635193	pulse	1	t		25.0	2.5	/experiments/Knapen_AOT/AOT_stimuli/rescaled_final/0022_rv.mp4	0.0	164.1168122291565	
27	145.45484852790833	fix_post	2		12	25.0	2.5	/experiments/Knapen_AOT/AOT_stimuli/rescaled_final/0022_rv.mp4	0.0	165.4330177307129	0.10000991821289062
28	145.55485844612122	fix_pre	0		120	26.0	2.5	/experiments/Knapen_AOT/AOT_stimuli/rescaled_final/0374_rv.mp4	0.0	165.53302764892578	1.0085227489471436
28	145.73841881752014	pulse	0	t		26.0	2.5	/experiments/Knapen_AOT/AOT_stimuli/rescaled_final/0374_rv.mp4	0.0	165.7165880203247	
28	146.56338119506836	movie	1		288	26.0	2.5	/experiments/Knapen_AOT/AOT_stimuli/rescaled_final/0374_rv.mp4	0.0	166.54155039787292	2.4920082092285156
28	147.33677411079407	pulse	1	t		26.0	2.5	/experiments/Knapen_AOT/AOT_stimuli/rescaled_final/0374_rv.mp4	0.0	167.31494331359863	
28	148.93677234649658	pulse	1	t		26.0	2.5	/experiments/Knapen_AOT/AOT_stimuli/rescaled_final/0374_rv.mp4	0.0	168.91494154930115	
28	149.05538940429688	fix_post	2		12	26.0	2.5	/experiments/Knapen_AOT/AOT_stimuli/rescaled_final/0374_rv.mp4	0.0	169.03355860710144	0.10002565383911133
29	149.155415058136	fix_pre	0		120	27.0	2.5	blank	1.0	169.13358426094055	1.000133991241455
29	150.15554904937744	movie	1		300	27.0	2.5	blank	1.0	170.133718252182	2.500537157058716
29	150.53917503356934	pulse	1	t		27.0	2.5	blank	1.0	170.5173442363739	
29	152.1393597126007	pulse	1	t		27.0	2.5	blank	1.0	172.11752891540527	
29	152.65608620643616	fix_post	2		12	27.0	2.5	blank	1.0	172.63425540924072	0.09990620613098145
30	152.75599241256714	fix_pre	0		119	28.0	2.5	/experiments/Knapen_AOT/AOT_stimuli/rescaled_final/0138_rv.mp4	0.0	172.7341616153717	1.0001459121704102
30	153.7397756576538	pulse	0	t		28.0	2.5	/experiments/Knapen_AOT/AOT_stimuli/rescaled_final/0138_rv.mp4	0.0	173.71794486045837	
30	153.75613832473755	movie	1		284	28.0	2.5	/experiments/Knapen_AOT/AOT_stimuli/rescaled_final/0138_rv.mp4	0.0	173.73430752754211	2.5003342628479004
30	155.33840894699097	pulse	1	t		28.0	2.5	/experiments/Knapen_AOT/AOT_stimuli/rescaled_final/0138_rv.mp4	0.0	175.31657814979553	
30	156.25647258758545	fix_post	2		12	28.0	2.5	/experiments/Knapen_AOT/AOT_stimuli/rescaled_final/0138_rv.mp4	0.0	176.23464179039001	0.1000211238861084
31	156.35649371147156	fix_pre	0		120	29.0	2.5	/experiments/Knapen_AOT/AOT_stimuli/rescaled_final/0315_rv.mp4	0.0	176.33466291427612	1.008512020111084
31	156.9402139186859	pulse	0	t		29.0	2.5	/experiments/Knapen_AOT/AOT_stimuli/rescaled_final/0315_rv.mp4	0.0	176.91838312149048	
31	157.36500573158264	movie	1		281	29.0	2.5	/experiments/Knapen_AOT/AOT_stimuli/rescaled_final/0315_rv.mp4	0.0	177.3431749343872	2.4920425415039062
31	158.53859615325928	pulse	1	t		29.0	2.5	/experiments/Knapen_AOT/AOT_stimuli/rescaled_final/0315_rv.mp4	0.0	178.51676535606384	
31	159.85704827308655	fix_post	2		12	29.0	2.5	/experiments/Knapen_AOT/AOT_stimuli/rescaled_final/0315_rv.mp4	0.0	179.8352174758911	0.10004067420959473
32	159.95708894729614	fix_pre	0		120	30.0	2.5	/experiments/Knapen_AOT/AOT_stimuli/rescaled_final/0226_fw.mp4	0.0	179.9352581501007	1.0084576606750488
32	160.14064407348633	pulse	0	t		30.0	2.5	/experiments/Knapen_AOT/AOT_stimuli/rescaled_final/0226_fw.mp4	0.0	180.1188132762909	
32	160.9655466079712	movie	1		285	30.0	2.5	/experiments/Knapen_AOT/AOT_stimuli/rescaled_final/0226_fw.mp4	0.0	180.94371581077576	2.492004156112671
32	161.73897433280945	pulse	1	t		30.0	2.5	/experiments/Knapen_AOT/AOT_stimuli/rescaled_final/0226_fw.mp4	0.0	181.717143535614	
32	163.3391568660736	pulse	1	t		30.0	2.5	/experiments/Knapen_AOT/AOT_stimuli/rescaled_final/0226_fw.mp4	0.0	183.31732606887817	
32	163.45755076408386	fix_post	2		12	30.0	2.5	/experiments/Knapen_AOT/AOT_stimuli/rescaled_final/0226_fw.mp4	0.0	183.43571996688843	0.10004019737243652
33	163.5575909614563	fix_pre	0		120	31.0	2.5	/experiments/Knapen_AOT/AOT_stimuli/rescaled_final/1631_rv.mp4	0.0	183.53576016426086	1.0084481239318848
33	164.56603908538818	movie	1		273	31.0	2.5	/experiments/Knapen_AOT/AOT_stimuli/rescaled_final/1631_rv.mp4	0.0	184.54420828819275	2.492189645767212
33	164.93975186347961	pulse	1	t		31.0	2.5	/experiments/Knapen_AOT/AOT_stimuli/rescaled_final/1631_rv.mp4	0.0	184.91792106628418	
33	166.54171133041382	pulse	1	t		31.0	2.5	/experiments/Knapen_AOT/AOT_stimuli/rescaled_final/1631_rv.mp4	0.0	186.51988053321838	
33	167.0582287311554	fix_post	2		12	31.0	2.5	/experiments/Knapen_AOT/AOT_stimuli/rescaled_final/1631_rv.mp4	0.0	187.03639793395996	0.09990954399108887
34	167.15813827514648	fix_pre	0		119	32.0	2.5	/experiments/Knapen_AOT/AOT_stimuli/rescaled_final/0428_rv.mp4	0.0	187.13630747795105	1.0001220703125
34	168.14191007614136	pulse	0	t		32.0	2.5	/experiments/Knapen_AOT/AOT_stimuli/rescaled_final/0428_rv.mp4	0.0	188.12007927894592	
34	168.15826034545898	movie	1		288	32.0	2.5	/experiments/Knapen_AOT/AOT_stimuli/rescaled_final/0428_rv.mp4	0.0	188.13642954826355	2.5004024505615234
34	169.74119639396667	pulse	1	t		32.0	2.5	/experiments/Knapen_AOT/AOT_stimuli/rescaled_final/0428_rv.mp4	0.0	189.71936559677124	
34	170.6586627960205	fix_post	2		12	32.0	2.5	/experiments/Knapen_AOT/AOT_stimuli/rescaled_final/0428_rv.mp4	0.0	190.63683199882507	0.10002636909484863
35	170.75868916511536	fix_pre	0		120	33.0	2.5	/experiments/Knapen_AOT/AOT_stimuli/rescaled_final/0917_fw.mp4	0.0	190.73685836791992	1.0084805488586426
35	171.34235405921936	pulse	0	t		33.0	2.5	/experiments/Knapen_AOT/AOT_stimuli/rescaled_final/0917_fw.mp4	0.0	191.32052326202393	
35	171.767169713974	movie	1		286	33.0	2.5	/experiments/Knapen_AOT/AOT_stimuli/rescaled_final/0917_fw.mp4	0.0	191.74533891677856	2.4920294284820557
35	172.94086861610413	pulse	1	t		33.0	2.5	/experiments/Knapen_AOT/AOT_stimuli/rescaled_final/0917_fw.mp4	0.0	192.9190378189087	
35	174.25919914245605	fix_post	2		12	33.0	2.5	/experiments/Knapen_AOT/AOT_stimuli/rescaled_final/0917_fw.mp4	0.0	194.23736834526062	0.1000065803527832
36	174.35920572280884	fix_pre	0		120	34.0	2.5	/experiments/Knapen_AOT/AOT_stimuli/rescaled_final/1986_rv.mp4	0.0	194.3373749256134	1.0085015296936035
36	174.54286313056946	pulse	0	t		34.0	2.5	/experiments/Knapen_AOT/AOT_stimuli/rescaled_final/1986_rv.mp4	0.0	194.52103233337402	
36	175.36770725250244	movie	1		286	34.0	2.5	/experiments/Knapen_AOT/AOT_stimuli/rescaled_final/1986_rv.mp4	0.0	195.345876455307	2.4920456409454346
36	176.141131401062	pulse	1	t		34.0	2.5	/experiments/Knapen_AOT/AOT_stimuli/rescaled_final/1986_rv.mp4	0.0	196.11930060386658	
36	177.74108839035034	pulse	1	t		34.0	2.5	/experiments/Knapen_AOT/AOT_stimuli/rescaled_final/1986_rv.mp4	0.0	197.7192575931549	
36	177.85975289344788	fix_post	2		12	34.0	2.5	/experiments/Knapen_AOT/AOT_stimuli/rescaled_final/1986_rv.mp4	0.0	197.83792209625244	0.09998536109924316
37	177.95973825454712	fix_pre	0		120	35.0	2.5	blank	1.0	197.93790745735168	1.0001490116119385
37	178.95988726615906	movie	1		300	35.0	2.5	blank	1.0	198.93805646896362	2.5004003047943115
37	179.3358428478241	pulse	1	t		35.0	2.5	blank	1.0	199.31401205062866	
37	180.93572354316711	pulse	1	t		35.0	2.5	blank	1.0	200.91389274597168	
37	181.46028757095337	fix_post	2		12	35.0	2.5	blank	1.0	201.43845677375793	0.10000181198120117
38	181.56028938293457	fix_pre	0		118	36.0	2.5	/experiments/Knapen_AOT/AOT_stimuli/rescaled_final/2052_fw.mp4	0.0	201.53845858573914	0.9918231964111328
38	182.53568124771118	pulse	0	t		36.0	2.5	/experiments/Knapen_AOT/AOT_stimuli/rescaled_final/2052_fw.mp4	0.0	202.51385045051575	
38	182.5521125793457	movie	1		280	36.0	2.5	/experiments/Knapen_AOT/AOT_stimuli/rescaled_final/2052_fw.mp4	0.0	202.53028178215027	2.5003981590270996
38	184.1364345550537	pulse	1	t		36.0	2.5	/experiments/Knapen_AOT/AOT_stimuli/rescaled_final/2052_fw.mp4	0.0	204.11460375785828	
38	185.0525107383728	fix_post	2		12	36.0	2.5	/experiments/Knapen_AOT/AOT_stimuli/rescaled_final/2052_fw.mp4	0.0	205.03067994117737	0.10003662109375
39	185.15254735946655	fix_pre	0		120	37.0	2.5	/experiments/Knapen_AOT/AOT_stimuli/rescaled_final/1295_fw.mp4	0.0	205.13071656227112	1.0084397792816162
39	185.73624682426453	pulse	0	t		37.0	2.5	/experiments/Knapen_AOT/AOT_stimuli/rescaled_final/1295_fw.mp4	0.0	205.7144160270691	
39	186.16098713874817	movie	1		281	37.0	2.5	/experiments/Knapen_AOT/AOT_stimuli/rescaled_final/1295_fw.mp4	0.0	206.13915634155273	2.492030382156372
39	187.33659172058105	pulse	1	t		37.0	2.5	/experiments/Knapen_AOT/AOT_stimuli/rescaled_final/1295_fw.mp4	0.0	207.31476092338562	
39	188.65301752090454	fix_post	2		12	37.0	2.5	/experiments/Knapen_AOT/AOT_stimuli/rescaled_final/1295_fw.mp4	0.0	208.6311867237091	0.10002827644348145
40	188.75304579734802	fix_pre	0		120	38.0	2.5	/experiments/Knapen_AOT/AOT_stimuli/rescaled_final/0911_fw.mp4	0.0	208.7312150001526	1.0084948539733887
40	188.93664932250977	pulse	0	t		38.0	2.5	/experiments/Knapen_AOT/AOT_stimuli/rescaled_final/0911_fw.mp4	0.0	208.91481852531433	
40	189.7615406513214	movie	1		266	38.0	2.5	/experiments/Knapen_AOT/AOT_stimuli/rescaled_final/0911_fw.mp4	0.0	209.73970985412598	2.492093086242676
40	190.53687357902527	pulse	1	t		38.0	2.5	/experiments/Knapen_AOT/AOT_stimuli/rescaled_final/0911_fw.mp4	0.0	210.51504278182983	
40	192.13708543777466	pulse	1	t		38.0	2.5	/experiments/Knapen_AOT/AOT_stimuli/rescaled_final/0911_fw.mp4	0.0	212.11525464057922	
40	192.2536337375641	fix_post	2		12	38.0	2.5	/experiments/Knapen_AOT/AOT_stimuli/rescaled_final/0911_fw.mp4	0.0	212.23180294036865	0.09998321533203125
41	192.35361695289612	fix_pre	0		120	39.0	2.5	/experiments/Knapen_AOT/AOT_stimuli/rescaled_final/0203_rv.mp4	0.0	212.33178615570068	1.0084598064422607
41	193.36207675933838	movie	1		272	39.0	2.5	/experiments/Knapen_AOT/AOT_stimuli/rescaled_final/0203_rv.mp4	0.0	213.34024596214294	2.492014169692993
41	193.73640298843384	pulse	1	t		39.0	2.5	/experiments/Knapen_AOT/AOT_stimuli/rescaled_final/0203_rv.mp4	0.0	213.7145721912384	
41	195.33572125434875	pulse	1	t		39.0	2.5	/experiments/Knapen_AOT/AOT_stimuli/rescaled_final/0203_rv.mp4	0.0	215.31389045715332	
41	195.85409092903137	fix_post	2		12	39.0	2.5	/experiments/Knapen_AOT/AOT_stimuli/rescaled_final/0203_rv.mp4	0.0	215.83226013183594	0.10002589225769043
42	195.95411682128906	fix_pre	0		119	40.0	2.5	blank	1.0	215.93228602409363	0.9919240474700928
42	196.93783116340637	pulse	0	t		40.0	2.5	blank	1.0	216.91600036621094	
42	196.94604086875916	movie	1		301	40.0	2.5	blank	1.0	216.92421007156372	2.5086662769317627
42	198.53804683685303	pulse	1	t		40.0	2.5	blank	1.0	218.5162160396576	
42	199.45470714569092	fix_post	2		12	40.0	2.5	blank	1.0	219.43287634849548	0.10000157356262207
43	199.55470871925354	fix_pre	0		120	41.0	2.5	/experiments/Knapen_AOT/AOT_stimuli/rescaled_final/0576_fw.mp4	0.0	219.5328779220581	1.0084314346313477
43	200.13831782341003	pulse	0	t		41.0	2.5	/experiments/Knapen_AOT/AOT_stimuli/rescaled_final/0576_fw.mp4	0.0	220.1164870262146	
43	200.5631401538849	movie	1		284	41.0	2.5	/experiments/Knapen_AOT/AOT_stimuli/rescaled_final/0576_fw.mp4	0.0	220.54130935668945	2.4920315742492676
43	201.73659920692444	pulse	1	t		41.0	2.5	/experiments/Knapen_AOT/AOT_stimuli/rescaled_final/0576_fw.mp4	0.0	221.714768409729	
43	203.05517172813416	fix_post	2		12	41.0	2.5	/experiments/Knapen_AOT/AOT_stimuli/rescaled_final/0576_fw.mp4	0.0	223.03334093093872	0.10004091262817383
44	203.15521264076233	fix_pre	0		120	42.0	2.5	/experiments/Knapen_AOT/AOT_stimuli/rescaled_final/1122_fw.mp4	0.0	223.1333818435669	1.0086276531219482
44	203.33882188796997	pulse	0	t		42.0	2.5	/experiments/Knapen_AOT/AOT_stimuli/rescaled_final/1122_fw.mp4	0.0	223.31699109077454	
44	204.16384029388428	movie	1		285	42.0	2.5	/experiments/Knapen_AOT/AOT_stimuli/rescaled_final/1122_fw.mp4	0.0	224.14200949668884	2.4918766021728516
44	204.9377956390381	pulse	1	t		42.0	2.5	/experiments/Knapen_AOT/AOT_stimuli/rescaled_final/1122_fw.mp4	0.0	224.91596484184265	
44	206.5372829437256	pulse	1	t		42.0	2.5	/experiments/Knapen_AOT/AOT_stimuli/rescaled_final/1122_fw.mp4	0.0	226.51545214653015	
44	206.65571689605713	fix_post	2		12	42.0	2.5	/experiments/Knapen_AOT/AOT_stimuli/rescaled_final/1122_fw.mp4	0.0	226.6338860988617	0.10009002685546875
45	206.7558069229126	fix_pre	0		120	43.0	2.5	/experiments/Knapen_AOT/AOT_stimuli/rescaled_final/0581_rv.mp4	0.0	226.73397612571716	1.0084309577941895
45	207.7642378807068	movie	1		281	43.0	2.5	/experiments/Knapen_AOT/AOT_stimuli/rescaled_final/0581_rv.mp4	0.0	227.74240708351135	2.492058515548706
45	208.13793802261353	pulse	1	t		43.0	2.5	/experiments/Knapen_AOT/AOT_stimuli/rescaled_final/0581_rv.mp4	0.0	228.1161072254181	
45	209.737713098526	pulse	1	t		43.0	2.5	/experiments/Knapen_AOT/AOT_stimuli/rescaled_final/0581_rv.mp4	0.0	229.71588230133057	
45	210.2562963962555	fix_post	2		12	43.0	2.5	/experiments/Knapen_AOT/AOT_stimuli/rescaled_final/0581_rv.mp4	0.0	230.23446559906006	0.0999903678894043
46	210.3562867641449	fix_pre	0		119	44.0	2.5	/experiments/Knapen_AOT/AOT_stimuli/rescaled_final/0241_fw.mp4	0.0	230.33445596694946	1.0001461505889893
46	211.3400559425354	pulse	0	t		44.0	2.5	/experiments/Knapen_AOT/AOT_stimuli/rescaled_final/0241_fw.mp4	0.0	231.31822514533997	
46	211.3564329147339	movie	1		286	44.0	2.5	/experiments/Knapen_AOT/AOT_stimuli/rescaled_final/0241_fw.mp4	0.0	231.33460211753845	2.5004611015319824
46	212.93878197669983	pulse	1	t		44.0	2.5	/experiments/Knapen_AOT/AOT_stimuli/rescaled_final/0241_fw.mp4	0.0	232.9169511795044	
46	213.85689401626587	fix_post	2		12	44.0	2.5	/experiments/Knapen_AOT/AOT_stimuli/rescaled_final/0241_fw.mp4	0.0	233.83506321907043	0.09999346733093262
47	213.9568874835968	fix_pre	0		120	45.0	2.5	/experiments/Knapen_AOT/AOT_stimuli/rescaled_final/0242_fw.mp4	0.0	233.93505668640137	1.0084314346313477
47	214.54056072235107	pulse	0	t		45.0	2.5	/experiments/Knapen_AOT/AOT_stimuli/rescaled_final/0242_fw.mp4	0.0	234.51872992515564	
47	214.96531891822815	movie	1		278	45.0	2.5	/experiments/Knapen_AOT/AOT_stimuli/rescaled_final/0242_fw.mp4	0.0	234.94348812103271	2.492022752761841
47	216.13895893096924	pulse	1	t		45.0	2.5	/experiments/Knapen_AOT/AOT_stimuli/rescaled_final/0242_fw.mp4	0.0	236.1171281337738	
47	217.45734167099	fix_post	2		12	45.0	2.5	/experiments/Knapen_AOT/AOT_stimuli/rescaled_final/0242_fw.mp4	0.0	237.43551087379456	0.10002946853637695
48	217.55737113952637	fix_pre	0		105	46.0	2.5	/experiments/Knapen_AOT/AOT_stimuli/rescaled_final/1761_rv.mp4	0.0	237.53554034233093	1.008500099182129
48	217.74091958999634	pulse	0	t		46.0	2.5	/experiments/Knapen_AOT/AOT_stimuli/rescaled_final/1761_rv.mp4	0.0	237.7190887928009	
48	218.5658712387085	movie	1		272	46.0	2.5	/experiments/Knapen_AOT/AOT_stimuli/rescaled_final/1761_rv.mp4	0.0	238.54404044151306	2.4921414852142334
48	219.34124207496643	pulse	1	t		46.0	2.5	/experiments/Knapen_AOT/AOT_stimuli/rescaled_final/1761_rv.mp4	0.0	239.319411277771	
48	220.93941450119019	pulse	1	t		46.0	2.5	/experiments/Knapen_AOT/AOT_stimuli/rescaled_final/1761_rv.mp4	0.0	240.91758370399475	
48	221.05801272392273	fix_post	2		12	46.0	2.5	/experiments/Knapen_AOT/AOT_stimuli/rescaled_final/1761_rv.mp4	0.0	241.0361819267273	0.09988570213317871
49	221.1578984260559	fix_pre	0		120	47.0	2.5	blank	1.0	241.13606762886047	1.0002074241638184
49	222.15810585021973	movie	1		300	47.0	2.5	blank	1.0	242.1362750530243	2.5003161430358887
49	222.54166674613953	pulse	1	t		47.0	2.5	blank	1.0	242.5198359489441	
49	224.1419756412506	pulse	1	t		47.0	2.5	blank	1.0	244.12014484405518	
49	224.65842199325562	fix_post	2		12	47.0	2.5	blank	1.0	244.63659119606018	0.10003018379211426
50	224.75845217704773	fix_pre	0		119	48.0	2.5	/experiments/Knapen_AOT/AOT_stimuli/rescaled_final/0514_rv.mp4	0.0	244.7366213798523	1.0085852146148682
50	225.7421169281006	pulse	0	t		48.0	2.5	/experiments/Knapen_AOT/AOT_stimuli/rescaled_final/0514_rv.mp4	0.0	245.72028613090515	
50	225.7670373916626	movie	1		275	48.0	2.5	/experiments/Knapen_AOT/AOT_stimuli/rescaled_final/0514_rv.mp4	0.0	245.74520659446716	2.492011785507202
50	227.34100437164307	pulse	1	t		48.0	2.5	/experiments/Knapen_AOT/AOT_stimuli/rescaled_final/0514_rv.mp4	0.0	247.31917357444763	
50	228.2590491771698	fix_post	2		12	48.0	2.5	/experiments/Knapen_AOT/AOT_stimuli/rescaled_final/0514_rv.mp4	0.0	248.23721837997437	0.09995079040527344
51	228.35899996757507	fix_pre	0		120	49.0	2.5	/experiments/Knapen_AOT/AOT_stimuli/rescaled_final/0190_fw.mp4	0.0	248.33716917037964	1.0084989070892334
51	228.94263219833374	pulse	0	t		49.0	2.5	/experiments/Knapen_AOT/AOT_stimuli/rescaled_final/0190_fw.mp4	0.0	248.9208014011383	
51	229.3674988746643	movie	1		274	49.0	2.5	/experiments/Knapen_AOT/AOT_stimuli/rescaled_final/0190_fw.mp4	0.0	249.34566807746887	2.4922304153442383
51	230.54081511497498	pulse	1	t		49.0	2.5	/experiments/Knapen_AOT/AOT_stimuli/rescaled_final/0190_fw.mp4	0.0	250.51898431777954	
51	231.85972929000854	fix_post	2		12	49.0	2.5	/experiments/Knapen_AOT/AOT_stimuli/rescaled_final/0190_fw.mp4	0.0	251.8378984928131	0.09980082511901855
52	231.95953011512756	fix_pre	0		120	50.0	2.5	/experiments/Knapen_AOT/AOT_stimuli/rescaled_final/1891_fw.mp4	0.0	251.93769931793213	1.008554458618164
52	232.14317297935486	pulse	0	t		50.0	2.5	/experiments/Knapen_AOT/AOT_stimuli/rescaled_final/1891_fw.mp4	0.0	252.12134218215942	
52	232.96808457374573	movie	1		289	50.0	2.5	/experiments/Knapen_AOT/AOT_stimuli/rescaled_final/1891_fw.mp4	0.0	252.9462537765503	2.491981029510498
52	233.7416021823883	pulse	1	t		50.0	2.5	/experiments/Knapen_AOT/AOT_stimuli/rescaled_final/1891_fw.mp4	0.0	253.71977138519287	
52	235.34169816970825	pulse	1	t		50.0	2.5	/experiments/Knapen_AOT/AOT_stimuli/rescaled_final/1891_fw.mp4	0.0	255.31986737251282	
52	235.46006560325623	fix_post	2		12	50.0	2.5	/experiments/Knapen_AOT/AOT_stimuli/rescaled_final/1891_fw.mp4	0.0	255.4382348060608	0.10008001327514648
53	235.56014561653137	fix_pre	0		120	51.0	2.5	/experiments/Knapen_AOT/AOT_stimuli/rescaled_final/0463_fw.mp4	0.0	255.53831481933594	1.0084967613220215
53	236.5686423778534	movie	1		273	51.0	2.5	/experiments/Knapen_AOT/AOT_stimuli/rescaled_final/0463_fw.mp4	0.0	256.54681158065796	2.4919509887695312
53	236.94206047058105	pulse	1	t		51.0	2.5	/experiments/Knapen_AOT/AOT_stimuli/rescaled_final/0463_fw.mp4	0.0	256.9202296733856	
53	238.53594708442688	pulse	1	t		51.0	2.5	/experiments/Knapen_AOT/AOT_stimuli/rescaled_final/0463_fw.mp4	0.0	258.51411628723145	
53	239.06059336662292	fix_post	2		12	51.0	2.5	/experiments/Knapen_AOT/AOT_stimuli/rescaled_final/0463_fw.mp4	0.0	259.0387625694275	0.10007143020629883
54	239.16066479682922	fix_pre	0		118	52.0	2.5	/experiments/Knapen_AOT/AOT_stimuli/rescaled_final/0772_fw.mp4	0.0	259.1388339996338	1.000133991241455
54	240.13611602783203	pulse	0	t		52.0	2.5	/experiments/Knapen_AOT/AOT_stimuli/rescaled_final/0772_fw.mp4	0.0	260.1142852306366	
54	240.16079878807068	movie	1		280	52.0	2.5	/experiments/Knapen_AOT/AOT_stimuli/rescaled_final/0772_fw.mp4	0.0	260.13896799087524	2.491990089416504
54	241.7363350391388	pulse	1	t		52.0	2.5	/experiments/Knapen_AOT/AOT_stimuli/rescaled_final/0772_fw.mp4	0.0	261.71450424194336	
54	242.65278887748718	fix_post	2		12	52.0	2.5	/experiments/Knapen_AOT/AOT_stimuli/rescaled_final/0772_fw.mp4	0.0	262.63095808029175	0.10005474090576172
55	242.75284361839294	fix_pre	0		120	53.0	2.5	/experiments/Knapen_AOT/AOT_stimuli/rescaled_final/0997_rv.mp4	0.0	262.7310128211975	1.0084950923919678
55	243.33647847175598	pulse	0	t		53.0	2.5	/experiments/Knapen_AOT/AOT_stimuli/rescaled_final/0997_rv.mp4	0.0	263.31464767456055	
55	243.7613387107849	movie	1		277	53.0	2.5	/experiments/Knapen_AOT/AOT_stimuli/rescaled_final/0997_rv.mp4	0.0	263.7395079135895	2.49200701713562
55	244.93689918518066	pulse	1	t		53.0	2.5	/experiments/Knapen_AOT/AOT_stimuli/rescaled_final/0997_rv.mp4	0.0	264.91506838798523	
55	246.25334572792053	fix_post	2		12	53.0	2.5	/experiments/Knapen_AOT/AOT_stimuli/rescaled_final/0997_rv.mp4	0.0	266.2315149307251	0.1001739501953125
56	246.35351967811584	fix_pre	0		120	54.0	2.5	/experiments/Knapen_AOT/AOT_stimuli/rescaled_final/1892_fw.mp4	0.0	266.3316888809204	1.0083389282226562
56	246.5370397567749	pulse	0	t		54.0	2.5	/experiments/Knapen_AOT/AOT_stimuli/rescaled_final/1892_fw.mp4	0.0	266.51520895957947	
56	247.3618586063385	movie	1		276	54.0	2.5	/experiments/Knapen_AOT/AOT_stimuli/rescaled_final/1892_fw.mp4	0.0	267.34002780914307	2.49204158782959
56	248.13733577728271	pulse	1	t		54.0	2.5	/experiments/Knapen_AOT/AOT_stimuli/rescaled_final/1892_fw.mp4	0.0	268.1155049800873	
56	249.73742985725403	pulse	1	t		54.0	2.5	/experiments/Knapen_AOT/AOT_stimuli/rescaled_final/1892_fw.mp4	0.0	269.7155990600586	
56	249.8539001941681	fix_post	2		12	54.0	2.5	/experiments/Knapen_AOT/AOT_stimuli/rescaled_final/1892_fw.mp4	0.0	269.83206939697266	0.10000109672546387
57	249.95390129089355	fix_pre	0		120	55.0	2.5	blank	1.0	269.9320704936981	1.0001637935638428
57	250.9540650844574	movie	1		300	55.0	2.5	blank	1.0	270.93223428726196	2.5003788471221924
57	251.33769273757935	pulse	1	t		55.0	2.5	blank	1.0	271.3158619403839	
57	252.9378662109375	pulse	1	t		55.0	2.5	blank	1.0	272.91603541374207	
57	253.4544439315796	fix_post	2		12	55.0	2.5	blank	1.0	273.43261313438416	0.10004758834838867
58	253.55449151992798	fix_pre	0		119	56.0	2.5	/experiments/Knapen_AOT/AOT_stimuli/rescaled_final/1054_fw.mp4	0.0	273.53266072273254	1.0001108646392822
58	254.5382149219513	pulse	0	t		56.0	2.5	/experiments/Knapen_AOT/AOT_stimuli/rescaled_final/1054_fw.mp4	0.0	274.51638412475586	
58	254.55460238456726	movie	1		291	56.0	2.5	/experiments/Knapen_AOT/AOT_stimuli/rescaled_final/1054_fw.mp4	0.0	274.5327715873718	2.5003697872161865
58	256.13748574256897	pulse	1	t		56.0	2.5	/experiments/Knapen_AOT/AOT_stimuli/rescaled_final/1054_fw.mp4	0.0	276.11565494537354	
58	257.05497217178345	fix_post	2		12	56.0	2.5	/experiments/Knapen_AOT/AOT_stimuli/rescaled_final/1054_fw.mp4	0.0	277.033141374588	0.10002589225769043
59	257.15499806404114	fix_pre	0		120	57.0	2.5	/experiments/Knapen_AOT/AOT_stimuli/rescaled_final/0242_rv.mp4	0.0	277.1331672668457	1.008450984954834
59	257.73859786987305	pulse	0	t		57.0	2.5	/experiments/Knapen_AOT/AOT_stimuli/rescaled_final/0242_rv.mp4	0.0	277.7167670726776	
59	258.163449048996	movie	1		286	57.0	2.5	/experiments/Knapen_AOT/AOT_stimuli/rescaled_final/0242_rv.mp4	0.0	278.14161825180054	2.492048740386963
59	259.3370656967163	pulse	1	t		57.0	2.5	/experiments/Knapen_AOT/AOT_stimuli/rescaled_final/0242_rv.mp4	0.0	279.3152348995209	
59	260.65549778938293	fix_post	2		12	57.0	2.5	/experiments/Knapen_AOT/AOT_stimuli/rescaled_final/0242_rv.mp4	0.0	280.6336669921875	0.1000218391418457
60	260.7555196285248	fix_pre	0		120	58.0	2.5	/experiments/Knapen_AOT/AOT_stimuli/rescaled_final/1275_fw.mp4	0.0	280.73368883132935	1.008535385131836
60	260.9391634464264	pulse	0	t		58.0	2.5	/experiments/Knapen_AOT/AOT_stimuli/rescaled_final/1275_fw.mp4	0.0	280.91733264923096	
60	261.7640550136566	movie	1		277	58.0	2.5	/experiments/Knapen_AOT/AOT_stimuli/rescaled_final/1275_fw.mp4	0.0	281.7422242164612	2.492203950881958
60	262.53736877441406	pulse	1	t		58.0	2.5	/experiments/Knapen_AOT/AOT_stimuli/rescaled_final/1275_fw.mp4	0.0	282.5155379772186	
60	264.1375298500061	pulse	1	t		58.0	2.5	/experiments/Knapen_AOT/AOT_stimuli/rescaled_final/1275_fw.mp4	0.0	284.11569905281067	
60	264.2562589645386	fix_post	2		12	58.0	2.5	/experiments/Knapen_AOT/AOT_stimuli/rescaled_final/1275_fw.mp4	0.0	284.23442816734314	0.09982848167419434
61	264.35608744621277	fix_pre	0		120	59.0	2.5	/experiments/Knapen_AOT/AOT_stimuli/rescaled_final/1898_rv.mp4	0.0	284.33425664901733	1.0084953308105469
61	265.3645827770233	movie	1		272	59.0	2.5	/experiments/Knapen_AOT/AOT_stimuli/rescaled_final/1898_rv.mp4	0.0	285.3427519798279	2.492007255554199
61	265.73819303512573	pulse	1	t		59.0	2.5	/experiments/Knapen_AOT/AOT_stimuli/rescaled_final/1898_rv.mp4	0.0	285.7163622379303	
61	267.3378086090088	pulse	1	t		59.0	2.5	/experiments/Knapen_AOT/AOT_stimuli/rescaled_final/1898_rv.mp4	0.0	287.31597781181335	
61	267.8565900325775	fix_post	2		12	59.0	2.5	/experiments/Knapen_AOT/AOT_stimuli/rescaled_final/1898_rv.mp4	0.0	287.8347592353821	0.10002684593200684
62	267.9566168785095	fix_pre	0		119	60.0	2.5	/experiments/Knapen_AOT/AOT_stimuli/rescaled_final/1837_rv.mp4	0.0	287.9347860813141	1.0001401901245117
62	268.9405405521393	pulse	0	t		60.0	2.5	/experiments/Knapen_AOT/AOT_stimuli/rescaled_final/1837_rv.mp4	0.0	288.91870975494385	
62	268.95675706863403	movie	1		277	60.0	2.5	/experiments/Knapen_AOT/AOT_stimuli/rescaled_final/1837_rv.mp4	0.0	288.9349262714386	2.5003743171691895
62	270.53966093063354	pulse	1	t		60.0	2.5	/experiments/Knapen_AOT/AOT_stimuli/rescaled_final/1837_rv.mp4	0.0	290.5178301334381	
62	271.4571313858032	fix_post	2		12	60.0	2.5	/experiments/Knapen_AOT/AOT_stimuli/rescaled_final/1837_rv.mp4	0.0	291.4353005886078	0.1000204086303711
63	271.5571517944336	fix_pre	0		120	61.0	2.5	/experiments/Knapen_AOT/AOT_stimuli/rescaled_final/2140_rv.mp4	0.0	291.53532099723816	1.0085077285766602
63	272.14123344421387	pulse	0	t		61.0	2.5	/experiments/Knapen_AOT/AOT_stimuli/rescaled_final/2140_rv.mp4	0.0	292.11940264701843	
63	272.56565952301025	movie	1		276	61.0	2.5	/experiments/Knapen_AOT/AOT_stimuli/rescaled_final/2140_rv.mp4	0.0	292.5438287258148	2.4920480251312256
63	273.73911333084106	pulse	1	t		61.0	2.5	/experiments/Knapen_AOT/AOT_stimuli/rescaled_final/2140_rv.mp4	0.0	293.71728253364563	
63	275.0577075481415	fix_post	2		12	61.0	2.5	/experiments/Knapen_AOT/AOT_stimuli/rescaled_final/2140_rv.mp4	0.0	295.03587675094604	0.10012364387512207
64	275.1578311920166	fix_pre	0		120	62.0	2.5	/experiments/Knapen_AOT/AOT_stimuli/rescaled_final/1720_rv.mp4	0.0	295.13600039482117	1.0084259510040283
64	275.3413624763489	pulse	0	t		62.0	2.5	/experiments/Knapen_AOT/AOT_stimuli/rescaled_final/1720_rv.mp4	0.0	295.31953167915344	
64	276.16625714302063	movie	1		259	62.0	2.5	/experiments/Knapen_AOT/AOT_stimuli/rescaled_final/1720_rv.mp4	0.0	296.1444263458252	2.491957902908325
64	276.94034695625305	pulse	1	t		62.0	2.5	/experiments/Knapen_AOT/AOT_stimuli/rescaled_final/1720_rv.mp4	0.0	296.9185161590576	
64	278.54002618789673	pulse	1	t		62.0	2.5	/experiments/Knapen_AOT/AOT_stimuli/rescaled_final/1720_rv.mp4	0.0	298.5181953907013	
64	278.65821504592896	fix_post	2		12	62.0	2.5	/experiments/Knapen_AOT/AOT_stimuli/rescaled_final/1720_rv.mp4	0.0	298.6363842487335	0.10005068778991699
65	278.7582657337189	fix_pre	0		120	63.0	2.5	blank	1.0	298.73643493652344	1.000133752822876
65	279.75839948654175	movie	1		300	63.0	2.5	blank	1.0	299.7365686893463	2.5003743171691895
65	280.1420238018036	pulse	1	t		63.0	2.5	blank	1.0	300.12019300460815	
65	281.74237275123596	pulse	1	t		63.0	2.5	blank	1.0	301.7205419540405	
65	282.25877380371094	fix_post	2		12	63.0	2.5	blank	1.0	302.2369430065155	0.10004496574401855
66	282.35881876945496	fix_pre	0		119	64.0	2.5	/experiments/Knapen_AOT/AOT_stimuli/rescaled_final/1549_fw.mp4	0.0	302.3369879722595	1.0085201263427734
66	283.3424644470215	pulse	0	t		64.0	2.5	/experiments/Knapen_AOT/AOT_stimuli/rescaled_final/1549_fw.mp4	0.0	303.32063364982605	
66	283.36733889579773	movie	1		280	64.0	2.5	/experiments/Knapen_AOT/AOT_stimuli/rescaled_final/1549_fw.mp4	0.0	303.3455080986023	2.4919593334198
66	284.9413561820984	pulse	1	t		64.0	2.5	/experiments/Knapen_AOT/AOT_stimuli/rescaled_final/1549_fw.mp4	0.0	304.91952538490295	
66	285.85929822921753	fix_post	2		12	64.0	2.5	/experiments/Knapen_AOT/AOT_stimuli/rescaled_final/1549_fw.mp4	0.0	305.8374674320221	0.10002946853637695
67	285.9593276977539	fix_pre	0		120	65.0	2.5	/experiments/Knapen_AOT/AOT_stimuli/rescaled_final/0656_fw.mp4	0.0	305.9374969005585	1.0084948539733887
67	286.5430986881256	pulse	0	t		65.0	2.5	/experiments/Knapen_AOT/AOT_stimuli/rescaled_final/0656_fw.mp4	0.0	306.5212678909302	
67	286.9678225517273	movie	1		278	65.0	2.5	/experiments/Knapen_AOT/AOT_stimuli/rescaled_final/0656_fw.mp4	0.0	306.94599175453186	2.4920895099639893
67	288.14140224456787	pulse	1	t		65.0	2.5	/experiments/Knapen_AOT/AOT_stimuli/rescaled_final/0656_fw.mp4	0.0	308.11957144737244	
67	289.4599120616913	fix_post	2		12	65.0	2.5	/experiments/Knapen_AOT/AOT_stimuli/rescaled_final/0656_fw.mp4	0.0	309.43808126449585	0.09994101524353027
68	289.5598530769348	fix_pre	0		120	66.0	2.5	/experiments/Knapen_AOT/AOT_stimuli/rescaled_final/1274_rv.mp4	0.0	309.5380222797394	1.0085513591766357
68	289.7434763908386	pulse	0	t		66.0	2.5	/experiments/Knapen_AOT/AOT_stimuli/rescaled_final/1274_rv.mp4	0.0	309.7216455936432	
68	290.56840443611145	movie	1		279	66.0	2.5	/experiments/Knapen_AOT/AOT_stimuli/rescaled_final/1274_rv.mp4	0.0	310.546573638916	2.491973876953125
68	291.34148812294006	pulse	1	t		66.0	2.5	/experiments/Knapen_AOT/AOT_stimuli/rescaled_final/1274_rv.mp4	0.0	311.31965732574463	
68	292.94206833839417	pulse	1	t		66.0	2.5	/experiments/Knapen_AOT/AOT_stimuli/rescaled_final/1274_rv.mp4	0.0	312.92023754119873	
68	293.0603783130646	fix_post	2		11	66.0	2.5	/experiments/Knapen_AOT/AOT_stimuli/rescaled_final/1274_rv.mp4	0.0	313.03854751586914	0.10003924369812012
69	293.1604175567627	fix_pre	0		120	67.0	2.5	/experiments/Knapen_AOT/AOT_stimuli/rescaled_final/0770_fw.mp4	0.0	313.13858675956726	1.0084812641143799
69	294.1688988208771	movie	1		269	67.0	2.5	/experiments/Knapen_AOT/AOT_stimuli/rescaled_final/0770_fw.mp4	0.0	314.14706802368164	2.492029905319214
69	294.54294896125793	pulse	1	t		67.0	2.5	/experiments/Knapen_AOT/AOT_stimuli/rescaled_final/0770_fw.mp4	0.0	314.5211181640625	
69	296.13675475120544	pulse	1	t		67.0	2.5	/experiments/Knapen_AOT/AOT_stimuli/rescaled_final/0770_fw.mp4	0.0	316.11492395401	
69	296.6609287261963	fix_post	2		11	67.0	2.5	/experiments/Knapen_AOT/AOT_stimuli/rescaled_final/0770_fw.mp4	0.0	316.63909792900085	0.10001826286315918
70	296.76094698905945	fix_pre	0		118	68.0	2.5	blank	1.0	316.739116191864	0.9834084510803223
70	297.7364492416382	pulse	0	t		68.0	2.5	blank	1.0	317.71461844444275	
70	297.74435544013977	movie	1		301	68.0	2.5	blank	1.0	317.72252464294434	2.5087738037109375
70	299.3365259170532	pulse	1	t		68.0	2.5	blank	1.0	319.3146951198578	
70	300.2531292438507	fix_post	2		12	68.0	2.5	blank	1.0	320.2312984466553	0.10001492500305176
71	300.35314416885376	fix_pre	0		120	69.0	2.5	/experiments/Knapen_AOT/AOT_stimuli/rescaled_final/1499_rv.mp4	0.0	320.3313133716583	1.008504867553711
71	300.9369144439697	pulse	0	t		69.0	2.5	/experiments/Knapen_AOT/AOT_stimuli/rescaled_final/1499_rv.mp4	0.0	320.9150836467743	
71	301.36164903640747	movie	1		286	69.0	2.5	/experiments/Knapen_AOT/AOT_stimuli/rescaled_final/1499_rv.mp4	0.0	321.33981823921204	2.492030620574951
71	302.5370202064514	pulse	1	t		69.0	2.5	/experiments/Knapen_AOT/AOT_stimuli/rescaled_final/1499_rv.mp4	0.0	322.515189409256	
71	303.8536796569824	fix_post	2		12	69.0	2.5	/experiments/Knapen_AOT/AOT_stimuli/rescaled_final/1499_rv.mp4	0.0	323.831848859787	0.10002923011779785
72	303.9537088871002	fix_pre	0		120	70.0	2.5	/experiments/Knapen_AOT/AOT_stimuli/rescaled_final/0374_fw.mp4	0.0	323.9318780899048	1.0084803104400635
72	304.1373221874237	pulse	0	t		70.0	2.5	/experiments/Knapen_AOT/AOT_stimuli/rescaled_final/0374_fw.mp4	0.0	324.11549139022827	
72	304.9621891975403	movie	1		259	70.0	2.5	/experiments/Knapen_AOT/AOT_stimuli/rescaled_final/0374_fw.mp4	0.0	324.94035840034485	2.49212908744812
72	305.73798727989197	pulse	1	t		70.0	2.5	/experiments/Knapen_AOT/AOT_stimuli/rescaled_final/0374_fw.mp4	0.0	325.71615648269653	
72	307.3373968601227	pulse	1	t		70.0	2.5	/experiments/Knapen_AOT/AOT_stimuli/rescaled_final/0374_fw.mp4	0.0	327.31556606292725	
72	307.4543182849884	fix_post	2		12	70.0	2.5	/experiments/Knapen_AOT/AOT_stimuli/rescaled_final/0374_fw.mp4	0.0	327.43248748779297	0.09992194175720215
73	307.5542402267456	fix_pre	0		120	71.0	2.5	/experiments/Knapen_AOT/AOT_stimuli/rescaled_final/1859_fw.mp4	0.0	327.53240942955017	1.008554458618164
73	308.56279468536377	movie	1		272	71.0	2.5	/experiments/Knapen_AOT/AOT_stimuli/rescaled_final/1859_fw.mp4	0.0	328.54096388816833	2.4919533729553223
73	308.93811678886414	pulse	1	t		71.0	2.5	/experiments/Knapen_AOT/AOT_stimuli/rescaled_final/1859_fw.mp4	0.0	328.9162859916687	
73	310.5386245250702	pulse	1	t		71.0	2.5	/experiments/Knapen_AOT/AOT_stimuli/rescaled_final/1859_fw.mp4	0.0	330.51679372787476	
73	311.0547480583191	fix_post	2		12	71.0	2.5	/experiments/Knapen_AOT/AOT_stimuli/rescaled_final/1859_fw.mp4	0.0	331.03291726112366	0.09999442100524902
74	311.15474247932434	fix_pre	0		119	72.0	2.5	/experiments/Knapen_AOT/AOT_stimuli/rescaled_final/0099_fw.mp4	0.0	331.1329116821289	1.0085759162902832
74	312.1384975910187	pulse	0	t		72.0	2.5	/experiments/Knapen_AOT/AOT_stimuli/rescaled_final/0099_fw.mp4	0.0	332.11666679382324	
74	312.1633183956146	movie	1		275	72.0	2.5	/experiments/Knapen_AOT/AOT_stimuli/rescaled_final/0099_fw.mp4	0.0	332.1414875984192	2.4920499324798584
74	313.7387888431549	pulse	1	t		72.0	2.5	/experiments/Knapen_AOT/AOT_stimuli/rescaled_final/0099_fw.mp4	0.0	333.7169580459595	
74	314.6553683280945	fix_post	2		12	72.0	2.5	/experiments/Knapen_AOT/AOT_stimuli/rescaled_final/0099_fw.mp4	0.0	334.63353753089905	0.09995055198669434
75	314.7553188800812	fix_pre	0		120	73.0	2.5	/experiments/Knapen_AOT/AOT_stimuli/rescaled_final/0913_fw.mp4	0.0	334.73348808288574	1.0084798336029053
75	315.33908343315125	pulse	0	t		73.0	2.5	/experiments/Knapen_AOT/AOT_stimuli/rescaled_final/0913_fw.mp4	0.0	335.3172526359558	
75	315.7637987136841	movie	1		269	73.0	2.5	/experiments/Knapen_AOT/AOT_stimuli/rescaled_final/0913_fw.mp4	0.0	335.74196791648865	2.492058038711548
75	316.9389066696167	pulse	1	t		73.0	2.5	/experiments/Knapen_AOT/AOT_stimuli/rescaled_final/0913_fw.mp4	0.0	336.91707587242126	
75	318.25585675239563	fix_post	2		12	73.0	2.5	/experiments/Knapen_AOT/AOT_stimuli/rescaled_final/0913_fw.mp4	0.0	338.2340259552002	0.1000823974609375
76	318.35593914985657	fix_pre	0		120	74.0	2.5	/experiments/Knapen_AOT/AOT_stimuli/rescaled_final/0853_rv.mp4	0.0	338.33410835266113	1.008512258529663
76	318.5394160747528	pulse	0	t		74.0	2.5	/experiments/Knapen_AOT/AOT_stimuli/rescaled_final/0853_rv.mp4	0.0	338.5175852775574	
76	319.36445140838623	movie	1		275	74.0	2.5	/experiments/Knapen_AOT/AOT_stimuli/rescaled_final/0853_rv.mp4	0.0	339.3426206111908	2.4919705390930176
76	320.13782262802124	pulse	1	t		74.0	2.5	/experiments/Knapen_AOT/AOT_stimuli/rescaled_final/0853_rv.mp4	0.0	340.1159918308258	
76	321.7385447025299	pulse	1	t		74.0	2.5	/experiments/Knapen_AOT/AOT_stimuli/rescaled_final/0853_rv.mp4	0.0	341.7167139053345	
76	321.85642194747925	fix_post	2		12	74.0	2.5	/experiments/Knapen_AOT/AOT_stimuli/rescaled_final/0853_rv.mp4	0.0	341.8345911502838	0.10000157356262207
77	321.95642352104187	fix_pre	0		120	75.0	2.5	blank	1.0	341.93459272384644	1.0000932216644287
77	322.9565167427063	movie	1		300	75.0	2.5	blank	1.0	342.93468594551086	2.500415086746216
77	323.34018993377686	pulse	1	t		75.0	2.5	blank	1.0	343.3183591365814	
77	324.94050121307373	pulse	1	t		75.0	2.5	blank	1.0	344.9186704158783	
77	325.4569318294525	fix_post	2		12	75.0	2.5	blank	1.0	345.4351010322571	0.10001850128173828
78	325.55695033073425	fix_pre	0		119	76.0	2.5	/experiments/Knapen_AOT/AOT_stimuli/rescaled_final/1447_rv.mp4	0.0	345.5351195335388	1.0002083778381348
78	326.54062247276306	pulse	0	t		76.0	2.5	/experiments/Knapen_AOT/AOT_stimuli/rescaled_final/1447_rv.mp4	0.0	346.5187916755676	
78	326.5571587085724	movie	1		269	76.0	2.5	/experiments/Knapen_AOT/AOT_stimuli/rescaled_final/1447_rv.mp4	0.0	346.53532791137695	2.5003013610839844
78	328.13985776901245	pulse	1	t		76.0	2.5	/experiments/Knapen_AOT/AOT_stimuli/rescaled_final/1447_rv.mp4	0.0	348.118026971817	
78	329.0574600696564	fix_post	2		12	76.0	2.5	/experiments/Knapen_AOT/AOT_stimuli/rescaled_final/1447_rv.mp4	0.0	349.03562927246094	0.10001993179321289
79	329.1574800014496	fix_pre	0		120	77.0	2.5	/experiments/Knapen_AOT/AOT_stimuli/rescaled_final/1263_rv.mp4	0.0	349.13564920425415	1.0085060596466064
79	329.7411766052246	pulse	0	t		77.0	2.5	/experiments/Knapen_AOT/AOT_stimuli/rescaled_final/1263_rv.mp4	0.0	349.7193458080292	
79	330.1659860610962	movie	1		268	77.0	2.5	/experiments/Knapen_AOT/AOT_stimuli/rescaled_final/1263_rv.mp4	0.0	350.14415526390076	2.4921658039093018
79	331.3400275707245	pulse	1	t		77.0	2.5	/experiments/Knapen_AOT/AOT_stimuli/rescaled_final/1263_rv.mp4	0.0	351.31819677352905	
79	332.6581518650055	fix_post	2		12	77.0	2.5	/experiments/Knapen_AOT/AOT_stimuli/rescaled_final/1263_rv.mp4	0.0	352.63632106781006	0.0998849868774414
80	332.75803685188293	fix_pre	0		120	78.0	2.5	/experiments/Knapen_AOT/AOT_stimuli/rescaled_final/1614_rv.mp4	0.0	352.7362060546875	1.0084865093231201
80	332.9416284561157	pulse	0	t		78.0	2.5	/experiments/Knapen_AOT/AOT_stimuli/rescaled_final/1614_rv.mp4	0.0	352.9197976589203	
80	333.76652336120605	movie	1		270	78.0	2.5	/experiments/Knapen_AOT/AOT_stimuli/rescaled_final/1614_rv.mp4	0.0	353.7446925640106	2.492006540298462
80	334.5399880409241	pulse	1	t		78.0	2.5	/experiments/Knapen_AOT/AOT_stimuli/rescaled_final/1614_rv.mp4	0.0	354.51815724372864	
80	336.1403863430023	pulse	1	t		78.0	2.5	/experiments/Knapen_AOT/AOT_stimuli/rescaled_final/1614_rv.mp4	0.0	356.1185555458069	
80	336.2585299015045	fix_post	2		12	78.0	2.5	/experiments/Knapen_AOT/AOT_stimuli/rescaled_final/1614_rv.mp4	0.0	356.2366991043091	0.10006070137023926
81	336.35859060287476	fix_pre	0		120	79.0	2.5	/experiments/Knapen_AOT/AOT_stimuli/rescaled_final/0611_fw.mp4	0.0	356.3367598056793	1.008538007736206
81	337.36712861061096	movie	1		285	79.0	2.5	/experiments/Knapen_AOT/AOT_stimuli/rescaled_final/0611_fw.mp4	0.0	357.3452978134155	2.4919612407684326
81	337.7414195537567	pulse	1	t		79.0	2.5	/experiments/Knapen_AOT/AOT_stimuli/rescaled_final/0611_fw.mp4	0.0	357.7195887565613	
81	339.34411096572876	pulse	1	t		79.0	2.5	/experiments/Knapen_AOT/AOT_stimuli/rescaled_final/0611_fw.mp4	0.0	359.3222801685333	
81	339.8590898513794	fix_post	2		12	79.0	2.5	/experiments/Knapen_AOT/AOT_stimuli/rescaled_final/0611_fw.mp4	0.0	359.83725905418396	0.10002946853637695
82	339.95911931991577	fix_pre	0		119	80.0	2.5	/experiments/Knapen_AOT/AOT_stimuli/rescaled_final/0581_fw.mp4	0.0	359.93728852272034	1.0002214908599854
82	340.93622493743896	pulse	0	t		80.0	2.5	/experiments/Knapen_AOT/AOT_stimuli/rescaled_final/0581_fw.mp4	0.0	360.91439414024353	
82	340.95934081077576	movie	1		275	80.0	2.5	/experiments/Knapen_AOT/AOT_stimuli/rescaled_final/0581_fw.mp4	0.0	360.9375100135803	2.5002894401550293
82	342.54248547554016	pulse	1	t		80.0	2.5	/experiments/Knapen_AOT/AOT_stimuli/rescaled_final/0581_fw.mp4	0.0	362.5206546783447	
82	343.4596302509308	fix_post	2		12	80.0	2.5	/experiments/Knapen_AOT/AOT_stimuli/rescaled_final/0581_fw.mp4	0.0	363.43779945373535	0.10001730918884277
83	343.55964756011963	fix_pre	0		120	81.0	2.5	/experiments/Knapen_AOT/AOT_stimuli/rescaled_final/2117_fw.mp4	0.0	363.5378167629242	1.0084927082061768
83	344.1433799266815	pulse	0	t		81.0	2.5	/experiments/Knapen_AOT/AOT_stimuli/rescaled_final/2117_fw.mp4	0.0	364.1215491294861	
83	344.5681402683258	movie	1		271	81.0	2.5	/experiments/Knapen_AOT/AOT_stimuli/rescaled_final/2117_fw.mp4	0.0	364.54630947113037	2.492025375366211
83	345.7419607639313	pulse	1	t		81.0	2.5	/experiments/Knapen_AOT/AOT_stimuli/rescaled_final/2117_fw.mp4	0.0	365.72012996673584	
83	347.060165643692	fix_post	2		12	81.0	2.5	/experiments/Knapen_AOT/AOT_stimuli/rescaled_final/2117_fw.mp4	0.0	367.0383348464966	0.10002803802490234
84	347.1601936817169	fix_pre	0		120	82.0	2.5	blank	1.0	367.1383628845215	1.0001702308654785
84	347.3363878726959	pulse	0	t		82.0	2.5	blank	1.0	367.3145570755005	
84	348.1603639125824	movie	1		300	82.0	2.5	blank	1.0	368.13853311538696	2.5003368854522705
84	348.9361662864685	pulse	1	t		82.0	2.5	blank	1.0	368.91433548927307	
84	350.536119222641	pulse	1	t		82.0	2.5	blank	1.0	370.51428842544556	
84	350.66070079803467	fix_post	2		12	82.0	2.5	blank	1.0	370.63887000083923	0.10001230239868164
85	350.76071310043335	fix_pre	0		120	83.0	2.5	/experiments/Knapen_AOT/AOT_stimuli/rescaled_final/2108_fw.mp4	0.0	370.7388823032379	1.0086071491241455
85	351.7693202495575	movie	1		269	83.0	2.5	/experiments/Knapen_AOT/AOT_stimuli/rescaled_final/2108_fw.mp4	0.0	371.74748945236206	2.4919521808624268
85	352.1361651420593	pulse	1	t		83.0	2.5	/experiments/Knapen_AOT/AOT_stimuli/rescaled_final/2108_fw.mp4	0.0	372.1143343448639	
85	353.7364356517792	pulse	1	t		83.0	2.5	/experiments/Knapen_AOT/AOT_stimuli/rescaled_final/2108_fw.mp4	0.0	373.71460485458374	
85	354.2612724304199	fix_post	2		12	83.0	2.5	/experiments/Knapen_AOT/AOT_stimuli/rescaled_final/2108_fw.mp4	0.0	374.2394416332245	0.10008978843688965
87	354.3613622188568	stim	0		1716					374.3395314216614	14.302049160003662
87	355.33656644821167	pulse	0	t						375.31473565101624	
87	356.936945438385	pulse	0	t						376.9151146411896	
87	358.5372588634491	pulse	0	t						378.51542806625366	
87	360.1373703479767	pulse	0	t						380.11553955078125	
87	361.73767590522766	pulse	0	t						381.7158451080322	
87	363.33803248405457	pulse	0	t						383.31620168685913	
87	364.93809151649475	pulse	0	t						384.9162607192993	
87	366.53840613365173	pulse	0	t						386.5165753364563	
87	368.13867831230164	pulse	0	t						388.1168475151062	
