trial_nr	onset	event_type	phase	response	nr_frames	movie_index	movie_duration	movie_file	blank	onset_abs	duration
0	0.15844106674194336	stim	0		40					22.08205795288086	0.3332479000091553
0	0.48406004905700684	response	0	space						22.407676935195923	
1	0.49168896675109863	stim	0		1096					22.415305852890015	9.133300065994263
1	9.620954990386963	pulse	0	t						31.54457187652588	
1	9.624989032745361	stim	1		1717					31.548605918884277	14.308697938919067
1	11.216840982437134	pulse	1	t						33.14045786857605	
1	12.816847085952759	pulse	1	t						34.740463972091675	
1	14.41684603691101	pulse	1	t						36.34046292304993	
1	16.017475128173828	pulse	1	t						37.941092014312744	
1	17.617303133010864	pulse	1	t						39.54092001914978	
1	19.21677303314209	pulse	1	t						41.140389919281006	
1	20.816756010055542	pulse	1	t						42.74037289619446	
1	22.41632604598999	pulse	1	t						44.339942932128906	
2	23.93368697166443	fix_pre	0		11	0.0	2.5	/experiments/AOT/AOT_stimuli/rescaled_final/1479_rv.mp4	0.0	45.857303857803345	0.09167599678039551
2	24.01717495918274	pulse	0	t		0.0	2.5	/experiments/AOT/AOT_stimuli/rescaled_final/1479_rv.mp4	0.0	45.940791845321655	
2	24.025362968444824	movie	1		241	0.0	2.5	/experiments/AOT/AOT_stimuli/rescaled_final/1479_rv.mp4	0.0	45.94897985458374	2.508272171020508
2	25.616887092590332	pulse	1	t		0.0	2.5	/experiments/AOT/AOT_stimuli/rescaled_final/1479_rv.mp4	0.0	47.54050397872925	
2	26.533635139465332	fix_post	2		12	0.0	2.5	/experiments/AOT/AOT_stimuli/rescaled_final/1479_rv.mp4	0.0	48.45725202560425	0.10006093978881836
3	26.63369607925415	fix_pre	0		120	1.0	2.5	/experiments/AOT/AOT_stimuli/rescaled_final/0215_fw.mp4	0.0	48.557312965393066	0.9999949932098389
3	27.216848134994507	pulse	0	t		1.0	2.5	/experiments/AOT/AOT_stimuli/rescaled_final/0215_fw.mp4	0.0	49.14046502113342	
3	27.63369107246399	movie	1		242	1.0	2.5	/experiments/AOT/AOT_stimuli/rescaled_final/0215_fw.mp4	0.0	49.557307958602905	2.4999899864196777
3	28.817259073257446	pulse	1	t		1.0	2.5	/experiments/AOT/AOT_stimuli/rescaled_final/0215_fw.mp4	0.0	50.74087595939636	
3	30.133681058883667	fix_post	2		12	1.0	2.5	/experiments/AOT/AOT_stimuli/rescaled_final/0215_fw.mp4	0.0	52.05729794502258	0.09996604919433594
4	30.233647108078003	fix_pre	0		120	2.0	2.5	/experiments/AOT/AOT_stimuli/rescaled_final/1543_rv.mp4	0.0	52.15726399421692	0.999985933303833
4	30.41663908958435	pulse	0	t		2.0	2.5	/experiments/AOT/AOT_stimuli/rescaled_final/1543_rv.mp4	0.0	52.34025597572327	
4	31.233633041381836	movie	1		243	2.0	2.5	/experiments/AOT/AOT_stimuli/rescaled_final/1543_rv.mp4	0.0	53.15724992752075	2.500009059906006
4	32.01669001579285	pulse	1	t		2.0	2.5	/experiments/AOT/AOT_stimuli/rescaled_final/1543_rv.mp4	0.0	53.94030690193176	
4	33.615926027297974	pulse	1	t		2.0	2.5	/experiments/AOT/AOT_stimuli/rescaled_final/1543_rv.mp4	0.0	55.53954291343689	
4	33.73364210128784	fix_post	2		12	2.0	2.5	/experiments/AOT/AOT_stimuli/rescaled_final/1543_rv.mp4	0.0	55.65725898742676	0.1000509262084961
5	33.83369302749634	fix_pre	0		120	3.0	2.5	/experiments/AOT/AOT_stimuli/rescaled_final/1562_fw.mp4	0.0	55.757309913635254	0.9997150897979736
5	34.83340811729431	movie	1		243	3.0	2.5	/experiments/AOT/AOT_stimuli/rescaled_final/1562_fw.mp4	0.0	56.75702500343323	2.500239849090576
5	35.216379165649414	pulse	1	t		3.0	2.5	/experiments/AOT/AOT_stimuli/rescaled_final/1562_fw.mp4	0.0	57.13999605178833	
5	36.817223072052	pulse	1	t		3.0	2.5	/experiments/AOT/AOT_stimuli/rescaled_final/1562_fw.mp4	0.0	58.74083995819092	
5	37.33364796638489	fix_post	2		12	3.0	2.5	/experiments/AOT/AOT_stimuli/rescaled_final/1562_fw.mp4	0.0	59.257264852523804	0.10001707077026367
6	37.43366503715515	fix_pre	0		119	4.0	2.5	/experiments/AOT/AOT_stimuli/rescaled_final/0549_rv.mp4	0.0	59.35728192329407	0.9911179542541504
6	38.41712498664856	pulse	0	t		4.0	2.5	/experiments/AOT/AOT_stimuli/rescaled_final/0549_rv.mp4	0.0	60.340741872787476	
6	38.4247829914093	movie	1		244	4.0	2.5	/experiments/AOT/AOT_stimuli/rescaled_final/0549_rv.mp4	0.0	60.34839987754822	2.5088419914245605
6	40.01747798919678	pulse	1	t		4.0	2.5	/experiments/AOT/AOT_stimuli/rescaled_final/0549_rv.mp4	0.0	61.94109487533569	
6	40.93362498283386	fix_post	2		12	4.0	2.5	/experiments/AOT/AOT_stimuli/rescaled_final/0549_rv.mp4	0.0	62.85724186897278	0.10002899169921875
7	41.03365397453308	fix_pre	0		120	5.0	2.5	/experiments/AOT/AOT_stimuli/rescaled_final/0019_fw.mp4	0.0	62.957270860672	0.9996151924133301
7	41.61672806739807	pulse	0	t		5.0	2.5	/experiments/AOT/AOT_stimuli/rescaled_final/0019_fw.mp4	0.0	63.54034495353699	
7	42.03326916694641	movie	1		244	5.0	2.5	/experiments/AOT/AOT_stimuli/rescaled_final/0019_fw.mp4	0.0	63.95688605308533	2.5002498626708984
7	43.21636414527893	pulse	1	t		5.0	2.5	/experiments/AOT/AOT_stimuli/rescaled_final/0019_fw.mp4	0.0	65.13998103141785	
7	44.53351902961731	fix_post	2		12	5.0	2.5	/experiments/AOT/AOT_stimuli/rescaled_final/0019_fw.mp4	0.0	66.45713591575623	0.0996091365814209
8	44.63312816619873	fix_pre	0		120	6.0	2.5	/experiments/AOT/AOT_stimuli/rescaled_final/1825_fw.mp4	0.0	66.55674505233765	0.9999868869781494
8	44.81708908081055	pulse	0	t		6.0	2.5	/experiments/AOT/AOT_stimuli/rescaled_final/1825_fw.mp4	0.0	66.74070596694946	
8	45.63311505317688	movie	1		243	6.0	2.5	/experiments/AOT/AOT_stimuli/rescaled_final/1825_fw.mp4	0.0	67.5567319393158	2.50018310546875
8	46.4166100025177	pulse	1	t		6.0	2.5	/experiments/AOT/AOT_stimuli/rescaled_final/1825_fw.mp4	0.0	68.34022688865662	
8	48.01514196395874	pulse	1	t		6.0	2.5	/experiments/AOT/AOT_stimuli/rescaled_final/1825_fw.mp4	0.0	69.93875885009766	
8	48.13329815864563	fix_post	2		12	6.0	2.5	/experiments/AOT/AOT_stimuli/rescaled_final/1825_fw.mp4	0.0	70.05691504478455	0.1002039909362793
9	48.23350214958191	fix_pre	0		120	7.0	2.5	blank	1.0	70.15711903572083	0.9996190071105957
9	49.233121156692505	movie	1		300	7.0	2.5	blank	1.0	71.15673804283142	2.4999818801879883
9	49.61703300476074	pulse	1	t		7.0	2.5	blank	1.0	71.54064989089966	
9	51.21653413772583	pulse	1	t		7.0	2.5	blank	1.0	73.14015102386475	
9	51.73310303688049	fix_post	2		12	7.0	2.5	blank	1.0	73.65671992301941	0.1000361442565918
10	51.833139181137085	fix_pre	0		117	8.0	2.5	/experiments/AOT/AOT_stimuli/rescaled_final/0232_fw.mp4	0.0	73.756756067276	0.9917199611663818
10	52.81703996658325	pulse	0	t		8.0	2.5	/experiments/AOT/AOT_stimuli/rescaled_final/0232_fw.mp4	0.0	74.74065685272217	
10	52.82485914230347	movie	1		243	8.0	2.5	/experiments/AOT/AOT_stimuli/rescaled_final/0232_fw.mp4	0.0	74.74847602844238	2.508253812789917
10	54.41727113723755	pulse	1	t		8.0	2.5	/experiments/AOT/AOT_stimuli/rescaled_final/0232_fw.mp4	0.0	76.34088802337646	
10	55.333112955093384	fix_post	2		12	8.0	2.5	/experiments/AOT/AOT_stimuli/rescaled_final/0232_fw.mp4	0.0	77.2567298412323	0.10041117668151855
11	55.4335241317749	fix_pre	0		120	9.0	2.5	/experiments/AOT/AOT_stimuli/rescaled_final/1816_fw.mp4	0.0	77.35714101791382	0.9995670318603516
11	56.015676975250244	pulse	0	t		9.0	2.5	/experiments/AOT/AOT_stimuli/rescaled_final/1816_fw.mp4	0.0	77.93929386138916	
11	56.433091163635254	movie	1		243	9.0	2.5	/experiments/AOT/AOT_stimuli/rescaled_final/1816_fw.mp4	0.0	78.35670804977417	2.500002861022949
11	57.61666297912598	pulse	1	t		9.0	2.5	/experiments/AOT/AOT_stimuli/rescaled_final/1816_fw.mp4	0.0	79.54027986526489	
11	58.9330940246582	fix_post	2		12	9.0	2.5	/experiments/AOT/AOT_stimuli/rescaled_final/1816_fw.mp4	0.0	80.85671091079712	0.10006904602050781
12	59.03316307067871	fix_pre	0		120	10.0	2.5	/experiments/AOT/AOT_stimuli/rescaled_final/0325_fw.mp4	0.0	80.95677995681763	1.00028395652771
12	59.216532945632935	pulse	0	t		10.0	2.5	/experiments/AOT/AOT_stimuli/rescaled_final/0325_fw.mp4	0.0	81.14014983177185	
12	60.03344702720642	movie	1		242	10.0	2.5	/experiments/AOT/AOT_stimuli/rescaled_final/0325_fw.mp4	0.0	81.95706391334534	2.500067949295044
12	60.81663203239441	pulse	1	t		10.0	2.5	/experiments/AOT/AOT_stimuli/rescaled_final/0325_fw.mp4	0.0	82.74024891853333	
12	62.41541004180908	pulse	1	t		10.0	2.5	/experiments/AOT/AOT_stimuli/rescaled_final/0325_fw.mp4	0.0	84.339026927948	
12	62.533514976501465	fix_post	2		12	10.0	2.5	/experiments/AOT/AOT_stimuli/rescaled_final/0325_fw.mp4	0.0	84.45713186264038	0.10000801086425781
13	62.63352298736572	fix_pre	0		120	11.0	2.5	/experiments/AOT/AOT_stimuli/rescaled_final/1460_rv.mp4	0.0	84.55713987350464	1.0000271797180176
13	63.63355016708374	movie	1		244	11.0	2.5	/experiments/AOT/AOT_stimuli/rescaled_final/1460_rv.mp4	0.0	85.55716705322266	2.500123977661133
13	64.01742911338806	pulse	1	t		11.0	2.5	/experiments/AOT/AOT_stimuli/rescaled_final/1460_rv.mp4	0.0	85.94104599952698	
13	65.61650800704956	pulse	1	t		11.0	2.5	/experiments/AOT/AOT_stimuli/rescaled_final/1460_rv.mp4	0.0	87.54012489318848	
13	66.13367414474487	fix_post	2		12	11.0	2.5	/experiments/AOT/AOT_stimuli/rescaled_final/1460_rv.mp4	0.0	88.05729103088379	0.09932899475097656
14	66.23300313949585	fix_pre	0		119	12.0	2.5	blank	1.0	88.15662002563477	0.9921488761901855
14	67.21650004386902	pulse	0	t		12.0	2.5	blank	1.0	89.14011693000793	
14	67.22515201568604	movie	1		301	12.0	2.5	blank	1.0	89.14876890182495	2.507948160171509
14	68.81648206710815	pulse	1	t		12.0	2.5	blank	1.0	90.74009895324707	
14	69.73310017585754	fix_post	2		12	12.0	2.5	blank	1.0	91.65671706199646	0.09998798370361328
15	69.83308815956116	fix_pre	0		120	13.0	2.5	/experiments/AOT/AOT_stimuli/rescaled_final/1972_fw.mp4	0.0	91.75670504570007	1.0001108646392822
15	70.41711711883545	pulse	0	t		13.0	2.5	/experiments/AOT/AOT_stimuli/rescaled_final/1972_fw.mp4	0.0	92.34073400497437	
15	70.83319902420044	movie	1		245	13.0	2.5	/experiments/AOT/AOT_stimuli/rescaled_final/1972_fw.mp4	0.0	92.75681591033936	2.499936103820801
15	72.01064801216125	pulse	1	t		13.0	2.5	/experiments/AOT/AOT_stimuli/rescaled_final/1972_fw.mp4	0.0	93.93426489830017	
15	73.33313512802124	fix_post	2		12	13.0	2.5	/experiments/AOT/AOT_stimuli/rescaled_final/1972_fw.mp4	0.0	95.25675201416016	0.0999598503112793
16	73.43309497833252	fix_pre	0		120	14.0	2.5	/experiments/AOT/AOT_stimuli/rescaled_final/0911_fw.mp4	0.0	95.35671186447144	1.0003490447998047
16	73.61656212806702	pulse	0	t		14.0	2.5	/experiments/AOT/AOT_stimuli/rescaled_final/0911_fw.mp4	0.0	95.54017901420593	
16	74.43344402313232	movie	1		242	14.0	2.5	/experiments/AOT/AOT_stimuli/rescaled_final/0911_fw.mp4	0.0	96.35706090927124	2.4995479583740234
16	75.21648812294006	pulse	1	t		14.0	2.5	/experiments/AOT/AOT_stimuli/rescaled_final/0911_fw.mp4	0.0	97.14010500907898	
16	76.81513094902039	pulse	1	t		14.0	2.5	/experiments/AOT/AOT_stimuli/rescaled_final/0911_fw.mp4	0.0	98.7387478351593	
16	76.93299198150635	fix_post	2		12	14.0	2.5	/experiments/AOT/AOT_stimuli/rescaled_final/0911_fw.mp4	0.0	98.85660886764526	0.10034513473510742
17	77.03333711624146	fix_pre	0		120	15.0	2.5	/experiments/AOT/AOT_stimuli/rescaled_final/1963_rv.mp4	0.0	98.95695400238037	1.0001180171966553
17	78.03345513343811	movie	1		243	15.0	2.5	/experiments/AOT/AOT_stimuli/rescaled_final/1963_rv.mp4	0.0	99.95707201957703	2.4999449253082275
17	78.41765713691711	pulse	1	t		15.0	2.5	/experiments/AOT/AOT_stimuli/rescaled_final/1963_rv.mp4	0.0	100.34127402305603	
17	80.01663517951965	pulse	1	t		15.0	2.5	/experiments/AOT/AOT_stimuli/rescaled_final/1963_rv.mp4	0.0	101.94025206565857	
17	80.53340005874634	fix_post	2		12	15.0	2.5	/experiments/AOT/AOT_stimuli/rescaled_final/1963_rv.mp4	0.0	102.45701694488525	0.099700927734375
18	80.63310098648071	fix_pre	0		119	16.0	2.5	/experiments/AOT/AOT_stimuli/rescaled_final/2034_rv.mp4	0.0	102.55671787261963	0.9916660785675049
18	81.61655616760254	pulse	0	t		16.0	2.5	/experiments/AOT/AOT_stimuli/rescaled_final/2034_rv.mp4	0.0	103.54017305374146	
18	81.62476706504822	movie	1		245	16.0	2.5	/experiments/AOT/AOT_stimuli/rescaled_final/2034_rv.mp4	0.0	103.54838395118713	2.5089080333709717
18	83.2169840335846	pulse	1	t		16.0	2.5	/experiments/AOT/AOT_stimuli/rescaled_final/2034_rv.mp4	0.0	105.14060091972351	
18	84.13367509841919	fix_post	2		12	16.0	2.5	/experiments/AOT/AOT_stimuli/rescaled_final/2034_rv.mp4	0.0	106.0572919845581	0.09965300559997559
19	84.23332810401917	fix_pre	0		120	17.0	2.5	/experiments/AOT/AOT_stimuli/rescaled_final/0466_fw.mp4	0.0	106.15694499015808	1.0000219345092773
19	84.81689715385437	pulse	0	t		17.0	2.5	/experiments/AOT/AOT_stimuli/rescaled_final/0466_fw.mp4	0.0	106.74051403999329	
19	85.23335003852844	movie	1		243	17.0	2.5	/experiments/AOT/AOT_stimuli/rescaled_final/0466_fw.mp4	0.0	107.15696692466736	2.5000569820404053
19	86.41690301895142	pulse	1	t		17.0	2.5	/experiments/AOT/AOT_stimuli/rescaled_final/0466_fw.mp4	0.0	108.34051990509033	
19	87.73340702056885	fix_post	2		12	17.0	2.5	/experiments/AOT/AOT_stimuli/rescaled_final/0466_fw.mp4	0.0	109.65702390670776	0.1000521183013916
20	87.83345913887024	fix_pre	0		120	18.0	2.5	/experiments/AOT/AOT_stimuli/rescaled_final/0568_rv.mp4	0.0	109.75707602500916	0.9999759197235107
20	88.0169529914856	pulse	0	t		18.0	2.5	/experiments/AOT/AOT_stimuli/rescaled_final/0568_rv.mp4	0.0	109.94056987762451	
20	88.83343505859375	movie	1		243	18.0	2.5	/experiments/AOT/AOT_stimuli/rescaled_final/0568_rv.mp4	0.0	110.75705194473267	2.499882936477661
20	89.61643099784851	pulse	1	t		18.0	2.5	/experiments/AOT/AOT_stimuli/rescaled_final/0568_rv.mp4	0.0	111.54004788398743	
20	91.215017080307	pulse	1	t		18.0	2.5	/experiments/AOT/AOT_stimuli/rescaled_final/0568_rv.mp4	0.0	113.13863396644592	
20	91.33331799507141	fix_post	2		12	18.0	2.5	/experiments/AOT/AOT_stimuli/rescaled_final/0568_rv.mp4	0.0	113.25693488121033	0.10003209114074707
21	91.43335008621216	fix_pre	0		120	19.0	2.5	/experiments/AOT/AOT_stimuli/rescaled_final/2048_fw.mp4	0.0	113.35696697235107	0.9995970726013184
21	92.43294715881348	movie	1		242	19.0	2.5	/experiments/AOT/AOT_stimuli/rescaled_final/2048_fw.mp4	0.0	114.35656404495239	2.5003559589385986
21	92.81741714477539	pulse	1	t		19.0	2.5	/experiments/AOT/AOT_stimuli/rescaled_final/2048_fw.mp4	0.0	114.7410340309143	
21	94.41642498970032	pulse	1	t		19.0	2.5	/experiments/AOT/AOT_stimuli/rescaled_final/2048_fw.mp4	0.0	116.34004187583923	
21	94.93330311775208	fix_post	2		12	19.0	2.5	/experiments/AOT/AOT_stimuli/rescaled_final/2048_fw.mp4	0.0	116.85692000389099	0.10010600090026855
22	95.03340911865234	fix_pre	0		119	20.0	2.5	blank	1.0	116.95702600479126	0.9916319847106934
22	96.01682496070862	pulse	0	t		20.0	2.5	blank	1.0	117.94044184684753	
22	96.02504110336304	movie	1		301	20.0	2.5	blank	1.0	117.94865798950195	2.5083699226379395
22	97.61678409576416	pulse	1	t		20.0	2.5	blank	1.0	119.54040098190308	
22	98.53341102600098	fix_post	2		12	20.0	2.5	blank	1.0	120.45702791213989	0.09988999366760254
23	98.63330101966858	fix_pre	0		120	21.0	2.5	/experiments/AOT/AOT_stimuli/rescaled_final/1015_fw.mp4	0.0	120.5569179058075	0.9998829364776611
23	99.21674799919128	pulse	0	t		21.0	2.5	/experiments/AOT/AOT_stimuli/rescaled_final/1015_fw.mp4	0.0	121.1403648853302	
23	99.63318395614624	movie	1		243	21.0	2.5	/experiments/AOT/AOT_stimuli/rescaled_final/1015_fw.mp4	0.0	121.55680084228516	2.5001220703125
23	100.8168671131134	pulse	1	t		21.0	2.5	/experiments/AOT/AOT_stimuli/rescaled_final/1015_fw.mp4	0.0	122.74048399925232	
23	102.13330602645874	fix_post	2		12	21.0	2.5	/experiments/AOT/AOT_stimuli/rescaled_final/1015_fw.mp4	0.0	124.05692291259766	0.0997929573059082
24	102.23309898376465	fix_pre	0		120	22.0	2.5	/experiments/AOT/AOT_stimuli/rescaled_final/0867_fw.mp4	0.0	124.15671586990356	0.9998750686645508
24	102.41639995574951	pulse	0	t		22.0	2.5	/experiments/AOT/AOT_stimuli/rescaled_final/0867_fw.mp4	0.0	124.34001684188843	
24	103.2329740524292	movie	1		243	22.0	2.5	/experiments/AOT/AOT_stimuli/rescaled_final/0867_fw.mp4	0.0	125.15659093856812	2.499830961227417
24	104.0168821811676	pulse	1	t		22.0	2.5	/experiments/AOT/AOT_stimuli/rescaled_final/0867_fw.mp4	0.0	125.94049906730652	
24	105.61500406265259	pulse	1	t		22.0	2.5	/experiments/AOT/AOT_stimuli/rescaled_final/0867_fw.mp4	0.0	127.5386209487915	
24	105.73280501365662	fix_post	2		12	22.0	2.5	/experiments/AOT/AOT_stimuli/rescaled_final/0867_fw.mp4	0.0	127.65642189979553	0.10052108764648438
25	105.8333261013031	fix_pre	0		120	23.0	2.5	/experiments/AOT/AOT_stimuli/rescaled_final/0802_fw.mp4	0.0	127.75694298744202	0.9998769760131836
25	106.83320307731628	movie	1		244	23.0	2.5	/experiments/AOT/AOT_stimuli/rescaled_final/0802_fw.mp4	0.0	128.7568199634552	2.4987499713897705
25	107.2164740562439	pulse	1	t		23.0	2.5	/experiments/AOT/AOT_stimuli/rescaled_final/0802_fw.mp4	0.0	129.1400909423828	
25	108.81583094596863	pulse	1	t		23.0	2.5	/experiments/AOT/AOT_stimuli/rescaled_final/0802_fw.mp4	0.0	130.73944783210754	
25	109.33195304870605	fix_post	2		12	23.0	2.5	/experiments/AOT/AOT_stimuli/rescaled_final/0802_fw.mp4	0.0	131.25556993484497	0.10129308700561523
26	109.43324613571167	fix_pre	0		119	24.0	2.5	/experiments/AOT/AOT_stimuli/rescaled_final/0495_rv.mp4	0.0	131.3568630218506	0.9904789924621582
26	110.41543197631836	pulse	0	t		24.0	2.5	/experiments/AOT/AOT_stimuli/rescaled_final/0495_rv.mp4	0.0	132.33904886245728	
26	110.42372512817383	movie	1		247	24.0	2.5	/experiments/AOT/AOT_stimuli/rescaled_final/0495_rv.mp4	0.0	132.34734201431274	2.5082778930664062
26	112.01499605178833	pulse	1	t		24.0	2.5	/experiments/AOT/AOT_stimuli/rescaled_final/0495_rv.mp4	0.0	133.93861293792725	
26	112.93200302124023	fix_post	2		12	24.0	2.5	/experiments/AOT/AOT_stimuli/rescaled_final/0495_rv.mp4	0.0	134.85561990737915	0.09989094734191895
27	113.03189396858215	fix_pre	0		120	25.0	2.5	/experiments/AOT/AOT_stimuli/rescaled_final/0649_fw.mp4	0.0	134.95551085472107	1.0002360343933105
27	113.61546397209167	pulse	0	t		25.0	2.5	/experiments/AOT/AOT_stimuli/rescaled_final/0649_fw.mp4	0.0	135.5390808582306	
27	114.03213000297546	movie	1		243	25.0	2.5	/experiments/AOT/AOT_stimuli/rescaled_final/0649_fw.mp4	0.0	135.95574688911438	2.4998090267181396
27	115.21594405174255	pulse	1	t		25.0	2.5	/experiments/AOT/AOT_stimuli/rescaled_final/0649_fw.mp4	0.0	137.13956093788147	
27	116.5319390296936	fix_post	2		12	25.0	2.5	/experiments/AOT/AOT_stimuli/rescaled_final/0649_fw.mp4	0.0	138.45555591583252	0.09999513626098633
28	116.63193416595459	fix_pre	0		120	26.0	2.5	blank	1.0	138.5555510520935	0.9999599456787109
28	116.81581711769104	pulse	0	t		26.0	2.5	blank	1.0	138.73943400382996	
28	117.6318941116333	movie	1		300	26.0	2.5	blank	1.0	139.55551099777222	2.500058889389038
28	118.41580104827881	pulse	1	t		26.0	2.5	blank	1.0	140.33941793441772	
28	120.01571798324585	pulse	1	t		26.0	2.5	blank	1.0	141.93933486938477	
28	120.13195300102234	fix_post	2		12	26.0	2.5	blank	1.0	142.05556988716125	0.09991717338562012
29	120.23187017440796	fix_pre	0		120	27.0	2.5	/experiments/AOT/AOT_stimuli/rescaled_final/1472_rv.mp4	0.0	142.15548706054688	0.9999527931213379
29	121.2318229675293	movie	1		244	27.0	2.5	/experiments/AOT/AOT_stimuli/rescaled_final/1472_rv.mp4	0.0	143.1554398536682	2.4996302127838135
29	121.61521315574646	pulse	1	t		27.0	2.5	/experiments/AOT/AOT_stimuli/rescaled_final/1472_rv.mp4	0.0	143.53883004188538	
29	123.21590304374695	pulse	1	t		27.0	2.5	/experiments/AOT/AOT_stimuli/rescaled_final/1472_rv.mp4	0.0	145.13951992988586	
29	123.73145318031311	fix_post	2		12	27.0	2.5	/experiments/AOT/AOT_stimuli/rescaled_final/1472_rv.mp4	0.0	145.65507006645203	0.10043191909790039
30	123.83188509941101	fix_pre	0		119	28.0	2.5	/experiments/AOT/AOT_stimuli/rescaled_final/0183_fw.mp4	0.0	145.75550198554993	0.9917259216308594
30	124.81582617759705	pulse	0	t		28.0	2.5	/experiments/AOT/AOT_stimuli/rescaled_final/0183_fw.mp4	0.0	146.73944306373596	
30	124.82361102104187	movie	1		245	28.0	2.5	/experiments/AOT/AOT_stimuli/rescaled_final/0183_fw.mp4	0.0	146.7472279071808	2.509016990661621
30	126.41473913192749	pulse	1	t		28.0	2.5	/experiments/AOT/AOT_stimuli/rescaled_final/0183_fw.mp4	0.0	148.3383560180664	
30	127.33262801170349	fix_post	2		12	28.0	2.5	/experiments/AOT/AOT_stimuli/rescaled_final/0183_fw.mp4	0.0	149.2562448978424	0.09979414939880371
31	127.4324221611023	fix_pre	0		120	29.0	2.5	/experiments/AOT/AOT_stimuli/rescaled_final/1171_rv.mp4	0.0	149.3560390472412	1.0001637935638428
31	128.01603817939758	pulse	0	t		29.0	2.5	/experiments/AOT/AOT_stimuli/rescaled_final/1171_rv.mp4	0.0	149.9396550655365	
31	128.43258595466614	movie	1		244	29.0	2.5	/experiments/AOT/AOT_stimuli/rescaled_final/1171_rv.mp4	0.0	150.35620284080505	2.4996750354766846
31	129.6154489517212	pulse	1	t		29.0	2.5	/experiments/AOT/AOT_stimuli/rescaled_final/1171_rv.mp4	0.0	151.5390658378601	
31	130.93226099014282	fix_post	2		12	29.0	2.5	/experiments/AOT/AOT_stimuli/rescaled_final/1171_rv.mp4	0.0	152.85587787628174	0.10000205039978027
32	131.0322630405426	fix_pre	0		120	30.0	2.5	/experiments/AOT/AOT_stimuli/rescaled_final/0802_fw.mp4	0.0	152.95587992668152	0.999967098236084
32	131.21581196784973	pulse	0	t		30.0	2.5	/experiments/AOT/AOT_stimuli/rescaled_final/0802_fw.mp4	0.0	153.13942885398865	
32	132.0322301387787	movie	1		246	30.0	2.5	/experiments/AOT/AOT_stimuli/rescaled_final/0802_fw.mp4	0.0	153.9558470249176	2.499117851257324
32	132.81481313705444	pulse	1	t		30.0	2.5	/experiments/AOT/AOT_stimuli/rescaled_final/0802_fw.mp4	0.0	154.73843002319336	
32	134.41340613365173	pulse	1	t		30.0	2.5	/experiments/AOT/AOT_stimuli/rescaled_final/0802_fw.mp4	0.0	156.33702301979065	
32	134.531347990036	fix_post	2		12	30.0	2.5	/experiments/AOT/AOT_stimuli/rescaled_final/0802_fw.mp4	0.0	156.45496487617493	0.0999760627746582
33	134.63132405281067	fix_pre	0		120	31.0	2.5	/experiments/AOT/AOT_stimuli/rescaled_final/0049_fw.mp4	0.0	156.55494093894958	1.0
33	135.63132405281067	movie	1		245	31.0	2.5	/experiments/AOT/AOT_stimuli/rescaled_final/0049_fw.mp4	0.0	157.55494093894958	2.499985933303833
33	136.01493501663208	pulse	1	t		31.0	2.5	/experiments/AOT/AOT_stimuli/rescaled_final/0049_fw.mp4	0.0	157.938551902771	
33	137.61489510536194	pulse	1	t		31.0	2.5	/experiments/AOT/AOT_stimuli/rescaled_final/0049_fw.mp4	0.0	159.53851199150085	
33	138.1313099861145	fix_post	2		12	31.0	2.5	/experiments/AOT/AOT_stimuli/rescaled_final/0049_fw.mp4	0.0	160.05492687225342	0.10011005401611328
34	138.23142004013062	fix_pre	0		119	32.0	2.5	/experiments/AOT/AOT_stimuli/rescaled_final/0083_rv.mp4	0.0	160.15503692626953	0.9919750690460205
34	139.2147991657257	pulse	0	t		32.0	2.5	/experiments/AOT/AOT_stimuli/rescaled_final/0083_rv.mp4	0.0	161.13841605186462	
34	139.22339510917664	movie	1		246	32.0	2.5	/experiments/AOT/AOT_stimuli/rescaled_final/0083_rv.mp4	0.0	161.14701199531555	2.507936954498291
34	140.81445908546448	pulse	1	t		32.0	2.5	/experiments/AOT/AOT_stimuli/rescaled_final/0083_rv.mp4	0.0	162.7380759716034	
34	141.73133206367493	fix_post	2		12	32.0	2.5	/experiments/AOT/AOT_stimuli/rescaled_final/0083_rv.mp4	0.0	163.65494894981384	0.09993696212768555
35	141.8312690258026	fix_pre	0		120	33.0	2.5	blank	1.0	163.75488591194153	1.0000560283660889
35	142.41479110717773	pulse	0	t		33.0	2.5	blank	1.0	164.33840799331665	
35	142.8313250541687	movie	1		300	33.0	2.5	blank	1.0	164.75494194030762	2.4999520778656006
35	144.01469111442566	pulse	1	t		33.0	2.5	blank	1.0	165.93830800056458	
35	145.3312771320343	fix_post	2		12	33.0	2.5	blank	1.0	167.25489401817322	0.10004901885986328
36	145.43132615089417	fix_pre	0		120	34.0	2.5	/experiments/AOT/AOT_stimuli/rescaled_final/1022_rv.mp4	0.0	167.35494303703308	0.9999608993530273
36	145.61484098434448	pulse	0	t		34.0	2.5	/experiments/AOT/AOT_stimuli/rescaled_final/1022_rv.mp4	0.0	167.5384578704834	
36	146.4312870502472	movie	1		244	34.0	2.5	/experiments/AOT/AOT_stimuli/rescaled_final/1022_rv.mp4	0.0	168.3549039363861	2.5000100135803223
36	147.2147650718689	pulse	1	t		34.0	2.5	/experiments/AOT/AOT_stimuli/rescaled_final/1022_rv.mp4	0.0	169.1383819580078	
36	148.81348299980164	pulse	1	t		34.0	2.5	/experiments/AOT/AOT_stimuli/rescaled_final/1022_rv.mp4	0.0	170.73709988594055	
36	148.93129706382751	fix_post	2		12	34.0	2.5	/experiments/AOT/AOT_stimuli/rescaled_final/1022_rv.mp4	0.0	170.85491394996643	0.10084009170532227
37	149.03213715553284	fix_pre	0		120	35.0	2.5	/experiments/AOT/AOT_stimuli/rescaled_final/0395_rv.mp4	0.0	170.95575404167175	0.9991178512573242
37	150.03125500679016	movie	1		245	35.0	2.5	/experiments/AOT/AOT_stimuli/rescaled_final/0395_rv.mp4	0.0	171.95487189292908	2.5013740062713623
37	150.41514706611633	pulse	1	t		35.0	2.5	/experiments/AOT/AOT_stimuli/rescaled_final/0395_rv.mp4	0.0	172.33876395225525	
37	152.0161361694336	pulse	1	t		35.0	2.5	/experiments/AOT/AOT_stimuli/rescaled_final/0395_rv.mp4	0.0	173.9397530555725	
37	152.53262901306152	fix_post	2		11	35.0	2.5	/experiments/AOT/AOT_stimuli/rescaled_final/0395_rv.mp4	0.0	174.45624589920044	0.09207797050476074
38	152.62470698356628	fix_pre	0		120	36.0	2.5	/experiments/AOT/AOT_stimuli/rescaled_final/0585_rv.mp4	0.0	174.5483238697052	1.0000340938568115
38	153.61620616912842	pulse	0	t		36.0	2.5	/experiments/AOT/AOT_stimuli/rescaled_final/0585_rv.mp4	0.0	175.53982305526733	
38	153.6247410774231	movie	1		244	36.0	2.5	/experiments/AOT/AOT_stimuli/rescaled_final/0585_rv.mp4	0.0	175.548357963562	2.508286952972412
38	155.21572518348694	pulse	1	t		36.0	2.5	/experiments/AOT/AOT_stimuli/rescaled_final/0585_rv.mp4	0.0	177.13934206962585	
38	156.1330280303955	fix_post	2		12	36.0	2.5	/experiments/AOT/AOT_stimuli/rescaled_final/0585_rv.mp4	0.0	178.05664491653442	0.10003900527954102
39	156.23306703567505	fix_pre	0		120	37.0	2.5	/experiments/AOT/AOT_stimuli/rescaled_final/1923_rv.mp4	0.0	178.15668392181396	0.9995400905609131
39	156.8161289691925	pulse	0	t		37.0	2.5	/experiments/AOT/AOT_stimuli/rescaled_final/1923_rv.mp4	0.0	178.73974585533142	
39	157.23260712623596	movie	1		246	37.0	2.5	/experiments/AOT/AOT_stimuli/rescaled_final/1923_rv.mp4	0.0	179.15622401237488	2.5004498958587646
39	158.41656804084778	pulse	1	t		37.0	2.5	/experiments/AOT/AOT_stimuli/rescaled_final/1923_rv.mp4	0.0	180.3401849269867	
39	159.73305702209473	fix_post	2		12	37.0	2.5	/experiments/AOT/AOT_stimuli/rescaled_final/1923_rv.mp4	0.0	181.65667390823364	0.09897804260253906
40	159.83203506469727	fix_pre	0		120	38.0	2.5	/experiments/AOT/AOT_stimuli/rescaled_final/0529_rv.mp4	0.0	181.75565195083618	1.0008800029754639
40	160.0164279937744	pulse	0	t		38.0	2.5	/experiments/AOT/AOT_stimuli/rescaled_final/0529_rv.mp4	0.0	181.94004487991333	
40	160.83291506767273	movie	1		243	38.0	2.5	/experiments/AOT/AOT_stimuli/rescaled_final/0529_rv.mp4	0.0	182.75653195381165	2.5000479221343994
40	161.61603808403015	pulse	1	t		38.0	2.5	/experiments/AOT/AOT_stimuli/rescaled_final/0529_rv.mp4	0.0	183.53965497016907	
40	163.21550798416138	pulse	1	t		38.0	2.5	/experiments/AOT/AOT_stimuli/rescaled_final/0529_rv.mp4	0.0	185.1391248703003	
40	163.33296298980713	fix_post	2		12	38.0	2.5	/experiments/AOT/AOT_stimuli/rescaled_final/0529_rv.mp4	0.0	185.25657987594604	0.10012602806091309
41	163.43308901786804	fix_pre	0		120	39.0	2.5	/experiments/AOT/AOT_stimuli/rescaled_final/0328_fw.mp4	0.0	185.35670590400696	1.0000090599060059
41	164.43309807777405	movie	1		243	39.0	2.5	/experiments/AOT/AOT_stimuli/rescaled_final/0328_fw.mp4	0.0	186.35671496391296	2.499464988708496
41	164.81637811660767	pulse	1	t		39.0	2.5	/experiments/AOT/AOT_stimuli/rescaled_final/0328_fw.mp4	0.0	186.73999500274658	
41	166.41614603996277	pulse	1	t		39.0	2.5	/experiments/AOT/AOT_stimuli/rescaled_final/0328_fw.mp4	0.0	188.33976292610168	
41	166.93256306648254	fix_post	2		12	39.0	2.5	/experiments/AOT/AOT_stimuli/rescaled_final/0328_fw.mp4	0.0	188.85617995262146	0.10046505928039551
42	167.03302812576294	fix_pre	0		119	40.0	2.5	/experiments/AOT/AOT_stimuli/rescaled_final/1682_fw.mp4	0.0	188.95664501190186	0.9916839599609375
42	168.0165660381317	pulse	0	t		40.0	2.5	/experiments/AOT/AOT_stimuli/rescaled_final/1682_fw.mp4	0.0	189.94018292427063	
42	168.02471208572388	movie	1		244	40.0	2.5	/experiments/AOT/AOT_stimuli/rescaled_final/1682_fw.mp4	0.0	189.9483289718628	2.507873058319092
42	169.61589813232422	pulse	1	t		40.0	2.5	/experiments/AOT/AOT_stimuli/rescaled_final/1682_fw.mp4	0.0	191.53951501846313	
42	170.53258514404297	fix_post	2		12	40.0	2.5	/experiments/AOT/AOT_stimuli/rescaled_final/1682_fw.mp4	0.0	192.45620203018188	0.10042691230773926
43	170.6330120563507	fix_pre	0		120	41.0	2.5	/experiments/AOT/AOT_stimuli/rescaled_final/1199_rv.mp4	0.0	192.55662894248962	1.0000309944152832
43	171.21600914001465	pulse	0	t		41.0	2.5	/experiments/AOT/AOT_stimuli/rescaled_final/1199_rv.mp4	0.0	193.13962602615356	
43	171.633043050766	movie	1		244	41.0	2.5	/experiments/AOT/AOT_stimuli/rescaled_final/1199_rv.mp4	0.0	193.5566599369049	2.4998390674591064
43	172.81657314300537	pulse	1	t		41.0	2.5	/experiments/AOT/AOT_stimuli/rescaled_final/1199_rv.mp4	0.0	194.7401900291443	
43	174.1328821182251	fix_post	2		12	41.0	2.5	/experiments/AOT/AOT_stimuli/rescaled_final/1199_rv.mp4	0.0	196.056499004364	0.09968805313110352
44	174.2325701713562	fix_pre	0		120	42.0	2.5	blank	1.0	196.15618705749512	1.0003688335418701
44	174.41601300239563	pulse	0	t		42.0	2.5	blank	1.0	196.33962988853455	
44	175.23293900489807	movie	1		300	42.0	2.5	blank	1.0	197.156555891037	2.4996819496154785
44	176.01645803451538	pulse	1	t		42.0	2.5	blank	1.0	197.9400749206543	
44	177.61640310287476	pulse	1	t		42.0	2.5	blank	1.0	199.54001998901367	
44	177.73262095451355	fix_post	2		12	42.0	2.5	blank	1.0	199.65623784065247	0.09982109069824219
45	177.8324420452118	fix_pre	0		120	43.0	2.5	/experiments/AOT/AOT_stimuli/rescaled_final/1953_rv.mp4	0.0	199.7560589313507	1.0004770755767822
45	178.83291912078857	movie	1		242	43.0	2.5	/experiments/AOT/AOT_stimuli/rescaled_final/1953_rv.mp4	0.0	200.7565360069275	2.4996259212493896
45	179.21604800224304	pulse	1	t		43.0	2.5	/experiments/AOT/AOT_stimuli/rescaled_final/1953_rv.mp4	0.0	201.13966488838196	
45	180.81600499153137	pulse	1	t		43.0	2.5	/experiments/AOT/AOT_stimuli/rescaled_final/1953_rv.mp4	0.0	202.7396218776703	
45	181.33254504203796	fix_post	2		12	43.0	2.5	/experiments/AOT/AOT_stimuli/rescaled_final/1953_rv.mp4	0.0	203.25616192817688	0.10024213790893555
46	181.4327871799469	fix_pre	0		119	44.0	2.5	/experiments/AOT/AOT_stimuli/rescaled_final/0549_rv.mp4	0.0	203.35640406608582	0.9918608665466309
46	182.41631817817688	pulse	0	t		44.0	2.5	/experiments/AOT/AOT_stimuli/rescaled_final/0549_rv.mp4	0.0	204.3399350643158	
46	182.42464804649353	movie	1		244	44.0	2.5	/experiments/AOT/AOT_stimuli/rescaled_final/0549_rv.mp4	0.0	204.34826493263245	2.508194923400879
46	184.01622414588928	pulse	1	t		44.0	2.5	/experiments/AOT/AOT_stimuli/rescaled_final/0549_rv.mp4	0.0	205.9398410320282	
46	184.9328429698944	fix_post	2		12	44.0	2.5	/experiments/AOT/AOT_stimuli/rescaled_final/0549_rv.mp4	0.0	206.85645985603333	0.10005497932434082
47	185.03289794921875	fix_pre	0		120	45.0	2.5	/experiments/AOT/AOT_stimuli/rescaled_final/1229_fw.mp4	0.0	206.95651483535767	0.9995110034942627
47	185.61640405654907	pulse	0	t		45.0	2.5	/experiments/AOT/AOT_stimuli/rescaled_final/1229_fw.mp4	0.0	207.540020942688	
47	186.032408952713	movie	1		243	45.0	2.5	/experiments/AOT/AOT_stimuli/rescaled_final/1229_fw.mp4	0.0	207.95602583885193	2.5000321865081787
47	187.21648406982422	pulse	1	t		45.0	2.5	/experiments/AOT/AOT_stimuli/rescaled_final/1229_fw.mp4	0.0	209.14010095596313	
47	188.5324411392212	fix_post	2		12	45.0	2.5	/experiments/AOT/AOT_stimuli/rescaled_final/1229_fw.mp4	0.0	210.4560580253601	0.10038900375366211
48	188.63283014297485	fix_pre	0		120	46.0	2.5	/experiments/AOT/AOT_stimuli/rescaled_final/1273_rv.mp4	0.0	210.55644702911377	1.0000638961791992
48	188.8163161277771	pulse	0	t		46.0	2.5	/experiments/AOT/AOT_stimuli/rescaled_final/1273_rv.mp4	0.0	210.73993301391602	
48	189.63289403915405	movie	1		243	46.0	2.5	/experiments/AOT/AOT_stimuli/rescaled_final/1273_rv.mp4	0.0	211.55651092529297	2.499521017074585
48	190.41585111618042	pulse	1	t		46.0	2.5	/experiments/AOT/AOT_stimuli/rescaled_final/1273_rv.mp4	0.0	212.33946800231934	
48	192.01224899291992	pulse	1	t		46.0	2.5	/experiments/AOT/AOT_stimuli/rescaled_final/1273_rv.mp4	0.0	213.93586587905884	
48	192.13241505622864	fix_post	2		12	46.0	2.5	/experiments/AOT/AOT_stimuli/rescaled_final/1273_rv.mp4	0.0	214.05603194236755	0.10001802444458008
49	192.23243308067322	fix_pre	0		120	47.0	2.5	/experiments/AOT/AOT_stimuli/rescaled_final/0232_fw.mp4	0.0	214.15604996681213	1.0003008842468262
49	193.23273396492004	movie	1		242	47.0	2.5	/experiments/AOT/AOT_stimuli/rescaled_final/0232_fw.mp4	0.0	215.15635085105896	2.4995641708374023
49	193.6168830394745	pulse	1	t		47.0	2.5	/experiments/AOT/AOT_stimuli/rescaled_final/0232_fw.mp4	0.0	215.5404999256134	
49	195.21599411964417	pulse	1	t		47.0	2.5	/experiments/AOT/AOT_stimuli/rescaled_final/0232_fw.mp4	0.0	217.13961100578308	
49	195.73229813575745	fix_post	2		12	47.0	2.5	/experiments/AOT/AOT_stimuli/rescaled_final/0232_fw.mp4	0.0	217.65591502189636	0.10058999061584473
50	195.8328881263733	fix_pre	0		119	48.0	2.5	blank	1.0	217.7565050125122	0.9911320209503174
50	196.8159670829773	pulse	0	t		48.0	2.5	blank	1.0	218.7395839691162	
50	196.8240201473236	movie	1		301	48.0	2.5	blank	1.0	218.74763703346252	2.508711814880371
50	198.41602516174316	pulse	1	t		48.0	2.5	blank	1.0	220.33964204788208	
50	199.33273196220398	fix_post	2		12	48.0	2.5	blank	1.0	221.2563488483429	0.09962916374206543
51	199.43236112594604	fix_pre	0		120	49.0	2.5	/experiments/AOT/AOT_stimuli/rescaled_final/0978_rv.mp4	0.0	221.35597801208496	0.9999480247497559
51	200.01627397537231	pulse	0	t		49.0	2.5	/experiments/AOT/AOT_stimuli/rescaled_final/0978_rv.mp4	0.0	221.93989086151123	
51	200.4323091506958	movie	1		242	49.0	2.5	/experiments/AOT/AOT_stimuli/rescaled_final/0978_rv.mp4	0.0	222.35592603683472	2.500074863433838
51	201.61633610725403	pulse	1	t		49.0	2.5	/experiments/AOT/AOT_stimuli/rescaled_final/0978_rv.mp4	0.0	223.53995299339294	
51	202.93238401412964	fix_post	2		12	49.0	2.5	/experiments/AOT/AOT_stimuli/rescaled_final/0978_rv.mp4	0.0	224.85600090026855	0.10034894943237305
52	203.032732963562	fix_pre	0		120	50.0	2.5	/experiments/AOT/AOT_stimuli/rescaled_final/0604_fw.mp4	0.0	224.95634984970093	0.9999761581420898
52	203.21623706817627	pulse	0	t		50.0	2.5	/experiments/AOT/AOT_stimuli/rescaled_final/0604_fw.mp4	0.0	225.13985395431519	
52	204.0327091217041	movie	1		243	50.0	2.5	/experiments/AOT/AOT_stimuli/rescaled_final/0604_fw.mp4	0.0	225.95632600784302	2.499176025390625
52	204.81489396095276	pulse	1	t		50.0	2.5	/experiments/AOT/AOT_stimuli/rescaled_final/0604_fw.mp4	0.0	226.73851084709167	
52	206.4140009880066	pulse	1	t		50.0	2.5	/experiments/AOT/AOT_stimuli/rescaled_final/0604_fw.mp4	0.0	228.3376178741455	
52	206.53188514709473	fix_post	2		12	50.0	2.5	/experiments/AOT/AOT_stimuli/rescaled_final/0604_fw.mp4	0.0	228.45550203323364	0.09961080551147461
53	206.6314959526062	fix_pre	0		120	51.0	2.5	/experiments/AOT/AOT_stimuli/rescaled_final/0305_rv.mp4	0.0	228.55511283874512	1.0003900527954102
53	207.6318860054016	movie	1		242	51.0	2.5	/experiments/AOT/AOT_stimuli/rescaled_final/0305_rv.mp4	0.0	229.55550289154053	2.4995250701904297
53	208.01581001281738	pulse	1	t		51.0	2.5	/experiments/AOT/AOT_stimuli/rescaled_final/0305_rv.mp4	0.0	229.9394268989563	
53	209.61494612693787	pulse	1	t		51.0	2.5	/experiments/AOT/AOT_stimuli/rescaled_final/0305_rv.mp4	0.0	231.53856301307678	
53	210.13141107559204	fix_post	2		12	51.0	2.5	/experiments/AOT/AOT_stimuli/rescaled_final/0305_rv.mp4	0.0	232.05502796173096	0.10042810440063477
54	210.23183917999268	fix_pre	0		119	52.0	2.5	/experiments/AOT/AOT_stimuli/rescaled_final/0325_rv.mp4	0.0	232.1554560661316	0.9925658702850342
54	211.2153241634369	pulse	0	t		52.0	2.5	/experiments/AOT/AOT_stimuli/rescaled_final/0325_rv.mp4	0.0	233.1389410495758	
54	211.2244050502777	movie	1		244	52.0	2.5	/experiments/AOT/AOT_stimuli/rescaled_final/0325_rv.mp4	0.0	233.14802193641663	2.507045030593872
54	212.81511116027832	pulse	1	t		52.0	2.5	/experiments/AOT/AOT_stimuli/rescaled_final/0325_rv.mp4	0.0	234.73872804641724	
54	213.73145008087158	fix_post	2		12	52.0	2.5	/experiments/AOT/AOT_stimuli/rescaled_final/0325_rv.mp4	0.0	235.6550669670105	0.0999610424041748
55	213.83141112327576	fix_pre	0		120	53.0	2.5	/experiments/AOT/AOT_stimuli/rescaled_final/1634_fw.mp4	0.0	235.75502800941467	1.0003688335418701
55	214.41495203971863	pulse	0	t		53.0	2.5	/experiments/AOT/AOT_stimuli/rescaled_final/1634_fw.mp4	0.0	236.33856892585754	
55	214.83177995681763	movie	1		245	53.0	2.5	/experiments/AOT/AOT_stimuli/rescaled_final/1634_fw.mp4	0.0	236.75539684295654	2.4995992183685303
55	216.01437902450562	pulse	1	t		53.0	2.5	/experiments/AOT/AOT_stimuli/rescaled_final/1634_fw.mp4	0.0	237.93799591064453	
55	217.33137917518616	fix_post	2		12	53.0	2.5	/experiments/AOT/AOT_stimuli/rescaled_final/1634_fw.mp4	0.0	239.25499606132507	0.10052084922790527
56	217.43190002441406	fix_pre	0		120	54.0	2.5	/experiments/AOT/AOT_stimuli/rescaled_final/1935_rv.mp4	0.0	239.35551691055298	0.9995219707489014
56	217.61530709266663	pulse	0	t		54.0	2.5	/experiments/AOT/AOT_stimuli/rescaled_final/1935_rv.mp4	0.0	239.53892397880554	
56	218.43142199516296	movie	1		244	54.0	2.5	/experiments/AOT/AOT_stimuli/rescaled_final/1935_rv.mp4	0.0	240.35503888130188	2.4999899864196777
56	219.2148790359497	pulse	1	t		54.0	2.5	/experiments/AOT/AOT_stimuli/rescaled_final/1935_rv.mp4	0.0	241.13849592208862	
56	220.81128406524658	pulse	1	t		54.0	2.5	/experiments/AOT/AOT_stimuli/rescaled_final/1935_rv.mp4	0.0	242.7349009513855	
56	220.93141198158264	fix_post	2		12	54.0	2.5	/experiments/AOT/AOT_stimuli/rescaled_final/1935_rv.mp4	0.0	242.85502886772156	0.09998703002929688
57	221.03139901161194	fix_pre	0		120	55.0	2.5	blank	1.0	242.95501589775085	0.9999611377716064
57	222.03136014938354	movie	1		300	55.0	2.5	blank	1.0	243.95497703552246	2.499541997909546
57	222.41434907913208	pulse	1	t		55.0	2.5	blank	1.0	244.337965965271	
57	224.01433396339417	pulse	1	t		55.0	2.5	blank	1.0	245.93795084953308	
57	224.5309021472931	fix_post	2		12	55.0	2.5	blank	1.0	246.454519033432	0.1004788875579834
58	224.63138103485107	fix_pre	0		119	56.0	2.5	/experiments/AOT/AOT_stimuli/rescaled_final/0495_rv.mp4	0.0	246.55499792099	0.9916129112243652
58	225.61441802978516	pulse	0	t		56.0	2.5	/experiments/AOT/AOT_stimuli/rescaled_final/0495_rv.mp4	0.0	247.53803491592407	
58	225.62299394607544	movie	1		248	56.0	2.5	/experiments/AOT/AOT_stimuli/rescaled_final/0495_rv.mp4	0.0	247.54661083221436	2.5079500675201416
58	227.2139880657196	pulse	1	t		56.0	2.5	/experiments/AOT/AOT_stimuli/rescaled_final/0495_rv.mp4	0.0	249.13760495185852	
58	228.13094401359558	fix_post	2		12	56.0	2.5	/experiments/AOT/AOT_stimuli/rescaled_final/0495_rv.mp4	0.0	250.0545608997345	0.10085201263427734
59	228.23179602622986	fix_pre	0		120	57.0	2.5	/experiments/AOT/AOT_stimuli/rescaled_final/0980_fw.mp4	0.0	250.15541291236877	0.99993896484375
59	228.8151891231537	pulse	0	t		57.0	2.5	/experiments/AOT/AOT_stimuli/rescaled_final/0980_fw.mp4	0.0	250.7388060092926	
59	229.2317349910736	movie	1		243	57.0	2.5	/experiments/AOT/AOT_stimuli/rescaled_final/0980_fw.mp4	0.0	251.15535187721252	2.499145030975342
59	230.4143841266632	pulse	1	t		57.0	2.5	/experiments/AOT/AOT_stimuli/rescaled_final/0980_fw.mp4	0.0	252.33800101280212	
59	231.73088002204895	fix_post	2		12	57.0	2.5	/experiments/AOT/AOT_stimuli/rescaled_final/0980_fw.mp4	0.0	253.65449690818787	0.10085511207580566
60	231.83173513412476	fix_pre	0		120	58.0	2.5	/experiments/AOT/AOT_stimuli/rescaled_final/1825_rv.mp4	0.0	253.75535202026367	0.9999809265136719
60	232.01526618003845	pulse	0	t		58.0	2.5	/experiments/AOT/AOT_stimuli/rescaled_final/1825_rv.mp4	0.0	253.93888306617737	
60	232.83171606063843	movie	1		244	58.0	2.5	/experiments/AOT/AOT_stimuli/rescaled_final/1825_rv.mp4	0.0	254.75533294677734	2.499121904373169
60	233.61426901817322	pulse	1	t		58.0	2.5	/experiments/AOT/AOT_stimuli/rescaled_final/1825_rv.mp4	0.0	255.53788590431213	
60	235.21287608146667	pulse	1	t		58.0	2.5	/experiments/AOT/AOT_stimuli/rescaled_final/1825_rv.mp4	0.0	257.1364929676056	
60	235.3308379650116	fix_post	2		12	58.0	2.5	/experiments/AOT/AOT_stimuli/rescaled_final/1825_rv.mp4	0.0	257.2544548511505	0.10006403923034668
61	235.43090200424194	fix_pre	0		120	59.0	2.5	/experiments/AOT/AOT_stimuli/rescaled_final/1239_rv.mp4	0.0	257.35451889038086	0.9999740123748779
61	236.43087601661682	movie	1		245	59.0	2.5	/experiments/AOT/AOT_stimuli/rescaled_final/1239_rv.mp4	0.0	258.35449290275574	2.5001909732818604
61	236.81406998634338	pulse	1	t		59.0	2.5	/experiments/AOT/AOT_stimuli/rescaled_final/1239_rv.mp4	0.0	258.7376868724823	
61	238.4153220653534	pulse	1	t		59.0	2.5	/experiments/AOT/AOT_stimuli/rescaled_final/1239_rv.mp4	0.0	260.3389389514923	
61	238.93106698989868	fix_post	2		12	59.0	2.5	/experiments/AOT/AOT_stimuli/rescaled_final/1239_rv.mp4	0.0	260.8546838760376	0.10004401206970215
62	239.03111100196838	fix_pre	0		119	60.0	2.5	/experiments/AOT/AOT_stimuli/rescaled_final/0543_fw.mp4	0.0	260.9547278881073	0.9925870895385742
62	240.0146839618683	pulse	0	t		60.0	2.5	/experiments/AOT/AOT_stimuli/rescaled_final/0543_fw.mp4	0.0	261.9383008480072	
62	240.02369809150696	movie	1		245	60.0	2.5	/experiments/AOT/AOT_stimuli/rescaled_final/0543_fw.mp4	0.0	261.9473149776459	2.508167028427124
62	241.61573815345764	pulse	1	t		60.0	2.5	/experiments/AOT/AOT_stimuli/rescaled_final/0543_fw.mp4	0.0	263.53935503959656	
62	242.53186511993408	fix_post	2		12	60.0	2.5	/experiments/AOT/AOT_stimuli/rescaled_final/0543_fw.mp4	0.0	264.455482006073	0.09983205795288086
63	242.63169717788696	fix_pre	0		120	61.0	2.5	/experiments/AOT/AOT_stimuli/rescaled_final/0604_rv.mp4	0.0	264.5553140640259	0.9999659061431885
63	243.214262008667	pulse	0	t		61.0	2.5	/experiments/AOT/AOT_stimuli/rescaled_final/0604_rv.mp4	0.0	265.1378788948059	
63	243.63166308403015	movie	1		246	61.0	2.5	/experiments/AOT/AOT_stimuli/rescaled_final/0604_rv.mp4	0.0	265.55527997016907	2.499105930328369
63	244.81421995162964	pulse	1	t		61.0	2.5	/experiments/AOT/AOT_stimuli/rescaled_final/0604_rv.mp4	0.0	266.73783683776855	
63	246.13076901435852	fix_post	2		12	61.0	2.5	/experiments/AOT/AOT_stimuli/rescaled_final/0604_rv.mp4	0.0	268.05438590049744	0.10000801086425781
64	246.23077702522278	fix_pre	0		120	62.0	2.5	/experiments/AOT/AOT_stimuli/rescaled_final/1160_fw.mp4	0.0	268.1543939113617	1.0009820461273193
64	246.41520810127258	pulse	0	t		62.0	2.5	/experiments/AOT/AOT_stimuli/rescaled_final/1160_fw.mp4	0.0	268.3388249874115	
64	247.2317590713501	movie	1		246	62.0	2.5	/experiments/AOT/AOT_stimuli/rescaled_final/1160_fw.mp4	0.0	269.155375957489	2.499044895172119
64	248.01443600654602	pulse	1	t		62.0	2.5	/experiments/AOT/AOT_stimuli/rescaled_final/1160_fw.mp4	0.0	269.93805289268494	
64	249.61330699920654	pulse	1	t		62.0	2.5	/experiments/AOT/AOT_stimuli/rescaled_final/1160_fw.mp4	0.0	271.53692388534546	
64	249.73080396652222	fix_post	2		12	62.0	2.5	/experiments/AOT/AOT_stimuli/rescaled_final/1160_fw.mp4	0.0	271.65442085266113	0.0999610424041748
65	249.8307650089264	fix_pre	0		120	63.0	2.5	blank	1.0	271.7543818950653	1.0000710487365723
65	250.83083605766296	movie	1		300	63.0	2.5	blank	1.0	272.7544529438019	2.500001907348633
65	251.21430110931396	pulse	1	t		63.0	2.5	blank	1.0	273.1379179954529	
65	252.8142499923706	pulse	1	t		63.0	2.5	blank	1.0	274.7378668785095	
65	253.3308379650116	fix_post	2		12	63.0	2.5	blank	1.0	275.2544548511505	0.10079813003540039
66	253.431636095047	fix_pre	0		119	64.0	2.5	/experiments/AOT/AOT_stimuli/rescaled_final/0128_fw.mp4	0.0	275.3552529811859	0.9907948970794678
66	254.41426301002502	pulse	0	t		64.0	2.5	/experiments/AOT/AOT_stimuli/rescaled_final/0128_fw.mp4	0.0	276.33787989616394	
66	254.42243099212646	movie	1		245	64.0	2.5	/experiments/AOT/AOT_stimuli/rescaled_final/0128_fw.mp4	0.0	276.3460478782654	2.508254051208496
66	256.014132976532	pulse	1	t		64.0	2.5	/experiments/AOT/AOT_stimuli/rescaled_final/0128_fw.mp4	0.0	277.9377498626709	
66	256.93068504333496	fix_post	2		12	64.0	2.5	/experiments/AOT/AOT_stimuli/rescaled_final/0128_fw.mp4	0.0	278.8543019294739	0.10087800025939941
67	257.03156304359436	fix_pre	0		120	65.0	2.5	/experiments/AOT/AOT_stimuli/rescaled_final/0862_rv.mp4	0.0	278.9551799297333	0.9991459846496582
67	257.6143171787262	pulse	0	t		65.0	2.5	/experiments/AOT/AOT_stimuli/rescaled_final/0862_rv.mp4	0.0	279.5379340648651	
67	258.030709028244	movie	1		243	65.0	2.5	/experiments/AOT/AOT_stimuli/rescaled_final/0862_rv.mp4	0.0	279.95432591438293	2.5000360012054443
67	259.2142231464386	pulse	1	t		65.0	2.5	/experiments/AOT/AOT_stimuli/rescaled_final/0862_rv.mp4	0.0	281.1378400325775	
67	260.53074502944946	fix_post	2		12	65.0	2.5	/experiments/AOT/AOT_stimuli/rescaled_final/0862_rv.mp4	0.0	282.4543619155884	0.10099005699157715
68	260.63173508644104	fix_pre	0		120	66.0	2.5	/experiments/AOT/AOT_stimuli/rescaled_final/1960_fw.mp4	0.0	282.55535197257996	0.9998838901519775
68	260.81419110298157	pulse	0	t		66.0	2.5	/experiments/AOT/AOT_stimuli/rescaled_final/1960_fw.mp4	0.0	282.7378079891205	
68	261.631618976593	movie	1		242	66.0	2.5	/experiments/AOT/AOT_stimuli/rescaled_final/1960_fw.mp4	0.0	283.55523586273193	2.499051094055176
68	262.41529607772827	pulse	1	t		66.0	2.5	/experiments/AOT/AOT_stimuli/rescaled_final/1960_fw.mp4	0.0	284.3389129638672	
68	264.0138280391693	pulse	1	t		66.0	2.5	/experiments/AOT/AOT_stimuli/rescaled_final/1960_fw.mp4	0.0	285.9374449253082	
68	264.1306700706482	fix_post	2		12	66.0	2.5	/experiments/AOT/AOT_stimuli/rescaled_final/1960_fw.mp4	0.0	286.0542869567871	0.1000370979309082
69	264.2307071685791	fix_pre	0		120	67.0	2.5	/experiments/AOT/AOT_stimuli/rescaled_final/0031_rv.mp4	0.0	286.154324054718	1.0000059604644775
69	265.2307131290436	movie	1		244	67.0	2.5	/experiments/AOT/AOT_stimuli/rescaled_final/0031_rv.mp4	0.0	287.1543300151825	2.4999680519104004
69	265.6147429943085	pulse	1	t		67.0	2.5	/experiments/AOT/AOT_stimuli/rescaled_final/0031_rv.mp4	0.0	287.5383598804474	
69	267.21408796310425	pulse	1	t		67.0	2.5	/experiments/AOT/AOT_stimuli/rescaled_final/0031_rv.mp4	0.0	289.13770484924316	
69	267.730681180954	fix_post	2		12	67.0	2.5	/experiments/AOT/AOT_stimuli/rescaled_final/0031_rv.mp4	0.0	289.6542980670929	0.09996485710144043
70	267.8306460380554	fix_pre	0		119	68.0	2.5	/experiments/AOT/AOT_stimuli/rescaled_final/0318_fw.mp4	0.0	289.75426292419434	0.9925670623779297
70	268.81414914131165	pulse	0	t		68.0	2.5	/experiments/AOT/AOT_stimuli/rescaled_final/0318_fw.mp4	0.0	290.73776602745056	
70	268.82321310043335	movie	1		244	68.0	2.5	/experiments/AOT/AOT_stimuli/rescaled_final/0318_fw.mp4	0.0	290.74682998657227	2.5074260234832764
70	270.41511702537537	pulse	1	t		68.0	2.5	/experiments/AOT/AOT_stimuli/rescaled_final/0318_fw.mp4	0.0	292.3387339115143	
70	271.3306391239166	fix_post	2		12	68.0	2.5	/experiments/AOT/AOT_stimuli/rescaled_final/0318_fw.mp4	0.0	293.25425601005554	0.10003495216369629
71	271.4306740760803	fix_pre	0		120	69.0	2.5	blank	1.0	293.35429096221924	0.9999499320983887
71	272.0141489505768	pulse	0	t		69.0	2.5	blank	1.0	293.9377658367157	
71	272.4306240081787	movie	1		300	69.0	2.5	blank	1.0	294.3542408943176	2.5000159740448
71	273.6142029762268	pulse	1	t		69.0	2.5	blank	1.0	295.5378198623657	
71	274.9306399822235	fix_post	2		12	69.0	2.5	blank	1.0	296.8542568683624	0.09999918937683105
72	275.03063917160034	fix_pre	0		120	70.0	2.5	/experiments/AOT/AOT_stimuli/rescaled_final/0826_fw.mp4	0.0	296.95425605773926	0.9999828338623047
72	275.21414709091187	pulse	0	t		70.0	2.5	/experiments/AOT/AOT_stimuli/rescaled_final/0826_fw.mp4	0.0	297.1377639770508	
72	276.03062200546265	movie	1		244	70.0	2.5	/experiments/AOT/AOT_stimuli/rescaled_final/0826_fw.mp4	0.0	297.95423889160156	2.5013790130615234
72	276.81550908088684	pulse	1	t		70.0	2.5	/experiments/AOT/AOT_stimuli/rescaled_final/0826_fw.mp4	0.0	298.73912596702576	
72	278.41577911376953	pulse	1	t		70.0	2.5	/experiments/AOT/AOT_stimuli/rescaled_final/0826_fw.mp4	0.0	300.33939599990845	
72	278.53200101852417	fix_post	2		12	70.0	2.5	/experiments/AOT/AOT_stimuli/rescaled_final/0826_fw.mp4	0.0	300.4556179046631	0.09997415542602539
73	278.6319751739502	fix_pre	0		120	71.0	2.5	/experiments/AOT/AOT_stimuli/rescaled_final/1972_fw.mp4	0.0	300.5555920600891	1.000410795211792
73	279.632385969162	movie	1		246	71.0	2.5	/experiments/AOT/AOT_stimuli/rescaled_final/1972_fw.mp4	0.0	301.5560028553009	2.499986171722412
73	280.0158221721649	pulse	1	t		71.0	2.5	/experiments/AOT/AOT_stimuli/rescaled_final/1972_fw.mp4	0.0	301.93943905830383	
73	281.61545300483704	pulse	1	t		71.0	2.5	/experiments/AOT/AOT_stimuli/rescaled_final/1972_fw.mp4	0.0	303.53906989097595	
73	282.1323721408844	fix_post	2		11	71.0	2.5	/experiments/AOT/AOT_stimuli/rescaled_final/1972_fw.mp4	0.0	304.0559890270233	0.0913398265838623
74	282.22371196746826	fix_pre	0		120	72.0	2.5	/experiments/AOT/AOT_stimuli/rescaled_final/0147_fw.mp4	0.0	304.1473288536072	0.9999821186065674
74	283.2154450416565	pulse	0	t		72.0	2.5	/experiments/AOT/AOT_stimuli/rescaled_final/0147_fw.mp4	0.0	305.1390619277954	
74	283.22369408607483	movie	1		245	72.0	2.5	/experiments/AOT/AOT_stimuli/rescaled_final/0147_fw.mp4	0.0	305.14731097221375	2.5086960792541504
74	284.8152861595154	pulse	1	t		72.0	2.5	/experiments/AOT/AOT_stimuli/rescaled_final/0147_fw.mp4	0.0	306.7389030456543	
74	285.732390165329	fix_post	2		12	72.0	2.5	/experiments/AOT/AOT_stimuli/rescaled_final/0147_fw.mp4	0.0	307.6560070514679	0.10004186630249023
75	285.83243203163147	fix_pre	0		120	73.0	2.5	/experiments/AOT/AOT_stimuli/rescaled_final/0215_fw.mp4	0.0	307.7560489177704	0.9999549388885498
75	286.4154679775238	pulse	0	t		73.0	2.5	/experiments/AOT/AOT_stimuli/rescaled_final/0215_fw.mp4	0.0	308.3390848636627	
75	286.83238697052	movie	1		243	73.0	2.5	/experiments/AOT/AOT_stimuli/rescaled_final/0215_fw.mp4	0.0	308.75600385665894	2.4999752044677734
75	288.01590609550476	pulse	1	t		73.0	2.5	/experiments/AOT/AOT_stimuli/rescaled_final/0215_fw.mp4	0.0	309.9395229816437	
75	289.3323621749878	fix_post	2		12	73.0	2.5	/experiments/AOT/AOT_stimuli/rescaled_final/0215_fw.mp4	0.0	311.2559790611267	0.09995698928833008
76	289.4323191642761	fix_pre	0		120	74.0	2.5	/experiments/AOT/AOT_stimuli/rescaled_final/1812_rv.mp4	0.0	311.35593605041504	0.9999837875366211
76	289.6153950691223	pulse	0	t		74.0	2.5	/experiments/AOT/AOT_stimuli/rescaled_final/1812_rv.mp4	0.0	311.53901195526123	
76	290.43230295181274	movie	1		243	74.0	2.5	/experiments/AOT/AOT_stimuli/rescaled_final/1812_rv.mp4	0.0	312.35591983795166	2.500082015991211
76	291.2154309749603	pulse	1	t		74.0	2.5	/experiments/AOT/AOT_stimuli/rescaled_final/1812_rv.mp4	0.0	313.13904786109924	
76	292.81457901000977	pulse	1	t		74.0	2.5	/experiments/AOT/AOT_stimuli/rescaled_final/1812_rv.mp4	0.0	314.7381958961487	
76	292.93238496780396	fix_post	2		12	74.0	2.5	/experiments/AOT/AOT_stimuli/rescaled_final/1812_rv.mp4	0.0	314.85600185394287	0.09954500198364258
77	293.0319299697876	fix_pre	0		120	75.0	2.5	/experiments/AOT/AOT_stimuli/rescaled_final/0508_rv.mp4	0.0	314.9555468559265	0.9991121292114258
77	294.031042098999	movie	1		245	75.0	2.5	/experiments/AOT/AOT_stimuli/rescaled_final/0508_rv.mp4	0.0	315.95465898513794	2.501244068145752
77	294.4158070087433	pulse	1	t		75.0	2.5	/experiments/AOT/AOT_stimuli/rescaled_final/0508_rv.mp4	0.0	316.3394238948822	
77	296.01580715179443	pulse	1	t		75.0	2.5	/experiments/AOT/AOT_stimuli/rescaled_final/0508_rv.mp4	0.0	317.93942403793335	
77	296.5322861671448	fix_post	2		12	75.0	2.5	/experiments/AOT/AOT_stimuli/rescaled_final/0508_rv.mp4	0.0	318.4559030532837	0.10004997253417969
78	296.63233613967896	fix_pre	0		119	76.0	2.5	blank	1.0	318.55595302581787	0.9912209510803223
78	297.6153290271759	pulse	0	t		76.0	2.5	blank	1.0	319.5389459133148	
78	297.6235570907593	movie	1		301	76.0	2.5	blank	1.0	319.5471739768982	2.5073978900909424
78	299.2153401374817	pulse	1	t		76.0	2.5	blank	1.0	321.1389570236206	
78	300.1309549808502	fix_post	2		12	76.0	2.5	blank	1.0	322.05457186698914	0.10135698318481445
79	300.23231196403503	fix_pre	0		120	77.0	2.5	/experiments/AOT/AOT_stimuli/rescaled_final/1923_rv.mp4	0.0	322.15592885017395	0.9999980926513672
79	300.8157231807709	pulse	0	t		77.0	2.5	/experiments/AOT/AOT_stimuli/rescaled_final/1923_rv.mp4	0.0	322.7393400669098	
79	301.2323100566864	movie	1		245	77.0	2.5	/experiments/AOT/AOT_stimuli/rescaled_final/1923_rv.mp4	0.0	323.1559269428253	2.49959397315979
79	302.41586208343506	pulse	1	t		77.0	2.5	/experiments/AOT/AOT_stimuli/rescaled_final/1923_rv.mp4	0.0	324.339478969574	
79	303.7319040298462	fix_post	2		12	77.0	2.5	/experiments/AOT/AOT_stimuli/rescaled_final/1923_rv.mp4	0.0	325.6555209159851	0.1003260612487793
80	303.83223009109497	fix_pre	0		120	78.0	2.5	/experiments/AOT/AOT_stimuli/rescaled_final/1410_rv.mp4	0.0	325.7558469772339	0.9987099170684814
80	304.014790058136	pulse	0	t		78.0	2.5	/experiments/AOT/AOT_stimuli/rescaled_final/1410_rv.mp4	0.0	325.9384069442749	
80	304.83094000816345	movie	1		244	78.0	2.5	/experiments/AOT/AOT_stimuli/rescaled_final/1410_rv.mp4	0.0	326.75455689430237	2.500385046005249
80	305.61482214927673	pulse	1	t		78.0	2.5	/experiments/AOT/AOT_stimuli/rescaled_final/1410_rv.mp4	0.0	327.53843903541565	
80	307.21349000930786	pulse	1	t		78.0	2.5	/experiments/AOT/AOT_stimuli/rescaled_final/1410_rv.mp4	0.0	329.1371068954468	
80	307.3313250541687	fix_post	2		12	78.0	2.5	/experiments/AOT/AOT_stimuli/rescaled_final/1410_rv.mp4	0.0	329.2549419403076	0.09973406791687012
81	307.43105912208557	fix_pre	0		120	79.0	2.5	/experiments/AOT/AOT_stimuli/rescaled_final/0980_rv.mp4	0.0	329.3546760082245	0.9998898506164551
81	308.430948972702	movie	1		242	79.0	2.5	/experiments/AOT/AOT_stimuli/rescaled_final/0980_rv.mp4	0.0	330.35456585884094	2.500404119491577
81	308.814327955246	pulse	1	t		79.0	2.5	/experiments/AOT/AOT_stimuli/rescaled_final/0980_rv.mp4	0.0	330.7379448413849	
81	310.4146111011505	pulse	1	t		79.0	2.5	/experiments/AOT/AOT_stimuli/rescaled_final/0980_rv.mp4	0.0	332.33822798728943	
81	310.9313530921936	fix_post	2		12	79.0	2.5	/experiments/AOT/AOT_stimuli/rescaled_final/0980_rv.mp4	0.0	332.8549699783325	0.09984588623046875
82	311.0311989784241	fix_pre	0		119	80.0	2.5	/experiments/AOT/AOT_stimuli/rescaled_final/0128_rv.mp4	0.0	332.954815864563	0.9913740158081055
82	312.0147590637207	pulse	0	t		80.0	2.5	/experiments/AOT/AOT_stimuli/rescaled_final/0128_rv.mp4	0.0	333.9383759498596	
82	312.0225729942322	movie	1		246	80.0	2.5	/experiments/AOT/AOT_stimuli/rescaled_final/0128_rv.mp4	0.0	333.9461898803711	2.508824110031128
82	313.61405301094055	pulse	1	t		80.0	2.5	/experiments/AOT/AOT_stimuli/rescaled_final/0128_rv.mp4	0.0	335.53766989707947	
82	314.5313971042633	fix_post	2		12	80.0	2.5	/experiments/AOT/AOT_stimuli/rescaled_final/0128_rv.mp4	0.0	336.4550139904022	0.09952902793884277
83	314.63092613220215	fix_pre	0		120	81.0	2.5	/experiments/AOT/AOT_stimuli/rescaled_final/1326_rv.mp4	0.0	336.55454301834106	0.9999029636383057
83	315.2148859500885	pulse	0	t		81.0	2.5	/experiments/AOT/AOT_stimuli/rescaled_final/1326_rv.mp4	0.0	337.1385028362274	
83	315.63082909584045	movie	1		243	81.0	2.5	/experiments/AOT/AOT_stimuli/rescaled_final/1326_rv.mp4	0.0	337.55444598197937	2.5004780292510986
83	316.81480598449707	pulse	1	t		81.0	2.5	/experiments/AOT/AOT_stimuli/rescaled_final/1326_rv.mp4	0.0	338.738422870636	
83	318.13130712509155	fix_post	2		12	81.0	2.5	/experiments/AOT/AOT_stimuli/rescaled_final/1326_rv.mp4	0.0	340.05492401123047	0.10010790824890137
84	318.23141503334045	fix_pre	0		120	82.0	2.5	blank	1.0	340.15503191947937	0.999547004699707
84	318.414409160614	pulse	0	t		82.0	2.5	blank	1.0	340.33802604675293	
84	319.23096203804016	movie	1		300	82.0	2.5	blank	1.0	341.1545789241791	2.5000150203704834
84	320.0145580768585	pulse	1	t		82.0	2.5	blank	1.0	341.93817496299744	
84	321.61474108695984	pulse	1	t		82.0	2.5	blank	1.0	343.53835797309875	
84	321.73097705841064	fix_post	2		12	82.0	2.5	blank	1.0	343.65459394454956	0.10034489631652832
85	321.8313219547272	fix_pre	0		120	83.0	2.5	/experiments/AOT/AOT_stimuli/rescaled_final/0718_fw.mp4	0.0	343.7549388408661	0.999953031539917
85	322.8312749862671	movie	1		243	83.0	2.5	/experiments/AOT/AOT_stimuli/rescaled_final/0718_fw.mp4	0.0	344.754891872406	2.4991190433502197
85	323.21428418159485	pulse	1	t		83.0	2.5	/experiments/AOT/AOT_stimuli/rescaled_final/0718_fw.mp4	0.0	345.13790106773376	
85	324.81386709213257	pulse	1	t		83.0	2.5	/experiments/AOT/AOT_stimuli/rescaled_final/0718_fw.mp4	0.0	346.7374839782715	
85	325.3303940296173	fix_post	2		12	83.0	2.5	/experiments/AOT/AOT_stimuli/rescaled_final/0718_fw.mp4	0.0	347.2540109157562	0.10080409049987793
87	325.4311981201172	stim	0		1716					347.3548150062561	14.29912805557251
87	326.4137990474701	pulse	0	t						348.337415933609	
87	328.01383209228516	pulse	0	t						349.9374489784241	
87	329.61467695236206	pulse	0	t						351.538293838501	
87	331.21383905410767	pulse	0	t						353.1374559402466	
87	332.8139650821686	pulse	0	t						354.7375819683075	
87	334.41379594802856	pulse	0	t						356.3374128341675	
87	336.0137720108032	pulse	0	t						357.93738889694214	
87	337.61471009254456	pulse	0	t						359.5383269786835	
87	339.21376299858093	pulse	0	t						361.13737988471985	
