trial_nr	onset	event_type	phase	response	nr_frames	movie_index	movie_duration	movie_file	blank	onset_abs	duration
0	0.1578521728515625	stim	0		27068					24.614519119262695	225.6243019104004
0	12.67573618888855	pulse	0	t						37.13240313529968	
0	14.274983167648315	pulse	0	t						38.73165011405945	
0	225.7668640613556	response	0	space						250.22353100776672	
1	225.78215408325195	stim	0		5424					250.2388210296631	45.199745893478394
1	270.97440099716187	pulse	0	t						295.431067943573	
1	270.98189997673035	stim	1		1717					295.4385669231415	14.308286190032959
1	272.5737280845642	pulse	1	t						297.03039503097534	
1	274.1737561225891	pulse	1	t						298.63042306900024	
1	275.77370619773865	pulse	1	t						300.2303731441498	
1	277.3736810684204	pulse	1	t						301.83034801483154	
1	278.9736850261688	pulse	1	t						303.43035197257996	
1	280.5736291408539	pulse	1	t						305.030296087265	
1	282.1737561225891	pulse	1	t						306.63042306900024	
1	283.7735960483551	pulse	1	t						308.23026299476624	
2	285.2901861667633	fix_pre	0		11	0.0	2.5	/experiments/aot/R_S_yt-AbJBxqEYoMg_27.mp4	0.0	309.74685311317444	0.09171891212463379
2	285.3736560344696	pulse	0	t		0.0	2.5	/experiments/aot/R_S_yt-AbJBxqEYoMg_27.mp4	0.0	309.83032298088074	
2	285.38190507888794	movie	1		300	0.0	2.5	/experiments/aot/R_S_yt-AbJBxqEYoMg_27.mp4	0.0	309.8385720252991	2.5082108974456787
2	286.9695510864258	pulse	1	t		0.0	2.5	/experiments/aot/R_S_yt-AbJBxqEYoMg_27.mp4	0.0	311.4262180328369	
2	287.8901159763336	fix_post	2		12	0.0	2.5	/experiments/aot/R_S_yt-AbJBxqEYoMg_27.mp4	0.0	312.34678292274475	0.10001802444458008
3	287.9901340007782	fix_pre	0		120	1.0	2.5	/experiments/aot/R_S_yt-GjFQxAklviE_25.mp4	0.0	312.44680094718933	1.000040054321289
3	288.5737020969391	pulse	0	t		1.0	2.5	/experiments/aot/R_S_yt-GjFQxAklviE_25.mp4	0.0	313.0303690433502	
3	288.9901740550995	movie	1		300	1.0	2.5	/experiments/aot/R_S_yt-GjFQxAklviE_25.mp4	0.0	313.4468410015106	2.499988079071045
3	290.1736559867859	pulse	1	t		1.0	2.5	/experiments/aot/R_S_yt-GjFQxAklviE_25.mp4	0.0	314.630322933197	
3	291.49016213417053	fix_post	2		12	1.0	2.5	/experiments/aot/R_S_yt-GjFQxAklviE_25.mp4	0.0	315.94682908058167	0.09997987747192383
4	291.59014201164246	fix_pre	0		120	2.0	2.5	/experiments/aot/S_pexels-kindel-media-8165572.mp4	0.0	316.0468089580536	0.9999980926513672
4	291.77366304397583	pulse	0	t		2.0	2.5	/experiments/aot/S_pexels-kindel-media-8165572.mp4	0.0	316.23032999038696	
4	292.5901401042938	movie	1		163	2.0	2.5	/experiments/aot/S_pexels-kindel-media-8165572.mp4	0.0	317.04680705070496	2.4999539852142334
4	293.373517036438	pulse	1	t		2.0	2.5	/experiments/aot/S_pexels-kindel-media-8165572.mp4	0.0	317.8301839828491	
4	294.97373819351196	pulse	1	t		2.0	2.5	/experiments/aot/S_pexels-kindel-media-8165572.mp4	0.0	319.4304051399231	
4	295.09009408950806	fix_post	2		12	2.0	2.5	/experiments/aot/S_pexels-kindel-media-8165572.mp4	0.0	319.5467610359192	0.10010004043579102
5	295.19019412994385	fix_pre	0		120	3.0	2.5	/experiments/aot/S_IrGYVLkWeQs_9.mp4	0.0	319.646861076355	0.9999680519104004
5	296.19016218185425	movie	1		300	3.0	2.5	/experiments/aot/S_IrGYVLkWeQs_9.mp4	0.0	320.6468291282654	2.500013828277588
5	296.573664188385	pulse	1	t		3.0	2.5	/experiments/aot/S_IrGYVLkWeQs_9.mp4	0.0	321.03033113479614	
5	298.17362999916077	pulse	1	t		3.0	2.5	/experiments/aot/S_IrGYVLkWeQs_9.mp4	0.0	322.6302969455719	
5	298.69017601013184	fix_post	2		12	3.0	2.5	/experiments/aot/S_IrGYVLkWeQs_9.mp4	0.0	323.14684295654297	0.10001015663146973
6	298.7901861667633	fix_pre	0		119	4.0	2.5	/experiments/aot/R_S_yt-uSHBdUi8_V0_24.mp4	0.0	323.24685311317444	0.991581916809082
6	299.77367210388184	pulse	0	t		4.0	2.5	/experiments/aot/R_S_yt-uSHBdUi8_V0_24.mp4	0.0	324.23033905029297	
6	299.7817680835724	movie	1		298	4.0	2.5	/experiments/aot/R_S_yt-uSHBdUi8_V0_24.mp4	0.0	324.2384350299835	2.5083529949188232
6	301.37024211883545	pulse	1	t		4.0	2.5	/experiments/aot/R_S_yt-uSHBdUi8_V0_24.mp4	0.0	325.8269090652466	
6	302.2901210784912	fix_post	2		12	4.0	2.5	/experiments/aot/R_S_yt-uSHBdUi8_V0_24.mp4	0.0	326.74678802490234	0.09993100166320801
7	302.3900520801544	fix_pre	0		120	5.0	2.5	/experiments/aot/S_yt-dO0OuozAgt0_225.mp4	0.0	326.84671902656555	1.000082015991211
7	302.97365713119507	pulse	0	t		5.0	2.5	/experiments/aot/S_yt-dO0OuozAgt0_225.mp4	0.0	327.4303240776062	
7	303.39013409614563	movie	1		299	5.0	2.5	/experiments/aot/S_yt-dO0OuozAgt0_225.mp4	0.0	327.84680104255676	2.500011920928955
7	304.57361006736755	pulse	1	t		5.0	2.5	/experiments/aot/S_yt-dO0OuozAgt0_225.mp4	0.0	329.0302770137787	
7	305.8901460170746	fix_post	2		12	5.0	2.5	/experiments/aot/S_yt-dO0OuozAgt0_225.mp4	0.0	330.3468129634857	0.10012507438659668
8	305.9902710914612	fix_pre	0		120	6.0	2.5	blank	1.0	330.4469380378723	0.999783992767334
8	306.1735990047455	pulse	0	t		6.0	2.5	blank	1.0	330.6302659511566	
8	306.9900550842285	movie	1		300	6.0	2.5	blank	1.0	331.44672203063965	2.5000290870666504
8	307.77355313301086	pulse	1	t		6.0	2.5	blank	1.0	332.230220079422	
8	309.3735520839691	pulse	1	t		6.0	2.5	blank	1.0	333.83021903038025	
8	309.49008417129517	fix_post	2		12	6.0	2.5	blank	1.0	333.9467511177063	0.09996199607849121
9	309.59004616737366	fix_pre	0		120	7.0	2.5	/experiments/aot/R_S_pexels-laker-5793000.mp4	0.0	334.0467131137848	1.0000698566436768
9	310.59011602401733	movie	1		160	7.0	2.5	/experiments/aot/R_S_pexels-laker-5793000.mp4	0.0	335.04678297042847	2.4999561309814453
9	310.97366309165955	pulse	1	t		7.0	2.5	/experiments/aot/R_S_pexels-laker-5793000.mp4	0.0	335.4303300380707	
9	312.5735971927643	pulse	1	t		7.0	2.5	/experiments/aot/R_S_pexels-laker-5793000.mp4	0.0	337.0302641391754	
9	313.0900721549988	fix_post	2		12	7.0	2.5	/experiments/aot/R_S_pexels-laker-5793000.mp4	0.0	337.5467391014099	0.10001683235168457
10	313.19008898735046	fix_pre	0		119	8.0	2.5	/experiments/aot/R_S_pexels-tima-miroshnichenko-8724308.mp4	0.0	337.6467559337616	0.991584062576294
10	314.1735701560974	pulse	0	t		8.0	2.5	/experiments/aot/R_S_pexels-tima-miroshnichenko-8724308.mp4	0.0	338.63023710250854	
10	314.18167304992676	movie	1		164	8.0	2.5	/experiments/aot/R_S_pexels-tima-miroshnichenko-8724308.mp4	0.0	338.6383399963379	2.5084140300750732
10	315.773145198822	pulse	1	t		8.0	2.5	/experiments/aot/R_S_pexels-tima-miroshnichenko-8724308.mp4	0.0	340.22981214523315	
10	316.69008708000183	fix_post	2		12	8.0	2.5	/experiments/aot/R_S_pexels-tima-miroshnichenko-8724308.mp4	0.0	341.14675402641296	0.09995508193969727
11	316.7900421619415	fix_pre	0		120	9.0	2.5	/experiments/aot/S_yt-K_gHa2x2OQA_319.mp4	0.0	341.24670910835266	0.9995608329772949
11	317.3731300830841	pulse	0	t		9.0	2.5	/experiments/aot/S_yt-K_gHa2x2OQA_319.mp4	0.0	341.82979702949524	
11	317.7896029949188	movie	1		300	9.0	2.5	/experiments/aot/S_yt-K_gHa2x2OQA_319.mp4	0.0	342.24626994132996	2.500810146331787
11	318.97309017181396	pulse	1	t		9.0	2.5	/experiments/aot/S_yt-K_gHa2x2OQA_319.mp4	0.0	343.4297571182251	
11	320.2904131412506	fix_post	2		12	9.0	2.5	/experiments/aot/S_yt-K_gHa2x2OQA_319.mp4	0.0	344.74708008766174	0.09993100166320801
12	320.3903441429138	fix_pre	0		120	10.0	2.5	/experiments/aot/S_pexels-mikhail-nilov-8410084.mp4	0.0	344.84701108932495	0.9996988773345947
12	320.5738160610199	pulse	0	t		10.0	2.5	/experiments/aot/S_pexels-mikhail-nilov-8410084.mp4	0.0	345.03048300743103	
12	321.3900430202484	movie	1		168	10.0	2.5	/experiments/aot/S_pexels-mikhail-nilov-8410084.mp4	0.0	345.84670996665955	2.5000159740448
12	322.17353415489197	pulse	1	t		10.0	2.5	/experiments/aot/S_pexels-mikhail-nilov-8410084.mp4	0.0	346.6302011013031	
12	323.7735769748688	pulse	1	t		10.0	2.5	/experiments/aot/S_pexels-mikhail-nilov-8410084.mp4	0.0	348.2302439212799	
12	323.8900589942932	fix_post	2		12	10.0	2.5	/experiments/aot/S_pexels-mikhail-nilov-8410084.mp4	0.0	348.34672594070435	0.10006308555603027
13	323.99012207984924	fix_pre	0		120	11.0	2.5	/experiments/aot/S_yt-Jo6PxivsTOg_247.mp4	0.0	348.4467890262604	0.9998660087585449
13	324.9899880886078	movie	1		299	11.0	2.5	/experiments/aot/S_yt-Jo6PxivsTOg_247.mp4	0.0	349.4466550350189	2.4999449253082275
13	325.37344098091125	pulse	1	t		11.0	2.5	/experiments/aot/S_yt-Jo6PxivsTOg_247.mp4	0.0	349.8301079273224	
13	326.9735221862793	pulse	1	t		11.0	2.5	/experiments/aot/S_yt-Jo6PxivsTOg_247.mp4	0.0	351.43018913269043	
13	327.489933013916	fix_post	2		12	11.0	2.5	/experiments/aot/S_yt-Jo6PxivsTOg_247.mp4	0.0	351.94659996032715	0.10010409355163574
14	327.59003710746765	fix_pre	0		119	12.0	2.5	/experiments/aot/S_yt-F3hhts3bwWg_25.mp4	0.0	352.0467040538788	0.9915909767150879
14	328.5733940601349	pulse	0	t		12.0	2.5	/experiments/aot/S_yt-F3hhts3bwWg_25.mp4	0.0	353.030061006546	
14	328.58162808418274	movie	1		301	12.0	2.5	/experiments/aot/S_yt-F3hhts3bwWg_25.mp4	0.0	353.0382950305939	2.508349895477295
14	330.1736421585083	pulse	1	t		12.0	2.5	/experiments/aot/S_yt-F3hhts3bwWg_25.mp4	0.0	354.63030910491943	
14	331.08997797966003	fix_post	2		12	12.0	2.5	/experiments/aot/S_yt-F3hhts3bwWg_25.mp4	0.0	355.54664492607117	0.09996318817138672
15	331.1899411678314	fix_pre	0		120	13.0	2.5	/experiments/aot/R_S_yt-6aqg1P9YqR8_38.mp4	0.0	355.64660811424255	1.0000879764556885
15	331.77343702316284	pulse	0	t		13.0	2.5	/experiments/aot/R_S_yt-6aqg1P9YqR8_38.mp4	0.0	356.230103969574	
15	332.1900291442871	movie	1		299	13.0	2.5	/experiments/aot/R_S_yt-6aqg1P9YqR8_38.mp4	0.0	356.64669609069824	2.4999349117279053
15	333.3733961582184	pulse	1	t		13.0	2.5	/experiments/aot/R_S_yt-6aqg1P9YqR8_38.mp4	0.0	357.8300631046295	
15	334.689964056015	fix_post	2		12	13.0	2.5	/experiments/aot/R_S_yt-6aqg1P9YqR8_38.mp4	0.0	359.14663100242615	0.09996199607849121
16	334.7899260520935	fix_pre	0		120	14.0	2.5	blank	1.0	359.24659299850464	1.000002145767212
16	334.9733350276947	pulse	0	t		14.0	2.5	blank	1.0	359.43000197410583	
16	335.7899281978607	movie	1		300	14.0	2.5	blank	1.0	360.24659514427185	2.499941825866699
16	336.5733561515808	pulse	1	t		14.0	2.5	blank	1.0	361.03002309799194	
16	338.1735169887543	pulse	1	t		14.0	2.5	blank	1.0	362.6301839351654	
16	338.2898700237274	fix_post	2		12	14.0	2.5	blank	1.0	362.74653697013855	0.10013604164123535
17	338.39000606536865	fix_pre	0		120	15.0	2.5	/experiments/aot/R_S_yt-BAQ3Xhm_PPE_23.mp4	0.0	362.8466730117798	0.9999229907989502
17	339.3899290561676	movie	1		299	15.0	2.5	/experiments/aot/R_S_yt-BAQ3Xhm_PPE_23.mp4	0.0	363.84659600257874	2.500019073486328
17	339.77341508865356	pulse	1	t		15.0	2.5	/experiments/aot/R_S_yt-BAQ3Xhm_PPE_23.mp4	0.0	364.2300820350647	
17	341.37341117858887	pulse	1	t		15.0	2.5	/experiments/aot/R_S_yt-BAQ3Xhm_PPE_23.mp4	0.0	365.830078125	
17	341.88994812965393	fix_post	2		12	15.0	2.5	/experiments/aot/R_S_yt-BAQ3Xhm_PPE_23.mp4	0.0	366.34661507606506	0.09991598129272461
18	341.98986411094666	fix_pre	0		119	16.0	2.5	/experiments/aot/R_S_yt-sPhtPyQM00c_106.mp4	0.0	366.4465310573578	0.9916560649871826
18	342.97341299057007	pulse	0	t		16.0	2.5	/experiments/aot/R_S_yt-sPhtPyQM00c_106.mp4	0.0	367.4300799369812	
18	342.98152017593384	movie	1		301	16.0	2.5	/experiments/aot/R_S_yt-sPhtPyQM00c_106.mp4	0.0	367.43818712234497	2.5083069801330566
18	344.5694041252136	pulse	1	t		16.0	2.5	/experiments/aot/R_S_yt-sPhtPyQM00c_106.mp4	0.0	369.02607107162476	
18	345.4898271560669	fix_post	2		12	16.0	2.5	/experiments/aot/R_S_yt-sPhtPyQM00c_106.mp4	0.0	369.946494102478	0.10012602806091309
19	345.5899531841278	fix_pre	0		120	17.0	2.5	/experiments/aot/S_yt-mL3MuCfKtdY_79.mp4	0.0	370.04662013053894	0.9999938011169434
19	346.1734211444855	pulse	0	t		17.0	2.5	/experiments/aot/S_yt-mL3MuCfKtdY_79.mp4	0.0	370.6300880908966	
19	346.58994698524475	movie	1		300	17.0	2.5	/experiments/aot/S_yt-mL3MuCfKtdY_79.mp4	0.0	371.0466139316559	2.499967098236084
19	347.77335715293884	pulse	1	t		17.0	2.5	/experiments/aot/S_yt-mL3MuCfKtdY_79.mp4	0.0	372.23002409935	
19	349.08991408348083	fix_post	2		12	17.0	2.5	/experiments/aot/S_yt-mL3MuCfKtdY_79.mp4	0.0	373.54658102989197	0.1000070571899414
20	349.1899211406708	fix_pre	0		120	18.0	2.5	/experiments/aot/S_yt-qurTr1BJMec_244.mp4	0.0	373.6465880870819	0.9999749660491943
20	349.3733940124512	pulse	0	t		18.0	2.5	/experiments/aot/S_yt-qurTr1BJMec_244.mp4	0.0	373.8300609588623	
20	350.18989610671997	movie	1		300	18.0	2.5	/experiments/aot/S_yt-qurTr1BJMec_244.mp4	0.0	374.6465630531311	2.4999780654907227
20	350.9733350276947	pulse	1	t		18.0	2.5	/experiments/aot/S_yt-qurTr1BJMec_244.mp4	0.0	375.43000197410583	
20	352.57293915748596	pulse	1	t		18.0	2.5	/experiments/aot/S_yt-qurTr1BJMec_244.mp4	0.0	377.0296061038971	
20	352.6898741722107	fix_post	2		12	18.0	2.5	/experiments/aot/S_yt-qurTr1BJMec_244.mp4	0.0	377.1465411186218	0.1000068187713623
21	352.78988099098206	fix_pre	0		120	19.0	2.5	blank	1.0	377.2465479373932	1.0000150203704834
21	353.78989601135254	movie	1		300	19.0	2.5	blank	1.0	378.2465629577637	2.5001420974731445
21	354.17333006858826	pulse	1	t		19.0	2.5	blank	1.0	378.6299970149994	
21	355.7733151912689	pulse	1	t		19.0	2.5	blank	1.0	380.22998213768005	
21	356.2900381088257	fix_post	2		12	19.0	2.5	blank	1.0	380.7467050552368	0.09978508949279785
22	356.3898231983185	fix_pre	0		119	20.0	2.5	/experiments/aot/R_S_ILSVRC2015_train_00165009.mp4	0.0	380.8464901447296	0.991736888885498
22	357.37336897850037	pulse	0	t		20.0	2.5	/experiments/aot/R_S_ILSVRC2015_train_00165009.mp4	0.0	381.8300359249115	
22	357.381560087204	movie	1		301	20.0	2.5	/experiments/aot/R_S_ILSVRC2015_train_00165009.mp4	0.0	381.8382270336151	2.508297920227051
22	358.96967911720276	pulse	1	t		20.0	2.5	/experiments/aot/R_S_ILSVRC2015_train_00165009.mp4	0.0	383.4263460636139	
22	359.88985800743103	fix_post	2		12	20.0	2.5	/experiments/aot/R_S_ILSVRC2015_train_00165009.mp4	0.0	384.34652495384216	0.10001516342163086
23	359.98987317085266	fix_pre	0		120	21.0	2.5	/experiments/aot/S_yt-kINZMjys3O4_112.mp4	0.0	384.4465401172638	0.9999568462371826
23	360.5733621120453	pulse	0	t		21.0	2.5	/experiments/aot/S_yt-kINZMjys3O4_112.mp4	0.0	385.0300290584564	
23	360.98983001708984	movie	1		300	21.0	2.5	/experiments/aot/S_yt-kINZMjys3O4_112.mp4	0.0	385.446496963501	2.4996509552001953
23	362.17333817481995	pulse	1	t		21.0	2.5	/experiments/aot/S_yt-kINZMjys3O4_112.mp4	0.0	386.6300051212311	
23	363.48948097229004	fix_post	2		12	21.0	2.5	/experiments/aot/S_yt-kINZMjys3O4_112.mp4	0.0	387.9461479187012	0.10031414031982422
24	363.58979511260986	fix_pre	0		120	22.0	2.5	/experiments/aot/R_S_yt-0xzYSBvVfYM_197.mp4	0.0	388.046462059021	1.000074863433838
24	363.7732970714569	pulse	0	t		22.0	2.5	/experiments/aot/R_S_yt-0xzYSBvVfYM_197.mp4	0.0	388.22996401786804	
24	364.5898699760437	movie	1		300	22.0	2.5	/experiments/aot/R_S_yt-0xzYSBvVfYM_197.mp4	0.0	389.04653692245483	2.4998481273651123
24	365.3732521533966	pulse	1	t		22.0	2.5	/experiments/aot/R_S_yt-0xzYSBvVfYM_197.mp4	0.0	389.82991909980774	
24	366.97322511672974	pulse	1	t		22.0	2.5	/experiments/aot/R_S_yt-0xzYSBvVfYM_197.mp4	0.0	391.42989206314087	
24	367.0897181034088	fix_post	2		12	22.0	2.5	/experiments/aot/R_S_yt-0xzYSBvVfYM_197.mp4	0.0	391.54638504981995	0.1000680923461914
25	367.189786195755	fix_pre	0		120	23.0	2.5	/experiments/aot/S_yt-EAMpitsjbbA_153.mp4	0.0	391.64645314216614	0.9999308586120605
25	368.18971705436707	movie	1		299	23.0	2.5	/experiments/aot/S_yt-EAMpitsjbbA_153.mp4	0.0	392.6463840007782	2.5000381469726562
25	368.57322812080383	pulse	1	t		23.0	2.5	/experiments/aot/S_yt-EAMpitsjbbA_153.mp4	0.0	393.02989506721497	
25	370.1733751296997	pulse	1	t		23.0	2.5	/experiments/aot/S_yt-EAMpitsjbbA_153.mp4	0.0	394.63004207611084	
25	370.6897552013397	fix_post	2		12	23.0	2.5	/experiments/aot/S_yt-EAMpitsjbbA_153.mp4	0.0	395.14642214775085	0.10003089904785156
26	370.7897861003876	fix_pre	0		119	24.0	2.5	/experiments/aot/S_yt-eF5J5Kjt6oY_23.mp4	0.0	395.2464530467987	0.9916620254516602
26	371.77338099479675	pulse	0	t		24.0	2.5	/experiments/aot/S_yt-eF5J5Kjt6oY_23.mp4	0.0	396.2300479412079	
26	371.78144812583923	movie	1		301	24.0	2.5	/experiments/aot/S_yt-eF5J5Kjt6oY_23.mp4	0.0	396.23811507225037	2.5079309940338135
26	373.3686611652374	pulse	1	t		24.0	2.5	/experiments/aot/S_yt-eF5J5Kjt6oY_23.mp4	0.0	397.82532811164856	
26	374.28937911987305	fix_post	2		12	24.0	2.5	/experiments/aot/S_yt-eF5J5Kjt6oY_23.mp4	0.0	398.7460460662842	0.10005593299865723
27	374.3894350528717	fix_pre	0		120	25.0	2.5	/experiments/aot/R_S_ILSVRC2015_train_00559000.mp4	0.0	398.84610199928284	1.0005130767822266
27	374.97341108322144	pulse	0	t		25.0	2.5	/experiments/aot/R_S_ILSVRC2015_train_00559000.mp4	0.0	399.43007802963257	
27	375.38994812965393	movie	1		300	25.0	2.5	/experiments/aot/R_S_ILSVRC2015_train_00559000.mp4	0.0	399.84661507606506	2.499871015548706
27	376.57322001457214	pulse	1	t		25.0	2.5	/experiments/aot/R_S_ILSVRC2015_train_00559000.mp4	0.0	401.0298869609833	
27	377.88981914520264	fix_post	2		12	25.0	2.5	/experiments/aot/R_S_ILSVRC2015_train_00559000.mp4	0.0	402.34648609161377	0.09990286827087402
28	377.9897220134735	fix_pre	0		120	26.0	2.5	/experiments/aot/R_S_Pexels_Videos_2791797.mp4	0.0	402.44638895988464	1.000025987625122
28	378.17325019836426	pulse	0	t		26.0	2.5	/experiments/aot/R_S_Pexels_Videos_2791797.mp4	0.0	402.6299171447754	
28	378.98974800109863	movie	1		161	26.0	2.5	/experiments/aot/R_S_Pexels_Videos_2791797.mp4	0.0	403.44641494750977	2.5000600814819336
28	379.7731909751892	pulse	1	t		26.0	2.5	/experiments/aot/R_S_Pexels_Videos_2791797.mp4	0.0	404.22985792160034	
28	381.3732089996338	pulse	1	t		26.0	2.5	/experiments/aot/R_S_Pexels_Videos_2791797.mp4	0.0	405.8298759460449	
28	381.48980808258057	fix_post	2		12	26.0	2.5	/experiments/aot/R_S_Pexels_Videos_2791797.mp4	0.0	405.9464750289917	0.09990596771240234
29	381.58971405029297	fix_pre	0		120	27.0	2.5	blank	1.0	406.0463809967041	0.9999489784240723
29	382.58966302871704	movie	1		300	27.0	2.5	blank	1.0	407.0463299751282	2.5000929832458496
29	382.97316813468933	pulse	1	t		27.0	2.5	blank	1.0	407.42983508110046	
29	384.57313799858093	pulse	1	t		27.0	2.5	blank	1.0	409.02980494499207	
29	385.0897560119629	fix_post	2		12	27.0	2.5	blank	1.0	409.546422958374	0.09997916221618652
30	385.1897351741791	fix_pre	0		119	28.0	2.5	/experiments/aot/S_ILSVRC2015_train_00369000.mp4	0.0	409.6464021205902	0.9915900230407715
30	386.17320108413696	pulse	0	t		28.0	2.5	/experiments/aot/S_ILSVRC2015_train_00369000.mp4	0.0	410.6298680305481	
30	386.18132519721985	movie	1		301	28.0	2.5	/experiments/aot/S_ILSVRC2015_train_00369000.mp4	0.0	410.637992143631	2.5083439350128174
30	387.76896619796753	pulse	1	t		28.0	2.5	/experiments/aot/S_ILSVRC2015_train_00369000.mp4	0.0	412.22563314437866	
30	388.68966913223267	fix_post	2		12	28.0	2.5	/experiments/aot/S_ILSVRC2015_train_00369000.mp4	0.0	413.1463360786438	0.10002899169921875
31	388.7896981239319	fix_pre	0		120	29.0	2.5	/experiments/aot/S_yt-2lnxIdOTxog_157.mp4	0.0	413.246365070343	1.0000019073486328
31	389.3731861114502	pulse	0	t		29.0	2.5	/experiments/aot/S_yt-2lnxIdOTxog_157.mp4	0.0	413.8298530578613	
31	389.7897000312805	movie	1		299	29.0	2.5	/experiments/aot/S_yt-2lnxIdOTxog_157.mp4	0.0	414.24636697769165	2.499979019165039
31	390.9731140136719	pulse	1	t		29.0	2.5	/experiments/aot/S_yt-2lnxIdOTxog_157.mp4	0.0	415.429780960083	
31	392.28967905044556	fix_post	2		12	29.0	2.5	/experiments/aot/S_yt-2lnxIdOTxog_157.mp4	0.0	416.7463459968567	0.10000014305114746
32	392.3896791934967	fix_pre	0		120	30.0	2.5	/experiments/aot/R_S_ILSVRC2015_train_00417000.mp4	0.0	416.84634613990784	0.999957799911499
32	392.57319617271423	pulse	0	t		30.0	2.5	/experiments/aot/R_S_ILSVRC2015_train_00417000.mp4	0.0	417.02986311912537	
32	393.3896369934082	movie	1		300	30.0	2.5	/experiments/aot/R_S_ILSVRC2015_train_00417000.mp4	0.0	417.84630393981934	2.500030040740967
32	394.17323112487793	pulse	1	t		30.0	2.5	/experiments/aot/R_S_ILSVRC2015_train_00417000.mp4	0.0	418.62989807128906	
32	395.7731831073761	pulse	1	t		30.0	2.5	/experiments/aot/R_S_ILSVRC2015_train_00417000.mp4	0.0	420.22985005378723	
32	395.88966703414917	fix_post	2		12	30.0	2.5	/experiments/aot/R_S_ILSVRC2015_train_00417000.mp4	0.0	420.3463339805603	0.09996795654296875
33	395.98963499069214	fix_pre	0		120	31.0	2.5	/experiments/aot/S_yt--5ls65Ue1RA_52.mp4	0.0	420.44630193710327	1.0001230239868164
33	396.98975801467896	movie	1		300	31.0	2.5	/experiments/aot/S_yt--5ls65Ue1RA_52.mp4	0.0	421.4464249610901	2.499955177307129
33	397.37314319610596	pulse	1	t		31.0	2.5	/experiments/aot/S_yt--5ls65Ue1RA_52.mp4	0.0	421.8298101425171	
33	398.9731810092926	pulse	1	t		31.0	2.5	/experiments/aot/S_yt--5ls65Ue1RA_52.mp4	0.0	423.42984795570374	
33	399.4897131919861	fix_post	2		12	31.0	2.5	/experiments/aot/S_yt--5ls65Ue1RA_52.mp4	0.0	423.9463801383972	0.09997200965881348
34	399.5896852016449	fix_pre	0		119	32.0	2.5	/experiments/aot/R_S_yt-RlHmMGUjT9E_130.mp4	0.0	424.04635214805603	0.9916708469390869
34	400.57310009002686	pulse	0	t		32.0	2.5	/experiments/aot/R_S_yt-RlHmMGUjT9E_130.mp4	0.0	425.029767036438	
34	400.581356048584	movie	1		301	32.0	2.5	/experiments/aot/R_S_yt-RlHmMGUjT9E_130.mp4	0.0	425.0380229949951	2.5082690715789795
34	402.17313718795776	pulse	1	t		32.0	2.5	/experiments/aot/R_S_yt-RlHmMGUjT9E_130.mp4	0.0	426.6298041343689	
34	403.08962512016296	fix_post	2		12	32.0	2.5	/experiments/aot/R_S_yt-RlHmMGUjT9E_130.mp4	0.0	427.5462920665741	0.10000395774841309
35	403.1896290779114	fix_pre	0		120	33.0	2.5	/experiments/aot/R_S_ILSVRC2015_train_00165012.mp4	0.0	427.6462960243225	0.9999649524688721
35	403.77314805984497	pulse	0	t		33.0	2.5	/experiments/aot/R_S_ILSVRC2015_train_00165012.mp4	0.0	428.2298150062561	
35	404.18959403038025	movie	1		300	33.0	2.5	/experiments/aot/R_S_ILSVRC2015_train_00165012.mp4	0.0	428.6462609767914	2.5000741481781006
35	405.37309408187866	pulse	1	t		33.0	2.5	/experiments/aot/R_S_ILSVRC2015_train_00165012.mp4	0.0	429.8297610282898	
35	406.68966817855835	fix_post	2		12	33.0	2.5	/experiments/aot/R_S_ILSVRC2015_train_00165012.mp4	0.0	431.1463351249695	0.09994983673095703
36	406.7896180152893	fix_pre	0		120	34.0	2.5	blank	1.0	431.24628496170044	1.0001230239868164
36	406.97313809394836	pulse	0	t		34.0	2.5	blank	1.0	431.4298050403595	
36	407.7897410392761	movie	1		300	34.0	2.5	blank	1.0	432.24640798568726	2.499983072280884
36	408.5731301307678	pulse	1	t		34.0	2.5	blank	1.0	433.02979707717896	
36	410.17300510406494	pulse	1	t		34.0	2.5	blank	1.0	434.6296720504761	
36	410.289724111557	fix_post	2		12	34.0	2.5	blank	1.0	434.74639105796814	0.09993886947631836
37	410.3896629810333	fix_pre	0		120	35.0	2.5	/experiments/aot/R_S_comp_DB_D002_C003_PSNK_v04_SDR_PS_20180914_SDR_2K_AVC.mp4	0.0	434.84632992744446	0.9999589920043945
37	411.3896219730377	movie	1		163	35.0	2.5	/experiments/aot/R_S_comp_DB_D002_C003_PSNK_v04_SDR_PS_20180914_SDR_2K_AVC.mp4	0.0	435.84628891944885	2.499969005584717
37	411.7730829715729	pulse	1	t		35.0	2.5	/experiments/aot/R_S_comp_DB_D002_C003_PSNK_v04_SDR_PS_20180914_SDR_2K_AVC.mp4	0.0	436.229749917984	
37	413.37307119369507	pulse	1	t		35.0	2.5	/experiments/aot/R_S_comp_DB_D002_C003_PSNK_v04_SDR_PS_20180914_SDR_2K_AVC.mp4	0.0	437.8297381401062	
37	413.88959097862244	fix_post	2		12	35.0	2.5	/experiments/aot/R_S_comp_DB_D002_C003_PSNK_v04_SDR_PS_20180914_SDR_2K_AVC.mp4	0.0	438.34625792503357	0.10007500648498535
38	413.9896659851074	fix_pre	0		119	36.0	2.5	/experiments/aot/R_S_yt-kINZMjys3O4_112.mp4	0.0	438.44633293151855	0.9915881156921387
38	414.97316813468933	pulse	0	t		36.0	2.5	/experiments/aot/R_S_yt-kINZMjys3O4_112.mp4	0.0	439.42983508110046	
38	414.98125410079956	movie	1		299	36.0	2.5	/experiments/aot/R_S_yt-kINZMjys3O4_112.mp4	0.0	439.4379210472107	2.5083630084991455
38	416.57307505607605	pulse	1	t		36.0	2.5	/experiments/aot/R_S_yt-kINZMjys3O4_112.mp4	0.0	441.0297420024872	
38	417.4896171092987	fix_post	2		12	36.0	2.5	/experiments/aot/R_S_yt-kINZMjys3O4_112.mp4	0.0	441.94628405570984	0.09988689422607422
39	417.5895040035248	fix_pre	0		120	37.0	2.5	/experiments/aot/R_S_yt-EuyfT0PuOoQ_91.mp4	0.0	442.0461709499359	1.0000030994415283
39	418.1730070114136	pulse	0	t		37.0	2.5	/experiments/aot/R_S_yt-EuyfT0PuOoQ_91.mp4	0.0	442.6296739578247	
39	418.5895071029663	movie	1		300	37.0	2.5	/experiments/aot/R_S_yt-EuyfT0PuOoQ_91.mp4	0.0	443.04617404937744	2.500113010406494
39	419.77301597595215	pulse	1	t		37.0	2.5	/experiments/aot/R_S_yt-EuyfT0PuOoQ_91.mp4	0.0	444.2296829223633	
39	421.0896201133728	fix_post	2		12	37.0	2.5	/experiments/aot/R_S_yt-EuyfT0PuOoQ_91.mp4	0.0	445.54628705978394	0.09995007514953613
40	421.18957018852234	fix_pre	0		120	38.0	2.5	/experiments/aot/S_yt-4rwBpRuHg-c_1308.mp4	0.0	445.6462371349335	1.0000898838043213
40	421.37313199043274	pulse	0	t		38.0	2.5	/experiments/aot/S_yt-4rwBpRuHg-c_1308.mp4	0.0	445.8297989368439	
40	422.18966007232666	movie	1		300	38.0	2.5	/experiments/aot/S_yt-4rwBpRuHg-c_1308.mp4	0.0	446.6463270187378	2.4998910427093506
40	422.97304916381836	pulse	1	t		38.0	2.5	/experiments/aot/S_yt-4rwBpRuHg-c_1308.mp4	0.0	447.4297161102295	
40	424.5729501247406	pulse	1	t		38.0	2.5	/experiments/aot/S_yt-4rwBpRuHg-c_1308.mp4	0.0	449.02961707115173	
40	424.689551115036	fix_post	2		12	38.0	2.5	/experiments/aot/S_yt-4rwBpRuHg-c_1308.mp4	0.0	449.14621806144714	0.09993195533752441
41	424.78948307037354	fix_pre	0		120	39.0	2.5	/experiments/aot/R_S_yt-cjndulbUtRc_51.mp4	0.0	449.24615001678467	1.0000200271606445
41	425.7895030975342	movie	1		299	39.0	2.5	/experiments/aot/R_S_yt-cjndulbUtRc_51.mp4	0.0	450.2461700439453	2.5000159740448
41	426.17313408851624	pulse	1	t		39.0	2.5	/experiments/aot/R_S_yt-cjndulbUtRc_51.mp4	0.0	450.62980103492737	
41	427.77298498153687	pulse	1	t		39.0	2.5	/experiments/aot/R_S_yt-cjndulbUtRc_51.mp4	0.0	452.229651927948	
41	428.289519071579	fix_post	2		12	39.0	2.5	/experiments/aot/R_S_yt-cjndulbUtRc_51.mp4	0.0	452.7461860179901	0.10004997253417969
42	428.38956904411316	fix_pre	0		119	40.0	2.5	/experiments/aot/R_S_yt-wnQFgNEnHUI_109.mp4	0.0	452.8462359905243	0.9916300773620605
42	429.3726191520691	pulse	0	t		40.0	2.5	/experiments/aot/R_S_yt-wnQFgNEnHUI_109.mp4	0.0	453.8292860984802	
42	429.3811991214752	movie	1		301	40.0	2.5	/experiments/aot/R_S_yt-wnQFgNEnHUI_109.mp4	0.0	453.83786606788635	2.5082240104675293
42	430.97317004203796	pulse	1	t		40.0	2.5	/experiments/aot/R_S_yt-wnQFgNEnHUI_109.mp4	0.0	455.4298369884491	
42	431.88942313194275	fix_post	2		12	40.0	2.5	/experiments/aot/R_S_yt-wnQFgNEnHUI_109.mp4	0.0	456.3460900783539	0.09993505477905273
43	431.9893581867218	fix_pre	0		120	41.0	2.5	/experiments/aot/R_S_yt-j3Sk8ZnAiEA_32.mp4	0.0	456.44602513313293	1.0001788139343262
43	432.5730490684509	pulse	0	t		41.0	2.5	/experiments/aot/R_S_yt-j3Sk8ZnAiEA_32.mp4	0.0	457.02971601486206	
43	432.9895370006561	movie	1		300	41.0	2.5	/experiments/aot/R_S_yt-j3Sk8ZnAiEA_32.mp4	0.0	457.44620394706726	2.4999561309814453
43	434.1729371547699	pulse	1	t		41.0	2.5	/experiments/aot/R_S_yt-j3Sk8ZnAiEA_32.mp4	0.0	458.62960410118103	
43	435.4894931316376	fix_post	2		12	41.0	2.5	/experiments/aot/R_S_yt-j3Sk8ZnAiEA_32.mp4	0.0	459.9461600780487	0.10000801086425781
44	435.58950114250183	fix_pre	0		120	42.0	2.5	blank	1.0	460.04616808891296	0.9999828338623047
44	435.773010969162	pulse	0	t		42.0	2.5	blank	1.0	460.2296779155731	
44	436.58948397636414	movie	1		300	42.0	2.5	blank	1.0	461.04615092277527	2.4999501705169678
44	437.3729419708252	pulse	1	t		42.0	2.5	blank	1.0	461.8296089172363	
44	438.97290802001953	pulse	1	t		42.0	2.5	blank	1.0	463.42957496643066	
44	439.0894341468811	fix_post	2		12	42.0	2.5	blank	1.0	463.54610109329224	0.10008692741394043
45	439.18952107429504	fix_pre	0		120	43.0	2.5	/experiments/aot/S_yt-7W50lcw5FCo_37.mp4	0.0	463.6461880207062	0.9998719692230225
45	440.18939304351807	movie	1		300	43.0	2.5	/experiments/aot/S_yt-7W50lcw5FCo_37.mp4	0.0	464.6460599899292	2.4999921321868896
45	440.57286405563354	pulse	1	t		43.0	2.5	/experiments/aot/S_yt-7W50lcw5FCo_37.mp4	0.0	465.0295310020447	
45	442.17290210723877	pulse	1	t		43.0	2.5	/experiments/aot/S_yt-7W50lcw5FCo_37.mp4	0.0	466.6295690536499	
45	442.68938517570496	fix_post	2		12	43.0	2.5	/experiments/aot/S_yt-7W50lcw5FCo_37.mp4	0.0	467.1460521221161	0.0999758243560791
46	442.78936100006104	fix_pre	0		119	44.0	2.5	/experiments/aot/S_yt-Bx2kLEUuN0E_456.mp4	0.0	467.24602794647217	0.9917089939117432
46	443.77296018600464	pulse	0	t		44.0	2.5	/experiments/aot/S_yt-Bx2kLEUuN0E_456.mp4	0.0	468.22962713241577	
46	443.7810699939728	movie	1		301	44.0	2.5	/experiments/aot/S_yt-Bx2kLEUuN0E_456.mp4	0.0	468.2377369403839	2.5083320140838623
46	445.372887134552	pulse	1	t		44.0	2.5	/experiments/aot/S_yt-Bx2kLEUuN0E_456.mp4	0.0	469.82955408096313	
46	446.28940200805664	fix_post	2		12	44.0	2.5	/experiments/aot/S_yt-Bx2kLEUuN0E_456.mp4	0.0	470.7460689544678	0.10011100769042969
47	446.38951301574707	fix_pre	0		120	45.0	2.5	/experiments/aot/S_yt-22c5eZ1UNME_76.mp4	0.0	470.8461799621582	0.9999251365661621
47	446.9729449748993	pulse	0	t		45.0	2.5	/experiments/aot/S_yt-22c5eZ1UNME_76.mp4	0.0	471.4296119213104	
47	447.38943815231323	movie	1		300	45.0	2.5	/experiments/aot/S_yt-22c5eZ1UNME_76.mp4	0.0	471.84610509872437	2.4999349117279053
47	448.5728931427002	pulse	1	t		45.0	2.5	/experiments/aot/S_yt-22c5eZ1UNME_76.mp4	0.0	473.0295600891113	
47	449.88937306404114	fix_post	2		12	45.0	2.5	/experiments/aot/S_yt-22c5eZ1UNME_76.mp4	0.0	474.34604001045227	0.10008907318115234
48	449.9894621372223	fix_pre	0		120	46.0	2.5	/experiments/aot/R_S_yt-06XMUn9DTKc_35.mp4	0.0	474.4461290836334	0.9999139308929443
48	450.1729221343994	pulse	0	t		46.0	2.5	/experiments/aot/R_S_yt-06XMUn9DTKc_35.mp4	0.0	474.62958908081055	
48	450.98937606811523	movie	1		300	46.0	2.5	/experiments/aot/R_S_yt-06XMUn9DTKc_35.mp4	0.0	475.44604301452637	2.50006103515625
48	451.7729070186615	pulse	1	t		46.0	2.5	/experiments/aot/R_S_yt-06XMUn9DTKc_35.mp4	0.0	476.22957396507263	
48	453.3729000091553	pulse	1	t		46.0	2.5	/experiments/aot/R_S_yt-06XMUn9DTKc_35.mp4	0.0	477.8295669555664	
48	453.4894371032715	fix_post	2		12	46.0	2.5	/experiments/aot/R_S_yt-06XMUn9DTKc_35.mp4	0.0	477.9461040496826	0.0998830795288086
49	453.5893201828003	fix_pre	0		120	47.0	2.5	blank	1.0	478.0459871292114	1.0000998973846436
49	454.58942008018494	movie	1		300	47.0	2.5	blank	1.0	479.04608702659607	2.4999539852142334
49	454.97291707992554	pulse	1	t		47.0	2.5	blank	1.0	479.42958402633667	
49	456.57293009757996	pulse	1	t		47.0	2.5	blank	1.0	481.0295970439911	
49	457.08937406539917	fix_post	2		12	47.0	2.5	blank	1.0	481.5460410118103	0.09994912147521973
50	457.1893231868744	fix_pre	0		119	48.0	2.5	/experiments/aot/R_S_yt-ejSzwn8tY8g_49.mp4	0.0	481.6459901332855	0.991710901260376
50	458.1728711128235	pulse	0	t		48.0	2.5	/experiments/aot/R_S_yt-ejSzwn8tY8g_49.mp4	0.0	482.6295380592346	
50	458.18103408813477	movie	1		301	48.0	2.5	/experiments/aot/R_S_yt-ejSzwn8tY8g_49.mp4	0.0	482.6377010345459	2.508384943008423
50	459.7728621959686	pulse	1	t		48.0	2.5	/experiments/aot/R_S_yt-ejSzwn8tY8g_49.mp4	0.0	484.22952914237976	
50	460.6894190311432	fix_post	2		12	48.0	2.5	/experiments/aot/R_S_yt-ejSzwn8tY8g_49.mp4	0.0	485.1460859775543	0.0999600887298584
51	460.78937911987305	fix_pre	0		120	49.0	2.5	/experiments/aot/R_S_ILSVRC2015_train_00473000.mp4	0.0	485.2460460662842	0.9999198913574219
51	461.3728041648865	pulse	0	t		49.0	2.5	/experiments/aot/R_S_ILSVRC2015_train_00473000.mp4	0.0	485.8294711112976	
51	461.78929901123047	movie	1		299	49.0	2.5	/experiments/aot/R_S_ILSVRC2015_train_00473000.mp4	0.0	486.2459659576416	2.500108003616333
51	462.97290205955505	pulse	1	t		49.0	2.5	/experiments/aot/R_S_ILSVRC2015_train_00473000.mp4	0.0	487.4295690059662	
51	464.2894070148468	fix_post	2		12	49.0	2.5	/experiments/aot/R_S_ILSVRC2015_train_00473000.mp4	0.0	488.74607396125793	0.09986495971679688
52	464.3892719745636	fix_pre	0		120	50.0	2.5	/experiments/aot/S_yt-HMAa2QbfFPI_216.mp4	0.0	488.84593892097473	1.0001161098480225
52	464.57284712791443	pulse	0	t		50.0	2.5	/experiments/aot/S_yt-HMAa2QbfFPI_216.mp4	0.0	489.02951407432556	
52	465.3893880844116	movie	1		300	50.0	2.5	/experiments/aot/S_yt-HMAa2QbfFPI_216.mp4	0.0	489.84605503082275	2.4998769760131836
52	466.1728620529175	pulse	1	t		50.0	2.5	/experiments/aot/S_yt-HMAa2QbfFPI_216.mp4	0.0	490.6295289993286	
52	467.772833108902	pulse	1	t		50.0	2.5	/experiments/aot/S_yt-HMAa2QbfFPI_216.mp4	0.0	492.2295000553131	
52	467.8892650604248	fix_post	2		12	50.0	2.5	/experiments/aot/S_yt-HMAa2QbfFPI_216.mp4	0.0	492.34593200683594	0.1001129150390625
53	467.98937797546387	fix_pre	0		120	51.0	2.5	/experiments/aot/R_S_comp_GL_G002_C002_PSNK_v03_SDR_PS_20180925_SDR_2K_AVC.mp4	0.0	492.446044921875	0.9999902248382568
53	468.9893682003021	movie	1		164	51.0	2.5	/experiments/aot/R_S_comp_GL_G002_C002_PSNK_v03_SDR_PS_20180925_SDR_2K_AVC.mp4	0.0	493.44603514671326	2.4999399185180664
53	469.37289905548096	pulse	1	t		51.0	2.5	/experiments/aot/R_S_comp_GL_G002_C002_PSNK_v03_SDR_PS_20180925_SDR_2K_AVC.mp4	0.0	493.8295660018921	
53	470.97280406951904	pulse	1	t		51.0	2.5	/experiments/aot/R_S_comp_GL_G002_C002_PSNK_v03_SDR_PS_20180925_SDR_2K_AVC.mp4	0.0	495.4294710159302	
53	471.4893081188202	fix_post	2		12	51.0	2.5	/experiments/aot/R_S_comp_GL_G002_C002_PSNK_v03_SDR_PS_20180925_SDR_2K_AVC.mp4	0.0	495.9459750652313	0.10001587867736816
54	471.58932399749756	fix_pre	0		119	52.0	2.5	/experiments/aot/R_S_yt-rB3YVZvA78w_20.mp4	0.0	496.0459909439087	0.991549015045166
54	472.57277512550354	pulse	0	t		52.0	2.5	/experiments/aot/R_S_yt-rB3YVZvA78w_20.mp4	0.0	497.0294420719147	
54	472.5808730125427	movie	1		301	52.0	2.5	/experiments/aot/R_S_yt-rB3YVZvA78w_20.mp4	0.0	497.03753995895386	2.508519172668457
54	474.17281198501587	pulse	1	t		52.0	2.5	/experiments/aot/R_S_yt-rB3YVZvA78w_20.mp4	0.0	498.629478931427	
54	475.0893921852112	fix_post	2		12	52.0	2.5	/experiments/aot/R_S_yt-rB3YVZvA78w_20.mp4	0.0	499.5460591316223	0.09989285469055176
55	475.18928503990173	fix_pre	0		120	53.0	2.5	/experiments/aot/R_S_yt-mL3MuCfKtdY_79.mp4	0.0	499.64595198631287	1.0000660419464111
55	475.7727429866791	pulse	0	t		53.0	2.5	/experiments/aot/R_S_yt-mL3MuCfKtdY_79.mp4	0.0	500.2294099330902	
55	476.18935108184814	movie	1		300	53.0	2.5	/experiments/aot/R_S_yt-mL3MuCfKtdY_79.mp4	0.0	500.6460180282593	2.4999608993530273
55	477.3727581501007	pulse	1	t		53.0	2.5	/experiments/aot/R_S_yt-mL3MuCfKtdY_79.mp4	0.0	501.82942509651184	
55	478.6893119812012	fix_post	2		12	53.0	2.5	/experiments/aot/R_S_yt-mL3MuCfKtdY_79.mp4	0.0	503.1459789276123	0.10004520416259766
56	478.78935718536377	fix_pre	0		120	54.0	2.5	/experiments/aot/R_S_yt-etQaTgGOhR4_69.mp4	0.0	503.2460241317749	0.9999599456787109
56	478.9728820323944	pulse	0	t		54.0	2.5	/experiments/aot/R_S_yt-etQaTgGOhR4_69.mp4	0.0	503.42954897880554	
56	479.7893171310425	movie	1		300	54.0	2.5	/experiments/aot/R_S_yt-etQaTgGOhR4_69.mp4	0.0	504.2459840774536	2.499976873397827
56	480.5726811885834	pulse	1	t		54.0	2.5	/experiments/aot/R_S_yt-etQaTgGOhR4_69.mp4	0.0	505.0293481349945	
56	482.17273712158203	pulse	1	t		54.0	2.5	/experiments/aot/R_S_yt-etQaTgGOhR4_69.mp4	0.0	506.62940406799316	
56	482.2892940044403	fix_post	2		12	54.0	2.5	/experiments/aot/R_S_yt-etQaTgGOhR4_69.mp4	0.0	506.74596095085144	0.10001516342163086
57	482.38930916786194	fix_pre	0		120	55.0	2.5	blank	1.0	506.84597611427307	0.999953031539917
57	483.38926219940186	movie	1		300	55.0	2.5	blank	1.0	507.845929145813	2.499664783477783
57	483.77284812927246	pulse	1	t		55.0	2.5	blank	1.0	508.2295150756836	
57	485.372230052948	pulse	1	t		55.0	2.5	blank	1.0	509.82889699935913	
57	485.88892698287964	fix_post	2		12	55.0	2.5	blank	1.0	510.34559392929077	0.09995913505554199
58	485.9888861179352	fix_pre	0		119	56.0	2.5	/experiments/aot/R_S_yt-zgimmOcW5Mc_127.mp4	0.0	510.4455530643463	0.9921479225158691
58	486.9729371070862	pulse	0	t		56.0	2.5	/experiments/aot/R_S_yt-zgimmOcW5Mc_127.mp4	0.0	511.4296040534973	
58	486.98103404045105	movie	1		301	56.0	2.5	/experiments/aot/R_S_yt-zgimmOcW5Mc_127.mp4	0.0	511.4377009868622	2.508265972137451
58	488.5696671009064	pulse	1	t		56.0	2.5	/experiments/aot/R_S_yt-zgimmOcW5Mc_127.mp4	0.0	513.0263340473175	
58	489.4893000125885	fix_post	2		12	56.0	2.5	/experiments/aot/R_S_yt-zgimmOcW5Mc_127.mp4	0.0	513.9459669589996	0.09995818138122559
59	489.5892581939697	fix_pre	0		120	57.0	2.5	/experiments/aot/R_S_yt-22c5eZ1UNME_76.mp4	0.0	514.0459251403809	1.000013828277588
59	490.17279720306396	pulse	0	t		57.0	2.5	/experiments/aot/R_S_yt-22c5eZ1UNME_76.mp4	0.0	514.6294641494751	
59	490.5892720222473	movie	1		300	57.0	2.5	/experiments/aot/R_S_yt-22c5eZ1UNME_76.mp4	0.0	515.0459389686584	2.5000381469726562
59	491.772714138031	pulse	1	t		57.0	2.5	/experiments/aot/R_S_yt-22c5eZ1UNME_76.mp4	0.0	516.2293810844421	
59	493.08931016921997	fix_post	2		12	57.0	2.5	/experiments/aot/R_S_yt-22c5eZ1UNME_76.mp4	0.0	517.5459771156311	0.09985685348510742
60	493.1891670227051	fix_pre	0		120	58.0	2.5	/experiments/aot/R_S_yt-n6aLw10f2Yw_317.mp4	0.0	517.6458339691162	0.9999990463256836
60	493.37268114089966	pulse	0	t		58.0	2.5	/experiments/aot/R_S_yt-n6aLw10f2Yw_317.mp4	0.0	517.8293480873108	
60	494.18916606903076	movie	1		299	58.0	2.5	/experiments/aot/R_S_yt-n6aLw10f2Yw_317.mp4	0.0	518.6458330154419	2.499967098236084
60	494.9727461338043	pulse	1	t		58.0	2.5	/experiments/aot/R_S_yt-n6aLw10f2Yw_317.mp4	0.0	519.4294130802155	
60	496.57258915901184	pulse	1	t		58.0	2.5	/experiments/aot/R_S_yt-n6aLw10f2Yw_317.mp4	0.0	521.029256105423	
60	496.68913316726685	fix_post	2		12	58.0	2.5	/experiments/aot/R_S_yt-n6aLw10f2Yw_317.mp4	0.0	521.145800113678	0.10007596015930176
61	496.78920912742615	fix_pre	0		120	59.0	2.5	/experiments/aot/R_S_yt-6xXEMHBQ08A_28.mp4	0.0	521.2458760738373	0.9999010562896729
61	497.7891101837158	movie	1		300	59.0	2.5	/experiments/aot/R_S_yt-6xXEMHBQ08A_28.mp4	0.0	522.245777130127	2.50003981590271
61	498.17263102531433	pulse	1	t		59.0	2.5	/experiments/aot/R_S_yt-6xXEMHBQ08A_28.mp4	0.0	522.6292979717255	
61	499.77257800102234	pulse	1	t		59.0	2.5	/experiments/aot/R_S_yt-6xXEMHBQ08A_28.mp4	0.0	524.2292449474335	
61	500.28914999961853	fix_post	2		12	59.0	2.5	/experiments/aot/R_S_yt-6xXEMHBQ08A_28.mp4	0.0	524.7458169460297	0.10000109672546387
62	500.389151096344	fix_pre	0		119	60.0	2.5	/experiments/aot/S_yt-Ub5Xx5BqIOk_74.mp4	0.0	524.8458180427551	0.99167799949646
62	501.3725919723511	pulse	0	t		60.0	2.5	/experiments/aot/S_yt-Ub5Xx5BqIOk_74.mp4	0.0	525.8292589187622	
62	501.38082909584045	movie	1		301	60.0	2.5	/experiments/aot/S_yt-Ub5Xx5BqIOk_74.mp4	0.0	525.8374960422516	2.508373975753784
62	502.97270798683167	pulse	1	t		60.0	2.5	/experiments/aot/S_yt-Ub5Xx5BqIOk_74.mp4	0.0	527.4293749332428	
62	503.88920307159424	fix_post	2		12	60.0	2.5	/experiments/aot/S_yt-Ub5Xx5BqIOk_74.mp4	0.0	528.3458700180054	0.09989309310913086
63	503.98909616470337	fix_pre	0		120	61.0	2.5	/experiments/aot/S_yt-Ev39pXXfr1Y_152.mp4	0.0	528.4457631111145	1.000032901763916
63	504.57269310951233	pulse	0	t		61.0	2.5	/experiments/aot/S_yt-Ev39pXXfr1Y_152.mp4	0.0	529.0293600559235	
63	504.9891290664673	movie	1		300	61.0	2.5	/experiments/aot/S_yt-Ev39pXXfr1Y_152.mp4	0.0	529.4457960128784	2.500005006790161
63	506.1726360321045	pulse	1	t		61.0	2.5	/experiments/aot/S_yt-Ev39pXXfr1Y_152.mp4	0.0	530.6293029785156	
63	507.48913407325745	fix_post	2		12	61.0	2.5	/experiments/aot/S_yt-Ev39pXXfr1Y_152.mp4	0.0	531.9458010196686	0.09995508193969727
64	507.58908915519714	fix_pre	0		120	62.0	2.5	blank	1.0	532.0457561016083	1.0000498294830322
64	507.7726390361786	pulse	0	t		62.0	2.5	blank	1.0	532.2293059825897	
64	508.5891389846802	movie	1		300	62.0	2.5	blank	1.0	533.0458059310913	2.499932050704956
64	509.37261414527893	pulse	1	t		62.0	2.5	blank	1.0	533.8292810916901	
64	510.9725580215454	pulse	1	t		62.0	2.5	blank	1.0	535.4292249679565	
64	511.08907103538513	fix_post	2		12	62.0	2.5	blank	1.0	535.5457379817963	0.09996414184570312
65	511.18903517723083	fix_pre	0		120	63.0	2.5	/experiments/aot/R_S_yt-0xzYSBvVfYM_197.mp4	0.0	535.645702123642	1.0000689029693604
65	512.1891040802002	movie	1		300	63.0	2.5	/experiments/aot/R_S_yt-0xzYSBvVfYM_197.mp4	0.0	536.6457710266113	2.5000240802764893
65	512.5726029872894	pulse	1	t		63.0	2.5	/experiments/aot/R_S_yt-0xzYSBvVfYM_197.mp4	0.0	537.0292699337006	
65	514.1725521087646	pulse	1	t		63.0	2.5	/experiments/aot/R_S_yt-0xzYSBvVfYM_197.mp4	0.0	538.6292190551758	
65	514.6891281604767	fix_post	2		12	63.0	2.5	/experiments/aot/R_S_yt-0xzYSBvVfYM_197.mp4	0.0	539.1457951068878	0.10000085830688477
66	514.7891290187836	fix_pre	0		119	64.0	2.5	/experiments/aot/R_S_yt-O_4DgW-XKvA_35.mp4	0.0	539.2457959651947	0.9918131828308105
66	515.7726120948792	pulse	0	t		64.0	2.5	/experiments/aot/R_S_yt-O_4DgW-XKvA_35.mp4	0.0	540.2292790412903	
66	515.7809422016144	movie	1		301	64.0	2.5	/experiments/aot/R_S_yt-O_4DgW-XKvA_35.mp4	0.0	540.2376091480255	2.5081229209899902
66	517.3727741241455	pulse	1	t		64.0	2.5	/experiments/aot/R_S_yt-O_4DgW-XKvA_35.mp4	0.0	541.8294410705566	
66	518.2890651226044	fix_post	2		12	64.0	2.5	/experiments/aot/R_S_yt-O_4DgW-XKvA_35.mp4	0.0	542.7457320690155	0.10004591941833496
67	518.3891110420227	fix_pre	0		120	65.0	2.5	/experiments/aot/S_bing-www_dailymotion_com_video_x4kcklg_53.mp4	0.0	542.8457779884338	1.0001380443572998
67	518.9725661277771	pulse	0	t		65.0	2.5	/experiments/aot/S_bing-www_dailymotion_com_video_x4kcklg_53.mp4	0.0	543.4292330741882	
67	519.38924908638	movie	1		162	65.0	2.5	/experiments/aot/S_bing-www_dailymotion_com_video_x4kcklg_53.mp4	0.0	543.8459160327911	2.499735116958618
67	520.572573184967	pulse	1	t		65.0	2.5	/experiments/aot/S_bing-www_dailymotion_com_video_x4kcklg_53.mp4	0.0	545.0292401313782	
67	521.8889842033386	fix_post	2		12	65.0	2.5	/experiments/aot/S_bing-www_dailymotion_com_video_x4kcklg_53.mp4	0.0	546.3456511497498	0.10007977485656738
68	521.9890639781952	fix_pre	0		120	66.0	2.5	/experiments/aot/R_S_yt-4sSV4iIs8gQ_55.mp4	0.0	546.4457309246063	0.999906063079834
68	522.1726222038269	pulse	0	t		66.0	2.5	/experiments/aot/R_S_yt-4sSV4iIs8gQ_55.mp4	0.0	546.629289150238	
68	522.988970041275	movie	1		300	66.0	2.5	/experiments/aot/R_S_yt-4sSV4iIs8gQ_55.mp4	0.0	547.4456369876862	2.500020980834961
68	523.7725880146027	pulse	1	t		66.0	2.5	/experiments/aot/R_S_yt-4sSV4iIs8gQ_55.mp4	0.0	548.2292549610138	
68	525.3725550174713	pulse	1	t		66.0	2.5	/experiments/aot/R_S_yt-4sSV4iIs8gQ_55.mp4	0.0	549.8292219638824	
68	525.48899102211	fix_post	2		12	66.0	2.5	/experiments/aot/R_S_yt-4sSV4iIs8gQ_55.mp4	0.0	549.9456579685211	0.09994912147521973
69	525.5889401435852	fix_pre	0		120	67.0	2.5	/experiments/aot/S_production_ID_4707837.mp4	0.0	550.0456070899963	1.0000619888305664
69	526.5890021324158	movie	1		164	67.0	2.5	/experiments/aot/S_production_ID_4707837.mp4	0.0	551.0456690788269	2.500098943710327
69	526.972647190094	pulse	1	t		67.0	2.5	/experiments/aot/S_production_ID_4707837.mp4	0.0	551.4293141365051	
69	528.572573184967	pulse	1	t		67.0	2.5	/experiments/aot/S_production_ID_4707837.mp4	0.0	553.0292401313782	
69	529.0891010761261	fix_post	2		12	67.0	2.5	/experiments/aot/S_production_ID_4707837.mp4	0.0	553.5457680225372	0.09992408752441406
70	529.1890251636505	fix_pre	0		119	68.0	2.5	blank	1.0	553.6456921100616	0.9916458129882812
70	530.1725649833679	pulse	0	t		68.0	2.5	blank	1.0	554.629231929779	
70	530.1806709766388	movie	1		301	68.0	2.5	blank	1.0	554.6373379230499	2.508316993713379
70	531.772490978241	pulse	1	t		68.0	2.5	blank	1.0	556.2291579246521	
70	532.6889879703522	fix_post	2		12	68.0	2.5	blank	1.0	557.1456549167633	0.10000205039978027
71	532.788990020752	fix_pre	0		120	69.0	2.5	/experiments/aot/S_yt-wEbfIR14zZ8_7.mp4	0.0	557.2456569671631	1.000049114227295
71	533.3724970817566	pulse	0	t		69.0	2.5	/experiments/aot/S_yt-wEbfIR14zZ8_7.mp4	0.0	557.8291640281677	
71	533.7890391349792	movie	1		300	69.0	2.5	/experiments/aot/S_yt-wEbfIR14zZ8_7.mp4	0.0	558.2457060813904	2.4999959468841553
71	534.9725630283356	pulse	1	t		69.0	2.5	/experiments/aot/S_yt-wEbfIR14zZ8_7.mp4	0.0	559.4292299747467	
71	536.2890350818634	fix_post	2		12	69.0	2.5	/experiments/aot/S_yt-wEbfIR14zZ8_7.mp4	0.0	560.7457020282745	0.09988594055175781
72	536.3889210224152	fix_pre	0		120	70.0	2.5	/experiments/aot/R_S_yt-n_eO-7KedAE_21.mp4	0.0	560.8455879688263	1.000133991241455
72	536.5725090503693	pulse	0	t		70.0	2.5	/experiments/aot/R_S_yt-n_eO-7KedAE_21.mp4	0.0	561.0291759967804	
72	537.3890550136566	movie	1		300	70.0	2.5	/experiments/aot/R_S_yt-n_eO-7KedAE_21.mp4	0.0	561.8457219600677	2.5000691413879395
72	538.1725010871887	pulse	1	t		70.0	2.5	/experiments/aot/R_S_yt-n_eO-7KedAE_21.mp4	0.0	562.6291680335999	
72	539.7725741863251	pulse	1	t		70.0	2.5	/experiments/aot/R_S_yt-n_eO-7KedAE_21.mp4	0.0	564.2292411327362	
72	539.8891241550446	fix_post	2		12	70.0	2.5	/experiments/aot/R_S_yt-n_eO-7KedAE_21.mp4	0.0	564.3457911014557	0.09990692138671875
73	539.9890310764313	fix_pre	0		120	71.0	2.5	/experiments/aot/R_S_yt-rB3YVZvA78w_20.mp4	0.0	564.4456980228424	0.9999520778656006
73	540.9889831542969	movie	1		300	71.0	2.5	/experiments/aot/R_S_yt-rB3YVZvA78w_20.mp4	0.0	565.445650100708	2.500248908996582
73	541.3719990253448	pulse	1	t		71.0	2.5	/experiments/aot/R_S_yt-rB3YVZvA78w_20.mp4	0.0	565.828665971756	
73	542.972207069397	pulse	1	t		71.0	2.5	/experiments/aot/R_S_yt-rB3YVZvA78w_20.mp4	0.0	567.4288740158081	
73	543.4892320632935	fix_post	2		12	71.0	2.5	/experiments/aot/R_S_yt-rB3YVZvA78w_20.mp4	0.0	567.9458990097046	0.10003805160522461
74	543.5892701148987	fix_pre	0		119	72.0	2.5	/experiments/aot/R_S_ILSVRC2015_train_00689000.mp4	0.0	568.0459370613098	0.9914610385894775
74	544.5724701881409	pulse	0	t		72.0	2.5	/experiments/aot/R_S_ILSVRC2015_train_00689000.mp4	0.0	569.029137134552	
74	544.5807311534882	movie	1		301	72.0	2.5	/experiments/aot/R_S_ILSVRC2015_train_00689000.mp4	0.0	569.0373980998993	2.508244037628174
74	546.1724321842194	pulse	1	t		72.0	2.5	/experiments/aot/R_S_ILSVRC2015_train_00689000.mp4	0.0	570.6290991306305	
74	547.0889751911163	fix_post	2		12	72.0	2.5	/experiments/aot/R_S_ILSVRC2015_train_00689000.mp4	0.0	571.5456421375275	0.10000300407409668
75	547.1889781951904	fix_pre	0		120	73.0	2.5	/experiments/aot/R_S_yt-kINZMjys3O4_112.mp4	0.0	571.6456451416016	1.000072956085205
75	547.7723951339722	pulse	0	t		73.0	2.5	/experiments/aot/R_S_yt-kINZMjys3O4_112.mp4	0.0	572.2290620803833	
75	548.1890511512756	movie	1		300	73.0	2.5	/experiments/aot/R_S_yt-kINZMjys3O4_112.mp4	0.0	572.6457180976868	2.499863862991333
75	549.3723211288452	pulse	1	t		73.0	2.5	/experiments/aot/R_S_yt-kINZMjys3O4_112.mp4	0.0	573.8289880752563	
75	550.688915014267	fix_post	2		12	73.0	2.5	/experiments/aot/R_S_yt-kINZMjys3O4_112.mp4	0.0	575.1455819606781	0.10005497932434082
76	550.7889699935913	fix_pre	0		120	74.0	2.5	/experiments/aot/R_S__6qAy77ODUI_175.mp4	0.0	575.2456369400024	0.9999229907989502
76	550.972421169281	pulse	0	t		74.0	2.5	/experiments/aot/R_S__6qAy77ODUI_175.mp4	0.0	575.4290881156921	
76	551.7888929843903	movie	1		300	74.0	2.5	/experiments/aot/R_S__6qAy77ODUI_175.mp4	0.0	576.2455599308014	2.500042200088501
76	552.5723090171814	pulse	1	t		74.0	2.5	/experiments/aot/R_S__6qAy77ODUI_175.mp4	0.0	577.0289759635925	
76	554.1720261573792	pulse	1	t		74.0	2.5	/experiments/aot/R_S__6qAy77ODUI_175.mp4	0.0	578.6286931037903	
76	554.2889351844788	fix_post	2		12	74.0	2.5	/experiments/aot/R_S__6qAy77ODUI_175.mp4	0.0	578.7456021308899	0.09996485710144043
77	554.3889000415802	fix_pre	0		120	75.0	2.5	/experiments/aot/S_yt-_7HJhRPVmHw_255.mp4	0.0	578.8455669879913	1.0000669956207275
77	555.3889670372009	movie	1		300	75.0	2.5	/experiments/aot/S_yt-_7HJhRPVmHw_255.mp4	0.0	579.8456339836121	2.4999539852142334
77	555.7724411487579	pulse	1	t		75.0	2.5	/experiments/aot/S_yt-_7HJhRPVmHw_255.mp4	0.0	580.2291080951691	
77	557.3722860813141	pulse	1	t		75.0	2.5	/experiments/aot/S_yt-_7HJhRPVmHw_255.mp4	0.0	581.8289530277252	
77	557.8889210224152	fix_post	2		12	75.0	2.5	/experiments/aot/S_yt-_7HJhRPVmHw_255.mp4	0.0	582.3455879688263	0.09998416900634766
78	557.9889051914215	fix_pre	0		119	76.0	2.5	/experiments/aot/S_yt-cokedWwwYYs_136.mp4	0.0	582.4455721378326	0.991675853729248
78	558.9724750518799	pulse	0	t		76.0	2.5	/experiments/aot/S_yt-cokedWwwYYs_136.mp4	0.0	583.429141998291	
78	558.9805810451508	movie	1		301	76.0	2.5	/experiments/aot/S_yt-cokedWwwYYs_136.mp4	0.0	583.4372479915619	2.508286952972412
78	560.5723421573639	pulse	1	t		76.0	2.5	/experiments/aot/S_yt-cokedWwwYYs_136.mp4	0.0	585.029009103775	
78	561.4888679981232	fix_post	2		12	76.0	2.5	/experiments/aot/S_yt-cokedWwwYYs_136.mp4	0.0	585.9455349445343	0.10001707077026367
79	561.5888850688934	fix_pre	0		120	77.0	2.5	blank	1.0	586.0455520153046	1.0000410079956055
79	562.1723511219025	pulse	0	t		77.0	2.5	blank	1.0	586.6290180683136	
79	562.588926076889	movie	1		300	77.0	2.5	blank	1.0	587.0455930233002	2.4999799728393555
79	563.7723879814148	pulse	1	t		77.0	2.5	blank	1.0	588.2290549278259	
79	565.0889060497284	fix_post	2		12	77.0	2.5	blank	1.0	589.5455729961395	0.1000070571899414
80	565.1889131069183	fix_pre	0		120	78.0	2.5	/experiments/aot/R_S_ILSVRC2015_train_00584001.mp4	0.0	589.6455800533295	1.0000278949737549
80	565.3723781108856	pulse	0	t		78.0	2.5	/experiments/aot/R_S_ILSVRC2015_train_00584001.mp4	0.0	589.8290450572968	
80	566.1889410018921	movie	1		299	78.0	2.5	/experiments/aot/R_S_ILSVRC2015_train_00584001.mp4	0.0	590.6456079483032	2.499897003173828
80	566.9723701477051	pulse	1	t		78.0	2.5	/experiments/aot/R_S_ILSVRC2015_train_00584001.mp4	0.0	591.4290370941162	
80	568.5718810558319	pulse	1	t		78.0	2.5	/experiments/aot/R_S_ILSVRC2015_train_00584001.mp4	0.0	593.028548002243	
80	568.6888380050659	fix_post	2		12	78.0	2.5	/experiments/aot/R_S_ILSVRC2015_train_00584001.mp4	0.0	593.145504951477	0.10000014305114746
81	568.7888381481171	fix_pre	0		120	79.0	2.5	/experiments/aot/R_S_yt-UzWRbs9Syf4_7.mp4	0.0	593.2455050945282	1.000025987625122
81	569.7888641357422	movie	1		300	79.0	2.5	/experiments/aot/R_S_yt-UzWRbs9Syf4_7.mp4	0.0	594.2455310821533	2.500053882598877
81	570.1722509860992	pulse	1	t		79.0	2.5	/experiments/aot/R_S_yt-UzWRbs9Syf4_7.mp4	0.0	594.6289179325104	
81	571.7723701000214	pulse	1	t		79.0	2.5	/experiments/aot/R_S_yt-UzWRbs9Syf4_7.mp4	0.0	596.2290370464325	
81	572.2889180183411	fix_post	2		12	79.0	2.5	/experiments/aot/R_S_yt-UzWRbs9Syf4_7.mp4	0.0	596.7455849647522	0.09995007514953613
82	572.3888680934906	fix_pre	0		119	80.0	2.5	/experiments/aot/R_S_b5-3.mp4	0.0	596.8455350399017	0.9915440082550049
82	573.3723940849304	pulse	0	t		80.0	2.5	/experiments/aot/R_S_b5-3.mp4	0.0	597.8290610313416	
82	573.3804121017456	movie	1		166	80.0	2.5	/experiments/aot/R_S_b5-3.mp4	0.0	597.8370790481567	2.5084340572357178
82	574.9720611572266	pulse	1	t		80.0	2.5	/experiments/aot/R_S_b5-3.mp4	0.0	599.4287281036377	
82	575.8888461589813	fix_post	2		12	80.0	2.5	/experiments/aot/R_S_b5-3.mp4	0.0	600.3455131053925	0.09999799728393555
83	575.9888441562653	fix_pre	0		120	81.0	2.5	/experiments/aot/S_pexels-cottonbro-5310858.mp4	0.0	600.4455111026764	0.9999599456787109
83	576.5723221302032	pulse	0	t		81.0	2.5	/experiments/aot/S_pexels-cottonbro-5310858.mp4	0.0	601.0289890766144	
83	576.988804101944	movie	1		162	81.0	2.5	/experiments/aot/S_pexels-cottonbro-5310858.mp4	0.0	601.4454710483551	2.500005006790161
83	578.1724071502686	pulse	1	t		81.0	2.5	/experiments/aot/S_pexels-cottonbro-5310858.mp4	0.0	602.6290740966797	
83	579.4888091087341	fix_post	2		12	81.0	2.5	/experiments/aot/S_pexels-cottonbro-5310858.mp4	0.0	603.9454760551453	0.10004401206970215
84	579.5888531208038	fix_pre	0		120	82.0	2.5	/experiments/aot/S_3WAnGcPubBY_143.mp4	0.0	604.045520067215	1.0000040531158447
84	579.7723200321198	pulse	0	t		82.0	2.5	/experiments/aot/S_3WAnGcPubBY_143.mp4	0.0	604.2289869785309	
84	580.5888571739197	movie	1		300	82.0	2.5	/experiments/aot/S_3WAnGcPubBY_143.mp4	0.0	605.0455241203308	2.4999308586120605
84	581.3723351955414	pulse	1	t		82.0	2.5	/experiments/aot/S_3WAnGcPubBY_143.mp4	0.0	605.8290021419525	
84	582.9717741012573	pulse	1	t		82.0	2.5	/experiments/aot/S_3WAnGcPubBY_143.mp4	0.0	607.4284410476685	
84	583.0887880325317	fix_post	2		12	82.0	2.5	/experiments/aot/S_3WAnGcPubBY_143.mp4	0.0	607.5454549789429	0.09990406036376953
85	583.1886920928955	fix_pre	0		120	83.0	2.5	blank	1.0	607.6453590393066	1.000020980834961
85	584.1887130737305	movie	1		300	83.0	2.5	blank	1.0	608.6453800201416	2.5000040531158447
85	584.5723011493683	pulse	1	t		83.0	2.5	blank	1.0	609.0289680957794	
85	586.172238111496	pulse	1	t		83.0	2.5	blank	1.0	610.6289050579071	
85	586.6887171268463	fix_post	2		12	83.0	2.5	blank	1.0	611.1453840732574	0.10008907318115234
87	586.7888062000275	stim	0		1716					611.2454731464386	14.299996852874756
87	587.7722179889679	pulse	0	t						612.228884935379	
87	589.3721580505371	pulse	0	t						613.8288249969482	
87	590.9721450805664	pulse	0	t						615.4288120269775	
87	592.5722119808197	pulse	0	t						617.0288789272308	
87	594.1722350120544	pulse	0	t						618.6289019584656	
87	595.772185087204	pulse	0	t						620.2288520336151	
87	597.3717231750488	pulse	0	t						621.82839012146	
87	598.9723811149597	pulse	0	t						623.4290480613708	
87	600.5721399784088	pulse	0	t						625.02880692482	
