trial_nr	onset	event_type	phase	response	nr_frames	movie_index	movie_duration	movie_file	blank	onset_abs	duration
0	0.14994311332702637	stim	0		133					22.140770196914673	1.108224868774414
0	1.250143051147461	response	0	space						23.240970134735107	
1	1.2581679821014404	stim	0		3178					23.248995065689087	26.48320698738098
1	27.737858057022095	pulse	0	t						49.72868514060974	
1	27.741374969482422	stim	1		1717					49.73220205307007	14.30829405784607
1	29.333256006240845	pulse	1	t						51.32408308982849	
1	30.933289051055908	pulse	1	t						52.924116134643555	
1	32.53325915336609	pulse	1	t						54.524086236953735	
1	34.133299112319946	pulse	1	t						56.12412619590759	
1	35.73323702812195	pulse	1	t						57.724064111709595	
1	37.33320593833923	pulse	1	t						59.32403302192688	
1	38.9332549571991	pulse	1	t						60.92408204078674	
1	40.53318405151367	pulse	1	t						62.52401113510132	
2	42.04966902732849	fix_pre	0		11	0.0	2.5	/experiments/AOT/AOT_stimuli/rescaled_final/0344_rv.mp4	0.0	64.04049611091614	0.09164094924926758
2	42.133177042007446	pulse	0	t		0.0	2.5	/experiments/AOT/AOT_stimuli/rescaled_final/0344_rv.mp4	0.0	64.12400412559509	
2	42.14130997657776	movie	1		246	0.0	2.5	/experiments/AOT/AOT_stimuli/rescaled_final/0344_rv.mp4	0.0	64.1321370601654	2.5080370903015137
2	43.732665061950684	pulse	1	t		0.0	2.5	/experiments/AOT/AOT_stimuli/rescaled_final/0344_rv.mp4	0.0	65.72349214553833	
2	44.64934706687927	fix_post	2		12	0.0	2.5	/experiments/AOT/AOT_stimuli/rescaled_final/0344_rv.mp4	0.0	66.64017415046692	0.1000518798828125
3	44.749398946762085	fix_pre	0		120	1.0	2.5	/experiments/AOT/AOT_stimuli/rescaled_final/1336_fw.mp4	0.0	66.74022603034973	1.0003621578216553
3	45.33327913284302	pulse	0	t		1.0	2.5	/experiments/AOT/AOT_stimuli/rescaled_final/1336_fw.mp4	0.0	67.32410621643066	
3	45.74976110458374	movie	1		246	1.0	2.5	/experiments/AOT/AOT_stimuli/rescaled_final/1336_fw.mp4	0.0	67.74058818817139	2.4999940395355225
3	46.93326807022095	pulse	1	t		1.0	2.5	/experiments/AOT/AOT_stimuli/rescaled_final/1336_fw.mp4	0.0	68.9240951538086	
3	48.24975514411926	fix_post	2		12	1.0	2.5	/experiments/AOT/AOT_stimuli/rescaled_final/1336_fw.mp4	0.0	70.24058222770691	0.0999448299407959
4	48.34969997406006	fix_pre	0		120	2.0	2.5	/experiments/AOT/AOT_stimuli/rescaled_final/1083_rv.mp4	0.0	70.3405270576477	0.9999971389770508
4	48.53322911262512	pulse	0	t		2.0	2.5	/experiments/AOT/AOT_stimuli/rescaled_final/1083_rv.mp4	0.0	70.52405619621277	
4	49.34969711303711	movie	1		245	2.0	2.5	/experiments/AOT/AOT_stimuli/rescaled_final/1083_rv.mp4	0.0	71.34052419662476	2.500018835067749
4	50.13317513465881	pulse	1	t		2.0	2.5	/experiments/AOT/AOT_stimuli/rescaled_final/1083_rv.mp4	0.0	72.12400221824646	
4	51.73167109489441	pulse	1	t		2.0	2.5	/experiments/AOT/AOT_stimuli/rescaled_final/1083_rv.mp4	0.0	73.72249817848206	
4	51.84971594810486	fix_post	2		12	2.0	2.5	/experiments/AOT/AOT_stimuli/rescaled_final/1083_rv.mp4	0.0	73.8405430316925	0.09995603561401367
5	51.94967198371887	fix_pre	0		120	3.0	2.5	/experiments/AOT/AOT_stimuli/rescaled_final/1330_fw.mp4	0.0	73.94049906730652	0.999885082244873
5	52.949557065963745	movie	1		243	3.0	2.5	/experiments/AOT/AOT_stimuli/rescaled_final/1330_fw.mp4	0.0	74.94038414955139	2.5000998973846436
5	53.33266806602478	pulse	1	t		3.0	2.5	/experiments/AOT/AOT_stimuli/rescaled_final/1330_fw.mp4	0.0	75.32349514961243	
5	54.93316102027893	pulse	1	t		3.0	2.5	/experiments/AOT/AOT_stimuli/rescaled_final/1330_fw.mp4	0.0	76.92398810386658	
5	55.44965696334839	fix_post	2		12	3.0	2.5	/experiments/AOT/AOT_stimuli/rescaled_final/1330_fw.mp4	0.0	77.44048404693604	0.09993815422058105
6	55.54959511756897	fix_pre	0		119	4.0	2.5	/experiments/AOT/AOT_stimuli/rescaled_final/2169_rv.mp4	0.0	77.54042220115662	0.99161696434021
6	56.53311514854431	pulse	0	t		4.0	2.5	/experiments/AOT/AOT_stimuli/rescaled_final/2169_rv.mp4	0.0	78.52394223213196	
6	56.54121208190918	movie	1		244	4.0	2.5	/experiments/AOT/AOT_stimuli/rescaled_final/2169_rv.mp4	0.0	78.53203916549683	2.5084400177001953
6	58.132779121398926	pulse	1	t		4.0	2.5	/experiments/AOT/AOT_stimuli/rescaled_final/2169_rv.mp4	0.0	80.12360620498657	
6	59.049652099609375	fix_post	2		12	4.0	2.5	/experiments/AOT/AOT_stimuli/rescaled_final/2169_rv.mp4	0.0	81.04047918319702	0.09991693496704102
7	59.149569034576416	fix_pre	0		120	5.0	2.5	blank	1.0	81.14039611816406	1.0000009536743164
7	59.73326897621155	pulse	0	t		5.0	2.5	blank	1.0	81.7240960597992	
7	60.14956998825073	movie	1		300	5.0	2.5	blank	1.0	82.14039707183838	2.5001060962677
7	61.333303928375244	pulse	1	t		5.0	2.5	blank	1.0	83.32413101196289	
7	62.64967608451843	fix_post	2		12	5.0	2.5	blank	1.0	84.64050316810608	0.09947896003723145
8	62.749155044555664	fix_pre	0		120	6.0	2.5	/experiments/AOT/AOT_stimuli/rescaled_final/1102_fw.mp4	0.0	84.73998212814331	1.0001540184020996
8	62.93313503265381	pulse	0	t		6.0	2.5	/experiments/AOT/AOT_stimuli/rescaled_final/1102_fw.mp4	0.0	84.92396211624146	
8	63.749309062957764	movie	1		243	6.0	2.5	/experiments/AOT/AOT_stimuli/rescaled_final/1102_fw.mp4	0.0	85.74013614654541	2.5005860328674316
8	64.53271293640137	pulse	1	t		6.0	2.5	/experiments/AOT/AOT_stimuli/rescaled_final/1102_fw.mp4	0.0	86.52354001998901	
8	66.13160395622253	pulse	1	t		6.0	2.5	/experiments/AOT/AOT_stimuli/rescaled_final/1102_fw.mp4	0.0	88.12243103981018	
8	66.2498950958252	fix_post	2		12	6.0	2.5	/experiments/AOT/AOT_stimuli/rescaled_final/1102_fw.mp4	0.0	88.24072217941284	0.10006499290466309
9	66.34996008872986	fix_pre	0		120	7.0	2.5	/experiments/AOT/AOT_stimuli/rescaled_final/2143_rv.mp4	0.0	88.3407871723175	0.999600887298584
9	67.34956097602844	movie	1		243	7.0	2.5	/experiments/AOT/AOT_stimuli/rescaled_final/2143_rv.mp4	0.0	89.34038805961609	2.500084161758423
9	67.73406195640564	pulse	1	t		7.0	2.5	/experiments/AOT/AOT_stimuli/rescaled_final/2143_rv.mp4	0.0	89.72488903999329	
9	69.33307099342346	pulse	1	t		7.0	2.5	/experiments/AOT/AOT_stimuli/rescaled_final/2143_rv.mp4	0.0	91.32389807701111	
9	69.84964513778687	fix_post	2		12	7.0	2.5	/experiments/AOT/AOT_stimuli/rescaled_final/2143_rv.mp4	0.0	91.84047222137451	0.0999288558959961
10	69.94957399368286	fix_pre	0		119	8.0	2.5	/experiments/AOT/AOT_stimuli/rescaled_final/0300_fw.mp4	0.0	91.94040107727051	0.9917221069335938
10	70.93316912651062	pulse	0	t		8.0	2.5	/experiments/AOT/AOT_stimuli/rescaled_final/0300_fw.mp4	0.0	92.92399621009827	
10	70.94129610061646	movie	1		245	8.0	2.5	/experiments/AOT/AOT_stimuli/rescaled_final/0300_fw.mp4	0.0	92.9321231842041	2.508280038833618
10	72.53291606903076	pulse	1	t		8.0	2.5	/experiments/AOT/AOT_stimuli/rescaled_final/0300_fw.mp4	0.0	94.52374315261841	
10	73.44957613945007	fix_post	2		12	8.0	2.5	/experiments/AOT/AOT_stimuli/rescaled_final/0300_fw.mp4	0.0	95.44040322303772	0.10000896453857422
11	73.54958510398865	fix_pre	0		120	9.0	2.5	/experiments/AOT/AOT_stimuli/rescaled_final/0709_rv.mp4	0.0	95.5404121875763	0.9999749660491943
11	74.13301205635071	pulse	0	t		9.0	2.5	/experiments/AOT/AOT_stimuli/rescaled_final/0709_rv.mp4	0.0	96.12383913993835	
11	74.54956007003784	movie	1		244	9.0	2.5	/experiments/AOT/AOT_stimuli/rescaled_final/0709_rv.mp4	0.0	96.54038715362549	2.499971866607666
11	75.733078956604	pulse	1	t		9.0	2.5	/experiments/AOT/AOT_stimuli/rescaled_final/0709_rv.mp4	0.0	97.72390604019165	
11	77.04953193664551	fix_post	2		12	9.0	2.5	/experiments/AOT/AOT_stimuli/rescaled_final/0709_rv.mp4	0.0	99.04035902023315	0.09997200965881348
12	77.14950394630432	fix_pre	0		120	10.0	2.5	/experiments/AOT/AOT_stimuli/rescaled_final/1770_fw.mp4	0.0	99.14033102989197	1.0001270771026611
12	77.3330430984497	pulse	0	t		10.0	2.5	/experiments/AOT/AOT_stimuli/rescaled_final/1770_fw.mp4	0.0	99.32387018203735	
12	78.14963102340698	movie	1		243	10.0	2.5	/experiments/AOT/AOT_stimuli/rescaled_final/1770_fw.mp4	0.0	100.14045810699463	2.4995269775390625
12	78.93300199508667	pulse	1	t		10.0	2.5	/experiments/AOT/AOT_stimuli/rescaled_final/1770_fw.mp4	0.0	100.92382907867432	
12	80.53144311904907	pulse	1	t		10.0	2.5	/experiments/AOT/AOT_stimuli/rescaled_final/1770_fw.mp4	0.0	102.52227020263672	
12	80.64915800094604	fix_post	2		12	10.0	2.5	/experiments/AOT/AOT_stimuli/rescaled_final/1770_fw.mp4	0.0	102.63998508453369	0.10040593147277832
13	80.74956393241882	fix_pre	0		120	11.0	2.5	/experiments/AOT/AOT_stimuli/rescaled_final/0694_fw.mp4	0.0	102.74039101600647	0.9999592304229736
13	81.7495231628418	movie	1		243	11.0	2.5	/experiments/AOT/AOT_stimuli/rescaled_final/0694_fw.mp4	0.0	103.74035024642944	2.500002861022949
13	82.13298106193542	pulse	1	t		11.0	2.5	/experiments/AOT/AOT_stimuli/rescaled_final/0694_fw.mp4	0.0	104.12380814552307	
13	83.73309898376465	pulse	1	t		11.0	2.5	/experiments/AOT/AOT_stimuli/rescaled_final/0694_fw.mp4	0.0	105.7239260673523	
13	84.24952602386475	fix_post	2		12	11.0	2.5	/experiments/AOT/AOT_stimuli/rescaled_final/0694_fw.mp4	0.0	106.24035310745239	0.09998512268066406
14	84.34951114654541	fix_pre	0		119	12.0	2.5	/experiments/AOT/AOT_stimuli/rescaled_final/2070_rv.mp4	0.0	106.34033823013306	0.9916238784790039
14	85.33296799659729	pulse	0	t		12.0	2.5	/experiments/AOT/AOT_stimuli/rescaled_final/2070_rv.mp4	0.0	107.32379508018494	
14	85.34113502502441	movie	1		246	12.0	2.5	/experiments/AOT/AOT_stimuli/rescaled_final/2070_rv.mp4	0.0	107.33196210861206	2.5083091259002686
14	86.9325520992279	pulse	1	t		12.0	2.5	/experiments/AOT/AOT_stimuli/rescaled_final/2070_rv.mp4	0.0	108.92337918281555	
14	87.84944415092468	fix_post	2		12	12.0	2.5	/experiments/AOT/AOT_stimuli/rescaled_final/2070_rv.mp4	0.0	109.84027123451233	0.1001119613647461
15	87.94955611228943	fix_pre	0		120	13.0	2.5	blank	1.0	109.94038319587708	0.9999608993530273
15	88.5330159664154	pulse	0	t		13.0	2.5	blank	1.0	110.52384305000305	
15	88.94951701164246	movie	1		300	13.0	2.5	blank	1.0	110.9403440952301	2.499980926513672
15	90.13303995132446	pulse	1	t		13.0	2.5	blank	1.0	112.12386703491211	
15	91.44949793815613	fix_post	2		12	13.0	2.5	blank	1.0	113.44032502174377	0.0998990535736084
16	91.54939699172974	fix_pre	0		120	14.0	2.5	/experiments/AOT/AOT_stimuli/rescaled_final/1858_fw.mp4	0.0	113.54022407531738	1.0001111030578613
16	91.73293805122375	pulse	0	t		14.0	2.5	/experiments/AOT/AOT_stimuli/rescaled_final/1858_fw.mp4	0.0	113.7237651348114	
16	92.5495080947876	movie	1		243	14.0	2.5	/experiments/AOT/AOT_stimuli/rescaled_final/1858_fw.mp4	0.0	114.54033517837524	2.4994750022888184
16	93.33296608924866	pulse	1	t		14.0	2.5	/experiments/AOT/AOT_stimuli/rescaled_final/1858_fw.mp4	0.0	115.3237931728363	
16	94.93155407905579	pulse	1	t		14.0	2.5	/experiments/AOT/AOT_stimuli/rescaled_final/1858_fw.mp4	0.0	116.92238116264343	
16	95.04898309707642	fix_post	2		12	14.0	2.5	/experiments/AOT/AOT_stimuli/rescaled_final/1858_fw.mp4	0.0	117.03981018066406	0.10045695304870605
17	95.14944005012512	fix_pre	0		120	15.0	2.5	/experiments/AOT/AOT_stimuli/rescaled_final/1046_fw.mp4	0.0	117.14026713371277	0.9999380111694336
17	96.14937806129456	movie	1		244	15.0	2.5	/experiments/AOT/AOT_stimuli/rescaled_final/1046_fw.mp4	0.0	118.1402051448822	2.499690055847168
17	96.53403496742249	pulse	1	t		15.0	2.5	/experiments/AOT/AOT_stimuli/rescaled_final/1046_fw.mp4	0.0	118.52486205101013	
17	98.13293600082397	pulse	1	t		15.0	2.5	/experiments/AOT/AOT_stimuli/rescaled_final/1046_fw.mp4	0.0	120.12376308441162	
17	98.64906811714172	fix_post	2		12	15.0	2.5	/experiments/AOT/AOT_stimuli/rescaled_final/1046_fw.mp4	0.0	120.63989520072937	0.10034704208374023
18	98.74941515922546	fix_pre	0		119	16.0	2.5	/experiments/AOT/AOT_stimuli/rescaled_final/1020_fw.mp4	0.0	120.74024224281311	0.9916548728942871
18	99.73300099372864	pulse	0	t		16.0	2.5	/experiments/AOT/AOT_stimuli/rescaled_final/1020_fw.mp4	0.0	121.72382807731628	
18	99.74107003211975	movie	1		247	16.0	2.5	/experiments/AOT/AOT_stimuli/rescaled_final/1020_fw.mp4	0.0	121.7318971157074	2.5083200931549072
18	101.33321404457092	pulse	1	t		16.0	2.5	/experiments/AOT/AOT_stimuli/rescaled_final/1020_fw.mp4	0.0	123.32404112815857	
18	102.24939012527466	fix_post	2		12	16.0	2.5	/experiments/AOT/AOT_stimuli/rescaled_final/1020_fw.mp4	0.0	124.2402172088623	0.10000181198120117
19	102.34939193725586	fix_pre	0		120	17.0	2.5	/experiments/AOT/AOT_stimuli/rescaled_final/1989_rv.mp4	0.0	124.3402190208435	0.9999761581420898
19	102.92653203010559	pulse	0	t		17.0	2.5	/experiments/AOT/AOT_stimuli/rescaled_final/1989_rv.mp4	0.0	124.91735911369324	
19	103.34936809539795	movie	1		245	17.0	2.5	/experiments/AOT/AOT_stimuli/rescaled_final/1989_rv.mp4	0.0	125.3401951789856	2.4999899864196777
19	104.53295302391052	pulse	1	t		17.0	2.5	/experiments/AOT/AOT_stimuli/rescaled_final/1989_rv.mp4	0.0	126.52378010749817	
19	105.84935808181763	fix_post	2		12	17.0	2.5	/experiments/AOT/AOT_stimuli/rescaled_final/1989_rv.mp4	0.0	127.84018516540527	0.10004687309265137
20	105.94940495491028	fix_pre	0		120	18.0	2.5	/experiments/AOT/AOT_stimuli/rescaled_final/0542_rv.mp4	0.0	127.94023203849792	1.0000500679016113
20	106.13295602798462	pulse	0	t		18.0	2.5	/experiments/AOT/AOT_stimuli/rescaled_final/0542_rv.mp4	0.0	128.12378311157227	
20	106.94945502281189	movie	1		249	18.0	2.5	/experiments/AOT/AOT_stimuli/rescaled_final/0542_rv.mp4	0.0	128.94028210639954	2.4995009899139404
20	107.73294305801392	pulse	1	t		18.0	2.5	/experiments/AOT/AOT_stimuli/rescaled_final/0542_rv.mp4	0.0	129.72377014160156	
20	109.33293199539185	pulse	1	t		18.0	2.5	/experiments/AOT/AOT_stimuli/rescaled_final/0542_rv.mp4	0.0	131.3237590789795	
20	109.44895601272583	fix_post	2		12	18.0	2.5	/experiments/AOT/AOT_stimuli/rescaled_final/0542_rv.mp4	0.0	131.43978309631348	0.10041213035583496
21	109.54936814308167	fix_pre	0		120	19.0	2.5	blank	1.0	131.5401952266693	1.0000100135803223
21	110.54937815666199	movie	1		300	19.0	2.5	blank	1.0	132.54020524024963	2.5000247955322266
21	110.93293309211731	pulse	1	t		19.0	2.5	blank	1.0	132.92376017570496	
21	112.53308606147766	pulse	1	t		19.0	2.5	blank	1.0	134.5239131450653	
21	113.04940295219421	fix_post	2		12	19.0	2.5	blank	1.0	135.04023003578186	0.09998703002929688
22	113.14938998222351	fix_pre	0		119	20.0	2.5	/experiments/AOT/AOT_stimuli/rescaled_final/1531_fw.mp4	0.0	135.14021706581116	0.99167799949646
22	114.13283014297485	pulse	0	t		20.0	2.5	/experiments/AOT/AOT_stimuli/rescaled_final/1531_fw.mp4	0.0	136.1236572265625	
22	114.14106798171997	movie	1		246	20.0	2.5	/experiments/AOT/AOT_stimuli/rescaled_final/1531_fw.mp4	0.0	136.13189506530762	2.5082390308380127
22	115.73412108421326	pulse	1	t		20.0	2.5	/experiments/AOT/AOT_stimuli/rescaled_final/1531_fw.mp4	0.0	137.7249481678009	
22	116.64930701255798	fix_post	2		12	20.0	2.5	/experiments/AOT/AOT_stimuli/rescaled_final/1531_fw.mp4	0.0	138.64013409614563	0.09966802597045898
23	116.74897503852844	fix_pre	0		120	21.0	2.5	/experiments/AOT/AOT_stimuli/rescaled_final/0444_rv.mp4	0.0	138.7398021221161	1.0004661083221436
23	117.33295202255249	pulse	0	t		21.0	2.5	/experiments/AOT/AOT_stimuli/rescaled_final/0444_rv.mp4	0.0	139.32377910614014	
23	117.74944114685059	movie	1		246	21.0	2.5	/experiments/AOT/AOT_stimuli/rescaled_final/0444_rv.mp4	0.0	139.74026823043823	2.4996888637542725
23	118.93286800384521	pulse	1	t		21.0	2.5	/experiments/AOT/AOT_stimuli/rescaled_final/0444_rv.mp4	0.0	140.92369508743286	
23	120.24913001060486	fix_post	2		12	21.0	2.5	/experiments/AOT/AOT_stimuli/rescaled_final/0444_rv.mp4	0.0	142.2399570941925	0.10028505325317383
24	120.34941506385803	fix_pre	0		120	22.0	2.5	/experiments/AOT/AOT_stimuli/rescaled_final/0694_rv.mp4	0.0	142.34024214744568	1.0001580715179443
24	120.5324969291687	pulse	0	t		22.0	2.5	/experiments/AOT/AOT_stimuli/rescaled_final/0694_rv.mp4	0.0	142.52332401275635	
24	121.34957313537598	movie	1		244	22.0	2.5	/experiments/AOT/AOT_stimuli/rescaled_final/0694_rv.mp4	0.0	143.34040021896362	2.4997668266296387
24	122.13279914855957	pulse	1	t		22.0	2.5	/experiments/AOT/AOT_stimuli/rescaled_final/0694_rv.mp4	0.0	144.12362623214722	
24	123.73111414909363	pulse	1	t		22.0	2.5	/experiments/AOT/AOT_stimuli/rescaled_final/0694_rv.mp4	0.0	145.72194123268127	
24	123.84933996200562	fix_post	2		12	22.0	2.5	/experiments/AOT/AOT_stimuli/rescaled_final/0694_rv.mp4	0.0	145.84016704559326	0.10001611709594727
25	123.94935607910156	fix_pre	0		120	23.0	2.5	/experiments/AOT/AOT_stimuli/rescaled_final/1139_fw.mp4	0.0	145.9401831626892	0.9999768733978271
25	124.94933295249939	movie	1		245	23.0	2.5	/experiments/AOT/AOT_stimuli/rescaled_final/1139_fw.mp4	0.0	146.94016003608704	2.499547004699707
25	125.33266615867615	pulse	1	t		23.0	2.5	/experiments/AOT/AOT_stimuli/rescaled_final/1139_fw.mp4	0.0	147.3234932422638	
25	126.93271493911743	pulse	1	t		23.0	2.5	/experiments/AOT/AOT_stimuli/rescaled_final/1139_fw.mp4	0.0	148.92354202270508	
25	127.4488799571991	fix_post	2		12	23.0	2.5	/experiments/AOT/AOT_stimuli/rescaled_final/1139_fw.mp4	0.0	149.43970704078674	0.10038614273071289
26	127.54926609992981	fix_pre	0		119	24.0	2.5	/experiments/AOT/AOT_stimuli/rescaled_final/1124_rv.mp4	0.0	149.54009318351746	0.991657018661499
26	128.53273510932922	pulse	0	t		24.0	2.5	/experiments/AOT/AOT_stimuli/rescaled_final/1124_rv.mp4	0.0	150.52356219291687	
26	128.5409231185913	movie	1		247	24.0	2.5	/experiments/AOT/AOT_stimuli/rescaled_final/1124_rv.mp4	0.0	150.53175020217896	2.5079519748687744
26	130.1337969303131	pulse	1	t		24.0	2.5	/experiments/AOT/AOT_stimuli/rescaled_final/1124_rv.mp4	0.0	152.12462401390076	
26	131.04887509346008	fix_post	2		12	24.0	2.5	/experiments/AOT/AOT_stimuli/rescaled_final/1124_rv.mp4	0.0	153.03970217704773	0.10036492347717285
27	131.14924001693726	fix_pre	0		120	25.0	2.5	/experiments/AOT/AOT_stimuli/rescaled_final/2011_rv.mp4	0.0	153.1400671005249	1.0000810623168945
27	131.73271298408508	pulse	0	t		25.0	2.5	/experiments/AOT/AOT_stimuli/rescaled_final/2011_rv.mp4	0.0	153.72354006767273	
27	132.14932107925415	movie	1		244	25.0	2.5	/experiments/AOT/AOT_stimuli/rescaled_final/2011_rv.mp4	0.0	154.1401481628418	2.499976873397827
27	133.33291006088257	pulse	1	t		25.0	2.5	/experiments/AOT/AOT_stimuli/rescaled_final/2011_rv.mp4	0.0	155.32373714447021	
27	134.64929795265198	fix_post	2		12	25.0	2.5	/experiments/AOT/AOT_stimuli/rescaled_final/2011_rv.mp4	0.0	156.64012503623962	0.09991216659545898
28	134.74921011924744	fix_pre	0		120	26.0	2.5	blank	1.0	156.74003720283508	1.000114917755127
28	134.93272399902344	pulse	0	t		26.0	2.5	blank	1.0	156.92355108261108	
28	135.74932503700256	movie	1		300	26.0	2.5	blank	1.0	157.7401521205902	2.4999899864196777
28	136.53264594078064	pulse	1	t		26.0	2.5	blank	1.0	158.5234730243683	
28	138.1327030658722	pulse	1	t		26.0	2.5	blank	1.0	160.12353014945984	
28	138.24931502342224	fix_post	2		12	26.0	2.5	blank	1.0	160.2401421070099	0.099884033203125
29	138.34919905662537	fix_pre	0		120	27.0	2.5	/experiments/AOT/AOT_stimuli/rescaled_final/2013_fw.mp4	0.0	160.340026140213	1.0000889301300049
29	139.34928798675537	movie	1		246	27.0	2.5	/experiments/AOT/AOT_stimuli/rescaled_final/2013_fw.mp4	0.0	161.34011507034302	2.4998769760131836
29	139.73226809501648	pulse	1	t		27.0	2.5	/experiments/AOT/AOT_stimuli/rescaled_final/2013_fw.mp4	0.0	161.72309517860413	
29	141.33270907402039	pulse	1	t		27.0	2.5	/experiments/AOT/AOT_stimuli/rescaled_final/2013_fw.mp4	0.0	163.32353615760803	
29	141.84916496276855	fix_post	2		12	27.0	2.5	/experiments/AOT/AOT_stimuli/rescaled_final/2013_fw.mp4	0.0	163.8399920463562	0.10002899169921875
30	141.94919395446777	fix_pre	0		119	28.0	2.5	/experiments/AOT/AOT_stimuli/rescaled_final/0732_fw.mp4	0.0	163.94002103805542	0.9916269779205322
30	142.93261909484863	pulse	0	t		28.0	2.5	/experiments/AOT/AOT_stimuli/rescaled_final/0732_fw.mp4	0.0	164.92344617843628	
30	142.9408209323883	movie	1		248	28.0	2.5	/experiments/AOT/AOT_stimuli/rescaled_final/0732_fw.mp4	0.0	164.93164801597595	2.5079610347747803
30	144.53261804580688	pulse	1	t		28.0	2.5	/experiments/AOT/AOT_stimuli/rescaled_final/0732_fw.mp4	0.0	166.52344512939453	
30	145.4487819671631	fix_post	2		12	28.0	2.5	/experiments/AOT/AOT_stimuli/rescaled_final/0732_fw.mp4	0.0	167.43960905075073	0.10045909881591797
31	145.549241065979	fix_pre	0		120	29.0	2.5	/experiments/AOT/AOT_stimuli/rescaled_final/0565_rv.mp4	0.0	167.54006814956665	0.999953031539917
31	146.1327030658722	pulse	0	t		29.0	2.5	/experiments/AOT/AOT_stimuli/rescaled_final/0565_rv.mp4	0.0	168.12353014945984	
31	146.54919409751892	movie	1		245	29.0	2.5	/experiments/AOT/AOT_stimuli/rescaled_final/0565_rv.mp4	0.0	168.54002118110657	2.4998819828033447
31	147.73276901245117	pulse	1	t		29.0	2.5	/experiments/AOT/AOT_stimuli/rescaled_final/0565_rv.mp4	0.0	169.72359609603882	
31	149.04907608032227	fix_post	2		12	29.0	2.5	/experiments/AOT/AOT_stimuli/rescaled_final/0565_rv.mp4	0.0	171.0399031639099	0.1000828742980957
32	149.14915895462036	fix_pre	0		120	30.0	2.5	/experiments/AOT/AOT_stimuli/rescaled_final/1531_fw.mp4	0.0	171.139986038208	1.0000600814819336
32	149.33267307281494	pulse	0	t		30.0	2.5	/experiments/AOT/AOT_stimuli/rescaled_final/1531_fw.mp4	0.0	171.3235001564026	
32	150.1492190361023	movie	1		244	30.0	2.5	/experiments/AOT/AOT_stimuli/rescaled_final/1531_fw.mp4	0.0	172.14004611968994	2.4999170303344727
32	150.93269109725952	pulse	1	t		30.0	2.5	/experiments/AOT/AOT_stimuli/rescaled_final/1531_fw.mp4	0.0	172.92351818084717	
32	152.5313539505005	pulse	1	t		30.0	2.5	/experiments/AOT/AOT_stimuli/rescaled_final/1531_fw.mp4	0.0	174.52218103408813	
32	152.64913606643677	fix_post	2		12	30.0	2.5	/experiments/AOT/AOT_stimuli/rescaled_final/1531_fw.mp4	0.0	174.6399631500244	0.10008502006530762
33	152.74922108650208	fix_pre	0		120	31.0	2.5	/experiments/AOT/AOT_stimuli/rescaled_final/1920_fw.mp4	0.0	174.74004817008972	0.9999279975891113
33	153.7491490840912	movie	1		243	31.0	2.5	/experiments/AOT/AOT_stimuli/rescaled_final/1920_fw.mp4	0.0	175.73997616767883	2.499664068222046
33	154.1324119567871	pulse	1	t		31.0	2.5	/experiments/AOT/AOT_stimuli/rescaled_final/1920_fw.mp4	0.0	176.12323904037476	
33	155.73268508911133	pulse	1	t		31.0	2.5	/experiments/AOT/AOT_stimuli/rescaled_final/1920_fw.mp4	0.0	177.72351217269897	
33	156.24881315231323	fix_post	2		12	31.0	2.5	/experiments/AOT/AOT_stimuli/rescaled_final/1920_fw.mp4	0.0	178.23964023590088	0.10037088394165039
34	156.34918403625488	fix_pre	0		119	32.0	2.5	/experiments/AOT/AOT_stimuli/rescaled_final/0051_rv.mp4	0.0	178.34001111984253	0.9915940761566162
34	157.33265805244446	pulse	0	t		32.0	2.5	/experiments/AOT/AOT_stimuli/rescaled_final/0051_rv.mp4	0.0	179.3234851360321	
34	157.3407781124115	movie	1		244	32.0	2.5	/experiments/AOT/AOT_stimuli/rescaled_final/0051_rv.mp4	0.0	179.33160519599915	2.508330821990967
34	158.93250393867493	pulse	1	t		32.0	2.5	/experiments/AOT/AOT_stimuli/rescaled_final/0051_rv.mp4	0.0	180.92333102226257	
34	159.84910893440247	fix_post	2		12	32.0	2.5	/experiments/AOT/AOT_stimuli/rescaled_final/0051_rv.mp4	0.0	181.8399360179901	0.10007905960083008
35	159.9491879940033	fix_pre	0		120	33.0	2.5	/experiments/AOT/AOT_stimuli/rescaled_final/0848_fw.mp4	0.0	181.94001507759094	0.9999749660491943
35	160.5326280593872	pulse	0	t		33.0	2.5	/experiments/AOT/AOT_stimuli/rescaled_final/0848_fw.mp4	0.0	182.52345514297485	
35	160.9491629600525	movie	1		247	33.0	2.5	/experiments/AOT/AOT_stimuli/rescaled_final/0848_fw.mp4	0.0	182.93999004364014	2.4995100498199463
35	162.13271808624268	pulse	1	t		33.0	2.5	/experiments/AOT/AOT_stimuli/rescaled_final/0848_fw.mp4	0.0	184.12354516983032	
35	163.44867300987244	fix_post	2		12	33.0	2.5	/experiments/AOT/AOT_stimuli/rescaled_final/0848_fw.mp4	0.0	185.43950009346008	0.10044407844543457
36	163.54911708831787	fix_pre	0		120	34.0	2.5	blank	1.0	185.53994417190552	0.9999649524688721
36	163.7326409816742	pulse	0	t		34.0	2.5	blank	1.0	185.72346806526184	
36	164.54908204078674	movie	1		300	34.0	2.5	blank	1.0	186.5399091243744	2.5000228881835938
36	165.33263993263245	pulse	1	t		34.0	2.5	blank	1.0	187.3234670162201	
36	166.93254804611206	pulse	1	t		34.0	2.5	blank	1.0	188.9233751296997	
36	167.04910492897034	fix_post	2		12	34.0	2.5	blank	1.0	189.03993201255798	0.10001921653747559
37	167.1491241455078	fix_pre	0		120	35.0	2.5	/experiments/AOT/AOT_stimuli/rescaled_final/1208_fw.mp4	0.0	189.13995122909546	0.9999678134918213
37	168.14909195899963	movie	1		244	35.0	2.5	/experiments/AOT/AOT_stimuli/rescaled_final/1208_fw.mp4	0.0	190.13991904258728	2.50006103515625
37	168.53369307518005	pulse	1	t		35.0	2.5	/experiments/AOT/AOT_stimuli/rescaled_final/1208_fw.mp4	0.0	190.5245201587677	
37	170.13256907463074	pulse	1	t		35.0	2.5	/experiments/AOT/AOT_stimuli/rescaled_final/1208_fw.mp4	0.0	192.12339615821838	
37	170.64915299415588	fix_post	2		12	35.0	2.5	/experiments/AOT/AOT_stimuli/rescaled_final/1208_fw.mp4	0.0	192.63998007774353	0.09994196891784668
38	170.74909496307373	fix_pre	0		119	36.0	2.5	/experiments/AOT/AOT_stimuli/rescaled_final/0603_fw.mp4	0.0	192.73992204666138	0.9917399883270264
38	171.7326090335846	pulse	0	t		36.0	2.5	/experiments/AOT/AOT_stimuli/rescaled_final/0603_fw.mp4	0.0	193.72343611717224	
38	171.74083495140076	movie	1		244	36.0	2.5	/experiments/AOT/AOT_stimuli/rescaled_final/0603_fw.mp4	0.0	193.7316620349884	2.5082380771636963
38	173.33223509788513	pulse	1	t		36.0	2.5	/experiments/AOT/AOT_stimuli/rescaled_final/0603_fw.mp4	0.0	195.32306218147278	
38	174.24907302856445	fix_post	2		12	36.0	2.5	/experiments/AOT/AOT_stimuli/rescaled_final/0603_fw.mp4	0.0	196.2399001121521	0.09995198249816895
39	174.34902501106262	fix_pre	0		120	37.0	2.5	/experiments/AOT/AOT_stimuli/rescaled_final/1878_rv.mp4	0.0	196.33985209465027	1.000101089477539
39	174.93270015716553	pulse	0	t		37.0	2.5	/experiments/AOT/AOT_stimuli/rescaled_final/1878_rv.mp4	0.0	196.92352724075317	
39	175.34912610054016	movie	1		244	37.0	2.5	/experiments/AOT/AOT_stimuli/rescaled_final/1878_rv.mp4	0.0	197.3399531841278	2.4997520446777344
39	176.53223204612732	pulse	1	t		37.0	2.5	/experiments/AOT/AOT_stimuli/rescaled_final/1878_rv.mp4	0.0	198.52305912971497	
39	177.8488781452179	fix_post	2		12	37.0	2.5	/experiments/AOT/AOT_stimuli/rescaled_final/1878_rv.mp4	0.0	199.83970522880554	0.10052800178527832
40	177.94940614700317	fix_pre	0		120	38.0	2.5	/experiments/AOT/AOT_stimuli/rescaled_final/1554_rv.mp4	0.0	199.94023323059082	0.9996387958526611
40	178.13285207748413	pulse	0	t		38.0	2.5	/experiments/AOT/AOT_stimuli/rescaled_final/1554_rv.mp4	0.0	200.12367916107178	
40	178.94904494285583	movie	1		243	38.0	2.5	/experiments/AOT/AOT_stimuli/rescaled_final/1554_rv.mp4	0.0	200.93987202644348	2.5000250339508057
40	179.73255395889282	pulse	1	t		38.0	2.5	/experiments/AOT/AOT_stimuli/rescaled_final/1554_rv.mp4	0.0	201.72338104248047	
40	181.33255410194397	pulse	1	t		38.0	2.5	/experiments/AOT/AOT_stimuli/rescaled_final/1554_rv.mp4	0.0	203.32338118553162	
40	181.44906997680664	fix_post	2		12	38.0	2.5	/experiments/AOT/AOT_stimuli/rescaled_final/1554_rv.mp4	0.0	203.4398970603943	0.09992218017578125
41	181.54899215698242	fix_pre	0		120	39.0	2.5	/experiments/AOT/AOT_stimuli/rescaled_final/0158_fw.mp4	0.0	203.53981924057007	1.0000488758087158
41	182.54904103279114	movie	1		243	39.0	2.5	/experiments/AOT/AOT_stimuli/rescaled_final/0158_fw.mp4	0.0	204.53986811637878	2.499898910522461
41	182.93217611312866	pulse	1	t		39.0	2.5	/experiments/AOT/AOT_stimuli/rescaled_final/0158_fw.mp4	0.0	204.9230031967163	
41	184.53260493278503	pulse	1	t		39.0	2.5	/experiments/AOT/AOT_stimuli/rescaled_final/0158_fw.mp4	0.0	206.52343201637268	
41	185.0489399433136	fix_post	2		12	39.0	2.5	/experiments/AOT/AOT_stimuli/rescaled_final/0158_fw.mp4	0.0	207.03976702690125	0.10007810592651367
42	185.1490180492401	fix_pre	0		119	40.0	2.5	/experiments/AOT/AOT_stimuli/rescaled_final/1124_fw.mp4	0.0	207.13984513282776	0.9916589260101318
42	186.13251399993896	pulse	0	t		40.0	2.5	/experiments/AOT/AOT_stimuli/rescaled_final/1124_fw.mp4	0.0	208.1233410835266	
42	186.14067697525024	movie	1		250	40.0	2.5	/experiments/AOT/AOT_stimuli/rescaled_final/1124_fw.mp4	0.0	208.1315040588379	2.50829815864563
42	187.7321970462799	pulse	1	t		40.0	2.5	/experiments/AOT/AOT_stimuli/rescaled_final/1124_fw.mp4	0.0	209.72302412986755	
42	188.64897513389587	fix_post	2		12	40.0	2.5	/experiments/AOT/AOT_stimuli/rescaled_final/1124_fw.mp4	0.0	210.63980221748352	0.09995293617248535
43	188.74892807006836	fix_pre	0		120	41.0	2.5	/experiments/AOT/AOT_stimuli/rescaled_final/1183_fw.mp4	0.0	210.739755153656	1.000079870223999
43	189.33369493484497	pulse	0	t		41.0	2.5	/experiments/AOT/AOT_stimuli/rescaled_final/1183_fw.mp4	0.0	211.32452201843262	
43	189.74900794029236	movie	1		246	41.0	2.5	/experiments/AOT/AOT_stimuli/rescaled_final/1183_fw.mp4	0.0	211.73983502388	2.499979019165039
43	190.93262600898743	pulse	1	t		41.0	2.5	/experiments/AOT/AOT_stimuli/rescaled_final/1183_fw.mp4	0.0	212.92345309257507	
43	192.2489869594574	fix_post	2		12	41.0	2.5	/experiments/AOT/AOT_stimuli/rescaled_final/1183_fw.mp4	0.0	214.23981404304504	0.10000300407409668
44	192.3489899635315	fix_pre	0		120	42.0	2.5	blank	1.0	214.33981704711914	0.9999480247497559
44	192.53260493278503	pulse	0	t		42.0	2.5	blank	1.0	214.52343201637268	
44	193.34893798828125	movie	1		300	42.0	2.5	blank	1.0	215.3397650718689	2.5000269412994385
44	194.1325340270996	pulse	1	t		42.0	2.5	blank	1.0	216.12336111068726	
44	195.73249197006226	pulse	1	t		42.0	2.5	blank	1.0	217.7233190536499	
44	195.8489649295807	fix_post	2		12	42.0	2.5	blank	1.0	217.83979201316833	0.09998607635498047
45	195.94895100593567	fix_pre	0		120	43.0	2.5	/experiments/AOT/AOT_stimuli/rescaled_final/2087_fw.mp4	0.0	217.93977808952332	0.9999871253967285
45	196.9489381313324	movie	1		243	43.0	2.5	/experiments/AOT/AOT_stimuli/rescaled_final/2087_fw.mp4	0.0	218.93976521492004	2.5000128746032715
45	197.33363103866577	pulse	1	t		43.0	2.5	/experiments/AOT/AOT_stimuli/rescaled_final/2087_fw.mp4	0.0	219.32445812225342	
45	198.93239903450012	pulse	1	t		43.0	2.5	/experiments/AOT/AOT_stimuli/rescaled_final/2087_fw.mp4	0.0	220.92322611808777	
45	199.44895100593567	fix_post	2		12	43.0	2.5	/experiments/AOT/AOT_stimuli/rescaled_final/2087_fw.mp4	0.0	221.43977808952332	0.09997200965881348
46	199.54892301559448	fix_pre	0		119	44.0	2.5	/experiments/AOT/AOT_stimuli/rescaled_final/0777_fw.mp4	0.0	221.53975009918213	0.9917259216308594
46	200.53239107131958	pulse	0	t		44.0	2.5	/experiments/AOT/AOT_stimuli/rescaled_final/0777_fw.mp4	0.0	222.52321815490723	
46	200.54064893722534	movie	1		245	44.0	2.5	/experiments/AOT/AOT_stimuli/rescaled_final/0777_fw.mp4	0.0	222.531476020813	2.5082881450653076
46	202.13215804100037	pulse	1	t		44.0	2.5	/experiments/AOT/AOT_stimuli/rescaled_final/0777_fw.mp4	0.0	224.122985124588	
46	203.04893708229065	fix_post	2		12	44.0	2.5	/experiments/AOT/AOT_stimuli/rescaled_final/0777_fw.mp4	0.0	225.0397641658783	0.09990787506103516
47	203.14884495735168	fix_pre	0		120	45.0	2.5	/experiments/AOT/AOT_stimuli/rescaled_final/2070_fw.mp4	0.0	225.13967204093933	0.9996750354766846
47	203.73234510421753	pulse	0	t		45.0	2.5	/experiments/AOT/AOT_stimuli/rescaled_final/2070_fw.mp4	0.0	225.72317218780518	
47	204.14851999282837	movie	1		246	45.0	2.5	/experiments/AOT/AOT_stimuli/rescaled_final/2070_fw.mp4	0.0	226.13934707641602	2.500352144241333
47	205.33238315582275	pulse	1	t		45.0	2.5	/experiments/AOT/AOT_stimuli/rescaled_final/2070_fw.mp4	0.0	227.3232102394104	
47	206.6488721370697	fix_post	2		12	45.0	2.5	/experiments/AOT/AOT_stimuli/rescaled_final/2070_fw.mp4	0.0	228.63969922065735	0.10006380081176758
48	206.74893593788147	fix_pre	0		120	46.0	2.5	/experiments/AOT/AOT_stimuli/rescaled_final/0134_rv.mp4	0.0	228.73976302146912	0.999891996383667
48	206.9324290752411	pulse	0	t		46.0	2.5	/experiments/AOT/AOT_stimuli/rescaled_final/0134_rv.mp4	0.0	228.92325615882874	
48	207.74882793426514	movie	1		246	46.0	2.5	/experiments/AOT/AOT_stimuli/rescaled_final/0134_rv.mp4	0.0	229.73965501785278	2.500166177749634
48	208.53236413002014	pulse	1	t		46.0	2.5	/experiments/AOT/AOT_stimuli/rescaled_final/0134_rv.mp4	0.0	230.5231912136078	
48	210.1306610107422	pulse	1	t		46.0	2.5	/experiments/AOT/AOT_stimuli/rescaled_final/0134_rv.mp4	0.0	232.12148809432983	
48	210.24899411201477	fix_post	2		12	46.0	2.5	/experiments/AOT/AOT_stimuli/rescaled_final/0134_rv.mp4	0.0	232.23982119560242	0.09985494613647461
49	210.34884905815125	fix_pre	0		120	47.0	2.5	/experiments/AOT/AOT_stimuli/rescaled_final/1989_fw.mp4	0.0	232.3396761417389	0.9999880790710449
49	211.3488371372223	movie	1		246	47.0	2.5	/experiments/AOT/AOT_stimuli/rescaled_final/1989_fw.mp4	0.0	233.33966422080994	2.500051975250244
49	211.7320101261139	pulse	1	t		47.0	2.5	/experiments/AOT/AOT_stimuli/rescaled_final/1989_fw.mp4	0.0	233.72283720970154	
49	213.33239102363586	pulse	1	t		47.0	2.5	/experiments/AOT/AOT_stimuli/rescaled_final/1989_fw.mp4	0.0	235.3232181072235	
49	213.84888911247253	fix_post	2		12	47.0	2.5	/experiments/AOT/AOT_stimuli/rescaled_final/1989_fw.mp4	0.0	235.83971619606018	0.1000218391418457
50	213.94891095161438	fix_pre	0		119	48.0	2.5	/experiments/AOT/AOT_stimuli/rescaled_final/1301_rv.mp4	0.0	235.93973803520203	0.9916751384735107
50	214.93235397338867	pulse	0	t		48.0	2.5	/experiments/AOT/AOT_stimuli/rescaled_final/1301_rv.mp4	0.0	236.92318105697632	
50	214.9405860900879	movie	1		246	48.0	2.5	/experiments/AOT/AOT_stimuli/rescaled_final/1301_rv.mp4	0.0	236.93141317367554	2.508291006088257
50	216.5323669910431	pulse	1	t		48.0	2.5	/experiments/AOT/AOT_stimuli/rescaled_final/1301_rv.mp4	0.0	238.52319407463074	
50	217.44887709617615	fix_post	2		12	48.0	2.5	/experiments/AOT/AOT_stimuli/rescaled_final/1301_rv.mp4	0.0	239.4397041797638	0.09991693496704102
51	217.5487940311432	fix_pre	0		120	49.0	2.5	blank	1.0	239.53962111473083	0.999675989151001
51	218.13228011131287	pulse	0	t		49.0	2.5	blank	1.0	240.1231071949005	
51	218.5484700202942	movie	1		300	49.0	2.5	blank	1.0	240.53929710388184	2.5004429817199707
51	219.73240208625793	pulse	1	t		49.0	2.5	blank	1.0	241.72322916984558	
51	221.04891300201416	fix_post	2		12	49.0	2.5	blank	1.0	243.0397400856018	0.09994792938232422
52	221.14886093139648	fix_pre	0		120	50.0	2.5	/experiments/AOT/AOT_stimuli/rescaled_final/0625_rv.mp4	0.0	243.13968801498413	1.0000262260437012
52	221.3323130607605	pulse	0	t		50.0	2.5	/experiments/AOT/AOT_stimuli/rescaled_final/0625_rv.mp4	0.0	243.32314014434814	
52	222.14888715744019	movie	1		243	50.0	2.5	/experiments/AOT/AOT_stimuli/rescaled_final/0625_rv.mp4	0.0	244.13971424102783	2.499569892883301
52	222.93231105804443	pulse	1	t		50.0	2.5	/experiments/AOT/AOT_stimuli/rescaled_final/0625_rv.mp4	0.0	244.92313814163208	
52	224.5306899547577	pulse	1	t		50.0	2.5	/experiments/AOT/AOT_stimuli/rescaled_final/0625_rv.mp4	0.0	246.52151703834534	
52	224.6484570503235	fix_post	2		12	50.0	2.5	/experiments/AOT/AOT_stimuli/rescaled_final/0625_rv.mp4	0.0	246.63928413391113	0.10031795501708984
53	224.74877500534058	fix_pre	0		120	51.0	2.5	/experiments/AOT/AOT_stimuli/rescaled_final/0612_rv.mp4	0.0	246.73960208892822	1.0000629425048828
53	225.74883794784546	movie	1		243	51.0	2.5	/experiments/AOT/AOT_stimuli/rescaled_final/0612_rv.mp4	0.0	247.7396650314331	2.5000431537628174
53	226.13184809684753	pulse	1	t		51.0	2.5	/experiments/AOT/AOT_stimuli/rescaled_final/0612_rv.mp4	0.0	248.12267518043518	
53	227.73231601715088	pulse	1	t		51.0	2.5	/experiments/AOT/AOT_stimuli/rescaled_final/0612_rv.mp4	0.0	249.72314310073853	
53	228.24888110160828	fix_post	2		12	51.0	2.5	/experiments/AOT/AOT_stimuli/rescaled_final/0612_rv.mp4	0.0	250.23970818519592	0.09987497329711914
54	228.3487560749054	fix_pre	0		119	52.0	2.5	/experiments/AOT/AOT_stimuli/rescaled_final/0293_fw.mp4	0.0	250.33958315849304	0.9917280673980713
54	229.33241510391235	pulse	0	t		52.0	2.5	/experiments/AOT/AOT_stimuli/rescaled_final/0293_fw.mp4	0.0	251.3232421875	
54	229.34048414230347	movie	1		247	52.0	2.5	/experiments/AOT/AOT_stimuli/rescaled_final/0293_fw.mp4	0.0	251.3313112258911	2.507974863052368
54	230.93130898475647	pulse	1	t		52.0	2.5	/experiments/AOT/AOT_stimuli/rescaled_final/0293_fw.mp4	0.0	252.92213606834412	
54	231.84845900535583	fix_post	2		12	52.0	2.5	/experiments/AOT/AOT_stimuli/rescaled_final/0293_fw.mp4	0.0	253.83928608894348	0.10039710998535156
55	231.9488561153412	fix_pre	0		120	53.0	2.5	/experiments/AOT/AOT_stimuli/rescaled_final/0599_rv.mp4	0.0	253.93968319892883	1.0001039505004883
55	232.53243207931519	pulse	0	t		53.0	2.5	/experiments/AOT/AOT_stimuli/rescaled_final/0599_rv.mp4	0.0	254.52325916290283	
55	232.94896006584167	movie	1		246	53.0	2.5	/experiments/AOT/AOT_stimuli/rescaled_final/0599_rv.mp4	0.0	254.93978714942932	2.4998369216918945
55	234.13220596313477	pulse	1	t		53.0	2.5	/experiments/AOT/AOT_stimuli/rescaled_final/0599_rv.mp4	0.0	256.1230330467224	
55	235.44879698753357	fix_post	2		12	53.0	2.5	/experiments/AOT/AOT_stimuli/rescaled_final/0599_rv.mp4	0.0	257.4396240711212	0.09994101524353027
56	235.5487380027771	fix_pre	0		120	54.0	2.5	blank	1.0	257.53956508636475	1.0000481605529785
56	235.73228693008423	pulse	0	t		54.0	2.5	blank	1.0	257.7231140136719	
56	236.54878616333008	movie	1		300	54.0	2.5	blank	1.0	258.5396132469177	2.499964952468872
56	237.33231711387634	pulse	1	t		54.0	2.5	blank	1.0	259.323144197464	
56	238.93215608596802	pulse	1	t		54.0	2.5	blank	1.0	260.92298316955566	
56	239.04875111579895	fix_post	2		12	54.0	2.5	blank	1.0	261.0395781993866	0.0999898910522461
57	239.1487410068512	fix_pre	0		120	55.0	2.5	/experiments/AOT/AOT_stimuli/rescaled_final/0893_rv.mp4	0.0	261.13956809043884	0.9999620914459229
57	240.14870309829712	movie	1		242	55.0	2.5	/experiments/AOT/AOT_stimuli/rescaled_final/0893_rv.mp4	0.0	262.13953018188477	2.5000228881835938
57	240.53230714797974	pulse	1	t		55.0	2.5	/experiments/AOT/AOT_stimuli/rescaled_final/0893_rv.mp4	0.0	262.5231342315674	
57	242.13226914405823	pulse	1	t		55.0	2.5	/experiments/AOT/AOT_stimuli/rescaled_final/0893_rv.mp4	0.0	264.1230962276459	
57	242.6487259864807	fix_post	2		12	55.0	2.5	/experiments/AOT/AOT_stimuli/rescaled_final/0893_rv.mp4	0.0	264.63955307006836	0.09998011589050293
58	242.74870610237122	fix_pre	0		119	56.0	2.5	/experiments/AOT/AOT_stimuli/rescaled_final/2006_fw.mp4	0.0	264.73953318595886	0.9917278289794922
58	243.7321960926056	pulse	0	t		56.0	2.5	/experiments/AOT/AOT_stimuli/rescaled_final/2006_fw.mp4	0.0	265.72302317619324	
58	243.7404339313507	movie	1		244	56.0	2.5	/experiments/AOT/AOT_stimuli/rescaled_final/2006_fw.mp4	0.0	265.73126101493835	2.5082640647888184
58	245.3318841457367	pulse	1	t		56.0	2.5	/experiments/AOT/AOT_stimuli/rescaled_final/2006_fw.mp4	0.0	267.32271122932434	
58	246.24869799613953	fix_post	2		12	56.0	2.5	/experiments/AOT/AOT_stimuli/rescaled_final/2006_fw.mp4	0.0	268.2395250797272	0.09997415542602539
59	246.34867215156555	fix_pre	0		120	57.0	2.5	/experiments/AOT/AOT_stimuli/rescaled_final/1770_rv.mp4	0.0	268.3394992351532	1.0001490116119385
59	246.93216800689697	pulse	0	t		57.0	2.5	/experiments/AOT/AOT_stimuli/rescaled_final/1770_rv.mp4	0.0	268.9229950904846	
59	247.3488211631775	movie	1		244	57.0	2.5	/experiments/AOT/AOT_stimuli/rescaled_final/1770_rv.mp4	0.0	269.33964824676514	2.499863862991333
59	248.53228497505188	pulse	1	t		57.0	2.5	/experiments/AOT/AOT_stimuli/rescaled_final/1770_rv.mp4	0.0	270.5231120586395	
59	249.84868502616882	fix_post	2		12	57.0	2.5	/experiments/AOT/AOT_stimuli/rescaled_final/1770_rv.mp4	0.0	271.83951210975647	0.09996604919433594
60	249.94865107536316	fix_pre	0		120	58.0	2.5	/experiments/AOT/AOT_stimuli/rescaled_final/0746_fw.mp4	0.0	271.9394781589508	1.0000410079956055
60	250.1321520805359	pulse	0	t		58.0	2.5	/experiments/AOT/AOT_stimuli/rescaled_final/0746_fw.mp4	0.0	272.12297916412354	
60	250.94869208335876	movie	1		245	58.0	2.5	/experiments/AOT/AOT_stimuli/rescaled_final/0746_fw.mp4	0.0	272.9395191669464	2.4999258518218994
60	251.73219895362854	pulse	1	t		58.0	2.5	/experiments/AOT/AOT_stimuli/rescaled_final/0746_fw.mp4	0.0	273.7230260372162	
60	253.3309359550476	pulse	1	t		58.0	2.5	/experiments/AOT/AOT_stimuli/rescaled_final/0746_fw.mp4	0.0	275.32176303863525	
60	253.44861793518066	fix_post	2		12	58.0	2.5	/experiments/AOT/AOT_stimuli/rescaled_final/0746_fw.mp4	0.0	275.4394450187683	0.09995603561401367
61	253.54857397079468	fix_pre	0		120	59.0	2.5	/experiments/AOT/AOT_stimuli/rescaled_final/0042_fw.mp4	0.0	275.5394010543823	1.0001749992370605
61	254.54874897003174	movie	1		247	59.0	2.5	/experiments/AOT/AOT_stimuli/rescaled_final/0042_fw.mp4	0.0	276.5395760536194	2.499483108520508
61	254.93222403526306	pulse	1	t		59.0	2.5	/experiments/AOT/AOT_stimuli/rescaled_final/0042_fw.mp4	0.0	276.9230511188507	
61	256.5322210788727	pulse	1	t		59.0	2.5	/experiments/AOT/AOT_stimuli/rescaled_final/0042_fw.mp4	0.0	278.5230481624603	
61	257.04823207855225	fix_post	2		12	59.0	2.5	/experiments/AOT/AOT_stimuli/rescaled_final/0042_fw.mp4	0.0	279.0390591621399	0.10049986839294434
62	257.1487319469452	fix_pre	0		119	60.0	2.5	/experiments/AOT/AOT_stimuli/rescaled_final/2178_rv.mp4	0.0	279.13955903053284	0.9915750026702881
62	258.1321470737457	pulse	0	t		60.0	2.5	/experiments/AOT/AOT_stimuli/rescaled_final/2178_rv.mp4	0.0	280.1229741573334	
62	258.1403069496155	movie	1		245	60.0	2.5	/experiments/AOT/AOT_stimuli/rescaled_final/2178_rv.mp4	0.0	280.1311340332031	2.5083441734313965
62	259.7318289279938	pulse	1	t		60.0	2.5	/experiments/AOT/AOT_stimuli/rescaled_final/2178_rv.mp4	0.0	281.7226560115814	
62	260.6486511230469	fix_post	2		12	60.0	2.5	/experiments/AOT/AOT_stimuli/rescaled_final/2178_rv.mp4	0.0	282.6394782066345	0.09957385063171387
63	260.7482249736786	fix_pre	0		120	61.0	2.5	/experiments/AOT/AOT_stimuli/rescaled_final/0274_rv.mp4	0.0	282.73905205726624	1.0004141330718994
63	261.33215713500977	pulse	0	t		61.0	2.5	/experiments/AOT/AOT_stimuli/rescaled_final/0274_rv.mp4	0.0	283.3229842185974	
63	261.7486391067505	movie	1		243	61.0	2.5	/experiments/AOT/AOT_stimuli/rescaled_final/0274_rv.mp4	0.0	283.73946619033813	2.4999959468841553
63	262.9322090148926	pulse	1	t		61.0	2.5	/experiments/AOT/AOT_stimuli/rescaled_final/0274_rv.mp4	0.0	284.9230360984802	
63	264.24863505363464	fix_post	2		12	61.0	2.5	/experiments/AOT/AOT_stimuli/rescaled_final/0274_rv.mp4	0.0	286.2394621372223	0.09990692138671875
64	264.34854197502136	fix_pre	0		120	62.0	2.5	/experiments/AOT/AOT_stimuli/rescaled_final/1530_fw.mp4	0.0	286.339369058609	1.0001020431518555
64	264.53214406967163	pulse	0	t		62.0	2.5	/experiments/AOT/AOT_stimuli/rescaled_final/1530_fw.mp4	0.0	286.5229711532593	
64	265.3486440181732	movie	1		243	62.0	2.5	/experiments/AOT/AOT_stimuli/rescaled_final/1530_fw.mp4	0.0	287.33947110176086	2.499948024749756
64	266.1320991516113	pulse	1	t		62.0	2.5	/experiments/AOT/AOT_stimuli/rescaled_final/1530_fw.mp4	0.0	288.122926235199	
64	267.7305510044098	pulse	1	t		62.0	2.5	/experiments/AOT/AOT_stimuli/rescaled_final/1530_fw.mp4	0.0	289.72137808799744	
64	267.848592042923	fix_post	2		12	62.0	2.5	/experiments/AOT/AOT_stimuli/rescaled_final/1530_fw.mp4	0.0	289.8394191265106	0.10014104843139648
65	267.94873309135437	fix_pre	0		120	63.0	2.5	blank	1.0	289.939560174942	0.9998340606689453
65	268.9485671520233	movie	1		300	63.0	2.5	blank	1.0	290.93939423561096	2.500072956085205
65	269.332083940506	pulse	1	t		63.0	2.5	blank	1.0	291.3229110240936	
65	270.9321520328522	pulse	1	t		63.0	2.5	blank	1.0	292.9229791164398	
65	271.4486401081085	fix_post	2		12	63.0	2.5	blank	1.0	293.43946719169617	0.09999704360961914
66	271.54863715171814	fix_pre	0		119	64.0	2.5	/experiments/AOT/AOT_stimuli/rescaled_final/1656_fw.mp4	0.0	293.5394642353058	0.991595983505249
66	272.53209805488586	pulse	0	t		64.0	2.5	/experiments/AOT/AOT_stimuli/rescaled_final/1656_fw.mp4	0.0	294.5229251384735	
66	272.5402331352234	movie	1		246	64.0	2.5	/experiments/AOT/AOT_stimuli/rescaled_final/1656_fw.mp4	0.0	294.53106021881104	2.5084228515625
66	274.1317811012268	pulse	1	t		64.0	2.5	/experiments/AOT/AOT_stimuli/rescaled_final/1656_fw.mp4	0.0	296.12260818481445	
66	275.0486559867859	fix_post	2		12	64.0	2.5	/experiments/AOT/AOT_stimuli/rescaled_final/1656_fw.mp4	0.0	297.03948307037354	0.09994912147521973
67	275.1486051082611	fix_pre	0		120	65.0	2.5	/experiments/AOT/AOT_stimuli/rescaled_final/0632_rv.mp4	0.0	297.13943219184875	1.0000219345092773
67	275.732057094574	pulse	0	t		65.0	2.5	/experiments/AOT/AOT_stimuli/rescaled_final/0632_rv.mp4	0.0	297.7228841781616	
67	276.1486270427704	movie	1		245	65.0	2.5	/experiments/AOT/AOT_stimuli/rescaled_final/0632_rv.mp4	0.0	298.13945412635803	2.5000081062316895
67	277.3321671485901	pulse	1	t		65.0	2.5	/experiments/AOT/AOT_stimuli/rescaled_final/0632_rv.mp4	0.0	299.32299423217773	
67	278.6486351490021	fix_post	2		12	65.0	2.5	/experiments/AOT/AOT_stimuli/rescaled_final/0632_rv.mp4	0.0	300.6394622325897	0.0999147891998291
68	278.7485499382019	fix_pre	0		120	66.0	2.5	/experiments/AOT/AOT_stimuli/rescaled_final/1136_rv.mp4	0.0	300.73937702178955	1.0000581741333008
68	278.9321041107178	pulse	0	t		66.0	2.5	/experiments/AOT/AOT_stimuli/rescaled_final/1136_rv.mp4	0.0	300.9229311943054	
68	279.7486081123352	movie	1		244	66.0	2.5	/experiments/AOT/AOT_stimuli/rescaled_final/1136_rv.mp4	0.0	301.73943519592285	2.499513864517212
68	280.53209805488586	pulse	1	t		66.0	2.5	/experiments/AOT/AOT_stimuli/rescaled_final/1136_rv.mp4	0.0	302.5229251384735	
68	282.1328749656677	pulse	1	t		66.0	2.5	/experiments/AOT/AOT_stimuli/rescaled_final/1136_rv.mp4	0.0	304.12370204925537	
68	282.2481219768524	fix_post	2		12	66.0	2.5	/experiments/AOT/AOT_stimuli/rescaled_final/1136_rv.mp4	0.0	304.23894906044006	0.1003880500793457
69	282.34851002693176	fix_pre	0		120	67.0	2.5	/experiments/AOT/AOT_stimuli/rescaled_final/0489_fw.mp4	0.0	304.3393371105194	1.0000300407409668
69	283.34854006767273	movie	1		244	67.0	2.5	/experiments/AOT/AOT_stimuli/rescaled_final/0489_fw.mp4	0.0	305.3393671512604	2.4995150566101074
69	283.7322449684143	pulse	1	t		67.0	2.5	/experiments/AOT/AOT_stimuli/rescaled_final/0489_fw.mp4	0.0	305.72307205200195	
69	285.3321690559387	pulse	1	t		67.0	2.5	/experiments/AOT/AOT_stimuli/rescaled_final/0489_fw.mp4	0.0	307.32299613952637	
69	285.84805512428284	fix_post	2		12	67.0	2.5	/experiments/AOT/AOT_stimuli/rescaled_final/0489_fw.mp4	0.0	307.8388822078705	0.1004948616027832
70	285.9485499858856	fix_pre	0		119	68.0	2.5	/experiments/AOT/AOT_stimuli/rescaled_final/1355_fw.mp4	0.0	307.93937706947327	0.9916460514068604
70	286.93160009384155	pulse	0	t		68.0	2.5	/experiments/AOT/AOT_stimuli/rescaled_final/1355_fw.mp4	0.0	308.9224271774292	
70	286.9401960372925	movie	1		245	68.0	2.5	/experiments/AOT/AOT_stimuli/rescaled_final/1355_fw.mp4	0.0	308.9310231208801	2.5082690715789795
70	288.5311191082001	pulse	1	t		68.0	2.5	/experiments/AOT/AOT_stimuli/rescaled_final/1355_fw.mp4	0.0	310.5219461917877	
70	289.44846510887146	fix_post	2		12	68.0	2.5	/experiments/AOT/AOT_stimuli/rescaled_final/1355_fw.mp4	0.0	311.4392921924591	0.0998990535736084
71	289.54836416244507	fix_pre	0		120	69.0	2.5	blank	1.0	311.5391912460327	1.000166893005371
71	290.1320769786835	pulse	0	t		69.0	2.5	blank	1.0	312.1229040622711	
71	290.54853105545044	movie	1		300	69.0	2.5	blank	1.0	312.5393581390381	2.499945878982544
71	291.7320339679718	pulse	1	t		69.0	2.5	blank	1.0	313.72286105155945	
71	293.048476934433	fix_post	2		12	69.0	2.5	blank	1.0	315.03930401802063	0.10001420974731445
72	293.1484911441803	fix_pre	0		120	70.0	2.5	/experiments/AOT/AOT_stimuli/rescaled_final/2134_fw.mp4	0.0	315.13931822776794	0.9999959468841553
72	293.3320231437683	pulse	0	t		70.0	2.5	/experiments/AOT/AOT_stimuli/rescaled_final/2134_fw.mp4	0.0	315.32285022735596	
72	294.14848709106445	movie	1		246	70.0	2.5	/experiments/AOT/AOT_stimuli/rescaled_final/2134_fw.mp4	0.0	316.1393141746521	2.5000128746032715
72	294.93183398246765	pulse	1	t		70.0	2.5	/experiments/AOT/AOT_stimuli/rescaled_final/2134_fw.mp4	0.0	316.9226610660553	
72	296.530513048172	pulse	1	t		70.0	2.5	/experiments/AOT/AOT_stimuli/rescaled_final/2134_fw.mp4	0.0	318.52134013175964	
72	296.6484999656677	fix_post	2		12	70.0	2.5	/experiments/AOT/AOT_stimuli/rescaled_final/2134_fw.mp4	0.0	318.63932704925537	0.0999460220336914
73	296.7484459877014	fix_pre	0		120	71.0	2.5	/experiments/AOT/AOT_stimuli/rescaled_final/0531_rv.mp4	0.0	318.73927307128906	0.9999380111694336
73	297.74838399887085	movie	1		245	71.0	2.5	/experiments/AOT/AOT_stimuli/rescaled_final/0531_rv.mp4	0.0	319.7392110824585	2.4996349811553955
73	298.13298296928406	pulse	1	t		71.0	2.5	/experiments/AOT/AOT_stimuli/rescaled_final/0531_rv.mp4	0.0	320.1238100528717	
73	299.73190093040466	pulse	1	t		71.0	2.5	/experiments/AOT/AOT_stimuli/rescaled_final/0531_rv.mp4	0.0	321.7227280139923	
73	300.24801898002625	fix_post	2		12	71.0	2.5	/experiments/AOT/AOT_stimuli/rescaled_final/0531_rv.mp4	0.0	322.2388460636139	0.10036301612854004
74	300.3483819961548	fix_pre	0		119	72.0	2.5	/experiments/AOT/AOT_stimuli/rescaled_final/1358_fw.mp4	0.0	322.33920907974243	0.9917130470275879
74	301.3319489955902	pulse	0	t		72.0	2.5	/experiments/AOT/AOT_stimuli/rescaled_final/1358_fw.mp4	0.0	323.32277607917786	
74	301.3400950431824	movie	1		246	72.0	2.5	/experiments/AOT/AOT_stimuli/rescaled_final/1358_fw.mp4	0.0	323.33092212677	2.507873058319092
74	302.93170404434204	pulse	1	t		72.0	2.5	/experiments/AOT/AOT_stimuli/rescaled_final/1358_fw.mp4	0.0	324.9225311279297	
74	303.84796810150146	fix_post	2		12	72.0	2.5	/experiments/AOT/AOT_stimuli/rescaled_final/1358_fw.mp4	0.0	325.8387951850891	0.10045886039733887
75	303.9484269618988	fix_pre	0		120	73.0	2.5	/experiments/AOT/AOT_stimuli/rescaled_final/1268_fw.mp4	0.0	325.93925404548645	0.9999620914459229
75	304.53196597099304	pulse	0	t		73.0	2.5	/experiments/AOT/AOT_stimuli/rescaled_final/1268_fw.mp4	0.0	326.5227930545807	
75	304.9483890533447	movie	1		246	73.0	2.5	/experiments/AOT/AOT_stimuli/rescaled_final/1268_fw.mp4	0.0	326.9392161369324	2.4999849796295166
75	306.131982088089	pulse	1	t		73.0	2.5	/experiments/AOT/AOT_stimuli/rescaled_final/1268_fw.mp4	0.0	328.12280917167664	
75	307.44837403297424	fix_post	2		12	73.0	2.5	/experiments/AOT/AOT_stimuli/rescaled_final/1268_fw.mp4	0.0	329.4392011165619	0.10001492500305176
76	307.5483889579773	fix_pre	0		120	74.0	2.5	/experiments/AOT/AOT_stimuli/rescaled_final/1102_rv.mp4	0.0	329.53921604156494	1.000046968460083
76	307.73194193840027	pulse	0	t		74.0	2.5	/experiments/AOT/AOT_stimuli/rescaled_final/1102_rv.mp4	0.0	329.7227690219879	
76	308.5484359264374	movie	1		243	74.0	2.5	/experiments/AOT/AOT_stimuli/rescaled_final/1102_rv.mp4	0.0	330.539263010025	2.4995670318603516
76	309.3319251537323	pulse	1	t		74.0	2.5	/experiments/AOT/AOT_stimuli/rescaled_final/1102_rv.mp4	0.0	331.32275223731995	
76	310.93021392822266	pulse	1	t		74.0	2.5	/experiments/AOT/AOT_stimuli/rescaled_final/1102_rv.mp4	0.0	332.9210410118103	
76	311.04800295829773	fix_post	2		12	74.0	2.5	/experiments/AOT/AOT_stimuli/rescaled_final/1102_rv.mp4	0.0	333.0388300418854	0.10041117668151855
77	311.14841413497925	fix_pre	0		120	75.0	2.5	blank	1.0	333.1392412185669	0.9999618530273438
77	312.1483759880066	movie	1		300	75.0	2.5	blank	1.0	334.13920307159424	2.5000391006469727
77	312.5319149494171	pulse	1	t		75.0	2.5	blank	1.0	334.52274203300476	
77	314.13190603256226	pulse	1	t		75.0	2.5	blank	1.0	336.1227331161499	
77	314.64841508865356	fix_post	2		12	75.0	2.5	blank	1.0	336.6392421722412	0.09996986389160156
78	314.74838495254517	fix_pre	0		119	76.0	2.5	/experiments/AOT/AOT_stimuli/rescaled_final/1505_fw.mp4	0.0	336.7392120361328	0.9916481971740723
78	315.7318961620331	pulse	0	t		76.0	2.5	/experiments/AOT/AOT_stimuli/rescaled_final/1505_fw.mp4	0.0	337.7227232456207	
78	315.74003314971924	movie	1		245	76.0	2.5	/experiments/AOT/AOT_stimuli/rescaled_final/1505_fw.mp4	0.0	337.7308602333069	2.5083889961242676
78	317.33157896995544	pulse	1	t		76.0	2.5	/experiments/AOT/AOT_stimuli/rescaled_final/1505_fw.mp4	0.0	339.3224060535431	
78	318.2484221458435	fix_post	2		12	76.0	2.5	/experiments/AOT/AOT_stimuli/rescaled_final/1505_fw.mp4	0.0	340.23924922943115	0.09988689422607422
79	318.3483090400696	fix_pre	0		120	77.0	2.5	/experiments/AOT/AOT_stimuli/rescaled_final/1961_rv.mp4	0.0	340.3391361236572	1.0001111030578613
79	318.93190598487854	pulse	0	t		77.0	2.5	/experiments/AOT/AOT_stimuli/rescaled_final/1961_rv.mp4	0.0	340.9227330684662	
79	319.34842014312744	movie	1		245	77.0	2.5	/experiments/AOT/AOT_stimuli/rescaled_final/1961_rv.mp4	0.0	341.3392472267151	2.4996249675750732
79	320.5319290161133	pulse	1	t		77.0	2.5	/experiments/AOT/AOT_stimuli/rescaled_final/1961_rv.mp4	0.0	342.5227560997009	
79	321.8480451107025	fix_post	2		12	77.0	2.5	/experiments/AOT/AOT_stimuli/rescaled_final/1961_rv.mp4	0.0	343.83887219429016	0.1003119945526123
80	321.9483571052551	fix_pre	0		120	78.0	2.5	/experiments/AOT/AOT_stimuli/rescaled_final/1653_rv.mp4	0.0	343.9391841888428	1.0000429153442383
80	322.1318590641022	pulse	0	t		78.0	2.5	/experiments/AOT/AOT_stimuli/rescaled_final/1653_rv.mp4	0.0	344.1226861476898	
80	322.94840002059937	movie	1		244	78.0	2.5	/experiments/AOT/AOT_stimuli/rescaled_final/1653_rv.mp4	0.0	344.939227104187	2.499596118927002
80	323.73187804222107	pulse	1	t		78.0	2.5	/experiments/AOT/AOT_stimuli/rescaled_final/1653_rv.mp4	0.0	345.7227051258087	
80	325.3303620815277	pulse	1	t		78.0	2.5	/experiments/AOT/AOT_stimuli/rescaled_final/1653_rv.mp4	0.0	347.32118916511536	
80	325.44799613952637	fix_post	2		12	78.0	2.5	/experiments/AOT/AOT_stimuli/rescaled_final/1653_rv.mp4	0.0	347.438823223114	0.10036897659301758
81	325.5483651161194	fix_pre	0		120	79.0	2.5	/experiments/AOT/AOT_stimuli/rescaled_final/0489_rv.mp4	0.0	347.53919219970703	1.0000360012054443
81	326.54840111732483	movie	1		245	79.0	2.5	/experiments/AOT/AOT_stimuli/rescaled_final/0489_rv.mp4	0.0	348.5392282009125	2.499891996383667
81	326.93138813972473	pulse	1	t		79.0	2.5	/experiments/AOT/AOT_stimuli/rescaled_final/0489_rv.mp4	0.0	348.9222152233124	
81	328.5318441390991	pulse	1	t		79.0	2.5	/experiments/AOT/AOT_stimuli/rescaled_final/0489_rv.mp4	0.0	350.52267122268677	
81	329.0482931137085	fix_post	2		12	79.0	2.5	/experiments/AOT/AOT_stimuli/rescaled_final/0489_rv.mp4	0.0	351.03912019729614	0.10007381439208984
82	329.1483669281006	fix_pre	0		119	80.0	2.5	/experiments/AOT/AOT_stimuli/rescaled_final/0421_rv.mp4	0.0	351.13919401168823	0.9916050434112549
82	330.13185000419617	pulse	0	t		80.0	2.5	/experiments/AOT/AOT_stimuli/rescaled_final/0421_rv.mp4	0.0	352.1226770877838	
82	330.13997197151184	movie	1		245	80.0	2.5	/experiments/AOT/AOT_stimuli/rescaled_final/0421_rv.mp4	0.0	352.1307990550995	2.5083651542663574
82	331.7317171096802	pulse	1	t		80.0	2.5	/experiments/AOT/AOT_stimuli/rescaled_final/0421_rv.mp4	0.0	353.7225441932678	
82	332.6483371257782	fix_post	2		12	80.0	2.5	/experiments/AOT/AOT_stimuli/rescaled_final/0421_rv.mp4	0.0	354.63916420936584	0.09997391700744629
83	332.74831104278564	fix_pre	0		120	81.0	2.5	/experiments/AOT/AOT_stimuli/rescaled_final/0893_fw.mp4	0.0	354.7391381263733	0.9999799728393555
83	333.3318009376526	pulse	0	t		81.0	2.5	/experiments/AOT/AOT_stimuli/rescaled_final/0893_fw.mp4	0.0	355.32262802124023	
83	333.748291015625	movie	1		244	81.0	2.5	/experiments/AOT/AOT_stimuli/rescaled_final/0893_fw.mp4	0.0	355.73911809921265	2.5000569820404053
83	334.9317660331726	pulse	1	t		81.0	2.5	/experiments/AOT/AOT_stimuli/rescaled_final/0893_fw.mp4	0.0	356.92259311676025	
83	336.2483479976654	fix_post	2		12	81.0	2.5	/experiments/AOT/AOT_stimuli/rescaled_final/0893_fw.mp4	0.0	358.23917508125305	0.0999000072479248
84	336.34824800491333	fix_pre	0		120	82.0	2.5	blank	1.0	358.339075088501	0.9996809959411621
84	336.5317759513855	pulse	0	t		82.0	2.5	blank	1.0	358.52260303497314	
84	337.3479290008545	movie	1		300	82.0	2.5	blank	1.0	359.33875608444214	2.500415086746216
84	338.1317620277405	pulse	1	t		82.0	2.5	blank	1.0	360.1225891113281	
84	339.73185205459595	pulse	1	t		82.0	2.5	blank	1.0	361.7226791381836	
84	339.8483440876007	fix_post	2		12	82.0	2.5	blank	1.0	361.83917117118835	0.09989690780639648
85	339.9482409954071	fix_pre	0		120	83.0	2.5	/experiments/AOT/AOT_stimuli/rescaled_final/0134_fw.mp4	0.0	361.93906807899475	1.0000560283660889
85	340.9482970237732	movie	1		246	83.0	2.5	/experiments/AOT/AOT_stimuli/rescaled_final/0134_fw.mp4	0.0	362.93912410736084	2.499596118927002
85	341.3314690589905	pulse	1	t		83.0	2.5	/experiments/AOT/AOT_stimuli/rescaled_final/0134_fw.mp4	0.0	363.3222961425781	
85	342.9312460422516	pulse	1	t		83.0	2.5	/experiments/AOT/AOT_stimuli/rescaled_final/0134_fw.mp4	0.0	364.92207312583923	
85	343.4478931427002	fix_post	2		12	83.0	2.5	/experiments/AOT/AOT_stimuli/rescaled_final/0134_fw.mp4	0.0	365.43872022628784	0.10040593147277832
87	343.548299074173	stim	0		1716					365.5391261577606	14.299951076507568
87	344.5318920612335	pulse	0	t						366.52271914482117	
87	346.13169503211975	pulse	0	t						368.1225221157074	
87	347.73169803619385	pulse	0	t						369.7225251197815	
87	349.33177614212036	pulse	0	t						371.322603225708	
87	350.9316289424896	pulse	0	t						372.92245602607727	
87	352.5316870212555	pulse	0	t						374.52251410484314	
87	354.13167095184326	pulse	0	t						376.1224980354309	
87	355.73157501220703	pulse	0	t						377.7224020957947	
87	357.3317220211029	pulse	0	t						379.32254910469055	
