trial_nr	onset	event_type	phase	response	nr_frames	movie_index	movie_duration	movie_file	blank	onset_abs	duration
0	0.14983582496643066	stim	0		8					18.889602422714233	0.07491445541381836
0	0.21699762344360352	response	0	space						18.956764221191406	
1	0.22475028038024902	stim	0		4486					18.96451687812805	37.392244815826416
1	37.60686278343201	pulse	0	t						56.34662938117981	
1	37.616995096206665	stim	1		1715					56.35676169395447	14.307224988937378
1	39.205928325653076	pulse	1	t						57.94569492340088	
1	40.80611562728882	pulse	1	t						59.54588222503662	
1	42.406373739242554	pulse	1	t						61.146140336990356	
1	44.006874561309814	pulse	1	t						62.74664115905762	
1	45.60686373710632	pulse	1	t						64.34663033485413	
1	47.2073609828949	pulse	1	t						65.9471275806427	
1	48.807308197021484	pulse	1	t						67.54707479476929	
1	50.407533168792725	pulse	1	t						69.14729976654053	
2	51.92422008514404	fix_pre	0		11	0.0	2.5	/experiments/knapen_AOT/AOT_stimuli/rescaled_final/0706_fw.mp4	0.0	70.66398668289185	0.11696982383728027
2	52.00796818733215	pulse	0	t		0.0	2.5	/experiments/knapen_AOT/AOT_stimuli/rescaled_final/0706_fw.mp4	0.0	70.74773478507996	
2	52.04118990898132	movie	1		277	0.0	2.5	/experiments/knapen_AOT/AOT_stimuli/rescaled_final/0706_fw.mp4	0.0	70.78095650672913	2.483689069747925
2	53.60741591453552	pulse	1	t		0.0	2.5	/experiments/knapen_AOT/AOT_stimuli/rescaled_final/0706_fw.mp4	0.0	72.34718251228333	
2	54.52487897872925	fix_post	2		12	0.0	2.5	/experiments/knapen_AOT/AOT_stimuli/rescaled_final/0706_fw.mp4	0.0	73.26464557647705	0.09981560707092285
3	54.62469458580017	fix_pre	0		120	1.0	2.5	/experiments/knapen_AOT/AOT_stimuli/rescaled_final/0005_rv.mp4	0.0	73.36446118354797	1.008556842803955
3	55.20835995674133	pulse	0	t		1.0	2.5	/experiments/knapen_AOT/AOT_stimuli/rescaled_final/0005_rv.mp4	0.0	73.94812655448914	
3	55.633251428604126	movie	1		281	1.0	2.5	/experiments/knapen_AOT/AOT_stimuli/rescaled_final/0005_rv.mp4	0.0	74.37301802635193	2.4919276237487793
3	56.806928396224976	pulse	1	t		1.0	2.5	/experiments/knapen_AOT/AOT_stimuli/rescaled_final/0005_rv.mp4	0.0	75.54669499397278	
3	58.125179052352905	fix_post	2		12	1.0	2.5	/experiments/knapen_AOT/AOT_stimuli/rescaled_final/0005_rv.mp4	0.0	76.86494565010071	0.09998393058776855
4	58.225162982940674	fix_pre	0		120	2.0	2.5	/experiments/knapen_AOT/AOT_stimuli/rescaled_final/0374_rv.mp4	0.0	76.96492958068848	1.008638620376587
4	58.40876007080078	pulse	0	t		2.0	2.5	/experiments/knapen_AOT/AOT_stimuli/rescaled_final/0374_rv.mp4	0.0	77.14852666854858	
4	59.23380160331726	movie	1		285	2.0	2.5	/experiments/knapen_AOT/AOT_stimuli/rescaled_final/0374_rv.mp4	0.0	77.97356820106506	2.4918923377990723
4	60.007227659225464	pulse	1	t		2.0	2.5	/experiments/knapen_AOT/AOT_stimuli/rescaled_final/0374_rv.mp4	0.0	78.74699425697327	
4	61.60699462890625	pulse	1	t		2.0	2.5	/experiments/knapen_AOT/AOT_stimuli/rescaled_final/0374_rv.mp4	0.0	80.34676122665405	
4	61.72569394111633	fix_post	2		12	2.0	2.5	/experiments/knapen_AOT/AOT_stimuli/rescaled_final/0374_rv.mp4	0.0	80.46546053886414	0.10002350807189941
5	61.82571744918823	fix_pre	0		120	3.0	2.5	/experiments/knapen_AOT/AOT_stimuli/rescaled_final/1493_fw.mp4	0.0	80.56548404693604	1.0085036754608154
5	62.83422112464905	movie	1		284	3.0	2.5	/experiments/knapen_AOT/AOT_stimuli/rescaled_final/1493_fw.mp4	0.0	81.57398772239685	2.4920241832733154
5	63.20781493186951	pulse	1	t		3.0	2.5	/experiments/knapen_AOT/AOT_stimuli/rescaled_final/1493_fw.mp4	0.0	81.94758152961731	
5	64.8075659275055	pulse	1	t		3.0	2.5	/experiments/knapen_AOT/AOT_stimuli/rescaled_final/1493_fw.mp4	0.0	83.5473325252533	
5	65.32624530792236	fix_post	2		12	3.0	2.5	/experiments/knapen_AOT/AOT_stimuli/rescaled_final/1493_fw.mp4	0.0	84.06601190567017	0.10000491142272949
6	65.42625021934509	fix_pre	0		119	4.0	2.5	/experiments/knapen_AOT/AOT_stimuli/rescaled_final/0311_fw.mp4	0.0	84.1660168170929	1.0002145767211914
6	66.4101026058197	pulse	0	t		4.0	2.5	/experiments/knapen_AOT/AOT_stimuli/rescaled_final/0311_fw.mp4	0.0	85.1498692035675	
6	66.42646479606628	movie	1		275	4.0	2.5	/experiments/knapen_AOT/AOT_stimuli/rescaled_final/0311_fw.mp4	0.0	85.16623139381409	2.5005581378936768
6	68.00864386558533	pulse	1	t		4.0	2.5	/experiments/knapen_AOT/AOT_stimuli/rescaled_final/0311_fw.mp4	0.0	86.74841046333313	
6	68.92702293395996	fix_post	2		12	4.0	2.5	/experiments/knapen_AOT/AOT_stimuli/rescaled_final/0311_fw.mp4	0.0	87.66678953170776	0.09979629516601562
7	69.02681922912598	fix_pre	0		120	5.0	2.5	blank	1.0	87.76658582687378	1.0001428127288818
7	69.61055183410645	pulse	0	t		5.0	2.5	blank	1.0	88.35031843185425	
7	70.02696204185486	movie	1		300	5.0	2.5	blank	1.0	88.76672863960266	2.500344753265381
7	71.21066689491272	pulse	1	t		5.0	2.5	blank	1.0	89.95043349266052	
7	72.52730679512024	fix_post	2		12	5.0	2.5	blank	1.0	91.26707339286804	0.10003447532653809
8	72.62734127044678	fix_pre	0		120	6.0	2.5	/experiments/knapen_AOT/AOT_stimuli/rescaled_final/1075_fw.mp4	0.0	91.36710786819458	1.008777379989624
8	72.81097793579102	pulse	0	t		6.0	2.5	/experiments/knapen_AOT/AOT_stimuli/rescaled_final/1075_fw.mp4	0.0	91.55074453353882	
8	73.6361186504364	movie	1		268	6.0	2.5	/experiments/knapen_AOT/AOT_stimuli/rescaled_final/1075_fw.mp4	0.0	92.3758852481842	2.5003323554992676
8	74.41172289848328	pulse	1	t		6.0	2.5	/experiments/knapen_AOT/AOT_stimuli/rescaled_final/1075_fw.mp4	0.0	93.15148949623108	
8	76.0102813243866	pulse	1	t		6.0	2.5	/experiments/knapen_AOT/AOT_stimuli/rescaled_final/1075_fw.mp4	0.0	94.7500479221344	
8	76.13645100593567	fix_post	2		11	6.0	2.5	/experiments/knapen_AOT/AOT_stimuli/rescaled_final/1075_fw.mp4	0.0	94.87621760368347	0.09145665168762207
9	76.22790765762329	fix_pre	0		120	7.0	2.5	/experiments/knapen_AOT/AOT_stimuli/rescaled_final/1283_rv.mp4	0.0	94.9676742553711	1.0084960460662842
9	77.23640370368958	movie	1		263	7.0	2.5	/experiments/knapen_AOT/AOT_stimuli/rescaled_final/1283_rv.mp4	0.0	95.97617030143738	2.492088794708252
9	77.6095986366272	pulse	1	t		7.0	2.5	/experiments/knapen_AOT/AOT_stimuli/rescaled_final/1283_rv.mp4	0.0	96.349365234375	
9	79.20985531806946	pulse	1	t		7.0	2.5	/experiments/knapen_AOT/AOT_stimuli/rescaled_final/1283_rv.mp4	0.0	97.94962191581726	
9	79.72849249839783	fix_post	2		12	7.0	2.5	/experiments/knapen_AOT/AOT_stimuli/rescaled_final/1283_rv.mp4	0.0	98.46825909614563	0.09991741180419922
10	79.82840991020203	fix_pre	0		119	8.0	2.5	/experiments/knapen_AOT/AOT_stimuli/rescaled_final/1075_fw.mp4	0.0	98.56817650794983	1.0002970695495605
10	80.8123140335083	pulse	0	t		8.0	2.5	/experiments/knapen_AOT/AOT_stimuli/rescaled_final/1075_fw.mp4	0.0	99.5520806312561	
10	80.82870697975159	movie	1		262	8.0	2.5	/experiments/knapen_AOT/AOT_stimuli/rescaled_final/1075_fw.mp4	0.0	99.56847357749939	2.5006368160247803
10	82.41248393058777	pulse	1	t		8.0	2.5	/experiments/knapen_AOT/AOT_stimuli/rescaled_final/1075_fw.mp4	0.0	101.15225052833557	
10	83.32934379577637	fix_post	2		12	8.0	2.5	/experiments/knapen_AOT/AOT_stimuli/rescaled_final/1075_fw.mp4	0.0	102.06911039352417	0.09962844848632812
11	83.4289722442627	fix_pre	0		120	9.0	2.5	/experiments/knapen_AOT/AOT_stimuli/rescaled_final/0216_fw.mp4	0.0	102.1687388420105	1.0086498260498047
11	84.01255059242249	pulse	0	t		9.0	2.5	/experiments/knapen_AOT/AOT_stimuli/rescaled_final/0216_fw.mp4	0.0	102.75231719017029	
11	84.4376220703125	movie	1		268	9.0	2.5	/experiments/knapen_AOT/AOT_stimuli/rescaled_final/0216_fw.mp4	0.0	103.1773886680603	2.492049217224121
11	85.6109869480133	pulse	1	t		9.0	2.5	/experiments/knapen_AOT/AOT_stimuli/rescaled_final/0216_fw.mp4	0.0	104.35075354576111	
11	86.92967128753662	fix_post	2		12	9.0	2.5	/experiments/knapen_AOT/AOT_stimuli/rescaled_final/0216_fw.mp4	0.0	105.66943788528442	0.09982728958129883
12	87.02949857711792	fix_pre	0		120	10.0	2.5	/experiments/knapen_AOT/AOT_stimuli/rescaled_final/0471_fw.mp4	0.0	105.76926517486572	1.008580207824707
12	87.20539593696594	pulse	0	t		10.0	2.5	/experiments/knapen_AOT/AOT_stimuli/rescaled_final/0471_fw.mp4	0.0	105.94516253471375	
12	88.03807878494263	movie	1		264	10.0	2.5	/experiments/knapen_AOT/AOT_stimuli/rescaled_final/0471_fw.mp4	0.0	106.77784538269043	2.49198055267334
12	88.81138134002686	pulse	1	t		10.0	2.5	/experiments/knapen_AOT/AOT_stimuli/rescaled_final/0471_fw.mp4	0.0	107.55114793777466	
12	90.40539789199829	pulse	1	t		10.0	2.5	/experiments/knapen_AOT/AOT_stimuli/rescaled_final/0471_fw.mp4	0.0	109.1451644897461	
12	90.53005933761597	fix_post	2		12	10.0	2.5	/experiments/knapen_AOT/AOT_stimuli/rescaled_final/0471_fw.mp4	0.0	109.26982593536377	0.09996962547302246
13	90.63002896308899	fix_pre	0		120	11.0	2.5	/experiments/knapen_AOT/AOT_stimuli/rescaled_final/1163_fw.mp4	0.0	109.36979556083679	1.008744716644287
13	91.63877367973328	movie	1		270	11.0	2.5	/experiments/knapen_AOT/AOT_stimuli/rescaled_final/1163_fw.mp4	0.0	110.37854027748108	2.4918036460876465
13	92.00558423995972	pulse	1	t		11.0	2.5	/experiments/knapen_AOT/AOT_stimuli/rescaled_final/1163_fw.mp4	0.0	110.74535083770752	
13	93.60572648048401	pulse	1	t		11.0	2.5	/experiments/knapen_AOT/AOT_stimuli/rescaled_final/1163_fw.mp4	0.0	112.34549307823181	
13	94.13057732582092	fix_post	2		12	11.0	2.5	/experiments/knapen_AOT/AOT_stimuli/rescaled_final/1163_fw.mp4	0.0	112.87034392356873	0.10007095336914062
14	94.23064827919006	fix_pre	0		118	12.0	2.5	blank	1.0	112.97041487693787	0.983412504196167
14	95.2059178352356	pulse	0	t		12.0	2.5	blank	1.0	113.9456844329834	
14	95.21406078338623	movie	1		301	12.0	2.5	blank	1.0	113.95382738113403	2.508763551712036
14	96.80621862411499	pulse	1	t		12.0	2.5	blank	1.0	115.5459852218628	
14	97.72282433509827	fix_post	2		12	12.0	2.5	blank	1.0	116.46259093284607	0.09996223449707031
15	97.82278656959534	fix_pre	0		120	13.0	2.5	/experiments/knapen_AOT/AOT_stimuli/rescaled_final/1686_rv.mp4	0.0	116.56255316734314	1.0084960460662842
15	98.40642070770264	pulse	0	t		13.0	2.5	/experiments/knapen_AOT/AOT_stimuli/rescaled_final/1686_rv.mp4	0.0	117.14618730545044	
15	98.83128261566162	movie	1		268	13.0	2.5	/experiments/knapen_AOT/AOT_stimuli/rescaled_final/1686_rv.mp4	0.0	117.57104921340942	2.492041826248169
15	100.00587844848633	pulse	1	t		13.0	2.5	/experiments/knapen_AOT/AOT_stimuli/rescaled_final/1686_rv.mp4	0.0	118.74564504623413	
15	101.32332444190979	fix_post	2		12	13.0	2.5	/experiments/knapen_AOT/AOT_stimuli/rescaled_final/1686_rv.mp4	0.0	120.06309103965759	0.10000181198120117
16	101.42332625389099	fix_pre	0		120	14.0	2.5	/experiments/knapen_AOT/AOT_stimuli/rescaled_final/0865_fw.mp4	0.0	120.1630928516388	1.0085110664367676
16	101.60695433616638	pulse	0	t		14.0	2.5	/experiments/knapen_AOT/AOT_stimuli/rescaled_final/0865_fw.mp4	0.0	120.34672093391418	
16	102.43183732032776	movie	1		268	14.0	2.5	/experiments/knapen_AOT/AOT_stimuli/rescaled_final/0865_fw.mp4	0.0	121.17160391807556	2.5003743171691895
16	103.2072901725769	pulse	1	t		14.0	2.5	/experiments/knapen_AOT/AOT_stimuli/rescaled_final/0865_fw.mp4	0.0	121.9470567703247	
16	104.80780243873596	pulse	1	t		14.0	2.5	/experiments/knapen_AOT/AOT_stimuli/rescaled_final/0865_fw.mp4	0.0	123.54756903648376	
16	104.93221163749695	fix_post	2		11	14.0	2.5	/experiments/knapen_AOT/AOT_stimuli/rescaled_final/0865_fw.mp4	0.0	123.67197823524475	0.09167337417602539
17	105.02388501167297	fix_pre	0		120	15.0	2.5	/experiments/knapen_AOT/AOT_stimuli/rescaled_final/0449_rv.mp4	0.0	123.76365160942078	1.0086402893066406
17	106.03252530097961	movie	1		274	15.0	2.5	/experiments/knapen_AOT/AOT_stimuli/rescaled_final/0449_rv.mp4	0.0	124.77229189872742	2.4918720722198486
17	106.40752744674683	pulse	1	t		15.0	2.5	/experiments/knapen_AOT/AOT_stimuli/rescaled_final/0449_rv.mp4	0.0	125.14729404449463	
17	108.00822281837463	pulse	1	t		15.0	2.5	/experiments/knapen_AOT/AOT_stimuli/rescaled_final/0449_rv.mp4	0.0	126.74798941612244	
17	108.52439737319946	fix_post	2		12	15.0	2.5	/experiments/knapen_AOT/AOT_stimuli/rescaled_final/0449_rv.mp4	0.0	127.26416397094727	0.10001492500305176
18	108.62441229820251	fix_pre	0		119	16.0	2.5	/experiments/knapen_AOT/AOT_stimuli/rescaled_final/2059_rv.mp4	0.0	127.36417889595032	1.000178575515747
18	109.60809254646301	pulse	0	t		16.0	2.5	/experiments/knapen_AOT/AOT_stimuli/rescaled_final/2059_rv.mp4	0.0	128.34785914421082	
18	109.62459087371826	movie	1		273	16.0	2.5	/experiments/knapen_AOT/AOT_stimuli/rescaled_final/2059_rv.mp4	0.0	128.36435747146606	2.5003745555877686
18	111.20677447319031	pulse	1	t		16.0	2.5	/experiments/knapen_AOT/AOT_stimuli/rescaled_final/2059_rv.mp4	0.0	129.9465410709381	
18	112.12496542930603	fix_post	2		12	16.0	2.5	/experiments/knapen_AOT/AOT_stimuli/rescaled_final/2059_rv.mp4	0.0	130.86473202705383	0.10002255439758301
19	112.22498798370361	fix_pre	0		120	17.0	2.5	/experiments/knapen_AOT/AOT_stimuli/rescaled_final/0321_fw.mp4	0.0	130.96475458145142	1.0084648132324219
19	112.80857253074646	pulse	0	t		17.0	2.5	/experiments/knapen_AOT/AOT_stimuli/rescaled_final/0321_fw.mp4	0.0	131.54833912849426	
19	113.23345279693604	movie	1		273	17.0	2.5	/experiments/knapen_AOT/AOT_stimuli/rescaled_final/0321_fw.mp4	0.0	131.97321939468384	2.492311716079712
19	114.40932178497314	pulse	1	t		17.0	2.5	/experiments/knapen_AOT/AOT_stimuli/rescaled_final/0321_fw.mp4	0.0	133.14908838272095	
19	115.72576451301575	fix_post	2		12	17.0	2.5	/experiments/knapen_AOT/AOT_stimuli/rescaled_final/0321_fw.mp4	0.0	134.46553111076355	0.09973263740539551
20	115.82549715042114	fix_pre	0		120	18.0	2.5	/experiments/knapen_AOT/AOT_stimuli/rescaled_final/2066_rv.mp4	0.0	134.56526374816895	1.0084717273712158
20	116.00911951065063	pulse	0	t		18.0	2.5	/experiments/knapen_AOT/AOT_stimuli/rescaled_final/2066_rv.mp4	0.0	134.74888610839844	
20	116.83396887779236	movie	1		269	18.0	2.5	/experiments/knapen_AOT/AOT_stimuli/rescaled_final/2066_rv.mp4	0.0	135.57373547554016	2.4920527935028076
20	117.60745286941528	pulse	1	t		18.0	2.5	/experiments/knapen_AOT/AOT_stimuli/rescaled_final/2066_rv.mp4	0.0	136.3472194671631	
20	119.20746159553528	pulse	1	t		18.0	2.5	/experiments/knapen_AOT/AOT_stimuli/rescaled_final/2066_rv.mp4	0.0	137.94722819328308	
20	119.32602167129517	fix_post	2		12	18.0	2.5	/experiments/knapen_AOT/AOT_stimuli/rescaled_final/2066_rv.mp4	0.0	138.06578826904297	0.10001397132873535
21	119.4260356426239	fix_pre	0		120	19.0	2.5	/experiments/knapen_AOT/AOT_stimuli/rescaled_final/0296_rv.mp4	0.0	138.1658022403717	1.008528709411621
21	120.43456435203552	movie	1		272	19.0	2.5	/experiments/knapen_AOT/AOT_stimuli/rescaled_final/0296_rv.mp4	0.0	139.17433094978333	2.492074728012085
21	120.81004214286804	pulse	1	t		19.0	2.5	/experiments/knapen_AOT/AOT_stimuli/rescaled_final/0296_rv.mp4	0.0	139.54980874061584	
21	122.40810513496399	pulse	1	t		19.0	2.5	/experiments/knapen_AOT/AOT_stimuli/rescaled_final/0296_rv.mp4	0.0	141.1478717327118	
21	122.92663908004761	fix_post	2		12	19.0	2.5	/experiments/knapen_AOT/AOT_stimuli/rescaled_final/0296_rv.mp4	0.0	141.6664056777954	0.10006308555603027
22	123.02670216560364	fix_pre	0		119	20.0	2.5	blank	1.0	141.76646876335144	0.9916880130767822
22	124.01023292541504	pulse	0	t		20.0	2.5	blank	1.0	142.74999952316284	
22	124.01839017868042	movie	1		301	20.0	2.5	blank	1.0	142.75815677642822	2.508704423904419
22	125.6104941368103	pulse	1	t		20.0	2.5	blank	1.0	144.3502607345581	
22	126.52709460258484	fix_post	2		12	20.0	2.5	blank	1.0	145.26686120033264	0.10001325607299805
23	126.62710785865784	fix_pre	0		120	21.0	2.5	/experiments/knapen_AOT/AOT_stimuli/rescaled_final/1635_fw.mp4	0.0	145.36687445640564	1.008549451828003
23	127.21080040931702	pulse	0	t		21.0	2.5	/experiments/knapen_AOT/AOT_stimuli/rescaled_final/1635_fw.mp4	0.0	145.95056700706482	
23	127.63565731048584	movie	1		273	21.0	2.5	/experiments/knapen_AOT/AOT_stimuli/rescaled_final/1635_fw.mp4	0.0	146.37542390823364	2.492102861404419
23	128.81164073944092	pulse	1	t		21.0	2.5	/experiments/knapen_AOT/AOT_stimuli/rescaled_final/1635_fw.mp4	0.0	147.55140733718872	
23	130.12776017189026	fix_post	2		12	21.0	2.5	/experiments/knapen_AOT/AOT_stimuli/rescaled_final/1635_fw.mp4	0.0	148.86752676963806	0.09990930557250977
24	130.22766947746277	fix_pre	0		120	22.0	2.5	/experiments/knapen_AOT/AOT_stimuli/rescaled_final/0711_rv.mp4	0.0	148.96743607521057	1.00850248336792
24	130.41122722625732	pulse	0	t		22.0	2.5	/experiments/knapen_AOT/AOT_stimuli/rescaled_final/0711_rv.mp4	0.0	149.15099382400513	
24	131.2361719608307	movie	1		280	22.0	2.5	/experiments/knapen_AOT/AOT_stimuli/rescaled_final/0711_rv.mp4	0.0	149.9759385585785	2.491999864578247
24	132.01053667068481	pulse	1	t		22.0	2.5	/experiments/knapen_AOT/AOT_stimuli/rescaled_final/0711_rv.mp4	0.0	150.75030326843262	
24	133.61002206802368	pulse	1	t		22.0	2.5	/experiments/knapen_AOT/AOT_stimuli/rescaled_final/0711_rv.mp4	0.0	152.34978866577148	
24	133.72817182540894	fix_post	2		12	22.0	2.5	/experiments/knapen_AOT/AOT_stimuli/rescaled_final/0711_rv.mp4	0.0	152.46793842315674	0.10006070137023926
25	133.82823252677917	fix_pre	0		120	23.0	2.5	/experiments/knapen_AOT/AOT_stimuli/rescaled_final/1921_rv.mp4	0.0	152.56799912452698	1.0085744857788086
25	134.83680701255798	movie	1		275	23.0	2.5	/experiments/knapen_AOT/AOT_stimuli/rescaled_final/1921_rv.mp4	0.0	153.5765736103058	2.4920146465301514
25	135.21179056167603	pulse	1	t		23.0	2.5	/experiments/knapen_AOT/AOT_stimuli/rescaled_final/1921_rv.mp4	0.0	153.95155715942383	
25	136.81224274635315	pulse	1	t		23.0	2.5	/experiments/knapen_AOT/AOT_stimuli/rescaled_final/1921_rv.mp4	0.0	155.55200934410095	
25	137.32882165908813	fix_post	2		12	23.0	2.5	/experiments/knapen_AOT/AOT_stimuli/rescaled_final/1921_rv.mp4	0.0	156.06858825683594	0.10002374649047852
26	137.4288454055786	fix_pre	0		119	24.0	2.5	/experiments/knapen_AOT/AOT_stimuli/rescaled_final/1414_fw.mp4	0.0	156.16861200332642	1.0001635551452637
26	138.41241788864136	pulse	0	t		24.0	2.5	/experiments/knapen_AOT/AOT_stimuli/rescaled_final/1414_fw.mp4	0.0	157.15218448638916	
26	138.42900896072388	movie	1		268	24.0	2.5	/experiments/knapen_AOT/AOT_stimuli/rescaled_final/1414_fw.mp4	0.0	157.16877555847168	2.500265598297119
26	140.01116585731506	pulse	1	t		24.0	2.5	/experiments/knapen_AOT/AOT_stimuli/rescaled_final/1414_fw.mp4	0.0	158.75093245506287	
26	140.929274559021	fix_post	2		12	24.0	2.5	/experiments/knapen_AOT/AOT_stimuli/rescaled_final/1414_fw.mp4	0.0	159.6690411567688	0.10003137588500977
27	141.029305934906	fix_pre	0		120	25.0	2.5	/experiments/knapen_AOT/AOT_stimuli/rescaled_final/0497_fw.mp4	0.0	159.7690725326538	1.0084948539733887
27	141.6129400730133	pulse	0	t		25.0	2.5	/experiments/knapen_AOT/AOT_stimuli/rescaled_final/0497_fw.mp4	0.0	160.3527066707611	
27	142.0378007888794	movie	1		276	25.0	2.5	/experiments/knapen_AOT/AOT_stimuli/rescaled_final/0497_fw.mp4	0.0	160.7775673866272	2.49221134185791
27	143.21174216270447	pulse	1	t		25.0	2.5	/experiments/knapen_AOT/AOT_stimuli/rescaled_final/0497_fw.mp4	0.0	161.95150876045227	
27	144.5300121307373	fix_post	2		12	25.0	2.5	/experiments/knapen_AOT/AOT_stimuli/rescaled_final/0497_fw.mp4	0.0	163.2697787284851	0.09983682632446289
28	144.62984895706177	fix_pre	0		120	26.0	2.5	blank	1.0	163.36961555480957	1.0001118183135986
28	144.81336903572083	pulse	0	t		26.0	2.5	blank	1.0	163.55313563346863	
28	145.62996077537537	movie	1		300	26.0	2.5	blank	1.0	164.36972737312317	2.500385284423828
28	146.40596199035645	pulse	1	t		26.0	2.5	blank	1.0	165.14572858810425	
28	148.00572204589844	pulse	1	t		26.0	2.5	blank	1.0	166.74548864364624	
28	148.1303460597992	fix_post	2		12	26.0	2.5	blank	1.0	166.870112657547	0.10001111030578613
29	148.23035717010498	fix_pre	0		120	27.0	2.5	/experiments/knapen_AOT/AOT_stimuli/rescaled_final/2077_rv.mp4	0.0	166.97012376785278	1.008542776107788
29	149.23889994621277	movie	1		270	27.0	2.5	/experiments/knapen_AOT/AOT_stimuli/rescaled_final/2077_rv.mp4	0.0	167.97866654396057	2.4920942783355713
29	149.6058521270752	pulse	1	t		27.0	2.5	/experiments/knapen_AOT/AOT_stimuli/rescaled_final/2077_rv.mp4	0.0	168.345618724823	
29	151.20633339881897	pulse	1	t		27.0	2.5	/experiments/knapen_AOT/AOT_stimuli/rescaled_final/2077_rv.mp4	0.0	169.94609999656677	
29	151.73099422454834	fix_post	2		12	27.0	2.5	/experiments/knapen_AOT/AOT_stimuli/rescaled_final/2077_rv.mp4	0.0	170.47076082229614	0.09992861747741699
30	151.83092284202576	fix_pre	0		118	28.0	2.5	/experiments/knapen_AOT/AOT_stimuli/rescaled_final/1493_fw.mp4	0.0	170.57068943977356	0.9919095039367676
30	152.80630707740784	pulse	0	t		28.0	2.5	/experiments/knapen_AOT/AOT_stimuli/rescaled_final/1493_fw.mp4	0.0	171.54607367515564	
30	152.82283234596252	movie	1		280	28.0	2.5	/experiments/knapen_AOT/AOT_stimuli/rescaled_final/1493_fw.mp4	0.0	171.56259894371033	2.5002615451812744
30	154.40589499473572	pulse	1	t		28.0	2.5	/experiments/knapen_AOT/AOT_stimuli/rescaled_final/1493_fw.mp4	0.0	173.14566159248352	
30	155.3230938911438	fix_post	2		12	28.0	2.5	/experiments/knapen_AOT/AOT_stimuli/rescaled_final/1493_fw.mp4	0.0	174.0628604888916	0.10000967979431152
31	155.4231035709381	fix_pre	0		120	29.0	2.5	/experiments/knapen_AOT/AOT_stimuli/rescaled_final/1197_rv.mp4	0.0	174.1628701686859	1.0084939002990723
31	156.00679850578308	pulse	0	t		29.0	2.5	/experiments/knapen_AOT/AOT_stimuli/rescaled_final/1197_rv.mp4	0.0	174.74656510353088	
31	156.43159747123718	movie	1		274	29.0	2.5	/experiments/knapen_AOT/AOT_stimuli/rescaled_final/1197_rv.mp4	0.0	175.17136406898499	2.4922704696655273
31	157.60702276229858	pulse	1	t		29.0	2.5	/experiments/knapen_AOT/AOT_stimuli/rescaled_final/1197_rv.mp4	0.0	176.3467893600464	
31	158.9238679409027	fix_post	2		12	29.0	2.5	/experiments/knapen_AOT/AOT_stimuli/rescaled_final/1197_rv.mp4	0.0	177.6636345386505	0.09984445571899414
32	159.0237123966217	fix_pre	0		120	30.0	2.5	/experiments/knapen_AOT/AOT_stimuli/rescaled_final/0709_fw.mp4	0.0	177.7634789943695	1.0085718631744385
32	159.20728182792664	pulse	0	t		30.0	2.5	/experiments/knapen_AOT/AOT_stimuli/rescaled_final/0709_fw.mp4	0.0	177.94704842567444	
32	160.03228425979614	movie	1		273	30.0	2.5	/experiments/knapen_AOT/AOT_stimuli/rescaled_final/0709_fw.mp4	0.0	178.77205085754395	2.4919021129608154
32	160.80693936347961	pulse	1	t		30.0	2.5	/experiments/knapen_AOT/AOT_stimuli/rescaled_final/0709_fw.mp4	0.0	179.54670596122742	
32	162.4056305885315	pulse	1	t		30.0	2.5	/experiments/knapen_AOT/AOT_stimuli/rescaled_final/0709_fw.mp4	0.0	181.1453971862793	
32	162.52418637275696	fix_post	2		12	30.0	2.5	/experiments/knapen_AOT/AOT_stimuli/rescaled_final/0709_fw.mp4	0.0	181.26395297050476	0.10050439834594727
33	162.6246907711029	fix_pre	0		120	31.0	2.5	/experiments/knapen_AOT/AOT_stimuli/rescaled_final/0697_fw.mp4	0.0	181.3644573688507	1.0080351829528809
33	163.6327259540558	movie	1		283	31.0	2.5	/experiments/knapen_AOT/AOT_stimuli/rescaled_final/0697_fw.mp4	0.0	182.3724925518036	2.492018461227417
33	164.00748324394226	pulse	1	t		31.0	2.5	/experiments/knapen_AOT/AOT_stimuli/rescaled_final/0697_fw.mp4	0.0	182.74724984169006	
33	165.60857963562012	pulse	1	t		31.0	2.5	/experiments/knapen_AOT/AOT_stimuli/rescaled_final/0697_fw.mp4	0.0	184.34834623336792	
33	166.1247444152832	fix_post	2		12	31.0	2.5	/experiments/knapen_AOT/AOT_stimuli/rescaled_final/0697_fw.mp4	0.0	184.864511013031	0.10005879402160645
34	166.2248032093048	fix_pre	0		119	32.0	2.5	/experiments/knapen_AOT/AOT_stimuli/rescaled_final/0709_rv.mp4	0.0	184.9645698070526	1.0001254081726074
34	167.20843195915222	pulse	0	t		32.0	2.5	/experiments/knapen_AOT/AOT_stimuli/rescaled_final/0709_rv.mp4	0.0	185.94819855690002	
34	167.22492861747742	movie	1		281	32.0	2.5	/experiments/knapen_AOT/AOT_stimuli/rescaled_final/0709_rv.mp4	0.0	185.96469521522522	2.5007011890411377
34	168.80724358558655	pulse	1	t		32.0	2.5	/experiments/knapen_AOT/AOT_stimuli/rescaled_final/0709_rv.mp4	0.0	187.54701018333435	
34	169.72562980651855	fix_post	2		12	32.0	2.5	/experiments/knapen_AOT/AOT_stimuli/rescaled_final/0709_rv.mp4	0.0	188.46539640426636	0.09970307350158691
35	169.82533288002014	fix_pre	0		120	33.0	2.5	/experiments/knapen_AOT/AOT_stimuli/rescaled_final/0254_fw.mp4	0.0	188.56509947776794	1.0085196495056152
35	170.40940141677856	pulse	0	t		33.0	2.5	/experiments/knapen_AOT/AOT_stimuli/rescaled_final/0254_fw.mp4	0.0	189.14916801452637	
35	170.83385252952576	movie	1		272	33.0	2.5	/experiments/knapen_AOT/AOT_stimuli/rescaled_final/0254_fw.mp4	0.0	189.57361912727356	2.4920156002044678
35	172.00735116004944	pulse	1	t		33.0	2.5	/experiments/knapen_AOT/AOT_stimuli/rescaled_final/0254_fw.mp4	0.0	190.74711775779724	
35	173.32586812973022	fix_post	2		12	33.0	2.5	/experiments/knapen_AOT/AOT_stimuli/rescaled_final/0254_fw.mp4	0.0	192.06563472747803	0.0999443531036377
36	173.42581248283386	fix_pre	0		120	34.0	2.5	blank	1.0	192.16557908058167	1.0001637935638428
36	173.60934972763062	pulse	0	t		34.0	2.5	blank	1.0	192.34911632537842	
36	174.4259762763977	movie	1		300	34.0	2.5	blank	1.0	193.1657428741455	2.5003585815429688
36	175.20966601371765	pulse	1	t		34.0	2.5	blank	1.0	193.94943261146545	
36	176.8098382949829	pulse	1	t		34.0	2.5	blank	1.0	195.5496048927307	
36	176.92633485794067	fix_post	2		12	34.0	2.5	blank	1.0	195.66610145568848	0.10001540184020996
37	177.02635025978088	fix_pre	0		120	35.0	2.5	/experiments/knapen_AOT/AOT_stimuli/rescaled_final/0777_fw.mp4	0.0	195.7661168575287	1.0085229873657227
37	178.0348732471466	movie	1		283	35.0	2.5	/experiments/knapen_AOT/AOT_stimuli/rescaled_final/0777_fw.mp4	0.0	196.7746398448944	2.4920401573181152
37	178.40893936157227	pulse	1	t		35.0	2.5	/experiments/knapen_AOT/AOT_stimuli/rescaled_final/0777_fw.mp4	0.0	197.14870595932007	
37	180.00799822807312	pulse	1	t		35.0	2.5	/experiments/knapen_AOT/AOT_stimuli/rescaled_final/0777_fw.mp4	0.0	198.74776482582092	
37	180.52691340446472	fix_post	2		12	35.0	2.5	/experiments/knapen_AOT/AOT_stimuli/rescaled_final/0777_fw.mp4	0.0	199.26668000221252	0.09998416900634766
38	180.62689757347107	fix_pre	0		119	36.0	2.5	/experiments/knapen_AOT/AOT_stimuli/rescaled_final/1385_rv.mp4	0.0	199.36666417121887	1.0001811981201172
38	181.61063241958618	pulse	0	t		36.0	2.5	/experiments/knapen_AOT/AOT_stimuli/rescaled_final/1385_rv.mp4	0.0	200.35039901733398	
38	181.6270787715912	movie	1		282	36.0	2.5	/experiments/knapen_AOT/AOT_stimuli/rescaled_final/1385_rv.mp4	0.0	200.366845369339	2.5003645420074463
38	183.20937371253967	pulse	1	t		36.0	2.5	/experiments/knapen_AOT/AOT_stimuli/rescaled_final/1385_rv.mp4	0.0	201.94914031028748	
38	184.12744331359863	fix_post	2		12	36.0	2.5	/experiments/knapen_AOT/AOT_stimuli/rescaled_final/1385_rv.mp4	0.0	202.86720991134644	0.10008049011230469
39	184.22752380371094	fix_pre	0		120	37.0	2.5	/experiments/knapen_AOT/AOT_stimuli/rescaled_final/1917_rv.mp4	0.0	202.96729040145874	1.0087034702301025
39	184.811101436615	pulse	0	t		37.0	2.5	/experiments/knapen_AOT/AOT_stimuli/rescaled_final/1917_rv.mp4	0.0	203.5508680343628	
39	185.23622727394104	movie	1		277	37.0	2.5	/experiments/knapen_AOT/AOT_stimuli/rescaled_final/1917_rv.mp4	0.0	203.97599387168884	2.491773843765259
39	186.4092357158661	pulse	1	t		37.0	2.5	/experiments/knapen_AOT/AOT_stimuli/rescaled_final/1917_rv.mp4	0.0	205.1490023136139	
39	187.7280011177063	fix_post	2		12	37.0	2.5	/experiments/knapen_AOT/AOT_stimuli/rescaled_final/1917_rv.mp4	0.0	206.4677677154541	0.09997987747192383
40	187.82798099517822	fix_pre	0		120	38.0	2.5	/experiments/knapen_AOT/AOT_stimuli/rescaled_final/0345_rv.mp4	0.0	206.56774759292603	1.0084905624389648
40	188.011869430542	pulse	0	t		38.0	2.5	/experiments/knapen_AOT/AOT_stimuli/rescaled_final/0345_rv.mp4	0.0	206.7516360282898	
40	188.8364715576172	movie	1		284	38.0	2.5	/experiments/knapen_AOT/AOT_stimuli/rescaled_final/0345_rv.mp4	0.0	207.576238155365	2.492178440093994
40	189.60953497886658	pulse	1	t		38.0	2.5	/experiments/knapen_AOT/AOT_stimuli/rescaled_final/0345_rv.mp4	0.0	208.34930157661438	
40	191.209885597229	pulse	1	t		38.0	2.5	/experiments/knapen_AOT/AOT_stimuli/rescaled_final/0345_rv.mp4	0.0	209.9496521949768	
40	191.32864999771118	fix_post	2		12	38.0	2.5	/experiments/knapen_AOT/AOT_stimuli/rescaled_final/0345_rv.mp4	0.0	210.06841659545898	0.1000056266784668
41	191.42865562438965	fix_pre	0		120	39.0	2.5	/experiments/knapen_AOT/AOT_stimuli/rescaled_final/2019_fw.mp4	0.0	210.16842222213745	1.0083565711975098
41	192.43701219558716	movie	1		279	39.0	2.5	/experiments/knapen_AOT/AOT_stimuli/rescaled_final/2019_fw.mp4	0.0	211.17677879333496	2.492072820663452
41	192.81074571609497	pulse	1	t		39.0	2.5	/experiments/knapen_AOT/AOT_stimuli/rescaled_final/2019_fw.mp4	0.0	211.55051231384277	
41	194.41017651557922	pulse	1	t		39.0	2.5	/experiments/knapen_AOT/AOT_stimuli/rescaled_final/2019_fw.mp4	0.0	213.14994311332703	
41	194.9290850162506	fix_post	2		12	39.0	2.5	/experiments/knapen_AOT/AOT_stimuli/rescaled_final/2019_fw.mp4	0.0	213.6688516139984	0.09997010231018066
42	195.0290551185608	fix_pre	0		119	40.0	2.5	/experiments/knapen_AOT/AOT_stimuli/rescaled_final/0311_rv.mp4	0.0	213.7688217163086	1.0001721382141113
42	196.01273941993713	pulse	0	t		40.0	2.5	/experiments/knapen_AOT/AOT_stimuli/rescaled_final/0311_rv.mp4	0.0	214.75250601768494	
42	196.0292272567749	movie	1		276	40.0	2.5	/experiments/knapen_AOT/AOT_stimuli/rescaled_final/0311_rv.mp4	0.0	214.7689938545227	2.5004544258117676
42	197.61150455474854	pulse	1	t		40.0	2.5	/experiments/knapen_AOT/AOT_stimuli/rescaled_final/0311_rv.mp4	0.0	216.35127115249634	
42	198.52968168258667	fix_post	2		12	40.0	2.5	/experiments/knapen_AOT/AOT_stimuli/rescaled_final/0311_rv.mp4	0.0	217.26944828033447	0.09998559951782227
43	198.6296672821045	fix_pre	0		120	41.0	2.5	/experiments/knapen_AOT/AOT_stimuli/rescaled_final/0269_fw.mp4	0.0	217.3694338798523	1.0084683895111084
43	199.21322512626648	pulse	0	t		41.0	2.5	/experiments/knapen_AOT/AOT_stimuli/rescaled_final/0269_fw.mp4	0.0	217.95299172401428	
43	199.6381356716156	movie	1		287	41.0	2.5	/experiments/knapen_AOT/AOT_stimuli/rescaled_final/0269_fw.mp4	0.0	218.3779022693634	2.49198579788208
43	200.8119969367981	pulse	1	t		41.0	2.5	/experiments/knapen_AOT/AOT_stimuli/rescaled_final/0269_fw.mp4	0.0	219.5517635345459	
43	202.13012146949768	fix_post	2		12	41.0	2.5	/experiments/knapen_AOT/AOT_stimuli/rescaled_final/0269_fw.mp4	0.0	220.86988806724548	0.10002684593200684
44	202.2301483154297	fix_pre	0		120	42.0	2.5	blank	1.0	220.9699149131775	1.0001575946807861
44	202.40710258483887	pulse	0	t		42.0	2.5	blank	1.0	221.14686918258667	
44	203.23030591011047	movie	1		300	42.0	2.5	blank	1.0	221.97007250785828	2.500371217727661
44	204.00692105293274	pulse	1	t		42.0	2.5	blank	1.0	222.74668765068054	
44	205.6060700416565	pulse	1	t		42.0	2.5	blank	1.0	224.3458366394043	
44	205.73067712783813	fix_post	2		12	42.0	2.5	blank	1.0	224.47044372558594	0.10002350807189941
45	205.83070063591003	fix_pre	0		120	43.0	2.5	/experiments/knapen_AOT/AOT_stimuli/rescaled_final/2166_rv.mp4	0.0	224.57046723365784	1.0084753036499023
45	206.83917593955994	movie	1		283	43.0	2.5	/experiments/knapen_AOT/AOT_stimuli/rescaled_final/2166_rv.mp4	0.0	225.57894253730774	2.492030382156372
45	207.2062828540802	pulse	1	t		43.0	2.5	/experiments/knapen_AOT/AOT_stimuli/rescaled_final/2166_rv.mp4	0.0	225.946049451828	
45	208.80632281303406	pulse	1	t		43.0	2.5	/experiments/knapen_AOT/AOT_stimuli/rescaled_final/2166_rv.mp4	0.0	227.54608941078186	
45	209.3312063217163	fix_post	2		12	43.0	2.5	/experiments/knapen_AOT/AOT_stimuli/rescaled_final/2166_rv.mp4	0.0	228.0709729194641	0.1000525951385498
46	209.43125891685486	fix_pre	0		118	44.0	2.5	/experiments/knapen_AOT/AOT_stimuli/rescaled_final/1166_fw.mp4	0.0	228.17102551460266	0.9918129444122314
46	210.4067440032959	pulse	0	t		44.0	2.5	/experiments/knapen_AOT/AOT_stimuli/rescaled_final/1166_fw.mp4	0.0	229.1465106010437	
46	210.4230718612671	movie	1		273	44.0	2.5	/experiments/knapen_AOT/AOT_stimuli/rescaled_final/1166_fw.mp4	0.0	229.1628384590149	2.5003457069396973
46	212.00691771507263	pulse	1	t		44.0	2.5	/experiments/knapen_AOT/AOT_stimuli/rescaled_final/1166_fw.mp4	0.0	230.74668431282043	
46	212.9234175682068	fix_post	2		12	44.0	2.5	/experiments/knapen_AOT/AOT_stimuli/rescaled_final/1166_fw.mp4	0.0	231.6631841659546	0.10008978843688965
47	213.02350735664368	fix_pre	0		120	45.0	2.5	/experiments/knapen_AOT/AOT_stimuli/rescaled_final/0330_rv.mp4	0.0	231.76327395439148	1.0087909698486328
47	213.60712432861328	pulse	0	t		45.0	2.5	/experiments/knapen_AOT/AOT_stimuli/rescaled_final/0330_rv.mp4	0.0	232.34689092636108	
47	214.0322983264923	movie	1		280	45.0	2.5	/experiments/knapen_AOT/AOT_stimuli/rescaled_final/0330_rv.mp4	0.0	232.7720649242401	2.4919965267181396
47	215.2081174850464	pulse	1	t		45.0	2.5	/experiments/knapen_AOT/AOT_stimuli/rescaled_final/0330_rv.mp4	0.0	233.9478840827942	
47	216.52429485321045	fix_post	2		12	45.0	2.5	/experiments/knapen_AOT/AOT_stimuli/rescaled_final/0330_rv.mp4	0.0	235.26406145095825	0.09969377517700195
48	216.62398862838745	fix_pre	0		120	46.0	2.5	/experiments/knapen_AOT/AOT_stimuli/rescaled_final/1598_fw.mp4	0.0	235.36375522613525	1.008500576019287
48	216.80760145187378	pulse	0	t		46.0	2.5	/experiments/knapen_AOT/AOT_stimuli/rescaled_final/1598_fw.mp4	0.0	235.54736804962158	
48	217.63248920440674	movie	1		278	46.0	2.5	/experiments/knapen_AOT/AOT_stimuli/rescaled_final/1598_fw.mp4	0.0	236.37225580215454	2.492091655731201
48	218.40777778625488	pulse	1	t		46.0	2.5	/experiments/knapen_AOT/AOT_stimuli/rescaled_final/1598_fw.mp4	0.0	237.14754438400269	
48	220.0063099861145	pulse	1	t		46.0	2.5	/experiments/knapen_AOT/AOT_stimuli/rescaled_final/1598_fw.mp4	0.0	238.7460765838623	
48	220.12458086013794	fix_post	2		12	46.0	2.5	/experiments/knapen_AOT/AOT_stimuli/rescaled_final/1598_fw.mp4	0.0	238.86434745788574	0.0999445915222168
49	220.22452545166016	fix_pre	0		103	47.0	2.5	/experiments/knapen_AOT/AOT_stimuli/rescaled_final/0044_fw.mp4	0.0	238.96429204940796	1.0084872245788574
49	221.233012676239	movie	1		276	47.0	2.5	/experiments/knapen_AOT/AOT_stimuli/rescaled_final/0044_fw.mp4	0.0	239.97277927398682	2.492049217224121
49	221.6064088344574	pulse	1	t		47.0	2.5	/experiments/knapen_AOT/AOT_stimuli/rescaled_final/0044_fw.mp4	0.0	240.3461754322052	
49	223.20624351501465	pulse	1	t		47.0	2.5	/experiments/knapen_AOT/AOT_stimuli/rescaled_final/0044_fw.mp4	0.0	241.94601011276245	
49	223.72506189346313	fix_post	2		12	47.0	2.5	/experiments/knapen_AOT/AOT_stimuli/rescaled_final/0044_fw.mp4	0.0	242.46482849121094	0.10001969337463379
50	223.82508158683777	fix_pre	0		119	48.0	2.5	blank	1.0	242.56484818458557	0.9918205738067627
50	224.80902862548828	pulse	0	t		48.0	2.5	blank	1.0	243.54879522323608	
50	224.81690216064453	movie	1		301	48.0	2.5	blank	1.0	243.55666875839233	2.5086872577667236
50	226.40927839279175	pulse	1	t		48.0	2.5	blank	1.0	245.14904499053955	
50	227.32558941841125	fix_post	2		12	48.0	2.5	blank	1.0	246.06535601615906	0.10008096694946289
51	227.42567038536072	fix_pre	0		120	49.0	2.5	/experiments/knapen_AOT/AOT_stimuli/rescaled_final/0096_fw.mp4	0.0	246.16543698310852	1.008556842803955
51	228.00921630859375	pulse	0	t		49.0	2.5	/experiments/knapen_AOT/AOT_stimuli/rescaled_final/0096_fw.mp4	0.0	246.74898290634155	
51	228.43422722816467	movie	1		278	49.0	2.5	/experiments/knapen_AOT/AOT_stimuli/rescaled_final/0096_fw.mp4	0.0	247.17399382591248	2.491957187652588
51	229.60781049728394	pulse	1	t		49.0	2.5	/experiments/knapen_AOT/AOT_stimuli/rescaled_final/0096_fw.mp4	0.0	248.34757709503174	
51	230.92618441581726	fix_post	2		12	49.0	2.5	/experiments/knapen_AOT/AOT_stimuli/rescaled_final/0096_fw.mp4	0.0	249.66595101356506	0.0999453067779541
52	231.02612972259521	fix_pre	0		120	50.0	2.5	/experiments/knapen_AOT/AOT_stimuli/rescaled_final/1469_rv.mp4	0.0	249.76589632034302	1.0085783004760742
52	231.20970010757446	pulse	0	t		50.0	2.5	/experiments/knapen_AOT/AOT_stimuli/rescaled_final/1469_rv.mp4	0.0	249.94946670532227	
52	232.0347080230713	movie	1		265	50.0	2.5	/experiments/knapen_AOT/AOT_stimuli/rescaled_final/1469_rv.mp4	0.0	250.7744746208191	2.4920907020568848
52	232.8079228401184	pulse	1	t		50.0	2.5	/experiments/knapen_AOT/AOT_stimuli/rescaled_final/1469_rv.mp4	0.0	251.5476894378662	
52	234.41045331954956	pulse	1	t		50.0	2.5	/experiments/knapen_AOT/AOT_stimuli/rescaled_final/1469_rv.mp4	0.0	253.15021991729736	
52	234.52679872512817	fix_post	2		12	50.0	2.5	/experiments/knapen_AOT/AOT_stimuli/rescaled_final/1469_rv.mp4	0.0	253.26656532287598	0.09986281394958496
53	234.62666153907776	fix_pre	0		120	51.0	2.5	/experiments/knapen_AOT/AOT_stimuli/rescaled_final/0162_fw.mp4	0.0	253.36642813682556	1.0085625648498535
53	235.6352241039276	movie	1		272	51.0	2.5	/experiments/knapen_AOT/AOT_stimuli/rescaled_final/0162_fw.mp4	0.0	254.37499070167542	2.492016077041626
53	236.0092010498047	pulse	1	t		51.0	2.5	/experiments/knapen_AOT/AOT_stimuli/rescaled_final/0162_fw.mp4	0.0	254.7489676475525	
53	237.60846161842346	pulse	1	t		51.0	2.5	/experiments/knapen_AOT/AOT_stimuli/rescaled_final/0162_fw.mp4	0.0	256.34822821617126	
53	238.12724018096924	fix_post	2		12	51.0	2.5	/experiments/knapen_AOT/AOT_stimuli/rescaled_final/0162_fw.mp4	0.0	256.86700677871704	0.10013771057128906
54	238.22737789154053	fix_pre	0		119	52.0	2.5	/experiments/knapen_AOT/AOT_stimuli/rescaled_final/0490_fw.mp4	0.0	256.96714448928833	1.0000028610229492
54	239.21090173721313	pulse	0	t		52.0	2.5	/experiments/knapen_AOT/AOT_stimuli/rescaled_final/0490_fw.mp4	0.0	257.95066833496094	
54	239.22738075256348	movie	1		281	52.0	2.5	/experiments/knapen_AOT/AOT_stimuli/rescaled_final/0490_fw.mp4	0.0	257.9671473503113	2.500375270843506
54	240.80965161323547	pulse	1	t		52.0	2.5	/experiments/knapen_AOT/AOT_stimuli/rescaled_final/0490_fw.mp4	0.0	259.5494182109833	
54	241.72775602340698	fix_post	2		12	52.0	2.5	/experiments/knapen_AOT/AOT_stimuli/rescaled_final/0490_fw.mp4	0.0	260.4675226211548	0.10022568702697754
55	241.82798171043396	fix_pre	0		120	53.0	2.5	/experiments/knapen_AOT/AOT_stimuli/rescaled_final/0341_rv.mp4	0.0	260.56774830818176	1.008528709411621
55	242.41139149665833	pulse	0	t		53.0	2.5	/experiments/knapen_AOT/AOT_stimuli/rescaled_final/0341_rv.mp4	0.0	261.1511580944061	
55	242.83651041984558	movie	1		272	53.0	2.5	/experiments/knapen_AOT/AOT_stimuli/rescaled_final/0341_rv.mp4	0.0	261.5762770175934	2.4917895793914795
55	244.00967264175415	pulse	1	t		53.0	2.5	/experiments/knapen_AOT/AOT_stimuli/rescaled_final/0341_rv.mp4	0.0	262.74943923950195	
55	245.32829999923706	fix_post	2		12	53.0	2.5	/experiments/knapen_AOT/AOT_stimuli/rescaled_final/0341_rv.mp4	0.0	264.06806659698486	0.10002851486206055
56	245.42832851409912	fix_pre	0		120	54.0	2.5	/experiments/knapen_AOT/AOT_stimuli/rescaled_final/1421_rv.mp4	0.0	264.1680951118469	1.0085136890411377
56	245.61206483840942	pulse	0	t		54.0	2.5	/experiments/knapen_AOT/AOT_stimuli/rescaled_final/1421_rv.mp4	0.0	264.3518314361572	
56	246.43684220314026	movie	1		283	54.0	2.5	/experiments/knapen_AOT/AOT_stimuli/rescaled_final/1421_rv.mp4	0.0	265.17660880088806	2.4921553134918213
56	247.2108874320984	pulse	1	t		54.0	2.5	/experiments/knapen_AOT/AOT_stimuli/rescaled_final/1421_rv.mp4	0.0	265.9506540298462	
56	248.8102571964264	pulse	1	t		54.0	2.5	/experiments/knapen_AOT/AOT_stimuli/rescaled_final/1421_rv.mp4	0.0	267.5500237941742	
56	248.92899751663208	fix_post	2		12	54.0	2.5	/experiments/knapen_AOT/AOT_stimuli/rescaled_final/1421_rv.mp4	0.0	267.6687641143799	0.10004782676696777
57	249.02904534339905	fix_pre	0		120	55.0	2.5	blank	1.0	267.76881194114685	0.9999656677246094
57	250.02901101112366	movie	1		300	55.0	2.5	blank	1.0	268.76877760887146	2.500501871109009
57	250.4125940799713	pulse	1	t		55.0	2.5	blank	1.0	269.1523606777191	
57	252.01289343833923	pulse	1	t		55.0	2.5	blank	1.0	270.75266003608704	
57	252.52951288223267	fix_post	2		12	55.0	2.5	blank	1.0	271.26927947998047	0.09995412826538086
58	252.62946701049805	fix_pre	0		119	56.0	2.5	/experiments/knapen_AOT/AOT_stimuli/rescaled_final/1030_fw.mp4	0.0	271.36923360824585	1.0084421634674072
58	253.60602831840515	pulse	0	t		56.0	2.5	/experiments/knapen_AOT/AOT_stimuli/rescaled_final/1030_fw.mp4	0.0	272.34579491615295	
58	253.63790917396545	movie	1		273	56.0	2.5	/experiments/knapen_AOT/AOT_stimuli/rescaled_final/1030_fw.mp4	0.0	272.37767577171326	2.4921493530273438
58	255.21207237243652	pulse	1	t		56.0	2.5	/experiments/knapen_AOT/AOT_stimuli/rescaled_final/1030_fw.mp4	0.0	273.9518389701843	
58	256.1300585269928	fix_post	2		12	56.0	2.5	/experiments/knapen_AOT/AOT_stimuli/rescaled_final/1030_fw.mp4	0.0	274.8698251247406	0.09993577003479004
59	256.2299942970276	fix_pre	0		120	57.0	2.5	/experiments/knapen_AOT/AOT_stimuli/rescaled_final/0710_fw.mp4	0.0	274.9697608947754	1.00856351852417
59	256.80545568466187	pulse	0	t		57.0	2.5	/experiments/knapen_AOT/AOT_stimuli/rescaled_final/0710_fw.mp4	0.0	275.54522228240967	
59	257.23855781555176	movie	1		276	57.0	2.5	/experiments/knapen_AOT/AOT_stimuli/rescaled_final/0710_fw.mp4	0.0	275.97832441329956	2.491896152496338
59	258.40555477142334	pulse	1	t		57.0	2.5	/experiments/knapen_AOT/AOT_stimuli/rescaled_final/0710_fw.mp4	0.0	277.14532136917114	
59	259.7304539680481	fix_post	2		12	57.0	2.5	/experiments/knapen_AOT/AOT_stimuli/rescaled_final/0710_fw.mp4	0.0	278.4702205657959	0.10009336471557617
60	259.8305473327637	fix_pre	0		120	58.0	2.5	/experiments/knapen_AOT/AOT_stimuli/rescaled_final/0254_rv.mp4	0.0	278.5703139305115	1.008451223373413
60	260.0057005882263	pulse	0	t		58.0	2.5	/experiments/knapen_AOT/AOT_stimuli/rescaled_final/0254_rv.mp4	0.0	278.7454671859741	
60	260.8389985561371	movie	1		283	58.0	2.5	/experiments/knapen_AOT/AOT_stimuli/rescaled_final/0254_rv.mp4	0.0	279.5787651538849	2.4920125007629395
60	261.6060802936554	pulse	1	t		58.0	2.5	/experiments/knapen_AOT/AOT_stimuli/rescaled_final/0254_rv.mp4	0.0	280.3458468914032	
60	263.2062232494354	pulse	1	t		58.0	2.5	/experiments/knapen_AOT/AOT_stimuli/rescaled_final/0254_rv.mp4	0.0	281.9459898471832	
60	263.3310110569	fix_post	2		12	58.0	2.5	/experiments/knapen_AOT/AOT_stimuli/rescaled_final/0254_rv.mp4	0.0	282.0707776546478	0.10000467300415039
61	263.4310157299042	fix_pre	0		120	59.0	2.5	/experiments/knapen_AOT/AOT_stimuli/rescaled_final/1704_fw.mp4	0.0	282.170782327652	1.008519172668457
61	264.43953490257263	movie	1		274	59.0	2.5	/experiments/knapen_AOT/AOT_stimuli/rescaled_final/1704_fw.mp4	0.0	283.17930150032043	2.4920475482940674
61	264.80642342567444	pulse	1	t		59.0	2.5	/experiments/knapen_AOT/AOT_stimuli/rescaled_final/1704_fw.mp4	0.0	283.54619002342224	
61	266.406699180603	pulse	1	t		59.0	2.5	/experiments/knapen_AOT/AOT_stimuli/rescaled_final/1704_fw.mp4	0.0	285.14646577835083	
61	266.9315824508667	fix_post	2		12	59.0	2.5	/experiments/knapen_AOT/AOT_stimuli/rescaled_final/1704_fw.mp4	0.0	285.6713490486145	0.09997940063476562
62	267.03156185150146	fix_pre	0		118	60.0	2.5	/experiments/knapen_AOT/AOT_stimuli/rescaled_final/1387_rv.mp4	0.0	285.77132844924927	0.9918766021728516
62	268.0069966316223	pulse	0	t		60.0	2.5	/experiments/knapen_AOT/AOT_stimuli/rescaled_final/1387_rv.mp4	0.0	286.7467632293701	
62	268.0234384536743	movie	1		276	60.0	2.5	/experiments/knapen_AOT/AOT_stimuli/rescaled_final/1387_rv.mp4	0.0	286.7632050514221	2.500307559967041
62	269.60582160949707	pulse	1	t		60.0	2.5	/experiments/knapen_AOT/AOT_stimuli/rescaled_final/1387_rv.mp4	0.0	288.3455882072449	
62	270.52374601364136	fix_post	2		12	60.0	2.5	/experiments/knapen_AOT/AOT_stimuli/rescaled_final/1387_rv.mp4	0.0	289.26351261138916	0.10001277923583984
63	270.6237587928772	fix_pre	0		120	61.0	2.5	/experiments/knapen_AOT/AOT_stimuli/rescaled_final/0216_fw.mp4	0.0	289.363525390625	1.0085265636444092
63	271.20735239982605	pulse	0	t		61.0	2.5	/experiments/knapen_AOT/AOT_stimuli/rescaled_final/0216_fw.mp4	0.0	289.94711899757385	
63	271.6322853565216	movie	1		267	61.0	2.5	/experiments/knapen_AOT/AOT_stimuli/rescaled_final/0216_fw.mp4	0.0	290.3720519542694	2.4921984672546387
63	272.8055899143219	pulse	1	t		61.0	2.5	/experiments/knapen_AOT/AOT_stimuli/rescaled_final/0216_fw.mp4	0.0	291.5453565120697	
63	274.12448382377625	fix_post	2		12	61.0	2.5	/experiments/knapen_AOT/AOT_stimuli/rescaled_final/0216_fw.mp4	0.0	292.86425042152405	0.09981846809387207
64	274.2243022918701	fix_pre	0		120	62.0	2.5	/experiments/knapen_AOT/AOT_stimuli/rescaled_final/0980_fw.mp4	0.0	292.9640688896179	1.0084550380706787
64	274.40825939178467	pulse	0	t		62.0	2.5	/experiments/knapen_AOT/AOT_stimuli/rescaled_final/0980_fw.mp4	0.0	293.14802598953247	
64	275.2327573299408	movie	1		277	62.0	2.5	/experiments/knapen_AOT/AOT_stimuli/rescaled_final/0980_fw.mp4	0.0	293.9725239276886	2.492386817932129
64	276.0060384273529	pulse	1	t		62.0	2.5	/experiments/knapen_AOT/AOT_stimuli/rescaled_final/0980_fw.mp4	0.0	294.7458050251007	
64	277.6062295436859	pulse	1	t		62.0	2.5	/experiments/knapen_AOT/AOT_stimuli/rescaled_final/0980_fw.mp4	0.0	296.3459961414337	
64	277.7251441478729	fix_post	2		12	62.0	2.5	/experiments/knapen_AOT/AOT_stimuli/rescaled_final/0980_fw.mp4	0.0	296.4649107456207	0.09974980354309082
65	277.824893951416	fix_pre	0		120	63.0	2.5	blank	1.0	296.5646605491638	1.000086784362793
65	278.8249807357788	movie	1		300	63.0	2.5	blank	1.0	297.5647473335266	2.5003833770751953
65	279.2086465358734	pulse	1	t		63.0	2.5	blank	1.0	297.9484131336212	
65	280.8087692260742	pulse	1	t		63.0	2.5	blank	1.0	299.548535823822	
65	281.325364112854	fix_post	2		12	63.0	2.5	blank	1.0	300.0651307106018	0.10001826286315918
66	281.42538237571716	fix_pre	0		119	64.0	2.5	/experiments/knapen_AOT/AOT_stimuli/rescaled_final/1606_rv.mp4	0.0	300.16514897346497	1.0002436637878418
66	282.4090735912323	pulse	0	t		64.0	2.5	/experiments/knapen_AOT/AOT_stimuli/rescaled_final/1606_rv.mp4	0.0	301.1488401889801	
66	282.425626039505	movie	1		280	64.0	2.5	/experiments/knapen_AOT/AOT_stimuli/rescaled_final/1606_rv.mp4	0.0	301.1653926372528	2.500436305999756
66	284.0076153278351	pulse	1	t		64.0	2.5	/experiments/knapen_AOT/AOT_stimuli/rescaled_final/1606_rv.mp4	0.0	302.7473819255829	
66	284.92606234550476	fix_post	2		12	64.0	2.5	/experiments/knapen_AOT/AOT_stimuli/rescaled_final/1606_rv.mp4	0.0	303.66582894325256	0.09988760948181152
67	285.0259499549866	fix_pre	0		120	65.0	2.5	/experiments/knapen_AOT/AOT_stimuli/rescaled_final/0890_fw.mp4	0.0	303.7657165527344	1.0086441040039062
67	285.6095292568207	pulse	0	t		65.0	2.5	/experiments/knapen_AOT/AOT_stimuli/rescaled_final/0890_fw.mp4	0.0	304.3492958545685	
67	286.0345940589905	movie	1		276	65.0	2.5	/experiments/knapen_AOT/AOT_stimuli/rescaled_final/0890_fw.mp4	0.0	304.7743606567383	2.4919865131378174
67	287.2091302871704	pulse	1	t		65.0	2.5	/experiments/knapen_AOT/AOT_stimuli/rescaled_final/0890_fw.mp4	0.0	305.9488968849182	
67	288.5265805721283	fix_post	2		12	65.0	2.5	/experiments/knapen_AOT/AOT_stimuli/rescaled_final/0890_fw.mp4	0.0	307.2663471698761	0.09988927841186523
68	288.62646985054016	fix_pre	0		120	66.0	2.5	/experiments/knapen_AOT/AOT_stimuli/rescaled_final/1163_rv.mp4	0.0	307.36623644828796	1.0084984302520752
68	288.8100075721741	pulse	0	t		66.0	2.5	/experiments/knapen_AOT/AOT_stimuli/rescaled_final/1163_rv.mp4	0.0	307.5497741699219	
68	289.63496828079224	movie	1		280	66.0	2.5	/experiments/knapen_AOT/AOT_stimuli/rescaled_final/1163_rv.mp4	0.0	308.37473487854004	2.4920761585235596
68	290.40799283981323	pulse	1	t		66.0	2.5	/experiments/knapen_AOT/AOT_stimuli/rescaled_final/1163_rv.mp4	0.0	309.14775943756104	
68	292.0089771747589	pulse	1	t		66.0	2.5	/experiments/knapen_AOT/AOT_stimuli/rescaled_final/1163_rv.mp4	0.0	310.7487437725067	
68	292.1270444393158	fix_post	2		12	66.0	2.5	/experiments/knapen_AOT/AOT_stimuli/rescaled_final/1163_rv.mp4	0.0	310.8668110370636	0.09995460510253906
69	292.22699904441833	fix_pre	0		120	67.0	2.5	/experiments/knapen_AOT/AOT_stimuli/rescaled_final/0345_fw.mp4	0.0	310.96676564216614	1.0084762573242188
69	293.23547530174255	movie	1		270	67.0	2.5	/experiments/knapen_AOT/AOT_stimuli/rescaled_final/0345_fw.mp4	0.0	311.97524189949036	2.4925036430358887
69	293.60951948165894	pulse	1	t		67.0	2.5	/experiments/knapen_AOT/AOT_stimuli/rescaled_final/0345_fw.mp4	0.0	312.34928607940674	
69	295.2090446949005	pulse	1	t		67.0	2.5	/experiments/knapen_AOT/AOT_stimuli/rescaled_final/0345_fw.mp4	0.0	313.9488112926483	
69	295.72797894477844	fix_post	2		12	67.0	2.5	/experiments/knapen_AOT/AOT_stimuli/rescaled_final/0345_fw.mp4	0.0	314.46774554252625	0.0995783805847168
70	295.82755732536316	fix_pre	0		119	68.0	2.5	/experiments/knapen_AOT/AOT_stimuli/rescaled_final/1307_rv.mp4	0.0	314.56732392311096	1.0001211166381836
70	296.8112208843231	pulse	0	t		68.0	2.5	/experiments/knapen_AOT/AOT_stimuli/rescaled_final/1307_rv.mp4	0.0	315.5509874820709	
70	296.82767844200134	movie	1		277	68.0	2.5	/experiments/knapen_AOT/AOT_stimuli/rescaled_final/1307_rv.mp4	0.0	315.56744503974915	2.500551700592041
70	298.40987491607666	pulse	1	t		68.0	2.5	/experiments/knapen_AOT/AOT_stimuli/rescaled_final/1307_rv.mp4	0.0	317.14964151382446	
70	299.3282301425934	fix_post	2		12	68.0	2.5	/experiments/knapen_AOT/AOT_stimuli/rescaled_final/1307_rv.mp4	0.0	318.0679967403412	0.09987092018127441
71	299.42810106277466	fix_pre	0		120	69.0	2.5	blank	1.0	318.16786766052246	1.0003101825714111
71	300.0117118358612	pulse	0	t		69.0	2.5	blank	1.0	318.751478433609	
71	300.42841124534607	movie	1		300	69.0	2.5	blank	1.0	319.1681778430939	2.500243663787842
71	301.6119978427887	pulse	1	t		69.0	2.5	blank	1.0	320.3517644405365	
71	302.9286549091339	fix_post	2		12	69.0	2.5	blank	1.0	321.6684215068817	0.10004019737243652
72	303.02869510650635	fix_pre	0		120	70.0	2.5	/experiments/knapen_AOT/AOT_stimuli/rescaled_final/1307_fw.mp4	0.0	321.76846170425415	1.0084259510040283
72	303.21218085289	pulse	0	t		70.0	2.5	/experiments/knapen_AOT/AOT_stimuli/rescaled_final/1307_fw.mp4	0.0	321.9519474506378	
72	304.0371210575104	movie	1		280	70.0	2.5	/experiments/knapen_AOT/AOT_stimuli/rescaled_final/1307_fw.mp4	0.0	322.7768876552582	2.492039680480957
72	304.8103075027466	pulse	1	t		70.0	2.5	/experiments/knapen_AOT/AOT_stimuli/rescaled_final/1307_fw.mp4	0.0	323.5500741004944	
72	306.4105005264282	pulse	1	t		70.0	2.5	/experiments/knapen_AOT/AOT_stimuli/rescaled_final/1307_fw.mp4	0.0	325.150267124176	
72	306.52916073799133	fix_post	2		12	70.0	2.5	/experiments/knapen_AOT/AOT_stimuli/rescaled_final/1307_fw.mp4	0.0	325.26892733573914	0.10000491142272949
73	306.62916564941406	fix_pre	0		120	71.0	2.5	/experiments/knapen_AOT/AOT_stimuli/rescaled_final/1337_rv.mp4	0.0	325.36893224716187	1.0084929466247559
73	307.6376585960388	movie	1		270	71.0	2.5	/experiments/knapen_AOT/AOT_stimuli/rescaled_final/1337_rv.mp4	0.0	326.3774251937866	2.4920496940612793
73	308.0116539001465	pulse	1	t		71.0	2.5	/experiments/knapen_AOT/AOT_stimuli/rescaled_final/1337_rv.mp4	0.0	326.7514204978943	
73	309.61096453666687	pulse	1	t		71.0	2.5	/experiments/knapen_AOT/AOT_stimuli/rescaled_final/1337_rv.mp4	0.0	328.3507311344147	
73	310.1297082901001	fix_post	2		12	71.0	2.5	/experiments/knapen_AOT/AOT_stimuli/rescaled_final/1337_rv.mp4	0.0	328.8694748878479	0.10001063346862793
74	310.2297189235687	fix_pre	0		119	72.0	2.5	/experiments/knapen_AOT/AOT_stimuli/rescaled_final/0311_rv.mp4	0.0	328.9694855213165	1.0002710819244385
74	311.2134222984314	pulse	0	t		72.0	2.5	/experiments/knapen_AOT/AOT_stimuli/rescaled_final/0311_rv.mp4	0.0	329.9531888961792	
74	311.22999000549316	movie	1		270	72.0	2.5	/experiments/knapen_AOT/AOT_stimuli/rescaled_final/0311_rv.mp4	0.0	329.96975660324097	2.5003583431243896
74	312.8131947517395	pulse	1	t		72.0	2.5	/experiments/knapen_AOT/AOT_stimuli/rescaled_final/0311_rv.mp4	0.0	331.5529613494873	
74	313.73034834861755	fix_post	2		12	72.0	2.5	/experiments/knapen_AOT/AOT_stimuli/rescaled_final/0311_rv.mp4	0.0	332.47011494636536	0.09990906715393066
75	313.8302574157715	fix_pre	0		120	73.0	2.5	/experiments/knapen_AOT/AOT_stimuli/rescaled_final/1989_rv.mp4	0.0	332.5700240135193	1.0088131427764893
75	314.4059283733368	pulse	0	t		73.0	2.5	/experiments/knapen_AOT/AOT_stimuli/rescaled_final/1989_rv.mp4	0.0	333.1456949710846	
75	314.839070558548	movie	1		273	73.0	2.5	/experiments/knapen_AOT/AOT_stimuli/rescaled_final/1989_rv.mp4	0.0	333.5788371562958	2.491887331008911
75	316.0059857368469	pulse	1	t		73.0	2.5	/experiments/knapen_AOT/AOT_stimuli/rescaled_final/1989_rv.mp4	0.0	334.7457523345947	
75	317.3309578895569	fix_post	2		12	73.0	2.5	/experiments/knapen_AOT/AOT_stimuli/rescaled_final/1989_rv.mp4	0.0	336.0707244873047	0.1000218391418457
76	317.43097972869873	fix_pre	0		120	74.0	2.5	/experiments/knapen_AOT/AOT_stimuli/rescaled_final/0471_rv.mp4	0.0	336.17074632644653	1.0083816051483154
76	317.6064467430115	pulse	0	t		74.0	2.5	/experiments/knapen_AOT/AOT_stimuli/rescaled_final/0471_rv.mp4	0.0	336.3462133407593	
76	318.43936133384705	movie	1		260	74.0	2.5	/experiments/knapen_AOT/AOT_stimuli/rescaled_final/0471_rv.mp4	0.0	337.17912793159485	2.492389678955078
76	319.2063376903534	pulse	1	t		74.0	2.5	/experiments/knapen_AOT/AOT_stimuli/rescaled_final/0471_rv.mp4	0.0	337.9461042881012	
76	320.8065447807312	pulse	1	t		74.0	2.5	/experiments/knapen_AOT/AOT_stimuli/rescaled_final/0471_rv.mp4	0.0	339.546311378479	
76	320.9317510128021	fix_post	2		12	74.0	2.5	/experiments/knapen_AOT/AOT_stimuli/rescaled_final/0471_rv.mp4	0.0	339.6715176105499	0.09957647323608398
77	321.0313274860382	fix_pre	0		120	75.0	2.5	/experiments/knapen_AOT/AOT_stimuli/rescaled_final/1778_fw.mp4	0.0	339.771094083786	1.0084969997406006
77	322.0398244857788	movie	1		273	75.0	2.5	/experiments/knapen_AOT/AOT_stimuli/rescaled_final/1778_fw.mp4	0.0	340.7795910835266	2.4922192096710205
77	322.40708327293396	pulse	1	t		75.0	2.5	/experiments/knapen_AOT/AOT_stimuli/rescaled_final/1778_fw.mp4	0.0	341.14684987068176	
77	324.00700330734253	pulse	1	t		75.0	2.5	/experiments/knapen_AOT/AOT_stimuli/rescaled_final/1778_fw.mp4	0.0	342.74676990509033	
77	324.53204369544983	fix_post	2		12	75.0	2.5	/experiments/knapen_AOT/AOT_stimuli/rescaled_final/1778_fw.mp4	0.0	343.27181029319763	0.0998387336730957
78	324.6318824291229	fix_pre	0		118	76.0	2.5	blank	1.0	343.3716490268707	0.9835171699523926
78	325.6072623729706	pulse	0	t		76.0	2.5	blank	1.0	344.3470289707184	
78	325.6153995990753	movie	1		301	76.0	2.5	blank	1.0	344.3551661968231	2.508648157119751
78	327.2075583934784	pulse	1	t		76.0	2.5	blank	1.0	345.9473249912262	
78	328.12404775619507	fix_post	2		12	76.0	2.5	blank	1.0	346.86381435394287	0.10002899169921875
79	328.2240767478943	fix_pre	0		120	77.0	2.5	/experiments/knapen_AOT/AOT_stimuli/rescaled_final/1756_fw.mp4	0.0	346.9638433456421	1.0085399150848389
79	328.80780124664307	pulse	0	t		77.0	2.5	/experiments/knapen_AOT/AOT_stimuli/rescaled_final/1756_fw.mp4	0.0	347.54756784439087	
79	329.2326166629791	movie	1		282	77.0	2.5	/experiments/knapen_AOT/AOT_stimuli/rescaled_final/1756_fw.mp4	0.0	347.97238326072693	2.4921388626098633
79	330.4075562953949	pulse	1	t		77.0	2.5	/experiments/knapen_AOT/AOT_stimuli/rescaled_final/1756_fw.mp4	0.0	349.1473228931427	
79	331.724755525589	fix_post	2		12	77.0	2.5	/experiments/knapen_AOT/AOT_stimuli/rescaled_final/1756_fw.mp4	0.0	350.4645221233368	0.0999443531036377
80	331.8246998786926	fix_pre	0		120	78.0	2.5	/experiments/knapen_AOT/AOT_stimuli/rescaled_final/0146_fw.mp4	0.0	350.56446647644043	1.008432149887085
80	332.00818371772766	pulse	0	t		78.0	2.5	/experiments/knapen_AOT/AOT_stimuli/rescaled_final/0146_fw.mp4	0.0	350.74795031547546	
80	332.8331320285797	movie	1		266	78.0	2.5	/experiments/knapen_AOT/AOT_stimuli/rescaled_final/0146_fw.mp4	0.0	351.5728986263275	2.4920151233673096
80	333.6088590621948	pulse	1	t		78.0	2.5	/experiments/knapen_AOT/AOT_stimuli/rescaled_final/0146_fw.mp4	0.0	352.3486256599426	
80	335.2068099975586	pulse	1	t		78.0	2.5	/experiments/knapen_AOT/AOT_stimuli/rescaled_final/0146_fw.mp4	0.0	353.9465765953064	
80	335.325147151947	fix_post	2		12	78.0	2.5	/experiments/knapen_AOT/AOT_stimuli/rescaled_final/0146_fw.mp4	0.0	354.0649137496948	0.10004353523254395
81	335.42519068717957	fix_pre	0		120	79.0	2.5	/experiments/knapen_AOT/AOT_stimuli/rescaled_final/0908_fw.mp4	0.0	354.16495728492737	1.0084457397460938
81	336.43363642692566	movie	1		272	79.0	2.5	/experiments/knapen_AOT/AOT_stimuli/rescaled_final/0908_fw.mp4	0.0	355.17340302467346	2.4922001361846924
81	336.8077914714813	pulse	1	t		79.0	2.5	/experiments/knapen_AOT/AOT_stimuli/rescaled_final/0908_fw.mp4	0.0	355.5475580692291	
81	338.40776681900024	pulse	1	t		79.0	2.5	/experiments/knapen_AOT/AOT_stimuli/rescaled_final/0908_fw.mp4	0.0	357.14753341674805	
81	338.92583656311035	fix_post	2		11	79.0	2.5	/experiments/knapen_AOT/AOT_stimuli/rescaled_final/0908_fw.mp4	0.0	357.66560316085815	0.09987878799438477
82	339.02571535110474	fix_pre	0		119	80.0	2.5	/experiments/knapen_AOT/AOT_stimuli/rescaled_final/0699_rv.mp4	0.0	357.76548194885254	1.0085077285766602
82	340.00945496559143	pulse	0	t		80.0	2.5	/experiments/knapen_AOT/AOT_stimuli/rescaled_final/0699_rv.mp4	0.0	358.74922156333923	
82	340.0342230796814	movie	1		269	80.0	2.5	/experiments/knapen_AOT/AOT_stimuli/rescaled_final/0699_rv.mp4	0.0	358.7739896774292	2.492222547531128
82	341.60823822021484	pulse	1	t		80.0	2.5	/experiments/knapen_AOT/AOT_stimuli/rescaled_final/0699_rv.mp4	0.0	360.34800481796265	
82	342.5264456272125	fix_post	2		12	80.0	2.5	/experiments/knapen_AOT/AOT_stimuli/rescaled_final/0699_rv.mp4	0.0	361.2662122249603	0.0998077392578125
83	342.62625336647034	fix_pre	0		120	81.0	2.5	/experiments/knapen_AOT/AOT_stimuli/rescaled_final/0865_rv.mp4	0.0	361.36601996421814	1.008603572845459
83	343.2101800441742	pulse	0	t		81.0	2.5	/experiments/knapen_AOT/AOT_stimuli/rescaled_final/0865_rv.mp4	0.0	361.949946641922	
83	343.6348569393158	movie	1		274	81.0	2.5	/experiments/knapen_AOT/AOT_stimuli/rescaled_final/0865_rv.mp4	0.0	362.3746235370636	2.4919285774230957
83	344.8102231025696	pulse	1	t		81.0	2.5	/experiments/knapen_AOT/AOT_stimuli/rescaled_final/0865_rv.mp4	0.0	363.5499897003174	
83	346.1267855167389	fix_post	2		12	81.0	2.5	/experiments/knapen_AOT/AOT_stimuli/rescaled_final/0865_rv.mp4	0.0	364.8665521144867	0.10001802444458008
84	346.2268035411835	fix_pre	0		120	82.0	2.5	/experiments/knapen_AOT/AOT_stimuli/rescaled_final/0535_fw.mp4	0.0	364.9665701389313	1.0085055828094482
84	346.4103193283081	pulse	0	t		82.0	2.5	/experiments/knapen_AOT/AOT_stimuli/rescaled_final/0535_fw.mp4	0.0	365.1500859260559	
84	347.2353091239929	movie	1		276	82.0	2.5	/experiments/knapen_AOT/AOT_stimuli/rescaled_final/0535_fw.mp4	0.0	365.9750757217407	2.4921023845672607
84	348.0093696117401	pulse	1	t		82.0	2.5	/experiments/knapen_AOT/AOT_stimuli/rescaled_final/0535_fw.mp4	0.0	366.7491362094879	
84	349.609041929245	pulse	1	t		82.0	2.5	/experiments/knapen_AOT/AOT_stimuli/rescaled_final/0535_fw.mp4	0.0	368.3488085269928	
84	349.7274115085602	fix_post	2		12	82.0	2.5	/experiments/knapen_AOT/AOT_stimuli/rescaled_final/0535_fw.mp4	0.0	368.467178106308	0.0999300479888916
85	349.8273415565491	fix_pre	0		120	83.0	2.5	blank	1.0	368.5671081542969	1.0001323223114014
85	350.8274738788605	movie	1		300	83.0	2.5	blank	1.0	369.5672404766083	2.5003738403320312
85	351.2112567424774	pulse	1	t		83.0	2.5	blank	1.0	369.9510233402252	
85	352.81131172180176	pulse	1	t		83.0	2.5	blank	1.0	371.55107831954956	
85	353.3278477191925	fix_post	2		12	83.0	2.5	blank	1.0	372.0676143169403	0.09998369216918945
87	353.4278314113617	stim	0		1715					372.1675980091095	14.293860912322998
87	354.4117238521576	pulse	0	t						373.1514904499054	
87	356.01178073883057	pulse	0	t						374.75154733657837	
87	357.6120138168335	pulse	0	t						376.3517804145813	
87	359.212504863739	pulse	0	t						377.9522714614868	
87	360.81270027160645	pulse	0	t						379.55246686935425	
87	362.41280579566956	pulse	0	t						381.15257239341736	
87	364.0130319595337	pulse	0	t						382.7527985572815	
87	365.6132073402405	pulse	0	t						384.3529739379883	
87	367.2134518623352	pulse	0	t						385.953218460083	
