trial_nr	onset	event_type	phase	response	nr_frames	movie_index	movie_duration	movie_file	blank	onset_abs	duration
0	0.20819687843322754	stim	0		28					90.75719976425171	0.2334270477294922
0	0.4335520267486572	response	0	space						90.98255491256714	
1	0.4416239261627197	stim	0		3471					90.9906268119812	28.94872498512268
1	29.360265016555786	pulse	0	t						119.90926790237427	
1	29.3903489112854	stim	1		1716					119.93935179710388	14.29938292503357
1	30.954715967178345	pulse	1	t						121.50371885299683	
1	32.55477595329285	pulse	1	t						123.10377883911133	
1	34.1551148891449	pulse	1	t						124.70411777496338	
1	35.75537395477295	pulse	1	t						126.30437684059143	
1	37.3554949760437	pulse	1	t						127.90449786186218	
1	38.9558207988739	pulse	1	t						129.50482368469238	
1	40.55597496032715	pulse	1	t						131.10497784614563	
1	42.15626788139343	pulse	1	t						132.7052707672119	
2	43.68973183631897	fix_pre	0		9	0.0	2.5	/experiments/knapen_AOT/AOT_stimuli/rescaled_final/0897_fw.mp4	0.0	134.23873472213745	0.07500600814819336
2	43.75645589828491	pulse	0	t		0.0	2.5	/experiments/knapen_AOT/AOT_stimuli/rescaled_final/0897_fw.mp4	0.0	134.3054587841034	
2	43.76473784446716	movie	1		242	0.0	2.5	/experiments/knapen_AOT/AOT_stimuli/rescaled_final/0897_fw.mp4	0.0	134.31374073028564	2.508697032928467
2	45.357364892959595	pulse	1	t		0.0	2.5	/experiments/knapen_AOT/AOT_stimuli/rescaled_final/0897_fw.mp4	0.0	135.90636777877808	
2	46.27343487739563	fix_post	2		12	0.0	2.5	/experiments/knapen_AOT/AOT_stimuli/rescaled_final/0897_fw.mp4	0.0	136.8224377632141	0.09999895095825195
3	46.37343382835388	fix_pre	0		120	1.0	2.5	/experiments/knapen_AOT/AOT_stimuli/rescaled_final/1701_rv.mp4	0.0	136.92243671417236	1.000108003616333
3	46.95703101158142	pulse	0	t		1.0	2.5	/experiments/knapen_AOT/AOT_stimuli/rescaled_final/1701_rv.mp4	0.0	137.5060338973999	
3	47.373541831970215	movie	1		243	1.0	2.5	/experiments/knapen_AOT/AOT_stimuli/rescaled_final/1701_rv.mp4	0.0	137.9225447177887	2.5005171298980713
3	48.557312965393066	pulse	1	t		1.0	2.5	/experiments/knapen_AOT/AOT_stimuli/rescaled_final/1701_rv.mp4	0.0	139.10631585121155	
3	49.874058961868286	fix_post	2		12	1.0	2.5	/experiments/knapen_AOT/AOT_stimuli/rescaled_final/1701_rv.mp4	0.0	140.42306184768677	0.09991097450256348
4	49.97396993637085	fix_pre	0		120	2.0	2.5	/experiments/knapen_AOT/AOT_stimuli/rescaled_final/1692_fw.mp4	0.0	140.52297282218933	1.0002219676971436
4	50.1574969291687	pulse	0	t		2.0	2.5	/experiments/knapen_AOT/AOT_stimuli/rescaled_final/1692_fw.mp4	0.0	140.70649981498718	
4	50.97419190406799	movie	1		242	2.0	2.5	/experiments/knapen_AOT/AOT_stimuli/rescaled_final/1692_fw.mp4	0.0	141.52319478988647	2.500425100326538
4	51.7577748298645	pulse	1	t		2.0	2.5	/experiments/knapen_AOT/AOT_stimuli/rescaled_final/1692_fw.mp4	0.0	142.30677771568298	
4	53.357831954956055	pulse	1	t		2.0	2.5	/experiments/knapen_AOT/AOT_stimuli/rescaled_final/1692_fw.mp4	0.0	143.90683484077454	
4	53.47461700439453	fix_post	2		12	2.0	2.5	/experiments/knapen_AOT/AOT_stimuli/rescaled_final/1692_fw.mp4	0.0	144.023619890213	0.0998539924621582
5	53.57447099685669	fix_pre	0		120	3.0	2.5	/experiments/knapen_AOT/AOT_stimuli/rescaled_final/1612_rv.mp4	0.0	144.12347388267517	1.0001509189605713
5	54.57462191581726	movie	1		242	3.0	2.5	/experiments/knapen_AOT/AOT_stimuli/rescaled_final/1612_rv.mp4	0.0	145.12362480163574	2.492266893386841
5	54.96246099472046	pulse	1	t		3.0	2.5	/experiments/knapen_AOT/AOT_stimuli/rescaled_final/1612_rv.mp4	0.0	145.51146388053894	
5	56.55839800834656	pulse	1	t		3.0	2.5	/experiments/knapen_AOT/AOT_stimuli/rescaled_final/1612_rv.mp4	0.0	147.10740089416504	
5	57.0668888092041	fix_post	2		12	3.0	2.5	/experiments/knapen_AOT/AOT_stimuli/rescaled_final/1612_rv.mp4	0.0	147.61589169502258	0.0998082160949707
6	57.16669702529907	fix_pre	0		120	4.0	2.5	/experiments/knapen_AOT/AOT_stimuli/rescaled_final/1931_fw.mp4	0.0	147.71569991111755	1.000194787979126
6	58.15878891944885	pulse	0	t		4.0	2.5	/experiments/knapen_AOT/AOT_stimuli/rescaled_final/1931_fw.mp4	0.0	148.70779180526733	
6	58.1668918132782	movie	1		243	4.0	2.5	/experiments/knapen_AOT/AOT_stimuli/rescaled_final/1931_fw.mp4	0.0	148.71589469909668	2.508692979812622
6	59.7594268321991	pulse	1	t		4.0	2.5	/experiments/knapen_AOT/AOT_stimuli/rescaled_final/1931_fw.mp4	0.0	150.30842971801758	
6	60.67558479309082	fix_post	2		12	4.0	2.5	/experiments/knapen_AOT/AOT_stimuli/rescaled_final/1931_fw.mp4	0.0	151.2245876789093	0.09997415542602539
7	60.775558948516846	fix_pre	0		120	5.0	2.5	blank	1.0	151.32456183433533	1.0001509189605713
7	61.35922980308533	pulse	0	t		5.0	2.5	blank	1.0	151.9082326889038	
7	61.77570986747742	movie	1		300	5.0	2.5	blank	1.0	152.3247127532959	2.5003559589385986
7	62.959352016448975	pulse	1	t		5.0	2.5	blank	1.0	153.50835490226746	
7	64.27606582641602	fix_post	2		12	5.0	2.5	blank	1.0	154.8250687122345	0.10006904602050781
8	64.37613487243652	fix_pre	0		120	6.0	2.5	/experiments/knapen_AOT/AOT_stimuli/rescaled_final/0949_fw.mp4	0.0	154.925137758255	1.0000989437103271
8	64.55961990356445	pulse	0	t		6.0	2.5	/experiments/knapen_AOT/AOT_stimuli/rescaled_final/0949_fw.mp4	0.0	155.10862278938293	
8	65.37623381614685	movie	1		243	6.0	2.5	/experiments/knapen_AOT/AOT_stimuli/rescaled_final/0949_fw.mp4	0.0	155.92523670196533	2.500596046447754
8	66.1599988937378	pulse	1	t		6.0	2.5	/experiments/knapen_AOT/AOT_stimuli/rescaled_final/0949_fw.mp4	0.0	156.70900177955627	
8	67.76009798049927	pulse	1	t		6.0	2.5	/experiments/knapen_AOT/AOT_stimuli/rescaled_final/0949_fw.mp4	0.0	158.30910086631775	
8	67.8768298625946	fix_post	2		12	6.0	2.5	/experiments/knapen_AOT/AOT_stimuli/rescaled_final/0949_fw.mp4	0.0	158.4258327484131	0.09976911544799805
9	67.9765989780426	fix_pre	0		120	7.0	2.5	/experiments/knapen_AOT/AOT_stimuli/rescaled_final/0601_fw.mp4	0.0	158.52560186386108	1.0001769065856934
9	68.9767758846283	movie	1		243	7.0	2.5	/experiments/knapen_AOT/AOT_stimuli/rescaled_final/0601_fw.mp4	0.0	159.52577877044678	2.492043972015381
9	69.36080980300903	pulse	1	t		7.0	2.5	/experiments/knapen_AOT/AOT_stimuli/rescaled_final/0601_fw.mp4	0.0	159.90981268882751	
9	70.96067094802856	pulse	1	t		7.0	2.5	/experiments/knapen_AOT/AOT_stimuli/rescaled_final/0601_fw.mp4	0.0	161.50967383384705	
9	71.46881985664368	fix_post	2		12	7.0	2.5	/experiments/knapen_AOT/AOT_stimuli/rescaled_final/0601_fw.mp4	0.0	162.01782274246216	0.10004305839538574
10	71.56886291503906	fix_pre	0		120	8.0	2.5	/experiments/knapen_AOT/AOT_stimuli/rescaled_final/1253_fw.mp4	0.0	162.11786580085754	1.0001521110534668
10	72.56093883514404	pulse	0	t		8.0	2.5	/experiments/knapen_AOT/AOT_stimuli/rescaled_final/1253_fw.mp4	0.0	163.10994172096252	
10	72.56901502609253	movie	1		243	8.0	2.5	/experiments/knapen_AOT/AOT_stimuli/rescaled_final/1253_fw.mp4	0.0	163.118017911911	2.5087409019470215
10	74.16530585289001	pulse	1	t		8.0	2.5	/experiments/knapen_AOT/AOT_stimuli/rescaled_final/1253_fw.mp4	0.0	164.7143087387085	
10	75.07775592803955	fix_post	2		12	8.0	2.5	/experiments/knapen_AOT/AOT_stimuli/rescaled_final/1253_fw.mp4	0.0	165.62675881385803	0.09996199607849121
11	75.17771792411804	fix_pre	0		120	9.0	2.5	/experiments/knapen_AOT/AOT_stimuli/rescaled_final/0271_rv.mp4	0.0	165.72672080993652	1.0001518726348877
11	75.76135683059692	pulse	0	t		9.0	2.5	/experiments/knapen_AOT/AOT_stimuli/rescaled_final/0271_rv.mp4	0.0	166.3103597164154	
11	76.17786979675293	movie	1		243	9.0	2.5	/experiments/knapen_AOT/AOT_stimuli/rescaled_final/0271_rv.mp4	0.0	166.7268726825714	2.500472068786621
11	77.3615779876709	pulse	1	t		9.0	2.5	/experiments/knapen_AOT/AOT_stimuli/rescaled_final/0271_rv.mp4	0.0	167.91058087348938	
11	78.67834186553955	fix_post	2		12	9.0	2.5	/experiments/knapen_AOT/AOT_stimuli/rescaled_final/0271_rv.mp4	0.0	169.22734475135803	0.09993410110473633
12	78.77827596664429	fix_pre	0		120	10.0	2.5	/experiments/knapen_AOT/AOT_stimuli/rescaled_final/0860_rv.mp4	0.0	169.32727885246277	1.00010085105896
12	78.95426392555237	pulse	0	t		10.0	2.5	/experiments/knapen_AOT/AOT_stimuli/rescaled_final/0860_rv.mp4	0.0	169.50326681137085	
12	79.77837681770325	movie	1		243	10.0	2.5	/experiments/knapen_AOT/AOT_stimuli/rescaled_final/0860_rv.mp4	0.0	170.32737970352173	2.5005991458892822
12	80.55460286140442	pulse	1	t		10.0	2.5	/experiments/knapen_AOT/AOT_stimuli/rescaled_final/0860_rv.mp4	0.0	171.1036057472229	
12	82.16215491294861	pulse	1	t		10.0	2.5	/experiments/knapen_AOT/AOT_stimuli/rescaled_final/0860_rv.mp4	0.0	172.7111577987671	
12	82.27897596359253	fix_post	2		12	10.0	2.5	/experiments/knapen_AOT/AOT_stimuli/rescaled_final/0860_rv.mp4	0.0	172.827978849411	0.09980487823486328
13	82.37878084182739	fix_pre	0		120	11.0	2.5	/experiments/knapen_AOT/AOT_stimuli/rescaled_final/0449_fw.mp4	0.0	172.92778372764587	1.000148057937622
13	83.37892889976501	movie	1		242	11.0	2.5	/experiments/knapen_AOT/AOT_stimuli/rescaled_final/0449_fw.mp4	0.0	173.9279317855835	2.49220609664917
13	83.7630410194397	pulse	1	t		11.0	2.5	/experiments/knapen_AOT/AOT_stimuli/rescaled_final/0449_fw.mp4	0.0	174.31204390525818	
13	85.35454392433167	pulse	1	t		11.0	2.5	/experiments/knapen_AOT/AOT_stimuli/rescaled_final/0449_fw.mp4	0.0	175.90354681015015	
13	85.87113499641418	fix_post	2		12	11.0	2.5	/experiments/knapen_AOT/AOT_stimuli/rescaled_final/0449_fw.mp4	0.0	176.42013788223267	0.09985995292663574
14	85.97099494934082	fix_pre	0		119	12.0	2.5	/experiments/knapen_AOT/AOT_stimuli/rescaled_final/1265_rv.mp4	0.0	176.5199978351593	0.9918479919433594
14	86.9545578956604	pulse	0	t		12.0	2.5	/experiments/knapen_AOT/AOT_stimuli/rescaled_final/1265_rv.mp4	0.0	177.50356078147888	
14	86.96284294128418	movie	1		243	12.0	2.5	/experiments/knapen_AOT/AOT_stimuli/rescaled_final/1265_rv.mp4	0.0	177.51184582710266	2.5086989402770996
14	88.5554130077362	pulse	1	t		12.0	2.5	/experiments/knapen_AOT/AOT_stimuli/rescaled_final/1265_rv.mp4	0.0	179.1044158935547	
14	89.47154188156128	fix_post	2		12	12.0	2.5	/experiments/knapen_AOT/AOT_stimuli/rescaled_final/1265_rv.mp4	0.0	180.02054476737976	0.09995293617248535
15	89.57149481773376	fix_pre	0		120	13.0	2.5	blank	1.0	180.12049770355225	1.0001699924468994
15	90.15516781806946	pulse	0	t		13.0	2.5	blank	1.0	180.70417070388794	
15	90.57166481018066	movie	1		300	13.0	2.5	blank	1.0	181.12066769599915	2.500354051589966
15	91.75541281700134	pulse	1	t		13.0	2.5	blank	1.0	182.30441570281982	
15	93.07201886177063	fix_post	2		12	13.0	2.5	blank	1.0	183.6210217475891	0.10006093978881836
16	93.17207980155945	fix_pre	0		120	14.0	2.5	/experiments/knapen_AOT/AOT_stimuli/rescaled_final/0998_fw.mp4	0.0	183.72108268737793	1.0001070499420166
16	93.35553479194641	pulse	0	t		14.0	2.5	/experiments/knapen_AOT/AOT_stimuli/rescaled_final/0998_fw.mp4	0.0	183.9045376777649	
16	94.17218685150146	movie	1		242	14.0	2.5	/experiments/knapen_AOT/AOT_stimuli/rescaled_final/0998_fw.mp4	0.0	184.72118973731995	2.4922120571136475
16	94.9558207988739	pulse	1	t		14.0	2.5	/experiments/knapen_AOT/AOT_stimuli/rescaled_final/0998_fw.mp4	0.0	185.50482368469238	
16	96.556569814682	pulse	1	t		14.0	2.5	/experiments/knapen_AOT/AOT_stimuli/rescaled_final/0998_fw.mp4	0.0	187.1055727005005	
16	96.66439890861511	fix_post	2		13	14.0	2.5	/experiments/knapen_AOT/AOT_stimuli/rescaled_final/0998_fw.mp4	0.0	187.2134017944336	0.10820603370666504
17	96.77260494232178	fix_pre	0		119	15.0	2.5	/experiments/knapen_AOT/AOT_stimuli/rescaled_final/1023_fw.mp4	0.0	187.32160782814026	0.991786003112793
17	97.76439094543457	movie	1		242	15.0	2.5	/experiments/knapen_AOT/AOT_stimuli/rescaled_final/1023_fw.mp4	0.0	188.31339383125305	2.5006039142608643
17	98.15637588500977	pulse	1	t		15.0	2.5	/experiments/knapen_AOT/AOT_stimuli/rescaled_final/1023_fw.mp4	0.0	188.70537877082825	
17	99.75649094581604	pulse	1	t		15.0	2.5	/experiments/knapen_AOT/AOT_stimuli/rescaled_final/1023_fw.mp4	0.0	190.30549383163452	
17	100.26499485969543	fix_post	2		12	15.0	2.5	/experiments/knapen_AOT/AOT_stimuli/rescaled_final/1023_fw.mp4	0.0	190.81399774551392	0.09980106353759766
18	100.36479592323303	fix_pre	0		116	16.0	2.5	/experiments/knapen_AOT/AOT_stimuli/rescaled_final/1413_rv.mp4	0.0	190.9137988090515	1.0001580715179443
18	101.35676884651184	pulse	0	t		16.0	2.5	/experiments/knapen_AOT/AOT_stimuli/rescaled_final/1413_rv.mp4	0.0	191.90577173233032	
18	101.36495399475098	movie	1		246	16.0	2.5	/experiments/knapen_AOT/AOT_stimuli/rescaled_final/1413_rv.mp4	0.0	191.91395688056946	2.508678913116455
18	102.95852589607239	pulse	1	t		16.0	2.5	/experiments/knapen_AOT/AOT_stimuli/rescaled_final/1413_rv.mp4	0.0	193.50752878189087	
18	103.87363290786743	fix_post	2		12	16.0	2.5	/experiments/knapen_AOT/AOT_stimuli/rescaled_final/1413_rv.mp4	0.0	194.4226357936859	0.100006103515625
19	103.97363901138306	fix_pre	0		120	17.0	2.5	/experiments/knapen_AOT/AOT_stimuli/rescaled_final/0172_fw.mp4	0.0	194.52264189720154	1.00028395652771
19	104.55732202529907	pulse	0	t		17.0	2.5	/experiments/knapen_AOT/AOT_stimuli/rescaled_final/0172_fw.mp4	0.0	195.10632491111755	
19	104.97392296791077	movie	1		243	17.0	2.5	/experiments/knapen_AOT/AOT_stimuli/rescaled_final/0172_fw.mp4	0.0	195.52292585372925	2.5004260540008545
19	106.15751600265503	pulse	1	t		17.0	2.5	/experiments/knapen_AOT/AOT_stimuli/rescaled_final/0172_fw.mp4	0.0	196.7065188884735	
19	107.47434902191162	fix_post	2		12	17.0	2.5	/experiments/knapen_AOT/AOT_stimuli/rescaled_final/0172_fw.mp4	0.0	198.0233519077301	0.09984087944030762
20	107.57418990135193	fix_pre	0		120	18.0	2.5	/experiments/knapen_AOT/AOT_stimuli/rescaled_final/0465_rv.mp4	0.0	198.1231927871704	1.0001509189605713
20	107.75768899917603	pulse	0	t		18.0	2.5	/experiments/knapen_AOT/AOT_stimuli/rescaled_final/0465_rv.mp4	0.0	198.3066918849945	
20	108.5743408203125	movie	1		242	18.0	2.5	/experiments/knapen_AOT/AOT_stimuli/rescaled_final/0465_rv.mp4	0.0	199.12334370613098	2.500523090362549
20	109.35803198814392	pulse	1	t		18.0	2.5	/experiments/knapen_AOT/AOT_stimuli/rescaled_final/0465_rv.mp4	0.0	199.9070348739624	
20	110.95821285247803	pulse	1	t		18.0	2.5	/experiments/knapen_AOT/AOT_stimuli/rescaled_final/0465_rv.mp4	0.0	201.5072157382965	
20	111.07486391067505	fix_post	2		12	18.0	2.5	/experiments/knapen_AOT/AOT_stimuli/rescaled_final/0465_rv.mp4	0.0	201.62386679649353	0.09989809989929199
21	111.17476201057434	fix_pre	0		120	19.0	2.5	/experiments/knapen_AOT/AOT_stimuli/rescaled_final/1985_rv.mp4	0.0	201.72376489639282	1.0001068115234375
21	112.17486882209778	movie	1		243	19.0	2.5	/experiments/knapen_AOT/AOT_stimuli/rescaled_final/1985_rv.mp4	0.0	202.72387170791626	2.4921011924743652
21	112.5591778755188	pulse	1	t		19.0	2.5	/experiments/knapen_AOT/AOT_stimuli/rescaled_final/1985_rv.mp4	0.0	203.10818076133728	
21	114.15878582000732	pulse	1	t		19.0	2.5	/experiments/knapen_AOT/AOT_stimuli/rescaled_final/1985_rv.mp4	0.0	204.7077887058258	
21	114.66697001457214	fix_post	2		12	19.0	2.5	/experiments/knapen_AOT/AOT_stimuli/rescaled_final/1985_rv.mp4	0.0	205.21597290039062	0.10000300407409668
22	114.76697301864624	fix_pre	0		120	20.0	2.5	/experiments/knapen_AOT/AOT_stimuli/rescaled_final/1920_fw.mp4	0.0	205.31597590446472	1.0001659393310547
22	115.75891995429993	pulse	0	t		20.0	2.5	/experiments/knapen_AOT/AOT_stimuli/rescaled_final/1920_fw.mp4	0.0	206.3079228401184	
22	115.7671389579773	movie	1		243	20.0	2.5	/experiments/knapen_AOT/AOT_stimuli/rescaled_final/1920_fw.mp4	0.0	206.31614184379578	2.5087318420410156
22	117.3599579334259	pulse	1	t		20.0	2.5	/experiments/knapen_AOT/AOT_stimuli/rescaled_final/1920_fw.mp4	0.0	207.90896081924438	
22	118.27587080001831	fix_post	2		12	20.0	2.5	/experiments/knapen_AOT/AOT_stimuli/rescaled_final/1920_fw.mp4	0.0	208.8248736858368	0.09992718696594238
23	118.37579798698425	fix_pre	0		120	21.0	2.5	blank	1.0	208.92480087280273	1.0001888275146484
23	118.95941686630249	pulse	0	t		21.0	2.5	blank	1.0	209.50841975212097	
23	119.3759868144989	movie	1		300	21.0	2.5	blank	1.0	209.92498970031738	2.5003302097320557
23	120.55972480773926	pulse	1	t		21.0	2.5	blank	1.0	211.10872769355774	
23	121.87631702423096	fix_post	2		12	21.0	2.5	blank	1.0	212.42531991004944	0.10002684593200684
24	121.97634387016296	fix_pre	0		120	22.0	2.5	/experiments/knapen_AOT/AOT_stimuli/rescaled_final/1650_fw.mp4	0.0	212.52534675598145	1.0001411437988281
24	122.15990686416626	pulse	0	t		22.0	2.5	/experiments/knapen_AOT/AOT_stimuli/rescaled_final/1650_fw.mp4	0.0	212.70890974998474	
24	122.97648501396179	movie	1		243	22.0	2.5	/experiments/knapen_AOT/AOT_stimuli/rescaled_final/1650_fw.mp4	0.0	213.52548789978027	2.500386953353882
24	123.76023197174072	pulse	1	t		22.0	2.5	/experiments/knapen_AOT/AOT_stimuli/rescaled_final/1650_fw.mp4	0.0	214.3092348575592	
24	125.3604838848114	pulse	1	t		22.0	2.5	/experiments/knapen_AOT/AOT_stimuli/rescaled_final/1650_fw.mp4	0.0	215.90948677062988	
24	125.47687196731567	fix_post	2		12	22.0	2.5	/experiments/knapen_AOT/AOT_stimuli/rescaled_final/1650_fw.mp4	0.0	216.02587485313416	0.10002493858337402
25	125.57689690589905	fix_pre	0		120	23.0	2.5	/experiments/knapen_AOT/AOT_stimuli/rescaled_final/1279_rv.mp4	0.0	216.12589979171753	1.0001699924468994
25	126.57706689834595	movie	1		242	23.0	2.5	/experiments/knapen_AOT/AOT_stimuli/rescaled_final/1279_rv.mp4	0.0	217.12606978416443	2.4921889305114746
25	126.96132183074951	pulse	1	t		23.0	2.5	/experiments/knapen_AOT/AOT_stimuli/rescaled_final/1279_rv.mp4	0.0	217.510324716568	
25	128.56100296974182	pulse	1	t		23.0	2.5	/experiments/knapen_AOT/AOT_stimuli/rescaled_final/1279_rv.mp4	0.0	219.1100058555603	
25	129.06925582885742	fix_post	2		12	23.0	2.5	/experiments/knapen_AOT/AOT_stimuli/rescaled_final/1279_rv.mp4	0.0	219.6182587146759	0.09984207153320312
26	129.16909790039062	fix_pre	0		120	24.0	2.5	/experiments/knapen_AOT/AOT_stimuli/rescaled_final/0976_fw.mp4	0.0	219.7181007862091	1.0001211166381836
26	130.16110396385193	pulse	0	t		24.0	2.5	/experiments/knapen_AOT/AOT_stimuli/rescaled_final/0976_fw.mp4	0.0	220.7101068496704	
26	130.1692190170288	movie	1		246	24.0	2.5	/experiments/knapen_AOT/AOT_stimuli/rescaled_final/0976_fw.mp4	0.0	220.7182219028473	2.5087289810180664
26	131.76200890541077	pulse	1	t		24.0	2.5	/experiments/knapen_AOT/AOT_stimuli/rescaled_final/0976_fw.mp4	0.0	222.31101179122925	
26	132.67794799804688	fix_post	2		12	24.0	2.5	/experiments/knapen_AOT/AOT_stimuli/rescaled_final/0976_fw.mp4	0.0	223.22695088386536	0.10014486312866211
27	132.77809286117554	fix_pre	0		120	25.0	2.5	/experiments/knapen_AOT/AOT_stimuli/rescaled_final/1658_fw.mp4	0.0	223.32709574699402	1.0000231266021729
27	133.36154699325562	pulse	0	t		25.0	2.5	/experiments/knapen_AOT/AOT_stimuli/rescaled_final/1658_fw.mp4	0.0	223.9105498790741	
27	133.7781159877777	movie	1		244	25.0	2.5	/experiments/knapen_AOT/AOT_stimuli/rescaled_final/1658_fw.mp4	0.0	224.3271188735962	2.5003440380096436
27	134.961905002594	pulse	1	t		25.0	2.5	/experiments/knapen_AOT/AOT_stimuli/rescaled_final/1658_fw.mp4	0.0	225.51090788841248	
27	136.27846002578735	fix_post	2		12	25.0	2.5	/experiments/knapen_AOT/AOT_stimuli/rescaled_final/1658_fw.mp4	0.0	226.82746291160583	0.10002779960632324
28	136.37848782539368	fix_pre	0		120	26.0	2.5	/experiments/knapen_AOT/AOT_stimuli/rescaled_final/0369_fw.mp4	0.0	226.92749071121216	1.0001981258392334
28	136.5621919631958	pulse	0	t		26.0	2.5	/experiments/knapen_AOT/AOT_stimuli/rescaled_final/0369_fw.mp4	0.0	227.11119484901428	
28	137.3786859512329	movie	1		243	26.0	2.5	/experiments/knapen_AOT/AOT_stimuli/rescaled_final/0369_fw.mp4	0.0	227.9276888370514	2.500483989715576
28	138.15491390228271	pulse	1	t		26.0	2.5	/experiments/knapen_AOT/AOT_stimuli/rescaled_final/0369_fw.mp4	0.0	228.7039167881012	
28	139.76387882232666	pulse	1	t		26.0	2.5	/experiments/knapen_AOT/AOT_stimuli/rescaled_final/0369_fw.mp4	0.0	230.31288170814514	
28	139.8791699409485	fix_post	2		12	26.0	2.5	/experiments/knapen_AOT/AOT_stimuli/rescaled_final/0369_fw.mp4	0.0	230.42817282676697	0.09988689422607422
29	139.97905683517456	fix_pre	0		120	27.0	2.5	blank	1.0	230.52805972099304	1.0001680850982666
29	140.97922492027283	movie	1		299	27.0	2.5	blank	1.0	231.5282278060913	2.4919919967651367
29	141.35536980628967	pulse	1	t		27.0	2.5	blank	1.0	231.90437269210815	
29	142.9554738998413	pulse	1	t		27.0	2.5	blank	1.0	233.5044767856598	
29	143.47121691703796	fix_post	2		12	27.0	2.5	blank	1.0	234.02021980285645	0.10002589225769043
30	143.57124280929565	fix_pre	0		120	28.0	2.5	/experiments/knapen_AOT/AOT_stimuli/rescaled_final/1733_fw.mp4	0.0	234.12024569511414	1.000136137008667
30	144.55567479133606	pulse	0	t		28.0	2.5	/experiments/knapen_AOT/AOT_stimuli/rescaled_final/1733_fw.mp4	0.0	235.10467767715454	
30	144.57137894630432	movie	1		243	28.0	2.5	/experiments/knapen_AOT/AOT_stimuli/rescaled_final/1733_fw.mp4	0.0	235.1203818321228	2.508805990219116
30	146.15515089035034	pulse	1	t		28.0	2.5	/experiments/knapen_AOT/AOT_stimuli/rescaled_final/1733_fw.mp4	0.0	236.70415377616882	
30	147.08018493652344	fix_post	2		12	28.0	2.5	/experiments/knapen_AOT/AOT_stimuli/rescaled_final/1733_fw.mp4	0.0	237.62918782234192	0.09993600845336914
31	147.1801209449768	fix_pre	0		120	29.0	2.5	/experiments/knapen_AOT/AOT_stimuli/rescaled_final/0581_rv.mp4	0.0	237.7291238307953	1.000143051147461
31	147.75530982017517	pulse	0	t		29.0	2.5	/experiments/knapen_AOT/AOT_stimuli/rescaled_final/0581_rv.mp4	0.0	238.30431270599365	
31	148.18026399612427	movie	1		243	29.0	2.5	/experiments/knapen_AOT/AOT_stimuli/rescaled_final/0581_rv.mp4	0.0	238.72926688194275	2.500623941421509
31	149.35634684562683	pulse	1	t		29.0	2.5	/experiments/knapen_AOT/AOT_stimuli/rescaled_final/0581_rv.mp4	0.0	239.9053497314453	
31	150.68088793754578	fix_post	2		12	29.0	2.5	/experiments/knapen_AOT/AOT_stimuli/rescaled_final/0581_rv.mp4	0.0	241.22989082336426	0.09980988502502441
32	150.7806978225708	fix_pre	0		120	30.0	2.5	/experiments/knapen_AOT/AOT_stimuli/rescaled_final/0121_rv.mp4	0.0	241.32970070838928	1.000157117843628
32	150.95597290992737	pulse	0	t		30.0	2.5	/experiments/knapen_AOT/AOT_stimuli/rescaled_final/0121_rv.mp4	0.0	241.50497579574585	
32	151.78085494041443	movie	1		242	30.0	2.5	/experiments/knapen_AOT/AOT_stimuli/rescaled_final/0121_rv.mp4	0.0	242.3298578262329	2.5004730224609375
32	152.55621194839478	pulse	1	t		30.0	2.5	/experiments/knapen_AOT/AOT_stimuli/rescaled_final/0121_rv.mp4	0.0	243.10521483421326	
32	154.1563639640808	pulse	1	t		30.0	2.5	/experiments/knapen_AOT/AOT_stimuli/rescaled_final/0121_rv.mp4	0.0	244.7053668498993	
32	154.28132796287537	fix_post	2		11	30.0	2.5	/experiments/knapen_AOT/AOT_stimuli/rescaled_final/0121_rv.mp4	0.0	244.83033084869385	0.09154891967773438
33	154.3728768825531	fix_pre	0		120	31.0	2.5	/experiments/knapen_AOT/AOT_stimuli/rescaled_final/0525_fw.mp4	0.0	244.92187976837158	1.0001180171966553
33	155.37299489974976	movie	1		243	31.0	2.5	/experiments/knapen_AOT/AOT_stimuli/rescaled_final/0525_fw.mp4	0.0	245.92199778556824	2.5003819465637207
33	155.7579538822174	pulse	1	t		31.0	2.5	/experiments/knapen_AOT/AOT_stimuli/rescaled_final/0525_fw.mp4	0.0	246.3069567680359	
33	157.35692691802979	pulse	1	t		31.0	2.5	/experiments/knapen_AOT/AOT_stimuli/rescaled_final/0525_fw.mp4	0.0	247.90592980384827	
33	157.87337684631348	fix_post	2		12	31.0	2.5	/experiments/knapen_AOT/AOT_stimuli/rescaled_final/0525_fw.mp4	0.0	248.42237973213196	0.10005402565002441
34	157.9734308719635	fix_pre	0		119	32.0	2.5	/experiments/knapen_AOT/AOT_stimuli/rescaled_final/0915_rv.mp4	0.0	248.52243375778198	0.9917881488800049
34	158.95718097686768	pulse	0	t		32.0	2.5	/experiments/knapen_AOT/AOT_stimuli/rescaled_final/0915_rv.mp4	0.0	249.50618386268616	
34	158.9652190208435	movie	1		243	32.0	2.5	/experiments/knapen_AOT/AOT_stimuli/rescaled_final/0915_rv.mp4	0.0	249.514221906662	2.5087687969207764
34	160.55879282951355	pulse	1	t		32.0	2.5	/experiments/knapen_AOT/AOT_stimuli/rescaled_final/0915_rv.mp4	0.0	251.10779571533203	
34	161.47398781776428	fix_post	2		12	32.0	2.5	/experiments/knapen_AOT/AOT_stimuli/rescaled_final/0915_rv.mp4	0.0	252.02299070358276	0.09996914863586426
35	161.57395696640015	fix_pre	0		120	33.0	2.5	blank	1.0	252.12295985221863	1.0001168251037598
35	162.1574649810791	pulse	0	t		33.0	2.5	blank	1.0	252.70646786689758	
35	162.5740737915039	movie	1		296	33.0	2.5	blank	1.0	253.1230766773224	2.500373125076294
35	163.75784993171692	pulse	1	t		33.0	2.5	blank	1.0	254.3068528175354	
35	165.0744469165802	fix_post	2		12	33.0	2.5	blank	1.0	255.62344980239868	0.10003209114074707
36	165.17447900772095	fix_pre	0		120	34.0	2.5	/experiments/knapen_AOT/AOT_stimuli/rescaled_final/1362_rv.mp4	0.0	255.72348189353943	1.0001249313354492
36	165.35811686515808	pulse	0	t		34.0	2.5	/experiments/knapen_AOT/AOT_stimuli/rescaled_final/1362_rv.mp4	0.0	255.90711975097656	
36	166.1746039390564	movie	1		242	34.0	2.5	/experiments/knapen_AOT/AOT_stimuli/rescaled_final/1362_rv.mp4	0.0	256.7236068248749	2.5005850791931152
36	166.95833086967468	pulse	1	t		34.0	2.5	/experiments/knapen_AOT/AOT_stimuli/rescaled_final/1362_rv.mp4	0.0	257.50733375549316	
36	168.55852699279785	pulse	1	t		34.0	2.5	/experiments/knapen_AOT/AOT_stimuli/rescaled_final/1362_rv.mp4	0.0	259.10752987861633	
36	168.6751890182495	fix_post	2		12	34.0	2.5	/experiments/knapen_AOT/AOT_stimuli/rescaled_final/1362_rv.mp4	0.0	259.224191904068	0.09980893135070801
37	168.77499794960022	fix_pre	0		120	35.0	2.5	/experiments/knapen_AOT/AOT_stimuli/rescaled_final/1240_rv.mp4	0.0	259.3240008354187	1.0002150535583496
37	169.77521300315857	movie	1		242	35.0	2.5	/experiments/knapen_AOT/AOT_stimuli/rescaled_final/1240_rv.mp4	0.0	260.32421588897705	2.492142915725708
37	170.15923190116882	pulse	1	t		35.0	2.5	/experiments/knapen_AOT/AOT_stimuli/rescaled_final/1240_rv.mp4	0.0	260.7082347869873	
37	171.7589249610901	pulse	1	t		35.0	2.5	/experiments/knapen_AOT/AOT_stimuli/rescaled_final/1240_rv.mp4	0.0	262.30792784690857	
37	172.26735591888428	fix_post	2		12	35.0	2.5	/experiments/knapen_AOT/AOT_stimuli/rescaled_final/1240_rv.mp4	0.0	262.81635880470276	0.09985208511352539
38	172.3672080039978	fix_pre	0		120	36.0	2.5	/experiments/knapen_AOT/AOT_stimuli/rescaled_final/1362_fw.mp4	0.0	262.9162108898163	1.0001509189605713
38	173.35931587219238	pulse	0	t		36.0	2.5	/experiments/knapen_AOT/AOT_stimuli/rescaled_final/1362_fw.mp4	0.0	263.90831875801086	
38	173.36735892295837	movie	1		243	36.0	2.5	/experiments/knapen_AOT/AOT_stimuli/rescaled_final/1362_fw.mp4	0.0	263.91636180877686	2.5087969303131104
38	174.9606568813324	pulse	1	t		36.0	2.5	/experiments/knapen_AOT/AOT_stimuli/rescaled_final/1362_fw.mp4	0.0	265.5096597671509	
38	175.87615585327148	fix_post	2		12	36.0	2.5	/experiments/knapen_AOT/AOT_stimuli/rescaled_final/1362_fw.mp4	0.0	266.42515873908997	0.09997916221618652
39	175.97613501548767	fix_pre	0		120	37.0	2.5	/experiments/knapen_AOT/AOT_stimuli/rescaled_final/0287_fw.mp4	0.0	266.52513790130615	1.0000948905944824
39	176.5597279071808	pulse	0	t		37.0	2.5	/experiments/knapen_AOT/AOT_stimuli/rescaled_final/0287_fw.mp4	0.0	267.10873079299927	
39	176.97622990608215	movie	1		243	37.0	2.5	/experiments/knapen_AOT/AOT_stimuli/rescaled_final/0287_fw.mp4	0.0	267.52523279190063	2.500380039215088
39	178.1600329875946	pulse	1	t		37.0	2.5	/experiments/knapen_AOT/AOT_stimuli/rescaled_final/0287_fw.mp4	0.0	268.7090358734131	
39	179.47660994529724	fix_post	2		12	37.0	2.5	/experiments/knapen_AOT/AOT_stimuli/rescaled_final/0287_fw.mp4	0.0	270.0256128311157	0.10001802444458008
40	179.57662796974182	fix_pre	0		120	38.0	2.5	/experiments/knapen_AOT/AOT_stimuli/rescaled_final/0243_fw.mp4	0.0	270.1256308555603	1.000154972076416
40	179.760155916214	pulse	0	t		38.0	2.5	/experiments/knapen_AOT/AOT_stimuli/rescaled_final/0243_fw.mp4	0.0	270.30915880203247	
40	180.57678294181824	movie	1		243	38.0	2.5	/experiments/knapen_AOT/AOT_stimuli/rescaled_final/0243_fw.mp4	0.0	271.1257858276367	2.5004868507385254
40	181.3603639602661	pulse	1	t		38.0	2.5	/experiments/knapen_AOT/AOT_stimuli/rescaled_final/0243_fw.mp4	0.0	271.9093668460846	
40	182.96059894561768	pulse	1	t		38.0	2.5	/experiments/knapen_AOT/AOT_stimuli/rescaled_final/0243_fw.mp4	0.0	273.50960183143616	
40	183.07726979255676	fix_post	2		12	38.0	2.5	/experiments/knapen_AOT/AOT_stimuli/rescaled_final/0243_fw.mp4	0.0	273.62627267837524	0.09993219375610352
41	183.17720198631287	fix_pre	0		120	39.0	2.5	/experiments/knapen_AOT/AOT_stimuli/rescaled_final/0172_rv.mp4	0.0	273.72620487213135	1.0001039505004883
41	184.17730593681335	movie	1		243	39.0	2.5	/experiments/knapen_AOT/AOT_stimuli/rescaled_final/0172_rv.mp4	0.0	274.72630882263184	2.4920170307159424
41	184.5613579750061	pulse	1	t		39.0	2.5	/experiments/knapen_AOT/AOT_stimuli/rescaled_final/0172_rv.mp4	0.0	275.1103608608246	
41	186.16127681732178	pulse	1	t		39.0	2.5	/experiments/knapen_AOT/AOT_stimuli/rescaled_final/0172_rv.mp4	0.0	276.71027970314026	
41	186.6693229675293	fix_post	2		12	39.0	2.5	/experiments/knapen_AOT/AOT_stimuli/rescaled_final/0172_rv.mp4	0.0	277.2183258533478	0.10006189346313477
42	186.76938486099243	fix_pre	0		120	40.0	2.5	blank	1.0	277.3183877468109	1.0001270771026611
42	187.76141381263733	pulse	0	t		40.0	2.5	blank	1.0	278.3104166984558	
42	187.7695119380951	movie	1		301	40.0	2.5	blank	1.0	278.3185148239136	2.508746862411499
42	189.36161398887634	pulse	1	t		40.0	2.5	blank	1.0	279.9106168746948	
42	190.2782588005066	fix_post	2		12	40.0	2.5	blank	1.0	280.8272616863251	0.09998321533203125
43	190.37824201583862	fix_pre	0		120	41.0	2.5	/experiments/knapen_AOT/AOT_stimuli/rescaled_final/0976_fw.mp4	0.0	280.9272449016571	1.0001168251037598
43	190.96187901496887	pulse	0	t		41.0	2.5	/experiments/knapen_AOT/AOT_stimuli/rescaled_final/0976_fw.mp4	0.0	281.51088190078735	
43	191.37835884094238	movie	1		244	41.0	2.5	/experiments/knapen_AOT/AOT_stimuli/rescaled_final/0976_fw.mp4	0.0	281.92736172676086	2.50040602684021
43	192.56216287612915	pulse	1	t		41.0	2.5	/experiments/knapen_AOT/AOT_stimuli/rescaled_final/0976_fw.mp4	0.0	283.11116576194763	
43	193.8787648677826	fix_post	2		12	41.0	2.5	/experiments/knapen_AOT/AOT_stimuli/rescaled_final/0976_fw.mp4	0.0	284.4277677536011	0.10002708435058594
44	193.97879195213318	fix_pre	0		120	42.0	2.5	/experiments/knapen_AOT/AOT_stimuli/rescaled_final/1701_fw.mp4	0.0	284.52779483795166	1.0001330375671387
44	194.15486001968384	pulse	0	t		42.0	2.5	/experiments/knapen_AOT/AOT_stimuli/rescaled_final/1701_fw.mp4	0.0	284.7038629055023	
44	194.97892498970032	movie	1		243	42.0	2.5	/experiments/knapen_AOT/AOT_stimuli/rescaled_final/1701_fw.mp4	0.0	285.5279278755188	2.500438928604126
44	195.75529098510742	pulse	1	t		42.0	2.5	/experiments/knapen_AOT/AOT_stimuli/rescaled_final/1701_fw.mp4	0.0	286.3042938709259	
44	197.36249899864197	pulse	1	t		42.0	2.5	/experiments/knapen_AOT/AOT_stimuli/rescaled_final/1701_fw.mp4	0.0	287.91150188446045	
44	197.47936391830444	fix_post	2		12	42.0	2.5	/experiments/knapen_AOT/AOT_stimuli/rescaled_final/1701_fw.mp4	0.0	288.0283668041229	0.09994792938232422
45	197.57931184768677	fix_pre	0		120	43.0	2.5	/experiments/knapen_AOT/AOT_stimuli/rescaled_final/0731_fw.mp4	0.0	288.12831473350525	1.0001611709594727
45	198.57947301864624	movie	1		244	43.0	2.5	/experiments/knapen_AOT/AOT_stimuli/rescaled_final/0731_fw.mp4	0.0	289.1284759044647	2.491994857788086
45	198.95468401908875	pulse	1	t		43.0	2.5	/experiments/knapen_AOT/AOT_stimuli/rescaled_final/0731_fw.mp4	0.0	289.5036869049072	
45	200.55496501922607	pulse	1	t		43.0	2.5	/experiments/knapen_AOT/AOT_stimuli/rescaled_final/0731_fw.mp4	0.0	291.10396790504456	
45	201.07146787643433	fix_post	2		12	43.0	2.5	/experiments/knapen_AOT/AOT_stimuli/rescaled_final/0731_fw.mp4	0.0	291.6204707622528	0.10009312629699707
46	201.17156100273132	fix_pre	0		119	44.0	2.5	/experiments/knapen_AOT/AOT_stimuli/rescaled_final/0692_fw.mp4	0.0	291.7205638885498	0.9917378425598145
46	202.15518379211426	pulse	0	t		44.0	2.5	/experiments/knapen_AOT/AOT_stimuli/rescaled_final/0692_fw.mp4	0.0	292.70418667793274	
46	202.16329884529114	movie	1		244	44.0	2.5	/experiments/knapen_AOT/AOT_stimuli/rescaled_final/0692_fw.mp4	0.0	292.7123017311096	2.508735179901123
46	203.7561948299408	pulse	1	t		44.0	2.5	/experiments/knapen_AOT/AOT_stimuli/rescaled_final/0692_fw.mp4	0.0	294.3051977157593	
46	204.67203402519226	fix_post	2		12	44.0	2.5	/experiments/knapen_AOT/AOT_stimuli/rescaled_final/0692_fw.mp4	0.0	295.22103691101074	0.09999799728393555
47	204.7720320224762	fix_pre	0		120	45.0	2.5	/experiments/knapen_AOT/AOT_stimuli/rescaled_final/1643_fw.mp4	0.0	295.3210349082947	1.000180959701538
47	205.35568284988403	pulse	0	t		45.0	2.5	/experiments/knapen_AOT/AOT_stimuli/rescaled_final/1643_fw.mp4	0.0	295.9046857357025	
47	205.77221298217773	movie	1		242	45.0	2.5	/experiments/knapen_AOT/AOT_stimuli/rescaled_final/1643_fw.mp4	0.0	296.3212158679962	2.500566005706787
47	206.95595979690552	pulse	1	t		45.0	2.5	/experiments/knapen_AOT/AOT_stimuli/rescaled_final/1643_fw.mp4	0.0	297.504962682724	
47	208.27277898788452	fix_post	2		12	45.0	2.5	/experiments/knapen_AOT/AOT_stimuli/rescaled_final/1643_fw.mp4	0.0	298.821781873703	0.09979081153869629
48	208.37256979942322	fix_pre	0		120	46.0	2.5	/experiments/knapen_AOT/AOT_stimuli/rescaled_final/1343_rv.mp4	0.0	298.9215726852417	1.000190019607544
48	208.55607295036316	pulse	0	t		46.0	2.5	/experiments/knapen_AOT/AOT_stimuli/rescaled_final/1343_rv.mp4	0.0	299.10507583618164	
48	209.37275981903076	movie	1		243	46.0	2.5	/experiments/knapen_AOT/AOT_stimuli/rescaled_final/1343_rv.mp4	0.0	299.92176270484924	2.500385046005249
48	210.15642189979553	pulse	1	t		46.0	2.5	/experiments/knapen_AOT/AOT_stimuli/rescaled_final/1343_rv.mp4	0.0	300.705424785614	
48	211.7565689086914	pulse	1	t		46.0	2.5	/experiments/knapen_AOT/AOT_stimuli/rescaled_final/1343_rv.mp4	0.0	302.3055717945099	
48	211.873144865036	fix_post	2		12	46.0	2.5	/experiments/knapen_AOT/AOT_stimuli/rescaled_final/1343_rv.mp4	0.0	302.4221477508545	0.09997415542602539
49	211.97311902046204	fix_pre	0		120	47.0	2.5	/experiments/knapen_AOT/AOT_stimuli/rescaled_final/0922_rv.mp4	0.0	302.5221219062805	1.0001449584960938
49	212.97326397895813	movie	1		243	47.0	2.5	/experiments/knapen_AOT/AOT_stimuli/rescaled_final/0922_rv.mp4	0.0	303.5222668647766	2.4920248985290527
49	213.3582320213318	pulse	1	t		47.0	2.5	/experiments/knapen_AOT/AOT_stimuli/rescaled_final/0922_rv.mp4	0.0	303.90723490715027	
49	214.9570529460907	pulse	1	t		47.0	2.5	/experiments/knapen_AOT/AOT_stimuli/rescaled_final/0922_rv.mp4	0.0	305.5060558319092	
49	215.46528887748718	fix_post	2		12	47.0	2.5	/experiments/knapen_AOT/AOT_stimuli/rescaled_final/0922_rv.mp4	0.0	306.01429176330566	0.10001611709594727
50	215.56530499458313	fix_pre	0		120	48.0	2.5	blank	1.0	306.1143078804016	1.000166893005371
50	216.55729389190674	pulse	0	t		48.0	2.5	blank	1.0	307.1062967777252	
50	216.5654718875885	movie	1		301	48.0	2.5	blank	1.0	307.114474773407	2.5087411403656006
50	218.15748500823975	pulse	1	t		48.0	2.5	blank	1.0	308.7064878940582	
50	219.0742130279541	fix_post	2		12	48.0	2.5	blank	1.0	309.6232159137726	0.09997296333312988
51	219.17418599128723	fix_pre	0		120	49.0	2.5	/experiments/knapen_AOT/AOT_stimuli/rescaled_final/1952_fw.mp4	0.0	309.7231888771057	1.0001590251922607
51	219.7577679157257	pulse	0	t		49.0	2.5	/experiments/knapen_AOT/AOT_stimuli/rescaled_final/1952_fw.mp4	0.0	310.3067708015442	
51	220.1743450164795	movie	1		244	49.0	2.5	/experiments/knapen_AOT/AOT_stimuli/rescaled_final/1952_fw.mp4	0.0	310.723347902298	2.500358819961548
51	221.3581199645996	pulse	1	t		49.0	2.5	/experiments/knapen_AOT/AOT_stimuli/rescaled_final/1952_fw.mp4	0.0	311.9071228504181	
51	222.67470383644104	fix_post	2		12	49.0	2.5	/experiments/knapen_AOT/AOT_stimuli/rescaled_final/1952_fw.mp4	0.0	313.2237067222595	0.10005402565002441
52	222.77475786209106	fix_pre	0		120	50.0	2.5	/experiments/knapen_AOT/AOT_stimuli/rescaled_final/1059_fw.mp4	0.0	313.32376074790955	1.0001111030578613
52	222.95827293395996	pulse	0	t		50.0	2.5	/experiments/knapen_AOT/AOT_stimuli/rescaled_final/1059_fw.mp4	0.0	313.50727581977844	
52	223.77486896514893	movie	1		242	50.0	2.5	/experiments/knapen_AOT/AOT_stimuli/rescaled_final/1059_fw.mp4	0.0	314.3238718509674	2.5255818367004395
52	224.5584750175476	pulse	1	t		50.0	2.5	/experiments/knapen_AOT/AOT_stimuli/rescaled_final/1059_fw.mp4	0.0	315.1074779033661	
52	226.15871286392212	pulse	1	t		50.0	2.5	/experiments/knapen_AOT/AOT_stimuli/rescaled_final/1059_fw.mp4	0.0	316.7077157497406	
52	226.30045080184937	fix_post	2		9	50.0	2.5	/experiments/knapen_AOT/AOT_stimuli/rescaled_final/1059_fw.mp4	0.0	316.84945368766785	0.07481813430786133
53	226.37526893615723	fix_pre	0		120	51.0	2.5	/experiments/knapen_AOT/AOT_stimuli/rescaled_final/1057_rv.mp4	0.0	316.9242718219757	1.0001649856567383
53	227.37543392181396	movie	1		242	51.0	2.5	/experiments/knapen_AOT/AOT_stimuli/rescaled_final/1057_rv.mp4	0.0	317.92443680763245	2.4920449256896973
53	227.76031279563904	pulse	1	t		51.0	2.5	/experiments/knapen_AOT/AOT_stimuli/rescaled_final/1057_rv.mp4	0.0	318.3093156814575	
53	229.35923194885254	pulse	1	t		51.0	2.5	/experiments/knapen_AOT/AOT_stimuli/rescaled_final/1057_rv.mp4	0.0	319.908234834671	
53	229.86747884750366	fix_post	2		12	51.0	2.5	/experiments/knapen_AOT/AOT_stimuli/rescaled_final/1057_rv.mp4	0.0	320.41648173332214	0.09999608993530273
54	229.96747493743896	fix_pre	0		120	52.0	2.5	/experiments/knapen_AOT/AOT_stimuli/rescaled_final/1063_fw.mp4	0.0	320.51647782325745	1.0001180171966553
54	230.95945000648499	pulse	0	t		52.0	2.5	/experiments/knapen_AOT/AOT_stimuli/rescaled_final/1063_fw.mp4	0.0	321.50845289230347	
54	230.96759295463562	movie	1		244	52.0	2.5	/experiments/knapen_AOT/AOT_stimuli/rescaled_final/1063_fw.mp4	0.0	321.5165958404541	2.5088050365448
54	232.56021881103516	pulse	1	t		52.0	2.5	/experiments/knapen_AOT/AOT_stimuli/rescaled_final/1063_fw.mp4	0.0	323.10922169685364	
54	233.47639799118042	fix_post	2		12	52.0	2.5	/experiments/knapen_AOT/AOT_stimuli/rescaled_final/1063_fw.mp4	0.0	324.0254008769989	0.09992289543151855
55	233.57632088661194	fix_pre	0		120	53.0	2.5	/experiments/knapen_AOT/AOT_stimuli/rescaled_final/1023_fw.mp4	0.0	324.1253237724304	1.0001640319824219
55	234.16005682945251	pulse	0	t		53.0	2.5	/experiments/knapen_AOT/AOT_stimuli/rescaled_final/1023_fw.mp4	0.0	324.709059715271	
55	234.57648491859436	movie	1		243	53.0	2.5	/experiments/knapen_AOT/AOT_stimuli/rescaled_final/1023_fw.mp4	0.0	325.12548780441284	2.50040602684021
55	235.7602767944336	pulse	1	t		53.0	2.5	/experiments/knapen_AOT/AOT_stimuli/rescaled_final/1023_fw.mp4	0.0	326.3092796802521	
55	237.07689094543457	fix_post	2		12	53.0	2.5	/experiments/knapen_AOT/AOT_stimuli/rescaled_final/1023_fw.mp4	0.0	327.62589383125305	0.09997701644897461
56	237.17686796188354	fix_pre	0		120	54.0	2.5	/experiments/knapen_AOT/AOT_stimuli/rescaled_final/1666_rv.mp4	0.0	327.725870847702	1.0001599788665771
56	237.36040496826172	pulse	0	t		54.0	2.5	/experiments/knapen_AOT/AOT_stimuli/rescaled_final/1666_rv.mp4	0.0	327.9094078540802	
56	238.17702794075012	movie	1		242	54.0	2.5	/experiments/knapen_AOT/AOT_stimuli/rescaled_final/1666_rv.mp4	0.0	328.7260308265686	2.5004868507385254
56	238.9606969356537	pulse	1	t		54.0	2.5	/experiments/knapen_AOT/AOT_stimuli/rescaled_final/1666_rv.mp4	0.0	329.50969982147217	
56	240.5615108013153	pulse	1	t		54.0	2.5	/experiments/knapen_AOT/AOT_stimuli/rescaled_final/1666_rv.mp4	0.0	331.1105136871338	
56	240.67751479148865	fix_post	2		12	54.0	2.5	/experiments/knapen_AOT/AOT_stimuli/rescaled_final/1666_rv.mp4	0.0	331.22651767730713	0.099945068359375
57	240.77745985984802	fix_pre	0		120	55.0	2.5	blank	1.0	331.3264627456665	1.0001170635223389
57	241.77757692337036	movie	1		299	55.0	2.5	blank	1.0	332.32657980918884	2.492074966430664
57	242.16122198104858	pulse	1	t		55.0	2.5	blank	1.0	332.71022486686707	
57	243.76134991645813	pulse	1	t		55.0	2.5	blank	1.0	334.3103528022766	
57	244.26965188980103	fix_post	2		12	55.0	2.5	blank	1.0	334.8186547756195	0.09996509552001953
58	244.36961698532104	fix_pre	0		120	56.0	2.5	/experiments/knapen_AOT/AOT_stimuli/rescaled_final/1193_rv.mp4	0.0	334.9186198711395	1.000128984451294
58	245.3616178035736	pulse	0	t		56.0	2.5	/experiments/knapen_AOT/AOT_stimuli/rescaled_final/1193_rv.mp4	0.0	335.9106206893921	
58	245.36974596977234	movie	1		244	56.0	2.5	/experiments/knapen_AOT/AOT_stimuli/rescaled_final/1193_rv.mp4	0.0	335.9187488555908	2.5087318420410156
58	246.96231889724731	pulse	1	t		56.0	2.5	/experiments/knapen_AOT/AOT_stimuli/rescaled_final/1193_rv.mp4	0.0	337.5113217830658	
58	247.87847781181335	fix_post	2		12	56.0	2.5	/experiments/knapen_AOT/AOT_stimuli/rescaled_final/1193_rv.mp4	0.0	338.42748069763184	0.10007405281066895
59	247.97855186462402	fix_pre	0		120	57.0	2.5	/experiments/knapen_AOT/AOT_stimuli/rescaled_final/1798_fw.mp4	0.0	338.5275547504425	1.000087022781372
59	248.5622010231018	pulse	0	t		57.0	2.5	/experiments/knapen_AOT/AOT_stimuli/rescaled_final/1798_fw.mp4	0.0	339.1112039089203	
59	248.9786388874054	movie	1		243	57.0	2.5	/experiments/knapen_AOT/AOT_stimuli/rescaled_final/1798_fw.mp4	0.0	339.5276417732239	2.5003879070281982
59	250.16243290901184	pulse	1	t		57.0	2.5	/experiments/knapen_AOT/AOT_stimuli/rescaled_final/1798_fw.mp4	0.0	340.7114357948303	
59	251.4790267944336	fix_post	2		12	57.0	2.5	/experiments/knapen_AOT/AOT_stimuli/rescaled_final/1798_fw.mp4	0.0	342.0280296802521	0.10006904602050781
60	251.5790958404541	fix_pre	0		120	58.0	2.5	/experiments/knapen_AOT/AOT_stimuli/rescaled_final/0397_rv.mp4	0.0	342.1280987262726	1.0000970363616943
60	251.7627239227295	pulse	0	t		58.0	2.5	/experiments/knapen_AOT/AOT_stimuli/rescaled_final/0397_rv.mp4	0.0	342.311726808548	
60	252.5791928768158	movie	1		243	58.0	2.5	/experiments/knapen_AOT/AOT_stimuli/rescaled_final/0397_rv.mp4	0.0	343.1281957626343	2.5005710124969482
60	253.35532689094543	pulse	1	t		58.0	2.5	/experiments/knapen_AOT/AOT_stimuli/rescaled_final/0397_rv.mp4	0.0	343.9043297767639	
60	254.96308493614197	pulse	1	t		58.0	2.5	/experiments/knapen_AOT/AOT_stimuli/rescaled_final/0397_rv.mp4	0.0	345.51208782196045	
60	255.07976388931274	fix_post	2		12	58.0	2.5	/experiments/knapen_AOT/AOT_stimuli/rescaled_final/0397_rv.mp4	0.0	345.6287667751312	0.09984898567199707
61	255.17961287498474	fix_pre	0		120	59.0	2.5	/experiments/knapen_AOT/AOT_stimuli/rescaled_final/0976_rv.mp4	0.0	345.7286157608032	1.0001070499420166
61	256.17971992492676	movie	1		244	59.0	2.5	/experiments/knapen_AOT/AOT_stimuli/rescaled_final/0976_rv.mp4	0.0	346.72872281074524	2.492021083831787
61	256.56737780570984	pulse	1	t		59.0	2.5	/experiments/knapen_AOT/AOT_stimuli/rescaled_final/0976_rv.mp4	0.0	347.1163806915283	
61	258.15617394447327	pulse	1	t		59.0	2.5	/experiments/knapen_AOT/AOT_stimuli/rescaled_final/0976_rv.mp4	0.0	348.70517683029175	
61	258.67174100875854	fix_post	2		12	59.0	2.5	/experiments/knapen_AOT/AOT_stimuli/rescaled_final/0976_rv.mp4	0.0	349.220743894577	0.10007691383361816
62	258.77181792259216	fix_pre	0		119	60.0	2.5	/experiments/knapen_AOT/AOT_stimuli/rescaled_final/1321_fw.mp4	0.0	349.32082080841064	0.9917919635772705
62	259.75537395477295	pulse	0	t		60.0	2.5	/experiments/knapen_AOT/AOT_stimuli/rescaled_final/1321_fw.mp4	0.0	350.30437684059143	
62	259.76360988616943	movie	1		245	60.0	2.5	/experiments/knapen_AOT/AOT_stimuli/rescaled_final/1321_fw.mp4	0.0	350.3126127719879	2.508664131164551
62	261.35619282722473	pulse	1	t		60.0	2.5	/experiments/knapen_AOT/AOT_stimuli/rescaled_final/1321_fw.mp4	0.0	351.9051957130432	
62	262.272274017334	fix_post	2		12	60.0	2.5	/experiments/knapen_AOT/AOT_stimuli/rescaled_final/1321_fw.mp4	0.0	352.82127690315247	0.1000218391418457
63	262.37229585647583	fix_pre	0		120	61.0	2.5	/experiments/knapen_AOT/AOT_stimuli/rescaled_final/1703_fw.mp4	0.0	352.9212987422943	1.0001699924468994
63	262.95593881607056	pulse	0	t		61.0	2.5	/experiments/knapen_AOT/AOT_stimuli/rescaled_final/1703_fw.mp4	0.0	353.50494170188904	
63	263.37246584892273	movie	1		243	61.0	2.5	/experiments/knapen_AOT/AOT_stimuli/rescaled_final/1703_fw.mp4	0.0	353.9214687347412	2.5003981590270996
63	264.5562570095062	pulse	1	t		61.0	2.5	/experiments/knapen_AOT/AOT_stimuli/rescaled_final/1703_fw.mp4	0.0	355.1052598953247	
63	265.87286400794983	fix_post	2		12	61.0	2.5	/experiments/knapen_AOT/AOT_stimuli/rescaled_final/1703_fw.mp4	0.0	356.4218668937683	0.09999489784240723
64	265.97285890579224	fix_pre	0		120	62.0	2.5	/experiments/knapen_AOT/AOT_stimuli/rescaled_final/2082_fw.mp4	0.0	356.5218617916107	1.0002551078796387
64	266.15642380714417	pulse	0	t		62.0	2.5	/experiments/knapen_AOT/AOT_stimuli/rescaled_final/2082_fw.mp4	0.0	356.70542669296265	
64	266.9731140136719	movie	1		244	62.0	2.5	/experiments/knapen_AOT/AOT_stimuli/rescaled_final/2082_fw.mp4	0.0	357.52211689949036	2.5002429485321045
64	267.7565519809723	pulse	1	t		62.0	2.5	/experiments/knapen_AOT/AOT_stimuli/rescaled_final/2082_fw.mp4	0.0	358.30555486679077	
64	269.35692501068115	pulse	1	t		62.0	2.5	/experiments/knapen_AOT/AOT_stimuli/rescaled_final/2082_fw.mp4	0.0	359.90592789649963	
64	269.473356962204	fix_post	2		12	62.0	2.5	/experiments/knapen_AOT/AOT_stimuli/rescaled_final/2082_fw.mp4	0.0	360.02235984802246	0.09999585151672363
65	269.5733528137207	fix_pre	0		119	63.0	2.5	blank	1.0	360.1223556995392	0.9918510913848877
65	270.5652039051056	movie	1		300	63.0	2.5	blank	1.0	361.1142067909241	2.5003669261932373
65	270.95711183547974	pulse	1	t		63.0	2.5	blank	1.0	361.5061147212982	
65	272.55733585357666	pulse	1	t		63.0	2.5	blank	1.0	363.10633873939514	
65	273.0655708312988	fix_post	2		12	63.0	2.5	blank	1.0	363.6145737171173	0.100067138671875
66	273.1656379699707	fix_pre	0		120	64.0	2.5	/experiments/knapen_AOT/AOT_stimuli/rescaled_final/1671_fw.mp4	0.0	363.7146408557892	1.0001819133758545
66	274.1575620174408	pulse	0	t		64.0	2.5	/experiments/knapen_AOT/AOT_stimuli/rescaled_final/1671_fw.mp4	0.0	364.7065649032593	
66	274.16581988334656	movie	1		244	64.0	2.5	/experiments/knapen_AOT/AOT_stimuli/rescaled_final/1671_fw.mp4	0.0	364.71482276916504	2.508592128753662
66	275.7621819972992	pulse	1	t		64.0	2.5	/experiments/knapen_AOT/AOT_stimuli/rescaled_final/1671_fw.mp4	0.0	366.3111848831177	
66	276.6744120121002	fix_post	2		12	64.0	2.5	/experiments/knapen_AOT/AOT_stimuli/rescaled_final/1671_fw.mp4	0.0	367.2234148979187	0.10004997253417969
67	276.7744619846344	fix_pre	0		120	65.0	2.5	/experiments/knapen_AOT/AOT_stimuli/rescaled_final/1527_rv.mp4	0.0	367.3234648704529	1.0002069473266602
67	277.3581337928772	pulse	0	t		65.0	2.5	/experiments/knapen_AOT/AOT_stimuli/rescaled_final/1527_rv.mp4	0.0	367.9071366786957	
67	277.77466893196106	movie	1		248	65.0	2.5	/experiments/knapen_AOT/AOT_stimuli/rescaled_final/1527_rv.mp4	0.0	368.32367181777954	2.500293016433716
67	278.95844197273254	pulse	1	t		65.0	2.5	/experiments/knapen_AOT/AOT_stimuli/rescaled_final/1527_rv.mp4	0.0	369.507444858551	
67	280.2749619483948	fix_post	2		12	65.0	2.5	/experiments/knapen_AOT/AOT_stimuli/rescaled_final/1527_rv.mp4	0.0	370.82396483421326	0.1001439094543457
68	280.3751058578491	fix_pre	0		120	66.0	2.5	/experiments/knapen_AOT/AOT_stimuli/rescaled_final/0827_rv.mp4	0.0	370.9241087436676	1.000082015991211
68	280.5585060119629	pulse	0	t		66.0	2.5	/experiments/knapen_AOT/AOT_stimuli/rescaled_final/0827_rv.mp4	0.0	371.1075088977814	
68	281.37518787384033	movie	1		245	66.0	2.5	/experiments/knapen_AOT/AOT_stimuli/rescaled_final/0827_rv.mp4	0.0	371.9241907596588	2.5004260540008545
68	282.15875482559204	pulse	1	t		66.0	2.5	/experiments/knapen_AOT/AOT_stimuli/rescaled_final/0827_rv.mp4	0.0	372.7077577114105	
68	283.75661993026733	pulse	1	t		66.0	2.5	/experiments/knapen_AOT/AOT_stimuli/rescaled_final/0827_rv.mp4	0.0	374.3056228160858	
68	283.8756139278412	fix_post	2		10	66.0	2.5	/experiments/knapen_AOT/AOT_stimuli/rescaled_final/0827_rv.mp4	0.0	374.42461681365967	0.09992790222167969
69	283.97554183006287	fix_pre	0		120	67.0	2.5	/experiments/knapen_AOT/AOT_stimuli/rescaled_final/2036_rv.mp4	0.0	374.52454471588135	1.000136137008667
69	284.97567796707153	movie	1		244	67.0	2.5	/experiments/knapen_AOT/AOT_stimuli/rescaled_final/2036_rv.mp4	0.0	375.52468085289	2.492034912109375
69	285.3638029098511	pulse	1	t		67.0	2.5	/experiments/knapen_AOT/AOT_stimuli/rescaled_final/2036_rv.mp4	0.0	375.91280579566956	
69	286.9595458507538	pulse	1	t		67.0	2.5	/experiments/knapen_AOT/AOT_stimuli/rescaled_final/2036_rv.mp4	0.0	377.50854873657227	
69	287.4677128791809	fix_post	2		12	67.0	2.5	/experiments/knapen_AOT/AOT_stimuli/rescaled_final/2036_rv.mp4	0.0	378.0167157649994	0.10001301765441895
70	287.5677258968353	fix_pre	0		120	68.0	2.5	/experiments/knapen_AOT/AOT_stimuli/rescaled_final/1542_fw.mp4	0.0	378.1167287826538	1.000143051147461
70	288.5597538948059	pulse	0	t		68.0	2.5	/experiments/knapen_AOT/AOT_stimuli/rescaled_final/1542_fw.mp4	0.0	379.1087567806244	
70	288.5678689479828	movie	1		245	68.0	2.5	/experiments/knapen_AOT/AOT_stimuli/rescaled_final/1542_fw.mp4	0.0	379.11687183380127	2.508699893951416
70	290.1608648300171	pulse	1	t		68.0	2.5	/experiments/knapen_AOT/AOT_stimuli/rescaled_final/1542_fw.mp4	0.0	380.70986771583557	
70	291.0765688419342	fix_post	2		12	68.0	2.5	/experiments/knapen_AOT/AOT_stimuli/rescaled_final/1542_fw.mp4	0.0	381.6255717277527	0.10005307197570801
71	291.1766219139099	fix_pre	0		120	69.0	2.5	/experiments/knapen_AOT/AOT_stimuli/rescaled_final/0798_rv.mp4	0.0	381.7256247997284	1.0001420974731445
71	291.7602479457855	pulse	0	t		69.0	2.5	/experiments/knapen_AOT/AOT_stimuli/rescaled_final/0798_rv.mp4	0.0	382.309250831604	
71	292.17676401138306	movie	1		243	69.0	2.5	/experiments/knapen_AOT/AOT_stimuli/rescaled_final/0798_rv.mp4	0.0	382.72576689720154	2.500358819961548
71	293.36052894592285	pulse	1	t		69.0	2.5	/experiments/knapen_AOT/AOT_stimuli/rescaled_final/0798_rv.mp4	0.0	383.90953183174133	
71	294.6771228313446	fix_post	2		12	69.0	2.5	/experiments/knapen_AOT/AOT_stimuli/rescaled_final/0798_rv.mp4	0.0	385.2261257171631	0.10003209114074707
72	294.77715492248535	fix_pre	0		120	70.0	2.5	blank	1.0	385.32615780830383	1.0001819133758545
72	294.96071887016296	pulse	0	t		70.0	2.5	blank	1.0	385.50972175598145	
72	295.7773368358612	movie	1		300	70.0	2.5	blank	1.0	386.3263397216797	2.500352144241333
72	296.560861825943	pulse	1	t		70.0	2.5	blank	1.0	387.1098647117615	
72	298.16123485565186	pulse	1	t		70.0	2.5	blank	1.0	388.71023774147034	
72	298.27768898010254	fix_post	2		12	70.0	2.5	blank	1.0	388.826691865921	0.09999489784240723
73	298.37768387794495	fix_pre	0		120	71.0	2.5	/experiments/knapen_AOT/AOT_stimuli/rescaled_final/0835_fw.mp4	0.0	388.9266867637634	1.0001380443572998
73	299.37782192230225	movie	1		243	71.0	2.5	/experiments/knapen_AOT/AOT_stimuli/rescaled_final/0835_fw.mp4	0.0	389.9268248081207	2.492039918899536
73	299.7621068954468	pulse	1	t		71.0	2.5	/experiments/knapen_AOT/AOT_stimuli/rescaled_final/0835_fw.mp4	0.0	390.31110978126526	
73	301.36168479919434	pulse	1	t		71.0	2.5	/experiments/knapen_AOT/AOT_stimuli/rescaled_final/0835_fw.mp4	0.0	391.9106876850128	
73	301.8698618412018	fix_post	2		12	71.0	2.5	/experiments/knapen_AOT/AOT_stimuli/rescaled_final/0835_fw.mp4	0.0	392.41886472702026	0.10001897811889648
74	301.9698808193207	fix_pre	0		120	72.0	2.5	/experiments/knapen_AOT/AOT_stimuli/rescaled_final/1253_rv.mp4	0.0	392.51888370513916	1.000256061553955
74	302.96195697784424	pulse	0	t		72.0	2.5	/experiments/knapen_AOT/AOT_stimuli/rescaled_final/1253_rv.mp4	0.0	393.5109598636627	
74	302.97013688087463	movie	1		246	72.0	2.5	/experiments/knapen_AOT/AOT_stimuli/rescaled_final/1253_rv.mp4	0.0	393.5191397666931	2.5086100101470947
74	304.56352496147156	pulse	1	t		72.0	2.5	/experiments/knapen_AOT/AOT_stimuli/rescaled_final/1253_rv.mp4	0.0	395.11252784729004	
74	305.47874689102173	fix_post	2		12	72.0	2.5	/experiments/knapen_AOT/AOT_stimuli/rescaled_final/1253_rv.mp4	0.0	396.0277497768402	0.09998512268066406
75	305.5787320137024	fix_pre	0		120	73.0	2.5	/experiments/knapen_AOT/AOT_stimuli/rescaled_final/0121_fw.mp4	0.0	396.1277348995209	1.0001800060272217
75	306.154855966568	pulse	0	t		73.0	2.5	/experiments/knapen_AOT/AOT_stimuli/rescaled_final/0121_fw.mp4	0.0	396.7038588523865	
75	306.5789120197296	movie	1		243	73.0	2.5	/experiments/knapen_AOT/AOT_stimuli/rescaled_final/0121_fw.mp4	0.0	397.1279149055481	2.500358819961548
75	307.7551507949829	pulse	1	t		73.0	2.5	/experiments/knapen_AOT/AOT_stimuli/rescaled_final/0121_fw.mp4	0.0	398.3041536808014	
75	309.07927083969116	fix_post	2		12	73.0	2.5	/experiments/knapen_AOT/AOT_stimuli/rescaled_final/0121_fw.mp4	0.0	399.62827372550964	0.10004615783691406
76	309.1793169975281	fix_pre	0		120	74.0	2.5	/experiments/knapen_AOT/AOT_stimuli/rescaled_final/1183_fw.mp4	0.0	399.72831988334656	1.000147819519043
76	309.3552939891815	pulse	0	t		74.0	2.5	/experiments/knapen_AOT/AOT_stimuli/rescaled_final/1183_fw.mp4	0.0	399.904296875	
76	310.1794648170471	movie	1		244	74.0	2.5	/experiments/knapen_AOT/AOT_stimuli/rescaled_final/1183_fw.mp4	0.0	400.7284677028656	2.50032901763916
76	310.9557659626007	pulse	1	t		74.0	2.5	/experiments/knapen_AOT/AOT_stimuli/rescaled_final/1183_fw.mp4	0.0	401.5047688484192	
76	312.5551450252533	pulse	1	t		74.0	2.5	/experiments/knapen_AOT/AOT_stimuli/rescaled_final/1183_fw.mp4	0.0	403.1041479110718	
76	312.6797938346863	fix_post	2		12	74.0	2.5	/experiments/knapen_AOT/AOT_stimuli/rescaled_final/1183_fw.mp4	0.0	403.22879672050476	0.10002899169921875
77	312.7798228263855	fix_pre	0		120	75.0	2.5	/experiments/knapen_AOT/AOT_stimuli/rescaled_final/1350_fw.mp4	0.0	403.328825712204	1.0001261234283447
77	313.77994894981384	movie	1		243	75.0	2.5	/experiments/knapen_AOT/AOT_stimuli/rescaled_final/1350_fw.mp4	0.0	404.3289518356323	2.4920530319213867
77	314.155170917511	pulse	1	t		75.0	2.5	/experiments/knapen_AOT/AOT_stimuli/rescaled_final/1350_fw.mp4	0.0	404.70417380332947	
77	315.7554910182953	pulse	1	t		75.0	2.5	/experiments/knapen_AOT/AOT_stimuli/rescaled_final/1350_fw.mp4	0.0	406.30449390411377	
77	316.27200198173523	fix_post	2		12	75.0	2.5	/experiments/knapen_AOT/AOT_stimuli/rescaled_final/1350_fw.mp4	0.0	406.8210048675537	0.10004496574401855
78	316.37204694747925	fix_pre	0		119	76.0	2.5	/experiments/knapen_AOT/AOT_stimuli/rescaled_final/0245_rv.mp4	0.0	406.92104983329773	0.9917809963226318
78	317.35578989982605	pulse	0	t		76.0	2.5	/experiments/knapen_AOT/AOT_stimuli/rescaled_final/0245_rv.mp4	0.0	407.90479278564453	
78	317.3638279438019	movie	1		245	76.0	2.5	/experiments/knapen_AOT/AOT_stimuli/rescaled_final/0245_rv.mp4	0.0	407.91283082962036	2.5087149143218994
78	318.95656991004944	pulse	1	t		76.0	2.5	/experiments/knapen_AOT/AOT_stimuli/rescaled_final/0245_rv.mp4	0.0	409.5055727958679	
78	319.8725428581238	fix_post	2		12	76.0	2.5	/experiments/knapen_AOT/AOT_stimuli/rescaled_final/0245_rv.mp4	0.0	410.42154574394226	0.10004496574401855
79	319.9725878238678	fix_pre	0		120	77.0	2.5	blank	1.0	410.5215907096863	1.000195026397705
79	320.55623602867126	pulse	0	t		77.0	2.5	blank	1.0	411.10523891448975	
79	320.9727828502655	movie	1		300	77.0	2.5	blank	1.0	411.521785736084	2.5003340244293213
79	322.15637588500977	pulse	1	t		77.0	2.5	blank	1.0	412.70537877082825	
79	323.4731168746948	fix_post	2		12	77.0	2.5	blank	1.0	414.0221197605133	0.09998893737792969
80	323.57310581207275	fix_pre	0		120	78.0	2.5	/experiments/knapen_AOT/AOT_stimuli/rescaled_final/0885_fw.mp4	0.0	414.12210869789124	1.0001420974731445
80	323.7566428184509	pulse	0	t		78.0	2.5	/experiments/knapen_AOT/AOT_stimuli/rescaled_final/0885_fw.mp4	0.0	414.3056457042694	
80	324.5732479095459	movie	1		243	78.0	2.5	/experiments/knapen_AOT/AOT_stimuli/rescaled_final/0885_fw.mp4	0.0	415.1222507953644	2.5003409385681152
80	325.3570308685303	pulse	1	t		78.0	2.5	/experiments/knapen_AOT/AOT_stimuli/rescaled_final/0885_fw.mp4	0.0	415.90603375434875	
80	326.95711398124695	pulse	1	t		78.0	2.5	/experiments/knapen_AOT/AOT_stimuli/rescaled_final/0885_fw.mp4	0.0	417.50611686706543	
80	327.073588848114	fix_post	2		12	78.0	2.5	/experiments/knapen_AOT/AOT_stimuli/rescaled_final/0885_fw.mp4	0.0	417.6225917339325	0.10011601448059082
81	327.1737048625946	fix_pre	0		120	79.0	2.5	/experiments/knapen_AOT/AOT_stimuli/rescaled_final/1643_rv.mp4	0.0	417.7227077484131	1.0001449584960938
81	328.1738498210907	movie	1		242	79.0	2.5	/experiments/knapen_AOT/AOT_stimuli/rescaled_final/1643_rv.mp4	0.0	418.7228527069092	2.4920060634613037
81	328.55778980255127	pulse	1	t		79.0	2.5	/experiments/knapen_AOT/AOT_stimuli/rescaled_final/1643_rv.mp4	0.0	419.10679268836975	
81	330.15756392478943	pulse	1	t		79.0	2.5	/experiments/knapen_AOT/AOT_stimuli/rescaled_final/1643_rv.mp4	0.0	420.7065668106079	
81	330.665855884552	fix_post	2		12	79.0	2.5	/experiments/knapen_AOT/AOT_stimuli/rescaled_final/1643_rv.mp4	0.0	421.2148587703705	0.09999895095825195
82	330.76585483551025	fix_pre	0		120	80.0	2.5	/experiments/knapen_AOT/AOT_stimuli/rescaled_final/1016_rv.mp4	0.0	421.31485772132874	1.0001540184020996
82	331.7579050064087	pulse	0	t		80.0	2.5	/experiments/knapen_AOT/AOT_stimuli/rescaled_final/1016_rv.mp4	0.0	422.3069078922272	
82	331.76600885391235	movie	1		245	80.0	2.5	/experiments/knapen_AOT/AOT_stimuli/rescaled_final/1016_rv.mp4	0.0	422.31501173973083	2.508713960647583
82	333.3586959838867	pulse	1	t		80.0	2.5	/experiments/knapen_AOT/AOT_stimuli/rescaled_final/1016_rv.mp4	0.0	423.9076988697052	
82	334.27472281455994	fix_post	2		12	80.0	2.5	/experiments/knapen_AOT/AOT_stimuli/rescaled_final/1016_rv.mp4	0.0	424.8237257003784	0.10035920143127441
83	334.3750820159912	fix_pre	0		120	81.0	2.5	/experiments/knapen_AOT/AOT_stimuli/rescaled_final/0369_rv.mp4	0.0	424.9240849018097	0.9998459815979004
83	334.9583899974823	pulse	0	t		81.0	2.5	/experiments/knapen_AOT/AOT_stimuli/rescaled_final/0369_rv.mp4	0.0	425.5073928833008	
83	335.3749279975891	movie	1		244	81.0	2.5	/experiments/knapen_AOT/AOT_stimuli/rescaled_final/0369_rv.mp4	0.0	425.9239308834076	2.500290870666504
83	336.5586597919464	pulse	1	t		81.0	2.5	/experiments/knapen_AOT/AOT_stimuli/rescaled_final/0369_rv.mp4	0.0	427.1076626777649	
83	337.8752188682556	fix_post	2		12	81.0	2.5	/experiments/knapen_AOT/AOT_stimuli/rescaled_final/0369_rv.mp4	0.0	428.4242217540741	0.10002994537353516
84	337.97524881362915	fix_pre	0		120	82.0	2.5	/experiments/knapen_AOT/AOT_stimuli/rescaled_final/0712_fw.mp4	0.0	428.52425169944763	1.0001552104949951
84	338.1589069366455	pulse	0	t		82.0	2.5	/experiments/knapen_AOT/AOT_stimuli/rescaled_final/0712_fw.mp4	0.0	428.707909822464	
84	338.97540402412415	movie	1		244	82.0	2.5	/experiments/knapen_AOT/AOT_stimuli/rescaled_final/0712_fw.mp4	0.0	429.5244069099426	2.500363826751709
84	339.7590329647064	pulse	1	t		82.0	2.5	/experiments/knapen_AOT/AOT_stimuli/rescaled_final/0712_fw.mp4	0.0	430.3080358505249	
84	341.3570280075073	pulse	1	t		82.0	2.5	/experiments/knapen_AOT/AOT_stimuli/rescaled_final/0712_fw.mp4	0.0	431.9060308933258	
84	341.47576785087585	fix_post	2		12	82.0	2.5	/experiments/knapen_AOT/AOT_stimuli/rescaled_final/0712_fw.mp4	0.0	432.02477073669434	0.10000300407409668
85	341.57577085494995	fix_pre	0		120	83.0	2.5	blank	1.0	432.12477374076843	1.0001471042633057
85	342.57591795921326	movie	1		296	83.0	2.5	blank	1.0	433.12492084503174	2.4920718669891357
85	342.95948100090027	pulse	1	t		83.0	2.5	blank	1.0	433.50848388671875	
85	344.55972385406494	pulse	1	t		83.0	2.5	blank	1.0	435.1087267398834	
85	345.0679898262024	fix_post	2		12	83.0	2.5	blank	1.0	435.6169927120209	0.10001897811889648
87	345.1680088043213	stim	0		1716					435.71701169013977	14.302247047424316
87	346.1600890159607	pulse	0	t						436.7090919017792	
87	347.7602949142456	pulse	0	t						438.3092978000641	
87	349.3604187965393	pulse	0	t						439.9094216823578	
87	350.96081280708313	pulse	0	t						441.5098156929016	
87	352.5609059333801	pulse	0	t						443.1099088191986	
87	354.1611678600311	pulse	0	t						444.7101707458496	
87	355.76133584976196	pulse	0	t						446.31033873558044	
87	357.36158895492554	pulse	0	t						447.910591840744	
87	358.9619379043579	pulse	0	t						449.5109407901764	
