trial_nr	onset	event_type	phase	response	nr_frames	movie_index	movie_duration	movie_file	blank	onset_abs	duration
0	0.1333911418914795	stim	0		483					792.1375341415405	4.033207893371582
0	4.158534049987793	response	0	space						796.1626770496368	
1	4.1665990352630615	stim	0		5686					796.1707420349121	47.3830931186676
1	51.54155111312866	pulse	0	t						843.5456941127777	
1	51.549692153930664	stim	1		1717					843.5538351535797	14.308215856552124
1	53.14153003692627	pulse	1	t						845.1456730365753	
1	54.74153399467468	pulse	1	t						846.7456769943237	
1	56.341490030288696	pulse	1	t						848.3456330299377	
1	57.94151306152344	pulse	1	t						849.9456560611725	
1	59.541558027267456	pulse	1	t						851.5457010269165	
1	61.141552209854126	pulse	1	t						853.1456952095032	
1	62.74148511886597	pulse	1	t						854.745628118515	
1	64.34145617485046	pulse	1	t						856.3455991744995	
2	65.85790801048279	fix_pre	0		11	0.0	2.5	/experiments/AOT/AOT_stimuli/rescaled_final/0547_rv.mp4	0.0	857.8620510101318	0.10085201263427734
2	65.9420120716095	pulse	0	t		0.0	2.5	/experiments/AOT/AOT_stimuli/rescaled_final/0547_rv.mp4	0.0	857.9461550712585	
2	65.95876002311707	movie	1		237	0.0	2.5	/experiments/AOT/AOT_stimuli/rescaled_final/0547_rv.mp4	0.0	857.9629030227661	2.498779058456421
2	67.54148006439209	pulse	1	t		0.0	2.5	/experiments/AOT/AOT_stimuli/rescaled_final/0547_rv.mp4	0.0	859.5456230640411	
2	68.45753908157349	fix_post	2		12	0.0	2.5	/experiments/AOT/AOT_stimuli/rescaled_final/0547_rv.mp4	0.0	860.4616820812225	0.10047507286071777
3	68.5580141544342	fix_pre	0		120	1.0	2.5	/experiments/AOT/AOT_stimuli/rescaled_final/0215_fw.mp4	0.0	860.5621571540833	0.9995298385620117
3	69.14101099967957	pulse	0	t		1.0	2.5	/experiments/AOT/AOT_stimuli/rescaled_final/0215_fw.mp4	0.0	861.1451539993286	
3	69.55754399299622	movie	1		244	1.0	2.5	/experiments/AOT/AOT_stimuli/rescaled_final/0215_fw.mp4	0.0	861.5616869926453	2.500882148742676
3	70.74198508262634	pulse	1	t		1.0	2.5	/experiments/AOT/AOT_stimuli/rescaled_final/0215_fw.mp4	0.0	862.7461280822754	
3	72.05842614173889	fix_post	2		12	1.0	2.5	/experiments/AOT/AOT_stimuli/rescaled_final/0215_fw.mp4	0.0	864.0625691413879	0.09954285621643066
4	72.15796899795532	fix_pre	0		120	2.0	2.5	/experiments/AOT/AOT_stimuli/rescaled_final/0573_fw.mp4	0.0	864.1621119976044	1.0004141330718994
4	72.34147810935974	pulse	0	t		2.0	2.5	/experiments/AOT/AOT_stimuli/rescaled_final/0573_fw.mp4	0.0	864.3456211090088	
4	73.15838313102722	movie	1		247	2.0	2.5	/experiments/AOT/AOT_stimuli/rescaled_final/0573_fw.mp4	0.0	865.1625261306763	2.4991629123687744
4	73.94099020957947	pulse	1	t		2.0	2.5	/experiments/AOT/AOT_stimuli/rescaled_final/0573_fw.mp4	0.0	865.9451332092285	
4	75.53742718696594	pulse	1	t		2.0	2.5	/experiments/AOT/AOT_stimuli/rescaled_final/0573_fw.mp4	0.0	867.541570186615	
4	75.657546043396	fix_post	2		12	2.0	2.5	/experiments/AOT/AOT_stimuli/rescaled_final/0573_fw.mp4	0.0	867.661689043045	0.10041999816894531
5	75.75796604156494	fix_pre	0		120	3.0	2.5	/experiments/AOT/AOT_stimuli/rescaled_final/0441_rv.mp4	0.0	867.762109041214	1.000364065170288
5	76.75833010673523	movie	1		243	3.0	2.5	/experiments/AOT/AOT_stimuli/rescaled_final/0441_rv.mp4	0.0	868.7624731063843	2.5000739097595215
5	77.1409101486206	pulse	1	t		3.0	2.5	/experiments/AOT/AOT_stimuli/rescaled_final/0441_rv.mp4	0.0	869.1450531482697	
5	78.7413580417633	pulse	1	t		3.0	2.5	/experiments/AOT/AOT_stimuli/rescaled_final/0441_rv.mp4	0.0	870.7455010414124	
5	79.25840401649475	fix_post	2		12	3.0	2.5	/experiments/AOT/AOT_stimuli/rescaled_final/0441_rv.mp4	0.0	871.2625470161438	0.0995171070098877
6	79.35792112350464	fix_pre	0		119	4.0	2.5	/experiments/AOT/AOT_stimuli/rescaled_final/1597_fw.mp4	0.0	871.3620641231537	0.9925520420074463
6	80.34183120727539	pulse	0	t		4.0	2.5	/experiments/AOT/AOT_stimuli/rescaled_final/1597_fw.mp4	0.0	872.3459742069244	
6	80.35047316551208	movie	1		244	4.0	2.5	/experiments/AOT/AOT_stimuli/rescaled_final/1597_fw.mp4	0.0	872.3546161651611	2.507906913757324
6	81.94127798080444	pulse	1	t		4.0	2.5	/experiments/AOT/AOT_stimuli/rescaled_final/1597_fw.mp4	0.0	873.9454209804535	
6	82.85838007926941	fix_post	2		12	4.0	2.5	/experiments/AOT/AOT_stimuli/rescaled_final/1597_fw.mp4	0.0	874.8625230789185	0.09948992729187012
7	82.95787000656128	fix_pre	0		120	5.0	2.5	/experiments/AOT/AOT_stimuli/rescaled_final/0168_rv.mp4	0.0	874.9620130062103	1.0005640983581543
7	83.54184818267822	pulse	0	t		5.0	2.5	/experiments/AOT/AOT_stimuli/rescaled_final/0168_rv.mp4	0.0	875.5459911823273	
7	83.95843410491943	movie	1		243	5.0	2.5	/experiments/AOT/AOT_stimuli/rescaled_final/0168_rv.mp4	0.0	875.9625771045685	2.4999051094055176
7	85.14195203781128	pulse	1	t		5.0	2.5	/experiments/AOT/AOT_stimuli/rescaled_final/0168_rv.mp4	0.0	877.1460950374603	
7	86.45833921432495	fix_post	2		12	5.0	2.5	/experiments/AOT/AOT_stimuli/rescaled_final/0168_rv.mp4	0.0	878.462482213974	0.09956192970275879
8	86.55790114402771	fix_pre	0		120	6.0	2.5	blank	1.0	878.5620441436768	1.0005738735198975
8	86.74142408370972	pulse	0	t		6.0	2.5	blank	1.0	878.7455670833588	
8	87.55847501754761	movie	1		300	6.0	2.5	blank	1.0	879.5626180171967	2.4993860721588135
8	88.34095907211304	pulse	1	t		6.0	2.5	blank	1.0	880.3451020717621	
8	89.94091606140137	pulse	1	t		6.0	2.5	blank	1.0	881.9450590610504	
8	90.05786108970642	fix_post	2		12	6.0	2.5	blank	1.0	882.0620040893555	0.10053396224975586
9	90.15839505195618	fix_pre	0		120	7.0	2.5	/experiments/AOT/AOT_stimuli/rescaled_final/1706_fw.mp4	0.0	882.1625380516052	1.0004119873046875
9	91.15880703926086	movie	1		245	7.0	2.5	/experiments/AOT/AOT_stimuli/rescaled_final/1706_fw.mp4	0.0	883.1629500389099	2.4994521141052246
9	91.54086208343506	pulse	1	t		7.0	2.5	/experiments/AOT/AOT_stimuli/rescaled_final/1706_fw.mp4	0.0	883.5450050830841	
9	93.14118313789368	pulse	1	t		7.0	2.5	/experiments/AOT/AOT_stimuli/rescaled_final/1706_fw.mp4	0.0	885.1453261375427	
9	93.65825915336609	fix_post	2		12	7.0	2.5	/experiments/AOT/AOT_stimuli/rescaled_final/1706_fw.mp4	0.0	885.6624021530151	0.0995779037475586
10	93.75783705711365	fix_pre	0		119	8.0	2.5	/experiments/AOT/AOT_stimuli/rescaled_final/0768_fw.mp4	0.0	885.7619800567627	0.9921650886535645
10	94.74185299873352	pulse	0	t		8.0	2.5	/experiments/AOT/AOT_stimuli/rescaled_final/0768_fw.mp4	0.0	886.7459959983826	
10	94.75000214576721	movie	1		246	8.0	2.5	/experiments/AOT/AOT_stimuli/rescaled_final/0768_fw.mp4	0.0	886.7541451454163	2.5078999996185303
10	96.34097099304199	pulse	1	t		8.0	2.5	/experiments/AOT/AOT_stimuli/rescaled_final/0768_fw.mp4	0.0	888.345113992691	
10	97.25790214538574	fix_post	2		12	8.0	2.5	/experiments/AOT/AOT_stimuli/rescaled_final/0768_fw.mp4	0.0	889.2620451450348	0.10000085830688477
11	97.35790300369263	fix_pre	0		120	9.0	2.5	/experiments/AOT/AOT_stimuli/rescaled_final/1836_rv.mp4	0.0	889.3620460033417	1.000845193862915
11	97.94183897972107	pulse	0	t		9.0	2.5	/experiments/AOT/AOT_stimuli/rescaled_final/1836_rv.mp4	0.0	889.9459819793701	
11	98.35874819755554	movie	1		245	9.0	2.5	/experiments/AOT/AOT_stimuli/rescaled_final/1836_rv.mp4	0.0	890.3628911972046	2.5000429153442383
11	99.54223799705505	pulse	1	t		9.0	2.5	/experiments/AOT/AOT_stimuli/rescaled_final/1836_rv.mp4	0.0	891.5463809967041	
11	100.85879111289978	fix_post	2		12	9.0	2.5	/experiments/AOT/AOT_stimuli/rescaled_final/1836_rv.mp4	0.0	892.8629341125488	0.0990290641784668
12	100.95782017707825	fix_pre	0		120	10.0	2.5	/experiments/AOT/AOT_stimuli/rescaled_final/2047_fw.mp4	0.0	892.9619631767273	1.000398874282837
12	101.14130711555481	pulse	0	t		10.0	2.5	/experiments/AOT/AOT_stimuli/rescaled_final/2047_fw.mp4	0.0	893.1454501152039	
12	101.95821905136108	movie	1		245	10.0	2.5	/experiments/AOT/AOT_stimuli/rescaled_final/2047_fw.mp4	0.0	893.9623620510101	2.500051975250244
12	102.74173307418823	pulse	1	t		10.0	2.5	/experiments/AOT/AOT_stimuli/rescaled_final/2047_fw.mp4	0.0	894.7458760738373	
12	104.33731317520142	pulse	1	t		10.0	2.5	/experiments/AOT/AOT_stimuli/rescaled_final/2047_fw.mp4	0.0	896.3414561748505	
12	104.45827102661133	fix_post	2		12	10.0	2.5	/experiments/AOT/AOT_stimuli/rescaled_final/2047_fw.mp4	0.0	896.4624140262604	0.09951496124267578
13	104.557785987854	fix_pre	0		120	11.0	2.5	/experiments/AOT/AOT_stimuli/rescaled_final/1126_rv.mp4	0.0	896.561928987503	1.0008041858673096
13	105.55859017372131	movie	1		246	11.0	2.5	/experiments/AOT/AOT_stimuli/rescaled_final/1126_rv.mp4	0.0	897.5627331733704	2.4987199306488037
13	105.94235610961914	pulse	1	t		11.0	2.5	/experiments/AOT/AOT_stimuli/rescaled_final/1126_rv.mp4	0.0	897.9464991092682	
13	107.54141116142273	pulse	1	t		11.0	2.5	/experiments/AOT/AOT_stimuli/rescaled_final/1126_rv.mp4	0.0	899.5455541610718	
13	108.05731010437012	fix_post	2		12	11.0	2.5	/experiments/AOT/AOT_stimuli/rescaled_final/1126_rv.mp4	0.0	900.0614531040192	0.1004331111907959
14	108.15774321556091	fix_pre	0		119	12.0	2.5	blank	1.0	900.16188621521	0.9921839237213135
14	109.1420681476593	pulse	0	t		12.0	2.5	blank	1.0	901.1462111473083	
14	109.14992713928223	movie	1		301	12.0	2.5	blank	1.0	901.1540701389313	2.507767915725708
14	110.74149298667908	pulse	1	t		12.0	2.5	blank	1.0	902.7456359863281	
14	111.65769505500793	fix_post	2		12	12.0	2.5	blank	1.0	903.661838054657	0.10055899620056152
15	111.7582540512085	fix_pre	0		120	13.0	2.5	/experiments/AOT/AOT_stimuli/rescaled_final/1276_fw.mp4	0.0	903.7623970508575	0.9998641014099121
15	112.34204602241516	pulse	0	t		13.0	2.5	/experiments/AOT/AOT_stimuli/rescaled_final/1276_fw.mp4	0.0	904.3461890220642	
15	112.75811815261841	movie	1		243	13.0	2.5	/experiments/AOT/AOT_stimuli/rescaled_final/1276_fw.mp4	0.0	904.7622611522675	2.4997289180755615
15	113.9412841796875	pulse	1	t		13.0	2.5	/experiments/AOT/AOT_stimuli/rescaled_final/1276_fw.mp4	0.0	905.9454271793365	
15	115.25784707069397	fix_post	2		12	13.0	2.5	/experiments/AOT/AOT_stimuli/rescaled_final/1276_fw.mp4	0.0	907.261990070343	0.09993505477905273
16	115.35778212547302	fix_pre	0		120	14.0	2.5	/experiments/AOT/AOT_stimuli/rescaled_final/1036_rv.mp4	0.0	907.3619251251221	0.9999539852142334
16	115.54121208190918	pulse	0	t		14.0	2.5	/experiments/AOT/AOT_stimuli/rescaled_final/1036_rv.mp4	0.0	907.5453550815582	
16	116.35773611068726	movie	1		243	14.0	2.5	/experiments/AOT/AOT_stimuli/rescaled_final/1036_rv.mp4	0.0	908.3618791103363	2.5000200271606445
16	117.14206409454346	pulse	1	t		14.0	2.5	/experiments/AOT/AOT_stimuli/rescaled_final/1036_rv.mp4	0.0	909.1462070941925	
16	118.73954510688782	pulse	1	t		14.0	2.5	/experiments/AOT/AOT_stimuli/rescaled_final/1036_rv.mp4	0.0	910.7436881065369	
16	118.8577561378479	fix_post	2		12	14.0	2.5	/experiments/AOT/AOT_stimuli/rescaled_final/1036_rv.mp4	0.0	910.861899137497	0.10005998611450195
17	118.9578161239624	fix_pre	0		120	15.0	2.5	/experiments/AOT/AOT_stimuli/rescaled_final/0161_fw.mp4	0.0	910.9619591236115	1.0003008842468262
17	119.95811700820923	movie	1		245	15.0	2.5	/experiments/AOT/AOT_stimuli/rescaled_final/0161_fw.mp4	0.0	911.9622600078583	2.5000240802764893
17	120.3408031463623	pulse	1	t		15.0	2.5	/experiments/AOT/AOT_stimuli/rescaled_final/0161_fw.mp4	0.0	912.3449461460114	
17	121.94116711616516	pulse	1	t		15.0	2.5	/experiments/AOT/AOT_stimuli/rescaled_final/0161_fw.mp4	0.0	913.9453101158142	
17	122.45814108848572	fix_post	2		12	15.0	2.5	/experiments/AOT/AOT_stimuli/rescaled_final/0161_fw.mp4	0.0	914.4622840881348	0.09952497482299805
18	122.55766606330872	fix_pre	0		119	16.0	2.5	/experiments/AOT/AOT_stimuli/rescaled_final/0929_fw.mp4	0.0	914.5618090629578	0.9921591281890869
18	123.54177808761597	pulse	0	t		16.0	2.5	/experiments/AOT/AOT_stimuli/rescaled_final/0929_fw.mp4	0.0	915.545921087265	
18	123.5498251914978	movie	1		247	16.0	2.5	/experiments/AOT/AOT_stimuli/rescaled_final/0929_fw.mp4	0.0	915.5539681911469	2.507828950881958
18	125.14085006713867	pulse	1	t		16.0	2.5	/experiments/AOT/AOT_stimuli/rescaled_final/0929_fw.mp4	0.0	917.1449930667877	
18	126.05765414237976	fix_post	2		12	16.0	2.5	/experiments/AOT/AOT_stimuli/rescaled_final/0929_fw.mp4	0.0	918.0617971420288	0.10007596015930176
19	126.15773010253906	fix_pre	0		120	17.0	2.5	/experiments/AOT/AOT_stimuli/rescaled_final/1164_fw.mp4	0.0	918.1618731021881	1.0001459121704102
19	126.74256706237793	pulse	0	t		17.0	2.5	/experiments/AOT/AOT_stimuli/rescaled_final/1164_fw.mp4	0.0	918.746710062027	
19	127.15787601470947	movie	1		243	17.0	2.5	/experiments/AOT/AOT_stimuli/rescaled_final/1164_fw.mp4	0.0	919.1620190143585	2.499904155731201
19	128.3408100605011	pulse	1	t		17.0	2.5	/experiments/AOT/AOT_stimuli/rescaled_final/1164_fw.mp4	0.0	920.3449530601501	
19	129.65778017044067	fix_post	2		12	17.0	2.5	/experiments/AOT/AOT_stimuli/rescaled_final/1164_fw.mp4	0.0	921.6619231700897	0.09983682632446289
20	129.75761699676514	fix_pre	0		120	18.0	2.5	/experiments/AOT/AOT_stimuli/rescaled_final/0986_fw.mp4	0.0	921.7617599964142	1.0001120567321777
20	129.94107913970947	pulse	0	t		18.0	2.5	/experiments/AOT/AOT_stimuli/rescaled_final/0986_fw.mp4	0.0	921.9452221393585	
20	130.75772905349731	movie	1		244	18.0	2.5	/experiments/AOT/AOT_stimuli/rescaled_final/0986_fw.mp4	0.0	922.7618720531464	2.499547004699707
20	131.5411970615387	pulse	1	t		18.0	2.5	/experiments/AOT/AOT_stimuli/rescaled_final/0986_fw.mp4	0.0	923.5453400611877	
20	133.13716316223145	pulse	1	t		18.0	2.5	/experiments/AOT/AOT_stimuli/rescaled_final/0986_fw.mp4	0.0	925.1413061618805	
20	133.25727605819702	fix_post	2		12	18.0	2.5	/experiments/AOT/AOT_stimuli/rescaled_final/0986_fw.mp4	0.0	925.2614190578461	0.10043096542358398
21	133.3577070236206	fix_pre	0		120	19.0	2.5	/experiments/AOT/AOT_stimuli/rescaled_final/1019_rv.mp4	0.0	925.3618500232697	1.0000371932983398
21	134.35774421691895	movie	1		245	19.0	2.5	/experiments/AOT/AOT_stimuli/rescaled_final/1019_rv.mp4	0.0	926.361887216568	2.4998738765716553
21	134.74080801010132	pulse	1	t		19.0	2.5	/experiments/AOT/AOT_stimuli/rescaled_final/1019_rv.mp4	0.0	926.7449510097504	
21	136.34115600585938	pulse	1	t		19.0	2.5	/experiments/AOT/AOT_stimuli/rescaled_final/1019_rv.mp4	0.0	928.3452990055084	
21	136.8576180934906	fix_post	2		12	19.0	2.5	/experiments/AOT/AOT_stimuli/rescaled_final/1019_rv.mp4	0.0	928.8617610931396	0.1000680923461914
22	136.9576861858368	fix_pre	0		119	20.0	2.5	blank	1.0	928.9618291854858	0.9916539192199707
22	137.94072318077087	pulse	0	t		20.0	2.5	blank	1.0	929.9448661804199	
22	137.94934010505676	movie	1		301	20.0	2.5	blank	1.0	929.9534831047058	2.5083019733428955
22	139.5411241054535	pulse	1	t		20.0	2.5	blank	1.0	931.5452671051025	
22	140.45764207839966	fix_post	2		12	20.0	2.5	blank	1.0	932.4617850780487	0.1009209156036377
23	140.5585629940033	fix_pre	0		120	21.0	2.5	/experiments/AOT/AOT_stimuli/rescaled_final/1041_rv.mp4	0.0	932.5627059936523	0.999561071395874
23	141.14070916175842	pulse	0	t		21.0	2.5	/experiments/AOT/AOT_stimuli/rescaled_final/1041_rv.mp4	0.0	933.1448521614075	
23	141.55812406539917	movie	1		243	21.0	2.5	/experiments/AOT/AOT_stimuli/rescaled_final/1041_rv.mp4	0.0	933.5622670650482	2.500347137451172
23	142.7406849861145	pulse	1	t		21.0	2.5	/experiments/AOT/AOT_stimuli/rescaled_final/1041_rv.mp4	0.0	934.7448279857635	
23	144.05847120285034	fix_post	2		12	21.0	2.5	/experiments/AOT/AOT_stimuli/rescaled_final/1041_rv.mp4	0.0	936.0626142024994	0.09922981262207031
24	144.1577010154724	fix_pre	0		120	22.0	2.5	/experiments/AOT/AOT_stimuli/rescaled_final/1052_fw.mp4	0.0	936.1618440151215	0.9999780654907227
24	144.3412070274353	pulse	0	t		22.0	2.5	/experiments/AOT/AOT_stimuli/rescaled_final/1052_fw.mp4	0.0	936.3453500270844	
24	145.15767908096313	movie	1		244	22.0	2.5	/experiments/AOT/AOT_stimuli/rescaled_final/1052_fw.mp4	0.0	937.1618220806122	2.500481128692627
24	145.9406452178955	pulse	1	t		22.0	2.5	/experiments/AOT/AOT_stimuli/rescaled_final/1052_fw.mp4	0.0	937.9447882175446	
24	147.539391040802	pulse	1	t		22.0	2.5	/experiments/AOT/AOT_stimuli/rescaled_final/1052_fw.mp4	0.0	939.543534040451	
24	147.65816020965576	fix_post	2		12	22.0	2.5	/experiments/AOT/AOT_stimuli/rescaled_final/1052_fw.mp4	0.0	939.6623032093048	0.09913277626037598
25	147.75729298591614	fix_pre	0		120	23.0	2.5	/experiments/AOT/AOT_stimuli/rescaled_final/1055_fw.mp4	0.0	939.7614359855652	1.0005981922149658
25	148.7578911781311	movie	1		243	23.0	2.5	/experiments/AOT/AOT_stimuli/rescaled_final/1055_fw.mp4	0.0	940.7620341777802	2.500653028488159
25	149.14067220687866	pulse	1	t		23.0	2.5	/experiments/AOT/AOT_stimuli/rescaled_final/1055_fw.mp4	0.0	941.1448152065277	
25	150.7410750389099	pulse	1	t		23.0	2.5	/experiments/AOT/AOT_stimuli/rescaled_final/1055_fw.mp4	0.0	942.745218038559	
25	151.25854420661926	fix_post	2		12	23.0	2.5	/experiments/AOT/AOT_stimuli/rescaled_final/1055_fw.mp4	0.0	943.2626872062683	0.09909892082214355
26	151.3576431274414	fix_pre	0		119	24.0	2.5	/experiments/AOT/AOT_stimuli/rescaled_final/1283_rv.mp4	0.0	943.3617861270905	0.9920520782470703
26	152.34063506126404	pulse	0	t		24.0	2.5	/experiments/AOT/AOT_stimuli/rescaled_final/1283_rv.mp4	0.0	944.3447780609131	
26	152.34969520568848	movie	1		244	24.0	2.5	/experiments/AOT/AOT_stimuli/rescaled_final/1283_rv.mp4	0.0	944.3538382053375	2.507394790649414
26	153.940425157547	pulse	1	t		24.0	2.5	/experiments/AOT/AOT_stimuli/rescaled_final/1283_rv.mp4	0.0	945.944568157196	
26	154.8570899963379	fix_post	2		12	24.0	2.5	/experiments/AOT/AOT_stimuli/rescaled_final/1283_rv.mp4	0.0	946.8612329959869	0.10004901885986328
27	154.95713901519775	fix_pre	0		120	25.0	2.5	/experiments/AOT/AOT_stimuli/rescaled_final/1560_rv.mp4	0.0	946.9612820148468	1.0008361339569092
27	155.5415802001953	pulse	0	t		25.0	2.5	/experiments/AOT/AOT_stimuli/rescaled_final/1560_rv.mp4	0.0	947.5457231998444	
27	155.95797514915466	movie	1		244	25.0	2.5	/experiments/AOT/AOT_stimuli/rescaled_final/1560_rv.mp4	0.0	947.9621181488037	2.4999828338623047
27	157.14058804512024	pulse	1	t		25.0	2.5	/experiments/AOT/AOT_stimuli/rescaled_final/1560_rv.mp4	0.0	949.1447310447693	
27	158.45795798301697	fix_post	2		12	25.0	2.5	/experiments/AOT/AOT_stimuli/rescaled_final/1560_rv.mp4	0.0	950.462100982666	0.09956717491149902
28	158.55752515792847	fix_pre	0		120	26.0	2.5	/experiments/AOT/AOT_stimuli/rescaled_final/0263_fw.mp4	0.0	950.5616681575775	1.0008249282836914
28	158.74106121063232	pulse	0	t		26.0	2.5	/experiments/AOT/AOT_stimuli/rescaled_final/0263_fw.mp4	0.0	950.7452042102814	
28	159.55835008621216	movie	1		244	26.0	2.5	/experiments/AOT/AOT_stimuli/rescaled_final/0263_fw.mp4	0.0	951.5624930858612	2.4991910457611084
28	160.3405270576477	pulse	1	t		26.0	2.5	/experiments/AOT/AOT_stimuli/rescaled_final/0263_fw.mp4	0.0	952.3446700572968	
28	161.94143414497375	pulse	1	t		26.0	2.5	/experiments/AOT/AOT_stimuli/rescaled_final/0263_fw.mp4	0.0	953.9455771446228	
28	162.05754113197327	fix_post	2		12	26.0	2.5	/experiments/AOT/AOT_stimuli/rescaled_final/0263_fw.mp4	0.0	954.0616841316223	0.0999460220336914
29	162.15748715400696	fix_pre	0		120	27.0	2.5	blank	1.0	954.161630153656	1.0008628368377686
29	163.15834999084473	movie	1		300	27.0	2.5	blank	1.0	955.1624929904938	2.4992010593414307
29	163.5410120487213	pulse	1	t		27.0	2.5	blank	1.0	955.5451550483704	
29	165.14101910591125	pulse	1	t		27.0	2.5	blank	1.0	957.1451621055603	
29	165.65755105018616	fix_post	2		12	27.0	2.5	blank	1.0	957.6616940498352	0.10047006607055664
30	165.7580211162567	fix_pre	0		119	28.0	2.5	/experiments/AOT/AOT_stimuli/rescaled_final/0951_fw.mp4	0.0	957.7621641159058	0.9915828704833984
30	166.74047803878784	pulse	0	t		28.0	2.5	/experiments/AOT/AOT_stimuli/rescaled_final/0951_fw.mp4	0.0	958.7446210384369	
30	166.7496039867401	movie	1		245	28.0	2.5	/experiments/AOT/AOT_stimuli/rescaled_final/0951_fw.mp4	0.0	958.7537469863892	2.5083181858062744
30	168.34070920944214	pulse	1	t		28.0	2.5	/experiments/AOT/AOT_stimuli/rescaled_final/0951_fw.mp4	0.0	960.3448522090912	
30	169.2579221725464	fix_post	2		12	28.0	2.5	/experiments/AOT/AOT_stimuli/rescaled_final/0951_fw.mp4	0.0	961.2620651721954	0.09952402114868164
31	169.35744619369507	fix_pre	0		120	29.0	2.5	/experiments/AOT/AOT_stimuli/rescaled_final/1164_rv.mp4	0.0	961.3615891933441	1.0008718967437744
31	169.9413890838623	pulse	0	t		29.0	2.5	/experiments/AOT/AOT_stimuli/rescaled_final/1164_rv.mp4	0.0	961.9455320835114	
31	170.35831809043884	movie	1		244	29.0	2.5	/experiments/AOT/AOT_stimuli/rescaled_final/1164_rv.mp4	0.0	962.3624610900879	2.499690055847168
31	171.5414891242981	pulse	1	t		29.0	2.5	/experiments/AOT/AOT_stimuli/rescaled_final/1164_rv.mp4	0.0	963.5456321239471	
31	172.858008146286	fix_post	2		12	29.0	2.5	/experiments/AOT/AOT_stimuli/rescaled_final/1164_rv.mp4	0.0	964.8621511459351	0.09940099716186523
32	172.95740914344788	fix_pre	0		120	30.0	2.5	/experiments/AOT/AOT_stimuli/rescaled_final/1801_rv.mp4	0.0	964.9615521430969	1.0006330013275146
32	173.14096307754517	pulse	0	t		30.0	2.5	/experiments/AOT/AOT_stimuli/rescaled_final/1801_rv.mp4	0.0	965.1451060771942	
32	173.9580421447754	movie	1		242	30.0	2.5	/experiments/AOT/AOT_stimuli/rescaled_final/1801_rv.mp4	0.0	965.9621851444244	2.4999258518218994
32	174.74143719673157	pulse	1	t		30.0	2.5	/experiments/AOT/AOT_stimuli/rescaled_final/1801_rv.mp4	0.0	966.7455801963806	
32	176.3392791748047	pulse	1	t		30.0	2.5	/experiments/AOT/AOT_stimuli/rescaled_final/1801_rv.mp4	0.0	968.3434221744537	
32	176.4579679965973	fix_post	2		12	30.0	2.5	/experiments/AOT/AOT_stimuli/rescaled_final/1801_rv.mp4	0.0	968.4621109962463	0.09945011138916016
33	176.55741810798645	fix_pre	0		120	31.0	2.5	/experiments/AOT/AOT_stimuli/rescaled_final/0922_fw.mp4	0.0	968.5615611076355	1.0005810260772705
33	177.55799913406372	movie	1		244	31.0	2.5	/experiments/AOT/AOT_stimuli/rescaled_final/0922_fw.mp4	0.0	969.5621421337128	2.4994540214538574
33	177.94077110290527	pulse	1	t		31.0	2.5	/experiments/AOT/AOT_stimuli/rescaled_final/0922_fw.mp4	0.0	969.9449141025543	
33	179.5409619808197	pulse	1	t		31.0	2.5	/experiments/AOT/AOT_stimuli/rescaled_final/0922_fw.mp4	0.0	971.5451049804688	
33	180.05745315551758	fix_post	2		12	31.0	2.5	/experiments/AOT/AOT_stimuli/rescaled_final/0922_fw.mp4	0.0	972.0615961551666	0.10003495216369629
34	180.15748810768127	fix_pre	0		119	32.0	2.5	/experiments/AOT/AOT_stimuli/rescaled_final/1634_rv.mp4	0.0	972.1616311073303	0.9921309947967529
34	181.1415810585022	pulse	0	t		32.0	2.5	/experiments/AOT/AOT_stimuli/rescaled_final/1634_rv.mp4	0.0	973.1457240581512	
34	181.14961910247803	movie	1		246	32.0	2.5	/experiments/AOT/AOT_stimuli/rescaled_final/1634_rv.mp4	0.0	973.1537621021271	2.5078320503234863
34	182.74134802818298	pulse	1	t		32.0	2.5	/experiments/AOT/AOT_stimuli/rescaled_final/1634_rv.mp4	0.0	974.745491027832	
34	183.6574511528015	fix_post	2		12	32.0	2.5	/experiments/AOT/AOT_stimuli/rescaled_final/1634_rv.mp4	0.0	975.6615941524506	0.1000669002532959
35	183.7575180530548	fix_pre	0		120	33.0	2.5	/experiments/AOT/AOT_stimuli/rescaled_final/1085_rv.mp4	0.0	975.7616610527039	1.0004351139068604
35	184.3428041934967	pulse	0	t		33.0	2.5	/experiments/AOT/AOT_stimuli/rescaled_final/1085_rv.mp4	0.0	976.3469471931458	
35	184.75795316696167	movie	1		245	33.0	2.5	/experiments/AOT/AOT_stimuli/rescaled_final/1085_rv.mp4	0.0	976.7620961666107	2.499872922897339
35	185.9418830871582	pulse	1	t		33.0	2.5	/experiments/AOT/AOT_stimuli/rescaled_final/1085_rv.mp4	0.0	977.9460260868073	
35	187.257826089859	fix_post	2		12	33.0	2.5	/experiments/AOT/AOT_stimuli/rescaled_final/1085_rv.mp4	0.0	979.261969089508	0.09959793090820312
36	187.3574240207672	fix_pre	0		120	34.0	2.5	/experiments/AOT/AOT_stimuli/rescaled_final/0948_rv.mp4	0.0	979.3615670204163	1.0008201599121094
36	187.54093408584595	pulse	0	t		34.0	2.5	/experiments/AOT/AOT_stimuli/rescaled_final/0948_rv.mp4	0.0	979.545077085495	
36	188.35824418067932	movie	1		244	34.0	2.5	/experiments/AOT/AOT_stimuli/rescaled_final/0948_rv.mp4	0.0	980.3623871803284	2.499715805053711
36	189.14136505126953	pulse	1	t		34.0	2.5	/experiments/AOT/AOT_stimuli/rescaled_final/0948_rv.mp4	0.0	981.1455080509186	
36	190.73962903022766	pulse	1	t		34.0	2.5	/experiments/AOT/AOT_stimuli/rescaled_final/0948_rv.mp4	0.0	982.7437720298767	
36	190.85795998573303	fix_post	2		12	34.0	2.5	/experiments/AOT/AOT_stimuli/rescaled_final/0948_rv.mp4	0.0	982.8621029853821	0.09948110580444336
37	190.95744109153748	fix_pre	0		120	35.0	2.5	blank	1.0	982.9615840911865	1.0008609294891357
37	191.9583020210266	movie	1		300	35.0	2.5	blank	1.0	983.9624450206757	2.4990780353546143
37	192.34092617034912	pulse	1	t		35.0	2.5	blank	1.0	984.3450691699982	
37	193.94087409973145	pulse	1	t		35.0	2.5	blank	1.0	985.9450170993805	
37	194.45738005638123	fix_post	2		12	35.0	2.5	blank	1.0	986.4615230560303	0.10053300857543945
38	194.55791306495667	fix_pre	0		119	36.0	2.5	/experiments/AOT/AOT_stimuli/rescaled_final/0485_rv.mp4	0.0	986.5620560646057	0.9915850162506104
38	195.5415780544281	pulse	0	t		36.0	2.5	/experiments/AOT/AOT_stimuli/rescaled_final/0485_rv.mp4	0.0	987.5457210540771	
38	195.54949808120728	movie	1		244	36.0	2.5	/experiments/AOT/AOT_stimuli/rescaled_final/0485_rv.mp4	0.0	987.5536410808563	2.508312940597534
38	197.1422860622406	pulse	1	t		36.0	2.5	/experiments/AOT/AOT_stimuli/rescaled_final/0485_rv.mp4	0.0	989.1464290618896	
38	198.0578110218048	fix_post	2		12	36.0	2.5	/experiments/AOT/AOT_stimuli/rescaled_final/0485_rv.mp4	0.0	990.0619540214539	0.09952902793884277
39	198.15734004974365	fix_pre	0		120	37.0	2.5	/experiments/AOT/AOT_stimuli/rescaled_final/0396_rv.mp4	0.0	990.1614830493927	1.0009920597076416
39	198.74134421348572	pulse	0	t		37.0	2.5	/experiments/AOT/AOT_stimuli/rescaled_final/0396_rv.mp4	0.0	990.7454872131348	
39	199.1583321094513	movie	1		244	37.0	2.5	/experiments/AOT/AOT_stimuli/rescaled_final/0396_rv.mp4	0.0	991.1624751091003	2.4991209506988525
39	200.3417820930481	pulse	1	t		37.0	2.5	/experiments/AOT/AOT_stimuli/rescaled_final/0396_rv.mp4	0.0	992.3459250926971	
39	201.65745306015015	fix_post	2		12	37.0	2.5	/experiments/AOT/AOT_stimuli/rescaled_final/0396_rv.mp4	0.0	993.6615960597992	0.0999290943145752
40	201.75738215446472	fix_pre	0		120	38.0	2.5	/experiments/AOT/AOT_stimuli/rescaled_final/0067_rv.mp4	0.0	993.7615251541138	1.0004329681396484
40	201.94040417671204	pulse	0	t		38.0	2.5	/experiments/AOT/AOT_stimuli/rescaled_final/0067_rv.mp4	0.0	993.9445471763611	
40	202.75781512260437	movie	1		243	38.0	2.5	/experiments/AOT/AOT_stimuli/rescaled_final/0067_rv.mp4	0.0	994.7619581222534	2.4999120235443115
40	203.54134917259216	pulse	1	t		38.0	2.5	/experiments/AOT/AOT_stimuli/rescaled_final/0067_rv.mp4	0.0	995.5454921722412	
40	205.1367871761322	pulse	1	t		38.0	2.5	/experiments/AOT/AOT_stimuli/rescaled_final/0067_rv.mp4	0.0	997.1409301757812	
40	205.25772714614868	fix_post	2		12	38.0	2.5	/experiments/AOT/AOT_stimuli/rescaled_final/0067_rv.mp4	0.0	997.2618701457977	0.0995638370513916
41	205.35729098320007	fix_pre	0		120	39.0	2.5	/experiments/AOT/AOT_stimuli/rescaled_final/1560_fw.mp4	0.0	997.3614339828491	1.0001201629638672
41	206.35741114616394	movie	1		246	39.0	2.5	/experiments/AOT/AOT_stimuli/rescaled_final/1560_fw.mp4	0.0	998.361554145813	2.500417947769165
41	206.740709066391	pulse	1	t		39.0	2.5	/experiments/AOT/AOT_stimuli/rescaled_final/1560_fw.mp4	0.0	998.74485206604	
41	208.34072613716125	pulse	1	t		39.0	2.5	/experiments/AOT/AOT_stimuli/rescaled_final/1560_fw.mp4	0.0	1000.3448691368103	
41	208.8578290939331	fix_post	2		12	39.0	2.5	/experiments/AOT/AOT_stimuli/rescaled_final/1560_fw.mp4	0.0	1000.8619720935822	0.09952998161315918
42	208.95735907554626	fix_pre	0		119	40.0	2.5	blank	1.0	1000.9615020751953	0.9924039840698242
42	209.94130206108093	pulse	0	t		40.0	2.5	blank	1.0	1001.94544506073	
42	209.9497630596161	movie	1		301	40.0	2.5	blank	1.0	1001.9539060592651	2.5074760913848877
42	211.54070901870728	pulse	1	t		40.0	2.5	blank	1.0	1003.5448520183563	
42	212.45723915100098	fix_post	2		12	40.0	2.5	blank	1.0	1004.46138215065	0.10097289085388184
43	212.55821204185486	fix_pre	0		120	41.0	2.5	/experiments/AOT/AOT_stimuli/rescaled_final/0150_fw.mp4	0.0	1004.5623550415039	0.999176025390625
43	213.14179301261902	pulse	0	t		41.0	2.5	/experiments/AOT/AOT_stimuli/rescaled_final/0150_fw.mp4	0.0	1005.1459360122681	
43	213.55738806724548	movie	1		242	41.0	2.5	/experiments/AOT/AOT_stimuli/rescaled_final/0150_fw.mp4	0.0	1005.5615310668945	2.500335931777954
43	214.74080419540405	pulse	1	t		41.0	2.5	/experiments/AOT/AOT_stimuli/rescaled_final/0150_fw.mp4	0.0	1006.7449471950531	
43	216.05772399902344	fix_post	2		12	41.0	2.5	/experiments/AOT/AOT_stimuli/rescaled_final/0150_fw.mp4	0.0	1008.0618669986725	0.09911012649536133
44	216.1568341255188	fix_pre	0		120	42.0	2.5	/experiments/AOT/AOT_stimuli/rescaled_final/1458_rv.mp4	0.0	1008.1609771251678	1.000549077987671
44	216.34069800376892	pulse	0	t		42.0	2.5	/experiments/AOT/AOT_stimuli/rescaled_final/1458_rv.mp4	0.0	1008.344841003418	
44	217.15738320350647	movie	1		243	42.0	2.5	/experiments/AOT/AOT_stimuli/rescaled_final/1458_rv.mp4	0.0	1009.1615262031555	2.500072956085205
44	217.94166898727417	pulse	1	t		42.0	2.5	/experiments/AOT/AOT_stimuli/rescaled_final/1458_rv.mp4	0.0	1009.9458119869232	
44	219.53928518295288	pulse	1	t		42.0	2.5	/experiments/AOT/AOT_stimuli/rescaled_final/1458_rv.mp4	0.0	1011.5434281826019	
44	219.65745615959167	fix_post	2		12	42.0	2.5	/experiments/AOT/AOT_stimuli/rescaled_final/1458_rv.mp4	0.0	1011.6615991592407	0.0997779369354248
45	219.7572340965271	fix_pre	0		120	43.0	2.5	/experiments/AOT/AOT_stimuli/rescaled_final/0201_fw.mp4	0.0	1011.7613770961761	1.0005080699920654
45	220.75774216651917	movie	1		244	43.0	2.5	/experiments/AOT/AOT_stimuli/rescaled_final/0201_fw.mp4	0.0	1012.7618851661682	2.499447822570801
45	221.14033699035645	pulse	1	t		43.0	2.5	/experiments/AOT/AOT_stimuli/rescaled_final/0201_fw.mp4	0.0	1013.1444799900055	
45	222.7406370639801	pulse	1	t		43.0	2.5	/experiments/AOT/AOT_stimuli/rescaled_final/0201_fw.mp4	0.0	1014.7447800636292	
45	223.25718998908997	fix_post	2		12	43.0	2.5	/experiments/AOT/AOT_stimuli/rescaled_final/0201_fw.mp4	0.0	1015.261332988739	0.10000300407409668
46	223.35719299316406	fix_pre	0		119	44.0	2.5	/experiments/AOT/AOT_stimuli/rescaled_final/0150_fw.mp4	0.0	1015.3613359928131	0.9917521476745605
46	224.3408432006836	pulse	0	t		44.0	2.5	/experiments/AOT/AOT_stimuli/rescaled_final/0150_fw.mp4	0.0	1016.3449862003326	
46	224.34894514083862	movie	1		243	44.0	2.5	/experiments/AOT/AOT_stimuli/rescaled_final/0150_fw.mp4	0.0	1016.3530881404877	2.508223056793213
46	225.94056510925293	pulse	1	t		44.0	2.5	/experiments/AOT/AOT_stimuli/rescaled_final/0150_fw.mp4	0.0	1017.944708108902	
46	226.85716819763184	fix_post	2		12	44.0	2.5	/experiments/AOT/AOT_stimuli/rescaled_final/0150_fw.mp4	0.0	1018.8613111972809	0.10001182556152344
47	226.95718002319336	fix_pre	0		120	45.0	2.5	/experiments/AOT/AOT_stimuli/rescaled_final/1947_fw.mp4	0.0	1018.9613230228424	1.0001070499420166
47	227.5406391620636	pulse	0	t		45.0	2.5	/experiments/AOT/AOT_stimuli/rescaled_final/1947_fw.mp4	0.0	1019.5447821617126	
47	227.95728707313538	movie	1		244	45.0	2.5	/experiments/AOT/AOT_stimuli/rescaled_final/1947_fw.mp4	0.0	1019.9614300727844	2.4998779296875
47	229.1407949924469	pulse	1	t		45.0	2.5	/experiments/AOT/AOT_stimuli/rescaled_final/1947_fw.mp4	0.0	1021.144937992096	
47	230.45716500282288	fix_post	2		12	45.0	2.5	/experiments/AOT/AOT_stimuli/rescaled_final/1947_fw.mp4	0.0	1022.4613080024719	0.09996819496154785
48	230.55713319778442	fix_pre	0		120	46.0	2.5	/experiments/AOT/AOT_stimuli/rescaled_final/2136_fw.mp4	0.0	1022.5612761974335	1.0001778602600098
48	230.7407250404358	pulse	0	t		46.0	2.5	/experiments/AOT/AOT_stimuli/rescaled_final/2136_fw.mp4	0.0	1022.7448680400848	
48	231.55731105804443	movie	1		245	46.0	2.5	/experiments/AOT/AOT_stimuli/rescaled_final/2136_fw.mp4	0.0	1023.5614540576935	2.499933958053589
48	232.34061098098755	pulse	1	t		46.0	2.5	/experiments/AOT/AOT_stimuli/rescaled_final/2136_fw.mp4	0.0	1024.3447539806366	
48	233.94078707695007	pulse	1	t		46.0	2.5	/experiments/AOT/AOT_stimuli/rescaled_final/2136_fw.mp4	0.0	1025.9449300765991	
48	234.05724501609802	fix_post	2		12	46.0	2.5	/experiments/AOT/AOT_stimuli/rescaled_final/2136_fw.mp4	0.0	1026.061388015747	0.09984397888183594
49	234.15708899497986	fix_pre	0		120	47.0	2.5	blank	1.0	1026.161231994629	1.0000331401824951
49	235.15712213516235	movie	1		300	47.0	2.5	blank	1.0	1027.1612651348114	2.500025987625122
49	235.54097509384155	pulse	1	t		47.0	2.5	blank	1.0	1027.5451180934906	
49	237.1406672000885	pulse	1	t		47.0	2.5	blank	1.0	1029.1448101997375	
49	237.65714812278748	fix_post	2		12	47.0	2.5	blank	1.0	1029.6612911224365	0.10000491142272949
50	237.7571530342102	fix_pre	0		119	48.0	2.5	/experiments/AOT/AOT_stimuli/rescaled_final/0803_fw.mp4	0.0	1029.7612960338593	0.9916510581970215
50	238.74069213867188	pulse	0	t		48.0	2.5	/experiments/AOT/AOT_stimuli/rescaled_final/0803_fw.mp4	0.0	1030.744835138321	
50	238.74880409240723	movie	1		243	48.0	2.5	/experiments/AOT/AOT_stimuli/rescaled_final/0803_fw.mp4	0.0	1030.7529470920563	2.5078721046447754
50	240.34007620811462	pulse	1	t		48.0	2.5	/experiments/AOT/AOT_stimuli/rescaled_final/0803_fw.mp4	0.0	1032.3442192077637	
50	241.256676197052	fix_post	2		12	48.0	2.5	/experiments/AOT/AOT_stimuli/rescaled_final/0803_fw.mp4	0.0	1033.260819196701	0.10039496421813965
51	241.35707116127014	fix_pre	0		120	49.0	2.5	/experiments/AOT/AOT_stimuli/rescaled_final/0168_fw.mp4	0.0	1033.3612141609192	1.0000970363616943
51	241.94062113761902	pulse	0	t		49.0	2.5	/experiments/AOT/AOT_stimuli/rescaled_final/0168_fw.mp4	0.0	1033.944764137268	
51	242.35716819763184	movie	1		243	49.0	2.5	/experiments/AOT/AOT_stimuli/rescaled_final/0168_fw.mp4	0.0	1034.3613111972809	2.4999330043792725
51	243.54068517684937	pulse	1	t		49.0	2.5	/experiments/AOT/AOT_stimuli/rescaled_final/0168_fw.mp4	0.0	1035.5448281764984	
51	244.8571012020111	fix_post	2		12	49.0	2.5	/experiments/AOT/AOT_stimuli/rescaled_final/0168_fw.mp4	0.0	1036.8612442016602	0.10005688667297363
52	244.95715808868408	fix_pre	0		120	50.0	2.5	/experiments/AOT/AOT_stimuli/rescaled_final/0361_fw.mp4	0.0	1036.9613010883331	1.000054121017456
52	245.1406021118164	pulse	0	t		50.0	2.5	/experiments/AOT/AOT_stimuli/rescaled_final/0361_fw.mp4	0.0	1037.1447451114655	
52	245.95721220970154	movie	1		245	50.0	2.5	/experiments/AOT/AOT_stimuli/rescaled_final/0361_fw.mp4	0.0	1037.9613552093506	2.4998598098754883
52	246.7406129837036	pulse	1	t		50.0	2.5	/experiments/AOT/AOT_stimuli/rescaled_final/0361_fw.mp4	0.0	1038.7447559833527	
52	248.34012508392334	pulse	1	t		50.0	2.5	/experiments/AOT/AOT_stimuli/rescaled_final/0361_fw.mp4	0.0	1040.3442680835724	
52	248.45707201957703	fix_post	2		12	50.0	2.5	/experiments/AOT/AOT_stimuli/rescaled_final/0361_fw.mp4	0.0	1040.461215019226	0.10006117820739746
53	248.55713319778442	fix_pre	0		120	51.0	2.5	/experiments/AOT/AOT_stimuli/rescaled_final/1594_rv.mp4	0.0	1040.5612761974335	0.9999418258666992
53	249.55707502365112	movie	1		244	51.0	2.5	/experiments/AOT/AOT_stimuli/rescaled_final/1594_rv.mp4	0.0	1041.5612180233002	2.5000391006469727
53	249.94026112556458	pulse	1	t		51.0	2.5	/experiments/AOT/AOT_stimuli/rescaled_final/1594_rv.mp4	0.0	1041.9444041252136	
53	251.54059314727783	pulse	1	t		51.0	2.5	/experiments/AOT/AOT_stimuli/rescaled_final/1594_rv.mp4	0.0	1043.5447361469269	
53	252.0571141242981	fix_post	2		12	51.0	2.5	/experiments/AOT/AOT_stimuli/rescaled_final/1594_rv.mp4	0.0	1044.0612571239471	0.09996390342712402
54	252.15707802772522	fix_pre	0		119	52.0	2.5	/experiments/AOT/AOT_stimuli/rescaled_final/0929_rv.mp4	0.0	1044.1612210273743	0.9916691780090332
54	253.14077019691467	pulse	0	t		52.0	2.5	/experiments/AOT/AOT_stimuli/rescaled_final/0929_rv.mp4	0.0	1045.1449131965637	
54	253.14874720573425	movie	1		246	52.0	2.5	/experiments/AOT/AOT_stimuli/rescaled_final/0929_rv.mp4	0.0	1045.1528902053833	2.5083367824554443
54	254.74029517173767	pulse	1	t		52.0	2.5	/experiments/AOT/AOT_stimuli/rescaled_final/0929_rv.mp4	0.0	1046.7444381713867	
54	255.6570839881897	fix_post	2		12	52.0	2.5	/experiments/AOT/AOT_stimuli/rescaled_final/0929_rv.mp4	0.0	1047.6612269878387	0.0999610424041748
55	255.75704503059387	fix_pre	0		120	53.0	2.5	/experiments/AOT/AOT_stimuli/rescaled_final/1193_fw.mp4	0.0	1047.761188030243	0.9996230602264404
55	256.3419020175934	pulse	0	t		53.0	2.5	/experiments/AOT/AOT_stimuli/rescaled_final/1193_fw.mp4	0.0	1048.3460450172424	
55	256.7566680908203	movie	1		245	53.0	2.5	/experiments/AOT/AOT_stimuli/rescaled_final/1193_fw.mp4	0.0	1048.7608110904694	2.500541925430298
55	257.9401581287384	pulse	1	t		53.0	2.5	/experiments/AOT/AOT_stimuli/rescaled_final/1193_fw.mp4	0.0	1049.9443011283875	
55	259.2572100162506	fix_post	2		12	53.0	2.5	/experiments/AOT/AOT_stimuli/rescaled_final/1193_fw.mp4	0.0	1051.2613530158997	0.09955215454101562
56	259.3567621707916	fix_pre	0		120	54.0	2.5	blank	1.0	1051.3609051704407	1.0001628398895264
56	259.54069900512695	pulse	0	t		54.0	2.5	blank	1.0	1051.544842004776	
56	260.35692501068115	movie	1		300	54.0	2.5	blank	1.0	1052.3610680103302	2.500143051147461
56	261.14050912857056	pulse	1	t		54.0	2.5	blank	1.0	1053.1446521282196	
56	262.7406280040741	pulse	1	t		54.0	2.5	blank	1.0	1054.7447710037231	
56	262.8570680618286	fix_post	2		12	54.0	2.5	blank	1.0	1054.8612110614777	0.09998798370361328
57	262.9570560455322	fix_pre	0		120	55.0	2.5	/experiments/AOT/AOT_stimuli/rescaled_final/1478_rv.mp4	0.0	1054.9611990451813	0.9999921321868896
57	263.9570481777191	movie	1		244	55.0	2.5	/experiments/AOT/AOT_stimuli/rescaled_final/1478_rv.mp4	0.0	1055.9611911773682	2.4999070167541504
57	264.34174609184265	pulse	1	t		55.0	2.5	/experiments/AOT/AOT_stimuli/rescaled_final/1478_rv.mp4	0.0	1056.3458890914917	
57	265.9404652118683	pulse	1	t		55.0	2.5	/experiments/AOT/AOT_stimuli/rescaled_final/1478_rv.mp4	0.0	1057.9446082115173	
57	266.45695519447327	fix_post	2		12	55.0	2.5	/experiments/AOT/AOT_stimuli/rescaled_final/1478_rv.mp4	0.0	1058.4610981941223	0.10002279281616211
58	266.55697798728943	fix_pre	0		119	56.0	2.5	/experiments/AOT/AOT_stimuli/rescaled_final/1801_rv.mp4	0.0	1058.5611209869385	0.9917011260986328
58	267.5404920578003	pulse	0	t		56.0	2.5	/experiments/AOT/AOT_stimuli/rescaled_final/1801_rv.mp4	0.0	1059.5446350574493	
58	267.54867911338806	movie	1		244	56.0	2.5	/experiments/AOT/AOT_stimuli/rescaled_final/1801_rv.mp4	0.0	1059.552822113037	2.5083470344543457
58	269.1403431892395	pulse	1	t		56.0	2.5	/experiments/AOT/AOT_stimuli/rescaled_final/1801_rv.mp4	0.0	1061.1444861888885	
58	270.0570261478424	fix_post	2		12	56.0	2.5	/experiments/AOT/AOT_stimuli/rescaled_final/1801_rv.mp4	0.0	1062.0611691474915	0.09991884231567383
59	270.1569449901581	fix_pre	0		120	57.0	2.5	/experiments/AOT/AOT_stimuli/rescaled_final/0950_fw.mp4	0.0	1062.1610879898071	1.0000061988830566
59	270.7405381202698	pulse	0	t		57.0	2.5	/experiments/AOT/AOT_stimuli/rescaled_final/0950_fw.mp4	0.0	1062.7446811199188	
59	271.15695118904114	movie	1		245	57.0	2.5	/experiments/AOT/AOT_stimuli/rescaled_final/0950_fw.mp4	0.0	1063.1610941886902	2.499565839767456
59	272.34058904647827	pulse	1	t		57.0	2.5	/experiments/AOT/AOT_stimuli/rescaled_final/0950_fw.mp4	0.0	1064.3447320461273	
59	273.6565170288086	fix_post	2		12	57.0	2.5	/experiments/AOT/AOT_stimuli/rescaled_final/0950_fw.mp4	0.0	1065.6606600284576	0.10047411918640137
60	273.756991147995	fix_pre	0		120	58.0	2.5	/experiments/AOT/AOT_stimuli/rescaled_final/0582_rv.mp4	0.0	1065.761134147644	0.9999740123748779
60	273.9404881000519	pulse	0	t		58.0	2.5	/experiments/AOT/AOT_stimuli/rescaled_final/0582_rv.mp4	0.0	1065.944631099701	
60	274.7569651603699	movie	1		244	58.0	2.5	/experiments/AOT/AOT_stimuli/rescaled_final/0582_rv.mp4	0.0	1066.761108160019	2.5000219345092773
60	275.540470123291	pulse	1	t		58.0	2.5	/experiments/AOT/AOT_stimuli/rescaled_final/0582_rv.mp4	0.0	1067.54461312294	
60	277.1391980648041	pulse	1	t		58.0	2.5	/experiments/AOT/AOT_stimuli/rescaled_final/0582_rv.mp4	0.0	1069.1433410644531	
60	277.25698709487915	fix_post	2		12	58.0	2.5	/experiments/AOT/AOT_stimuli/rescaled_final/0582_rv.mp4	0.0	1069.2611300945282	0.09989094734191895
61	277.35687804222107	fix_pre	0		120	59.0	2.5	/experiments/AOT/AOT_stimuli/rescaled_final/1164_rv.mp4	0.0	1069.3610210418701	1.000115156173706
61	278.3569931983948	movie	1		243	59.0	2.5	/experiments/AOT/AOT_stimuli/rescaled_final/1164_rv.mp4	0.0	1070.3611361980438	2.499931812286377
61	278.7401831150055	pulse	1	t		59.0	2.5	/experiments/AOT/AOT_stimuli/rescaled_final/1164_rv.mp4	0.0	1070.7443261146545	
61	280.34053802490234	pulse	1	t		59.0	2.5	/experiments/AOT/AOT_stimuli/rescaled_final/1164_rv.mp4	0.0	1072.3446810245514	
61	280.85692501068115	fix_post	2		12	59.0	2.5	/experiments/AOT/AOT_stimuli/rescaled_final/1164_rv.mp4	0.0	1072.8610680103302	0.10001397132873535
62	280.9569389820099	fix_pre	0		119	60.0	2.5	/experiments/AOT/AOT_stimuli/rescaled_final/0803_fw.mp4	0.0	1072.961081981659	0.9916660785675049
62	281.9404091835022	pulse	0	t		60.0	2.5	/experiments/AOT/AOT_stimuli/rescaled_final/0803_fw.mp4	0.0	1073.9445521831512	
62	281.9486050605774	movie	1		245	60.0	2.5	/experiments/AOT/AOT_stimuli/rescaled_final/0803_fw.mp4	0.0	1073.9527480602264	2.5083401203155518
62	283.5402271747589	pulse	1	t		60.0	2.5	/experiments/AOT/AOT_stimuli/rescaled_final/0803_fw.mp4	0.0	1075.544370174408	
62	284.45694518089294	fix_post	2		12	60.0	2.5	/experiments/AOT/AOT_stimuli/rescaled_final/0803_fw.mp4	0.0	1076.461088180542	0.10008001327514648
63	284.5570251941681	fix_pre	0		120	61.0	2.5	/experiments/AOT/AOT_stimuli/rescaled_final/0340_rv.mp4	0.0	1076.5611681938171	0.9999229907989502
63	285.14053320884705	pulse	0	t		61.0	2.5	/experiments/AOT/AOT_stimuli/rescaled_final/0340_rv.mp4	0.0	1077.144676208496	
63	285.55694818496704	movie	1		246	61.0	2.5	/experiments/AOT/AOT_stimuli/rescaled_final/0340_rv.mp4	0.0	1077.561091184616	2.4999518394470215
63	286.74040699005127	pulse	1	t		61.0	2.5	/experiments/AOT/AOT_stimuli/rescaled_final/0340_rv.mp4	0.0	1078.7445499897003	
63	288.05690002441406	fix_post	2		12	61.0	2.5	/experiments/AOT/AOT_stimuli/rescaled_final/0340_rv.mp4	0.0	1080.061043024063	0.09997701644897461
64	288.15687704086304	fix_pre	0		120	62.0	2.5	/experiments/AOT/AOT_stimuli/rescaled_final/1863_rv.mp4	0.0	1080.161020040512	0.9999539852142334
64	288.34046816825867	pulse	0	t		62.0	2.5	/experiments/AOT/AOT_stimuli/rescaled_final/1863_rv.mp4	0.0	1080.3446111679077	
64	289.15683102607727	movie	1		245	62.0	2.5	/experiments/AOT/AOT_stimuli/rescaled_final/1863_rv.mp4	0.0	1081.1609740257263	2.4996421337127686
64	289.94039702415466	pulse	1	t		62.0	2.5	/experiments/AOT/AOT_stimuli/rescaled_final/1863_rv.mp4	0.0	1081.9445400238037	
64	291.539920091629	pulse	1	t		62.0	2.5	/experiments/AOT/AOT_stimuli/rescaled_final/1863_rv.mp4	0.0	1083.544063091278	
64	291.65647315979004	fix_post	2		12	62.0	2.5	/experiments/AOT/AOT_stimuli/rescaled_final/1863_rv.mp4	0.0	1083.660616159439	0.10057187080383301
65	291.7570450305939	fix_pre	0		120	63.0	2.5	blank	1.0	1083.761188030243	0.9998149871826172
65	292.7568600177765	movie	1		300	63.0	2.5	blank	1.0	1084.7610030174255	2.4999921321868896
65	293.1403911113739	pulse	1	t		63.0	2.5	blank	1.0	1085.144534111023	
65	294.740394115448	pulse	1	t		63.0	2.5	blank	1.0	1086.744537115097	
65	295.2568521499634	fix_post	2		12	63.0	2.5	blank	1.0	1087.2609951496124	0.1000528335571289
66	295.3569049835205	fix_pre	0		119	64.0	2.5	/experiments/AOT/AOT_stimuli/rescaled_final/0238_rv.mp4	0.0	1087.3610479831696	0.9916601181030273
66	296.34040117263794	pulse	0	t		64.0	2.5	/experiments/AOT/AOT_stimuli/rescaled_final/0238_rv.mp4	0.0	1088.344544172287	
66	296.34856510162354	movie	1		247	64.0	2.5	/experiments/AOT/AOT_stimuli/rescaled_final/0238_rv.mp4	0.0	1088.3527081012726	2.5082459449768066
66	297.94156098365784	pulse	1	t		64.0	2.5	/experiments/AOT/AOT_stimuli/rescaled_final/0238_rv.mp4	0.0	1089.9457039833069	
66	298.85681104660034	fix_post	2		12	64.0	2.5	/experiments/AOT/AOT_stimuli/rescaled_final/0238_rv.mp4	0.0	1090.8609540462494	0.10008001327514648
67	298.9568910598755	fix_pre	0		120	65.0	2.5	/experiments/AOT/AOT_stimuli/rescaled_final/1126_fw.mp4	0.0	1090.9610340595245	1.0000760555267334
67	299.54037499427795	pulse	0	t		65.0	2.5	/experiments/AOT/AOT_stimuli/rescaled_final/1126_fw.mp4	0.0	1091.544517993927	
67	299.9569671154022	movie	1		247	65.0	2.5	/experiments/AOT/AOT_stimuli/rescaled_final/1126_fw.mp4	0.0	1091.9611101150513	2.499890089035034
67	301.14044308662415	pulse	1	t		65.0	2.5	/experiments/AOT/AOT_stimuli/rescaled_final/1126_fw.mp4	0.0	1093.1445860862732	
67	302.45685720443726	fix_post	2		12	65.0	2.5	/experiments/AOT/AOT_stimuli/rescaled_final/1126_fw.mp4	0.0	1094.4610002040863	0.10001087188720703
68	302.55686807632446	fix_pre	0		120	66.0	2.5	/experiments/AOT/AOT_stimuli/rescaled_final/0282_fw.mp4	0.0	1094.5610110759735	0.9999399185180664
68	302.74027013778687	pulse	0	t		66.0	2.5	/experiments/AOT/AOT_stimuli/rescaled_final/0282_fw.mp4	0.0	1094.744413137436	
68	303.55680799484253	movie	1		245	66.0	2.5	/experiments/AOT/AOT_stimuli/rescaled_final/0282_fw.mp4	0.0	1095.5609509944916	2.4999260902404785
68	304.3403379917145	pulse	1	t		66.0	2.5	/experiments/AOT/AOT_stimuli/rescaled_final/0282_fw.mp4	0.0	1096.3444809913635	
68	305.9389669895172	pulse	1	t		66.0	2.5	/experiments/AOT/AOT_stimuli/rescaled_final/0282_fw.mp4	0.0	1097.9431099891663	
68	306.056734085083	fix_post	2		12	66.0	2.5	/experiments/AOT/AOT_stimuli/rescaled_final/0282_fw.mp4	0.0	1098.060877084732	0.10010790824890137
69	306.1568419933319	fix_pre	0		120	67.0	2.5	/experiments/AOT/AOT_stimuli/rescaled_final/0349_fw.mp4	0.0	1098.160984992981	0.9999990463256836
69	307.1568410396576	movie	1		244	67.0	2.5	/experiments/AOT/AOT_stimuli/rescaled_final/0349_fw.mp4	0.0	1099.1609840393066	2.4996390342712402
69	307.54151916503906	pulse	1	t		67.0	2.5	/experiments/AOT/AOT_stimuli/rescaled_final/0349_fw.mp4	0.0	1099.545662164688	
69	309.14033603668213	pulse	1	t		67.0	2.5	/experiments/AOT/AOT_stimuli/rescaled_final/0349_fw.mp4	0.0	1101.1444790363312	
69	309.65648007392883	fix_post	2		12	67.0	2.5	/experiments/AOT/AOT_stimuli/rescaled_final/0349_fw.mp4	0.0	1101.6606230735779	0.10030293464660645
70	309.75678300857544	fix_pre	0		119	68.0	2.5	/experiments/AOT/AOT_stimuli/rescaled_final/0739_rv.mp4	0.0	1101.7609260082245	0.9916791915893555
70	310.7403872013092	pulse	0	t		68.0	2.5	/experiments/AOT/AOT_stimuli/rescaled_final/0739_rv.mp4	0.0	1102.7445302009583	
70	310.7484622001648	movie	1		245	68.0	2.5	/experiments/AOT/AOT_stimuli/rescaled_final/0739_rv.mp4	0.0	1102.7526051998138	2.5083630084991455
70	312.3400812149048	pulse	1	t		68.0	2.5	/experiments/AOT/AOT_stimuli/rescaled_final/0739_rv.mp4	0.0	1104.3442242145538	
70	313.25682520866394	fix_post	2		12	68.0	2.5	/experiments/AOT/AOT_stimuli/rescaled_final/0739_rv.mp4	0.0	1105.260968208313	0.09999990463256836
71	313.3568251132965	fix_pre	0		120	69.0	2.5	blank	1.0	1105.3609681129456	0.9995598793029785
71	313.9399540424347	pulse	0	t		69.0	2.5	blank	1.0	1105.9440970420837	
71	314.3563849925995	movie	1		300	69.0	2.5	blank	1.0	1106.3605279922485	2.5007290840148926
71	315.5404541492462	pulse	1	t		69.0	2.5	blank	1.0	1107.5445971488953	
71	316.8571140766144	fix_post	2		12	69.0	2.5	blank	1.0	1108.8612570762634	0.09960603713989258
72	316.9567201137543	fix_pre	0		120	70.0	2.5	/experiments/AOT/AOT_stimuli/rescaled_final/1556_fw.mp4	0.0	1108.9608631134033	1.0001299381256104
72	317.1402680873871	pulse	0	t		70.0	2.5	/experiments/AOT/AOT_stimuli/rescaled_final/1556_fw.mp4	0.0	1109.1444110870361	
72	317.9568500518799	movie	1		247	70.0	2.5	/experiments/AOT/AOT_stimuli/rescaled_final/1556_fw.mp4	0.0	1109.960993051529	2.499922037124634
72	318.74025106430054	pulse	1	t		70.0	2.5	/experiments/AOT/AOT_stimuli/rescaled_final/1556_fw.mp4	0.0	1110.7443940639496	
72	320.33980202674866	pulse	1	t		70.0	2.5	/experiments/AOT/AOT_stimuli/rescaled_final/1556_fw.mp4	0.0	1112.3439450263977	
72	320.4567720890045	fix_post	2		12	70.0	2.5	/experiments/AOT/AOT_stimuli/rescaled_final/1556_fw.mp4	0.0	1112.4609150886536	0.10003805160522461
73	320.55681014060974	fix_pre	0		120	71.0	2.5	/experiments/AOT/AOT_stimuli/rescaled_final/0787_rv.mp4	0.0	1112.5609531402588	0.9999330043792725
73	321.556743144989	movie	1		247	71.0	2.5	/experiments/AOT/AOT_stimuli/rescaled_final/0787_rv.mp4	0.0	1113.560886144638	2.4999840259552
73	321.93982100486755	pulse	1	t		71.0	2.5	/experiments/AOT/AOT_stimuli/rescaled_final/0787_rv.mp4	0.0	1113.9439640045166	
73	323.5402820110321	pulse	1	t		71.0	2.5	/experiments/AOT/AOT_stimuli/rescaled_final/0787_rv.mp4	0.0	1115.5444250106812	
73	324.0567271709442	fix_post	2		12	71.0	2.5	/experiments/AOT/AOT_stimuli/rescaled_final/0787_rv.mp4	0.0	1116.0608701705933	0.09997296333312988
74	324.15670013427734	fix_pre	0		119	72.0	2.5	/experiments/AOT/AOT_stimuli/rescaled_final/0060_rv.mp4	0.0	1116.1608431339264	0.9916520118713379
74	325.14014506340027	pulse	0	t		72.0	2.5	/experiments/AOT/AOT_stimuli/rescaled_final/0060_rv.mp4	0.0	1117.1442880630493	
74	325.1483521461487	movie	1		245	72.0	2.5	/experiments/AOT/AOT_stimuli/rescaled_final/0060_rv.mp4	0.0	1117.1524951457977	2.5083930492401123
74	326.73975706100464	pulse	1	t		72.0	2.5	/experiments/AOT/AOT_stimuli/rescaled_final/0060_rv.mp4	0.0	1118.7439000606537	
74	327.6567451953888	fix_post	2		12	72.0	2.5	/experiments/AOT/AOT_stimuli/rescaled_final/0060_rv.mp4	0.0	1119.6608881950378	0.09994792938232422
75	327.7566931247711	fix_pre	0		120	73.0	2.5	/experiments/AOT/AOT_stimuli/rescaled_final/2008_rv.mp4	0.0	1119.7608361244202	1.0000519752502441
75	328.34021615982056	pulse	0	t		73.0	2.5	/experiments/AOT/AOT_stimuli/rescaled_final/2008_rv.mp4	0.0	1120.3443591594696	
75	328.75674510002136	movie	1		243	73.0	2.5	/experiments/AOT/AOT_stimuli/rescaled_final/2008_rv.mp4	0.0	1120.7608880996704	2.499911069869995
75	329.94021105766296	pulse	1	t		73.0	2.5	/experiments/AOT/AOT_stimuli/rescaled_final/2008_rv.mp4	0.0	1121.944354057312	
75	331.25665616989136	fix_post	2		12	73.0	2.5	/experiments/AOT/AOT_stimuli/rescaled_final/2008_rv.mp4	0.0	1123.2607991695404	0.10006093978881836
76	331.3567171096802	fix_pre	0		120	74.0	2.5	/experiments/AOT/AOT_stimuli/rescaled_final/0361_fw.mp4	0.0	1123.3608601093292	0.9999160766601562
76	331.54015016555786	pulse	0	t		74.0	2.5	/experiments/AOT/AOT_stimuli/rescaled_final/0361_fw.mp4	0.0	1123.544293165207	
76	332.35663318634033	movie	1		244	74.0	2.5	/experiments/AOT/AOT_stimuli/rescaled_final/0361_fw.mp4	0.0	1124.3607761859894	2.5001368522644043
76	333.1401650905609	pulse	1	t		74.0	2.5	/experiments/AOT/AOT_stimuli/rescaled_final/0361_fw.mp4	0.0	1125.14430809021	
76	334.74010705947876	pulse	1	t		74.0	2.5	/experiments/AOT/AOT_stimuli/rescaled_final/0361_fw.mp4	0.0	1126.7442500591278	
76	334.85677003860474	fix_post	2		12	74.0	2.5	/experiments/AOT/AOT_stimuli/rescaled_final/0361_fw.mp4	0.0	1126.8609130382538	0.09999704360961914
77	334.95676708221436	fix_pre	0		120	75.0	2.5	/experiments/AOT/AOT_stimuli/rescaled_final/1510_rv.mp4	0.0	1126.9609100818634	0.9999361038208008
77	335.95670318603516	movie	1		243	75.0	2.5	/experiments/AOT/AOT_stimuli/rescaled_final/1510_rv.mp4	0.0	1127.9608461856842	2.49992299079895
77	336.3402671813965	pulse	1	t		75.0	2.5	/experiments/AOT/AOT_stimuli/rescaled_final/1510_rv.mp4	0.0	1128.3444101810455	
77	337.94013810157776	pulse	1	t		75.0	2.5	/experiments/AOT/AOT_stimuli/rescaled_final/1510_rv.mp4	0.0	1129.9442811012268	
77	338.4566261768341	fix_post	2		12	75.0	2.5	/experiments/AOT/AOT_stimuli/rescaled_final/1510_rv.mp4	0.0	1130.4607691764832	0.10006880760192871
78	338.55669498443604	fix_pre	0		119	76.0	2.5	/experiments/AOT/AOT_stimuli/rescaled_final/1923_rv.mp4	0.0	1130.560837984085	0.991671085357666
78	339.54010915756226	pulse	0	t		76.0	2.5	/experiments/AOT/AOT_stimuli/rescaled_final/1923_rv.mp4	0.0	1131.5442521572113	
78	339.5483660697937	movie	1		246	76.0	2.5	/experiments/AOT/AOT_stimuli/rescaled_final/1923_rv.mp4	0.0	1131.5525090694427	2.5082809925079346
78	341.13990807533264	pulse	1	t		76.0	2.5	/experiments/AOT/AOT_stimuli/rescaled_final/1923_rv.mp4	0.0	1133.1440510749817	
78	342.05664706230164	fix_post	2		12	76.0	2.5	/experiments/AOT/AOT_stimuli/rescaled_final/1923_rv.mp4	0.0	1134.0607900619507	0.09996914863586426
79	342.1566162109375	fix_pre	0		120	77.0	2.5	blank	1.0	1134.1607592105865	1.000025987625122
79	342.74033308029175	pulse	0	t		77.0	2.5	blank	1.0	1134.7444760799408	
79	343.1566421985626	movie	1		300	77.0	2.5	blank	1.0	1135.1607851982117	2.500082015991211
79	344.3400950431824	pulse	1	t		77.0	2.5	blank	1.0	1136.3442380428314	
79	345.65672421455383	fix_post	2		12	77.0	2.5	blank	1.0	1137.6608672142029	0.0999608039855957
80	345.75668501853943	fix_pre	0		120	78.0	2.5	/experiments/AOT/AOT_stimuli/rescaled_final/1772_fw.mp4	0.0	1137.7608280181885	0.9995081424713135
80	345.94012212753296	pulse	0	t		78.0	2.5	/experiments/AOT/AOT_stimuli/rescaled_final/1772_fw.mp4	0.0	1137.944265127182	
80	346.75619316101074	movie	1		244	78.0	2.5	/experiments/AOT/AOT_stimuli/rescaled_final/1772_fw.mp4	0.0	1138.7603361606598	2.499971866607666
80	347.54018211364746	pulse	1	t		78.0	2.5	/experiments/AOT/AOT_stimuli/rescaled_final/1772_fw.mp4	0.0	1139.5443251132965	
80	349.13927602767944	pulse	1	t		78.0	2.5	/experiments/AOT/AOT_stimuli/rescaled_final/1772_fw.mp4	0.0	1141.1434190273285	
80	349.2561650276184	fix_post	2		12	78.0	2.5	/experiments/AOT/AOT_stimuli/rescaled_final/1772_fw.mp4	0.0	1141.2603080272675	0.10040998458862305
81	349.35657501220703	fix_pre	0		120	79.0	2.5	/experiments/AOT/AOT_stimuli/rescaled_final/1019_fw.mp4	0.0	1141.360718011856	1.0001029968261719
81	350.3566780090332	movie	1		246	79.0	2.5	/experiments/AOT/AOT_stimuli/rescaled_final/1019_fw.mp4	0.0	1142.3608210086823	2.499486207962036
81	350.7399079799652	pulse	1	t		79.0	2.5	/experiments/AOT/AOT_stimuli/rescaled_final/1019_fw.mp4	0.0	1142.7440509796143	
81	352.3400890827179	pulse	1	t		79.0	2.5	/experiments/AOT/AOT_stimuli/rescaled_final/1019_fw.mp4	0.0	1144.344232082367	
81	352.85616421699524	fix_post	2		12	79.0	2.5	/experiments/AOT/AOT_stimuli/rescaled_final/1019_fw.mp4	0.0	1144.8603072166443	0.10041189193725586
82	352.9565761089325	fix_pre	0		119	80.0	2.5	/experiments/AOT/AOT_stimuli/rescaled_final/0768_fw.mp4	0.0	1144.9607191085815	0.9916770458221436
82	353.9400761127472	pulse	0	t		80.0	2.5	/experiments/AOT/AOT_stimuli/rescaled_final/0768_fw.mp4	0.0	1145.9442191123962	
82	353.94825315475464	movie	1		246	80.0	2.5	/experiments/AOT/AOT_stimuli/rescaled_final/0768_fw.mp4	0.0	1145.9523961544037	2.5082569122314453
82	355.5396361351013	pulse	1	t		80.0	2.5	/experiments/AOT/AOT_stimuli/rescaled_final/0768_fw.mp4	0.0	1147.5437791347504	
82	356.4565100669861	fix_post	2		12	80.0	2.5	/experiments/AOT/AOT_stimuli/rescaled_final/0768_fw.mp4	0.0	1148.4606530666351	0.10002398490905762
83	356.55653405189514	fix_pre	0		120	81.0	2.5	/experiments/AOT/AOT_stimuli/rescaled_final/0124_rv.mp4	0.0	1148.5606770515442	1.0000340938568115
83	357.1400680541992	pulse	0	t		81.0	2.5	/experiments/AOT/AOT_stimuli/rescaled_final/0124_rv.mp4	0.0	1149.1442110538483	
83	357.55656814575195	movie	1		246	81.0	2.5	/experiments/AOT/AOT_stimuli/rescaled_final/0124_rv.mp4	0.0	1149.560711145401	2.500041961669922
83	358.74014806747437	pulse	1	t		81.0	2.5	/experiments/AOT/AOT_stimuli/rescaled_final/0124_rv.mp4	0.0	1150.7442910671234	
83	360.0566101074219	fix_post	2		12	81.0	2.5	/experiments/AOT/AOT_stimuli/rescaled_final/0124_rv.mp4	0.0	1152.060753107071	0.09995698928833008
84	360.1565670967102	fix_pre	0		120	82.0	2.5	blank	1.0	1152.1607100963593	1.0000269412994385
84	360.34010219573975	pulse	0	t		82.0	2.5	blank	1.0	1152.3442451953888	
84	361.15659403800964	movie	1		300	82.0	2.5	blank	1.0	1153.1607370376587	2.499559164047241
84	361.94000220298767	pulse	1	t		82.0	2.5	blank	1.0	1153.9441452026367	
84	363.53999519348145	pulse	1	t		82.0	2.5	blank	1.0	1155.5441381931305	
84	363.6561532020569	fix_post	2		12	82.0	2.5	blank	1.0	1155.660296201706	0.10041379928588867
85	363.7565670013428	fix_pre	0		120	83.0	2.5	/experiments/AOT/AOT_stimuli/rescaled_final/1151_fw.mp4	0.0	1155.7607100009918	1.0000650882720947
85	364.75663208961487	movie	1		245	83.0	2.5	/experiments/AOT/AOT_stimuli/rescaled_final/1151_fw.mp4	0.0	1156.760775089264	2.499932050704956
85	365.14000415802	pulse	1	t		83.0	2.5	/experiments/AOT/AOT_stimuli/rescaled_final/1151_fw.mp4	0.0	1157.144147157669	
85	366.7399799823761	pulse	1	t		83.0	2.5	/experiments/AOT/AOT_stimuli/rescaled_final/1151_fw.mp4	0.0	1158.7441229820251	
85	367.2565641403198	fix_post	2		12	83.0	2.5	/experiments/AOT/AOT_stimuli/rescaled_final/1151_fw.mp4	0.0	1159.2607071399689	0.10001993179321289
87	367.35658407211304	stim	0		1716					1159.360727071762	14.299875020980835
87	368.3400731086731	pulse	0	t						1160.3442161083221	
87	369.9396080970764	pulse	0	t						1161.9437510967255	
87	371.5401020050049	pulse	0	t						1163.544245004654	
87	373.1400110721588	pulse	0	t						1165.1441540718079	
87	374.73991203308105	pulse	0	t						1166.74405503273	
87	376.3399021625519	pulse	0	t						1168.344045162201	
87	377.9398910999298	pulse	0	t						1169.9440340995789	
87	379.5399031639099	pulse	0	t						1171.544046163559	
87	381.1399290561676	pulse	0	t						1173.1440720558167	
