trial_nr	onset	event_type	phase	response	nr_frames	movie_index	movie_duration	movie_file	blank	onset_abs	duration
0	0.20830702781677246	stim	0		1					17.189643144607544	0.008177042007446289
0	0.20447015762329102	response	0	space						17.185806274414062	
1	0.21648406982421875	stim	0		5078					17.19782018661499	42.33545207977295
1	42.53669095039368	pulse	0	t						59.51802706718445	
1	42.55193614959717	stim	1		1715					59.53327226638794	14.29801082611084
1	44.13155508041382	pulse	1	t						61.11289119720459	
1	45.731889963150024	pulse	1	t						62.713226079940796	
1	47.33202815055847	pulse	1	t						64.31336426734924	
1	48.93225312232971	pulse	1	t						65.91358923912048	
1	50.53247308731079	pulse	1	t						67.51380920410156	
1	52.13279414176941	pulse	1	t						69.11413025856018	
1	53.73302698135376	pulse	1	t						70.71436309814453	
1	55.333173990249634	pulse	1	t						72.3145101070404	
2	56.84994697570801	fix_pre	0		11	0.0	2.5	/experiments/knapen_AOT/AOT_stimuli/rescaled_final/0360_rv.mp4	0.0	73.83128309249878	0.0917360782623291
2	56.9334831237793	pulse	0	t		0.0	2.5	/experiments/knapen_AOT/AOT_stimuli/rescaled_final/0360_rv.mp4	0.0	73.91481924057007	
2	56.94168305397034	movie	1		242	0.0	2.5	/experiments/knapen_AOT/AOT_stimuli/rescaled_final/0360_rv.mp4	0.0	73.92301917076111	2.5087521076202393
2	58.53789496421814	pulse	1	t		0.0	2.5	/experiments/knapen_AOT/AOT_stimuli/rescaled_final/0360_rv.mp4	0.0	75.51923108100891	
2	59.450435161590576	fix_post	2		12	0.0	2.5	/experiments/knapen_AOT/AOT_stimuli/rescaled_final/0360_rv.mp4	0.0	76.43177127838135	0.09993290901184082
3	59.55036807060242	fix_pre	0		120	1.0	2.5	/experiments/knapen_AOT/AOT_stimuli/rescaled_final/1998_fw.mp4	0.0	76.53170418739319	1.0001800060272217
3	60.13395810127258	pulse	0	t		1.0	2.5	/experiments/knapen_AOT/AOT_stimuli/rescaled_final/1998_fw.mp4	0.0	77.11529421806335	
3	60.55054807662964	movie	1		242	1.0	2.5	/experiments/knapen_AOT/AOT_stimuli/rescaled_final/1998_fw.mp4	0.0	77.53188419342041	2.5005269050598145
3	61.73427104949951	pulse	1	t		1.0	2.5	/experiments/knapen_AOT/AOT_stimuli/rescaled_final/1998_fw.mp4	0.0	78.71560716629028	
3	63.05107498168945	fix_post	2		12	1.0	2.5	/experiments/knapen_AOT/AOT_stimuli/rescaled_final/1998_fw.mp4	0.0	80.03241109848022	0.09987306594848633
4	63.15094804763794	fix_pre	0		120	2.0	2.5	/experiments/knapen_AOT/AOT_stimuli/rescaled_final/1030_rv.mp4	0.0	80.13228416442871	1.000157117843628
4	63.334453105926514	pulse	0	t		2.0	2.5	/experiments/knapen_AOT/AOT_stimuli/rescaled_final/1030_rv.mp4	0.0	80.31578922271729	
4	64.15110516548157	movie	1		242	2.0	2.5	/experiments/knapen_AOT/AOT_stimuli/rescaled_final/1030_rv.mp4	0.0	81.13244128227234	2.5004539489746094
4	64.93477416038513	pulse	1	t		2.0	2.5	/experiments/knapen_AOT/AOT_stimuli/rescaled_final/1030_rv.mp4	0.0	81.9161102771759	
4	66.53541803359985	pulse	1	t		2.0	2.5	/experiments/knapen_AOT/AOT_stimuli/rescaled_final/1030_rv.mp4	0.0	83.51675415039062	
4	66.65155911445618	fix_post	2		12	2.0	2.5	/experiments/knapen_AOT/AOT_stimuli/rescaled_final/1030_rv.mp4	0.0	83.63289523124695	0.09987092018127441
5	66.75143003463745	fix_pre	0		120	3.0	2.5	/experiments/knapen_AOT/AOT_stimuli/rescaled_final/0358_rv.mp4	0.0	83.73276615142822	1.0001881122589111
5	67.75161814689636	movie	1		242	3.0	2.5	/experiments/knapen_AOT/AOT_stimuli/rescaled_final/0358_rv.mp4	0.0	84.73295426368713	2.4921669960021973
5	68.13970899581909	pulse	1	t		3.0	2.5	/experiments/knapen_AOT/AOT_stimuli/rescaled_final/0358_rv.mp4	0.0	85.12104511260986	
5	69.73560094833374	pulse	1	t		3.0	2.5	/experiments/knapen_AOT/AOT_stimuli/rescaled_final/0358_rv.mp4	0.0	86.71693706512451	
5	70.24378514289856	fix_post	2		12	3.0	2.5	/experiments/knapen_AOT/AOT_stimuli/rescaled_final/0358_rv.mp4	0.0	87.22512125968933	0.09990596771240234
6	70.34369111061096	fix_pre	0		120	4.0	2.5	/experiments/knapen_AOT/AOT_stimuli/rescaled_final/0232_fw.mp4	0.0	87.32502722740173	1.0001099109649658
6	71.33565306663513	pulse	0	t		4.0	2.5	/experiments/knapen_AOT/AOT_stimuli/rescaled_final/0232_fw.mp4	0.0	88.3169891834259	
6	71.34380102157593	movie	1		243	4.0	2.5	/experiments/knapen_AOT/AOT_stimuli/rescaled_final/0232_fw.mp4	0.0	88.3251371383667	2.5087780952453613
6	72.93639898300171	pulse	1	t		4.0	2.5	/experiments/knapen_AOT/AOT_stimuli/rescaled_final/0232_fw.mp4	0.0	89.91773509979248	
6	73.85257911682129	fix_post	2		12	4.0	2.5	/experiments/knapen_AOT/AOT_stimuli/rescaled_final/0232_fw.mp4	0.0	90.83391523361206	0.09996485710144043
7	73.95254397392273	fix_pre	0		120	5.0	2.5	/experiments/knapen_AOT/AOT_stimuli/rescaled_final/0178_rv.mp4	0.0	90.9338800907135	1.000176191329956
7	74.53612303733826	pulse	0	t		5.0	2.5	/experiments/knapen_AOT/AOT_stimuli/rescaled_final/0178_rv.mp4	0.0	91.51745915412903	
7	74.95272016525269	movie	1		243	5.0	2.5	/experiments/knapen_AOT/AOT_stimuli/rescaled_final/0178_rv.mp4	0.0	91.93405628204346	2.5003697872161865
7	76.13651514053345	pulse	1	t		5.0	2.5	/experiments/knapen_AOT/AOT_stimuli/rescaled_final/0178_rv.mp4	0.0	93.11785125732422	
7	77.45308995246887	fix_post	2		12	5.0	2.5	/experiments/knapen_AOT/AOT_stimuli/rescaled_final/0178_rv.mp4	0.0	94.43442606925964	0.10001111030578613
8	77.55310106277466	fix_pre	0		120	6.0	2.5	blank	1.0	94.53443717956543	1.000101089477539
8	77.73655414581299	pulse	0	t		6.0	2.5	blank	1.0	94.71789026260376	
8	78.5532021522522	movie	1		300	6.0	2.5	blank	1.0	95.53453826904297	2.5004398822784424
8	79.33681917190552	pulse	1	t		6.0	2.5	blank	1.0	96.31815528869629	
8	80.93715500831604	pulse	1	t		6.0	2.5	blank	1.0	97.91849112510681	
8	81.05364203453064	fix_post	2		12	6.0	2.5	blank	1.0	98.03497815132141	0.0999901294708252
9	81.15363216400146	fix_pre	0		119	7.0	2.5	/experiments/knapen_AOT/AOT_stimuli/rescaled_final/1128_rv.mp4	0.0	98.13496828079224	0.9917609691619873
9	82.14539313316345	movie	1		243	7.0	2.5	/experiments/knapen_AOT/AOT_stimuli/rescaled_final/1128_rv.mp4	0.0	99.12672924995422	2.5006070137023926
9	82.53749704360962	pulse	1	t		7.0	2.5	/experiments/knapen_AOT/AOT_stimuli/rescaled_final/1128_rv.mp4	0.0	99.51883316040039	
9	84.13762211799622	pulse	1	t		7.0	2.5	/experiments/knapen_AOT/AOT_stimuli/rescaled_final/1128_rv.mp4	0.0	101.11895823478699	
9	84.64600014686584	fix_post	2		12	7.0	2.5	/experiments/knapen_AOT/AOT_stimuli/rescaled_final/1128_rv.mp4	0.0	101.62733626365662	0.09982490539550781
10	84.74582505226135	fix_pre	0		120	8.0	2.5	/experiments/knapen_AOT/AOT_stimuli/rescaled_final/0578_fw.mp4	0.0	101.72716116905212	1.000128984451294
10	85.73778510093689	pulse	0	t		8.0	2.5	/experiments/knapen_AOT/AOT_stimuli/rescaled_final/0578_fw.mp4	0.0	102.71912121772766	
10	85.74595403671265	movie	1		243	8.0	2.5	/experiments/knapen_AOT/AOT_stimuli/rescaled_final/0578_fw.mp4	0.0	102.72729015350342	2.5087080001831055
10	87.33938217163086	pulse	1	t		8.0	2.5	/experiments/knapen_AOT/AOT_stimuli/rescaled_final/0578_fw.mp4	0.0	104.32071828842163	
10	88.25466203689575	fix_post	2		12	8.0	2.5	/experiments/knapen_AOT/AOT_stimuli/rescaled_final/0578_fw.mp4	0.0	105.23599815368652	0.0999901294708252
11	88.35465216636658	fix_pre	0		120	9.0	2.5	/experiments/knapen_AOT/AOT_stimuli/rescaled_final/0554_rv.mp4	0.0	105.33598828315735	1.0001699924468994
11	88.93824601173401	pulse	0	t		9.0	2.5	/experiments/knapen_AOT/AOT_stimuli/rescaled_final/0554_rv.mp4	0.0	105.91958212852478	
11	89.35482215881348	movie	1		242	9.0	2.5	/experiments/knapen_AOT/AOT_stimuli/rescaled_final/0554_rv.mp4	0.0	106.33615827560425	2.500562906265259
11	90.53868508338928	pulse	1	t		9.0	2.5	/experiments/knapen_AOT/AOT_stimuli/rescaled_final/0554_rv.mp4	0.0	107.52002120018005	
11	91.85538506507874	fix_post	2		12	9.0	2.5	/experiments/knapen_AOT/AOT_stimuli/rescaled_final/0554_rv.mp4	0.0	108.8367211818695	0.0998380184173584
12	91.9552230834961	fix_pre	0		120	10.0	2.5	/experiments/knapen_AOT/AOT_stimuli/rescaled_final/0371_rv.mp4	0.0	108.93655920028687	1.0001850128173828
12	92.13880014419556	pulse	0	t		10.0	2.5	/experiments/knapen_AOT/AOT_stimuli/rescaled_final/0371_rv.mp4	0.0	109.12013626098633	
12	92.95540809631348	movie	1		243	10.0	2.5	/experiments/knapen_AOT/AOT_stimuli/rescaled_final/0371_rv.mp4	0.0	109.93674421310425	2.500321865081787
12	93.73908400535583	pulse	1	t		10.0	2.5	/experiments/knapen_AOT/AOT_stimuli/rescaled_final/0371_rv.mp4	0.0	110.7204201221466	
12	95.33905696868896	pulse	1	t		10.0	2.5	/experiments/knapen_AOT/AOT_stimuli/rescaled_final/0371_rv.mp4	0.0	112.32039308547974	
12	95.45572996139526	fix_post	2		12	10.0	2.5	/experiments/knapen_AOT/AOT_stimuli/rescaled_final/0371_rv.mp4	0.0	112.43706607818604	0.1000370979309082
13	95.55576705932617	fix_pre	0		119	11.0	2.5	/experiments/knapen_AOT/AOT_stimuli/rescaled_final/0364_fw.mp4	0.0	112.53710317611694	0.9918041229248047
13	96.54757118225098	movie	1		244	11.0	2.5	/experiments/knapen_AOT/AOT_stimuli/rescaled_final/0364_fw.mp4	0.0	113.52890729904175	2.500356912612915
13	96.93957495689392	pulse	1	t		11.0	2.5	/experiments/knapen_AOT/AOT_stimuli/rescaled_final/0364_fw.mp4	0.0	113.92091107368469	
13	98.5324010848999	pulse	1	t		11.0	2.5	/experiments/knapen_AOT/AOT_stimuli/rescaled_final/0364_fw.mp4	0.0	115.51373720169067	
13	99.04792809486389	fix_post	2		12	11.0	2.5	/experiments/knapen_AOT/AOT_stimuli/rescaled_final/0364_fw.mp4	0.0	116.02926421165466	0.10001802444458008
14	99.14794611930847	fix_pre	0		116	12.0	2.5	/experiments/knapen_AOT/AOT_stimuli/rescaled_final/0316_rv.mp4	0.0	116.12928223609924	1.000196933746338
14	100.13254404067993	pulse	0	t		12.0	2.5	/experiments/knapen_AOT/AOT_stimuli/rescaled_final/0316_rv.mp4	0.0	117.1138801574707	
14	100.14814305305481	movie	1		245	12.0	2.5	/experiments/knapen_AOT/AOT_stimuli/rescaled_final/0316_rv.mp4	0.0	117.12947916984558	2.5086429119110107
14	101.7408390045166	pulse	1	t		12.0	2.5	/experiments/knapen_AOT/AOT_stimuli/rescaled_final/0316_rv.mp4	0.0	118.72217512130737	
14	102.65678596496582	fix_post	2		12	12.0	2.5	/experiments/knapen_AOT/AOT_stimuli/rescaled_final/0316_rv.mp4	0.0	119.63812208175659	0.10003805160522461
15	102.75682401657104	fix_pre	0		120	13.0	2.5	/experiments/knapen_AOT/AOT_stimuli/rescaled_final/2163_rv.mp4	0.0	119.73816013336182	1.0001261234283447
15	103.33217096328735	pulse	0	t		13.0	2.5	/experiments/knapen_AOT/AOT_stimuli/rescaled_final/2163_rv.mp4	0.0	120.31350708007812	
15	103.75695013999939	movie	1		244	13.0	2.5	/experiments/knapen_AOT/AOT_stimuli/rescaled_final/2163_rv.mp4	0.0	120.73828625679016	2.500403881072998
15	104.93314909934998	pulse	1	t		13.0	2.5	/experiments/knapen_AOT/AOT_stimuli/rescaled_final/2163_rv.mp4	0.0	121.91448521614075	
15	106.25735402107239	fix_post	2		12	13.0	2.5	/experiments/knapen_AOT/AOT_stimuli/rescaled_final/2163_rv.mp4	0.0	123.23869013786316	0.1000361442565918
16	106.35739016532898	fix_pre	0		120	14.0	2.5	blank	1.0	123.33872628211975	1.0001368522644043
16	106.53259897232056	pulse	0	t		14.0	2.5	blank	1.0	123.51393508911133	
16	107.35752701759338	movie	1		299	14.0	2.5	blank	1.0	124.33886313438416	2.492056131362915
16	108.1328649520874	pulse	1	t		14.0	2.5	blank	1.0	125.11420106887817	
16	109.73307204246521	pulse	1	t		14.0	2.5	blank	1.0	126.71440815925598	
16	109.8495831489563	fix_post	2		12	14.0	2.5	blank	1.0	126.83091926574707	0.09999990463256836
17	109.94958305358887	fix_pre	0		120	15.0	2.5	/experiments/knapen_AOT/AOT_stimuli/rescaled_final/0855_rv.mp4	0.0	126.93091917037964	1.000128984451294
17	110.94971203804016	movie	1		243	15.0	2.5	/experiments/knapen_AOT/AOT_stimuli/rescaled_final/0855_rv.mp4	0.0	127.93104815483093	2.500458002090454
17	111.33400511741638	pulse	1	t		15.0	2.5	/experiments/knapen_AOT/AOT_stimuli/rescaled_final/0855_rv.mp4	0.0	128.31534123420715	
17	112.93350100517273	pulse	1	t		15.0	2.5	/experiments/knapen_AOT/AOT_stimuli/rescaled_final/0855_rv.mp4	0.0	129.9148371219635	
17	113.45017004013062	fix_post	2		12	15.0	2.5	/experiments/knapen_AOT/AOT_stimuli/rescaled_final/0855_rv.mp4	0.0	130.4315061569214	0.09995198249816895
18	113.55012202262878	fix_pre	0		119	16.0	2.5	/experiments/knapen_AOT/AOT_stimuli/rescaled_final/1825_fw.mp4	0.0	130.53145813941956	0.9917850494384766
18	114.53381109237671	pulse	0	t		16.0	2.5	/experiments/knapen_AOT/AOT_stimuli/rescaled_final/1825_fw.mp4	0.0	131.51514720916748	
18	114.54190707206726	movie	1		243	16.0	2.5	/experiments/knapen_AOT/AOT_stimuli/rescaled_final/1825_fw.mp4	0.0	131.52324318885803	2.508784055709839
18	116.134770154953	pulse	1	t		16.0	2.5	/experiments/knapen_AOT/AOT_stimuli/rescaled_final/1825_fw.mp4	0.0	133.11610627174377	
18	117.0506911277771	fix_post	2		12	16.0	2.5	/experiments/knapen_AOT/AOT_stimuli/rescaled_final/1825_fw.mp4	0.0	134.03202724456787	0.10001897811889648
19	117.150710105896	fix_pre	0		120	17.0	2.5	/experiments/knapen_AOT/AOT_stimuli/rescaled_final/1448_rv.mp4	0.0	134.13204622268677	1.0000970363616943
19	117.73434615135193	pulse	0	t		17.0	2.5	/experiments/knapen_AOT/AOT_stimuli/rescaled_final/1448_rv.mp4	0.0	134.7156822681427	
19	118.15080714225769	movie	1		243	17.0	2.5	/experiments/knapen_AOT/AOT_stimuli/rescaled_final/1448_rv.mp4	0.0	135.13214325904846	2.500375986099243
19	119.33465695381165	pulse	1	t		17.0	2.5	/experiments/knapen_AOT/AOT_stimuli/rescaled_final/1448_rv.mp4	0.0	136.31599307060242	
19	120.65118312835693	fix_post	2		12	17.0	2.5	/experiments/knapen_AOT/AOT_stimuli/rescaled_final/1448_rv.mp4	0.0	137.6325192451477	0.10004496574401855
20	120.75122809410095	fix_pre	0		120	18.0	2.5	/experiments/knapen_AOT/AOT_stimuli/rescaled_final/0364_fw.mp4	0.0	137.73256421089172	1.000128984451294
20	120.93470215797424	pulse	0	t		18.0	2.5	/experiments/knapen_AOT/AOT_stimuli/rescaled_final/0364_fw.mp4	0.0	137.91603827476501	
20	121.75135707855225	movie	1		244	18.0	2.5	/experiments/knapen_AOT/AOT_stimuli/rescaled_final/0364_fw.mp4	0.0	138.73269319534302	2.5003318786621094
20	122.53502297401428	pulse	1	t		18.0	2.5	/experiments/knapen_AOT/AOT_stimuli/rescaled_final/0364_fw.mp4	0.0	139.51635909080505	
20	124.13527202606201	pulse	1	t		18.0	2.5	/experiments/knapen_AOT/AOT_stimuli/rescaled_final/0364_fw.mp4	0.0	141.11660814285278	
20	124.25168895721436	fix_post	2		12	18.0	2.5	/experiments/knapen_AOT/AOT_stimuli/rescaled_final/0364_fw.mp4	0.0	141.23302507400513	0.100067138671875
21	124.35175609588623	fix_pre	0		120	19.0	2.5	blank	1.0	141.333092212677	1.000096082687378
21	125.35185217857361	movie	1		299	19.0	2.5	blank	1.0	142.33318829536438	2.4920668601989746
21	125.73550796508789	pulse	1	t		19.0	2.5	blank	1.0	142.71684408187866	
21	127.33572816848755	pulse	1	t		19.0	2.5	blank	1.0	144.31706428527832	
21	127.84391903877258	fix_post	2		12	19.0	2.5	blank	1.0	144.82525515556335	0.09999203681945801
22	127.94391107559204	fix_pre	0		120	20.0	2.5	/experiments/knapen_AOT/AOT_stimuli/rescaled_final/0832_rv.mp4	0.0	144.9252471923828	1.000169038772583
22	128.9359929561615	pulse	0	t		20.0	2.5	/experiments/knapen_AOT/AOT_stimuli/rescaled_final/0832_rv.mp4	0.0	145.91732907295227	
22	128.94408011436462	movie	1		243	20.0	2.5	/experiments/knapen_AOT/AOT_stimuli/rescaled_final/0832_rv.mp4	0.0	145.9254162311554	2.508699893951416
22	130.53749108314514	pulse	1	t		20.0	2.5	/experiments/knapen_AOT/AOT_stimuli/rescaled_final/0832_rv.mp4	0.0	147.5188271999359	
22	131.45278000831604	fix_post	2		12	20.0	2.5	/experiments/knapen_AOT/AOT_stimuli/rescaled_final/0832_rv.mp4	0.0	148.4341161251068	0.1000521183013916
23	131.55283212661743	fix_pre	0		120	21.0	2.5	/experiments/knapen_AOT/AOT_stimuli/rescaled_final/1318_rv.mp4	0.0	148.5341682434082	1.0001039505004883
23	132.1364140510559	pulse	0	t		21.0	2.5	/experiments/knapen_AOT/AOT_stimuli/rescaled_final/1318_rv.mp4	0.0	149.11775016784668	
23	132.55293607711792	movie	1		242	21.0	2.5	/experiments/knapen_AOT/AOT_stimuli/rescaled_final/1318_rv.mp4	0.0	149.5342721939087	2.500654935836792
23	133.73681116104126	pulse	1	t		21.0	2.5	/experiments/knapen_AOT/AOT_stimuli/rescaled_final/1318_rv.mp4	0.0	150.71814727783203	
23	135.0535910129547	fix_post	2		12	21.0	2.5	/experiments/knapen_AOT/AOT_stimuli/rescaled_final/1318_rv.mp4	0.0	152.03492712974548	0.09979701042175293
24	135.15338802337646	fix_pre	0		120	22.0	2.5	/experiments/knapen_AOT/AOT_stimuli/rescaled_final/1389_rv.mp4	0.0	152.13472414016724	1.0001461505889893
24	135.33695101737976	pulse	0	t		22.0	2.5	/experiments/knapen_AOT/AOT_stimuli/rescaled_final/1389_rv.mp4	0.0	152.31828713417053	
24	136.15353417396545	movie	1		242	22.0	2.5	/experiments/knapen_AOT/AOT_stimuli/rescaled_final/1389_rv.mp4	0.0	153.13487029075623	2.500471830368042
24	136.93707299232483	pulse	1	t		22.0	2.5	/experiments/knapen_AOT/AOT_stimuli/rescaled_final/1389_rv.mp4	0.0	153.9184091091156	
24	138.53813314437866	pulse	1	t		22.0	2.5	/experiments/knapen_AOT/AOT_stimuli/rescaled_final/1389_rv.mp4	0.0	155.51946926116943	
24	138.6540060043335	fix_post	2		12	22.0	2.5	/experiments/knapen_AOT/AOT_stimuli/rescaled_final/1389_rv.mp4	0.0	155.63534212112427	0.09984803199768066
25	138.75385403633118	fix_pre	0		120	23.0	2.5	/experiments/knapen_AOT/AOT_stimuli/rescaled_final/1848_rv.mp4	0.0	155.73519015312195	1.0001609325408936
25	139.75401496887207	movie	1		241	23.0	2.5	/experiments/knapen_AOT/AOT_stimuli/rescaled_final/1848_rv.mp4	0.0	156.73535108566284	2.4921061992645264
25	140.13908410072327	pulse	1	t		23.0	2.5	/experiments/knapen_AOT/AOT_stimuli/rescaled_final/1848_rv.mp4	0.0	157.12042021751404	
25	141.7378990650177	pulse	1	t		23.0	2.5	/experiments/knapen_AOT/AOT_stimuli/rescaled_final/1848_rv.mp4	0.0	158.71923518180847	
25	142.2461211681366	fix_post	2		12	23.0	2.5	/experiments/knapen_AOT/AOT_stimuli/rescaled_final/1848_rv.mp4	0.0	159.22745728492737	0.09995079040527344
26	142.34607195854187	fix_pre	0		120	24.0	2.5	/experiments/knapen_AOT/AOT_stimuli/rescaled_final/1148_rv.mp4	0.0	159.32740807533264	1.0001270771026611
26	143.3381290435791	pulse	0	t		24.0	2.5	/experiments/knapen_AOT/AOT_stimuli/rescaled_final/1148_rv.mp4	0.0	160.31946516036987	
26	143.34619903564453	movie	1		243	24.0	2.5	/experiments/knapen_AOT/AOT_stimuli/rescaled_final/1148_rv.mp4	0.0	160.3275351524353	2.508774995803833
26	144.93905115127563	pulse	1	t		24.0	2.5	/experiments/knapen_AOT/AOT_stimuli/rescaled_final/1148_rv.mp4	0.0	161.9203872680664	
26	145.85497403144836	fix_post	2		12	24.0	2.5	/experiments/knapen_AOT/AOT_stimuli/rescaled_final/1148_rv.mp4	0.0	162.83631014823914	0.09996414184570312
27	145.95493817329407	fix_pre	0		120	25.0	2.5	/experiments/knapen_AOT/AOT_stimuli/rescaled_final/1068_rv.mp4	0.0	162.93627429008484	1.0001578330993652
27	146.5386471748352	pulse	0	t		25.0	2.5	/experiments/knapen_AOT/AOT_stimuli/rescaled_final/1068_rv.mp4	0.0	163.51998329162598	
27	146.95509600639343	movie	1		243	25.0	2.5	/experiments/knapen_AOT/AOT_stimuli/rescaled_final/1068_rv.mp4	0.0	163.9364321231842	2.5004000663757324
27	148.134535074234	pulse	1	t		25.0	2.5	/experiments/knapen_AOT/AOT_stimuli/rescaled_final/1068_rv.mp4	0.0	165.11587119102478	
27	149.45549607276917	fix_post	2		12	25.0	2.5	/experiments/knapen_AOT/AOT_stimuli/rescaled_final/1068_rv.mp4	0.0	166.43683218955994	0.10003495216369629
28	149.55553102493286	fix_pre	0		120	26.0	2.5	blank	1.0	166.53686714172363	1.0000801086425781
28	149.73155617713928	pulse	0	t		26.0	2.5	blank	1.0	166.71289229393005	
28	150.55561113357544	movie	1		300	26.0	2.5	blank	1.0	167.5369472503662	2.5003600120544434
28	151.33179903030396	pulse	1	t		26.0	2.5	blank	1.0	168.31313514709473	
28	152.9320559501648	pulse	1	t		26.0	2.5	blank	1.0	169.91339206695557	
28	153.05597114562988	fix_post	2		12	26.0	2.5	blank	1.0	170.03730726242065	0.1000509262084961
29	153.15602207183838	fix_pre	0		120	27.0	2.5	/experiments/knapen_AOT/AOT_stimuli/rescaled_final/1335_rv.mp4	0.0	170.13735818862915	1.0001239776611328
29	154.1561460494995	movie	1		241	27.0	2.5	/experiments/knapen_AOT/AOT_stimuli/rescaled_final/1335_rv.mp4	0.0	171.13748216629028	2.492142915725708
29	154.54023218154907	pulse	1	t		27.0	2.5	/experiments/knapen_AOT/AOT_stimuli/rescaled_final/1335_rv.mp4	0.0	171.52156829833984	
29	156.13177609443665	pulse	1	t		27.0	2.5	/experiments/knapen_AOT/AOT_stimuli/rescaled_final/1335_rv.mp4	0.0	173.11311221122742	
29	156.64828896522522	fix_post	2		12	27.0	2.5	/experiments/knapen_AOT/AOT_stimuli/rescaled_final/1335_rv.mp4	0.0	173.629625082016	0.09995102882385254
30	156.74823999404907	fix_pre	0		119	28.0	2.5	/experiments/knapen_AOT/AOT_stimuli/rescaled_final/1724_fw.mp4	0.0	173.72957611083984	0.9917869567871094
30	157.73183417320251	pulse	0	t		28.0	2.5	/experiments/knapen_AOT/AOT_stimuli/rescaled_final/1724_fw.mp4	0.0	174.7131702899933	
30	157.74002695083618	movie	1		244	28.0	2.5	/experiments/knapen_AOT/AOT_stimuli/rescaled_final/1724_fw.mp4	0.0	174.72136306762695	2.5087032318115234
30	159.33290815353394	pulse	1	t		28.0	2.5	/experiments/knapen_AOT/AOT_stimuli/rescaled_final/1724_fw.mp4	0.0	176.3142442703247	
30	160.2487301826477	fix_post	2		12	28.0	2.5	/experiments/knapen_AOT/AOT_stimuli/rescaled_final/1724_fw.mp4	0.0	177.23006629943848	0.10005593299865723
31	160.34878611564636	fix_pre	0		120	29.0	2.5	/experiments/knapen_AOT/AOT_stimuli/rescaled_final/1848_fw.mp4	0.0	177.33012223243713	1.0001280307769775
31	160.93245100975037	pulse	0	t		29.0	2.5	/experiments/knapen_AOT/AOT_stimuli/rescaled_final/1848_fw.mp4	0.0	177.91378712654114	
31	161.34891414642334	movie	1		238	29.0	2.5	/experiments/knapen_AOT/AOT_stimuli/rescaled_final/1848_fw.mp4	0.0	178.3302502632141	2.5005478858947754
31	162.5326690673828	pulse	1	t		29.0	2.5	/experiments/knapen_AOT/AOT_stimuli/rescaled_final/1848_fw.mp4	0.0	179.51400518417358	
31	163.84946203231812	fix_post	2		12	29.0	2.5	/experiments/knapen_AOT/AOT_stimuli/rescaled_final/1848_fw.mp4	0.0	180.8307981491089	0.09984302520751953
32	163.94930505752563	fix_pre	0		120	30.0	2.5	/experiments/knapen_AOT/AOT_stimuli/rescaled_final/2151_rv.mp4	0.0	180.9306411743164	1.000162124633789
32	164.13291096687317	pulse	0	t		30.0	2.5	/experiments/knapen_AOT/AOT_stimuli/rescaled_final/2151_rv.mp4	0.0	181.11424708366394	
32	164.94946718215942	movie	1		243	30.0	2.5	/experiments/knapen_AOT/AOT_stimuli/rescaled_final/2151_rv.mp4	0.0	181.9308032989502	2.500356912612915
32	165.7330710887909	pulse	1	t		30.0	2.5	/experiments/knapen_AOT/AOT_stimuli/rescaled_final/2151_rv.mp4	0.0	182.71440720558167	
32	167.33317518234253	pulse	1	t		30.0	2.5	/experiments/knapen_AOT/AOT_stimuli/rescaled_final/2151_rv.mp4	0.0	184.3145112991333	
32	167.44982409477234	fix_post	2		12	30.0	2.5	/experiments/knapen_AOT/AOT_stimuli/rescaled_final/2151_rv.mp4	0.0	184.4311602115631	0.1000509262084961
33	167.54987502098083	fix_pre	0		119	31.0	2.5	/experiments/knapen_AOT/AOT_stimuli/rescaled_final/1776_rv.mp4	0.0	184.5312111377716	0.9918091297149658
33	168.5416841506958	movie	1		242	31.0	2.5	/experiments/knapen_AOT/AOT_stimuli/rescaled_final/1776_rv.mp4	0.0	185.52302026748657	2.500454902648926
33	168.93364715576172	pulse	1	t		31.0	2.5	/experiments/knapen_AOT/AOT_stimuli/rescaled_final/1776_rv.mp4	0.0	185.9149832725525	
33	170.53381514549255	pulse	1	t		31.0	2.5	/experiments/knapen_AOT/AOT_stimuli/rescaled_final/1776_rv.mp4	0.0	187.51515126228333	
33	171.04213905334473	fix_post	2		12	31.0	2.5	/experiments/knapen_AOT/AOT_stimuli/rescaled_final/1776_rv.mp4	0.0	188.0234751701355	0.10000491142272949
34	171.14214396476746	fix_pre	0		120	32.0	2.5	/experiments/knapen_AOT/AOT_stimuli/rescaled_final/0500_rv.mp4	0.0	188.12348008155823	1.0000832080841064
34	172.13410711288452	pulse	0	t		32.0	2.5	/experiments/knapen_AOT/AOT_stimuli/rescaled_final/0500_rv.mp4	0.0	189.1154432296753	
34	172.14222717285156	movie	1		244	32.0	2.5	/experiments/knapen_AOT/AOT_stimuli/rescaled_final/0500_rv.mp4	0.0	189.12356328964233	2.508661985397339
34	173.73501300811768	pulse	1	t		32.0	2.5	/experiments/knapen_AOT/AOT_stimuli/rescaled_final/0500_rv.mp4	0.0	190.71634912490845	
34	174.6508891582489	fix_post	2		12	32.0	2.5	/experiments/knapen_AOT/AOT_stimuli/rescaled_final/0500_rv.mp4	0.0	191.63222527503967	0.10003995895385742
35	174.75092911720276	fix_pre	0		120	33.0	2.5	/experiments/knapen_AOT/AOT_stimuli/rescaled_final/0163_fw.mp4	0.0	191.73226523399353	1.0001540184020996
35	175.33456802368164	pulse	0	t		33.0	2.5	/experiments/knapen_AOT/AOT_stimuli/rescaled_final/0163_fw.mp4	0.0	192.3159041404724	
35	175.75108313560486	movie	1		242	33.0	2.5	/experiments/knapen_AOT/AOT_stimuli/rescaled_final/0163_fw.mp4	0.0	192.73241925239563	2.5005698204040527
35	176.9348759651184	pulse	1	t		33.0	2.5	/experiments/knapen_AOT/AOT_stimuli/rescaled_final/0163_fw.mp4	0.0	193.91621208190918	
35	178.2516529560089	fix_post	2		12	33.0	2.5	/experiments/knapen_AOT/AOT_stimuli/rescaled_final/0163_fw.mp4	0.0	195.23298907279968	0.09982800483703613
36	178.35148096084595	fix_pre	0		120	34.0	2.5	/experiments/knapen_AOT/AOT_stimuli/rescaled_final/1891_rv.mp4	0.0	195.33281707763672	1.0000979900360107
36	178.53497910499573	pulse	0	t		34.0	2.5	/experiments/knapen_AOT/AOT_stimuli/rescaled_final/1891_rv.mp4	0.0	195.5163152217865	
36	179.35157895088196	movie	1		243	34.0	2.5	/experiments/knapen_AOT/AOT_stimuli/rescaled_final/1891_rv.mp4	0.0	196.33291506767273	2.5004870891571045
36	180.13521003723145	pulse	1	t		34.0	2.5	/experiments/knapen_AOT/AOT_stimuli/rescaled_final/1891_rv.mp4	0.0	197.11654615402222	
36	181.73533296585083	pulse	1	t		34.0	2.5	/experiments/knapen_AOT/AOT_stimuli/rescaled_final/1891_rv.mp4	0.0	198.7166690826416	
36	181.85206604003906	fix_post	2		12	34.0	2.5	/experiments/knapen_AOT/AOT_stimuli/rescaled_final/1891_rv.mp4	0.0	198.83340215682983	0.09996891021728516
37	181.95203495025635	fix_pre	0		120	35.0	2.5	blank	1.0	198.93337106704712	1.0001220703125
37	182.95215702056885	movie	1		299	35.0	2.5	blank	1.0	199.93349313735962	2.492043972015381
37	183.3357391357422	pulse	1	t		35.0	2.5	blank	1.0	200.31707525253296	
37	184.93593502044678	pulse	1	t		35.0	2.5	blank	1.0	201.91727113723755	
37	185.44420099258423	fix_post	2		12	35.0	2.5	blank	1.0	202.425537109375	0.09999799728393555
38	185.54419898986816	fix_pre	0		120	36.0	2.5	/experiments/knapen_AOT/AOT_stimuli/rescaled_final/1115_rv.mp4	0.0	202.52553510665894	1.0001721382141113
38	186.53617811203003	pulse	0	t		36.0	2.5	/experiments/knapen_AOT/AOT_stimuli/rescaled_final/1115_rv.mp4	0.0	203.5175142288208	
38	186.54437112808228	movie	1		243	36.0	2.5	/experiments/knapen_AOT/AOT_stimuli/rescaled_final/1115_rv.mp4	0.0	203.52570724487305	2.508733034133911
38	188.1376931667328	pulse	1	t		36.0	2.5	/experiments/knapen_AOT/AOT_stimuli/rescaled_final/1115_rv.mp4	0.0	205.11902928352356	
38	189.0531041622162	fix_post	2		12	36.0	2.5	/experiments/knapen_AOT/AOT_stimuli/rescaled_final/1115_rv.mp4	0.0	206.03444027900696	0.10001087188720703
39	189.1531150341034	fix_pre	0		120	37.0	2.5	/experiments/knapen_AOT/AOT_stimuli/rescaled_final/0832_fw.mp4	0.0	206.13445115089417	1.0001089572906494
39	189.73676204681396	pulse	0	t		37.0	2.5	/experiments/knapen_AOT/AOT_stimuli/rescaled_final/0832_fw.mp4	0.0	206.71809816360474	
39	190.15322399139404	movie	1		242	37.0	2.5	/experiments/knapen_AOT/AOT_stimuli/rescaled_final/0832_fw.mp4	0.0	207.13456010818481	2.500349998474121
39	191.3369951248169	pulse	1	t		37.0	2.5	/experiments/knapen_AOT/AOT_stimuli/rescaled_final/0832_fw.mp4	0.0	208.31833124160767	
39	192.65357398986816	fix_post	2		12	37.0	2.5	/experiments/knapen_AOT/AOT_stimuli/rescaled_final/0832_fw.mp4	0.0	209.63491010665894	0.10005402565002441
40	192.7536280155182	fix_pre	0		120	38.0	2.5	/experiments/knapen_AOT/AOT_stimuli/rescaled_final/0221_fw.mp4	0.0	209.73496413230896	1.0001251697540283
40	192.93711805343628	pulse	0	t		38.0	2.5	/experiments/knapen_AOT/AOT_stimuli/rescaled_final/0221_fw.mp4	0.0	209.91845417022705	
40	193.75375318527222	movie	1		242	38.0	2.5	/experiments/knapen_AOT/AOT_stimuli/rescaled_final/0221_fw.mp4	0.0	210.735089302063	2.5005669593811035
40	194.53748106956482	pulse	1	t		38.0	2.5	/experiments/knapen_AOT/AOT_stimuli/rescaled_final/0221_fw.mp4	0.0	211.5188171863556	
40	196.1374659538269	pulse	1	t		38.0	2.5	/experiments/knapen_AOT/AOT_stimuli/rescaled_final/0221_fw.mp4	0.0	213.11880207061768	
40	196.25432014465332	fix_post	2		12	38.0	2.5	/experiments/knapen_AOT/AOT_stimuli/rescaled_final/0221_fw.mp4	0.0	213.2356562614441	0.09983301162719727
41	196.35415315628052	fix_pre	0		119	39.0	2.5	/experiments/knapen_AOT/AOT_stimuli/rescaled_final/0543_fw.mp4	0.0	213.3354892730713	0.9918129444122314
41	197.34596610069275	movie	1		243	39.0	2.5	/experiments/knapen_AOT/AOT_stimuli/rescaled_final/0543_fw.mp4	0.0	214.32730221748352	2.500606060028076
41	197.73802495002747	pulse	1	t		39.0	2.5	/experiments/knapen_AOT/AOT_stimuli/rescaled_final/0543_fw.mp4	0.0	214.71936106681824	
41	199.33815598487854	pulse	1	t		39.0	2.5	/experiments/knapen_AOT/AOT_stimuli/rescaled_final/0543_fw.mp4	0.0	216.3194921016693	
41	199.84657216072083	fix_post	2		12	39.0	2.5	/experiments/knapen_AOT/AOT_stimuli/rescaled_final/0543_fw.mp4	0.0	216.8279082775116	0.09978199005126953
42	199.9463541507721	fix_pre	0		120	40.0	2.5	/experiments/knapen_AOT/AOT_stimuli/rescaled_final/1344_rv.mp4	0.0	216.92769026756287	1.0001029968261719
42	200.93842196464539	pulse	0	t		40.0	2.5	/experiments/knapen_AOT/AOT_stimuli/rescaled_final/1344_rv.mp4	0.0	217.91975808143616	
42	200.94645714759827	movie	1		244	40.0	2.5	/experiments/knapen_AOT/AOT_stimuli/rescaled_final/1344_rv.mp4	0.0	217.92779326438904	2.5088019371032715
42	202.53984308242798	pulse	1	t		40.0	2.5	/experiments/knapen_AOT/AOT_stimuli/rescaled_final/1344_rv.mp4	0.0	219.52117919921875	
42	203.45525908470154	fix_post	2		12	40.0	2.5	/experiments/knapen_AOT/AOT_stimuli/rescaled_final/1344_rv.mp4	0.0	220.4365952014923	0.09995508193969727
43	203.55521416664124	fix_pre	0		120	41.0	2.5	/experiments/knapen_AOT/AOT_stimuli/rescaled_final/0534_rv.mp4	0.0	220.536550283432	1.0001628398895264
43	204.1388840675354	pulse	0	t		41.0	2.5	/experiments/knapen_AOT/AOT_stimuli/rescaled_final/0534_rv.mp4	0.0	221.12022018432617	
43	204.55537700653076	movie	1		244	41.0	2.5	/experiments/knapen_AOT/AOT_stimuli/rescaled_final/0534_rv.mp4	0.0	221.53671312332153	2.5003411769866943
43	205.73489999771118	pulse	1	t		41.0	2.5	/experiments/knapen_AOT/AOT_stimuli/rescaled_final/0534_rv.mp4	0.0	222.71623611450195	
43	207.05571818351746	fix_post	2		12	41.0	2.5	/experiments/knapen_AOT/AOT_stimuli/rescaled_final/0534_rv.mp4	0.0	224.03705430030823	0.10002994537353516
44	207.155748128891	fix_pre	0		120	42.0	2.5	blank	1.0	224.13708424568176	1.000133991241455
44	207.33931612968445	pulse	0	t		42.0	2.5	blank	1.0	224.32065224647522	
44	208.15588212013245	movie	1		300	42.0	2.5	blank	1.0	225.13721823692322	2.500427007675171
44	208.93953895568848	pulse	1	t		42.0	2.5	blank	1.0	225.92087507247925	
44	210.53230500221252	pulse	1	t		42.0	2.5	blank	1.0	227.5136411190033	
44	210.65630912780762	fix_post	2		12	42.0	2.5	blank	1.0	227.6376452445984	0.10003089904785156
45	210.75634002685547	fix_pre	0		120	43.0	2.5	/experiments/knapen_AOT/AOT_stimuli/rescaled_final/1039_rv.mp4	0.0	227.73767614364624	1.0000779628753662
45	211.75641798973083	movie	1		241	43.0	2.5	/experiments/knapen_AOT/AOT_stimuli/rescaled_final/1039_rv.mp4	0.0	228.7377541065216	2.492211103439331
45	212.14087009429932	pulse	1	t		43.0	2.5	/experiments/knapen_AOT/AOT_stimuli/rescaled_final/1039_rv.mp4	0.0	229.1222062110901	
45	213.73297214508057	pulse	1	t		43.0	2.5	/experiments/knapen_AOT/AOT_stimuli/rescaled_final/1039_rv.mp4	0.0	230.71430826187134	
45	214.24862909317017	fix_post	2		12	43.0	2.5	/experiments/knapen_AOT/AOT_stimuli/rescaled_final/1039_rv.mp4	0.0	231.22996520996094	0.09987592697143555
46	214.3485050201416	fix_pre	0		119	44.0	2.5	/experiments/knapen_AOT/AOT_stimuli/rescaled_final/1335_fw.mp4	0.0	231.32984113693237	0.9918420314788818
46	215.33232808113098	pulse	0	t		44.0	2.5	/experiments/knapen_AOT/AOT_stimuli/rescaled_final/1335_fw.mp4	0.0	232.31366419792175	
46	215.34034705162048	movie	1		243	44.0	2.5	/experiments/knapen_AOT/AOT_stimuli/rescaled_final/1335_fw.mp4	0.0	232.32168316841125	2.5087170600891113
46	216.93304300308228	pulse	1	t		44.0	2.5	/experiments/knapen_AOT/AOT_stimuli/rescaled_final/1335_fw.mp4	0.0	233.91437911987305	
46	217.8490641117096	fix_post	2		12	44.0	2.5	/experiments/knapen_AOT/AOT_stimuli/rescaled_final/1335_fw.mp4	0.0	234.83040022850037	0.09996604919433594
47	217.94903016090393	fix_pre	0		120	45.0	2.5	/experiments/knapen_AOT/AOT_stimuli/rescaled_final/0054_fw.mp4	0.0	234.9303662776947	1.0001749992370605
47	218.5327010154724	pulse	0	t		45.0	2.5	/experiments/knapen_AOT/AOT_stimuli/rescaled_final/0054_fw.mp4	0.0	235.51403713226318	
47	218.949205160141	movie	1		243	45.0	2.5	/experiments/knapen_AOT/AOT_stimuli/rescaled_final/0054_fw.mp4	0.0	235.93054127693176	2.500588893890381
47	220.13309001922607	pulse	1	t		45.0	2.5	/experiments/knapen_AOT/AOT_stimuli/rescaled_final/0054_fw.mp4	0.0	237.11442613601685	
47	221.44979405403137	fix_post	2		12	45.0	2.5	/experiments/knapen_AOT/AOT_stimuli/rescaled_final/0054_fw.mp4	0.0	238.43113017082214	0.09984207153320312
48	221.54963612556458	fix_pre	0		120	46.0	2.5	/experiments/knapen_AOT/AOT_stimuli/rescaled_final/0802_rv.mp4	0.0	238.53097224235535	1.0000989437103271
48	221.73305106163025	pulse	0	t		46.0	2.5	/experiments/knapen_AOT/AOT_stimuli/rescaled_final/0802_rv.mp4	0.0	238.71438717842102	
48	222.5497350692749	movie	1		243	46.0	2.5	/experiments/knapen_AOT/AOT_stimuli/rescaled_final/0802_rv.mp4	0.0	239.53107118606567	2.5005269050598145
48	223.3333351612091	pulse	1	t		46.0	2.5	/experiments/knapen_AOT/AOT_stimuli/rescaled_final/0802_rv.mp4	0.0	240.31467127799988	
48	224.9334101676941	pulse	1	t		46.0	2.5	/experiments/knapen_AOT/AOT_stimuli/rescaled_final/0802_rv.mp4	0.0	241.91474628448486	
48	225.05026197433472	fix_post	2		12	46.0	2.5	/experiments/knapen_AOT/AOT_stimuli/rescaled_final/0802_rv.mp4	0.0	242.0315980911255	0.09983611106872559
49	225.15009808540344	fix_pre	0		116	47.0	2.5	/experiments/knapen_AOT/AOT_stimuli/rescaled_final/0604_rv.mp4	0.0	242.1314342021942	1.0001459121704102
49	226.15024399757385	movie	1		243	47.0	2.5	/experiments/knapen_AOT/AOT_stimuli/rescaled_final/0604_rv.mp4	0.0	243.13158011436462	2.492047071456909
49	226.53456115722656	pulse	1	t		47.0	2.5	/experiments/knapen_AOT/AOT_stimuli/rescaled_final/0604_rv.mp4	0.0	243.51589727401733	
49	228.13404607772827	pulse	1	t		47.0	2.5	/experiments/knapen_AOT/AOT_stimuli/rescaled_final/0604_rv.mp4	0.0	245.11538219451904	
49	228.64229106903076	fix_post	2		12	47.0	2.5	/experiments/knapen_AOT/AOT_stimuli/rescaled_final/0604_rv.mp4	0.0	245.62362718582153	0.10006403923034668
50	228.7423551082611	fix_pre	0		120	48.0	2.5	blank	1.0	245.72369122505188	1.000105857849121
50	229.73432302474976	pulse	0	t		48.0	2.5	blank	1.0	246.71565914154053	
50	229.74246096611023	movie	1		301	48.0	2.5	blank	1.0	246.723797082901	2.5087192058563232
50	231.3345410823822	pulse	1	t		48.0	2.5	blank	1.0	248.31587719917297	
50	232.25118017196655	fix_post	2		12	48.0	2.5	blank	1.0	249.23251628875732	0.10002899169921875
51	232.35120916366577	fix_pre	0		120	49.0	2.5	/experiments/knapen_AOT/AOT_stimuli/rescaled_final/1904_fw.mp4	0.0	249.33254528045654	1.0001399517059326
51	232.9348030090332	pulse	0	t		49.0	2.5	/experiments/knapen_AOT/AOT_stimuli/rescaled_final/1904_fw.mp4	0.0	249.91613912582397	
51	233.3513491153717	movie	1		242	49.0	2.5	/experiments/knapen_AOT/AOT_stimuli/rescaled_final/1904_fw.mp4	0.0	250.33268523216248	2.500584840774536
51	234.5352189540863	pulse	1	t		49.0	2.5	/experiments/knapen_AOT/AOT_stimuli/rescaled_final/1904_fw.mp4	0.0	251.51655507087708	
51	235.85193395614624	fix_post	2		12	49.0	2.5	/experiments/knapen_AOT/AOT_stimuli/rescaled_final/1904_fw.mp4	0.0	252.833270072937	0.09978604316711426
52	235.95171999931335	fix_pre	0		120	50.0	2.5	/experiments/knapen_AOT/AOT_stimuli/rescaled_final/1857_fw.mp4	0.0	252.93305611610413	1.0001420974731445
52	236.1352469921112	pulse	0	t		50.0	2.5	/experiments/knapen_AOT/AOT_stimuli/rescaled_final/1857_fw.mp4	0.0	253.11658310890198	
52	236.9518620967865	movie	1		242	50.0	2.5	/experiments/knapen_AOT/AOT_stimuli/rescaled_final/1857_fw.mp4	0.0	253.93319821357727	2.500498056411743
52	237.73552203178406	pulse	1	t		50.0	2.5	/experiments/knapen_AOT/AOT_stimuli/rescaled_final/1857_fw.mp4	0.0	254.71685814857483	
52	239.3363320827484	pulse	1	t		50.0	2.5	/experiments/knapen_AOT/AOT_stimuli/rescaled_final/1857_fw.mp4	0.0	256.3176681995392	
52	239.45236015319824	fix_post	2		12	50.0	2.5	/experiments/knapen_AOT/AOT_stimuli/rescaled_final/1857_fw.mp4	0.0	256.433696269989	0.09989094734191895
53	239.55225110054016	fix_pre	0		120	51.0	2.5	/experiments/knapen_AOT/AOT_stimuli/rescaled_final/2048_fw.mp4	0.0	256.53358721733093	1.0001630783081055
53	240.55241417884827	movie	1		241	51.0	2.5	/experiments/knapen_AOT/AOT_stimuli/rescaled_final/2048_fw.mp4	0.0	257.53375029563904	2.4921319484710693
53	240.94074296951294	pulse	1	t		51.0	2.5	/experiments/knapen_AOT/AOT_stimuli/rescaled_final/2048_fw.mp4	0.0	257.9220790863037	
53	242.53631210327148	pulse	1	t		51.0	2.5	/experiments/knapen_AOT/AOT_stimuli/rescaled_final/2048_fw.mp4	0.0	259.51764822006226	
53	243.04454612731934	fix_post	2		12	51.0	2.5	/experiments/knapen_AOT/AOT_stimuli/rescaled_final/2048_fw.mp4	0.0	260.0258822441101	0.09994101524353027
54	243.14448714256287	fix_pre	0		120	52.0	2.5	/experiments/knapen_AOT/AOT_stimuli/rescaled_final/1104_rv.mp4	0.0	260.12582325935364	1.00016188621521
54	244.13646912574768	pulse	0	t		52.0	2.5	/experiments/knapen_AOT/AOT_stimuli/rescaled_final/1104_rv.mp4	0.0	261.11780524253845	
54	244.14464902877808	movie	1		244	52.0	2.5	/experiments/knapen_AOT/AOT_stimuli/rescaled_final/1104_rv.mp4	0.0	261.12598514556885	2.5086710453033447
54	245.73720407485962	pulse	1	t		52.0	2.5	/experiments/knapen_AOT/AOT_stimuli/rescaled_final/1104_rv.mp4	0.0	262.7185401916504	
54	246.65332007408142	fix_post	2		12	52.0	2.5	/experiments/knapen_AOT/AOT_stimuli/rescaled_final/1104_rv.mp4	0.0	263.6346561908722	0.10003995895385742
55	246.75336003303528	fix_pre	0		120	53.0	2.5	/experiments/knapen_AOT/AOT_stimuli/rescaled_final/1653_fw.mp4	0.0	263.73469614982605	1.0001521110534668
55	247.3370440006256	pulse	0	t		53.0	2.5	/experiments/knapen_AOT/AOT_stimuli/rescaled_final/1653_fw.mp4	0.0	264.3183801174164	
55	247.75351214408875	movie	1		242	53.0	2.5	/experiments/knapen_AOT/AOT_stimuli/rescaled_final/1653_fw.mp4	0.0	264.7348482608795	2.5005249977111816
55	248.9373161792755	pulse	1	t		53.0	2.5	/experiments/knapen_AOT/AOT_stimuli/rescaled_final/1653_fw.mp4	0.0	265.9186522960663	
55	250.25403714179993	fix_post	2		12	53.0	2.5	/experiments/knapen_AOT/AOT_stimuli/rescaled_final/1653_fw.mp4	0.0	267.2353732585907	0.09989285469055176
56	250.35392999649048	fix_pre	0		120	54.0	2.5	blank	1.0	267.33526611328125	1.0001070499420166
56	250.53748297691345	pulse	0	t		54.0	2.5	blank	1.0	267.5188190937042	
56	251.3540370464325	movie	1		300	54.0	2.5	blank	1.0	268.33537316322327	2.5003809928894043
56	252.13765501976013	pulse	1	t		54.0	2.5	blank	1.0	269.1189911365509	
56	253.73795413970947	pulse	1	t		54.0	2.5	blank	1.0	270.71929025650024	
56	253.8544180393219	fix_post	2		12	54.0	2.5	blank	1.0	270.83575415611267	0.09999513626098633
57	253.95441317558289	fix_pre	0		120	55.0	2.5	/experiments/knapen_AOT/AOT_stimuli/rescaled_final/1153_fw.mp4	0.0	270.93574929237366	1.0001568794250488
57	254.95457005500793	movie	1		243	55.0	2.5	/experiments/knapen_AOT/AOT_stimuli/rescaled_final/1153_fw.mp4	0.0	271.9359061717987	2.4920289516448975
57	255.34229803085327	pulse	1	t		55.0	2.5	/experiments/knapen_AOT/AOT_stimuli/rescaled_final/1153_fw.mp4	0.0	272.32363414764404	
57	256.9384391307831	pulse	1	t		55.0	2.5	/experiments/knapen_AOT/AOT_stimuli/rescaled_final/1153_fw.mp4	0.0	273.91977524757385	
57	257.44659900665283	fix_post	2		12	55.0	2.5	/experiments/knapen_AOT/AOT_stimuli/rescaled_final/1153_fw.mp4	0.0	274.4279351234436	0.1000361442565918
58	257.5466351509094	fix_pre	0		120	56.0	2.5	/experiments/knapen_AOT/AOT_stimuli/rescaled_final/1425_fw.mp4	0.0	274.5279712677002	1.0001440048217773
58	258.538614988327	pulse	0	t		56.0	2.5	/experiments/knapen_AOT/AOT_stimuli/rescaled_final/1425_fw.mp4	0.0	275.5199511051178	
58	258.5467791557312	movie	1		247	56.0	2.5	/experiments/knapen_AOT/AOT_stimuli/rescaled_final/1425_fw.mp4	0.0	275.528115272522	2.5086679458618164
58	260.1395080089569	pulse	1	t		56.0	2.5	/experiments/knapen_AOT/AOT_stimuli/rescaled_final/1425_fw.mp4	0.0	277.1208441257477	
58	261.055447101593	fix_post	2		12	56.0	2.5	/experiments/knapen_AOT/AOT_stimuli/rescaled_final/1425_fw.mp4	0.0	278.0367832183838	0.10002684593200684
59	261.155473947525	fix_pre	0		120	57.0	2.5	/experiments/knapen_AOT/AOT_stimuli/rescaled_final/0788_fw.mp4	0.0	278.1368100643158	1.0001811981201172
59	261.7390880584717	pulse	0	t		57.0	2.5	/experiments/knapen_AOT/AOT_stimuli/rescaled_final/0788_fw.mp4	0.0	278.72042417526245	
59	262.15565514564514	movie	1		243	57.0	2.5	/experiments/knapen_AOT/AOT_stimuli/rescaled_final/0788_fw.mp4	0.0	279.1369912624359	2.5004630088806152
59	263.3395221233368	pulse	1	t		57.0	2.5	/experiments/knapen_AOT/AOT_stimuli/rescaled_final/0788_fw.mp4	0.0	280.32085824012756	
59	264.65611815452576	fix_post	2		12	57.0	2.5	/experiments/knapen_AOT/AOT_stimuli/rescaled_final/0788_fw.mp4	0.0	281.6374542713165	0.09987592697143555
60	264.7559940814972	fix_pre	0		120	58.0	2.5	/experiments/knapen_AOT/AOT_stimuli/rescaled_final/0532_rv.mp4	0.0	281.73733019828796	1.0001640319824219
60	264.93203711509705	pulse	0	t		58.0	2.5	/experiments/knapen_AOT/AOT_stimuli/rescaled_final/0532_rv.mp4	0.0	281.9133732318878	
60	265.7561581134796	movie	1		244	58.0	2.5	/experiments/knapen_AOT/AOT_stimuli/rescaled_final/0532_rv.mp4	0.0	282.7374942302704	2.5003650188446045
60	266.53250098228455	pulse	1	t		58.0	2.5	/experiments/knapen_AOT/AOT_stimuli/rescaled_final/0532_rv.mp4	0.0	283.5138370990753	
60	268.1400411128998	pulse	1	t		58.0	2.5	/experiments/knapen_AOT/AOT_stimuli/rescaled_final/0532_rv.mp4	0.0	285.12137722969055	
60	268.2565231323242	fix_post	2		12	58.0	2.5	/experiments/knapen_AOT/AOT_stimuli/rescaled_final/0532_rv.mp4	0.0	285.237859249115	0.1000359058380127
61	268.35655903816223	fix_pre	0		120	59.0	2.5	/experiments/knapen_AOT/AOT_stimuli/rescaled_final/0238_rv.mp4	0.0	285.337895154953	1.0001730918884277
61	269.35673213005066	movie	1		242	59.0	2.5	/experiments/knapen_AOT/AOT_stimuli/rescaled_final/0238_rv.mp4	0.0	286.33806824684143	2.492224931716919
61	269.7321181297302	pulse	1	t		59.0	2.5	/experiments/knapen_AOT/AOT_stimuli/rescaled_final/0238_rv.mp4	0.0	286.713454246521	
61	271.33233404159546	pulse	1	t		59.0	2.5	/experiments/knapen_AOT/AOT_stimuli/rescaled_final/0238_rv.mp4	0.0	288.31367015838623	
61	271.8489570617676	fix_post	2		12	59.0	2.5	/experiments/knapen_AOT/AOT_stimuli/rescaled_final/0238_rv.mp4	0.0	288.83029317855835	0.09981012344360352
62	271.9487671852112	fix_pre	0		119	60.0	2.5	/experiments/knapen_AOT/AOT_stimuli/rescaled_final/0597_fw.mp4	0.0	288.93010330200195	0.9918038845062256
62	272.9324240684509	pulse	0	t		60.0	2.5	/experiments/knapen_AOT/AOT_stimuli/rescaled_final/0597_fw.mp4	0.0	289.9137601852417	
62	272.9405710697174	movie	1		244	60.0	2.5	/experiments/knapen_AOT/AOT_stimuli/rescaled_final/0597_fw.mp4	0.0	289.9219071865082	2.5087950229644775
62	274.5334851741791	pulse	1	t		60.0	2.5	/experiments/knapen_AOT/AOT_stimuli/rescaled_final/0597_fw.mp4	0.0	291.51482129096985	
62	275.4493660926819	fix_post	2		12	60.0	2.5	/experiments/knapen_AOT/AOT_stimuli/rescaled_final/0597_fw.mp4	0.0	292.43070220947266	0.09992790222167969
63	275.54929399490356	fix_pre	0		120	61.0	2.5	blank	1.0	292.53063011169434	1.0001871585845947
63	276.13289403915405	pulse	0	t		61.0	2.5	blank	1.0	293.1142301559448	
63	276.54948115348816	movie	1		300	61.0	2.5	blank	1.0	293.53081727027893	2.5003418922424316
63	277.7330951690674	pulse	1	t		61.0	2.5	blank	1.0	294.71443128585815	
63	279.0498230457306	fix_post	2		12	61.0	2.5	blank	1.0	296.03115916252136	0.09999704360961914
64	279.1498200893402	fix_pre	0		120	62.0	2.5	/experiments/knapen_AOT/AOT_stimuli/rescaled_final/1104_fw.mp4	0.0	296.131156206131	1.0001580715179443
64	279.3333649635315	pulse	0	t		62.0	2.5	/experiments/knapen_AOT/AOT_stimuli/rescaled_final/1104_fw.mp4	0.0	296.31470108032227	
64	280.14997816085815	movie	1		243	62.0	2.5	/experiments/knapen_AOT/AOT_stimuli/rescaled_final/1104_fw.mp4	0.0	297.1313142776489	2.50038480758667
64	280.9336931705475	pulse	1	t		62.0	2.5	/experiments/knapen_AOT/AOT_stimuli/rescaled_final/1104_fw.mp4	0.0	297.91502928733826	
64	282.53383708000183	pulse	1	t		62.0	2.5	/experiments/knapen_AOT/AOT_stimuli/rescaled_final/1104_fw.mp4	0.0	299.5151731967926	
64	282.6503629684448	fix_post	2		12	62.0	2.5	/experiments/knapen_AOT/AOT_stimuli/rescaled_final/1104_fw.mp4	0.0	299.6316990852356	0.10000300407409668
65	282.7503659725189	fix_pre	0		120	63.0	2.5	/experiments/knapen_AOT/AOT_stimuli/rescaled_final/1058_rv.mp4	0.0	299.7317020893097	1.0001780986785889
65	283.7505440711975	movie	1		242	63.0	2.5	/experiments/knapen_AOT/AOT_stimuli/rescaled_final/1058_rv.mp4	0.0	300.7318801879883	2.4922308921813965
65	284.13487696647644	pulse	1	t		63.0	2.5	/experiments/knapen_AOT/AOT_stimuli/rescaled_final/1058_rv.mp4	0.0	301.1162130832672	
65	285.7344479560852	pulse	1	t		63.0	2.5	/experiments/knapen_AOT/AOT_stimuli/rescaled_final/1058_rv.mp4	0.0	302.715784072876	
65	286.2427749633789	fix_post	2		12	63.0	2.5	/experiments/knapen_AOT/AOT_stimuli/rescaled_final/1058_rv.mp4	0.0	303.2241110801697	0.09983420372009277
66	286.342609167099	fix_pre	0		120	64.0	2.5	/experiments/knapen_AOT/AOT_stimuli/rescaled_final/0532_fw.mp4	0.0	303.32394528388977	1.000133991241455
66	287.33460211753845	pulse	0	t		64.0	2.5	/experiments/knapen_AOT/AOT_stimuli/rescaled_final/0532_fw.mp4	0.0	304.3159382343292	
66	287.34274315834045	movie	1		242	64.0	2.5	/experiments/knapen_AOT/AOT_stimuli/rescaled_final/0532_fw.mp4	0.0	304.3240792751312	2.5086829662323
66	288.9352750778198	pulse	1	t		64.0	2.5	/experiments/knapen_AOT/AOT_stimuli/rescaled_final/0532_fw.mp4	0.0	305.9166111946106	
66	289.85142612457275	fix_post	2		12	64.0	2.5	/experiments/knapen_AOT/AOT_stimuli/rescaled_final/0532_fw.mp4	0.0	306.8327622413635	0.10000205039978027
67	289.95142817497253	fix_pre	0		120	65.0	2.5	/experiments/knapen_AOT/AOT_stimuli/rescaled_final/2095_fw.mp4	0.0	306.9327642917633	1.0001518726348877
67	290.5350589752197	pulse	0	t		65.0	2.5	/experiments/knapen_AOT/AOT_stimuli/rescaled_final/2095_fw.mp4	0.0	307.5163950920105	
67	290.9515800476074	movie	1		243	65.0	2.5	/experiments/knapen_AOT/AOT_stimuli/rescaled_final/2095_fw.mp4	0.0	307.9329161643982	2.500472068786621
67	292.13534808158875	pulse	1	t		65.0	2.5	/experiments/knapen_AOT/AOT_stimuli/rescaled_final/2095_fw.mp4	0.0	309.1166841983795	
67	293.45205211639404	fix_post	2		12	65.0	2.5	/experiments/knapen_AOT/AOT_stimuli/rescaled_final/2095_fw.mp4	0.0	310.4333882331848	0.09993100166320801
68	293.55198311805725	fix_pre	0		120	66.0	2.5	/experiments/knapen_AOT/AOT_stimuli/rescaled_final/1933_rv.mp4	0.0	310.533319234848	1.0001988410949707
68	293.73561906814575	pulse	0	t		66.0	2.5	/experiments/knapen_AOT/AOT_stimuli/rescaled_final/1933_rv.mp4	0.0	310.7169551849365	
68	294.5521819591522	movie	1		243	66.0	2.5	/experiments/knapen_AOT/AOT_stimuli/rescaled_final/1933_rv.mp4	0.0	311.533518075943	2.500545024871826
68	295.3359019756317	pulse	1	t		66.0	2.5	/experiments/knapen_AOT/AOT_stimuli/rescaled_final/1933_rv.mp4	0.0	312.3172380924225	
68	296.93594098091125	pulse	1	t		66.0	2.5	/experiments/knapen_AOT/AOT_stimuli/rescaled_final/1933_rv.mp4	0.0	313.917277097702	
68	297.05272698402405	fix_post	2		12	66.0	2.5	/experiments/knapen_AOT/AOT_stimuli/rescaled_final/1933_rv.mp4	0.0	314.0340631008148	0.0998070240020752
69	297.1525340080261	fix_pre	0		120	67.0	2.5	/experiments/knapen_AOT/AOT_stimuli/rescaled_final/0944_fw.mp4	0.0	314.1338701248169	1.0001931190490723
69	298.1527271270752	movie	1		241	67.0	2.5	/experiments/knapen_AOT/AOT_stimuli/rescaled_final/0944_fw.mp4	0.0	315.13406324386597	2.4920549392700195
69	298.53683710098267	pulse	1	t		67.0	2.5	/experiments/knapen_AOT/AOT_stimuli/rescaled_final/0944_fw.mp4	0.0	315.51817321777344	
69	300.13654804229736	pulse	1	t		67.0	2.5	/experiments/knapen_AOT/AOT_stimuli/rescaled_final/0944_fw.mp4	0.0	317.11788415908813	
69	300.6447820663452	fix_post	2		12	67.0	2.5	/experiments/knapen_AOT/AOT_stimuli/rescaled_final/0944_fw.mp4	0.0	317.626118183136	0.09997391700744629
70	300.74475598335266	fix_pre	0		120	68.0	2.5	/experiments/knapen_AOT/AOT_stimuli/rescaled_final/1653_fw.mp4	0.0	317.72609210014343	1.0001130104064941
70	301.7368221282959	pulse	0	t		68.0	2.5	/experiments/knapen_AOT/AOT_stimuli/rescaled_final/1653_fw.mp4	0.0	318.71815824508667	
70	301.74486899375916	movie	1		243	68.0	2.5	/experiments/knapen_AOT/AOT_stimuli/rescaled_final/1653_fw.mp4	0.0	318.7262051105499	2.508690118789673
70	303.33755803108215	pulse	1	t		68.0	2.5	/experiments/knapen_AOT/AOT_stimuli/rescaled_final/1653_fw.mp4	0.0	320.3188941478729	
70	304.2535591125488	fix_post	2		12	68.0	2.5	/experiments/knapen_AOT/AOT_stimuli/rescaled_final/1653_fw.mp4	0.0	321.2348952293396	0.10004305839538574
71	304.3536021709442	fix_pre	0		120	69.0	2.5	blank	1.0	321.334938287735	1.00016188621521
71	304.9372911453247	pulse	0	t		69.0	2.5	blank	1.0	321.9186272621155	
71	305.3537640571594	movie	1		300	69.0	2.5	blank	1.0	322.3351001739502	2.5003910064697266
71	306.53749418258667	pulse	1	t		69.0	2.5	blank	1.0	323.51883029937744	
71	307.85415506362915	fix_post	2		12	69.0	2.5	blank	1.0	324.8354911804199	0.09998798370361328
72	307.95414304733276	fix_pre	0		120	70.0	2.5	/experiments/knapen_AOT/AOT_stimuli/rescaled_final/2092_rv.mp4	0.0	324.93547916412354	1.000195026397705
72	308.13776111602783	pulse	0	t		70.0	2.5	/experiments/knapen_AOT/AOT_stimuli/rescaled_final/2092_rv.mp4	0.0	325.1190972328186	
72	308.95433807373047	movie	1		244	70.0	2.5	/experiments/knapen_AOT/AOT_stimuli/rescaled_final/2092_rv.mp4	0.0	325.93567419052124	2.5003840923309326
72	309.7379701137543	pulse	1	t		70.0	2.5	/experiments/knapen_AOT/AOT_stimuli/rescaled_final/2092_rv.mp4	0.0	326.71930623054504	
72	311.33844113349915	pulse	1	t		70.0	2.5	/experiments/knapen_AOT/AOT_stimuli/rescaled_final/2092_rv.mp4	0.0	328.3197772502899	
72	311.4547221660614	fix_post	2		12	70.0	2.5	/experiments/knapen_AOT/AOT_stimuli/rescaled_final/2092_rv.mp4	0.0	328.4360582828522	0.09999394416809082
73	311.5547161102295	fix_pre	0		120	71.0	2.5	/experiments/knapen_AOT/AOT_stimuli/rescaled_final/2102_rv.mp4	0.0	328.53605222702026	1.0001029968261719
73	312.55481910705566	movie	1		241	71.0	2.5	/experiments/knapen_AOT/AOT_stimuli/rescaled_final/2102_rv.mp4	0.0	329.53615522384644	2.4921278953552246
73	312.9392111301422	pulse	1	t		71.0	2.5	/experiments/knapen_AOT/AOT_stimuli/rescaled_final/2102_rv.mp4	0.0	329.920547246933	
73	314.53873109817505	pulse	1	t		71.0	2.5	/experiments/knapen_AOT/AOT_stimuli/rescaled_final/2102_rv.mp4	0.0	331.5200672149658	
73	315.0469470024109	fix_post	2		12	71.0	2.5	/experiments/knapen_AOT/AOT_stimuli/rescaled_final/2102_rv.mp4	0.0	332.02828311920166	0.09991717338562012
74	315.1468641757965	fix_pre	0		120	72.0	2.5	/experiments/knapen_AOT/AOT_stimuli/rescaled_final/2019_fw.mp4	0.0	332.1282002925873	1.000140905380249
74	316.1389350891113	pulse	0	t		72.0	2.5	/experiments/knapen_AOT/AOT_stimuli/rescaled_final/2019_fw.mp4	0.0	333.1202712059021	
74	316.14700508117676	movie	1		246	72.0	2.5	/experiments/knapen_AOT/AOT_stimuli/rescaled_final/2019_fw.mp4	0.0	333.12834119796753	2.508715867996216
74	317.7398500442505	pulse	1	t		72.0	2.5	/experiments/knapen_AOT/AOT_stimuli/rescaled_final/2019_fw.mp4	0.0	334.72118616104126	
74	318.655720949173	fix_post	2		12	72.0	2.5	/experiments/knapen_AOT/AOT_stimuli/rescaled_final/2019_fw.mp4	0.0	335.63705706596375	0.10003805160522461
75	318.7557590007782	fix_pre	0		120	73.0	2.5	/experiments/knapen_AOT/AOT_stimuli/rescaled_final/0291_fw.mp4	0.0	335.73709511756897	1.0001730918884277
75	319.3393349647522	pulse	0	t		73.0	2.5	/experiments/knapen_AOT/AOT_stimuli/rescaled_final/0291_fw.mp4	0.0	336.32067108154297	
75	319.7559320926666	movie	1		244	73.0	2.5	/experiments/knapen_AOT/AOT_stimuli/rescaled_final/0291_fw.mp4	0.0	336.7372682094574	2.5003559589385986
75	320.9396619796753	pulse	1	t		73.0	2.5	/experiments/knapen_AOT/AOT_stimuli/rescaled_final/0291_fw.mp4	0.0	337.92099809646606	
75	322.2562880516052	fix_post	2		12	73.0	2.5	/experiments/knapen_AOT/AOT_stimuli/rescaled_final/0291_fw.mp4	0.0	339.237624168396	0.10002613067626953
76	322.3563141822815	fix_pre	0		120	74.0	2.5	/experiments/knapen_AOT/AOT_stimuli/rescaled_final/0855_fw.mp4	0.0	339.33765029907227	1.000119924545288
76	322.539911031723	pulse	0	t		74.0	2.5	/experiments/knapen_AOT/AOT_stimuli/rescaled_final/0855_fw.mp4	0.0	339.5212471485138	
76	323.3564341068268	movie	1		243	74.0	2.5	/experiments/knapen_AOT/AOT_stimuli/rescaled_final/0855_fw.mp4	0.0	340.33777022361755	2.5005669593811035
76	324.1326971054077	pulse	1	t		74.0	2.5	/experiments/knapen_AOT/AOT_stimuli/rescaled_final/0855_fw.mp4	0.0	341.1140332221985	
76	325.74020504951477	pulse	1	t		74.0	2.5	/experiments/knapen_AOT/AOT_stimuli/rescaled_final/0855_fw.mp4	0.0	342.72154116630554	
76	325.8570010662079	fix_post	2		12	74.0	2.5	/experiments/knapen_AOT/AOT_stimuli/rescaled_final/0855_fw.mp4	0.0	342.83833718299866	0.09982109069824219
77	325.9568221569061	fix_pre	0		120	75.0	2.5	blank	1.0	342.9381582736969	1.0001349449157715
77	326.9569571018219	movie	1		299	75.0	2.5	blank	1.0	343.93829321861267	2.492081880569458
77	327.3322010040283	pulse	1	t		75.0	2.5	blank	1.0	344.3135371208191	
77	328.93243408203125	pulse	1	t		75.0	2.5	blank	1.0	345.913770198822	
77	329.44903898239136	fix_post	2		12	75.0	2.5	blank	1.0	346.43037509918213	0.09999299049377441
78	329.54903197288513	fix_pre	0		119	76.0	2.5	/experiments/knapen_AOT/AOT_stimuli/rescaled_final/0266_rv.mp4	0.0	346.5303680896759	0.9918200969696045
78	330.5326759815216	pulse	0	t		76.0	2.5	/experiments/knapen_AOT/AOT_stimuli/rescaled_final/0266_rv.mp4	0.0	347.5140120983124	
78	330.54085206985474	movie	1		245	76.0	2.5	/experiments/knapen_AOT/AOT_stimuli/rescaled_final/0266_rv.mp4	0.0	347.5221881866455	2.5086920261383057
78	332.13343715667725	pulse	1	t		76.0	2.5	/experiments/knapen_AOT/AOT_stimuli/rescaled_final/0266_rv.mp4	0.0	349.114773273468	
78	333.04954409599304	fix_post	2		12	76.0	2.5	/experiments/knapen_AOT/AOT_stimuli/rescaled_final/0266_rv.mp4	0.0	350.0308802127838	0.10005807876586914
79	333.1496021747589	fix_pre	0		120	77.0	2.5	/experiments/knapen_AOT/AOT_stimuli/rescaled_final/1429_fw.mp4	0.0	350.1309382915497	1.0001559257507324
79	333.7331211566925	pulse	0	t		77.0	2.5	/experiments/knapen_AOT/AOT_stimuli/rescaled_final/1429_fw.mp4	0.0	350.7144572734833	
79	334.14975810050964	movie	1		242	77.0	2.5	/experiments/knapen_AOT/AOT_stimuli/rescaled_final/1429_fw.mp4	0.0	351.1310942173004	2.500458002090454
79	335.33352518081665	pulse	1	t		77.0	2.5	/experiments/knapen_AOT/AOT_stimuli/rescaled_final/1429_fw.mp4	0.0	352.3148612976074	
79	336.6502161026001	fix_post	2		12	77.0	2.5	/experiments/knapen_AOT/AOT_stimuli/rescaled_final/1429_fw.mp4	0.0	353.63155221939087	0.09992194175720215
80	336.7501380443573	fix_pre	0		120	78.0	2.5	/experiments/knapen_AOT/AOT_stimuli/rescaled_final/1148_fw.mp4	0.0	353.73147416114807	1.0001161098480225
80	336.9336860179901	pulse	0	t		78.0	2.5	/experiments/knapen_AOT/AOT_stimuli/rescaled_final/1148_fw.mp4	0.0	353.9150221347809	
80	337.7502541542053	movie	1		242	78.0	2.5	/experiments/knapen_AOT/AOT_stimuli/rescaled_final/1148_fw.mp4	0.0	354.7315902709961	2.5005829334259033
80	338.5339870452881	pulse	1	t		78.0	2.5	/experiments/knapen_AOT/AOT_stimuli/rescaled_final/1148_fw.mp4	0.0	355.51532316207886	
80	340.13398599624634	pulse	1	t		78.0	2.5	/experiments/knapen_AOT/AOT_stimuli/rescaled_final/1148_fw.mp4	0.0	357.1153221130371	
80	340.2508370876312	fix_post	2		12	78.0	2.5	/experiments/knapen_AOT/AOT_stimuli/rescaled_final/1148_fw.mp4	0.0	357.232173204422	0.09979104995727539
81	340.3506281375885	fix_pre	0		120	79.0	2.5	/experiments/knapen_AOT/AOT_stimuli/rescaled_final/1619_fw.mp4	0.0	357.3319642543793	1.000187873840332
81	341.35081601142883	movie	1		242	79.0	2.5	/experiments/knapen_AOT/AOT_stimuli/rescaled_final/1619_fw.mp4	0.0	358.3321521282196	2.492187976837158
81	341.73497796058655	pulse	1	t		79.0	2.5	/experiments/knapen_AOT/AOT_stimuli/rescaled_final/1619_fw.mp4	0.0	358.7163140773773	
81	343.3346471786499	pulse	1	t		79.0	2.5	/experiments/knapen_AOT/AOT_stimuli/rescaled_final/1619_fw.mp4	0.0	360.3159832954407	
81	343.843003988266	fix_post	2		12	79.0	2.5	/experiments/knapen_AOT/AOT_stimuli/rescaled_final/1619_fw.mp4	0.0	360.82434010505676	0.09987711906433105
82	343.9428811073303	fix_pre	0		120	80.0	2.5	/experiments/knapen_AOT/AOT_stimuli/rescaled_final/1569_fw.mp4	0.0	360.9242172241211	1.0001468658447266
82	344.93487000465393	pulse	0	t		80.0	2.5	/experiments/knapen_AOT/AOT_stimuli/rescaled_final/1569_fw.mp4	0.0	361.9162061214447	
82	344.94302797317505	movie	1		244	80.0	2.5	/experiments/knapen_AOT/AOT_stimuli/rescaled_final/1569_fw.mp4	0.0	361.9243640899658	2.5087389945983887
82	346.53574299812317	pulse	1	t		80.0	2.5	/experiments/knapen_AOT/AOT_stimuli/rescaled_final/1569_fw.mp4	0.0	363.51707911491394	
82	347.45176696777344	fix_post	2		12	80.0	2.5	/experiments/knapen_AOT/AOT_stimuli/rescaled_final/1569_fw.mp4	0.0	364.4331030845642	0.09997105598449707
83	347.55173802375793	fix_pre	0		120	81.0	2.5	/experiments/knapen_AOT/AOT_stimuli/rescaled_final/0345_rv.mp4	0.0	364.5330741405487	1.0001511573791504
83	348.1353681087494	pulse	0	t		81.0	2.5	/experiments/knapen_AOT/AOT_stimuli/rescaled_final/0345_rv.mp4	0.0	365.11670422554016	
83	348.5518891811371	movie	1		242	81.0	2.5	/experiments/knapen_AOT/AOT_stimuli/rescaled_final/0345_rv.mp4	0.0	365.53322529792786	2.525538921356201
83	349.7356791496277	pulse	1	t		81.0	2.5	/experiments/knapen_AOT/AOT_stimuli/rescaled_final/0345_rv.mp4	0.0	366.71701526641846	
83	351.0774281024933	fix_post	2		9	81.0	2.5	/experiments/knapen_AOT/AOT_stimuli/rescaled_final/0345_rv.mp4	0.0	368.05876421928406	0.07484793663024902
84	351.15227603912354	fix_pre	0		120	82.0	2.5	blank	1.0	368.1336121559143	1.000143051147461
84	351.33580112457275	pulse	0	t		82.0	2.5	blank	1.0	368.3171372413635	
84	352.152419090271	movie	1		300	82.0	2.5	blank	1.0	369.13375520706177	2.500369071960449
84	352.936026096344	pulse	1	t		82.0	2.5	blank	1.0	369.91736221313477	
84	354.5363721847534	pulse	1	t		82.0	2.5	blank	1.0	371.5177083015442	
84	354.65278816223145	fix_post	2		12	82.0	2.5	blank	1.0	371.6341242790222	0.09999895095825195
85	354.7527871131897	fix_pre	0		120	83.0	2.5	/experiments/knapen_AOT/AOT_stimuli/rescaled_final/0493_fw.mp4	0.0	371.73412322998047	1.000133991241455
85	355.75292110443115	movie	1		241	83.0	2.5	/experiments/knapen_AOT/AOT_stimuli/rescaled_final/0493_fw.mp4	0.0	372.7342572212219	2.492171049118042
85	356.13699102401733	pulse	1	t		83.0	2.5	/experiments/knapen_AOT/AOT_stimuli/rescaled_final/0493_fw.mp4	0.0	373.1183271408081	
85	357.7367660999298	pulse	1	t		83.0	2.5	/experiments/knapen_AOT/AOT_stimuli/rescaled_final/0493_fw.mp4	0.0	374.7181022167206	
85	358.2450921535492	fix_post	2		12	83.0	2.5	/experiments/knapen_AOT/AOT_stimuli/rescaled_final/0493_fw.mp4	0.0	375.22642827033997	0.09989786148071289
87	358.3449900150299	stim	0		1716					375.3263261318207	14.302165985107422
87	359.33697295188904	pulse	0	t						376.3183090686798	
87	360.9372160434723	pulse	0	t						377.91855216026306	
87	362.5375699996948	pulse	0	t						379.5189061164856	
87	364.1377990245819	pulse	0	t						381.1191351413727	
87	365.7379310131073	pulse	0	t						382.71926712989807	
87	367.3382000923157	pulse	0	t						384.31953620910645	
87	368.9384651184082	pulse	0	t						385.919801235199	
87	370.53868317604065	pulse	0	t						387.5200192928314	
87	372.1388831138611	pulse	0	t						389.12021923065186	
