trial_nr	onset	event_type	phase	response	nr_frames	movie_index	movie_duration	movie_file	blank	onset_abs	duration
0	0.14986586570739746	stim	0		17					20.559610843658447	0.14165902137756348
0	0.28373289108276367	response	0	space						20.693477869033813	
1	0.29152488708496094	stim	0		3065					20.70126986503601	25.541638135910034
1	25.822293996810913	pulse	0	t						46.23203897476196	
1	25.833163022994995	stim	1		1717					46.242908000946045	14.308157920837402
1	27.41676092147827	pulse	1	t						47.82650589942932	
1	29.017009019851685	pulse	1	t						49.426753997802734	
1	30.62511682510376	pulse	1	t						51.03486180305481	
1	32.22488594055176	pulse	1	t						52.63463091850281	
1	33.82491397857666	pulse	1	t						54.23465895652771	
1	35.41730999946594	pulse	1	t						55.82705497741699	
1	37.017244815826416	pulse	1	t						57.426989793777466	
1	38.6172878742218	pulse	1	t						59.02703285217285	
2	40.1413209438324	fix_pre	0		11	0.0	2.5	/experiments/AOT/AOT_stimuli/rescaled_final/0734_rv.mp4	0.0	60.55106592178345	0.09165287017822266
2	40.21727991104126	pulse	0	t		0.0	2.5	/experiments/AOT/AOT_stimuli/rescaled_final/0734_rv.mp4	0.0	60.62702488899231	
2	40.23297381401062	movie	1		244	0.0	2.5	/experiments/AOT/AOT_stimuli/rescaled_final/0734_rv.mp4	0.0	60.64271879196167	2.508333206176758
2	41.82442498207092	pulse	1	t		0.0	2.5	/experiments/AOT/AOT_stimuli/rescaled_final/0734_rv.mp4	0.0	62.23416996002197	
2	42.74130702018738	fix_post	2		12	0.0	2.5	/experiments/AOT/AOT_stimuli/rescaled_final/0734_rv.mp4	0.0	63.15105199813843	0.10010886192321777
3	42.841415882110596	fix_pre	0		120	1.0	2.5	/experiments/AOT/AOT_stimuli/rescaled_final/1283_fw.mp4	0.0	63.251160860061646	0.9995489120483398
3	43.41722297668457	pulse	0	t		1.0	2.5	/experiments/AOT/AOT_stimuli/rescaled_final/1283_fw.mp4	0.0	63.82696795463562	
3	43.840964794158936	movie	1		242	1.0	2.5	/experiments/AOT/AOT_stimuli/rescaled_final/1283_fw.mp4	0.0	64.25070977210999	2.5003092288970947
3	45.02490592002869	pulse	1	t		1.0	2.5	/experiments/AOT/AOT_stimuli/rescaled_final/1283_fw.mp4	0.0	65.43465089797974	
3	46.34127402305603	fix_post	2		12	1.0	2.5	/experiments/AOT/AOT_stimuli/rescaled_final/1283_fw.mp4	0.0	66.75101900100708	0.09998679161071777
4	46.44126081466675	fix_pre	0		120	2.0	2.5	/experiments/AOT/AOT_stimuli/rescaled_final/2178_rv.mp4	0.0	66.8510057926178	1.0000271797180176
4	46.62485599517822	pulse	0	t		2.0	2.5	/experiments/AOT/AOT_stimuli/rescaled_final/2178_rv.mp4	0.0	67.03460097312927	
4	47.441287994384766	movie	1		243	2.0	2.5	/experiments/AOT/AOT_stimuli/rescaled_final/2178_rv.mp4	0.0	67.85103297233582	2.5004539489746094
4	48.22494196891785	pulse	1	t		2.0	2.5	/experiments/AOT/AOT_stimuli/rescaled_final/2178_rv.mp4	0.0	68.6346869468689	
4	49.82304286956787	pulse	1	t		2.0	2.5	/experiments/AOT/AOT_stimuli/rescaled_final/2178_rv.mp4	0.0	70.23278784751892	
4	49.941741943359375	fix_post	2		12	2.0	2.5	/experiments/AOT/AOT_stimuli/rescaled_final/2178_rv.mp4	0.0	70.35148692131042	0.09961104393005371
5	50.04135298728943	fix_pre	0		120	3.0	2.5	/experiments/AOT/AOT_stimuli/rescaled_final/1617_fw.mp4	0.0	70.45109796524048	0.9999699592590332
5	51.04132294654846	movie	1		243	3.0	2.5	/experiments/AOT/AOT_stimuli/rescaled_final/1617_fw.mp4	0.0	71.45106792449951	2.4995388984680176
5	51.42445993423462	pulse	1	t		3.0	2.5	/experiments/AOT/AOT_stimuli/rescaled_final/1617_fw.mp4	0.0	71.83420491218567	
5	53.01744985580444	pulse	1	t		3.0	2.5	/experiments/AOT/AOT_stimuli/rescaled_final/1617_fw.mp4	0.0	73.4271948337555	
5	53.54086184501648	fix_post	2		12	3.0	2.5	/experiments/AOT/AOT_stimuli/rescaled_final/1617_fw.mp4	0.0	73.95060682296753	0.09997797012329102
6	53.64083981513977	fix_pre	0		119	4.0	2.5	/experiments/AOT/AOT_stimuli/rescaled_final/1158_fw.mp4	0.0	74.05058479309082	0.9921371936798096
6	54.61729097366333	pulse	0	t		4.0	2.5	/experiments/AOT/AOT_stimuli/rescaled_final/1158_fw.mp4	0.0	75.02703595161438	
6	54.63297700881958	movie	1		246	4.0	2.5	/experiments/AOT/AOT_stimuli/rescaled_final/1158_fw.mp4	0.0	75.04272198677063	2.507859945297241
6	56.22422385215759	pulse	1	t		4.0	2.5	/experiments/AOT/AOT_stimuli/rescaled_final/1158_fw.mp4	0.0	76.63396883010864	
6	57.14083695411682	fix_post	2		12	4.0	2.5	/experiments/AOT/AOT_stimuli/rescaled_final/1158_fw.mp4	0.0	77.55058193206787	0.10037493705749512
7	57.241211891174316	fix_pre	0		120	5.0	2.5	blank	1.0	77.65095686912537	1.0001471042633057
7	57.81723690032959	pulse	0	t		5.0	2.5	blank	1.0	78.22698187828064	
7	58.24135899543762	movie	1		300	5.0	2.5	blank	1.0	78.65110397338867	2.4999589920043945
7	59.4171929359436	pulse	1	t		5.0	2.5	blank	1.0	79.82693791389465	
7	60.74131798744202	fix_post	2		12	5.0	2.5	blank	1.0	81.15106296539307	0.09999799728393555
8	60.84131598472595	fix_pre	0		120	6.0	2.5	/experiments/AOT/AOT_stimuli/rescaled_final/1417_fw.mp4	0.0	81.251060962677	1.000013828277588
8	61.01720690727234	pulse	0	t		6.0	2.5	/experiments/AOT/AOT_stimuli/rescaled_final/1417_fw.mp4	0.0	81.42695188522339	
8	61.84132981300354	movie	1		243	6.0	2.5	/experiments/AOT/AOT_stimuli/rescaled_final/1417_fw.mp4	0.0	82.25107479095459	2.500056028366089
8	62.624764919281006	pulse	1	t		6.0	2.5	/experiments/AOT/AOT_stimuli/rescaled_final/1417_fw.mp4	0.0	83.03450989723206	
8	64.22341394424438	pulse	1	t		6.0	2.5	/experiments/AOT/AOT_stimuli/rescaled_final/1417_fw.mp4	0.0	84.63315892219543	
8	64.34138584136963	fix_post	2		12	6.0	2.5	/experiments/AOT/AOT_stimuli/rescaled_final/1417_fw.mp4	0.0	84.75113081932068	0.09986114501953125
9	64.44124698638916	fix_pre	0		120	7.0	2.5	/experiments/AOT/AOT_stimuli/rescaled_final/1097_rv.mp4	0.0	84.85099196434021	1.0001749992370605
9	65.44142198562622	movie	1		244	7.0	2.5	/experiments/AOT/AOT_stimuli/rescaled_final/1097_rv.mp4	0.0	85.85116696357727	2.499337911605835
9	65.824453830719	pulse	1	t		7.0	2.5	/experiments/AOT/AOT_stimuli/rescaled_final/1097_rv.mp4	0.0	86.23419880867004	
9	67.41737198829651	pulse	1	t		7.0	2.5	/experiments/AOT/AOT_stimuli/rescaled_final/1097_rv.mp4	0.0	87.82711696624756	
9	67.94075989723206	fix_post	2		12	7.0	2.5	/experiments/AOT/AOT_stimuli/rescaled_final/1097_rv.mp4	0.0	88.3505048751831	0.10052800178527832
10	68.04128789901733	fix_pre	0		119	8.0	2.5	/experiments/AOT/AOT_stimuli/rescaled_final/0786_rv.mp4	0.0	88.45103287696838	0.9916110038757324
10	69.02478194236755	pulse	0	t		8.0	2.5	/experiments/AOT/AOT_stimuli/rescaled_final/0786_rv.mp4	0.0	89.4345269203186	
10	69.03289890289307	movie	1		245	8.0	2.5	/experiments/AOT/AOT_stimuli/rescaled_final/0786_rv.mp4	0.0	89.44264388084412	2.5083439350128174
10	70.62425684928894	pulse	1	t		8.0	2.5	/experiments/AOT/AOT_stimuli/rescaled_final/0786_rv.mp4	0.0	91.03400182723999	
10	71.54124283790588	fix_post	2		12	8.0	2.5	/experiments/AOT/AOT_stimuli/rescaled_final/0786_rv.mp4	0.0	91.95098781585693	0.10003900527954102
11	71.64128184318542	fix_pre	0		120	9.0	2.5	/experiments/AOT/AOT_stimuli/rescaled_final/2076_fw.mp4	0.0	92.05102682113647	0.9999790191650391
11	72.21722388267517	pulse	0	t		9.0	2.5	/experiments/AOT/AOT_stimuli/rescaled_final/2076_fw.mp4	0.0	92.62696886062622	
11	72.64126086235046	movie	1		244	9.0	2.5	/experiments/AOT/AOT_stimuli/rescaled_final/2076_fw.mp4	0.0	93.05100584030151	2.4998819828033447
11	73.82486295700073	pulse	1	t		9.0	2.5	/experiments/AOT/AOT_stimuli/rescaled_final/2076_fw.mp4	0.0	94.23460793495178	
11	75.14114284515381	fix_post	2		12	9.0	2.5	/experiments/AOT/AOT_stimuli/rescaled_final/2076_fw.mp4	0.0	95.55088782310486	0.09996795654296875
12	75.24111080169678	fix_pre	0		120	10.0	2.5	/experiments/AOT/AOT_stimuli/rescaled_final/0395_rv.mp4	0.0	95.65085577964783	1.0001411437988281
12	75.41721391677856	pulse	0	t		10.0	2.5	/experiments/AOT/AOT_stimuli/rescaled_final/0395_rv.mp4	0.0	95.82695889472961	
12	76.2412519454956	movie	1		243	10.0	2.5	/experiments/AOT/AOT_stimuli/rescaled_final/0395_rv.mp4	0.0	96.65099692344666	2.500005006790161
12	77.01731896400452	pulse	1	t		10.0	2.5	/experiments/AOT/AOT_stimuli/rescaled_final/0395_rv.mp4	0.0	97.42706394195557	
12	78.62355089187622	pulse	1	t		10.0	2.5	/experiments/AOT/AOT_stimuli/rescaled_final/0395_rv.mp4	0.0	99.03329586982727	
12	78.74125695228577	fix_post	2		12	10.0	2.5	/experiments/AOT/AOT_stimuli/rescaled_final/0395_rv.mp4	0.0	99.15100193023682	0.09997701644897461
13	78.84123396873474	fix_pre	0		120	11.0	2.5	/experiments/AOT/AOT_stimuli/rescaled_final/0743_rv.mp4	0.0	99.25097894668579	0.9999940395355225
13	79.84122800827026	movie	1		244	11.0	2.5	/experiments/AOT/AOT_stimuli/rescaled_final/0743_rv.mp4	0.0	100.25097298622131	2.499976873397827
13	80.22431802749634	pulse	1	t		11.0	2.5	/experiments/AOT/AOT_stimuli/rescaled_final/0743_rv.mp4	0.0	100.63406300544739	
13	81.82473993301392	pulse	1	t		11.0	2.5	/experiments/AOT/AOT_stimuli/rescaled_final/0743_rv.mp4	0.0	102.23448491096497	
13	82.34120488166809	fix_post	2		12	11.0	2.5	/experiments/AOT/AOT_stimuli/rescaled_final/0743_rv.mp4	0.0	102.75094985961914	0.09995603561401367
14	82.4411609172821	fix_pre	0		119	12.0	2.5	blank	1.0	102.85090589523315	0.9916551113128662
14	83.42480492591858	pulse	0	t		12.0	2.5	blank	1.0	103.83454990386963	
14	83.43281602859497	movie	1		301	12.0	2.5	blank	1.0	103.84256100654602	2.5083987712860107
14	85.02465486526489	pulse	1	t		12.0	2.5	blank	1.0	105.43439984321594	
14	85.94121479988098	fix_post	2		12	12.0	2.5	blank	1.0	106.35095977783203	0.10000109672546387
15	86.04121589660645	fix_pre	0		120	13.0	2.5	/experiments/AOT/AOT_stimuli/rescaled_final/0726_rv.mp4	0.0	106.4509608745575	0.9998319149017334
15	86.62451481819153	pulse	0	t		13.0	2.5	/experiments/AOT/AOT_stimuli/rescaled_final/0726_rv.mp4	0.0	107.03425979614258	
15	87.04104781150818	movie	1		246	13.0	2.5	/experiments/AOT/AOT_stimuli/rescaled_final/0726_rv.mp4	0.0	107.45079278945923	2.500044107437134
15	88.22468686103821	pulse	1	t		13.0	2.5	/experiments/AOT/AOT_stimuli/rescaled_final/0726_rv.mp4	0.0	108.63443183898926	
15	89.54109191894531	fix_post	2		12	13.0	2.5	/experiments/AOT/AOT_stimuli/rescaled_final/0726_rv.mp4	0.0	109.95083689689636	0.10004997253417969
16	89.64114189147949	fix_pre	0		120	14.0	2.5	/experiments/AOT/AOT_stimuli/rescaled_final/0065_rv.mp4	0.0	110.05088686943054	1.0000019073486328
16	89.81716799736023	pulse	0	t		14.0	2.5	/experiments/AOT/AOT_stimuli/rescaled_final/0065_rv.mp4	0.0	110.22691297531128	
16	90.64114379882812	movie	1		245	14.0	2.5	/experiments/AOT/AOT_stimuli/rescaled_final/0065_rv.mp4	0.0	111.05088877677917	2.499547004699707
16	91.41724300384521	pulse	1	t		14.0	2.5	/experiments/AOT/AOT_stimuli/rescaled_final/0065_rv.mp4	0.0	111.82698798179626	
16	93.02311682701111	pulse	1	t		14.0	2.5	/experiments/AOT/AOT_stimuli/rescaled_final/0065_rv.mp4	0.0	113.43286180496216	
16	93.14069080352783	fix_post	2		12	14.0	2.5	/experiments/AOT/AOT_stimuli/rescaled_final/0065_rv.mp4	0.0	113.55043578147888	0.1004180908203125
17	93.24110889434814	fix_pre	0		120	15.0	2.5	/experiments/AOT/AOT_stimuli/rescaled_final/0295_rv.mp4	0.0	113.6508538722992	1.000067949295044
17	94.24117684364319	movie	1		245	15.0	2.5	/experiments/AOT/AOT_stimuli/rescaled_final/0295_rv.mp4	0.0	114.65092182159424	2.4999260902404785
17	94.62572693824768	pulse	1	t		15.0	2.5	/experiments/AOT/AOT_stimuli/rescaled_final/0295_rv.mp4	0.0	115.03547191619873	
17	96.22450399398804	pulse	1	t		15.0	2.5	/experiments/AOT/AOT_stimuli/rescaled_final/0295_rv.mp4	0.0	116.63424897193909	
17	96.74110293388367	fix_post	2		12	15.0	2.5	/experiments/AOT/AOT_stimuli/rescaled_final/0295_rv.mp4	0.0	117.15084791183472	0.1000359058380127
18	96.84113883972168	fix_pre	0		119	16.0	2.5	/experiments/AOT/AOT_stimuli/rescaled_final/0159_fw.mp4	0.0	117.25088381767273	0.9915909767150879
18	97.8245677947998	pulse	0	t		16.0	2.5	/experiments/AOT/AOT_stimuli/rescaled_final/0159_fw.mp4	0.0	118.23431277275085	
18	97.83272981643677	movie	1		244	16.0	2.5	/experiments/AOT/AOT_stimuli/rescaled_final/0159_fw.mp4	0.0	118.24247479438782	2.5084660053253174
18	99.42479491233826	pulse	1	t		16.0	2.5	/experiments/AOT/AOT_stimuli/rescaled_final/0159_fw.mp4	0.0	119.8345398902893	
18	100.34119582176208	fix_post	2		12	16.0	2.5	/experiments/AOT/AOT_stimuli/rescaled_final/0159_fw.mp4	0.0	120.75094079971313	0.0994570255279541
19	100.44065284729004	fix_pre	0		120	17.0	2.5	/experiments/AOT/AOT_stimuli/rescaled_final/0158_rv.mp4	0.0	120.85039782524109	1.0004210472106934
19	101.02457690238953	pulse	0	t		17.0	2.5	/experiments/AOT/AOT_stimuli/rescaled_final/0158_rv.mp4	0.0	121.43432188034058	
19	101.44107389450073	movie	1		244	17.0	2.5	/experiments/AOT/AOT_stimuli/rescaled_final/0158_rv.mp4	0.0	121.85081887245178	2.5000100135803223
19	102.62457394599915	pulse	1	t		17.0	2.5	/experiments/AOT/AOT_stimuli/rescaled_final/0158_rv.mp4	0.0	123.0343189239502	
19	103.94108390808105	fix_post	2		12	17.0	2.5	/experiments/AOT/AOT_stimuli/rescaled_final/0158_rv.mp4	0.0	124.3508288860321	0.10004591941833496
20	104.04112982749939	fix_pre	0		120	18.0	2.5	/experiments/AOT/AOT_stimuli/rescaled_final/1603_rv.mp4	0.0	124.45087480545044	0.9998891353607178
20	104.22459983825684	pulse	0	t		18.0	2.5	/experiments/AOT/AOT_stimuli/rescaled_final/1603_rv.mp4	0.0	124.63434481620789	
20	105.04101896286011	movie	1		243	18.0	2.5	/experiments/AOT/AOT_stimuli/rescaled_final/1603_rv.mp4	0.0	125.45076394081116	2.4999940395355225
20	105.81710696220398	pulse	1	t		18.0	2.5	/experiments/AOT/AOT_stimuli/rescaled_final/1603_rv.mp4	0.0	126.22685194015503	
20	107.42294383049011	pulse	1	t		18.0	2.5	/experiments/AOT/AOT_stimuli/rescaled_final/1603_rv.mp4	0.0	127.83268880844116	
20	107.54101300239563	fix_post	2		12	18.0	2.5	/experiments/AOT/AOT_stimuli/rescaled_final/1603_rv.mp4	0.0	127.95075798034668	0.09995794296264648
21	107.64097094535828	fix_pre	0		120	19.0	2.5	blank	1.0	128.05071592330933	1.0000760555267334
21	108.64104700088501	movie	1		300	19.0	2.5	blank	1.0	129.05079197883606	2.4999399185180664
21	109.01695990562439	pulse	1	t		19.0	2.5	blank	1.0	129.42670488357544	
21	110.62462091445923	pulse	1	t		19.0	2.5	blank	1.0	131.03436589241028	
21	111.14098691940308	fix_post	2		12	19.0	2.5	blank	1.0	131.55073189735413	0.1000070571899414
22	111.24099397659302	fix_pre	0		119	20.0	2.5	/experiments/AOT/AOT_stimuli/rescaled_final/1096_rv.mp4	0.0	131.65073895454407	0.9916720390319824
22	112.22448396682739	pulse	0	t		20.0	2.5	/experiments/AOT/AOT_stimuli/rescaled_final/1096_rv.mp4	0.0	132.63422894477844	
22	112.232666015625	movie	1		245	20.0	2.5	/experiments/AOT/AOT_stimuli/rescaled_final/1096_rv.mp4	0.0	132.64241099357605	2.508382797241211
22	113.82481002807617	pulse	1	t		20.0	2.5	/experiments/AOT/AOT_stimuli/rescaled_final/1096_rv.mp4	0.0	134.23455500602722	
22	114.74104881286621	fix_post	2		12	20.0	2.5	/experiments/AOT/AOT_stimuli/rescaled_final/1096_rv.mp4	0.0	135.15079379081726	0.09994220733642578
23	114.84099102020264	fix_pre	0		120	21.0	2.5	/experiments/AOT/AOT_stimuli/rescaled_final/1876_fw.mp4	0.0	135.2507359981537	1.0000388622283936
23	115.42457389831543	pulse	0	t		21.0	2.5	/experiments/AOT/AOT_stimuli/rescaled_final/1876_fw.mp4	0.0	135.83431887626648	
23	115.84102988243103	movie	1		245	21.0	2.5	/experiments/AOT/AOT_stimuli/rescaled_final/1876_fw.mp4	0.0	136.25077486038208	2.500002145767212
23	117.02458500862122	pulse	1	t		21.0	2.5	/experiments/AOT/AOT_stimuli/rescaled_final/1876_fw.mp4	0.0	137.43432998657227	
23	118.34103202819824	fix_post	2		12	21.0	2.5	/experiments/AOT/AOT_stimuli/rescaled_final/1876_fw.mp4	0.0	138.7507770061493	0.09997797012329102
24	118.44100999832153	fix_pre	0		120	22.0	2.5	/experiments/AOT/AOT_stimuli/rescaled_final/0728_rv.mp4	0.0	138.85075497627258	1.0000560283660889
24	118.62453389167786	pulse	0	t		22.0	2.5	/experiments/AOT/AOT_stimuli/rescaled_final/0728_rv.mp4	0.0	139.0342788696289	
24	119.44106602668762	movie	1		244	22.0	2.5	/experiments/AOT/AOT_stimuli/rescaled_final/0728_rv.mp4	0.0	139.85081100463867	2.499882936477661
24	120.22453284263611	pulse	1	t		22.0	2.5	/experiments/AOT/AOT_stimuli/rescaled_final/0728_rv.mp4	0.0	140.63427782058716	
24	121.8230209350586	pulse	1	t		22.0	2.5	/experiments/AOT/AOT_stimuli/rescaled_final/0728_rv.mp4	0.0	142.23276591300964	
24	121.94094896316528	fix_post	2		12	22.0	2.5	/experiments/AOT/AOT_stimuli/rescaled_final/0728_rv.mp4	0.0	142.35069394111633	0.09999704360961914
25	122.0409460067749	fix_pre	0		120	23.0	2.5	/experiments/AOT/AOT_stimuli/rescaled_final/0500_fw.mp4	0.0	142.45069098472595	0.9999949932098389
25	123.04094099998474	movie	1		245	23.0	2.5	/experiments/AOT/AOT_stimuli/rescaled_final/0500_fw.mp4	0.0	143.4506859779358	2.500056028366089
25	123.42400693893433	pulse	1	t		23.0	2.5	/experiments/AOT/AOT_stimuli/rescaled_final/0500_fw.mp4	0.0	143.83375191688538	
25	125.01711988449097	pulse	1	t		23.0	2.5	/experiments/AOT/AOT_stimuli/rescaled_final/0500_fw.mp4	0.0	145.42686486244202	
25	125.54099702835083	fix_post	2		12	23.0	2.5	/experiments/AOT/AOT_stimuli/rescaled_final/0500_fw.mp4	0.0	145.95074200630188	0.09999489784240723
26	125.64099192619324	fix_pre	0		119	24.0	2.5	/experiments/AOT/AOT_stimuli/rescaled_final/0899_fw.mp4	0.0	146.0507369041443	0.9916319847106934
26	126.62440085411072	pulse	0	t		24.0	2.5	/experiments/AOT/AOT_stimuli/rescaled_final/0899_fw.mp4	0.0	147.03414583206177	
26	126.63262391090393	movie	1		245	24.0	2.5	/experiments/AOT/AOT_stimuli/rescaled_final/0899_fw.mp4	0.0	147.04236888885498	2.507883071899414
26	128.22397899627686	pulse	1	t		24.0	2.5	/experiments/AOT/AOT_stimuli/rescaled_final/0899_fw.mp4	0.0	148.6337239742279	
26	129.14050698280334	fix_post	2		12	24.0	2.5	/experiments/AOT/AOT_stimuli/rescaled_final/0899_fw.mp4	0.0	149.5502519607544	0.1004328727722168
27	129.24093985557556	fix_pre	0		120	25.0	2.5	/experiments/AOT/AOT_stimuli/rescaled_final/1413_rv.mp4	0.0	149.6506848335266	1.000087022781372
27	129.82441997528076	pulse	0	t		25.0	2.5	/experiments/AOT/AOT_stimuli/rescaled_final/1413_rv.mp4	0.0	150.2341649532318	
27	130.24102687835693	movie	1		245	25.0	2.5	/experiments/AOT/AOT_stimuli/rescaled_final/1413_rv.mp4	0.0	150.65077185630798	2.4998860359191895
27	131.4244840145111	pulse	1	t		25.0	2.5	/experiments/AOT/AOT_stimuli/rescaled_final/1413_rv.mp4	0.0	151.83422899246216	
27	132.74091291427612	fix_post	2		12	25.0	2.5	/experiments/AOT/AOT_stimuli/rescaled_final/1413_rv.mp4	0.0	153.15065789222717	0.1000359058380127
28	132.84094882011414	fix_pre	0		120	26.0	2.5	blank	1.0	153.25069379806519	0.9999771118164062
28	133.02441883087158	pulse	0	t		26.0	2.5	blank	1.0	153.43416380882263	
28	133.84092593193054	movie	1		300	26.0	2.5	blank	1.0	154.2506709098816	2.500002861022949
28	134.62438201904297	pulse	1	t		26.0	2.5	blank	1.0	155.03412699699402	
28	136.22441601753235	pulse	1	t		26.0	2.5	blank	1.0	156.6341609954834	
28	136.3409287929535	fix_post	2		12	26.0	2.5	blank	1.0	156.75067377090454	0.10002803802490234
29	136.4409568309784	fix_pre	0		120	27.0	2.5	/experiments/AOT/AOT_stimuli/rescaled_final/0204_rv.mp4	0.0	156.85070180892944	1.0001401901245117
29	137.4410970211029	movie	1		244	27.0	2.5	/experiments/AOT/AOT_stimuli/rescaled_final/0204_rv.mp4	0.0	157.85084199905396	2.499346971511841
29	137.82372999191284	pulse	1	t		27.0	2.5	/experiments/AOT/AOT_stimuli/rescaled_final/0204_rv.mp4	0.0	158.2334749698639	
29	139.41700387001038	pulse	1	t		27.0	2.5	/experiments/AOT/AOT_stimuli/rescaled_final/0204_rv.mp4	0.0	159.82674884796143	
29	139.94044399261475	fix_post	2		12	27.0	2.5	/experiments/AOT/AOT_stimuli/rescaled_final/0204_rv.mp4	0.0	160.3501889705658	0.10051703453063965
30	140.04096102714539	fix_pre	0		119	28.0	2.5	/experiments/AOT/AOT_stimuli/rescaled_final/1882_rv.mp4	0.0	160.45070600509644	0.9916279315948486
30	141.02398300170898	pulse	0	t		28.0	2.5	/experiments/AOT/AOT_stimuli/rescaled_final/1882_rv.mp4	0.0	161.43372797966003	
30	141.03258895874023	movie	1		246	28.0	2.5	/experiments/AOT/AOT_stimuli/rescaled_final/1882_rv.mp4	0.0	161.44233393669128	2.5083160400390625
30	142.6238579750061	pulse	1	t		28.0	2.5	/experiments/AOT/AOT_stimuli/rescaled_final/1882_rv.mp4	0.0	163.03360295295715	
30	143.5409049987793	fix_post	2		12	28.0	2.5	/experiments/AOT/AOT_stimuli/rescaled_final/1882_rv.mp4	0.0	163.95064997673035	0.09998202323913574
31	143.64088702201843	fix_pre	0		120	29.0	2.5	/experiments/AOT/AOT_stimuli/rescaled_final/0691_rv.mp4	0.0	164.05063199996948	1.0000379085540771
31	144.2243947982788	pulse	0	t		29.0	2.5	/experiments/AOT/AOT_stimuli/rescaled_final/0691_rv.mp4	0.0	164.63413977622986	
31	144.6409249305725	movie	1		245	29.0	2.5	/experiments/AOT/AOT_stimuli/rescaled_final/0691_rv.mp4	0.0	165.05066990852356	2.4995310306549072
31	145.82444190979004	pulse	1	t		29.0	2.5	/experiments/AOT/AOT_stimuli/rescaled_final/0691_rv.mp4	0.0	166.2341868877411	
31	147.14045596122742	fix_post	2		12	29.0	2.5	/experiments/AOT/AOT_stimuli/rescaled_final/0691_rv.mp4	0.0	167.55020093917847	0.10042405128479004
32	147.2408800125122	fix_pre	0		120	30.0	2.5	/experiments/AOT/AOT_stimuli/rescaled_final/1750_fw.mp4	0.0	167.65062499046326	1.0000078678131104
32	147.42435097694397	pulse	0	t		30.0	2.5	/experiments/AOT/AOT_stimuli/rescaled_final/1750_fw.mp4	0.0	167.83409595489502	
32	148.24088788032532	movie	1		245	30.0	2.5	/experiments/AOT/AOT_stimuli/rescaled_final/1750_fw.mp4	0.0	168.65063285827637	2.4999539852142334
32	149.0242738723755	pulse	1	t		30.0	2.5	/experiments/AOT/AOT_stimuli/rescaled_final/1750_fw.mp4	0.0	169.43401885032654	
32	150.62308597564697	pulse	1	t		30.0	2.5	/experiments/AOT/AOT_stimuli/rescaled_final/1750_fw.mp4	0.0	171.03283095359802	
32	150.74084186553955	fix_post	2		12	30.0	2.5	/experiments/AOT/AOT_stimuli/rescaled_final/1750_fw.mp4	0.0	171.1505868434906	0.10019612312316895
33	150.84103798866272	fix_pre	0		120	31.0	2.5	/experiments/AOT/AOT_stimuli/rescaled_final/1021_rv.mp4	0.0	171.25078296661377	0.9998528957366943
33	151.8408908843994	movie	1		245	31.0	2.5	/experiments/AOT/AOT_stimuli/rescaled_final/1021_rv.mp4	0.0	172.25063586235046	2.4999279975891113
33	152.22398400306702	pulse	1	t		31.0	2.5	/experiments/AOT/AOT_stimuli/rescaled_final/1021_rv.mp4	0.0	172.63372898101807	
33	153.82427382469177	pulse	1	t		31.0	2.5	/experiments/AOT/AOT_stimuli/rescaled_final/1021_rv.mp4	0.0	174.23401880264282	
33	154.34081888198853	fix_post	2		12	31.0	2.5	/experiments/AOT/AOT_stimuli/rescaled_final/1021_rv.mp4	0.0	174.75056385993958	0.10000991821289062
34	154.44082880020142	fix_pre	0		119	32.0	2.5	/experiments/AOT/AOT_stimuli/rescaled_final/1691_fw.mp4	0.0	174.85057377815247	0.9915921688079834
34	155.42426681518555	pulse	0	t		32.0	2.5	/experiments/AOT/AOT_stimuli/rescaled_final/1691_fw.mp4	0.0	175.8340117931366	
34	155.4324209690094	movie	1		244	32.0	2.5	/experiments/AOT/AOT_stimuli/rescaled_final/1691_fw.mp4	0.0	175.84216594696045	2.5084259510040283
34	157.02389788627625	pulse	1	t		32.0	2.5	/experiments/AOT/AOT_stimuli/rescaled_final/1691_fw.mp4	0.0	177.4336428642273	
34	157.94084692001343	fix_post	2		12	32.0	2.5	/experiments/AOT/AOT_stimuli/rescaled_final/1691_fw.mp4	0.0	178.35059189796448	0.09994387626647949
35	158.0407907962799	fix_pre	0		120	33.0	2.5	blank	1.0	178.45053577423096	1.0000381469726562
35	158.62434196472168	pulse	0	t		33.0	2.5	blank	1.0	179.03408694267273	
35	159.04082894325256	movie	1		300	33.0	2.5	blank	1.0	179.4505739212036	2.4999499320983887
35	160.22427201271057	pulse	1	t		33.0	2.5	blank	1.0	180.63401699066162	
35	161.54077887535095	fix_post	2		12	33.0	2.5	blank	1.0	181.950523853302	0.10001802444458008
36	161.64079689979553	fix_pre	0		120	34.0	2.5	/experiments/AOT/AOT_stimuli/rescaled_final/2177_fw.mp4	0.0	182.05054187774658	1.000020980834961
36	161.82429790496826	pulse	0	t		34.0	2.5	/experiments/AOT/AOT_stimuli/rescaled_final/2177_fw.mp4	0.0	182.2340428829193	
36	162.6408178806305	movie	1		246	34.0	2.5	/experiments/AOT/AOT_stimuli/rescaled_final/2177_fw.mp4	0.0	183.05056285858154	2.4999709129333496
36	163.42433381080627	pulse	1	t		34.0	2.5	/experiments/AOT/AOT_stimuli/rescaled_final/2177_fw.mp4	0.0	183.83407878875732	
36	165.02277898788452	pulse	1	t		34.0	2.5	/experiments/AOT/AOT_stimuli/rescaled_final/2177_fw.mp4	0.0	185.43252396583557	
36	165.14078879356384	fix_post	2		12	34.0	2.5	/experiments/AOT/AOT_stimuli/rescaled_final/2177_fw.mp4	0.0	185.5505337715149	0.10005903244018555
37	165.24084782600403	fix_pre	0		120	35.0	2.5	/experiments/AOT/AOT_stimuli/rescaled_final/0361_rv.mp4	0.0	185.65059280395508	0.9999251365661621
37	166.2407729625702	movie	1		245	35.0	2.5	/experiments/AOT/AOT_stimuli/rescaled_final/0361_rv.mp4	0.0	186.65051794052124	2.499943971633911
37	166.62399291992188	pulse	1	t		35.0	2.5	/experiments/AOT/AOT_stimuli/rescaled_final/0361_rv.mp4	0.0	187.03373789787292	
37	168.22434186935425	pulse	1	t		35.0	2.5	/experiments/AOT/AOT_stimuli/rescaled_final/0361_rv.mp4	0.0	188.6340868473053	
37	168.7407169342041	fix_post	2		12	35.0	2.5	/experiments/AOT/AOT_stimuli/rescaled_final/0361_rv.mp4	0.0	189.15046191215515	0.10012292861938477
38	168.8408398628235	fix_pre	0		119	36.0	2.5	/experiments/AOT/AOT_stimuli/rescaled_final/0732_rv.mp4	0.0	189.25058484077454	0.9915511608123779
38	169.8242108821869	pulse	0	t		36.0	2.5	/experiments/AOT/AOT_stimuli/rescaled_final/0732_rv.mp4	0.0	190.23395586013794	
38	169.83239102363586	movie	1		246	36.0	2.5	/experiments/AOT/AOT_stimuli/rescaled_final/0732_rv.mp4	0.0	190.2421360015869	2.5082719326019287
38	171.4251799583435	pulse	1	t		36.0	2.5	/experiments/AOT/AOT_stimuli/rescaled_final/0732_rv.mp4	0.0	191.83492493629456	
38	172.3406629562378	fix_post	2		12	36.0	2.5	/experiments/AOT/AOT_stimuli/rescaled_final/0732_rv.mp4	0.0	192.75040793418884	0.1001138687133789
39	172.44077682495117	fix_pre	0		120	37.0	2.5	/experiments/AOT/AOT_stimuli/rescaled_final/1583_fw.mp4	0.0	192.85052180290222	0.9999580383300781
39	173.02433896064758	pulse	0	t		37.0	2.5	/experiments/AOT/AOT_stimuli/rescaled_final/1583_fw.mp4	0.0	193.43408393859863	
39	173.44073486328125	movie	1		244	37.0	2.5	/experiments/AOT/AOT_stimuli/rescaled_final/1583_fw.mp4	0.0	193.8504798412323	2.499622106552124
39	174.62440180778503	pulse	1	t		37.0	2.5	/experiments/AOT/AOT_stimuli/rescaled_final/1583_fw.mp4	0.0	195.03414678573608	
39	175.94035696983337	fix_post	2		12	37.0	2.5	/experiments/AOT/AOT_stimuli/rescaled_final/1583_fw.mp4	0.0	196.35010194778442	0.10043001174926758
40	176.04078698158264	fix_pre	0		120	38.0	2.5	/experiments/AOT/AOT_stimuli/rescaled_final/1572_fw.mp4	0.0	196.4505319595337	0.9999299049377441
40	176.22425079345703	pulse	0	t		38.0	2.5	/experiments/AOT/AOT_stimuli/rescaled_final/1572_fw.mp4	0.0	196.63399577140808	
40	177.04071688652039	movie	1		244	38.0	2.5	/experiments/AOT/AOT_stimuli/rescaled_final/1572_fw.mp4	0.0	197.45046186447144	2.500037908554077
40	177.82426190376282	pulse	1	t		38.0	2.5	/experiments/AOT/AOT_stimuli/rescaled_final/1572_fw.mp4	0.0	198.23400688171387	
40	179.42301988601685	pulse	1	t		38.0	2.5	/experiments/AOT/AOT_stimuli/rescaled_final/1572_fw.mp4	0.0	199.8327648639679	
40	179.54075479507446	fix_post	2		12	38.0	2.5	/experiments/AOT/AOT_stimuli/rescaled_final/1572_fw.mp4	0.0	199.9504997730255	0.09999322891235352
41	179.64074802398682	fix_pre	0		120	39.0	2.5	/experiments/AOT/AOT_stimuli/rescaled_final/0252_rv.mp4	0.0	200.05049300193787	1.000046968460083
41	180.6407949924469	movie	1		244	39.0	2.5	/experiments/AOT/AOT_stimuli/rescaled_final/0252_rv.mp4	0.0	201.05053997039795	2.499907970428467
41	181.02388191223145	pulse	1	t		39.0	2.5	/experiments/AOT/AOT_stimuli/rescaled_final/0252_rv.mp4	0.0	201.4336268901825	
41	182.62419199943542	pulse	1	t		39.0	2.5	/experiments/AOT/AOT_stimuli/rescaled_final/0252_rv.mp4	0.0	203.03393697738647	
41	183.14070296287537	fix_post	2		12	39.0	2.5	/experiments/AOT/AOT_stimuli/rescaled_final/0252_rv.mp4	0.0	203.55044794082642	0.10009384155273438
42	183.2407968044281	fix_pre	0		119	40.0	2.5	/experiments/AOT/AOT_stimuli/rescaled_final/1298_rv.mp4	0.0	203.65054178237915	0.9914610385894775
42	184.22422885894775	pulse	0	t		40.0	2.5	/experiments/AOT/AOT_stimuli/rescaled_final/1298_rv.mp4	0.0	204.6339738368988	
42	184.23225784301758	movie	1		244	40.0	2.5	/experiments/AOT/AOT_stimuli/rescaled_final/1298_rv.mp4	0.0	204.64200282096863	2.5084080696105957
42	185.82369685173035	pulse	1	t		40.0	2.5	/experiments/AOT/AOT_stimuli/rescaled_final/1298_rv.mp4	0.0	206.2334418296814	
42	186.74066591262817	fix_post	2		12	40.0	2.5	/experiments/AOT/AOT_stimuli/rescaled_final/1298_rv.mp4	0.0	207.15041089057922	0.09998703002929688
43	186.84065294265747	fix_pre	0		120	41.0	2.5	/experiments/AOT/AOT_stimuli/rescaled_final/0919_rv.mp4	0.0	207.25039792060852	1.0000629425048828
43	187.42411279678345	pulse	0	t		41.0	2.5	/experiments/AOT/AOT_stimuli/rescaled_final/0919_rv.mp4	0.0	207.8338577747345	
43	187.84071588516235	movie	1		243	41.0	2.5	/experiments/AOT/AOT_stimuli/rescaled_final/0919_rv.mp4	0.0	208.2504608631134	2.499925136566162
43	189.02418398857117	pulse	1	t		41.0	2.5	/experiments/AOT/AOT_stimuli/rescaled_final/0919_rv.mp4	0.0	209.43392896652222	
43	190.34064102172852	fix_post	2		12	41.0	2.5	/experiments/AOT/AOT_stimuli/rescaled_final/0919_rv.mp4	0.0	210.75038599967957	0.10006999969482422
44	190.44071102142334	fix_pre	0		120	42.0	2.5	blank	1.0	210.8504559993744	0.999957799911499
44	190.62410497665405	pulse	0	t		42.0	2.5	blank	1.0	211.0338499546051	
44	191.44066882133484	movie	1		300	42.0	2.5	blank	1.0	211.8504137992859	2.4999730587005615
44	192.22406196594238	pulse	1	t		42.0	2.5	blank	1.0	212.63380694389343	
44	193.82404589653015	pulse	1	t		42.0	2.5	blank	1.0	214.2337908744812	
44	193.9406418800354	fix_post	2		12	42.0	2.5	blank	1.0	214.35038685798645	0.1000211238861084
45	194.0406630039215	fix_pre	0		120	43.0	2.5	/experiments/AOT/AOT_stimuli/rescaled_final/1815_rv.mp4	0.0	214.45040798187256	1.0001089572906494
45	195.04077196121216	movie	1		246	43.0	2.5	/experiments/AOT/AOT_stimuli/rescaled_final/1815_rv.mp4	0.0	215.4505169391632	2.4994828701019287
45	195.42362999916077	pulse	1	t		43.0	2.5	/experiments/AOT/AOT_stimuli/rescaled_final/1815_rv.mp4	0.0	215.83337497711182	
45	197.02366995811462	pulse	1	t		43.0	2.5	/experiments/AOT/AOT_stimuli/rescaled_final/1815_rv.mp4	0.0	217.43341493606567	
45	197.5402548313141	fix_post	2		12	43.0	2.5	/experiments/AOT/AOT_stimuli/rescaled_final/1815_rv.mp4	0.0	217.94999980926514	0.10045409202575684
46	197.64070892333984	fix_pre	0		119	44.0	2.5	/experiments/AOT/AOT_stimuli/rescaled_final/1258_fw.mp4	0.0	218.0504539012909	0.9917969703674316
46	198.6238980293274	pulse	0	t		44.0	2.5	/experiments/AOT/AOT_stimuli/rescaled_final/1258_fw.mp4	0.0	219.03364300727844	
46	198.63250589370728	movie	1		245	44.0	2.5	/experiments/AOT/AOT_stimuli/rescaled_final/1258_fw.mp4	0.0	219.04225087165833	2.5081961154937744
46	200.2238450050354	pulse	1	t		44.0	2.5	/experiments/AOT/AOT_stimuli/rescaled_final/1258_fw.mp4	0.0	220.63358998298645	
46	201.14070200920105	fix_post	2		12	44.0	2.5	/experiments/AOT/AOT_stimuli/rescaled_final/1258_fw.mp4	0.0	221.5504469871521	0.10001397132873535
47	201.24071598052979	fix_pre	0		120	45.0	2.5	/experiments/AOT/AOT_stimuli/rescaled_final/1776_fw.mp4	0.0	221.65046095848083	0.9999399185180664
47	201.82418584823608	pulse	0	t		45.0	2.5	/experiments/AOT/AOT_stimuli/rescaled_final/1776_fw.mp4	0.0	222.23393082618713	
47	202.24065589904785	movie	1		243	45.0	2.5	/experiments/AOT/AOT_stimuli/rescaled_final/1776_fw.mp4	0.0	222.6504008769989	2.4998979568481445
47	203.42413783073425	pulse	1	t		45.0	2.5	/experiments/AOT/AOT_stimuli/rescaled_final/1776_fw.mp4	0.0	223.8338828086853	
47	204.740553855896	fix_post	2		12	45.0	2.5	/experiments/AOT/AOT_stimuli/rescaled_final/1776_fw.mp4	0.0	225.15029883384705	0.10006403923034668
48	204.84061789512634	fix_pre	0		120	46.0	2.5	/experiments/AOT/AOT_stimuli/rescaled_final/1428_fw.mp4	0.0	225.2503628730774	0.9999029636383057
48	205.02407002449036	pulse	0	t		46.0	2.5	/experiments/AOT/AOT_stimuli/rescaled_final/1428_fw.mp4	0.0	225.4338150024414	
48	205.84052085876465	movie	1		248	46.0	2.5	/experiments/AOT/AOT_stimuli/rescaled_final/1428_fw.mp4	0.0	226.2502658367157	2.500023126602173
48	206.6240689754486	pulse	1	t		46.0	2.5	/experiments/AOT/AOT_stimuli/rescaled_final/1428_fw.mp4	0.0	227.03381395339966	
48	208.22404384613037	pulse	1	t		46.0	2.5	/experiments/AOT/AOT_stimuli/rescaled_final/1428_fw.mp4	0.0	228.63378882408142	
48	208.34054398536682	fix_post	2		12	46.0	2.5	/experiments/AOT/AOT_stimuli/rescaled_final/1428_fw.mp4	0.0	228.75028896331787	0.09996199607849121
49	208.4405059814453	fix_pre	0		120	47.0	2.5	/experiments/AOT/AOT_stimuli/rescaled_final/1423_fw.mp4	0.0	228.85025095939636	0.9996049404144287
49	209.44011092185974	movie	1		245	47.0	2.5	/experiments/AOT/AOT_stimuli/rescaled_final/1423_fw.mp4	0.0	229.8498558998108	2.500101089477539
49	209.82511496543884	pulse	1	t		47.0	2.5	/experiments/AOT/AOT_stimuli/rescaled_final/1423_fw.mp4	0.0	230.2348599433899	
49	211.4240448474884	pulse	1	t		47.0	2.5	/experiments/AOT/AOT_stimuli/rescaled_final/1423_fw.mp4	0.0	231.83378982543945	
49	211.94021201133728	fix_post	2		12	47.0	2.5	/experiments/AOT/AOT_stimuli/rescaled_final/1423_fw.mp4	0.0	232.34995698928833	0.10032987594604492
50	212.04054188728333	fix_pre	0		119	48.0	2.5	/experiments/AOT/AOT_stimuli/rescaled_final/1575_fw.mp4	0.0	232.45028686523438	0.9916439056396484
50	213.02401781082153	pulse	0	t		48.0	2.5	/experiments/AOT/AOT_stimuli/rescaled_final/1575_fw.mp4	0.0	233.43376278877258	
50	213.03218579292297	movie	1		247	48.0	2.5	/experiments/AOT/AOT_stimuli/rescaled_final/1575_fw.mp4	0.0	233.44193077087402	2.50838303565979
50	214.6235978603363	pulse	1	t		48.0	2.5	/experiments/AOT/AOT_stimuli/rescaled_final/1575_fw.mp4	0.0	235.03334283828735	
50	215.54056882858276	fix_post	2		12	48.0	2.5	/experiments/AOT/AOT_stimuli/rescaled_final/1575_fw.mp4	0.0	235.9503138065338	0.1000070571899414
51	215.6405758857727	fix_pre	0		120	49.0	2.5	blank	1.0	236.05032086372375	0.9999380111694336
51	216.22398591041565	pulse	0	t		49.0	2.5	blank	1.0	236.6337308883667	
51	216.64051389694214	movie	1		300	49.0	2.5	blank	1.0	237.0502588748932	2.499964952468872
51	217.824059009552	pulse	1	t		49.0	2.5	blank	1.0	238.23380398750305	
51	219.140478849411	fix_post	2		12	49.0	2.5	blank	1.0	239.55022382736206	0.10004806518554688
52	219.24052691459656	fix_pre	0		120	50.0	2.5	/experiments/AOT/AOT_stimuli/rescaled_final/2111_rv.mp4	0.0	239.6502718925476	0.9999430179595947
52	219.42400479316711	pulse	0	t		50.0	2.5	/experiments/AOT/AOT_stimuli/rescaled_final/2111_rv.mp4	0.0	239.83374977111816	
52	220.24046993255615	movie	1		244	50.0	2.5	/experiments/AOT/AOT_stimuli/rescaled_final/2111_rv.mp4	0.0	240.6502149105072	2.4995720386505127
52	221.02403092384338	pulse	1	t		50.0	2.5	/experiments/AOT/AOT_stimuli/rescaled_final/2111_rv.mp4	0.0	241.43377590179443	
52	222.62271690368652	pulse	1	t		50.0	2.5	/experiments/AOT/AOT_stimuli/rescaled_final/2111_rv.mp4	0.0	243.03246188163757	
52	222.74004197120667	fix_post	2		12	50.0	2.5	/experiments/AOT/AOT_stimuli/rescaled_final/2111_rv.mp4	0.0	243.14978694915771	0.10043001174926758
53	222.84047198295593	fix_pre	0		120	51.0	2.5	/experiments/AOT/AOT_stimuli/rescaled_final/0473_fw.mp4	0.0	243.25021696090698	1.0001099109649658
53	223.8405818939209	movie	1		243	51.0	2.5	/experiments/AOT/AOT_stimuli/rescaled_final/0473_fw.mp4	0.0	244.25032687187195	2.499875068664551
53	224.22384881973267	pulse	1	t		51.0	2.5	/experiments/AOT/AOT_stimuli/rescaled_final/0473_fw.mp4	0.0	244.63359379768372	
53	225.82396602630615	pulse	1	t		51.0	2.5	/experiments/AOT/AOT_stimuli/rescaled_final/0473_fw.mp4	0.0	246.2337110042572	
53	226.34045696258545	fix_post	2		12	51.0	2.5	/experiments/AOT/AOT_stimuli/rescaled_final/0473_fw.mp4	0.0	246.7502019405365	0.09997701644897461
54	226.44043397903442	fix_pre	0		119	52.0	2.5	/experiments/AOT/AOT_stimuli/rescaled_final/1423_rv.mp4	0.0	246.85017895698547	0.9917080402374268
54	227.42404079437256	pulse	0	t		52.0	2.5	/experiments/AOT/AOT_stimuli/rescaled_final/1423_rv.mp4	0.0	247.8337857723236	
54	227.43214201927185	movie	1		244	52.0	2.5	/experiments/AOT/AOT_stimuli/rescaled_final/1423_rv.mp4	0.0	247.8418869972229	2.5082948207855225
54	229.02374482154846	pulse	1	t		52.0	2.5	/experiments/AOT/AOT_stimuli/rescaled_final/1423_rv.mp4	0.0	249.4334897994995	
54	229.94043684005737	fix_post	2		12	52.0	2.5	/experiments/AOT/AOT_stimuli/rescaled_final/1423_rv.mp4	0.0	250.35018181800842	0.09994006156921387
55	230.0403769016266	fix_pre	0		120	53.0	2.5	/experiments/AOT/AOT_stimuli/rescaled_final/1467_fw.mp4	0.0	250.45012187957764	1.0002880096435547
55	230.62392902374268	pulse	0	t		53.0	2.5	/experiments/AOT/AOT_stimuli/rescaled_final/1467_fw.mp4	0.0	251.03367400169373	
55	231.04066491127014	movie	1		245	53.0	2.5	/experiments/AOT/AOT_stimuli/rescaled_final/1467_fw.mp4	0.0	251.4504098892212	2.4998679161071777
55	232.22398591041565	pulse	1	t		53.0	2.5	/experiments/AOT/AOT_stimuli/rescaled_final/1467_fw.mp4	0.0	252.6337308883667	
55	233.54053282737732	fix_post	2		12	53.0	2.5	/experiments/AOT/AOT_stimuli/rescaled_final/1467_fw.mp4	0.0	253.95027780532837	0.09992098808288574
56	233.6404538154602	fix_pre	0		120	54.0	2.5	/experiments/AOT/AOT_stimuli/rescaled_final/0853_rv.mp4	0.0	254.05019879341125	0.9995901584625244
56	233.82388496398926	pulse	0	t		54.0	2.5	/experiments/AOT/AOT_stimuli/rescaled_final/0853_rv.mp4	0.0	254.2336299419403	
56	234.64004397392273	movie	1		246	54.0	2.5	/experiments/AOT/AOT_stimuli/rescaled_final/0853_rv.mp4	0.0	255.04978895187378	2.499979019165039
56	235.42398190498352	pulse	1	t		54.0	2.5	/experiments/AOT/AOT_stimuli/rescaled_final/0853_rv.mp4	0.0	255.83372688293457	
56	237.0224688053131	pulse	1	t		54.0	2.5	/experiments/AOT/AOT_stimuli/rescaled_final/0853_rv.mp4	0.0	257.43221378326416	
56	237.14002299308777	fix_post	2		12	54.0	2.5	/experiments/AOT/AOT_stimuli/rescaled_final/0853_rv.mp4	0.0	257.5497679710388	0.1003420352935791
57	237.24036502838135	fix_pre	0		120	55.0	2.5	blank	1.0	257.6501100063324	1.0
57	238.24036502838135	movie	1		300	55.0	2.5	blank	1.0	258.6501100063324	2.5000579357147217
57	238.6238968372345	pulse	1	t		55.0	2.5	blank	1.0	259.03364181518555	
57	240.22400999069214	pulse	1	t		55.0	2.5	blank	1.0	260.6337549686432	
57	240.74042296409607	fix_post	2		12	55.0	2.5	blank	1.0	261.1501679420471	0.09992790222167969
58	240.84035086631775	fix_pre	0		119	56.0	2.5	/experiments/AOT/AOT_stimuli/rescaled_final/0843_rv.mp4	0.0	261.2500958442688	0.9917199611663818
58	241.82383179664612	pulse	0	t		56.0	2.5	/experiments/AOT/AOT_stimuli/rescaled_final/0843_rv.mp4	0.0	262.23357677459717	
58	241.83207082748413	movie	1		245	56.0	2.5	/experiments/AOT/AOT_stimuli/rescaled_final/0843_rv.mp4	0.0	262.2418158054352	2.507930040359497
58	243.4250979423523	pulse	1	t		56.0	2.5	/experiments/AOT/AOT_stimuli/rescaled_final/0843_rv.mp4	0.0	263.83484292030334	
58	244.34000086784363	fix_post	2		12	56.0	2.5	/experiments/AOT/AOT_stimuli/rescaled_final/0843_rv.mp4	0.0	264.7497458457947	0.1004800796508789
59	244.4404809474945	fix_pre	0		120	57.0	2.5	/experiments/AOT/AOT_stimuli/rescaled_final/1750_fw.mp4	0.0	264.85022592544556	0.9999439716339111
59	245.0238389968872	pulse	0	t		57.0	2.5	/experiments/AOT/AOT_stimuli/rescaled_final/1750_fw.mp4	0.0	265.43358397483826	
59	245.44042491912842	movie	1		244	57.0	2.5	/experiments/AOT/AOT_stimuli/rescaled_final/1750_fw.mp4	0.0	265.85016989707947	2.5000081062316895
59	246.62400889396667	pulse	1	t		57.0	2.5	/experiments/AOT/AOT_stimuli/rescaled_final/1750_fw.mp4	0.0	267.0337538719177	
59	247.9404330253601	fix_post	2		12	57.0	2.5	/experiments/AOT/AOT_stimuli/rescaled_final/1750_fw.mp4	0.0	268.35017800331116	0.09996199607849121
60	248.0403950214386	fix_pre	0		120	58.0	2.5	/experiments/AOT/AOT_stimuli/rescaled_final/1936_rv.mp4	0.0	268.45013999938965	1.000046968460083
60	248.22389888763428	pulse	0	t		58.0	2.5	/experiments/AOT/AOT_stimuli/rescaled_final/1936_rv.mp4	0.0	268.6336438655853	
60	249.04044198989868	movie	1		245	58.0	2.5	/experiments/AOT/AOT_stimuli/rescaled_final/1936_rv.mp4	0.0	269.45018696784973	2.4999868869781494
60	249.82393383979797	pulse	1	t		58.0	2.5	/experiments/AOT/AOT_stimuli/rescaled_final/1936_rv.mp4	0.0	270.233678817749	
60	251.41994285583496	pulse	1	t		58.0	2.5	/experiments/AOT/AOT_stimuli/rescaled_final/1936_rv.mp4	0.0	271.829687833786	
60	251.54042887687683	fix_post	2		12	58.0	2.5	/experiments/AOT/AOT_stimuli/rescaled_final/1936_rv.mp4	0.0	271.9501738548279	0.100006103515625
61	251.64043498039246	fix_pre	0		120	59.0	2.5	/experiments/AOT/AOT_stimuli/rescaled_final/0782_fw.mp4	0.0	272.0501799583435	0.9995698928833008
61	252.64000487327576	movie	1		246	59.0	2.5	/experiments/AOT/AOT_stimuli/rescaled_final/0782_fw.mp4	0.0	273.0497498512268	2.500357151031494
61	253.023020029068	pulse	1	t		59.0	2.5	/experiments/AOT/AOT_stimuli/rescaled_final/0782_fw.mp4	0.0	273.43276500701904	
61	254.62383389472961	pulse	1	t		59.0	2.5	/experiments/AOT/AOT_stimuli/rescaled_final/0782_fw.mp4	0.0	275.03357887268066	
61	255.14036202430725	fix_post	2		12	59.0	2.5	/experiments/AOT/AOT_stimuli/rescaled_final/0782_fw.mp4	0.0	275.5501070022583	0.09995889663696289
62	255.2403209209442	fix_pre	0		119	60.0	2.5	/experiments/AOT/AOT_stimuli/rescaled_final/2133_fw.mp4	0.0	275.65006589889526	0.9917171001434326
62	256.22383880615234	pulse	0	t		60.0	2.5	/experiments/AOT/AOT_stimuli/rescaled_final/2133_fw.mp4	0.0	276.6335837841034	
62	256.23203802108765	movie	1		247	60.0	2.5	/experiments/AOT/AOT_stimuli/rescaled_final/2133_fw.mp4	0.0	276.6417829990387	2.508401870727539
62	257.8234930038452	pulse	1	t		60.0	2.5	/experiments/AOT/AOT_stimuli/rescaled_final/2133_fw.mp4	0.0	278.23323798179626	
62	258.7404398918152	fix_post	2		12	60.0	2.5	/experiments/AOT/AOT_stimuli/rescaled_final/2133_fw.mp4	0.0	279.15018486976624	0.09990406036376953
63	258.84034395217896	fix_pre	0		120	61.0	2.5	/experiments/AOT/AOT_stimuli/rescaled_final/2070_rv.mp4	0.0	279.25008893013	1.000169038772583
63	259.42381381988525	pulse	0	t		61.0	2.5	/experiments/AOT/AOT_stimuli/rescaled_final/2070_rv.mp4	0.0	279.8335587978363	
63	259.84051299095154	movie	1		246	61.0	2.5	/experiments/AOT/AOT_stimuli/rescaled_final/2070_rv.mp4	0.0	280.2502579689026	2.4998209476470947
63	261.02386593818665	pulse	1	t		61.0	2.5	/experiments/AOT/AOT_stimuli/rescaled_final/2070_rv.mp4	0.0	281.4336109161377	
63	262.34033393859863	fix_post	2		12	61.0	2.5	/experiments/AOT/AOT_stimuli/rescaled_final/2070_rv.mp4	0.0	282.7500789165497	0.09995388984680176
64	262.44028782844543	fix_pre	0		120	62.0	2.5	blank	1.0	282.8500328063965	1.000028133392334
64	262.62382102012634	pulse	0	t		62.0	2.5	blank	1.0	283.0335659980774	
64	263.44031596183777	movie	1		300	62.0	2.5	blank	1.0	283.8500609397888	2.4999489784240723
64	264.22378182411194	pulse	1	t		62.0	2.5	blank	1.0	284.633526802063	
64	265.8238248825073	pulse	1	t		62.0	2.5	blank	1.0	286.2335698604584	
64	265.94026494026184	fix_post	2		12	62.0	2.5	blank	1.0	286.3500099182129	0.10004186630249023
65	266.04030680656433	fix_pre	0		120	63.0	2.5	/experiments/AOT/AOT_stimuli/rescaled_final/0642_rv.mp4	0.0	286.4500517845154	0.9999971389770508
65	267.0403039455414	movie	1		243	63.0	2.5	/experiments/AOT/AOT_stimuli/rescaled_final/0642_rv.mp4	0.0	287.45004892349243	2.500002861022949
65	267.4234428405762	pulse	1	t		63.0	2.5	/experiments/AOT/AOT_stimuli/rescaled_final/0642_rv.mp4	0.0	287.8331878185272	
65	269.02373790740967	pulse	1	t		63.0	2.5	/experiments/AOT/AOT_stimuli/rescaled_final/0642_rv.mp4	0.0	289.4334828853607	
65	269.54030680656433	fix_post	2		12	63.0	2.5	/experiments/AOT/AOT_stimuli/rescaled_final/0642_rv.mp4	0.0	289.9500517845154	0.09995603561401367
66	269.64026284217834	fix_pre	0		119	64.0	2.5	/experiments/AOT/AOT_stimuli/rescaled_final/1161_rv.mp4	0.0	290.0500078201294	0.9916861057281494
66	270.6238088607788	pulse	0	t		64.0	2.5	/experiments/AOT/AOT_stimuli/rescaled_final/1161_rv.mp4	0.0	291.03355383872986	
66	270.6319489479065	movie	1		244	64.0	2.5	/experiments/AOT/AOT_stimuli/rescaled_final/1161_rv.mp4	0.0	291.04169392585754	2.508265972137451
66	272.2234618663788	pulse	1	t		64.0	2.5	/experiments/AOT/AOT_stimuli/rescaled_final/1161_rv.mp4	0.0	292.63320684432983	
66	273.14021492004395	fix_post	2		12	64.0	2.5	/experiments/AOT/AOT_stimuli/rescaled_final/1161_rv.mp4	0.0	293.549959897995	0.10005497932434082
67	273.2402698993683	fix_pre	0		120	65.0	2.5	/experiments/AOT/AOT_stimuli/rescaled_final/2023_fw.mp4	0.0	293.65001487731934	1.0000050067901611
67	273.8238048553467	pulse	0	t		65.0	2.5	/experiments/AOT/AOT_stimuli/rescaled_final/2023_fw.mp4	0.0	294.23354983329773	
67	274.24027490615845	movie	1		246	65.0	2.5	/experiments/AOT/AOT_stimuli/rescaled_final/2023_fw.mp4	0.0	294.6500198841095	2.5000369548797607
67	275.4238259792328	pulse	1	t		65.0	2.5	/experiments/AOT/AOT_stimuli/rescaled_final/2023_fw.mp4	0.0	295.83357095718384	
67	276.7403118610382	fix_post	2		12	65.0	2.5	/experiments/AOT/AOT_stimuli/rescaled_final/2023_fw.mp4	0.0	297.15005683898926	0.09999203681945801
68	276.84030389785767	fix_pre	0		120	66.0	2.5	/experiments/AOT/AOT_stimuli/rescaled_final/0097_rv.mp4	0.0	297.2500488758087	1.0000019073486328
68	277.0237720012665	pulse	0	t		66.0	2.5	/experiments/AOT/AOT_stimuli/rescaled_final/0097_rv.mp4	0.0	297.43351697921753	
68	277.8403058052063	movie	1		246	66.0	2.5	/experiments/AOT/AOT_stimuli/rescaled_final/0097_rv.mp4	0.0	298.25005078315735	2.4999752044677734
68	278.6237759590149	pulse	1	t		66.0	2.5	/experiments/AOT/AOT_stimuli/rescaled_final/0097_rv.mp4	0.0	299.03352093696594	
68	280.22381496429443	pulse	1	t		66.0	2.5	/experiments/AOT/AOT_stimuli/rescaled_final/0097_rv.mp4	0.0	300.6335599422455	
68	280.3402810096741	fix_post	2		12	66.0	2.5	/experiments/AOT/AOT_stimuli/rescaled_final/0097_rv.mp4	0.0	300.7500259876251	0.10000395774841309
69	280.4402849674225	fix_pre	0		120	67.0	2.5	/experiments/AOT/AOT_stimuli/rescaled_final/0319_fw.mp4	0.0	300.85002994537354	0.9999480247497559
69	281.44023299217224	movie	1		244	67.0	2.5	/experiments/AOT/AOT_stimuli/rescaled_final/0319_fw.mp4	0.0	301.8499779701233	2.499980926513672
69	281.823117017746	pulse	1	t		67.0	2.5	/experiments/AOT/AOT_stimuli/rescaled_final/0319_fw.mp4	0.0	302.232861995697	
69	283.42367792129517	pulse	1	t		67.0	2.5	/experiments/AOT/AOT_stimuli/rescaled_final/0319_fw.mp4	0.0	303.8334228992462	
69	283.9402139186859	fix_post	2		12	67.0	2.5	/experiments/AOT/AOT_stimuli/rescaled_final/0319_fw.mp4	0.0	304.34995889663696	0.09997987747192383
70	284.04019379615784	fix_pre	0		119	68.0	2.5	/experiments/AOT/AOT_stimuli/rescaled_final/1428_rv.mp4	0.0	304.4499387741089	0.9916951656341553
70	285.0237560272217	pulse	0	t		68.0	2.5	/experiments/AOT/AOT_stimuli/rescaled_final/1428_rv.mp4	0.0	305.43350100517273	
70	285.031888961792	movie	1		251	68.0	2.5	/experiments/AOT/AOT_stimuli/rescaled_final/1428_rv.mp4	0.0	305.44163393974304	2.5083088874816895
70	286.6233158111572	pulse	1	t		68.0	2.5	/experiments/AOT/AOT_stimuli/rescaled_final/1428_rv.mp4	0.0	307.0330607891083	
70	287.5401978492737	fix_post	2		12	68.0	2.5	/experiments/AOT/AOT_stimuli/rescaled_final/1428_rv.mp4	0.0	307.94994282722473	0.0999760627746582
71	287.64017391204834	fix_pre	0		120	69.0	2.5	blank	1.0	308.0499188899994	1.000011920928955
71	288.2238278388977	pulse	0	t		69.0	2.5	blank	1.0	308.63357281684875	
71	288.6401858329773	movie	1		300	69.0	2.5	blank	1.0	309.04993081092834	2.499911069869995
71	289.8236699104309	pulse	1	t		69.0	2.5	blank	1.0	310.23341488838196	
71	291.1400969028473	fix_post	2		12	69.0	2.5	blank	1.0	311.54984188079834	0.10005712509155273
72	291.24015402793884	fix_pre	0		120	70.0	2.5	/experiments/AOT/AOT_stimuli/rescaled_final/1492_rv.mp4	0.0	311.6498990058899	0.9999649524688721
72	291.42369079589844	pulse	0	t		70.0	2.5	/experiments/AOT/AOT_stimuli/rescaled_final/1492_rv.mp4	0.0	311.8334357738495	
72	292.2401189804077	movie	1		244	70.0	2.5	/experiments/AOT/AOT_stimuli/rescaled_final/1492_rv.mp4	0.0	312.64986395835876	2.499987840652466
72	293.02367186546326	pulse	1	t		70.0	2.5	/experiments/AOT/AOT_stimuli/rescaled_final/1492_rv.mp4	0.0	313.4334168434143	
72	294.6226580142975	pulse	1	t		70.0	2.5	/experiments/AOT/AOT_stimuli/rescaled_final/1492_rv.mp4	0.0	315.03240299224854	
72	294.7401068210602	fix_post	2		12	70.0	2.5	/experiments/AOT/AOT_stimuli/rescaled_final/1492_rv.mp4	0.0	315.14985179901123	0.10004806518554688
73	294.8401548862457	fix_pre	0		120	71.0	2.5	/experiments/AOT/AOT_stimuli/rescaled_final/0053_rv.mp4	0.0	315.2498998641968	0.999946117401123
73	295.84010100364685	movie	1		243	71.0	2.5	/experiments/AOT/AOT_stimuli/rescaled_final/0053_rv.mp4	0.0	316.2498459815979	2.5000720024108887
73	296.22362089157104	pulse	1	t		71.0	2.5	/experiments/AOT/AOT_stimuli/rescaled_final/0053_rv.mp4	0.0	316.6333658695221	
73	297.8236689567566	pulse	1	t		71.0	2.5	/experiments/AOT/AOT_stimuli/rescaled_final/0053_rv.mp4	0.0	318.23341393470764	
73	298.34017300605774	fix_post	2		12	71.0	2.5	/experiments/AOT/AOT_stimuli/rescaled_final/0053_rv.mp4	0.0	318.7499179840088	0.09991598129272461
74	298.44008898735046	fix_pre	0		119	72.0	2.5	/experiments/AOT/AOT_stimuli/rescaled_final/1792_fw.mp4	0.0	318.8498339653015	0.9917190074920654
74	299.423663854599	pulse	0	t		72.0	2.5	/experiments/AOT/AOT_stimuli/rescaled_final/1792_fw.mp4	0.0	319.83340883255005	
74	299.43180799484253	movie	1		245	72.0	2.5	/experiments/AOT/AOT_stimuli/rescaled_final/1792_fw.mp4	0.0	319.8415529727936	2.508251905441284
74	301.0247869491577	pulse	1	t		72.0	2.5	/experiments/AOT/AOT_stimuli/rescaled_final/1792_fw.mp4	0.0	321.43453192710876	
74	301.9400599002838	fix_post	2		12	72.0	2.5	/experiments/AOT/AOT_stimuli/rescaled_final/1792_fw.mp4	0.0	322.34980487823486	0.09999489784240723
75	302.0400547981262	fix_pre	0		120	73.0	2.5	/experiments/AOT/AOT_stimuli/rescaled_final/0617_rv.mp4	0.0	322.44979977607727	1.0001301765441895
75	302.62366795539856	pulse	0	t		73.0	2.5	/experiments/AOT/AOT_stimuli/rescaled_final/0617_rv.mp4	0.0	323.0334129333496	
75	303.0401849746704	movie	1		244	73.0	2.5	/experiments/AOT/AOT_stimuli/rescaled_final/0617_rv.mp4	0.0	323.44992995262146	2.499979019165039
75	304.2237858772278	pulse	1	t		73.0	2.5	/experiments/AOT/AOT_stimuli/rescaled_final/0617_rv.mp4	0.0	324.63353085517883	
75	305.54016399383545	fix_post	2		12	73.0	2.5	/experiments/AOT/AOT_stimuli/rescaled_final/0617_rv.mp4	0.0	325.9499089717865	0.09989786148071289
76	305.64006185531616	fix_pre	0		120	74.0	2.5	/experiments/AOT/AOT_stimuli/rescaled_final/0610_fw.mp4	0.0	326.0498068332672	1.000067949295044
76	305.8235549926758	pulse	0	t		74.0	2.5	/experiments/AOT/AOT_stimuli/rescaled_final/0610_fw.mp4	0.0	326.23329997062683	
76	306.6401298046112	movie	1		244	74.0	2.5	/experiments/AOT/AOT_stimuli/rescaled_final/0610_fw.mp4	0.0	327.04987478256226	2.499713182449341
76	307.4236009120941	pulse	1	t		74.0	2.5	/experiments/AOT/AOT_stimuli/rescaled_final/0610_fw.mp4	0.0	327.83334589004517	
76	309.0217800140381	pulse	1	t		74.0	2.5	/experiments/AOT/AOT_stimuli/rescaled_final/0610_fw.mp4	0.0	329.43152499198914	
76	309.13984298706055	fix_post	2		12	74.0	2.5	/experiments/AOT/AOT_stimuli/rescaled_final/0610_fw.mp4	0.0	329.5495879650116	0.0999758243560791
77	309.2398188114166	fix_pre	0		120	75.0	2.5	/experiments/AOT/AOT_stimuli/rescaled_final/1485_rv.mp4	0.0	329.6495637893677	1.0001029968261719
77	310.2399218082428	movie	1		245	75.0	2.5	/experiments/AOT/AOT_stimuli/rescaled_final/1485_rv.mp4	0.0	330.64966678619385	2.500169038772583
77	310.62305188179016	pulse	1	t		75.0	2.5	/experiments/AOT/AOT_stimuli/rescaled_final/1485_rv.mp4	0.0	331.0327968597412	
77	312.2234799861908	pulse	1	t		75.0	2.5	/experiments/AOT/AOT_stimuli/rescaled_final/1485_rv.mp4	0.0	332.63322496414185	
77	312.7400908470154	fix_post	2		12	75.0	2.5	/experiments/AOT/AOT_stimuli/rescaled_final/1485_rv.mp4	0.0	333.14983582496643	0.10001015663146973
78	312.84010100364685	fix_pre	0		119	76.0	2.5	blank	1.0	333.2498459815979	0.991588830947876
78	313.82359290122986	pulse	0	t		76.0	2.5	blank	1.0	334.2333378791809	
78	313.8316898345947	movie	1		301	76.0	2.5	blank	1.0	334.2414348125458	2.508371114730835
78	315.4235110282898	pulse	1	t		76.0	2.5	blank	1.0	335.83325600624084	
78	316.34006094932556	fix_post	2		12	76.0	2.5	blank	1.0	336.7498059272766	0.09998488426208496
79	316.44004583358765	fix_pre	0		120	77.0	2.5	/experiments/AOT/AOT_stimuli/rescaled_final/1366_fw.mp4	0.0	336.8497908115387	0.9999279975891113
79	317.0234718322754	pulse	0	t		77.0	2.5	/experiments/AOT/AOT_stimuli/rescaled_final/1366_fw.mp4	0.0	337.43321681022644	
79	317.43997383117676	movie	1		247	77.0	2.5	/experiments/AOT/AOT_stimuli/rescaled_final/1366_fw.mp4	0.0	337.8497188091278	2.500030994415283
79	318.62363386154175	pulse	1	t		77.0	2.5	/experiments/AOT/AOT_stimuli/rescaled_final/1366_fw.mp4	0.0	339.0333788394928	
79	319.94000482559204	fix_post	2		12	77.0	2.5	/experiments/AOT/AOT_stimuli/rescaled_final/1366_fw.mp4	0.0	340.3497498035431	0.10002517700195312
80	320.040030002594	fix_pre	0		120	78.0	2.5	/experiments/AOT/AOT_stimuli/rescaled_final/0319_fw.mp4	0.0	340.44977498054504	0.999992847442627
80	320.22354197502136	pulse	0	t		78.0	2.5	/experiments/AOT/AOT_stimuli/rescaled_final/0319_fw.mp4	0.0	340.6332869529724	
80	321.0400228500366	movie	1		245	78.0	2.5	/experiments/AOT/AOT_stimuli/rescaled_final/0319_fw.mp4	0.0	341.44976782798767	2.4999749660491943
80	321.8235158920288	pulse	1	t		78.0	2.5	/experiments/AOT/AOT_stimuli/rescaled_final/0319_fw.mp4	0.0	342.23326086997986	
80	323.4217188358307	pulse	1	t		78.0	2.5	/experiments/AOT/AOT_stimuli/rescaled_final/0319_fw.mp4	0.0	343.83146381378174	
80	323.5399978160858	fix_post	2		12	78.0	2.5	/experiments/AOT/AOT_stimuli/rescaled_final/0319_fw.mp4	0.0	343.94974279403687	0.09995913505554199
81	323.63995695114136	fix_pre	0		120	79.0	2.5	/experiments/AOT/AOT_stimuli/rescaled_final/1528_fw.mp4	0.0	344.0497019290924	1.000025987625122
81	324.6399829387665	movie	1		249	79.0	2.5	/experiments/AOT/AOT_stimuli/rescaled_final/1528_fw.mp4	0.0	345.04972791671753	2.5000669956207275
81	325.0245008468628	pulse	1	t		79.0	2.5	/experiments/AOT/AOT_stimuli/rescaled_final/1528_fw.mp4	0.0	345.43424582481384	
81	326.62348985671997	pulse	1	t		79.0	2.5	/experiments/AOT/AOT_stimuli/rescaled_final/1528_fw.mp4	0.0	347.033234834671	
81	327.1400499343872	fix_post	2		12	79.0	2.5	/experiments/AOT/AOT_stimuli/rescaled_final/1528_fw.mp4	0.0	347.54979491233826	0.09991288185119629
82	327.2399628162384	fix_pre	0		119	80.0	2.5	/experiments/AOT/AOT_stimuli/rescaled_final/0114_fw.mp4	0.0	347.64970779418945	0.9916391372680664
82	328.22350788116455	pulse	0	t		80.0	2.5	/experiments/AOT/AOT_stimuli/rescaled_final/0114_fw.mp4	0.0	348.6332528591156	
82	328.23160195350647	movie	1		247	80.0	2.5	/experiments/AOT/AOT_stimuli/rescaled_final/0114_fw.mp4	0.0	348.6413469314575	2.5082919597625732
82	329.8246560096741	pulse	1	t		80.0	2.5	/experiments/AOT/AOT_stimuli/rescaled_final/0114_fw.mp4	0.0	350.2344009876251	
82	330.73989391326904	fix_post	2		12	80.0	2.5	/experiments/AOT/AOT_stimuli/rescaled_final/0114_fw.mp4	0.0	351.1496388912201	0.10002708435058594
83	330.83992099761963	fix_pre	0		120	81.0	2.5	/experiments/AOT/AOT_stimuli/rescaled_final/1617_fw.mp4	0.0	351.2496659755707	1.0000100135803223
83	331.42349195480347	pulse	0	t		81.0	2.5	/experiments/AOT/AOT_stimuli/rescaled_final/1617_fw.mp4	0.0	351.8332369327545	
83	331.83993101119995	movie	1		243	81.0	2.5	/experiments/AOT/AOT_stimuli/rescaled_final/1617_fw.mp4	0.0	352.249675989151	2.499992847442627
83	333.0235538482666	pulse	1	t		81.0	2.5	/experiments/AOT/AOT_stimuli/rescaled_final/1617_fw.mp4	0.0	353.43329882621765	
83	334.3399238586426	fix_post	2		12	81.0	2.5	/experiments/AOT/AOT_stimuli/rescaled_final/1617_fw.mp4	0.0	354.7496688365936	0.0999910831451416
84	334.4399149417877	fix_pre	0		120	82.0	2.5	/experiments/AOT/AOT_stimuli/rescaled_final/1121_fw.mp4	0.0	354.84965991973877	1.000035047531128
84	334.6233808994293	pulse	0	t		82.0	2.5	/experiments/AOT/AOT_stimuli/rescaled_final/1121_fw.mp4	0.0	355.03312587738037	
84	335.43994998931885	movie	1		246	82.0	2.5	/experiments/AOT/AOT_stimuli/rescaled_final/1121_fw.mp4	0.0	355.8496949672699	2.5000789165496826
84	336.22338485717773	pulse	1	t		82.0	2.5	/experiments/AOT/AOT_stimuli/rescaled_final/1121_fw.mp4	0.0	356.6331298351288	
84	337.81952691078186	pulse	1	t		82.0	2.5	/experiments/AOT/AOT_stimuli/rescaled_final/1121_fw.mp4	0.0	358.2292718887329	
84	337.94002890586853	fix_post	2		12	82.0	2.5	/experiments/AOT/AOT_stimuli/rescaled_final/1121_fw.mp4	0.0	358.3497738838196	0.09995102882385254
85	338.0399799346924	fix_pre	0		120	83.0	2.5	blank	1.0	358.44972491264343	0.9999790191650391
85	339.0399589538574	movie	1		300	83.0	2.5	blank	1.0	359.4497039318085	2.5000710487365723
85	339.42344880104065	pulse	1	t		83.0	2.5	blank	1.0	359.8331937789917	
85	341.0233829021454	pulse	1	t		83.0	2.5	blank	1.0	361.43312788009644	
85	341.540030002594	fix_post	2		12	83.0	2.5	blank	1.0	361.94977498054504	0.0999917984008789
87	341.6400218009949	stim	0		1716					362.0497667789459	14.299870014190674
87	342.62346601486206	pulse	0	t						363.0332109928131	
87	344.223415851593	pulse	0	t						364.63316082954407	
87	345.82337188720703	pulse	0	t						366.2331168651581	
87	347.4233989715576	pulse	0	t						367.83314394950867	
87	349.0233678817749	pulse	0	t						369.43311285972595	
87	350.62333393096924	pulse	0	t						371.0330789089203	
87	352.22328090667725	pulse	0	t						372.6330258846283	
87	353.823362827301	pulse	0	t						374.2331078052521	
87	355.4232859611511	pulse	0	t						375.8330309391022	
