trial_nr	onset	event_type	phase	response	nr_frames	movie_index	movie_duration	movie_file	blank	onset_abs	duration
0	0.20830678939819336	stim	0		79					17.697125911712646	0.6583449840545654
0	0.8585629463195801	response	0	space						18.347382068634033	
1	0.8666517734527588	stim	0		4614					18.355470895767212	38.465835094451904
1	39.32241892814636	pulse	0	t						56.811238050460815	
1	39.33248686790466	stim	1		1716					56.821305990219116	14.300332069396973
1	40.91451978683472	pulse	1	t						58.40333890914917	
1	42.51477789878845	pulse	1	t						60.003597021102905	
1	44.11485481262207	pulse	1	t						61.60367393493652	
1	45.71511387825012	pulse	1	t						63.203933000564575	
1	47.315462827682495	pulse	1	t						64.80428194999695	
1	48.9156928062439	pulse	1	t						66.40451192855835	
1	50.51581597328186	pulse	1	t						68.00463509559631	
1	52.11606693267822	pulse	1	t						69.60488605499268	
2	53.632818937301636	fix_pre	0		11	0.0	2.5	/experiments/knapen_AOT/AOT_stimuli/rescaled_final/1659_fw.mp4	0.0	71.12163805961609	0.09176802635192871
2	53.71648097038269	pulse	0	t		0.0	2.5	/experiments/knapen_AOT/AOT_stimuli/rescaled_final/1659_fw.mp4	0.0	71.20530009269714	
2	53.724586963653564	movie	1		244	0.0	2.5	/experiments/knapen_AOT/AOT_stimuli/rescaled_final/1659_fw.mp4	0.0	71.21340608596802	2.5086758136749268
2	55.317792892456055	pulse	1	t		0.0	2.5	/experiments/knapen_AOT/AOT_stimuli/rescaled_final/1659_fw.mp4	0.0	72.80661201477051	
2	56.23326277732849	fix_post	2		12	0.0	2.5	/experiments/knapen_AOT/AOT_stimuli/rescaled_final/1659_fw.mp4	0.0	73.72208189964294	0.09999418258666992
3	56.33325695991516	fix_pre	0		120	1.0	2.5	/experiments/knapen_AOT/AOT_stimuli/rescaled_final/0220_rv.mp4	0.0	73.82207608222961	1.0001609325408936
3	56.91687893867493	pulse	0	t		1.0	2.5	/experiments/knapen_AOT/AOT_stimuli/rescaled_final/0220_rv.mp4	0.0	74.40569806098938	
3	57.333417892456055	movie	1		242	1.0	2.5	/experiments/knapen_AOT/AOT_stimuli/rescaled_final/0220_rv.mp4	0.0	74.82223701477051	2.500396966934204
3	58.517080783843994	pulse	1	t		1.0	2.5	/experiments/knapen_AOT/AOT_stimuli/rescaled_final/0220_rv.mp4	0.0	76.00589990615845	
3	59.83381485939026	fix_post	2		12	1.0	2.5	/experiments/knapen_AOT/AOT_stimuli/rescaled_final/0220_rv.mp4	0.0	77.32263398170471	0.09993791580200195
4	59.93375277519226	fix_pre	0		120	2.0	2.5	/experiments/knapen_AOT/AOT_stimuli/rescaled_final/0815_fw.mp4	0.0	77.42257189750671	1.0001380443572998
4	60.1173939704895	pulse	0	t		2.0	2.5	/experiments/knapen_AOT/AOT_stimuli/rescaled_final/0815_fw.mp4	0.0	77.60621309280396	
4	60.93389081954956	movie	1		242	2.0	2.5	/experiments/knapen_AOT/AOT_stimuli/rescaled_final/0815_fw.mp4	0.0	78.42270994186401	2.5005791187286377
4	61.71770477294922	pulse	1	t		2.0	2.5	/experiments/knapen_AOT/AOT_stimuli/rescaled_final/0815_fw.mp4	0.0	79.20652389526367	
4	63.31759476661682	pulse	1	t		2.0	2.5	/experiments/knapen_AOT/AOT_stimuli/rescaled_final/0815_fw.mp4	0.0	80.80641388893127	
4	63.4344699382782	fix_post	2		12	2.0	2.5	/experiments/knapen_AOT/AOT_stimuli/rescaled_final/0815_fw.mp4	0.0	80.92328906059265	0.09984898567199707
5	63.534318923950195	fix_pre	0		120	3.0	2.5	/experiments/knapen_AOT/AOT_stimuli/rescaled_final/0509_rv.mp4	0.0	81.02313804626465	1.000166893005371
5	64.53448581695557	movie	1		244	3.0	2.5	/experiments/knapen_AOT/AOT_stimuli/rescaled_final/0509_rv.mp4	0.0	82.02330493927002	2.492072105407715
5	64.92188787460327	pulse	1	t		3.0	2.5	/experiments/knapen_AOT/AOT_stimuli/rescaled_final/0509_rv.mp4	0.0	82.41070699691772	
5	66.51831078529358	pulse	1	t		3.0	2.5	/experiments/knapen_AOT/AOT_stimuli/rescaled_final/0509_rv.mp4	0.0	84.00712990760803	
5	67.02655792236328	fix_post	2		12	3.0	2.5	/experiments/knapen_AOT/AOT_stimuli/rescaled_final/0509_rv.mp4	0.0	84.51537704467773	0.09998607635498047
6	67.12654399871826	fix_pre	0		120	4.0	2.5	/experiments/knapen_AOT/AOT_stimuli/rescaled_final/0218_rv.mp4	0.0	84.61536312103271	1.0001749992370605
6	68.11865377426147	pulse	0	t		4.0	2.5	/experiments/knapen_AOT/AOT_stimuli/rescaled_final/0218_rv.mp4	0.0	85.60747289657593	
6	68.12671899795532	movie	1		244	4.0	2.5	/experiments/knapen_AOT/AOT_stimuli/rescaled_final/0218_rv.mp4	0.0	85.61553812026978	2.5087029933929443
6	69.71935486793518	pulse	1	t		4.0	2.5	/experiments/knapen_AOT/AOT_stimuli/rescaled_final/0218_rv.mp4	0.0	87.20817399024963	
6	70.63542199134827	fix_post	2		12	4.0	2.5	/experiments/knapen_AOT/AOT_stimuli/rescaled_final/0218_rv.mp4	0.0	88.12424111366272	0.09996891021728516
7	70.73539090156555	fix_pre	0		120	5.0	2.5	/experiments/knapen_AOT/AOT_stimuli/rescaled_final/0158_fw.mp4	0.0	88.22421002388	1.000190019607544
7	71.31157898902893	pulse	0	t		5.0	2.5	/experiments/knapen_AOT/AOT_stimuli/rescaled_final/0158_fw.mp4	0.0	88.80039811134338	
7	71.7355809211731	movie	1		242	5.0	2.5	/experiments/knapen_AOT/AOT_stimuli/rescaled_final/0158_fw.mp4	0.0	89.22440004348755	2.5003550052642822
7	72.91137290000916	pulse	1	t		5.0	2.5	/experiments/knapen_AOT/AOT_stimuli/rescaled_final/0158_fw.mp4	0.0	90.40019202232361	
7	74.23593592643738	fix_post	2		12	5.0	2.5	/experiments/knapen_AOT/AOT_stimuli/rescaled_final/0158_fw.mp4	0.0	91.72475504875183	0.09996891021728516
8	74.33590483665466	fix_pre	0		120	6.0	2.5	/experiments/knapen_AOT/AOT_stimuli/rescaled_final/1570_fw.mp4	0.0	91.82472395896912	1.0001530647277832
8	74.51189088821411	pulse	0	t		6.0	2.5	/experiments/knapen_AOT/AOT_stimuli/rescaled_final/1570_fw.mp4	0.0	92.00071001052856	
8	75.33605790138245	movie	1		244	6.0	2.5	/experiments/knapen_AOT/AOT_stimuli/rescaled_final/1570_fw.mp4	0.0	92.8248770236969	2.5004239082336426
8	76.111407995224	pulse	1	t		6.0	2.5	/experiments/knapen_AOT/AOT_stimuli/rescaled_final/1570_fw.mp4	0.0	93.60022711753845	
8	77.71159195899963	pulse	1	t		6.0	2.5	/experiments/knapen_AOT/AOT_stimuli/rescaled_final/1570_fw.mp4	0.0	95.20041108131409	
8	77.83648180961609	fix_post	2		12	6.0	2.5	/experiments/knapen_AOT/AOT_stimuli/rescaled_final/1570_fw.mp4	0.0	95.32530093193054	0.10004615783691406
9	77.936527967453	fix_pre	0		120	7.0	2.5	blank	1.0	95.42534708976746	1.0001459121704102
9	78.93667387962341	movie	1		299	7.0	2.5	blank	1.0	96.42549300193787	2.4919939041137695
9	79.3118188381195	pulse	1	t		7.0	2.5	blank	1.0	96.80063796043396	
9	80.91204380989075	pulse	1	t		7.0	2.5	blank	1.0	98.4008629322052	
9	81.42866778373718	fix_post	2		12	7.0	2.5	blank	1.0	98.91748690605164	0.10002803802490234
10	81.52869582176208	fix_pre	0		119	8.0	2.5	/experiments/knapen_AOT/AOT_stimuli/rescaled_final/0372_fw.mp4	0.0	99.01751494407654	0.9917969703674316
10	82.51226782798767	pulse	0	t		8.0	2.5	/experiments/knapen_AOT/AOT_stimuli/rescaled_final/0372_fw.mp4	0.0	100.00108695030212	
10	82.52049279212952	movie	1		244	8.0	2.5	/experiments/knapen_AOT/AOT_stimuli/rescaled_final/0372_fw.mp4	0.0	100.00931191444397	2.508700132369995
10	84.11306095123291	pulse	1	t		8.0	2.5	/experiments/knapen_AOT/AOT_stimuli/rescaled_final/0372_fw.mp4	0.0	101.60188007354736	
10	85.02919292449951	fix_post	2		12	8.0	2.5	/experiments/knapen_AOT/AOT_stimuli/rescaled_final/0372_fw.mp4	0.0	102.51801204681396	0.10001301765441895
11	85.12920594215393	fix_pre	0		120	9.0	2.5	/experiments/knapen_AOT/AOT_stimuli/rescaled_final/1220_fw.mp4	0.0	102.61802506446838	1.0001189708709717
11	85.71284580230713	pulse	0	t		9.0	2.5	/experiments/knapen_AOT/AOT_stimuli/rescaled_final/1220_fw.mp4	0.0	103.20166492462158	
11	86.1293249130249	movie	1		242	9.0	2.5	/experiments/knapen_AOT/AOT_stimuli/rescaled_final/1220_fw.mp4	0.0	103.61814403533936	2.500494956970215
11	87.3130898475647	pulse	1	t		9.0	2.5	/experiments/knapen_AOT/AOT_stimuli/rescaled_final/1220_fw.mp4	0.0	104.80190896987915	
11	88.62981986999512	fix_post	2		12	9.0	2.5	/experiments/knapen_AOT/AOT_stimuli/rescaled_final/1220_fw.mp4	0.0	106.11863899230957	0.09995794296264648
12	88.72977781295776	fix_pre	0		118	10.0	2.5	/experiments/knapen_AOT/AOT_stimuli/rescaled_final/2049_rv.mp4	0.0	106.21859693527222	1.0001029968261719
12	88.91338777542114	pulse	0	t		10.0	2.5	/experiments/knapen_AOT/AOT_stimuli/rescaled_final/2049_rv.mp4	0.0	106.4022068977356	
12	89.72988080978394	movie	1		242	10.0	2.5	/experiments/knapen_AOT/AOT_stimuli/rescaled_final/2049_rv.mp4	0.0	107.21869993209839	2.5004541873931885
12	90.51351499557495	pulse	1	t		10.0	2.5	/experiments/knapen_AOT/AOT_stimuli/rescaled_final/2049_rv.mp4	0.0	108.0023341178894	
12	92.11378979682922	pulse	1	t		10.0	2.5	/experiments/knapen_AOT/AOT_stimuli/rescaled_final/2049_rv.mp4	0.0	109.60260891914368	
12	92.23033499717712	fix_post	2		12	10.0	2.5	/experiments/knapen_AOT/AOT_stimuli/rescaled_final/2049_rv.mp4	0.0	109.71915411949158	0.09991979598999023
13	92.33025479316711	fix_pre	0		119	11.0	2.5	/experiments/knapen_AOT/AOT_stimuli/rescaled_final/1280_fw.mp4	0.0	109.81907391548157	0.9919040203094482
13	93.32215881347656	movie	1		243	11.0	2.5	/experiments/knapen_AOT/AOT_stimuli/rescaled_final/1280_fw.mp4	0.0	110.81097793579102	2.500349998474121
13	93.71410989761353	pulse	1	t		11.0	2.5	/experiments/knapen_AOT/AOT_stimuli/rescaled_final/1280_fw.mp4	0.0	111.20292901992798	
13	95.31433296203613	pulse	1	t		11.0	2.5	/experiments/knapen_AOT/AOT_stimuli/rescaled_final/1280_fw.mp4	0.0	112.80315208435059	
13	95.82250881195068	fix_post	2		12	11.0	2.5	/experiments/knapen_AOT/AOT_stimuli/rescaled_final/1280_fw.mp4	0.0	113.31132793426514	0.09999418258666992
14	95.92250299453735	fix_pre	0		120	12.0	2.5	/experiments/knapen_AOT/AOT_stimuli/rescaled_final/0714_rv.mp4	0.0	113.4113221168518	1.0001378059387207
14	96.91451287269592	pulse	0	t		12.0	2.5	/experiments/knapen_AOT/AOT_stimuli/rescaled_final/0714_rv.mp4	0.0	114.40333199501038	
14	96.92264080047607	movie	1		243	12.0	2.5	/experiments/knapen_AOT/AOT_stimuli/rescaled_final/0714_rv.mp4	0.0	114.41145992279053	2.5086770057678223
14	98.51613092422485	pulse	1	t		12.0	2.5	/experiments/knapen_AOT/AOT_stimuli/rescaled_final/0714_rv.mp4	0.0	116.0049500465393	
14	99.4313178062439	fix_post	2		12	12.0	2.5	/experiments/knapen_AOT/AOT_stimuli/rescaled_final/0714_rv.mp4	0.0	116.92013692855835	0.10003304481506348
15	99.53135085105896	fix_pre	0		120	13.0	2.5	/experiments/knapen_AOT/AOT_stimuli/rescaled_final/0490_fw.mp4	0.0	117.02016997337341	1.00022292137146
15	100.11496686935425	pulse	0	t		13.0	2.5	/experiments/knapen_AOT/AOT_stimuli/rescaled_final/0490_fw.mp4	0.0	117.6037859916687	
15	100.53157377243042	movie	1		243	13.0	2.5	/experiments/knapen_AOT/AOT_stimuli/rescaled_final/0490_fw.mp4	0.0	118.02039289474487	2.500303030014038
15	101.71532082557678	pulse	1	t		13.0	2.5	/experiments/knapen_AOT/AOT_stimuli/rescaled_final/0490_fw.mp4	0.0	119.20413994789124	
15	103.03187680244446	fix_post	2		12	13.0	2.5	/experiments/knapen_AOT/AOT_stimuli/rescaled_final/0490_fw.mp4	0.0	120.52069592475891	0.0999751091003418
16	103.1318519115448	fix_pre	0		120	14.0	2.5	blank	1.0	120.62067103385925	1.000175952911377
16	103.31554198265076	pulse	0	t		14.0	2.5	blank	1.0	120.80436110496521	
16	104.13202786445618	movie	1		300	14.0	2.5	blank	1.0	121.62084698677063	2.5004260540008545
16	104.91565179824829	pulse	1	t		14.0	2.5	blank	1.0	122.40447092056274	
16	106.51590585708618	pulse	1	t		14.0	2.5	blank	1.0	124.00472497940063	
16	106.63245391845703	fix_post	2		12	14.0	2.5	blank	1.0	124.12127304077148	0.09998893737792969
17	106.73244285583496	fix_pre	0		120	15.0	2.5	/experiments/knapen_AOT/AOT_stimuli/rescaled_final/0318_rv.mp4	0.0	124.22126197814941	1.0000970363616943
17	107.73253989219666	movie	1		242	15.0	2.5	/experiments/knapen_AOT/AOT_stimuli/rescaled_final/0318_rv.mp4	0.0	125.22135901451111	2.4921629428863525
17	108.11686992645264	pulse	1	t		15.0	2.5	/experiments/knapen_AOT/AOT_stimuli/rescaled_final/0318_rv.mp4	0.0	125.60568904876709	
17	109.71637892723083	pulse	1	t		15.0	2.5	/experiments/knapen_AOT/AOT_stimuli/rescaled_final/0318_rv.mp4	0.0	127.20519804954529	
17	110.22470283508301	fix_post	2		12	15.0	2.5	/experiments/knapen_AOT/AOT_stimuli/rescaled_final/0318_rv.mp4	0.0	127.71352195739746	0.09994697570800781
18	110.32464981079102	fix_pre	0		120	16.0	2.5	/experiments/knapen_AOT/AOT_stimuli/rescaled_final/1005_rv.mp4	0.0	127.81346893310547	1.0001130104064941
18	111.31662392616272	pulse	0	t		16.0	2.5	/experiments/knapen_AOT/AOT_stimuli/rescaled_final/1005_rv.mp4	0.0	128.80544304847717	
18	111.32476282119751	movie	1		244	16.0	2.5	/experiments/knapen_AOT/AOT_stimuli/rescaled_final/1005_rv.mp4	0.0	128.81358194351196	2.5087220668792725
18	112.92161297798157	pulse	1	t		16.0	2.5	/experiments/knapen_AOT/AOT_stimuli/rescaled_final/1005_rv.mp4	0.0	130.41043210029602	
18	113.83348488807678	fix_post	2		12	16.0	2.5	/experiments/knapen_AOT/AOT_stimuli/rescaled_final/1005_rv.mp4	0.0	131.32230401039124	0.1000070571899414
19	113.93349194526672	fix_pre	0		120	17.0	2.5	/experiments/knapen_AOT/AOT_stimuli/rescaled_final/1738_rv.mp4	0.0	131.42231106758118	1.0001740455627441
19	114.51709294319153	pulse	0	t		17.0	2.5	/experiments/knapen_AOT/AOT_stimuli/rescaled_final/1738_rv.mp4	0.0	132.00591206550598	
19	114.93366599082947	movie	1		242	17.0	2.5	/experiments/knapen_AOT/AOT_stimuli/rescaled_final/1738_rv.mp4	0.0	132.42248511314392	2.5004239082336426
19	116.11380100250244	pulse	1	t		17.0	2.5	/experiments/knapen_AOT/AOT_stimuli/rescaled_final/1738_rv.mp4	0.0	133.6026201248169	
19	117.43408989906311	fix_post	2		12	17.0	2.5	/experiments/knapen_AOT/AOT_stimuli/rescaled_final/1738_rv.mp4	0.0	134.92290902137756	0.09995794296264648
20	117.53404784202576	fix_pre	0		120	18.0	2.5	/experiments/knapen_AOT/AOT_stimuli/rescaled_final/1223_fw.mp4	0.0	135.0228669643402	1.000128984451294
20	117.71771693229675	pulse	0	t		18.0	2.5	/experiments/knapen_AOT/AOT_stimuli/rescaled_final/1223_fw.mp4	0.0	135.2065360546112	
20	118.53417682647705	movie	1		243	18.0	2.5	/experiments/knapen_AOT/AOT_stimuli/rescaled_final/1223_fw.mp4	0.0	136.0229959487915	2.500523090362549
20	119.31779789924622	pulse	1	t		18.0	2.5	/experiments/knapen_AOT/AOT_stimuli/rescaled_final/1223_fw.mp4	0.0	136.80661702156067	
20	120.91785883903503	pulse	1	t		18.0	2.5	/experiments/knapen_AOT/AOT_stimuli/rescaled_final/1223_fw.mp4	0.0	138.4066779613495	
20	121.0346999168396	fix_post	2		12	18.0	2.5	/experiments/knapen_AOT/AOT_stimuli/rescaled_final/1223_fw.mp4	0.0	138.52351903915405	0.09985804557800293
21	121.1345579624176	fix_pre	0		120	19.0	2.5	/experiments/knapen_AOT/AOT_stimuli/rescaled_final/1677_fw.mp4	0.0	138.62337708473206	1.0001308917999268
21	122.13468885421753	movie	1		243	19.0	2.5	/experiments/knapen_AOT/AOT_stimuli/rescaled_final/1677_fw.mp4	0.0	139.62350797653198	2.4920589923858643
21	122.51879096031189	pulse	1	t		19.0	2.5	/experiments/knapen_AOT/AOT_stimuli/rescaled_final/1677_fw.mp4	0.0	140.00761008262634	
21	124.11882877349854	pulse	1	t		19.0	2.5	/experiments/knapen_AOT/AOT_stimuli/rescaled_final/1677_fw.mp4	0.0	141.607647895813	
21	124.6267478466034	fix_post	2		12	19.0	2.5	/experiments/knapen_AOT/AOT_stimuli/rescaled_final/1677_fw.mp4	0.0	142.11556696891785	0.10001015663146973
22	124.72675800323486	fix_pre	0		120	20.0	2.5	blank	1.0	142.21557712554932	1.0001718997955322
22	125.71876978874207	pulse	0	t		20.0	2.5	blank	1.0	143.20758891105652	
22	125.7269299030304	movie	1		301	20.0	2.5	blank	1.0	143.21574902534485	2.508681058883667
22	127.319020986557	pulse	1	t		20.0	2.5	blank	1.0	144.80784010887146	
22	128.23561096191406	fix_post	2		12	20.0	2.5	blank	1.0	145.72443008422852	0.10003089904785156
23	128.3356418609619	fix_pre	0		120	21.0	2.5	/experiments/knapen_AOT/AOT_stimuli/rescaled_final/1545_fw.mp4	0.0	145.82446098327637	1.0001230239868164
23	128.9192578792572	pulse	0	t		21.0	2.5	/experiments/knapen_AOT/AOT_stimuli/rescaled_final/1545_fw.mp4	0.0	146.40807700157166	
23	129.33576488494873	movie	1		242	21.0	2.5	/experiments/knapen_AOT/AOT_stimuli/rescaled_final/1545_fw.mp4	0.0	146.82458400726318	2.500525951385498
23	130.51964378356934	pulse	1	t		21.0	2.5	/experiments/knapen_AOT/AOT_stimuli/rescaled_final/1545_fw.mp4	0.0	148.0084629058838	
23	131.83629083633423	fix_post	2		12	21.0	2.5	/experiments/knapen_AOT/AOT_stimuli/rescaled_final/1545_fw.mp4	0.0	149.32510995864868	0.09992504119873047
24	131.93621587753296	fix_pre	0		120	22.0	2.5	/experiments/knapen_AOT/AOT_stimuli/rescaled_final/1051_rv.mp4	0.0	149.4250349998474	1.0001499652862549
24	132.11228394508362	pulse	0	t		22.0	2.5	/experiments/knapen_AOT/AOT_stimuli/rescaled_final/1051_rv.mp4	0.0	149.60110306739807	
24	132.9363658428192	movie	1		243	22.0	2.5	/experiments/knapen_AOT/AOT_stimuli/rescaled_final/1051_rv.mp4	0.0	150.42518496513367	2.5003609657287598
24	133.71275281906128	pulse	1	t		22.0	2.5	/experiments/knapen_AOT/AOT_stimuli/rescaled_final/1051_rv.mp4	0.0	151.20157194137573	
24	135.31996178627014	pulse	1	t		22.0	2.5	/experiments/knapen_AOT/AOT_stimuli/rescaled_final/1051_rv.mp4	0.0	152.8087809085846	
24	135.43672680854797	fix_post	2		12	22.0	2.5	/experiments/knapen_AOT/AOT_stimuli/rescaled_final/1051_rv.mp4	0.0	152.92554593086243	0.09999799728393555
25	135.5367248058319	fix_pre	0		120	23.0	2.5	/experiments/knapen_AOT/AOT_stimuli/rescaled_final/1046_fw.mp4	0.0	153.02554392814636	1.0001161098480225
25	136.53684091567993	movie	1		241	23.0	2.5	/experiments/knapen_AOT/AOT_stimuli/rescaled_final/1046_fw.mp4	0.0	154.02566003799438	2.4921040534973145
25	136.91225481033325	pulse	1	t		23.0	2.5	/experiments/knapen_AOT/AOT_stimuli/rescaled_final/1046_fw.mp4	0.0	154.4010739326477	
25	138.5124478340149	pulse	1	t		23.0	2.5	/experiments/knapen_AOT/AOT_stimuli/rescaled_final/1046_fw.mp4	0.0	156.00126695632935	
25	139.02894496917725	fix_post	2		12	23.0	2.5	/experiments/knapen_AOT/AOT_stimuli/rescaled_final/1046_fw.mp4	0.0	156.5177640914917	0.09999489784240723
26	139.12893986701965	fix_pre	0		119	24.0	2.5	/experiments/knapen_AOT/AOT_stimuli/rescaled_final/1690_fw.mp4	0.0	156.6177589893341	0.9917850494384766
26	140.1125419139862	pulse	0	t		24.0	2.5	/experiments/knapen_AOT/AOT_stimuli/rescaled_final/1690_fw.mp4	0.0	157.60136103630066	
26	140.12072491645813	movie	1		244	24.0	2.5	/experiments/knapen_AOT/AOT_stimuli/rescaled_final/1690_fw.mp4	0.0	157.60954403877258	2.508754014968872
26	141.71680283546448	pulse	1	t		24.0	2.5	/experiments/knapen_AOT/AOT_stimuli/rescaled_final/1690_fw.mp4	0.0	159.20562195777893	
26	142.629478931427	fix_post	2		12	24.0	2.5	/experiments/knapen_AOT/AOT_stimuli/rescaled_final/1690_fw.mp4	0.0	160.11829805374146	0.10001993179321289
27	142.72949886322021	fix_pre	0		120	25.0	2.5	/experiments/knapen_AOT/AOT_stimuli/rescaled_final/0193_rv.mp4	0.0	160.21831798553467	1.0001449584960938
27	143.31302785873413	pulse	0	t		25.0	2.5	/experiments/knapen_AOT/AOT_stimuli/rescaled_final/0193_rv.mp4	0.0	160.80184698104858	
27	143.7296438217163	movie	1		243	25.0	2.5	/experiments/knapen_AOT/AOT_stimuli/rescaled_final/0193_rv.mp4	0.0	161.21846294403076	2.500331163406372
27	144.9133529663086	pulse	1	t		25.0	2.5	/experiments/knapen_AOT/AOT_stimuli/rescaled_final/0193_rv.mp4	0.0	162.40217208862305	
27	146.22997498512268	fix_post	2		12	25.0	2.5	/experiments/knapen_AOT/AOT_stimuli/rescaled_final/0193_rv.mp4	0.0	163.71879410743713	0.10008001327514648
28	146.33005499839783	fix_pre	0		120	26.0	2.5	/experiments/knapen_AOT/AOT_stimuli/rescaled_final/0088_fw.mp4	0.0	163.81887412071228	1.000133991241455
28	146.5135669708252	pulse	0	t		26.0	2.5	/experiments/knapen_AOT/AOT_stimuli/rescaled_final/0088_fw.mp4	0.0	164.00238609313965	
28	147.33018898963928	movie	1		244	26.0	2.5	/experiments/knapen_AOT/AOT_stimuli/rescaled_final/0088_fw.mp4	0.0	164.81900811195374	2.5003387928009033
28	148.1137888431549	pulse	1	t		26.0	2.5	/experiments/knapen_AOT/AOT_stimuli/rescaled_final/0088_fw.mp4	0.0	165.60260796546936	
28	149.7156879901886	pulse	1	t		26.0	2.5	/experiments/knapen_AOT/AOT_stimuli/rescaled_final/0088_fw.mp4	0.0	167.20450711250305	
28	149.83052778244019	fix_post	2		12	26.0	2.5	/experiments/knapen_AOT/AOT_stimuli/rescaled_final/0088_fw.mp4	0.0	167.31934690475464	0.10011005401611328
29	149.9306378364563	fix_pre	0		117	27.0	2.5	blank	1.0	167.41945695877075	1.0000441074371338
29	150.93068194389343	movie	1		299	27.0	2.5	blank	1.0	168.41950106620789	2.4920458793640137
29	151.31425094604492	pulse	1	t		27.0	2.5	blank	1.0	168.80307006835938	
29	152.91452980041504	pulse	1	t		27.0	2.5	blank	1.0	170.4033489227295	
29	153.42272782325745	fix_post	2		12	27.0	2.5	blank	1.0	170.9115469455719	0.10003304481506348
30	153.5227608680725	fix_pre	0		120	28.0	2.5	/experiments/knapen_AOT/AOT_stimuli/rescaled_final/0588_fw.mp4	0.0	171.01157999038696	1.0000901222229004
30	154.5148468017578	pulse	0	t		28.0	2.5	/experiments/knapen_AOT/AOT_stimuli/rescaled_final/0588_fw.mp4	0.0	172.00366592407227	
30	154.5228509902954	movie	1		243	28.0	2.5	/experiments/knapen_AOT/AOT_stimuli/rescaled_final/0588_fw.mp4	0.0	172.01167011260986	2.5087969303131104
30	156.11544394493103	pulse	1	t		28.0	2.5	/experiments/knapen_AOT/AOT_stimuli/rescaled_final/0588_fw.mp4	0.0	173.60426306724548	
30	157.03164792060852	fix_post	2		12	28.0	2.5	/experiments/knapen_AOT/AOT_stimuli/rescaled_final/0588_fw.mp4	0.0	174.52046704292297	0.10000205039978027
31	157.1316499710083	fix_pre	0		120	29.0	2.5	/experiments/knapen_AOT/AOT_stimuli/rescaled_final/0391_fw.mp4	0.0	174.62046909332275	1.0001189708709717
31	157.71534991264343	pulse	0	t		29.0	2.5	/experiments/knapen_AOT/AOT_stimuli/rescaled_final/0391_fw.mp4	0.0	175.20416903495789	
31	158.13176894187927	movie	1		243	29.0	2.5	/experiments/knapen_AOT/AOT_stimuli/rescaled_final/0391_fw.mp4	0.0	175.62058806419373	2.500443935394287
31	159.31551885604858	pulse	1	t		29.0	2.5	/experiments/knapen_AOT/AOT_stimuli/rescaled_final/0391_fw.mp4	0.0	176.80433797836304	
31	160.63221287727356	fix_post	2		12	29.0	2.5	/experiments/knapen_AOT/AOT_stimuli/rescaled_final/0391_fw.mp4	0.0	178.121031999588	0.09996509552001953
32	160.73217797279358	fix_pre	0		120	30.0	2.5	/experiments/knapen_AOT/AOT_stimuli/rescaled_final/0077_rv.mp4	0.0	178.22099709510803	1.0001089572906494
32	160.91578483581543	pulse	0	t		30.0	2.5	/experiments/knapen_AOT/AOT_stimuli/rescaled_final/0077_rv.mp4	0.0	178.40460395812988	
32	161.73228693008423	movie	1		242	30.0	2.5	/experiments/knapen_AOT/AOT_stimuli/rescaled_final/0077_rv.mp4	0.0	179.22110605239868	2.5005009174346924
32	162.5159878730774	pulse	1	t		30.0	2.5	/experiments/knapen_AOT/AOT_stimuli/rescaled_final/0077_rv.mp4	0.0	180.00480699539185	
32	164.11614298820496	pulse	1	t		30.0	2.5	/experiments/knapen_AOT/AOT_stimuli/rescaled_final/0077_rv.mp4	0.0	181.6049621105194	
32	164.23278784751892	fix_post	2		12	30.0	2.5	/experiments/knapen_AOT/AOT_stimuli/rescaled_final/0077_rv.mp4	0.0	181.72160696983337	0.09990096092224121
33	164.33268880844116	fix_pre	0		120	31.0	2.5	/experiments/knapen_AOT/AOT_stimuli/rescaled_final/0704_fw.mp4	0.0	181.82150793075562	1.0001189708709717
33	165.33280777931213	movie	1		242	31.0	2.5	/experiments/knapen_AOT/AOT_stimuli/rescaled_final/0704_fw.mp4	0.0	182.8216269016266	2.4920921325683594
33	165.7176389694214	pulse	1	t		31.0	2.5	/experiments/knapen_AOT/AOT_stimuli/rescaled_final/0704_fw.mp4	0.0	183.20645809173584	
33	167.31678986549377	pulse	1	t		31.0	2.5	/experiments/knapen_AOT/AOT_stimuli/rescaled_final/0704_fw.mp4	0.0	184.80560898780823	
33	167.8248999118805	fix_post	2		12	31.0	2.5	/experiments/knapen_AOT/AOT_stimuli/rescaled_final/0704_fw.mp4	0.0	185.31371903419495	0.09996390342712402
34	167.92486381530762	fix_pre	0		120	32.0	2.5	/experiments/knapen_AOT/AOT_stimuli/rescaled_final/1806_fw.mp4	0.0	185.41368293762207	1.000157117843628
34	168.91696286201477	pulse	0	t		32.0	2.5	/experiments/knapen_AOT/AOT_stimuli/rescaled_final/1806_fw.mp4	0.0	186.40578198432922	
34	168.92502093315125	movie	1		243	32.0	2.5	/experiments/knapen_AOT/AOT_stimuli/rescaled_final/1806_fw.mp4	0.0	186.4138400554657	2.5087289810180664
34	170.5178518295288	pulse	1	t		32.0	2.5	/experiments/knapen_AOT/AOT_stimuli/rescaled_final/1806_fw.mp4	0.0	188.00667095184326	
34	171.4337499141693	fix_post	2		12	32.0	2.5	/experiments/knapen_AOT/AOT_stimuli/rescaled_final/1806_fw.mp4	0.0	188.92256903648376	0.10009598731994629
35	171.53384590148926	fix_pre	0		120	33.0	2.5	/experiments/knapen_AOT/AOT_stimuli/rescaled_final/2045_fw.mp4	0.0	189.0226650238037	1.0000689029693604
35	172.1173357963562	pulse	0	t		33.0	2.5	/experiments/knapen_AOT/AOT_stimuli/rescaled_final/2045_fw.mp4	0.0	189.60615491867065	
35	172.53391480445862	movie	1		242	33.0	2.5	/experiments/knapen_AOT/AOT_stimuli/rescaled_final/2045_fw.mp4	0.0	190.02273392677307	2.5004000663757324
35	173.71774077415466	pulse	1	t		33.0	2.5	/experiments/knapen_AOT/AOT_stimuli/rescaled_final/2045_fw.mp4	0.0	191.20655989646912	
35	175.03431487083435	fix_post	2		12	33.0	2.5	/experiments/knapen_AOT/AOT_stimuli/rescaled_final/2045_fw.mp4	0.0	192.5231339931488	0.09996700286865234
36	175.134281873703	fix_pre	0		120	34.0	2.5	/experiments/knapen_AOT/AOT_stimuli/rescaled_final/1140_fw.mp4	0.0	192.62310099601746	1.0001499652862549
36	175.31791186332703	pulse	0	t		34.0	2.5	/experiments/knapen_AOT/AOT_stimuli/rescaled_final/1140_fw.mp4	0.0	192.80673098564148	
36	176.13443183898926	movie	1		242	34.0	2.5	/experiments/knapen_AOT/AOT_stimuli/rescaled_final/1140_fw.mp4	0.0	193.6232509613037	2.500430107116699
36	176.9180519580841	pulse	1	t		34.0	2.5	/experiments/knapen_AOT/AOT_stimuli/rescaled_final/1140_fw.mp4	0.0	194.40687108039856	
36	178.5182638168335	pulse	1	t		34.0	2.5	/experiments/knapen_AOT/AOT_stimuli/rescaled_final/1140_fw.mp4	0.0	196.00708293914795	
36	178.63486194610596	fix_post	2		12	34.0	2.5	/experiments/knapen_AOT/AOT_stimuli/rescaled_final/1140_fw.mp4	0.0	196.1236810684204	0.09994196891784668
37	178.7348039150238	fix_pre	0		120	35.0	2.5	blank	1.0	196.22362303733826	1.0001709461212158
37	179.73497486114502	movie	1		299	35.0	2.5	blank	1.0	197.22379398345947	2.4921510219573975
37	180.1185348033905	pulse	1	t		35.0	2.5	blank	1.0	197.60735392570496	
37	181.7187738418579	pulse	1	t		35.0	2.5	blank	1.0	199.20759296417236	
37	182.22712588310242	fix_post	2		12	35.0	2.5	blank	1.0	199.71594500541687	0.0999898910522461
38	182.32711577415466	fix_pre	0		120	36.0	2.5	/experiments/knapen_AOT/AOT_stimuli/rescaled_final/0509_rv.mp4	0.0	199.81593489646912	1.0000901222229004
38	183.31906080245972	pulse	0	t		36.0	2.5	/experiments/knapen_AOT/AOT_stimuli/rescaled_final/0509_rv.mp4	0.0	200.80787992477417	
38	183.32720589637756	movie	1		246	36.0	2.5	/experiments/knapen_AOT/AOT_stimuli/rescaled_final/0509_rv.mp4	0.0	200.81602501869202	2.508655071258545
38	184.9199469089508	pulse	1	t		36.0	2.5	/experiments/knapen_AOT/AOT_stimuli/rescaled_final/0509_rv.mp4	0.0	202.40876603126526	
38	185.8358609676361	fix_post	2		12	36.0	2.5	/experiments/knapen_AOT/AOT_stimuli/rescaled_final/0509_rv.mp4	0.0	203.32468008995056	0.10003280639648438
39	185.9358937740326	fix_pre	0		120	37.0	2.5	/experiments/knapen_AOT/AOT_stimuli/rescaled_final/1934_rv.mp4	0.0	203.42471289634705	1.0001611709594727
39	186.5120189189911	pulse	0	t		37.0	2.5	/experiments/knapen_AOT/AOT_stimuli/rescaled_final/1934_rv.mp4	0.0	204.00083804130554	
39	186.93605494499207	movie	1		242	37.0	2.5	/experiments/knapen_AOT/AOT_stimuli/rescaled_final/1934_rv.mp4	0.0	204.42487406730652	2.5004448890686035
39	188.11186981201172	pulse	1	t		37.0	2.5	/experiments/knapen_AOT/AOT_stimuli/rescaled_final/1934_rv.mp4	0.0	205.60068893432617	
39	189.43649983406067	fix_post	2		12	37.0	2.5	/experiments/knapen_AOT/AOT_stimuli/rescaled_final/1934_rv.mp4	0.0	206.92531895637512	0.09998416900634766
40	189.53648400306702	fix_pre	0		120	38.0	2.5	/experiments/knapen_AOT/AOT_stimuli/rescaled_final/0220_rv.mp4	0.0	207.02530312538147	1.000168800354004
40	189.7123839855194	pulse	0	t		38.0	2.5	/experiments/knapen_AOT/AOT_stimuli/rescaled_final/0220_rv.mp4	0.0	207.20120310783386	
40	190.53665280342102	movie	1		243	38.0	2.5	/experiments/knapen_AOT/AOT_stimuli/rescaled_final/0220_rv.mp4	0.0	208.02547192573547	2.500349998474121
40	191.31185388565063	pulse	1	t		38.0	2.5	/experiments/knapen_AOT/AOT_stimuli/rescaled_final/0220_rv.mp4	0.0	208.8006730079651	
40	192.9120819568634	pulse	1	t		38.0	2.5	/experiments/knapen_AOT/AOT_stimuli/rescaled_final/0220_rv.mp4	0.0	210.40090107917786	
40	193.03700280189514	fix_post	2		12	38.0	2.5	/experiments/knapen_AOT/AOT_stimuli/rescaled_final/0220_rv.mp4	0.0	210.5258219242096	0.1000831127166748
41	193.13708591461182	fix_pre	0		120	39.0	2.5	/experiments/knapen_AOT/AOT_stimuli/rescaled_final/0144_fw.mp4	0.0	210.62590503692627	1.0000998973846436
41	194.13718581199646	movie	1		241	39.0	2.5	/experiments/knapen_AOT/AOT_stimuli/rescaled_final/0144_fw.mp4	0.0	211.6260049343109	2.492151975631714
41	194.5124478340149	pulse	1	t		39.0	2.5	/experiments/knapen_AOT/AOT_stimuli/rescaled_final/0144_fw.mp4	0.0	212.00126695632935	
41	196.11272883415222	pulse	1	t		39.0	2.5	/experiments/knapen_AOT/AOT_stimuli/rescaled_final/0144_fw.mp4	0.0	213.60154795646667	
41	196.62933778762817	fix_post	2		12	39.0	2.5	/experiments/knapen_AOT/AOT_stimuli/rescaled_final/0144_fw.mp4	0.0	214.11815690994263	0.09990215301513672
42	196.7292399406433	fix_pre	0		119	40.0	2.5	blank	1.0	214.21805906295776	0.9917888641357422
42	197.71282291412354	pulse	0	t		40.0	2.5	blank	1.0	215.201642036438	
42	197.72102880477905	movie	1		301	40.0	2.5	blank	1.0	215.2098479270935	2.508674144744873
42	199.31302189826965	pulse	1	t		40.0	2.5	blank	1.0	216.8018410205841	
42	200.22970294952393	fix_post	2		12	40.0	2.5	blank	1.0	217.71852207183838	0.10004591941833496
43	200.32974886894226	fix_pre	0		120	41.0	2.5	/experiments/knapen_AOT/AOT_stimuli/rescaled_final/1758_rv.mp4	0.0	217.8185679912567	1.0001049041748047
43	200.91334080696106	pulse	0	t		41.0	2.5	/experiments/knapen_AOT/AOT_stimuli/rescaled_final/1758_rv.mp4	0.0	218.4021599292755	
43	201.32985377311707	movie	1		243	41.0	2.5	/experiments/knapen_AOT/AOT_stimuli/rescaled_final/1758_rv.mp4	0.0	218.81867289543152	2.500429153442383
43	202.51369285583496	pulse	1	t		41.0	2.5	/experiments/knapen_AOT/AOT_stimuli/rescaled_final/1758_rv.mp4	0.0	220.0025119781494	
43	203.83028292655945	fix_post	2		12	41.0	2.5	/experiments/knapen_AOT/AOT_stimuli/rescaled_final/1758_rv.mp4	0.0	221.3191020488739	0.10005688667297363
44	203.93033981323242	fix_pre	0		120	42.0	2.5	/experiments/knapen_AOT/AOT_stimuli/rescaled_final/1966_rv.mp4	0.0	221.41915893554688	1.0001530647277832
44	204.1137797832489	pulse	0	t		42.0	2.5	/experiments/knapen_AOT/AOT_stimuli/rescaled_final/1966_rv.mp4	0.0	221.60259890556335	
44	204.9304928779602	movie	1		242	42.0	2.5	/experiments/knapen_AOT/AOT_stimuli/rescaled_final/1966_rv.mp4	0.0	222.41931200027466	2.5003700256347656
44	205.71401476860046	pulse	1	t		42.0	2.5	/experiments/knapen_AOT/AOT_stimuli/rescaled_final/1966_rv.mp4	0.0	223.20283389091492	
44	207.31410384178162	pulse	1	t		42.0	2.5	/experiments/knapen_AOT/AOT_stimuli/rescaled_final/1966_rv.mp4	0.0	224.80292296409607	
44	207.43086290359497	fix_post	2		12	42.0	2.5	/experiments/knapen_AOT/AOT_stimuli/rescaled_final/1966_rv.mp4	0.0	224.91968202590942	0.09990406036376953
45	207.53076696395874	fix_pre	0		119	43.0	2.5	/experiments/knapen_AOT/AOT_stimuli/rescaled_final/0329_rv.mp4	0.0	225.0195860862732	0.9918258190155029
45	208.52259278297424	movie	1		242	43.0	2.5	/experiments/knapen_AOT/AOT_stimuli/rescaled_final/0329_rv.mp4	0.0	226.0114119052887	2.5004241466522217
45	208.91471791267395	pulse	1	t		43.0	2.5	/experiments/knapen_AOT/AOT_stimuli/rescaled_final/0329_rv.mp4	0.0	226.4035370349884	
45	210.51478576660156	pulse	1	t		43.0	2.5	/experiments/knapen_AOT/AOT_stimuli/rescaled_final/0329_rv.mp4	0.0	228.00360488891602	
45	211.02301692962646	fix_post	2		12	43.0	2.5	/experiments/knapen_AOT/AOT_stimuli/rescaled_final/0329_rv.mp4	0.0	228.51183605194092	0.1000669002532959
46	211.12308382987976	fix_pre	0		117	44.0	2.5	/experiments/knapen_AOT/AOT_stimuli/rescaled_final/0288_rv.mp4	0.0	228.6119029521942	1.0000810623168945
46	212.11494779586792	pulse	0	t		44.0	2.5	/experiments/knapen_AOT/AOT_stimuli/rescaled_final/0288_rv.mp4	0.0	229.60376691818237	
46	212.12316489219666	movie	1		244	44.0	2.5	/experiments/knapen_AOT/AOT_stimuli/rescaled_final/0288_rv.mp4	0.0	229.6119840145111	2.5086829662323
46	213.71595883369446	pulse	1	t		44.0	2.5	/experiments/knapen_AOT/AOT_stimuli/rescaled_final/0288_rv.mp4	0.0	231.2047779560089	
46	214.63184785842896	fix_post	2		12	44.0	2.5	/experiments/knapen_AOT/AOT_stimuli/rescaled_final/0288_rv.mp4	0.0	232.1206669807434	0.10000014305114746
47	214.7318480014801	fix_pre	0		120	45.0	2.5	/experiments/knapen_AOT/AOT_stimuli/rescaled_final/0882_rv.mp4	0.0	232.22066712379456	1.000180959701538
47	215.3155448436737	pulse	0	t		45.0	2.5	/experiments/knapen_AOT/AOT_stimuli/rescaled_final/0882_rv.mp4	0.0	232.80436396598816	
47	215.73202896118164	movie	1		243	45.0	2.5	/experiments/knapen_AOT/AOT_stimuli/rescaled_final/0882_rv.mp4	0.0	233.2208480834961	2.500523805618286
47	216.9159128665924	pulse	1	t		45.0	2.5	/experiments/knapen_AOT/AOT_stimuli/rescaled_final/0882_rv.mp4	0.0	234.40473198890686	
47	218.23255276679993	fix_post	2		12	45.0	2.5	/experiments/knapen_AOT/AOT_stimuli/rescaled_final/0882_rv.mp4	0.0	235.72137188911438	0.09990215301513672
48	218.33245491981506	fix_pre	0		120	46.0	2.5	/experiments/knapen_AOT/AOT_stimuli/rescaled_final/1683_rv.mp4	0.0	235.82127404212952	1.0001380443572998
48	218.51591777801514	pulse	0	t		46.0	2.5	/experiments/knapen_AOT/AOT_stimuli/rescaled_final/1683_rv.mp4	0.0	236.0047369003296	
48	219.33259296417236	movie	1		242	46.0	2.5	/experiments/knapen_AOT/AOT_stimuli/rescaled_final/1683_rv.mp4	0.0	236.82141208648682	2.500337839126587
48	220.11622786521912	pulse	1	t		46.0	2.5	/experiments/knapen_AOT/AOT_stimuli/rescaled_final/1683_rv.mp4	0.0	237.60504698753357	
48	221.71612882614136	pulse	1	t		46.0	2.5	/experiments/knapen_AOT/AOT_stimuli/rescaled_final/1683_rv.mp4	0.0	239.2049479484558	
48	221.83293080329895	fix_post	2		12	46.0	2.5	/experiments/knapen_AOT/AOT_stimuli/rescaled_final/1683_rv.mp4	0.0	239.3217499256134	0.10000014305114746
49	221.9329309463501	fix_pre	0		119	47.0	2.5	/experiments/knapen_AOT/AOT_stimuli/rescaled_final/0655_fw.mp4	0.0	239.42175006866455	0.9918458461761475
49	222.92477679252625	movie	1		244	47.0	2.5	/experiments/knapen_AOT/AOT_stimuli/rescaled_final/0655_fw.mp4	0.0	240.4135959148407	2.50039005279541
49	223.31674194335938	pulse	1	t		47.0	2.5	/experiments/knapen_AOT/AOT_stimuli/rescaled_final/0655_fw.mp4	0.0	240.80556106567383	
49	224.91693687438965	pulse	1	t		47.0	2.5	/experiments/knapen_AOT/AOT_stimuli/rescaled_final/0655_fw.mp4	0.0	242.4057559967041	
49	225.42516684532166	fix_post	2		12	47.0	2.5	/experiments/knapen_AOT/AOT_stimuli/rescaled_final/0655_fw.mp4	0.0	242.9139859676361	0.10000014305114746
50	225.5251669883728	fix_pre	0		120	48.0	2.5	blank	1.0	243.01398611068726	1.0001909732818604
50	226.51707696914673	pulse	0	t		48.0	2.5	blank	1.0	244.00589609146118	
50	226.52535796165466	movie	1		301	48.0	2.5	blank	1.0	244.01417708396912	2.508643865585327
50	228.11741495132446	pulse	1	t		48.0	2.5	blank	1.0	245.60623407363892	
50	229.03400182724	fix_post	2		12	48.0	2.5	blank	1.0	246.52282094955444	0.10004711151123047
51	229.13404893875122	fix_pre	0		120	49.0	2.5	/experiments/knapen_AOT/AOT_stimuli/rescaled_final/0384_rv.mp4	0.0	246.62286806106567	1.0001509189605713
51	229.71763586997986	pulse	0	t		49.0	2.5	/experiments/knapen_AOT/AOT_stimuli/rescaled_final/0384_rv.mp4	0.0	247.2064549922943	
51	230.1341998577118	movie	1		242	49.0	2.5	/experiments/knapen_AOT/AOT_stimuli/rescaled_final/0384_rv.mp4	0.0	247.62301898002625	2.5004990100860596
51	231.31808185577393	pulse	1	t		49.0	2.5	/experiments/knapen_AOT/AOT_stimuli/rescaled_final/0384_rv.mp4	0.0	248.80690097808838	
51	232.63469886779785	fix_post	2		12	49.0	2.5	/experiments/knapen_AOT/AOT_stimuli/rescaled_final/0384_rv.mp4	0.0	250.1235179901123	0.0998690128326416
52	232.7345678806305	fix_pre	0		120	50.0	2.5	/experiments/knapen_AOT/AOT_stimuli/rescaled_final/0967_rv.mp4	0.0	250.22338700294495	1.0001909732818604
52	232.91804599761963	pulse	0	t		50.0	2.5	/experiments/knapen_AOT/AOT_stimuli/rescaled_final/0967_rv.mp4	0.0	250.40686511993408	
52	233.73475885391235	movie	1		244	50.0	2.5	/experiments/knapen_AOT/AOT_stimuli/rescaled_final/0967_rv.mp4	0.0	251.2235779762268	2.500373125076294
52	234.51838898658752	pulse	1	t		50.0	2.5	/experiments/knapen_AOT/AOT_stimuli/rescaled_final/0967_rv.mp4	0.0	252.00720810890198	
52	236.11851978302002	pulse	1	t		50.0	2.5	/experiments/knapen_AOT/AOT_stimuli/rescaled_final/0967_rv.mp4	0.0	253.60733890533447	
52	236.23513197898865	fix_post	2		12	50.0	2.5	/experiments/knapen_AOT/AOT_stimuli/rescaled_final/0967_rv.mp4	0.0	253.7239511013031	0.10005784034729004
53	236.33518981933594	fix_pre	0		119	51.0	2.5	/experiments/knapen_AOT/AOT_stimuli/rescaled_final/1522_fw.mp4	0.0	253.8240089416504	0.9916870594024658
53	237.3268768787384	movie	1		243	51.0	2.5	/experiments/knapen_AOT/AOT_stimuli/rescaled_final/1522_fw.mp4	0.0	254.81569600105286	2.500462055206299
53	237.7189347743988	pulse	1	t		51.0	2.5	/experiments/knapen_AOT/AOT_stimuli/rescaled_final/1522_fw.mp4	0.0	255.20775389671326	
53	239.31900477409363	pulse	1	t		51.0	2.5	/experiments/knapen_AOT/AOT_stimuli/rescaled_final/1522_fw.mp4	0.0	256.8078238964081	
53	239.8273389339447	fix_post	2		12	51.0	2.5	/experiments/knapen_AOT/AOT_stimuli/rescaled_final/1522_fw.mp4	0.0	257.31615805625916	0.10001087188720703
54	239.9273498058319	fix_pre	0		120	52.0	2.5	/experiments/knapen_AOT/AOT_stimuli/rescaled_final/1683_fw.mp4	0.0	257.41616892814636	1.0001041889190674
54	240.9193217754364	pulse	0	t		52.0	2.5	/experiments/knapen_AOT/AOT_stimuli/rescaled_final/1683_fw.mp4	0.0	258.40814089775085	
54	240.92745399475098	movie	1		243	52.0	2.5	/experiments/knapen_AOT/AOT_stimuli/rescaled_final/1683_fw.mp4	0.0	258.41627311706543	2.508793830871582
54	242.5207657814026	pulse	1	t		52.0	2.5	/experiments/knapen_AOT/AOT_stimuli/rescaled_final/1683_fw.mp4	0.0	260.00958490371704	
54	243.43624782562256	fix_post	2		12	52.0	2.5	/experiments/knapen_AOT/AOT_stimuli/rescaled_final/1683_fw.mp4	0.0	260.925066947937	0.10000300407409668
55	243.53625082969666	fix_pre	0		120	53.0	2.5	/experiments/knapen_AOT/AOT_stimuli/rescaled_final/0542_rv.mp4	0.0	261.0250699520111	1.000093936920166
55	244.11151385307312	pulse	0	t		53.0	2.5	/experiments/knapen_AOT/AOT_stimuli/rescaled_final/0542_rv.mp4	0.0	261.6003329753876	
55	244.53634476661682	movie	1		245	53.0	2.5	/experiments/knapen_AOT/AOT_stimuli/rescaled_final/0542_rv.mp4	0.0	262.0251638889313	2.5003750324249268
55	245.71205687522888	pulse	1	t		53.0	2.5	/experiments/knapen_AOT/AOT_stimuli/rescaled_final/0542_rv.mp4	0.0	263.20087599754333	
55	247.03671979904175	fix_post	2		12	53.0	2.5	/experiments/knapen_AOT/AOT_stimuli/rescaled_final/0542_rv.mp4	0.0	264.5255389213562	0.10001897811889648
56	247.13673877716064	fix_pre	0		120	54.0	2.5	/experiments/knapen_AOT/AOT_stimuli/rescaled_final/1841_fw.mp4	0.0	264.6255578994751	1.0001041889190674
56	247.31189680099487	pulse	0	t		54.0	2.5	/experiments/knapen_AOT/AOT_stimuli/rescaled_final/1841_fw.mp4	0.0	264.8007159233093	
56	248.1368429660797	movie	1		243	54.0	2.5	/experiments/knapen_AOT/AOT_stimuli/rescaled_final/1841_fw.mp4	0.0	265.62566208839417	2.500586986541748
56	248.91209077835083	pulse	1	t		54.0	2.5	/experiments/knapen_AOT/AOT_stimuli/rescaled_final/1841_fw.mp4	0.0	266.4009099006653	
56	250.51241898536682	pulse	1	t		54.0	2.5	/experiments/knapen_AOT/AOT_stimuli/rescaled_final/1841_fw.mp4	0.0	268.0012381076813	
56	250.63742995262146	fix_post	2		12	54.0	2.5	/experiments/knapen_AOT/AOT_stimuli/rescaled_final/1841_fw.mp4	0.0	268.1262490749359	0.09980487823486328
57	250.73723483085632	fix_pre	0		120	55.0	2.5	/experiments/knapen_AOT/AOT_stimuli/rescaled_final/0475_rv.mp4	0.0	268.2260539531708	1.0001940727233887
57	251.7374289035797	movie	1		241	55.0	2.5	/experiments/knapen_AOT/AOT_stimuli/rescaled_final/0475_rv.mp4	0.0	269.22624802589417	2.4920589923858643
57	252.11269283294678	pulse	1	t		55.0	2.5	/experiments/knapen_AOT/AOT_stimuli/rescaled_final/0475_rv.mp4	0.0	269.60151195526123	
57	253.71300196647644	pulse	1	t		55.0	2.5	/experiments/knapen_AOT/AOT_stimuli/rescaled_final/0475_rv.mp4	0.0	271.2018210887909	
57	254.22948789596558	fix_post	2		12	55.0	2.5	/experiments/knapen_AOT/AOT_stimuli/rescaled_final/0475_rv.mp4	0.0	271.71830701828003	0.10000991821289062
58	254.32949781417847	fix_pre	0		119	56.0	2.5	blank	1.0	271.8183169364929	0.9917831420898438
58	255.31317281723022	pulse	0	t		56.0	2.5	blank	1.0	272.8019919395447	
58	255.3212809562683	movie	1		301	56.0	2.5	blank	1.0	272.81010007858276	2.508704900741577
58	256.91330790519714	pulse	1	t		56.0	2.5	blank	1.0	274.4021270275116	
58	257.8299858570099	fix_post	2		12	56.0	2.5	blank	1.0	275.31880497932434	0.10003304481506348
59	257.93001890182495	fix_pre	0		120	57.0	2.5	/experiments/knapen_AOT/AOT_stimuli/rescaled_final/1863_rv.mp4	0.0	275.4188380241394	1.0000989437103271
59	258.51362586021423	pulse	0	t		57.0	2.5	/experiments/knapen_AOT/AOT_stimuli/rescaled_final/1863_rv.mp4	0.0	276.0024449825287	
59	258.9301178455353	movie	1		244	57.0	2.5	/experiments/knapen_AOT/AOT_stimuli/rescaled_final/1863_rv.mp4	0.0	276.41893696784973	2.5004639625549316
59	260.11392283439636	pulse	1	t		57.0	2.5	/experiments/knapen_AOT/AOT_stimuli/rescaled_final/1863_rv.mp4	0.0	277.6027419567108	
59	261.4305818080902	fix_post	2		12	57.0	2.5	/experiments/knapen_AOT/AOT_stimuli/rescaled_final/1863_rv.mp4	0.0	278.91940093040466	0.09999918937683105
60	261.53058099746704	fix_pre	0		120	58.0	2.5	/experiments/knapen_AOT/AOT_stimuli/rescaled_final/0199_rv.mp4	0.0	279.0194001197815	1.0000767707824707
60	261.7140779495239	pulse	0	t		58.0	2.5	/experiments/knapen_AOT/AOT_stimuli/rescaled_final/0199_rv.mp4	0.0	279.2028970718384	
60	262.5306577682495	movie	1		244	58.0	2.5	/experiments/knapen_AOT/AOT_stimuli/rescaled_final/0199_rv.mp4	0.0	280.01947689056396	2.500533103942871
60	263.31435680389404	pulse	1	t		58.0	2.5	/experiments/knapen_AOT/AOT_stimuli/rescaled_final/0199_rv.mp4	0.0	280.8031759262085	
60	264.9146568775177	pulse	1	t		58.0	2.5	/experiments/knapen_AOT/AOT_stimuli/rescaled_final/0199_rv.mp4	0.0	282.40347599983215	
60	265.0311908721924	fix_post	2		12	58.0	2.5	/experiments/knapen_AOT/AOT_stimuli/rescaled_final/0199_rv.mp4	0.0	282.52000999450684	0.10000109672546387
61	265.13119196891785	fix_pre	0		120	59.0	2.5	/experiments/knapen_AOT/AOT_stimuli/rescaled_final/0098_rv.mp4	0.0	282.6200110912323	1.0000288486480713
61	266.1312208175659	movie	1		242	59.0	2.5	/experiments/knapen_AOT/AOT_stimuli/rescaled_final/0098_rv.mp4	0.0	283.62003993988037	2.4920389652252197
61	266.5155129432678	pulse	1	t		59.0	2.5	/experiments/knapen_AOT/AOT_stimuli/rescaled_final/0098_rv.mp4	0.0	284.0043320655823	
61	268.11503982543945	pulse	1	t		59.0	2.5	/experiments/knapen_AOT/AOT_stimuli/rescaled_final/0098_rv.mp4	0.0	285.6038589477539	
61	268.62325978279114	fix_post	2		12	59.0	2.5	/experiments/knapen_AOT/AOT_stimuli/rescaled_final/0098_rv.mp4	0.0	286.1120789051056	0.09999799728393555
62	268.7232577800751	fix_pre	0		120	60.0	2.5	/experiments/knapen_AOT/AOT_stimuli/rescaled_final/0686_fw.mp4	0.0	286.2120769023895	1.000143051147461
62	269.7152578830719	pulse	0	t		60.0	2.5	/experiments/knapen_AOT/AOT_stimuli/rescaled_final/0686_fw.mp4	0.0	287.20407700538635	
62	269.72340083122253	movie	1		244	60.0	2.5	/experiments/knapen_AOT/AOT_stimuli/rescaled_final/0686_fw.mp4	0.0	287.212219953537	2.5088181495666504
62	271.3161988258362	pulse	1	t		60.0	2.5	/experiments/knapen_AOT/AOT_stimuli/rescaled_final/0686_fw.mp4	0.0	288.80501794815063	
62	272.2322189807892	fix_post	2		12	60.0	2.5	/experiments/knapen_AOT/AOT_stimuli/rescaled_final/0686_fw.mp4	0.0	289.72103810310364	0.0999908447265625
63	272.33220982551575	fix_pre	0		116	61.0	2.5	blank	1.0	289.8210289478302	1.0000519752502441
63	272.91575288772583	pulse	0	t		61.0	2.5	blank	1.0	290.4045720100403	
63	273.332261800766	movie	1		300	61.0	2.5	blank	1.0	290.82108092308044	2.5004310607910156
63	274.5159749984741	pulse	1	t		61.0	2.5	blank	1.0	292.0047941207886	
63	275.832692861557	fix_post	2		12	61.0	2.5	blank	1.0	293.32151198387146	0.10000205039978027
64	275.9326949119568	fix_pre	0		120	62.0	2.5	/experiments/knapen_AOT/AOT_stimuli/rescaled_final/1223_fw.mp4	0.0	293.42151403427124	1.0001099109649658
64	276.1162188053131	pulse	0	t		62.0	2.5	/experiments/knapen_AOT/AOT_stimuli/rescaled_final/1223_fw.mp4	0.0	293.60503792762756	
64	276.93280482292175	movie	1		243	62.0	2.5	/experiments/knapen_AOT/AOT_stimuli/rescaled_final/1223_fw.mp4	0.0	294.4216239452362	2.5005359649658203
64	277.71647095680237	pulse	1	t		62.0	2.5	/experiments/knapen_AOT/AOT_stimuli/rescaled_final/1223_fw.mp4	0.0	295.2052900791168	
64	279.3169229030609	pulse	1	t		62.0	2.5	/experiments/knapen_AOT/AOT_stimuli/rescaled_final/1223_fw.mp4	0.0	296.80574202537537	
64	279.4333407878876	fix_post	2		12	62.0	2.5	/experiments/knapen_AOT/AOT_stimuli/rescaled_final/1223_fw.mp4	0.0	296.922159910202	0.09997701644897461
65	279.53331780433655	fix_pre	0		120	63.0	2.5	/experiments/knapen_AOT/AOT_stimuli/rescaled_final/0318_fw.mp4	0.0	297.022136926651	1.0000040531158447
65	280.5333218574524	movie	1		242	63.0	2.5	/experiments/knapen_AOT/AOT_stimuli/rescaled_final/0318_fw.mp4	0.0	298.02214097976685	2.492172956466675
65	280.9217948913574	pulse	1	t		63.0	2.5	/experiments/knapen_AOT/AOT_stimuli/rescaled_final/0318_fw.mp4	0.0	298.4106140136719	
65	282.51716589927673	pulse	1	t		63.0	2.5	/experiments/knapen_AOT/AOT_stimuli/rescaled_final/0318_fw.mp4	0.0	300.0059850215912	
65	283.02549481391907	fix_post	2		12	63.0	2.5	/experiments/knapen_AOT/AOT_stimuli/rescaled_final/0318_fw.mp4	0.0	300.5143139362335	0.0999290943145752
66	283.12542390823364	fix_pre	0		120	64.0	2.5	/experiments/knapen_AOT/AOT_stimuli/rescaled_final/0008_rv.mp4	0.0	300.6142430305481	1.0000860691070557
66	284.1175208091736	pulse	0	t		64.0	2.5	/experiments/knapen_AOT/AOT_stimuli/rescaled_final/0008_rv.mp4	0.0	301.60633993148804	
66	284.1255099773407	movie	1		243	64.0	2.5	/experiments/knapen_AOT/AOT_stimuli/rescaled_final/0008_rv.mp4	0.0	301.61432909965515	2.5087578296661377
66	285.7191209793091	pulse	1	t		64.0	2.5	/experiments/knapen_AOT/AOT_stimuli/rescaled_final/0008_rv.mp4	0.0	303.20794010162354	
66	286.63426780700684	fix_post	2		12	64.0	2.5	/experiments/knapen_AOT/AOT_stimuli/rescaled_final/0008_rv.mp4	0.0	304.1230869293213	0.10000205039978027
67	286.7342698574066	fix_pre	0		120	65.0	2.5	/experiments/knapen_AOT/AOT_stimuli/rescaled_final/1545_rv.mp4	0.0	304.22308897972107	1.0001399517059326
67	287.3179998397827	pulse	0	t		65.0	2.5	/experiments/knapen_AOT/AOT_stimuli/rescaled_final/1545_rv.mp4	0.0	304.80681896209717	
67	287.73440980911255	movie	1		242	65.0	2.5	/experiments/knapen_AOT/AOT_stimuli/rescaled_final/1545_rv.mp4	0.0	305.223228931427	2.500380039215088
67	288.91825795173645	pulse	1	t		65.0	2.5	/experiments/knapen_AOT/AOT_stimuli/rescaled_final/1545_rv.mp4	0.0	306.4070770740509	
67	290.23478984832764	fix_post	2		12	65.0	2.5	/experiments/knapen_AOT/AOT_stimuli/rescaled_final/1545_rv.mp4	0.0	307.7236089706421	0.10002303123474121
68	290.3348128795624	fix_pre	0		120	66.0	2.5	/experiments/knapen_AOT/AOT_stimuli/rescaled_final/1583_rv.mp4	0.0	307.82363200187683	1.0001509189605713
68	290.5184350013733	pulse	0	t		66.0	2.5	/experiments/knapen_AOT/AOT_stimuli/rescaled_final/1583_rv.mp4	0.0	308.00725412368774	
68	291.33496379852295	movie	1		243	66.0	2.5	/experiments/knapen_AOT/AOT_stimuli/rescaled_final/1583_rv.mp4	0.0	308.8237829208374	2.50051212310791
68	292.1187207698822	pulse	1	t		66.0	2.5	/experiments/knapen_AOT/AOT_stimuli/rescaled_final/1583_rv.mp4	0.0	309.60753989219666	
68	293.718936920166	pulse	1	t		66.0	2.5	/experiments/knapen_AOT/AOT_stimuli/rescaled_final/1583_rv.mp4	0.0	311.20775604248047	
68	293.83547592163086	fix_post	2		12	66.0	2.5	/experiments/knapen_AOT/AOT_stimuli/rescaled_final/1583_rv.mp4	0.0	311.3242950439453	0.09988594055175781
69	293.9353618621826	fix_pre	0		120	67.0	2.5	/experiments/knapen_AOT/AOT_stimuli/rescaled_final/1316_fw.mp4	0.0	311.42418098449707	1.0001780986785889
69	294.9355399608612	movie	1		242	67.0	2.5	/experiments/knapen_AOT/AOT_stimuli/rescaled_final/1316_fw.mp4	0.0	312.42435908317566	2.491997003555298
69	295.31960797309875	pulse	1	t		67.0	2.5	/experiments/knapen_AOT/AOT_stimuli/rescaled_final/1316_fw.mp4	0.0	312.8084270954132	
69	296.9194059371948	pulse	1	t		67.0	2.5	/experiments/knapen_AOT/AOT_stimuli/rescaled_final/1316_fw.mp4	0.0	314.4082250595093	
69	297.4275369644165	fix_post	2		12	67.0	2.5	/experiments/knapen_AOT/AOT_stimuli/rescaled_final/1316_fw.mp4	0.0	314.91635608673096	0.10003280639648438
70	297.527569770813	fix_pre	0		120	68.0	2.5	/experiments/knapen_AOT/AOT_stimuli/rescaled_final/1558_fw.mp4	0.0	315.01638889312744	1.0001320838928223
70	298.51202297210693	pulse	0	t		68.0	2.5	/experiments/knapen_AOT/AOT_stimuli/rescaled_final/1558_fw.mp4	0.0	316.0008420944214	
70	298.5277018547058	movie	1		244	68.0	2.5	/experiments/knapen_AOT/AOT_stimuli/rescaled_final/1558_fw.mp4	0.0	316.01652097702026	2.5087599754333496
70	300.1203508377075	pulse	1	t		68.0	2.5	/experiments/knapen_AOT/AOT_stimuli/rescaled_final/1558_fw.mp4	0.0	317.609169960022	
70	301.03646183013916	fix_post	2		12	68.0	2.5	/experiments/knapen_AOT/AOT_stimuli/rescaled_final/1558_fw.mp4	0.0	318.5252809524536	0.10000801086425781
71	301.1364698410034	fix_pre	0		120	69.0	2.5	blank	1.0	318.62528896331787	1.0001270771026611
71	301.712632894516	pulse	0	t		69.0	2.5	blank	1.0	319.20145201683044	
71	302.1365969181061	movie	1		300	69.0	2.5	blank	1.0	319.62541604042053	2.500427007675171
71	303.312707901001	pulse	1	t		69.0	2.5	blank	1.0	320.80152702331543	
71	304.63702392578125	fix_post	2		12	69.0	2.5	blank	1.0	322.1258430480957	0.09990096092224121
72	304.7369248867035	fix_pre	0		120	70.0	2.5	/experiments/knapen_AOT/AOT_stimuli/rescaled_final/1583_rv.mp4	0.0	322.22574400901794	1.0001928806304932
72	304.91225481033325	pulse	0	t		70.0	2.5	/experiments/knapen_AOT/AOT_stimuli/rescaled_final/1583_rv.mp4	0.0	322.4010739326477	
72	305.737117767334	movie	1		243	70.0	2.5	/experiments/knapen_AOT/AOT_stimuli/rescaled_final/1583_rv.mp4	0.0	323.22593688964844	2.500429153442383
72	306.5123498439789	pulse	1	t		70.0	2.5	/experiments/knapen_AOT/AOT_stimuli/rescaled_final/1583_rv.mp4	0.0	324.00116896629333	
72	308.1126058101654	pulse	1	t		70.0	2.5	/experiments/knapen_AOT/AOT_stimuli/rescaled_final/1583_rv.mp4	0.0	325.60142493247986	
72	308.23754692077637	fix_post	2		12	70.0	2.5	/experiments/knapen_AOT/AOT_stimuli/rescaled_final/1583_rv.mp4	0.0	325.7263660430908	0.10001087188720703
73	308.3375577926636	fix_pre	0		120	71.0	2.5	/experiments/knapen_AOT/AOT_stimuli/rescaled_final/0710_rv.mp4	0.0	325.826376914978	1.0001142024993896
73	309.33767199516296	movie	1		242	71.0	2.5	/experiments/knapen_AOT/AOT_stimuli/rescaled_final/0710_rv.mp4	0.0	326.8264911174774	2.492205858230591
73	309.7128129005432	pulse	1	t		71.0	2.5	/experiments/knapen_AOT/AOT_stimuli/rescaled_final/0710_rv.mp4	0.0	327.20163202285767	
73	311.31316685676575	pulse	1	t		71.0	2.5	/experiments/knapen_AOT/AOT_stimuli/rescaled_final/0710_rv.mp4	0.0	328.8019859790802	
73	311.82987785339355	fix_post	2		12	71.0	2.5	/experiments/knapen_AOT/AOT_stimuli/rescaled_final/0710_rv.mp4	0.0	329.318696975708	0.09984612464904785
74	311.9297239780426	fix_pre	0		119	72.0	2.5	/experiments/knapen_AOT/AOT_stimuli/rescaled_final/1165_rv.mp4	0.0	329.41854310035706	0.9917628765106201
74	312.9134888648987	pulse	0	t		72.0	2.5	/experiments/knapen_AOT/AOT_stimuli/rescaled_final/1165_rv.mp4	0.0	330.40230798721313	
74	312.9214868545532	movie	1		244	72.0	2.5	/experiments/knapen_AOT/AOT_stimuli/rescaled_final/1165_rv.mp4	0.0	330.4103059768677	2.5087850093841553
74	314.5141658782959	pulse	1	t		72.0	2.5	/experiments/knapen_AOT/AOT_stimuli/rescaled_final/1165_rv.mp4	0.0	332.00298500061035	
74	315.4302718639374	fix_post	2		12	72.0	2.5	/experiments/knapen_AOT/AOT_stimuli/rescaled_final/1165_rv.mp4	0.0	332.91909098625183	0.10000801086425781
75	315.53027987480164	fix_pre	0		120	73.0	2.5	/experiments/knapen_AOT/AOT_stimuli/rescaled_final/1783_rv.mp4	0.0	333.0190989971161	1.000154972076416
75	316.1138288974762	pulse	0	t		73.0	2.5	/experiments/knapen_AOT/AOT_stimuli/rescaled_final/1783_rv.mp4	0.0	333.60264801979065	
75	316.53043484687805	movie	1		242	73.0	2.5	/experiments/knapen_AOT/AOT_stimuli/rescaled_final/1783_rv.mp4	0.0	334.0192539691925	2.500429153442383
75	317.71411299705505	pulse	1	t		73.0	2.5	/experiments/knapen_AOT/AOT_stimuli/rescaled_final/1783_rv.mp4	0.0	335.2029321193695	
75	319.03086400032043	fix_post	2		12	73.0	2.5	/experiments/knapen_AOT/AOT_stimuli/rescaled_final/1783_rv.mp4	0.0	336.5196831226349	0.09991788864135742
76	319.1307818889618	fix_pre	0		120	74.0	2.5	/experiments/knapen_AOT/AOT_stimuli/rescaled_final/1397_rv.mp4	0.0	336.61960101127625	1.0001590251922607
76	319.3144199848175	pulse	0	t		74.0	2.5	/experiments/knapen_AOT/AOT_stimuli/rescaled_final/1397_rv.mp4	0.0	336.80323910713196	
76	320.13094091415405	movie	1		243	74.0	2.5	/experiments/knapen_AOT/AOT_stimuli/rescaled_final/1397_rv.mp4	0.0	337.6197600364685	2.5005130767822266
76	320.9146819114685	pulse	1	t		74.0	2.5	/experiments/knapen_AOT/AOT_stimuli/rescaled_final/1397_rv.mp4	0.0	338.40350103378296	
76	322.51467180252075	pulse	1	t		74.0	2.5	/experiments/knapen_AOT/AOT_stimuli/rescaled_final/1397_rv.mp4	0.0	340.0034909248352	
76	322.6314539909363	fix_post	2		12	74.0	2.5	/experiments/knapen_AOT/AOT_stimuli/rescaled_final/1397_rv.mp4	0.0	340.12027311325073	0.09991192817687988
77	322.73136591911316	fix_pre	0		120	75.0	2.5	/experiments/knapen_AOT/AOT_stimuli/rescaled_final/0042_rv.mp4	0.0	340.2201850414276	1.000133991241455
77	323.7314999103546	movie	1		242	75.0	2.5	/experiments/knapen_AOT/AOT_stimuli/rescaled_final/0042_rv.mp4	0.0	341.22031903266907	2.492047071456909
77	324.11554884910583	pulse	1	t		75.0	2.5	/experiments/knapen_AOT/AOT_stimuli/rescaled_final/0042_rv.mp4	0.0	341.6043679714203	
77	325.71533489227295	pulse	1	t		75.0	2.5	/experiments/knapen_AOT/AOT_stimuli/rescaled_final/0042_rv.mp4	0.0	343.2041540145874	
77	326.2235469818115	fix_post	2		12	75.0	2.5	/experiments/knapen_AOT/AOT_stimuli/rescaled_final/0042_rv.mp4	0.0	343.712366104126	0.09998297691345215
78	326.323529958725	fix_pre	0		120	76.0	2.5	blank	1.0	343.81234908103943	1.0001578330993652
78	327.3155879974365	pulse	0	t		76.0	2.5	blank	1.0	344.804407119751	
78	327.32368779182434	movie	1		301	76.0	2.5	blank	1.0	344.8125069141388	2.5087270736694336
78	328.9158499240875	pulse	1	t		76.0	2.5	blank	1.0	346.404669046402	
78	329.8324148654938	fix_post	2		12	76.0	2.5	blank	1.0	347.3212339878082	0.1000370979309082
79	329.9324519634247	fix_pre	0		120	77.0	2.5	/experiments/knapen_AOT/AOT_stimuli/rescaled_final/0794_rv.mp4	0.0	347.42127108573914	1.000152826309204
79	330.5159878730774	pulse	0	t		77.0	2.5	/experiments/knapen_AOT/AOT_stimuli/rescaled_final/0794_rv.mp4	0.0	348.00480699539185	
79	330.9326047897339	movie	1		244	77.0	2.5	/experiments/knapen_AOT/AOT_stimuli/rescaled_final/0794_rv.mp4	0.0	348.42142391204834	2.5002801418304443
79	332.1162769794464	pulse	1	t		77.0	2.5	/experiments/knapen_AOT/AOT_stimuli/rescaled_final/0794_rv.mp4	0.0	349.60509610176086	
79	333.43288493156433	fix_post	2		12	77.0	2.5	/experiments/knapen_AOT/AOT_stimuli/rescaled_final/0794_rv.mp4	0.0	350.9217040538788	0.10001492500305176
80	333.5328998565674	fix_pre	0		120	78.0	2.5	/experiments/knapen_AOT/AOT_stimuli/rescaled_final/0710_fw.mp4	0.0	351.02171897888184	1.0001740455627441
80	333.71656799316406	pulse	0	t		78.0	2.5	/experiments/knapen_AOT/AOT_stimuli/rescaled_final/0710_fw.mp4	0.0	351.2053871154785	
80	334.5330739021301	movie	1		243	78.0	2.5	/experiments/knapen_AOT/AOT_stimuli/rescaled_final/0710_fw.mp4	0.0	352.0218930244446	2.500532865524292
80	335.3167779445648	pulse	1	t		78.0	2.5	/experiments/knapen_AOT/AOT_stimuli/rescaled_final/0710_fw.mp4	0.0	352.8055970668793	
80	336.9168448448181	pulse	1	t		78.0	2.5	/experiments/knapen_AOT/AOT_stimuli/rescaled_final/0710_fw.mp4	0.0	354.40566396713257	
80	337.0336067676544	fix_post	2		11	78.0	2.5	/experiments/knapen_AOT/AOT_stimuli/rescaled_final/0710_fw.mp4	0.0	354.5224258899689	0.09990811347961426
81	337.13351488113403	fix_pre	0		120	79.0	2.5	/experiments/knapen_AOT/AOT_stimuli/rescaled_final/2158_fw.mp4	0.0	354.6223340034485	1.0000851154327393
81	338.1335999965668	movie	1		241	79.0	2.5	/experiments/knapen_AOT/AOT_stimuli/rescaled_final/2158_fw.mp4	0.0	355.6224191188812	2.492250919342041
81	338.51755690574646	pulse	1	t		79.0	2.5	/experiments/knapen_AOT/AOT_stimuli/rescaled_final/2158_fw.mp4	0.0	356.0063760280609	
81	340.1174509525299	pulse	1	t		79.0	2.5	/experiments/knapen_AOT/AOT_stimuli/rescaled_final/2158_fw.mp4	0.0	357.60627007484436	
81	340.6258509159088	fix_post	2		12	79.0	2.5	/experiments/knapen_AOT/AOT_stimuli/rescaled_final/2158_fw.mp4	0.0	358.11467003822327	0.09984588623046875
82	340.7256968021393	fix_pre	0		120	80.0	2.5	/experiments/knapen_AOT/AOT_stimuli/rescaled_final/0752_rv.mp4	0.0	358.21451592445374	1.0000910758972168
82	341.71767497062683	pulse	0	t		80.0	2.5	/experiments/knapen_AOT/AOT_stimuli/rescaled_final/0752_rv.mp4	0.0	359.2064940929413	
82	341.7257878780365	movie	1		245	80.0	2.5	/experiments/knapen_AOT/AOT_stimuli/rescaled_final/0752_rv.mp4	0.0	359.21460700035095	2.5087480545043945
82	343.31849789619446	pulse	1	t		80.0	2.5	/experiments/knapen_AOT/AOT_stimuli/rescaled_final/0752_rv.mp4	0.0	360.8073170185089	
82	344.2345359325409	fix_post	2		12	80.0	2.5	/experiments/knapen_AOT/AOT_stimuli/rescaled_final/0752_rv.mp4	0.0	361.72335505485535	0.10003805160522461
83	344.3345739841461	fix_pre	0		120	81.0	2.5	/experiments/knapen_AOT/AOT_stimuli/rescaled_final/0989_rv.mp4	0.0	361.82339310646057	1.000175952911377
83	344.91817688941956	pulse	0	t		81.0	2.5	/experiments/knapen_AOT/AOT_stimuli/rescaled_final/0989_rv.mp4	0.0	362.406996011734	
83	345.3347499370575	movie	1		244	81.0	2.5	/experiments/knapen_AOT/AOT_stimuli/rescaled_final/0989_rv.mp4	0.0	362.82356905937195	2.500314950942993
83	346.5184278488159	pulse	1	t		81.0	2.5	/experiments/knapen_AOT/AOT_stimuli/rescaled_final/0989_rv.mp4	0.0	364.00724697113037	
83	347.8350648880005	fix_post	2		12	81.0	2.5	/experiments/knapen_AOT/AOT_stimuli/rescaled_final/0989_rv.mp4	0.0	365.32388401031494	0.10001897811889648
84	347.9350838661194	fix_pre	0		120	82.0	2.5	/experiments/knapen_AOT/AOT_stimuli/rescaled_final/0329_fw.mp4	0.0	365.42390298843384	1.000136137008667
84	348.11869192123413	pulse	0	t		82.0	2.5	/experiments/knapen_AOT/AOT_stimuli/rescaled_final/0329_fw.mp4	0.0	365.6075110435486	
84	348.93522000312805	movie	1		242	82.0	2.5	/experiments/knapen_AOT/AOT_stimuli/rescaled_final/0329_fw.mp4	0.0	366.4240391254425	2.5005228519439697
84	349.71883392333984	pulse	1	t		82.0	2.5	/experiments/knapen_AOT/AOT_stimuli/rescaled_final/0329_fw.mp4	0.0	367.2076530456543	
84	351.3191628456116	pulse	1	t		82.0	2.5	/experiments/knapen_AOT/AOT_stimuli/rescaled_final/0329_fw.mp4	0.0	368.807981967926	
84	351.435742855072	fix_post	2		12	82.0	2.5	/experiments/knapen_AOT/AOT_stimuli/rescaled_final/0329_fw.mp4	0.0	368.9245619773865	0.09990406036376953
85	351.5356469154358	fix_pre	0		120	83.0	2.5	blank	1.0	369.02446603775024	1.0001728534698486
85	352.53581976890564	movie	1		299	83.0	2.5	blank	1.0	370.0246388912201	2.491986036300659
85	352.91192984580994	pulse	1	t		83.0	2.5	blank	1.0	370.4007489681244	
85	354.51210379600525	pulse	1	t		83.0	2.5	blank	1.0	372.0009229183197	
85	355.0278058052063	fix_post	2		12	83.0	2.5	blank	1.0	372.51662492752075	0.10003113746643066
87	355.12783694267273	stim	0		1716					372.6166560649872	14.30214786529541
87	356.11241483688354	pulse	0	t						373.601233959198	
87	357.71170377731323	pulse	0	t						375.2005228996277	
87	359.31186294555664	pulse	0	t						376.8006820678711	
87	360.9121129512787	pulse	0	t						378.40093207359314	
87	362.5124387741089	pulse	0	t						380.00125789642334	
87	364.11261081695557	pulse	0	t						381.60142993927	
87	365.7128939628601	pulse	0	t						383.20171308517456	
87	367.31306886672974	pulse	0	t						384.8018879890442	
87	368.9133839607239	pulse	0	t						386.40220308303833	
