trial_nr	onset	event_type	phase	response	nr_frames	movie_index	movie_duration	movie_file	blank	onset_abs	duration
0	0.1578669548034668	stim	0		155					20.30682396888733	1.2921371459960938
0	1.4419641494750977	response	0	space						21.59092116355896	
1	1.4500041007995605	stim	0		4255					21.598961114883423	35.45810294151306
1	36.90337610244751	pulse	0	t						57.05233311653137	
1	36.90810704231262	stim	1		1717					57.057064056396484	14.308398962020874
1	38.499940156936646	pulse	1	t						58.64889717102051	
1	40.092458963394165	pulse	1	t						60.24141597747803	
1	41.69237208366394	pulse	1	t						61.8413290977478	
1	43.29242396354675	pulse	1	t						63.441380977630615	
1	44.8924081325531	pulse	1	t						65.04136514663696	
1	46.49997401237488	pulse	1	t						66.64893102645874	
1	48.09983706474304	pulse	1	t						68.2487940788269	
1	49.69988298416138	pulse	1	t						69.84883999824524	
2	51.216506004333496	fix_pre	0		11	0.0	2.5	/experiments/AOT/AOT_stimuli/rescaled_final/0260_fw.mp4	0.0	71.36546301841736	0.09169602394104004
2	51.30007195472717	pulse	0	t		0.0	2.5	/experiments/AOT/AOT_stimuli/rescaled_final/0260_fw.mp4	0.0	71.44902896881104	
2	51.308202028274536	movie	1		244	0.0	2.5	/experiments/AOT/AOT_stimuli/rescaled_final/0260_fw.mp4	0.0	71.4571590423584	2.508197069168091
2	52.89944911003113	pulse	1	t		0.0	2.5	/experiments/AOT/AOT_stimuli/rescaled_final/0260_fw.mp4	0.0	73.04840612411499	
2	53.81639909744263	fix_post	2		12	0.0	2.5	/experiments/AOT/AOT_stimuli/rescaled_final/0260_fw.mp4	0.0	73.96535611152649	0.10003805160522461
3	53.91643714904785	fix_pre	0		120	1.0	2.5	/experiments/AOT/AOT_stimuli/rescaled_final/1700_rv.mp4	0.0	74.06539416313171	0.9999918937683105
3	54.49988317489624	pulse	0	t		1.0	2.5	/experiments/AOT/AOT_stimuli/rescaled_final/1700_rv.mp4	0.0	74.6488401889801	
3	54.91642904281616	movie	1		242	1.0	2.5	/experiments/AOT/AOT_stimuli/rescaled_final/1700_rv.mp4	0.0	75.06538605690002	2.4998490810394287
3	56.099936962127686	pulse	1	t		1.0	2.5	/experiments/AOT/AOT_stimuli/rescaled_final/1700_rv.mp4	0.0	76.24889397621155	
3	57.41627812385559	fix_post	2		12	1.0	2.5	/experiments/AOT/AOT_stimuli/rescaled_final/1700_rv.mp4	0.0	77.56523513793945	0.09996199607849121
4	57.51624011993408	fix_pre	0		120	2.0	2.5	/experiments/AOT/AOT_stimuli/rescaled_final/0742_rv.mp4	0.0	77.66519713401794	1.0000669956207275
4	57.6997230052948	pulse	0	t		2.0	2.5	/experiments/AOT/AOT_stimuli/rescaled_final/0742_rv.mp4	0.0	77.84868001937866	
4	58.51630711555481	movie	1		243	2.0	2.5	/experiments/AOT/AOT_stimuli/rescaled_final/0742_rv.mp4	0.0	78.66526412963867	2.500011920928955
4	59.29983305931091	pulse	1	t		2.0	2.5	/experiments/AOT/AOT_stimuli/rescaled_final/0742_rv.mp4	0.0	79.44879007339478	
4	60.89788508415222	pulse	1	t		2.0	2.5	/experiments/AOT/AOT_stimuli/rescaled_final/0742_rv.mp4	0.0	81.04684209823608	
4	61.016319036483765	fix_post	2		12	2.0	2.5	/experiments/AOT/AOT_stimuli/rescaled_final/0742_rv.mp4	0.0	81.16527605056763	0.09998393058776855
5	61.11630296707153	fix_pre	0		120	3.0	2.5	/experiments/AOT/AOT_stimuli/rescaled_final/0981_fw.mp4	0.0	81.2652599811554	1.0000090599060059
5	62.11631202697754	movie	1		243	3.0	2.5	/experiments/AOT/AOT_stimuli/rescaled_final/0981_fw.mp4	0.0	82.2652690410614	2.5001161098480225
5	62.499521017074585	pulse	1	t		3.0	2.5	/experiments/AOT/AOT_stimuli/rescaled_final/0981_fw.mp4	0.0	82.64847803115845	
5	64.09979009628296	pulse	1	t		3.0	2.5	/experiments/AOT/AOT_stimuli/rescaled_final/0981_fw.mp4	0.0	84.24874711036682	
5	64.61642813682556	fix_post	2		12	3.0	2.5	/experiments/AOT/AOT_stimuli/rescaled_final/0981_fw.mp4	0.0	84.76538515090942	0.09986996650695801
6	64.71629810333252	fix_pre	0		119	4.0	2.5	/experiments/AOT/AOT_stimuli/rescaled_final/2005_rv.mp4	0.0	84.86525511741638	0.9916460514068604
6	65.69975805282593	pulse	0	t		4.0	2.5	/experiments/AOT/AOT_stimuli/rescaled_final/2005_rv.mp4	0.0	85.84871506690979	
6	65.70794415473938	movie	1		251	4.0	2.5	/experiments/AOT/AOT_stimuli/rescaled_final/2005_rv.mp4	0.0	85.85690116882324	2.508314847946167
6	67.29941511154175	pulse	1	t		4.0	2.5	/experiments/AOT/AOT_stimuli/rescaled_final/2005_rv.mp4	0.0	87.44837212562561	
6	68.21625900268555	fix_post	2		12	4.0	2.5	/experiments/AOT/AOT_stimuli/rescaled_final/2005_rv.mp4	0.0	88.36521601676941	0.10003209114074707
7	68.3162910938263	fix_pre	0		120	5.0	2.5	blank	1.0	88.46524810791016	1.0000789165496826
7	68.89979195594788	pulse	0	t		5.0	2.5	blank	1.0	89.04874897003174	
7	69.31637001037598	movie	1		300	5.0	2.5	blank	1.0	89.46532702445984	2.49997615814209
7	70.49977111816406	pulse	1	t		5.0	2.5	blank	1.0	90.64872813224792	
7	71.81634616851807	fix_post	2		12	5.0	2.5	blank	1.0	91.96530318260193	0.0999917984008789
8	71.91633796691895	fix_pre	0		120	6.0	2.5	/experiments/AOT/AOT_stimuli/rescaled_final/1362_fw.mp4	0.0	92.06529498100281	1.000028133392334
8	72.09979605674744	pulse	0	t		6.0	2.5	/experiments/AOT/AOT_stimuli/rescaled_final/1362_fw.mp4	0.0	92.2487530708313	
8	72.91636610031128	movie	1		243	6.0	2.5	/experiments/AOT/AOT_stimuli/rescaled_final/1362_fw.mp4	0.0	93.06532311439514	2.499837875366211
8	73.69991898536682	pulse	1	t		6.0	2.5	/experiments/AOT/AOT_stimuli/rescaled_final/1362_fw.mp4	0.0	93.84887599945068	
8	75.29806613922119	pulse	1	t		6.0	2.5	/experiments/AOT/AOT_stimuli/rescaled_final/1362_fw.mp4	0.0	95.44702315330505	
8	75.41620397567749	fix_post	2		12	6.0	2.5	/experiments/AOT/AOT_stimuli/rescaled_final/1362_fw.mp4	0.0	95.56516098976135	0.10001420974731445
9	75.5162181854248	fix_pre	0		120	7.0	2.5	/experiments/AOT/AOT_stimuli/rescaled_final/1603_rv.mp4	0.0	95.66517519950867	0.9999289512634277
9	76.51614713668823	movie	1		243	7.0	2.5	/experiments/AOT/AOT_stimuli/rescaled_final/1603_rv.mp4	0.0	96.6651041507721	2.5000839233398438
9	76.89928317070007	pulse	1	t		7.0	2.5	/experiments/AOT/AOT_stimuli/rescaled_final/1603_rv.mp4	0.0	97.04824018478394	
9	78.49966597557068	pulse	1	t		7.0	2.5	/experiments/AOT/AOT_stimuli/rescaled_final/1603_rv.mp4	0.0	98.64862298965454	
9	79.01623106002808	fix_post	2		12	7.0	2.5	/experiments/AOT/AOT_stimuli/rescaled_final/1603_rv.mp4	0.0	99.16518807411194	0.09996604919433594
10	79.11619710922241	fix_pre	0		119	8.0	2.5	/experiments/AOT/AOT_stimuli/rescaled_final/2136_fw.mp4	0.0	99.26515412330627	0.9916479587554932
10	80.09979009628296	pulse	0	t		8.0	2.5	/experiments/AOT/AOT_stimuli/rescaled_final/2136_fw.mp4	0.0	100.24874711036682	
10	80.1078450679779	movie	1		245	8.0	2.5	/experiments/AOT/AOT_stimuli/rescaled_final/2136_fw.mp4	0.0	100.25680208206177	2.5083870887756348
10	81.69930505752563	pulse	1	t		8.0	2.5	/experiments/AOT/AOT_stimuli/rescaled_final/2136_fw.mp4	0.0	101.8482620716095	
10	82.61623215675354	fix_post	2		12	8.0	2.5	/experiments/AOT/AOT_stimuli/rescaled_final/2136_fw.mp4	0.0	102.7651891708374	0.10003089904785156
11	82.71626305580139	fix_pre	0		120	9.0	2.5	/experiments/AOT/AOT_stimuli/rescaled_final/0337_fw.mp4	0.0	102.86522006988525	0.9999890327453613
11	83.29980611801147	pulse	0	t		9.0	2.5	/experiments/AOT/AOT_stimuli/rescaled_final/0337_fw.mp4	0.0	103.44876313209534	
11	83.71625208854675	movie	1		243	9.0	2.5	/experiments/AOT/AOT_stimuli/rescaled_final/0337_fw.mp4	0.0	103.86520910263062	2.4999289512634277
11	84.89982295036316	pulse	1	t		9.0	2.5	/experiments/AOT/AOT_stimuli/rescaled_final/0337_fw.mp4	0.0	105.04877996444702	
11	86.21618103981018	fix_post	2		12	9.0	2.5	/experiments/AOT/AOT_stimuli/rescaled_final/0337_fw.mp4	0.0	106.36513805389404	0.10000014305114746
12	86.31618118286133	fix_pre	0		120	10.0	2.5	/experiments/AOT/AOT_stimuli/rescaled_final/1684_fw.mp4	0.0	106.46513819694519	0.9999988079071045
12	86.4997329711914	pulse	0	t		10.0	2.5	/experiments/AOT/AOT_stimuli/rescaled_final/1684_fw.mp4	0.0	106.64868998527527	
12	87.31617999076843	movie	1		246	10.0	2.5	/experiments/AOT/AOT_stimuli/rescaled_final/1684_fw.mp4	0.0	107.4651370048523	2.500009059906006
12	88.09971308708191	pulse	1	t		10.0	2.5	/experiments/AOT/AOT_stimuli/rescaled_final/1684_fw.mp4	0.0	108.24867010116577	
12	89.69835615158081	pulse	1	t		10.0	2.5	/experiments/AOT/AOT_stimuli/rescaled_final/1684_fw.mp4	0.0	109.84731316566467	
12	89.81618905067444	fix_post	2		12	10.0	2.5	/experiments/AOT/AOT_stimuli/rescaled_final/1684_fw.mp4	0.0	109.9651460647583	0.09996509552001953
13	89.91615414619446	fix_pre	0		120	11.0	2.5	/experiments/AOT/AOT_stimuli/rescaled_final/1861_rv.mp4	0.0	110.06511116027832	1.0001509189605713
13	90.91630506515503	movie	1		244	11.0	2.5	/experiments/AOT/AOT_stimuli/rescaled_final/1861_rv.mp4	0.0	111.06526207923889	2.499885082244873
13	91.30044412612915	pulse	1	t		11.0	2.5	/experiments/AOT/AOT_stimuli/rescaled_final/1861_rv.mp4	0.0	111.44940114021301	
13	92.8923110961914	pulse	1	t		11.0	2.5	/experiments/AOT/AOT_stimuli/rescaled_final/1861_rv.mp4	0.0	113.04126811027527	
13	93.4161901473999	fix_post	2		12	11.0	2.5	/experiments/AOT/AOT_stimuli/rescaled_final/1861_rv.mp4	0.0	113.56514716148376	0.10002589225769043
14	93.51621603965759	fix_pre	0		119	12.0	2.5	/experiments/AOT/AOT_stimuli/rescaled_final/0382_rv.mp4	0.0	113.66517305374146	0.9916350841522217
14	94.49973011016846	pulse	0	t		12.0	2.5	/experiments/AOT/AOT_stimuli/rescaled_final/0382_rv.mp4	0.0	114.64868712425232	
14	94.50785112380981	movie	1		245	12.0	2.5	/experiments/AOT/AOT_stimuli/rescaled_final/0382_rv.mp4	0.0	114.65680813789368	2.508347988128662
14	96.09920310974121	pulse	1	t		12.0	2.5	/experiments/AOT/AOT_stimuli/rescaled_final/0382_rv.mp4	0.0	116.24816012382507	
14	97.01619911193848	fix_post	2		12	12.0	2.5	/experiments/AOT/AOT_stimuli/rescaled_final/0382_rv.mp4	0.0	117.16515612602234	0.09999704360961914
15	97.1161961555481	fix_pre	0		120	13.0	2.5	blank	1.0	117.26515316963196	0.9999599456787109
15	97.69967913627625	pulse	0	t		13.0	2.5	blank	1.0	117.84863615036011	
15	98.1161561012268	movie	1		300	13.0	2.5	blank	1.0	118.26511311531067	2.4999380111694336
15	99.29961895942688	pulse	1	t		13.0	2.5	blank	1.0	119.44857597351074	
15	100.61609411239624	fix_post	2		12	13.0	2.5	blank	1.0	120.7650511264801	0.10012102127075195
16	100.71621513366699	fix_pre	0		120	14.0	2.5	/experiments/AOT/AOT_stimuli/rescaled_final/1684_rv.mp4	0.0	120.86517214775085	0.9998569488525391
16	100.89963507652283	pulse	0	t		14.0	2.5	/experiments/AOT/AOT_stimuli/rescaled_final/1684_rv.mp4	0.0	121.04859209060669	
16	101.71607208251953	movie	1		243	14.0	2.5	/experiments/AOT/AOT_stimuli/rescaled_final/1684_rv.mp4	0.0	121.8650290966034	2.5000879764556885
16	102.49966502189636	pulse	1	t		14.0	2.5	/experiments/AOT/AOT_stimuli/rescaled_final/1684_rv.mp4	0.0	122.64862203598022	
16	104.0981969833374	pulse	1	t		14.0	2.5	/experiments/AOT/AOT_stimuli/rescaled_final/1684_rv.mp4	0.0	124.24715399742126	
16	104.21616005897522	fix_post	2		12	14.0	2.5	/experiments/AOT/AOT_stimuli/rescaled_final/1684_rv.mp4	0.0	124.36511707305908	0.10009002685546875
17	104.31625008583069	fix_pre	0		120	15.0	2.5	/experiments/AOT/AOT_stimuli/rescaled_final/0606_fw.mp4	0.0	124.46520709991455	0.9994480609893799
17	105.31569814682007	movie	1		245	15.0	2.5	/experiments/AOT/AOT_stimuli/rescaled_final/0606_fw.mp4	0.0	125.46465516090393	2.5007169246673584
17	105.69907212257385	pulse	1	t		15.0	2.5	/experiments/AOT/AOT_stimuli/rescaled_final/0606_fw.mp4	0.0	125.84802913665771	
17	107.29933905601501	pulse	1	t		15.0	2.5	/experiments/AOT/AOT_stimuli/rescaled_final/0606_fw.mp4	0.0	127.44829607009888	
17	107.81641507148743	fix_post	2		12	15.0	2.5	/experiments/AOT/AOT_stimuli/rescaled_final/0606_fw.mp4	0.0	127.96537208557129	0.10001206398010254
18	107.91642713546753	fix_pre	0		119	16.0	2.5	/experiments/AOT/AOT_stimuli/rescaled_final/1730_fw.mp4	0.0	128.0653841495514	0.9913918972015381
18	108.89968609809875	pulse	0	t		16.0	2.5	/experiments/AOT/AOT_stimuli/rescaled_final/1730_fw.mp4	0.0	129.04864311218262	
18	108.90781903266907	movie	1		245	16.0	2.5	/experiments/AOT/AOT_stimuli/rescaled_final/1730_fw.mp4	0.0	129.05677604675293	2.5083060264587402
18	110.49910807609558	pulse	1	t		16.0	2.5	/experiments/AOT/AOT_stimuli/rescaled_final/1730_fw.mp4	0.0	130.64806509017944	
18	111.41612505912781	fix_post	2		12	16.0	2.5	/experiments/AOT/AOT_stimuli/rescaled_final/1730_fw.mp4	0.0	131.56508207321167	0.1000211238861084
19	111.51614618301392	fix_pre	0		120	17.0	2.5	/experiments/AOT/AOT_stimuli/rescaled_final/1933_rv.mp4	0.0	131.66510319709778	1.0000379085540771
19	112.0996150970459	pulse	0	t		17.0	2.5	/experiments/AOT/AOT_stimuli/rescaled_final/1933_rv.mp4	0.0	132.24857211112976	
19	112.516184091568	movie	1		245	17.0	2.5	/experiments/AOT/AOT_stimuli/rescaled_final/1933_rv.mp4	0.0	132.66514110565186	2.499980926513672
19	113.699716091156	pulse	1	t		17.0	2.5	/experiments/AOT/AOT_stimuli/rescaled_final/1933_rv.mp4	0.0	133.84867310523987	
19	115.01616501808167	fix_post	2		12	17.0	2.5	/experiments/AOT/AOT_stimuli/rescaled_final/1933_rv.mp4	0.0	135.16512203216553	0.09999203681945801
20	115.11615705490112	fix_pre	0		120	18.0	2.5	/experiments/AOT/AOT_stimuli/rescaled_final/0061_rv.mp4	0.0	135.26511406898499	0.9999799728393555
20	115.2995331287384	pulse	0	t		18.0	2.5	/experiments/AOT/AOT_stimuli/rescaled_final/0061_rv.mp4	0.0	135.44849014282227	
20	116.11613702774048	movie	1		244	18.0	2.5	/experiments/AOT/AOT_stimuli/rescaled_final/0061_rv.mp4	0.0	136.26509404182434	2.4999279975891113
20	116.89957404136658	pulse	1	t		18.0	2.5	/experiments/AOT/AOT_stimuli/rescaled_final/0061_rv.mp4	0.0	137.04853105545044	
20	118.49793100357056	pulse	1	t		18.0	2.5	/experiments/AOT/AOT_stimuli/rescaled_final/0061_rv.mp4	0.0	138.64688801765442	
20	118.61606502532959	fix_post	2		12	18.0	2.5	/experiments/AOT/AOT_stimuli/rescaled_final/0061_rv.mp4	0.0	138.76502203941345	0.10003209114074707
21	118.71609711647034	fix_pre	0		120	19.0	2.5	/experiments/AOT/AOT_stimuli/rescaled_final/1399_rv.mp4	0.0	138.8650541305542	0.9999449253082275
21	119.71604204177856	movie	1		244	19.0	2.5	/experiments/AOT/AOT_stimuli/rescaled_final/1399_rv.mp4	0.0	139.86499905586243	2.5000150203704834
21	120.0995659828186	pulse	1	t		19.0	2.5	/experiments/AOT/AOT_stimuli/rescaled_final/1399_rv.mp4	0.0	140.24852299690247	
21	121.69949102401733	pulse	1	t		19.0	2.5	/experiments/AOT/AOT_stimuli/rescaled_final/1399_rv.mp4	0.0	141.8484480381012	
21	122.21605706214905	fix_post	2		12	19.0	2.5	/experiments/AOT/AOT_stimuli/rescaled_final/1399_rv.mp4	0.0	142.3650140762329	0.09991097450256348
22	122.31596803665161	fix_pre	0		119	20.0	2.5	/experiments/AOT/AOT_stimuli/rescaled_final/1062_rv.mp4	0.0	142.46492505073547	0.9917359352111816
22	123.29957413673401	pulse	0	t		20.0	2.5	/experiments/AOT/AOT_stimuli/rescaled_final/1062_rv.mp4	0.0	143.44853115081787	
22	123.3077039718628	movie	1		245	20.0	2.5	/experiments/AOT/AOT_stimuli/rescaled_final/1062_rv.mp4	0.0	143.45666098594666	2.5082859992980957
22	124.89892411231995	pulse	1	t		20.0	2.5	/experiments/AOT/AOT_stimuli/rescaled_final/1062_rv.mp4	0.0	145.0478811264038	
22	125.81598997116089	fix_post	2		12	20.0	2.5	/experiments/AOT/AOT_stimuli/rescaled_final/1062_rv.mp4	0.0	145.96494698524475	0.10001015663146973
23	125.91600012779236	fix_pre	0		120	21.0	2.5	blank	1.0	146.06495714187622	1.0000338554382324
23	126.49958610534668	pulse	0	t		21.0	2.5	blank	1.0	146.64854311943054	
23	126.91603398323059	movie	1		300	21.0	2.5	blank	1.0	147.06499099731445	2.4999001026153564
23	128.0995490550995	pulse	1	t		21.0	2.5	blank	1.0	148.24850606918335	
23	129.41593408584595	fix_post	2		12	21.0	2.5	blank	1.0	149.5648910999298	0.1000669002532959
24	129.51600098609924	fix_pre	0		120	22.0	2.5	/experiments/AOT/AOT_stimuli/rescaled_final/0665_rv.mp4	0.0	149.6649580001831	1.000028133392334
24	129.69949197769165	pulse	0	t		22.0	2.5	/experiments/AOT/AOT_stimuli/rescaled_final/0665_rv.mp4	0.0	149.8484489917755	
24	130.51602911949158	movie	1		244	22.0	2.5	/experiments/AOT/AOT_stimuli/rescaled_final/0665_rv.mp4	0.0	150.66498613357544	2.5000360012054443
24	131.29951214790344	pulse	1	t		22.0	2.5	/experiments/AOT/AOT_stimuli/rescaled_final/0665_rv.mp4	0.0	151.4484691619873	
24	132.89788603782654	pulse	1	t		22.0	2.5	/experiments/AOT/AOT_stimuli/rescaled_final/0665_rv.mp4	0.0	153.0468430519104	
24	133.01606512069702	fix_post	2		12	22.0	2.5	/experiments/AOT/AOT_stimuli/rescaled_final/0665_rv.mp4	0.0	153.16502213478088	0.09989690780639648
25	133.11596202850342	fix_pre	0		120	23.0	2.5	/experiments/AOT/AOT_stimuli/rescaled_final/0720_rv.mp4	0.0	153.26491904258728	0.999993085861206
25	134.11595511436462	movie	1		246	23.0	2.5	/experiments/AOT/AOT_stimuli/rescaled_final/0720_rv.mp4	0.0	154.2649121284485	2.4999630451202393
25	134.49887800216675	pulse	1	t		23.0	2.5	/experiments/AOT/AOT_stimuli/rescaled_final/0720_rv.mp4	0.0	154.6478350162506	
25	136.09947109222412	pulse	1	t		23.0	2.5	/experiments/AOT/AOT_stimuli/rescaled_final/0720_rv.mp4	0.0	156.24842810630798	
25	136.61591815948486	fix_post	2		12	23.0	2.5	/experiments/AOT/AOT_stimuli/rescaled_final/0720_rv.mp4	0.0	156.76487517356873	0.10000300407409668
26	136.71592116355896	fix_pre	0		119	24.0	2.5	/experiments/AOT/AOT_stimuli/rescaled_final/2089_fw.mp4	0.0	156.86487817764282	0.9916830062866211
26	137.699471950531	pulse	0	t		24.0	2.5	/experiments/AOT/AOT_stimuli/rescaled_final/2089_fw.mp4	0.0	157.84842896461487	
26	137.70760416984558	movie	1		245	24.0	2.5	/experiments/AOT/AOT_stimuli/rescaled_final/2089_fw.mp4	0.0	157.85656118392944	2.5083179473876953
26	139.30047011375427	pulse	1	t		24.0	2.5	/experiments/AOT/AOT_stimuli/rescaled_final/2089_fw.mp4	0.0	159.44942712783813	
26	140.21592211723328	fix_post	2		12	24.0	2.5	/experiments/AOT/AOT_stimuli/rescaled_final/2089_fw.mp4	0.0	160.36487913131714	0.09999704360961914
27	140.3159191608429	fix_pre	0		120	25.0	2.5	/experiments/AOT/AOT_stimuli/rescaled_final/1615_rv.mp4	0.0	160.46487617492676	1.0001888275146484
27	140.89943599700928	pulse	0	t		25.0	2.5	/experiments/AOT/AOT_stimuli/rescaled_final/1615_rv.mp4	0.0	161.04839301109314	
27	141.31610798835754	movie	1		245	25.0	2.5	/experiments/AOT/AOT_stimuli/rescaled_final/1615_rv.mp4	0.0	161.4650650024414	2.4997880458831787
27	142.4995059967041	pulse	1	t		25.0	2.5	/experiments/AOT/AOT_stimuli/rescaled_final/1615_rv.mp4	0.0	162.64846301078796	
27	143.81589603424072	fix_post	2		12	25.0	2.5	/experiments/AOT/AOT_stimuli/rescaled_final/1615_rv.mp4	0.0	163.96485304832458	0.100067138671875
28	143.9159631729126	fix_pre	0		120	26.0	2.5	/experiments/AOT/AOT_stimuli/rescaled_final/2123_fw.mp4	0.0	164.06492018699646	0.9999599456787109
28	144.09947299957275	pulse	0	t		26.0	2.5	/experiments/AOT/AOT_stimuli/rescaled_final/2123_fw.mp4	0.0	164.24843001365662	
28	144.9159231185913	movie	1		243	26.0	2.5	/experiments/AOT/AOT_stimuli/rescaled_final/2123_fw.mp4	0.0	165.06488013267517	2.5000338554382324
28	145.69945311546326	pulse	1	t		26.0	2.5	/experiments/AOT/AOT_stimuli/rescaled_final/2123_fw.mp4	0.0	165.84841012954712	
28	147.29845714569092	pulse	1	t		26.0	2.5	/experiments/AOT/AOT_stimuli/rescaled_final/2123_fw.mp4	0.0	167.44741415977478	
28	147.41595697402954	fix_post	2		12	26.0	2.5	/experiments/AOT/AOT_stimuli/rescaled_final/2123_fw.mp4	0.0	167.5649139881134	0.10000300407409668
29	147.51595997810364	fix_pre	0		120	27.0	2.5	/experiments/AOT/AOT_stimuli/rescaled_final/1188_fw.mp4	0.0	167.6649169921875	0.9999830722808838
29	148.51594305038452	movie	1		243	27.0	2.5	/experiments/AOT/AOT_stimuli/rescaled_final/1188_fw.mp4	0.0	168.66490006446838	2.5000250339508057
29	148.8991801738739	pulse	1	t		27.0	2.5	/experiments/AOT/AOT_stimuli/rescaled_final/1188_fw.mp4	0.0	169.04813718795776	
29	150.4994239807129	pulse	1	t		27.0	2.5	/experiments/AOT/AOT_stimuli/rescaled_final/1188_fw.mp4	0.0	170.64838099479675	
29	151.01596808433533	fix_post	2		12	27.0	2.5	/experiments/AOT/AOT_stimuli/rescaled_final/1188_fw.mp4	0.0	171.1649250984192	0.09997010231018066
30	151.1159381866455	fix_pre	0		119	28.0	2.5	blank	1.0	171.26489520072937	0.9916338920593262
30	152.0994119644165	pulse	0	t		28.0	2.5	blank	1.0	172.24836897850037	
30	152.10757207870483	movie	1		301	28.0	2.5	blank	1.0	172.2565290927887	2.508284091949463
30	153.69942808151245	pulse	1	t		28.0	2.5	blank	1.0	173.8483850955963	
30	154.6158561706543	fix_post	2		12	28.0	2.5	blank	1.0	174.76481318473816	0.09998583793640137
31	154.7158420085907	fix_pre	0		120	29.0	2.5	/experiments/AOT/AOT_stimuli/rescaled_final/2118_rv.mp4	0.0	174.86479902267456	1.0000929832458496
31	155.2995331287384	pulse	0	t		29.0	2.5	/experiments/AOT/AOT_stimuli/rescaled_final/2118_rv.mp4	0.0	175.44849014282227	
31	155.71593499183655	movie	1		245	29.0	2.5	/experiments/AOT/AOT_stimuli/rescaled_final/2118_rv.mp4	0.0	175.8648920059204	2.499866008758545
31	156.89947700500488	pulse	1	t		29.0	2.5	/experiments/AOT/AOT_stimuli/rescaled_final/2118_rv.mp4	0.0	177.04843401908875	
31	158.2158010005951	fix_post	2		12	29.0	2.5	/experiments/AOT/AOT_stimuli/rescaled_final/2118_rv.mp4	0.0	178.36475801467896	0.10004997253417969
32	158.31585097312927	fix_pre	0		120	30.0	2.5	/experiments/AOT/AOT_stimuli/rescaled_final/0853_rv.mp4	0.0	178.46480798721313	0.9999911785125732
32	158.4994239807129	pulse	0	t		30.0	2.5	/experiments/AOT/AOT_stimuli/rescaled_final/0853_rv.mp4	0.0	178.64838099479675	
32	159.31584215164185	movie	1		246	30.0	2.5	/experiments/AOT/AOT_stimuli/rescaled_final/0853_rv.mp4	0.0	179.4647991657257	2.500093936920166
32	160.09948015213013	pulse	1	t		30.0	2.5	/experiments/AOT/AOT_stimuli/rescaled_final/0853_rv.mp4	0.0	180.248437166214	
32	161.6979160308838	pulse	1	t		30.0	2.5	/experiments/AOT/AOT_stimuli/rescaled_final/0853_rv.mp4	0.0	181.84687304496765	
32	161.815936088562	fix_post	2		12	30.0	2.5	/experiments/AOT/AOT_stimuli/rescaled_final/0853_rv.mp4	0.0	181.96489310264587	0.10002708435058594
33	161.9159631729126	fix_pre	0		120	31.0	2.5	/experiments/AOT/AOT_stimuli/rescaled_final/1032_rv.mp4	0.0	182.06492018699646	0.9996638298034668
33	162.91562700271606	movie	1		243	31.0	2.5	/experiments/AOT/AOT_stimuli/rescaled_final/1032_rv.mp4	0.0	183.06458401679993	2.5002200603485107
33	163.29904198646545	pulse	1	t		31.0	2.5	/experiments/AOT/AOT_stimuli/rescaled_final/1032_rv.mp4	0.0	183.44799900054932	
33	164.8993489742279	pulse	1	t		31.0	2.5	/experiments/AOT/AOT_stimuli/rescaled_final/1032_rv.mp4	0.0	185.04830598831177	
33	165.41584706306458	fix_post	2		12	31.0	2.5	/experiments/AOT/AOT_stimuli/rescaled_final/1032_rv.mp4	0.0	185.56480407714844	0.10001897811889648
34	165.51586604118347	fix_pre	0		119	32.0	2.5	/experiments/AOT/AOT_stimuli/rescaled_final/0170_rv.mp4	0.0	185.66482305526733	0.9916419982910156
34	166.49936413764954	pulse	0	t		32.0	2.5	/experiments/AOT/AOT_stimuli/rescaled_final/0170_rv.mp4	0.0	186.6483211517334	
34	166.5075080394745	movie	1		245	32.0	2.5	/experiments/AOT/AOT_stimuli/rescaled_final/0170_rv.mp4	0.0	186.65646505355835	2.5082991123199463
34	168.09876418113708	pulse	1	t		32.0	2.5	/experiments/AOT/AOT_stimuli/rescaled_final/0170_rv.mp4	0.0	188.24772119522095	
34	169.01580715179443	fix_post	2		12	32.0	2.5	/experiments/AOT/AOT_stimuli/rescaled_final/0170_rv.mp4	0.0	189.1647641658783	0.0999460220336914
35	169.11575317382812	fix_pre	0		120	33.0	2.5	/experiments/AOT/AOT_stimuli/rescaled_final/2009_fw.mp4	0.0	189.264710187912	1.0000979900360107
35	169.69925904273987	pulse	0	t		33.0	2.5	/experiments/AOT/AOT_stimuli/rescaled_final/2009_fw.mp4	0.0	189.84821605682373	
35	170.11585116386414	movie	1		247	33.0	2.5	/experiments/AOT/AOT_stimuli/rescaled_final/2009_fw.mp4	0.0	190.264808177948	2.4998958110809326
35	171.29929614067078	pulse	1	t		33.0	2.5	/experiments/AOT/AOT_stimuli/rescaled_final/2009_fw.mp4	0.0	191.44825315475464	
35	172.61574697494507	fix_post	2		12	33.0	2.5	/experiments/AOT/AOT_stimuli/rescaled_final/2009_fw.mp4	0.0	192.76470398902893	0.10004520416259766
36	172.71579217910767	fix_pre	0		120	34.0	2.5	blank	1.0	192.86474919319153	1.0000219345092773
36	172.89927196502686	pulse	0	t		34.0	2.5	blank	1.0	193.04822897911072	
36	173.71581411361694	movie	1		300	34.0	2.5	blank	1.0	193.8647711277008	2.499912977218628
36	174.4992971420288	pulse	1	t		34.0	2.5	blank	1.0	194.64825415611267	
36	176.099200963974	pulse	1	t		34.0	2.5	blank	1.0	196.24815797805786	
36	176.21572709083557	fix_post	2		12	34.0	2.5	blank	1.0	196.36468410491943	0.10001397132873535
37	176.3157410621643	fix_pre	0		120	35.0	2.5	/experiments/AOT/AOT_stimuli/rescaled_final/1005_rv.mp4	0.0	196.46469807624817	1.0000839233398438
37	177.31582498550415	movie	1		247	35.0	2.5	/experiments/AOT/AOT_stimuli/rescaled_final/1005_rv.mp4	0.0	197.464781999588	2.499958038330078
37	177.69884395599365	pulse	1	t		35.0	2.5	/experiments/AOT/AOT_stimuli/rescaled_final/1005_rv.mp4	0.0	197.84780097007751	
37	179.29920411109924	pulse	1	t		35.0	2.5	/experiments/AOT/AOT_stimuli/rescaled_final/1005_rv.mp4	0.0	199.4481611251831	
37	179.81578302383423	fix_post	2		12	35.0	2.5	/experiments/AOT/AOT_stimuli/rescaled_final/1005_rv.mp4	0.0	199.9647400379181	0.09998512268066406
38	179.9157681465149	fix_pre	0		119	36.0	2.5	/experiments/AOT/AOT_stimuli/rescaled_final/0238_rv.mp4	0.0	200.06472516059875	0.9916419982910156
38	180.89928197860718	pulse	0	t		36.0	2.5	/experiments/AOT/AOT_stimuli/rescaled_final/0238_rv.mp4	0.0	201.04823899269104	
38	180.9074101448059	movie	1		246	36.0	2.5	/experiments/AOT/AOT_stimuli/rescaled_final/0238_rv.mp4	0.0	201.05636715888977	2.508430004119873
38	182.4991991519928	pulse	1	t		36.0	2.5	/experiments/AOT/AOT_stimuli/rescaled_final/0238_rv.mp4	0.0	202.64815616607666	
38	183.41584014892578	fix_post	2		12	36.0	2.5	/experiments/AOT/AOT_stimuli/rescaled_final/0238_rv.mp4	0.0	203.56479716300964	0.0999288558959961
39	183.51576900482178	fix_pre	0		120	37.0	2.5	/experiments/AOT/AOT_stimuli/rescaled_final/0316_fw.mp4	0.0	203.66472601890564	1.0000221729278564
39	184.0993571281433	pulse	0	t		37.0	2.5	/experiments/AOT/AOT_stimuli/rescaled_final/0316_fw.mp4	0.0	204.24831414222717	
39	184.51579117774963	movie	1		245	37.0	2.5	/experiments/AOT/AOT_stimuli/rescaled_final/0316_fw.mp4	0.0	204.6647481918335	2.499917984008789
39	185.69922018051147	pulse	1	t		37.0	2.5	/experiments/AOT/AOT_stimuli/rescaled_final/0316_fw.mp4	0.0	205.84817719459534	
39	187.01570916175842	fix_post	2		12	37.0	2.5	/experiments/AOT/AOT_stimuli/rescaled_final/0316_fw.mp4	0.0	207.16466617584229	0.10007691383361816
40	187.11578607559204	fix_pre	0		120	38.0	2.5	/experiments/AOT/AOT_stimuli/rescaled_final/0931_rv.mp4	0.0	207.2647430896759	0.9999330043792725
40	187.29921007156372	pulse	0	t		38.0	2.5	/experiments/AOT/AOT_stimuli/rescaled_final/0931_rv.mp4	0.0	207.44816708564758	
40	188.1157190799713	movie	1		244	38.0	2.5	/experiments/AOT/AOT_stimuli/rescaled_final/0931_rv.mp4	0.0	208.26467609405518	2.5000510215759277
40	188.89920711517334	pulse	1	t		38.0	2.5	/experiments/AOT/AOT_stimuli/rescaled_final/0931_rv.mp4	0.0	209.0481641292572	
40	190.49763917922974	pulse	1	t		38.0	2.5	/experiments/AOT/AOT_stimuli/rescaled_final/0931_rv.mp4	0.0	210.6465961933136	
40	190.61577010154724	fix_post	2		12	38.0	2.5	/experiments/AOT/AOT_stimuli/rescaled_final/0931_rv.mp4	0.0	210.7647271156311	0.09990191459655762
41	190.7156720161438	fix_pre	0		120	39.0	2.5	/experiments/AOT/AOT_stimuli/rescaled_final/0076_fw.mp4	0.0	210.86462903022766	1.0000779628753662
41	191.71574997901917	movie	1		244	39.0	2.5	/experiments/AOT/AOT_stimuli/rescaled_final/0076_fw.mp4	0.0	211.86470699310303	2.499936103820801
41	192.0987889766693	pulse	1	t		39.0	2.5	/experiments/AOT/AOT_stimuli/rescaled_final/0076_fw.mp4	0.0	212.24774599075317	
41	193.69919395446777	pulse	1	t		39.0	2.5	/experiments/AOT/AOT_stimuli/rescaled_final/0076_fw.mp4	0.0	213.84815096855164	
41	194.21568608283997	fix_post	2		12	39.0	2.5	/experiments/AOT/AOT_stimuli/rescaled_final/0076_fw.mp4	0.0	214.36464309692383	0.1000070571899414
42	194.3156931400299	fix_pre	0		119	40.0	2.5	/experiments/AOT/AOT_stimuli/rescaled_final/0407_rv.mp4	0.0	214.46465015411377	0.9916729927062988
42	195.2992820739746	pulse	0	t		40.0	2.5	/experiments/AOT/AOT_stimuli/rescaled_final/0407_rv.mp4	0.0	215.44823908805847	
42	195.3073661327362	movie	1		245	40.0	2.5	/experiments/AOT/AOT_stimuli/rescaled_final/0407_rv.mp4	0.0	215.45632314682007	2.5083539485931396
42	196.8986110687256	pulse	1	t		40.0	2.5	/experiments/AOT/AOT_stimuli/rescaled_final/0407_rv.mp4	0.0	217.04756808280945	
42	197.81572008132935	fix_post	2		12	40.0	2.5	/experiments/AOT/AOT_stimuli/rescaled_final/0407_rv.mp4	0.0	217.9646770954132	0.09998607635498047
43	197.91570615768433	fix_pre	0		120	41.0	2.5	blank	1.0	218.0646631717682	1.000058889389038
43	198.49918699264526	pulse	0	t		41.0	2.5	blank	1.0	218.64814400672913	
43	198.91576504707336	movie	1		300	41.0	2.5	blank	1.0	219.06472206115723	2.4999449253082275
43	200.09927415847778	pulse	1	t		41.0	2.5	blank	1.0	220.24823117256165	
43	201.4157099723816	fix_post	2		12	41.0	2.5	blank	1.0	221.56466698646545	0.10002017021179199
44	201.51573014259338	fix_pre	0		120	42.0	2.5	/experiments/AOT/AOT_stimuli/rescaled_final/0195_fw.mp4	0.0	221.66468715667725	0.9999518394470215
44	201.6991469860077	pulse	0	t		42.0	2.5	/experiments/AOT/AOT_stimuli/rescaled_final/0195_fw.mp4	0.0	221.84810400009155	
44	202.5156819820404	movie	1		244	42.0	2.5	/experiments/AOT/AOT_stimuli/rescaled_final/0195_fw.mp4	0.0	222.66463899612427	2.4999489784240723
44	203.29917216300964	pulse	1	t		42.0	2.5	/experiments/AOT/AOT_stimuli/rescaled_final/0195_fw.mp4	0.0	223.4481291770935	
44	204.89770197868347	pulse	1	t		42.0	2.5	/experiments/AOT/AOT_stimuli/rescaled_final/0195_fw.mp4	0.0	225.04665899276733	
44	205.01563096046448	fix_post	2		12	42.0	2.5	/experiments/AOT/AOT_stimuli/rescaled_final/0195_fw.mp4	0.0	225.16458797454834	0.09999704360961914
45	205.1156280040741	fix_pre	0		120	43.0	2.5	/experiments/AOT/AOT_stimuli/rescaled_final/1149_rv.mp4	0.0	225.26458501815796	1.000025987625122
45	206.11565399169922	movie	1		243	43.0	2.5	/experiments/AOT/AOT_stimuli/rescaled_final/1149_rv.mp4	0.0	226.26461100578308	2.500012159347534
45	206.4986491203308	pulse	1	t		43.0	2.5	/experiments/AOT/AOT_stimuli/rescaled_final/1149_rv.mp4	0.0	226.64760613441467	
45	208.09902715682983	pulse	1	t		43.0	2.5	/experiments/AOT/AOT_stimuli/rescaled_final/1149_rv.mp4	0.0	228.2479841709137	
45	208.61566615104675	fix_post	2		12	43.0	2.5	/experiments/AOT/AOT_stimuli/rescaled_final/1149_rv.mp4	0.0	228.76462316513062	0.09999895095825195
46	208.715665102005	fix_pre	0		119	44.0	2.5	/experiments/AOT/AOT_stimuli/rescaled_final/1573_rv.mp4	0.0	228.86462211608887	0.9916019439697266
46	209.69915413856506	pulse	0	t		44.0	2.5	/experiments/AOT/AOT_stimuli/rescaled_final/1573_rv.mp4	0.0	229.84811115264893	
46	209.70726704597473	movie	1		245	44.0	2.5	/experiments/AOT/AOT_stimuli/rescaled_final/1573_rv.mp4	0.0	229.8562240600586	2.508618116378784
46	211.29888010025024	pulse	1	t		44.0	2.5	/experiments/AOT/AOT_stimuli/rescaled_final/1573_rv.mp4	0.0	231.4478371143341	
46	212.21588516235352	fix_post	2		12	44.0	2.5	/experiments/AOT/AOT_stimuli/rescaled_final/1573_rv.mp4	0.0	232.36484217643738	0.0997779369354248
47	212.31566309928894	fix_pre	0		120	45.0	2.5	/experiments/AOT/AOT_stimuli/rescaled_final/0446_fw.mp4	0.0	232.4646201133728	0.999906063079834
47	212.89909100532532	pulse	0	t		45.0	2.5	/experiments/AOT/AOT_stimuli/rescaled_final/0446_fw.mp4	0.0	233.04804801940918	
47	213.31556916236877	movie	1		244	45.0	2.5	/experiments/AOT/AOT_stimuli/rescaled_final/0446_fw.mp4	0.0	233.46452617645264	2.500046968460083
47	214.49918603897095	pulse	1	t		45.0	2.5	/experiments/AOT/AOT_stimuli/rescaled_final/0446_fw.mp4	0.0	234.6481430530548	
47	215.81561613082886	fix_post	2		12	45.0	2.5	/experiments/AOT/AOT_stimuli/rescaled_final/0446_fw.mp4	0.0	235.96457314491272	0.09997892379760742
48	215.91559505462646	fix_pre	0		120	46.0	2.5	/experiments/AOT/AOT_stimuli/rescaled_final/2071_fw.mp4	0.0	236.06455206871033	1.0001270771026611
48	216.0993001461029	pulse	0	t		46.0	2.5	/experiments/AOT/AOT_stimuli/rescaled_final/2071_fw.mp4	0.0	236.24825716018677	
48	216.91572213172913	movie	1		242	46.0	2.5	/experiments/AOT/AOT_stimuli/rescaled_final/2071_fw.mp4	0.0	237.064679145813	2.4997599124908447
48	217.6986689567566	pulse	1	t		46.0	2.5	/experiments/AOT/AOT_stimuli/rescaled_final/2071_fw.mp4	0.0	237.84762597084045	
48	219.29724502563477	pulse	1	t		46.0	2.5	/experiments/AOT/AOT_stimuli/rescaled_final/2071_fw.mp4	0.0	239.44620203971863	
48	219.41548204421997	fix_post	2		12	46.0	2.5	/experiments/AOT/AOT_stimuli/rescaled_final/2071_fw.mp4	0.0	239.56443905830383	0.09998202323913574
49	219.5154640674591	fix_pre	0		120	47.0	2.5	/experiments/AOT/AOT_stimuli/rescaled_final/0523_fw.mp4	0.0	239.66442108154297	1.000241994857788
49	220.5157060623169	movie	1		246	47.0	2.5	/experiments/AOT/AOT_stimuli/rescaled_final/0523_fw.mp4	0.0	240.66466307640076	2.499861001968384
49	220.8987259864807	pulse	1	t		47.0	2.5	/experiments/AOT/AOT_stimuli/rescaled_final/0523_fw.mp4	0.0	241.04768300056458	
49	222.49905395507812	pulse	1	t		47.0	2.5	/experiments/AOT/AOT_stimuli/rescaled_final/0523_fw.mp4	0.0	242.648010969162	
49	223.01556706428528	fix_post	2		12	47.0	2.5	/experiments/AOT/AOT_stimuli/rescaled_final/0523_fw.mp4	0.0	243.16452407836914	0.10003495216369629
50	223.11560201644897	fix_pre	0		119	48.0	2.5	/experiments/AOT/AOT_stimuli/rescaled_final/2105_rv.mp4	0.0	243.26455903053284	0.9916880130767822
50	224.09906601905823	pulse	0	t		48.0	2.5	/experiments/AOT/AOT_stimuli/rescaled_final/2105_rv.mp4	0.0	244.2480230331421	
50	224.10729002952576	movie	1		246	48.0	2.5	/experiments/AOT/AOT_stimuli/rescaled_final/2105_rv.mp4	0.0	244.25624704360962	2.508307933807373
50	225.69861102104187	pulse	1	t		48.0	2.5	/experiments/AOT/AOT_stimuli/rescaled_final/2105_rv.mp4	0.0	245.84756803512573	
50	226.61559796333313	fix_post	2		12	48.0	2.5	/experiments/AOT/AOT_stimuli/rescaled_final/2105_rv.mp4	0.0	246.764554977417	0.09992718696594238
51	226.71552515029907	fix_pre	0		120	49.0	2.5	blank	1.0	246.86448216438293	1.0000228881835938
51	227.29902911186218	pulse	0	t		49.0	2.5	blank	1.0	247.44798612594604	
51	227.71554803848267	movie	1		300	49.0	2.5	blank	1.0	247.86450505256653	2.499979019165039
51	228.89901995658875	pulse	1	t		49.0	2.5	blank	1.0	249.0479769706726	
51	230.2155270576477	fix_post	2		12	49.0	2.5	blank	1.0	250.36448407173157	0.10008907318115234
52	230.31561613082886	fix_pre	0		120	50.0	2.5	/experiments/AOT/AOT_stimuli/rescaled_final/1647_fw.mp4	0.0	250.46457314491272	0.9999439716339111
52	230.49907302856445	pulse	0	t		50.0	2.5	/experiments/AOT/AOT_stimuli/rescaled_final/1647_fw.mp4	0.0	250.64803004264832	
52	231.31556010246277	movie	1		245	50.0	2.5	/experiments/AOT/AOT_stimuli/rescaled_final/1647_fw.mp4	0.0	251.46451711654663	2.499908924102783
52	232.09893107414246	pulse	1	t		50.0	2.5	/experiments/AOT/AOT_stimuli/rescaled_final/1647_fw.mp4	0.0	252.24788808822632	
52	233.69745302200317	pulse	1	t		50.0	2.5	/experiments/AOT/AOT_stimuli/rescaled_final/1647_fw.mp4	0.0	253.84641003608704	
52	233.81546902656555	fix_post	2		12	50.0	2.5	/experiments/AOT/AOT_stimuli/rescaled_final/1647_fw.mp4	0.0	253.9644260406494	0.09999203681945801
53	233.915461063385	fix_pre	0		120	51.0	2.5	/experiments/AOT/AOT_stimuli/rescaled_final/1807_fw.mp4	0.0	254.06441807746887	1.0000700950622559
53	234.91553115844727	movie	1		243	51.0	2.5	/experiments/AOT/AOT_stimuli/rescaled_final/1807_fw.mp4	0.0	255.06448817253113	2.5000548362731934
53	235.2988440990448	pulse	1	t		51.0	2.5	/experiments/AOT/AOT_stimuli/rescaled_final/1807_fw.mp4	0.0	255.44780111312866	
53	236.8989839553833	pulse	1	t		51.0	2.5	/experiments/AOT/AOT_stimuli/rescaled_final/1807_fw.mp4	0.0	257.04794096946716	
53	237.41558599472046	fix_post	2		12	51.0	2.5	/experiments/AOT/AOT_stimuli/rescaled_final/1807_fw.mp4	0.0	257.5645430088043	0.0999460220336914
54	237.51553201675415	fix_pre	0		119	52.0	2.5	/experiments/AOT/AOT_stimuli/rescaled_final/2005_fw.mp4	0.0	257.664489030838	0.991624116897583
54	238.4990041255951	pulse	0	t		52.0	2.5	/experiments/AOT/AOT_stimuli/rescaled_final/2005_fw.mp4	0.0	258.64796113967896	
54	238.50715613365173	movie	1		250	52.0	2.5	/experiments/AOT/AOT_stimuli/rescaled_final/2005_fw.mp4	0.0	258.6561131477356	2.5082318782806396
54	240.09852814674377	pulse	1	t		52.0	2.5	/experiments/AOT/AOT_stimuli/rescaled_final/2005_fw.mp4	0.0	260.24748516082764	
54	241.01538801193237	fix_post	2		12	52.0	2.5	/experiments/AOT/AOT_stimuli/rescaled_final/2005_fw.mp4	0.0	261.16434502601624	0.10010504722595215
55	241.11549305915833	fix_pre	0		120	53.0	2.5	/experiments/AOT/AOT_stimuli/rescaled_final/1968_rv.mp4	0.0	261.2644500732422	1.0000500679016113
55	241.6990189552307	pulse	0	t		53.0	2.5	/experiments/AOT/AOT_stimuli/rescaled_final/1968_rv.mp4	0.0	261.8479759693146	
55	242.11554312705994	movie	1		246	53.0	2.5	/experiments/AOT/AOT_stimuli/rescaled_final/1968_rv.mp4	0.0	262.2645001411438	2.49995493888855
55	243.29896712303162	pulse	1	t		53.0	2.5	/experiments/AOT/AOT_stimuli/rescaled_final/1968_rv.mp4	0.0	263.4479241371155	
55	244.6154980659485	fix_post	2		12	53.0	2.5	/experiments/AOT/AOT_stimuli/rescaled_final/1968_rv.mp4	0.0	264.76445508003235	0.1000208854675293
56	244.71551895141602	fix_pre	0		120	54.0	2.5	/experiments/AOT/AOT_stimuli/rescaled_final/0076_rv.mp4	0.0	264.8644759654999	0.9999921321868896
56	244.89897203445435	pulse	0	t		54.0	2.5	/experiments/AOT/AOT_stimuli/rescaled_final/0076_rv.mp4	0.0	265.0479290485382	
56	245.7155110836029	movie	1		246	54.0	2.5	/experiments/AOT/AOT_stimuli/rescaled_final/0076_rv.mp4	0.0	265.86446809768677	2.5000410079956055
56	246.49900603294373	pulse	1	t		54.0	2.5	/experiments/AOT/AOT_stimuli/rescaled_final/0076_rv.mp4	0.0	266.6479630470276	
56	248.09743213653564	pulse	1	t		54.0	2.5	/experiments/AOT/AOT_stimuli/rescaled_final/0076_rv.mp4	0.0	268.2463891506195	
56	248.2155520915985	fix_post	2		12	54.0	2.5	/experiments/AOT/AOT_stimuli/rescaled_final/0076_rv.mp4	0.0	268.3645091056824	0.09993791580200195
57	248.3154900074005	fix_pre	0		120	55.0	2.5	/experiments/AOT/AOT_stimuli/rescaled_final/1000_fw.mp4	0.0	268.4644470214844	1.000028133392334
57	249.31551814079285	movie	1		247	55.0	2.5	/experiments/AOT/AOT_stimuli/rescaled_final/1000_fw.mp4	0.0	269.4644751548767	2.5
57	249.7000069618225	pulse	1	t		55.0	2.5	/experiments/AOT/AOT_stimuli/rescaled_final/1000_fw.mp4	0.0	269.8489639759064	
57	251.2989161014557	pulse	1	t		55.0	2.5	/experiments/AOT/AOT_stimuli/rescaled_final/1000_fw.mp4	0.0	271.44787311553955	
57	251.81551814079285	fix_post	2		12	55.0	2.5	/experiments/AOT/AOT_stimuli/rescaled_final/1000_fw.mp4	0.0	271.9644751548767	0.09999299049377441
58	251.91551113128662	fix_pre	0		119	56.0	2.5	blank	1.0	272.0644681453705	0.9916279315948486
58	252.8989610671997	pulse	0	t		56.0	2.5	blank	1.0	273.04791808128357	
58	252.90713906288147	movie	1		301	56.0	2.5	blank	1.0	273.05609607696533	2.508404016494751
58	254.4989550113678	pulse	1	t		56.0	2.5	blank	1.0	274.64791202545166	
58	255.41554307937622	fix_post	2		12	56.0	2.5	blank	1.0	275.5645000934601	0.09992289543151855
59	255.51546597480774	fix_pre	0		120	57.0	2.5	/experiments/AOT/AOT_stimuli/rescaled_final/0238_fw.mp4	0.0	275.6644229888916	0.999981164932251
59	256.09897112846375	pulse	0	t		57.0	2.5	/experiments/AOT/AOT_stimuli/rescaled_final/0238_fw.mp4	0.0	276.2479281425476	
59	256.51544713974	movie	1		243	57.0	2.5	/experiments/AOT/AOT_stimuli/rescaled_final/0238_fw.mp4	0.0	276.66440415382385	2.4999828338623047
59	257.6991481781006	pulse	1	t		57.0	2.5	/experiments/AOT/AOT_stimuli/rescaled_final/0238_fw.mp4	0.0	277.84810519218445	
59	259.0154299736023	fix_post	2		12	57.0	2.5	/experiments/AOT/AOT_stimuli/rescaled_final/0238_fw.mp4	0.0	279.16438698768616	0.09998416900634766
60	259.11541414260864	fix_pre	0		120	58.0	2.5	/experiments/AOT/AOT_stimuli/rescaled_final/0273_rv.mp4	0.0	279.2643711566925	1.0001349449157715
60	259.29890608787537	pulse	0	t		58.0	2.5	/experiments/AOT/AOT_stimuli/rescaled_final/0273_rv.mp4	0.0	279.44786310195923	
60	260.1155490875244	movie	1		243	58.0	2.5	/experiments/AOT/AOT_stimuli/rescaled_final/0273_rv.mp4	0.0	280.2645061016083	2.4998350143432617
60	260.8988890647888	pulse	1	t		58.0	2.5	/experiments/AOT/AOT_stimuli/rescaled_final/0273_rv.mp4	0.0	281.0478460788727	
60	262.49727416038513	pulse	1	t		58.0	2.5	/experiments/AOT/AOT_stimuli/rescaled_final/0273_rv.mp4	0.0	282.646231174469	
60	262.6153841018677	fix_post	2		12	58.0	2.5	/experiments/AOT/AOT_stimuli/rescaled_final/0273_rv.mp4	0.0	282.76434111595154	0.0999760627746582
61	262.71536016464233	fix_pre	0		120	59.0	2.5	/experiments/AOT/AOT_stimuli/rescaled_final/1299_fw.mp4	0.0	282.8643171787262	1.0000038146972656
61	263.7153639793396	movie	1		243	59.0	2.5	/experiments/AOT/AOT_stimuli/rescaled_final/1299_fw.mp4	0.0	283.86432099342346	2.5000150203704834
61	264.0984699726105	pulse	1	t		59.0	2.5	/experiments/AOT/AOT_stimuli/rescaled_final/1299_fw.mp4	0.0	284.24742698669434	
61	265.69885206222534	pulse	1	t		59.0	2.5	/experiments/AOT/AOT_stimuli/rescaled_final/1299_fw.mp4	0.0	285.8478090763092	
61	266.2153789997101	fix_post	2		12	59.0	2.5	/experiments/AOT/AOT_stimuli/rescaled_final/1299_fw.mp4	0.0	286.36433601379395	0.09997010231018066
62	266.31534910202026	fix_pre	0		119	60.0	2.5	/experiments/AOT/AOT_stimuli/rescaled_final/0149_rv.mp4	0.0	286.4643061161041	0.9916138648986816
62	267.2988600730896	pulse	0	t		60.0	2.5	/experiments/AOT/AOT_stimuli/rescaled_final/0149_rv.mp4	0.0	287.44781708717346	
62	267.30696296691895	movie	1		245	60.0	2.5	/experiments/AOT/AOT_stimuli/rescaled_final/0149_rv.mp4	0.0	287.4559199810028	2.508439064025879
62	268.8982410430908	pulse	1	t		60.0	2.5	/experiments/AOT/AOT_stimuli/rescaled_final/0149_rv.mp4	0.0	289.0471980571747	
62	269.8154020309448	fix_post	2		12	60.0	2.5	/experiments/AOT/AOT_stimuli/rescaled_final/0149_rv.mp4	0.0	289.9643590450287	0.09994792938232422
63	269.91534996032715	fix_pre	0		120	61.0	2.5	blank	1.0	290.064306974411	0.9999229907989502
63	270.4987909793854	pulse	0	t		61.0	2.5	blank	1.0	290.64774799346924	
63	270.9152729511261	movie	1		300	61.0	2.5	blank	1.0	291.06422996520996	2.5001330375671387
63	272.0989000797272	pulse	1	t		61.0	2.5	blank	1.0	292.24785709381104	
63	273.41540598869324	fix_post	2		12	61.0	2.5	blank	1.0	293.5643630027771	0.09952211380004883
64	273.5149281024933	fix_pre	0		120	62.0	2.5	/experiments/AOT/AOT_stimuli/rescaled_final/0569_rv.mp4	0.0	293.66388511657715	1.0001559257507324
64	273.69840908050537	pulse	0	t		62.0	2.5	/experiments/AOT/AOT_stimuli/rescaled_final/0569_rv.mp4	0.0	293.84736609458923	
64	274.515084028244	movie	1		243	62.0	2.5	/experiments/AOT/AOT_stimuli/rescaled_final/0569_rv.mp4	0.0	294.6640410423279	2.500241994857788
64	275.29903507232666	pulse	1	t		62.0	2.5	/experiments/AOT/AOT_stimuli/rescaled_final/0569_rv.mp4	0.0	295.4479920864105	
64	276.89715003967285	pulse	1	t		62.0	2.5	/experiments/AOT/AOT_stimuli/rescaled_final/0569_rv.mp4	0.0	297.0461070537567	
64	277.0153260231018	fix_post	2		12	62.0	2.5	/experiments/AOT/AOT_stimuli/rescaled_final/0569_rv.mp4	0.0	297.16428303718567	0.10002303123474121
65	277.11534905433655	fix_pre	0		120	63.0	2.5	/experiments/AOT/AOT_stimuli/rescaled_final/1933_rv.mp4	0.0	297.2643060684204	0.9999649524688721
65	278.1153140068054	movie	1		244	63.0	2.5	/experiments/AOT/AOT_stimuli/rescaled_final/1933_rv.mp4	0.0	298.2642710208893	2.5000040531158447
65	278.49879908561707	pulse	1	t		63.0	2.5	/experiments/AOT/AOT_stimuli/rescaled_final/1933_rv.mp4	0.0	298.6477560997009	
65	280.0987591743469	pulse	1	t		63.0	2.5	/experiments/AOT/AOT_stimuli/rescaled_final/1933_rv.mp4	0.0	300.2477161884308	
65	280.61531805992126	fix_post	2		12	63.0	2.5	/experiments/AOT/AOT_stimuli/rescaled_final/1933_rv.mp4	0.0	300.7642750740051	0.09997797012329102
66	280.71529603004456	fix_pre	0		119	64.0	2.5	/experiments/AOT/AOT_stimuli/rescaled_final/1392_rv.mp4	0.0	300.8642530441284	0.9916419982910156
66	281.6988241672516	pulse	0	t		64.0	2.5	/experiments/AOT/AOT_stimuli/rescaled_final/1392_rv.mp4	0.0	301.84778118133545	
66	281.70693802833557	movie	1		246	64.0	2.5	/experiments/AOT/AOT_stimuli/rescaled_final/1392_rv.mp4	0.0	301.85589504241943	2.50833797454834
66	283.2983820438385	pulse	1	t		64.0	2.5	/experiments/AOT/AOT_stimuli/rescaled_final/1392_rv.mp4	0.0	303.44733905792236	
66	284.2152760028839	fix_post	2		12	64.0	2.5	/experiments/AOT/AOT_stimuli/rescaled_final/1392_rv.mp4	0.0	304.3642330169678	0.100067138671875
67	284.3153431415558	fix_pre	0		120	65.0	2.5	/experiments/AOT/AOT_stimuli/rescaled_final/0461_fw.mp4	0.0	304.46430015563965	0.9998779296875
67	284.89873814582825	pulse	0	t		65.0	2.5	/experiments/AOT/AOT_stimuli/rescaled_final/0461_fw.mp4	0.0	305.0476951599121	
67	285.3152210712433	movie	1		247	65.0	2.5	/experiments/AOT/AOT_stimuli/rescaled_final/0461_fw.mp4	0.0	305.46417808532715	2.5000460147857666
67	286.4987840652466	pulse	1	t		65.0	2.5	/experiments/AOT/AOT_stimuli/rescaled_final/0461_fw.mp4	0.0	306.64774107933044	
67	287.81526708602905	fix_post	2		12	65.0	2.5	/experiments/AOT/AOT_stimuli/rescaled_final/0461_fw.mp4	0.0	307.9642241001129	0.09997391700744629
68	287.9152410030365	fix_pre	0		120	66.0	2.5	/experiments/AOT/AOT_stimuli/rescaled_final/0810_rv.mp4	0.0	308.06419801712036	0.9999411106109619
68	288.0987460613251	pulse	0	t		66.0	2.5	/experiments/AOT/AOT_stimuli/rescaled_final/0810_rv.mp4	0.0	308.24770307540894	
68	288.91518211364746	movie	1		245	66.0	2.5	/experiments/AOT/AOT_stimuli/rescaled_final/0810_rv.mp4	0.0	309.0641391277313	2.50007700920105
68	289.6987690925598	pulse	1	t		66.0	2.5	/experiments/AOT/AOT_stimuli/rescaled_final/0810_rv.mp4	0.0	309.8477261066437	
68	291.29704904556274	pulse	1	t		66.0	2.5	/experiments/AOT/AOT_stimuli/rescaled_final/0810_rv.mp4	0.0	311.4460060596466	
68	291.4152591228485	fix_post	2		12	66.0	2.5	/experiments/AOT/AOT_stimuli/rescaled_final/0810_rv.mp4	0.0	311.5642161369324	0.09993290901184082
69	291.51519203186035	fix_pre	0		120	67.0	2.5	/experiments/AOT/AOT_stimuli/rescaled_final/1392_rv.mp4	0.0	311.6641490459442	1.0000760555267334
69	292.5152680873871	movie	1		246	67.0	2.5	/experiments/AOT/AOT_stimuli/rescaled_final/1392_rv.mp4	0.0	312.66422510147095	2.49992299079895
69	292.8997960090637	pulse	1	t		67.0	2.5	/experiments/AOT/AOT_stimuli/rescaled_final/1392_rv.mp4	0.0	313.0487530231476	
69	294.49872517585754	pulse	1	t		67.0	2.5	/experiments/AOT/AOT_stimuli/rescaled_final/1392_rv.mp4	0.0	314.6476821899414	
69	295.01519107818604	fix_post	2		12	67.0	2.5	/experiments/AOT/AOT_stimuli/rescaled_final/1392_rv.mp4	0.0	315.1641480922699	0.0999751091003418
70	295.1151661872864	fix_pre	0		119	68.0	2.5	/experiments/AOT/AOT_stimuli/rescaled_final/1548_rv.mp4	0.0	315.26412320137024	0.9916927814483643
70	296.09872817993164	pulse	0	t		68.0	2.5	/experiments/AOT/AOT_stimuli/rescaled_final/1548_rv.mp4	0.0	316.2476851940155	
70	296.10685896873474	movie	1		246	68.0	2.5	/experiments/AOT/AOT_stimuli/rescaled_final/1548_rv.mp4	0.0	316.2558159828186	2.5083870887756348
70	297.69853615760803	pulse	1	t		68.0	2.5	/experiments/AOT/AOT_stimuli/rescaled_final/1548_rv.mp4	0.0	317.8474931716919	
70	298.6152460575104	fix_post	2		12	68.0	2.5	/experiments/AOT/AOT_stimuli/rescaled_final/1548_rv.mp4	0.0	318.76420307159424	0.09996509552001953
71	298.7152111530304	fix_pre	0		120	69.0	2.5	/experiments/AOT/AOT_stimuli/rescaled_final/0195_rv.mp4	0.0	318.86416816711426	0.9999489784240723
71	299.29874300956726	pulse	0	t		69.0	2.5	/experiments/AOT/AOT_stimuli/rescaled_final/0195_rv.mp4	0.0	319.4477000236511	
71	299.71516013145447	movie	1		244	69.0	2.5	/experiments/AOT/AOT_stimuli/rescaled_final/0195_rv.mp4	0.0	319.86411714553833	2.5000269412994385
71	300.8988151550293	pulse	1	t		69.0	2.5	/experiments/AOT/AOT_stimuli/rescaled_final/0195_rv.mp4	0.0	321.04777216911316	
71	302.2151870727539	fix_post	2		12	69.0	2.5	/experiments/AOT/AOT_stimuli/rescaled_final/0195_rv.mp4	0.0	322.36414408683777	0.09998798370361328
72	302.3151750564575	fix_pre	0		120	70.0	2.5	blank	1.0	322.4641320705414	1.0000669956207275
72	302.49868297576904	pulse	0	t		70.0	2.5	blank	1.0	322.6476399898529	
72	303.31524205207825	movie	1		300	70.0	2.5	blank	1.0	323.4641990661621	2.4999709129333496
72	304.09872913360596	pulse	1	t		70.0	2.5	blank	1.0	324.2476861476898	
72	305.6986219882965	pulse	1	t		70.0	2.5	blank	1.0	325.84757900238037	
72	305.8152129650116	fix_post	2		12	70.0	2.5	blank	1.0	325.96416997909546	0.10003018379211426
73	305.9152431488037	fix_pre	0		120	71.0	2.5	/experiments/AOT/AOT_stimuli/rescaled_final/1615_fw.mp4	0.0	326.0642001628876	0.9999020099639893
73	306.9151451587677	movie	1		246	71.0	2.5	/experiments/AOT/AOT_stimuli/rescaled_final/1615_fw.mp4	0.0	327.06410217285156	2.500067949295044
73	307.2983810901642	pulse	1	t		71.0	2.5	/experiments/AOT/AOT_stimuli/rescaled_final/1615_fw.mp4	0.0	327.44733810424805	
73	308.8986451625824	pulse	1	t		71.0	2.5	/experiments/AOT/AOT_stimuli/rescaled_final/1615_fw.mp4	0.0	329.04760217666626	
73	309.41521310806274	fix_post	2		12	71.0	2.5	/experiments/AOT/AOT_stimuli/rescaled_final/1615_fw.mp4	0.0	329.5641701221466	0.09994387626647949
74	309.5151569843292	fix_pre	0		119	72.0	2.5	/experiments/AOT/AOT_stimuli/rescaled_final/1111_fw.mp4	0.0	329.6641139984131	0.9916510581970215
74	310.498615026474	pulse	0	t		72.0	2.5	/experiments/AOT/AOT_stimuli/rescaled_final/1111_fw.mp4	0.0	330.64757204055786	
74	310.50680804252625	movie	1		246	72.0	2.5	/experiments/AOT/AOT_stimuli/rescaled_final/1111_fw.mp4	0.0	330.6557650566101	2.508384943008423
74	312.09826612472534	pulse	1	t		72.0	2.5	/experiments/AOT/AOT_stimuli/rescaled_final/1111_fw.mp4	0.0	332.2472231388092	
74	313.01519298553467	fix_post	2		12	72.0	2.5	/experiments/AOT/AOT_stimuli/rescaled_final/1111_fw.mp4	0.0	333.16414999961853	0.099884033203125
75	313.1150770187378	fix_pre	0		120	73.0	2.5	/experiments/AOT/AOT_stimuli/rescaled_final/0001_rv.mp4	0.0	333.26403403282166	1.000093936920166
75	313.6986491680145	pulse	0	t		73.0	2.5	/experiments/AOT/AOT_stimuli/rescaled_final/0001_rv.mp4	0.0	333.8476061820984	
75	314.11517095565796	movie	1		244	73.0	2.5	/experiments/AOT/AOT_stimuli/rescaled_final/0001_rv.mp4	0.0	334.2641279697418	2.500005006790161
75	315.2986669540405	pulse	1	t		73.0	2.5	/experiments/AOT/AOT_stimuli/rescaled_final/0001_rv.mp4	0.0	335.4476239681244	
75	316.6151759624481	fix_post	2		12	73.0	2.5	/experiments/AOT/AOT_stimuli/rescaled_final/0001_rv.mp4	0.0	336.764132976532	0.0999290943145752
76	316.7151050567627	fix_pre	0		120	74.0	2.5	/experiments/AOT/AOT_stimuli/rescaled_final/1663_fw.mp4	0.0	336.86406207084656	1.0000030994415283
76	316.8985741138458	pulse	0	t		74.0	2.5	/experiments/AOT/AOT_stimuli/rescaled_final/1663_fw.mp4	0.0	337.0475311279297	
76	317.7151081562042	movie	1		243	74.0	2.5	/experiments/AOT/AOT_stimuli/rescaled_final/1663_fw.mp4	0.0	337.8640651702881	2.5000319480895996
76	318.49851512908936	pulse	1	t		74.0	2.5	/experiments/AOT/AOT_stimuli/rescaled_final/1663_fw.mp4	0.0	338.6474721431732	
76	320.0972189903259	pulse	1	t		74.0	2.5	/experiments/AOT/AOT_stimuli/rescaled_final/1663_fw.mp4	0.0	340.2461760044098	
76	320.2151401042938	fix_post	2		12	74.0	2.5	/experiments/AOT/AOT_stimuli/rescaled_final/1663_fw.mp4	0.0	340.3640971183777	0.0999150276184082
77	320.31505513191223	fix_pre	0		120	75.0	2.5	/experiments/AOT/AOT_stimuli/rescaled_final/2043_rv.mp4	0.0	340.4640121459961	1.0000648498535156
77	321.31511998176575	movie	1		245	75.0	2.5	/experiments/AOT/AOT_stimuli/rescaled_final/2043_rv.mp4	0.0	341.4640769958496	2.499994993209839
77	321.6982879638672	pulse	1	t		75.0	2.5	/experiments/AOT/AOT_stimuli/rescaled_final/2043_rv.mp4	0.0	341.84724497795105	
77	323.29856395721436	pulse	1	t		75.0	2.5	/experiments/AOT/AOT_stimuli/rescaled_final/2043_rv.mp4	0.0	343.4475209712982	
77	323.8151149749756	fix_post	2		12	75.0	2.5	/experiments/AOT/AOT_stimuli/rescaled_final/2043_rv.mp4	0.0	343.96407198905945	0.0999290943145752
78	323.91504406929016	fix_pre	0		119	76.0	2.5	blank	1.0	344.064001083374	0.9916210174560547
78	324.89867210388184	pulse	0	t		76.0	2.5	blank	1.0	345.0476291179657	
78	324.9066650867462	movie	1		301	76.0	2.5	blank	1.0	345.0556221008301	2.5084760189056396
78	326.49865198135376	pulse	1	t		76.0	2.5	blank	1.0	346.6476089954376	
78	327.41514110565186	fix_post	2		12	76.0	2.5	blank	1.0	347.5640981197357	0.0999140739440918
79	327.51505517959595	fix_pre	0		120	77.0	2.5	/experiments/AOT/AOT_stimuli/rescaled_final/0697_fw.mp4	0.0	347.6640121936798	0.9995758533477783
79	328.0985550880432	pulse	0	t		77.0	2.5	/experiments/AOT/AOT_stimuli/rescaled_final/0697_fw.mp4	0.0	348.2475121021271	
79	328.5146310329437	movie	1		245	77.0	2.5	/experiments/AOT/AOT_stimuli/rescaled_final/0697_fw.mp4	0.0	348.6635880470276	2.5006580352783203
79	329.698203086853	pulse	1	t		77.0	2.5	/experiments/AOT/AOT_stimuli/rescaled_final/0697_fw.mp4	0.0	349.8471601009369	
79	331.01528906822205	fix_post	2		12	77.0	2.5	/experiments/AOT/AOT_stimuli/rescaled_final/0697_fw.mp4	0.0	351.1642460823059	0.09959292411804199
80	331.1148819923401	fix_pre	0		120	78.0	2.5	/experiments/AOT/AOT_stimuli/rescaled_final/1609_fw.mp4	0.0	351.26383900642395	1.0002319812774658
80	331.29883003234863	pulse	0	t		78.0	2.5	/experiments/AOT/AOT_stimuli/rescaled_final/1609_fw.mp4	0.0	351.4477870464325	
80	332.11511397361755	movie	1		244	78.0	2.5	/experiments/AOT/AOT_stimuli/rescaled_final/1609_fw.mp4	0.0	352.2640709877014	2.5000181198120117
80	332.89848613739014	pulse	1	t		78.0	2.5	/experiments/AOT/AOT_stimuli/rescaled_final/1609_fw.mp4	0.0	353.047443151474	
80	334.4969630241394	pulse	1	t		78.0	2.5	/experiments/AOT/AOT_stimuli/rescaled_final/1609_fw.mp4	0.0	354.64592003822327	
80	334.61513209342957	fix_post	2		12	78.0	2.5	/experiments/AOT/AOT_stimuli/rescaled_final/1609_fw.mp4	0.0	354.7640891075134	0.10001206398010254
81	334.71514415740967	fix_pre	0		120	79.0	2.5	/experiments/AOT/AOT_stimuli/rescaled_final/1849_fw.mp4	0.0	354.86410117149353	0.9999229907989502
81	335.7150671482086	movie	1		244	79.0	2.5	/experiments/AOT/AOT_stimuli/rescaled_final/1849_fw.mp4	0.0	355.8640241622925	2.499943971633911
81	336.0985040664673	pulse	1	t		79.0	2.5	/experiments/AOT/AOT_stimuli/rescaled_final/1849_fw.mp4	0.0	356.24746108055115	
81	337.69848895072937	pulse	1	t		79.0	2.5	/experiments/AOT/AOT_stimuli/rescaled_final/1849_fw.mp4	0.0	357.84744596481323	
81	338.21501111984253	fix_post	2		12	79.0	2.5	/experiments/AOT/AOT_stimuli/rescaled_final/1849_fw.mp4	0.0	358.3639681339264	0.09996986389160156
82	338.31498098373413	fix_pre	0		119	80.0	2.5	/experiments/AOT/AOT_stimuli/rescaled_final/0260_rv.mp4	0.0	358.463937997818	0.9916560649871826
82	339.2984821796417	pulse	0	t		80.0	2.5	/experiments/AOT/AOT_stimuli/rescaled_final/0260_rv.mp4	0.0	359.4474391937256	
82	339.3066370487213	movie	1		247	80.0	2.5	/experiments/AOT/AOT_stimuli/rescaled_final/0260_rv.mp4	0.0	359.4555940628052	2.5083730220794678
82	340.89829206466675	pulse	1	t		80.0	2.5	/experiments/AOT/AOT_stimuli/rescaled_final/0260_rv.mp4	0.0	361.0472490787506	
82	341.8150100708008	fix_post	2		12	80.0	2.5	/experiments/AOT/AOT_stimuli/rescaled_final/0260_rv.mp4	0.0	361.96396708488464	0.09994196891784668
83	341.9149520397186	fix_pre	0		120	81.0	2.5	/experiments/AOT/AOT_stimuli/rescaled_final/1931_rv.mp4	0.0	362.0639090538025	1.0000579357147217
83	342.49838304519653	pulse	0	t		81.0	2.5	/experiments/AOT/AOT_stimuli/rescaled_final/1931_rv.mp4	0.0	362.6473400592804	
83	342.91500997543335	movie	1		244	81.0	2.5	/experiments/AOT/AOT_stimuli/rescaled_final/1931_rv.mp4	0.0	363.0639669895172	2.4998950958251953
83	344.09854102134705	pulse	1	t		81.0	2.5	/experiments/AOT/AOT_stimuli/rescaled_final/1931_rv.mp4	0.0	364.2474980354309	
83	345.41490507125854	fix_post	2		12	81.0	2.5	/experiments/AOT/AOT_stimuli/rescaled_final/1931_rv.mp4	0.0	365.5638620853424	0.10002994537353516
84	345.5149350166321	fix_pre	0		120	82.0	2.5	/experiments/AOT/AOT_stimuli/rescaled_final/1111_rv.mp4	0.0	365.66389203071594	0.9999871253967285
84	345.69857001304626	pulse	0	t		82.0	2.5	/experiments/AOT/AOT_stimuli/rescaled_final/1111_rv.mp4	0.0	365.8475270271301	
84	346.5149221420288	movie	1		243	82.0	2.5	/experiments/AOT/AOT_stimuli/rescaled_final/1111_rv.mp4	0.0	366.66387915611267	2.5000059604644775
84	347.29837799072266	pulse	1	t		82.0	2.5	/experiments/AOT/AOT_stimuli/rescaled_final/1111_rv.mp4	0.0	367.4473350048065	
84	348.8971929550171	pulse	1	t		82.0	2.5	/experiments/AOT/AOT_stimuli/rescaled_final/1111_rv.mp4	0.0	369.04614996910095	
84	349.0149281024933	fix_post	2		12	82.0	2.5	/experiments/AOT/AOT_stimuli/rescaled_final/1111_rv.mp4	0.0	369.16388511657715	0.09999489784240723
85	349.1149230003357	fix_pre	0		120	83.0	2.5	blank	1.0	369.26388001441956	1.0000321865081787
85	350.1149551868439	movie	1		300	83.0	2.5	blank	1.0	370.26391220092773	2.4999618530273438
85	350.49847412109375	pulse	1	t		83.0	2.5	blank	1.0	370.6474311351776	
85	352.0984351634979	pulse	1	t		83.0	2.5	blank	1.0	372.2473921775818	
85	352.6149170398712	fix_post	2		12	83.0	2.5	blank	1.0	372.7638740539551	0.0999600887298584
87	352.7148771286011	stim	0		1716					372.86383414268494	14.30001187324524
87	353.69849705696106	pulse	0	t						373.8474540710449	
87	355.29838395118713	pulse	0	t						375.447340965271	
87	356.8983299732208	pulse	0	t						377.0472869873047	
87	358.49841713905334	pulse	0	t						378.6473741531372	
87	360.0984501838684	pulse	0	t						380.24740719795227	
87	361.6983470916748	pulse	0	t						381.84730410575867	
87	363.29836797714233	pulse	0	t						383.4473249912262	
87	364.8983919620514	pulse	0	t						385.04734897613525	
87	366.4983160495758	pulse	0	t						386.64727306365967	
