trial_nr	onset	event_type	phase	response	nr_frames	movie_index	movie_duration	movie_file	blank	onset_abs	duration
0	0.2083730697631836	stim	0		79					41.25709819793701	0.6582038402557373
0	0.8587710857391357	response	0	space						41.907496213912964	
1	0.8665769100189209	stim	0		4507					41.91530203819275	37.57491707801819
1	38.43182396888733	pulse	0	t						79.48054909706116	
1	38.44149398803711	stim	1		1715					79.49021911621094	14.29959511756897
1	40.02266502380371	pulse	1	t						81.07139015197754	
1	41.62286400794983	pulse	1	t						82.67158913612366	
1	43.22306990623474	pulse	1	t						84.27179503440857	
1	44.82332897186279	pulse	1	t						85.87205410003662	
1	46.423579931259155	pulse	1	t						87.47230505943298	
1	48.023746967315674	pulse	1	t						89.0724720954895	
1	49.62410807609558	pulse	1	t						90.67283320426941	
1	51.22432589530945	pulse	1	t						92.27305102348328	
2	52.74108910560608	fix_pre	0		11	0.0	2.5	/experiments/knapen_AOT/AOT_stimuli/rescaled_final/1258_fw.mp4	0.0	93.78981423377991	0.09161591529846191
2	52.824764013290405	pulse	0	t		0.0	2.5	/experiments/knapen_AOT/AOT_stimuli/rescaled_final/1258_fw.mp4	0.0	93.87348914146423	
2	52.83270502090454	movie	1		243	0.0	2.5	/experiments/knapen_AOT/AOT_stimuli/rescaled_final/1258_fw.mp4	0.0	93.88143014907837	2.508725881576538
2	54.42544388771057	pulse	1	t		0.0	2.5	/experiments/knapen_AOT/AOT_stimuli/rescaled_final/1258_fw.mp4	0.0	95.4741690158844	
2	55.34143090248108	fix_post	2		12	0.0	2.5	/experiments/knapen_AOT/AOT_stimuli/rescaled_final/1258_fw.mp4	0.0	96.39015603065491	0.10004210472106934
3	55.44147300720215	fix_pre	0		120	1.0	2.5	/experiments/knapen_AOT/AOT_stimuli/rescaled_final/1326_fw.mp4	0.0	96.49019813537598	1.0001299381256104
3	56.02509307861328	pulse	0	t		1.0	2.5	/experiments/knapen_AOT/AOT_stimuli/rescaled_final/1326_fw.mp4	0.0	97.07381820678711	
3	56.44160294532776	movie	1		242	1.0	2.5	/experiments/knapen_AOT/AOT_stimuli/rescaled_final/1326_fw.mp4	0.0	97.49032807350159	2.500493049621582
3	57.625426054000854	pulse	1	t		1.0	2.5	/experiments/knapen_AOT/AOT_stimuli/rescaled_final/1326_fw.mp4	0.0	98.67415118217468	
3	58.94209599494934	fix_post	2		12	1.0	2.5	/experiments/knapen_AOT/AOT_stimuli/rescaled_final/1326_fw.mp4	0.0	99.99082112312317	0.09987306594848633
4	59.04196906089783	fix_pre	0		120	2.0	2.5	/experiments/knapen_AOT/AOT_stimuli/rescaled_final/1465_fw.mp4	0.0	100.09069418907166	1.000175952911377
4	59.22557306289673	pulse	0	t		2.0	2.5	/experiments/knapen_AOT/AOT_stimuli/rescaled_final/1465_fw.mp4	0.0	100.27429819107056	
4	60.042145013809204	movie	1		243	2.0	2.5	/experiments/knapen_AOT/AOT_stimuli/rescaled_final/1465_fw.mp4	0.0	101.09087014198303	2.5003390312194824
4	60.8257360458374	pulse	1	t		2.0	2.5	/experiments/knapen_AOT/AOT_stimuli/rescaled_final/1465_fw.mp4	0.0	101.87446117401123	
4	62.425771951675415	pulse	1	t		2.0	2.5	/experiments/knapen_AOT/AOT_stimuli/rescaled_final/1465_fw.mp4	0.0	103.47449707984924	
4	62.54248404502869	fix_post	2		12	2.0	2.5	/experiments/knapen_AOT/AOT_stimuli/rescaled_final/1465_fw.mp4	0.0	103.59120917320251	0.10004305839538574
5	62.64252710342407	fix_pre	0		120	3.0	2.5	/experiments/knapen_AOT/AOT_stimuli/rescaled_final/1486_fw.mp4	0.0	103.6912522315979	1.0001239776611328
5	63.642651081085205	movie	1		242	3.0	2.5	/experiments/knapen_AOT/AOT_stimuli/rescaled_final/1486_fw.mp4	0.0	104.69137620925903	2.4920578002929688
5	64.02744698524475	pulse	1	t		3.0	2.5	/experiments/knapen_AOT/AOT_stimuli/rescaled_final/1486_fw.mp4	0.0	105.07617211341858	
5	65.62656497955322	pulse	1	t		3.0	2.5	/experiments/knapen_AOT/AOT_stimuli/rescaled_final/1486_fw.mp4	0.0	106.67529010772705	
5	66.13470888137817	fix_post	2		13	3.0	2.5	/experiments/knapen_AOT/AOT_stimuli/rescaled_final/1486_fw.mp4	0.0	107.183434009552	0.10836505889892578
6	66.2430739402771	fix_pre	0		119	4.0	2.5	/experiments/knapen_AOT/AOT_stimuli/rescaled_final/1486_rv.mp4	0.0	107.29179906845093	0.991832971572876
6	67.22666311264038	pulse	0	t		4.0	2.5	/experiments/knapen_AOT/AOT_stimuli/rescaled_final/1486_rv.mp4	0.0	108.27538824081421	
6	67.23490691184998	movie	1		243	4.0	2.5	/experiments/knapen_AOT/AOT_stimuli/rescaled_final/1486_rv.mp4	0.0	108.2836320400238	2.5086421966552734
6	68.8275990486145	pulse	1	t		4.0	2.5	/experiments/knapen_AOT/AOT_stimuli/rescaled_final/1486_rv.mp4	0.0	109.87632417678833	
6	69.74354910850525	fix_post	2		12	4.0	2.5	/experiments/knapen_AOT/AOT_stimuli/rescaled_final/1486_rv.mp4	0.0	110.79227423667908	0.1000528335571289
7	69.84360194206238	fix_pre	0		120	5.0	2.5	/experiments/knapen_AOT/AOT_stimuli/rescaled_final/0334_fw.mp4	0.0	110.8923270702362	1.0001411437988281
7	70.42735290527344	pulse	0	t		5.0	2.5	/experiments/knapen_AOT/AOT_stimuli/rescaled_final/0334_fw.mp4	0.0	111.47607803344727	
7	70.8437430858612	movie	1		244	5.0	2.5	/experiments/knapen_AOT/AOT_stimuli/rescaled_final/0334_fw.mp4	0.0	111.89246821403503	2.50040602684021
7	72.02759909629822	pulse	1	t		5.0	2.5	/experiments/knapen_AOT/AOT_stimuli/rescaled_final/0334_fw.mp4	0.0	113.07632422447205	
7	73.34414911270142	fix_post	2		12	5.0	2.5	/experiments/knapen_AOT/AOT_stimuli/rescaled_final/0334_fw.mp4	0.0	114.39287424087524	0.10001587867736816
8	73.44416499137878	fix_pre	0		120	6.0	2.5	/experiments/knapen_AOT/AOT_stimuli/rescaled_final/1672_fw.mp4	0.0	114.49289011955261	1.0002059936523438
8	73.62768292427063	pulse	0	t		6.0	2.5	/experiments/knapen_AOT/AOT_stimuli/rescaled_final/1672_fw.mp4	0.0	114.67640805244446	
8	74.44437098503113	movie	1		242	6.0	2.5	/experiments/knapen_AOT/AOT_stimuli/rescaled_final/1672_fw.mp4	0.0	115.49309611320496	2.5003139972686768
8	75.22782897949219	pulse	1	t		6.0	2.5	/experiments/knapen_AOT/AOT_stimuli/rescaled_final/1672_fw.mp4	0.0	116.27655410766602	
8	76.82796692848206	pulse	1	t		6.0	2.5	/experiments/knapen_AOT/AOT_stimuli/rescaled_final/1672_fw.mp4	0.0	117.87669205665588	
8	76.9446849822998	fix_post	2		10	6.0	2.5	/experiments/knapen_AOT/AOT_stimuli/rescaled_final/1672_fw.mp4	0.0	117.99341011047363	0.09997797012329102
9	77.0446629524231	fix_pre	0		119	7.0	2.5	blank	1.0	118.09338808059692	0.9918251037597656
9	78.03648805618286	movie	1		300	7.0	2.5	blank	1.0	119.08521318435669	2.5003979206085205
9	78.42847108840942	pulse	1	t		7.0	2.5	blank	1.0	119.47719621658325	
9	80.02117395401001	pulse	1	t		7.0	2.5	blank	1.0	121.06989908218384	
9	80.53688597679138	fix_post	2		12	7.0	2.5	blank	1.0	121.58561110496521	0.10006308555603027
10	80.63694906234741	fix_pre	0		120	8.0	2.5	/experiments/knapen_AOT/AOT_stimuli/rescaled_final/0660_rv.mp4	0.0	121.68567419052124	1.0000648498535156
10	81.62135100364685	pulse	0	t		8.0	2.5	/experiments/knapen_AOT/AOT_stimuli/rescaled_final/0660_rv.mp4	0.0	122.67007613182068	
10	81.63701391220093	movie	1		243	8.0	2.5	/experiments/knapen_AOT/AOT_stimuli/rescaled_final/0660_rv.mp4	0.0	122.68573904037476	2.508826971054077
10	83.22959303855896	pulse	1	t		8.0	2.5	/experiments/knapen_AOT/AOT_stimuli/rescaled_final/0660_rv.mp4	0.0	124.27831816673279	
10	84.145840883255	fix_post	2		12	8.0	2.5	/experiments/knapen_AOT/AOT_stimuli/rescaled_final/0660_rv.mp4	0.0	125.19456601142883	0.09991312026977539
11	84.24575400352478	fix_pre	0		120	9.0	2.5	/experiments/knapen_AOT/AOT_stimuli/rescaled_final/1273_rv.mp4	0.0	125.29447913169861	1.0001239776611328
11	84.82187104225159	pulse	0	t		9.0	2.5	/experiments/knapen_AOT/AOT_stimuli/rescaled_final/1273_rv.mp4	0.0	125.87059617042542	
11	85.24587798118591	movie	1		244	9.0	2.5	/experiments/knapen_AOT/AOT_stimuli/rescaled_final/1273_rv.mp4	0.0	126.29460310935974	2.5004079341888428
11	86.42179799079895	pulse	1	t		9.0	2.5	/experiments/knapen_AOT/AOT_stimuli/rescaled_final/1273_rv.mp4	0.0	127.47052311897278	
11	87.74628591537476	fix_post	2		12	9.0	2.5	/experiments/knapen_AOT/AOT_stimuli/rescaled_final/1273_rv.mp4	0.0	128.79501104354858	0.10001611709594727
12	87.8463020324707	fix_pre	0		120	10.0	2.5	/experiments/knapen_AOT/AOT_stimuli/rescaled_final/1090_rv.mp4	0.0	128.89502716064453	1.0001349449157715
12	88.02152800559998	pulse	0	t		10.0	2.5	/experiments/knapen_AOT/AOT_stimuli/rescaled_final/1090_rv.mp4	0.0	129.0702531337738	
12	88.84643697738647	movie	1		242	10.0	2.5	/experiments/knapen_AOT/AOT_stimuli/rescaled_final/1090_rv.mp4	0.0	129.8951621055603	2.492110013961792
12	89.62164902687073	pulse	1	t		10.0	2.5	/experiments/knapen_AOT/AOT_stimuli/rescaled_final/1090_rv.mp4	0.0	130.67037415504456	
12	91.22192096710205	pulse	1	t		10.0	2.5	/experiments/knapen_AOT/AOT_stimuli/rescaled_final/1090_rv.mp4	0.0	132.27064609527588	
12	91.33854699134827	fix_post	2		12	10.0	2.5	/experiments/knapen_AOT/AOT_stimuli/rescaled_final/1090_rv.mp4	0.0	132.3872721195221	0.09993290901184082
13	91.43847990036011	fix_pre	0		120	11.0	2.5	/experiments/knapen_AOT/AOT_stimuli/rescaled_final/0557_rv.mp4	0.0	132.48720502853394	1.0001192092895508
13	92.43859910964966	movie	1		242	11.0	2.5	/experiments/knapen_AOT/AOT_stimuli/rescaled_final/0557_rv.mp4	0.0	133.4873242378235	2.500598907470703
13	92.82356905937195	pulse	1	t		11.0	2.5	/experiments/knapen_AOT/AOT_stimuli/rescaled_final/0557_rv.mp4	0.0	133.87229418754578	
13	94.42252898216248	pulse	1	t		11.0	2.5	/experiments/knapen_AOT/AOT_stimuli/rescaled_final/0557_rv.mp4	0.0	135.4712541103363	
13	94.93919801712036	fix_post	2		12	11.0	2.5	/experiments/knapen_AOT/AOT_stimuli/rescaled_final/0557_rv.mp4	0.0	135.9879231452942	0.09993505477905273
14	95.03913307189941	fix_pre	0		119	12.0	2.5	/experiments/knapen_AOT/AOT_stimuli/rescaled_final/0695_fw.mp4	0.0	136.08785820007324	0.9916729927062988
14	96.02267909049988	pulse	0	t		12.0	2.5	/experiments/knapen_AOT/AOT_stimuli/rescaled_final/0695_fw.mp4	0.0	137.0714042186737	
14	96.03080606460571	movie	1		244	12.0	2.5	/experiments/knapen_AOT/AOT_stimuli/rescaled_final/0695_fw.mp4	0.0	137.07953119277954	2.5087249279022217
14	97.62367391586304	pulse	1	t		12.0	2.5	/experiments/knapen_AOT/AOT_stimuli/rescaled_final/0695_fw.mp4	0.0	138.67239904403687	
14	98.53953099250793	fix_post	2		12	12.0	2.5	/experiments/knapen_AOT/AOT_stimuli/rescaled_final/0695_fw.mp4	0.0	139.58825612068176	0.10002303123474121
15	98.63955402374268	fix_pre	0		120	13.0	2.5	/experiments/knapen_AOT/AOT_stimuli/rescaled_final/2002_rv.mp4	0.0	139.6882791519165	1.0001258850097656
15	99.22319102287292	pulse	0	t		13.0	2.5	/experiments/knapen_AOT/AOT_stimuli/rescaled_final/2002_rv.mp4	0.0	140.27191615104675	
15	99.63967990875244	movie	1		243	13.0	2.5	/experiments/knapen_AOT/AOT_stimuli/rescaled_final/2002_rv.mp4	0.0	140.68840503692627	2.5004801750183105
15	100.82350301742554	pulse	1	t		13.0	2.5	/experiments/knapen_AOT/AOT_stimuli/rescaled_final/2002_rv.mp4	0.0	141.87222814559937	
15	102.14016008377075	fix_post	2		12	13.0	2.5	/experiments/knapen_AOT/AOT_stimuli/rescaled_final/2002_rv.mp4	0.0	143.18888521194458	0.09993195533752441
16	102.24009203910828	fix_pre	0		120	14.0	2.5	blank	1.0	143.2888171672821	1.0001459121704102
16	102.4237151145935	pulse	0	t		14.0	2.5	blank	1.0	143.47244024276733	
16	103.24023795127869	movie	1		300	14.0	2.5	blank	1.0	144.28896307945251	2.5003621578216553
16	104.0238881111145	pulse	1	t		14.0	2.5	blank	1.0	145.07261323928833	
16	105.62414193153381	pulse	1	t		14.0	2.5	blank	1.0	146.67286705970764	
16	105.74060010910034	fix_post	2		12	14.0	2.5	blank	1.0	146.78932523727417	0.10001897811889648
17	105.84061908721924	fix_pre	0		120	15.0	2.5	/experiments/knapen_AOT/AOT_stimuli/rescaled_final/0748_fw.mp4	0.0	146.88934421539307	1.000199794769287
17	106.84081888198853	movie	1		243	15.0	2.5	/experiments/knapen_AOT/AOT_stimuli/rescaled_final/0748_fw.mp4	0.0	147.88954401016235	2.4920430183410645
17	107.22495198249817	pulse	1	t		15.0	2.5	/experiments/knapen_AOT/AOT_stimuli/rescaled_final/0748_fw.mp4	0.0	148.273677110672	
17	108.82458209991455	pulse	1	t		15.0	2.5	/experiments/knapen_AOT/AOT_stimuli/rescaled_final/0748_fw.mp4	0.0	149.87330722808838	
17	109.33286190032959	fix_post	2		12	15.0	2.5	/experiments/knapen_AOT/AOT_stimuli/rescaled_final/0748_fw.mp4	0.0	150.38158702850342	0.09995508193969727
18	109.43281698226929	fix_pre	0		120	16.0	2.5	/experiments/knapen_AOT/AOT_stimuli/rescaled_final/1143_rv.mp4	0.0	150.48154211044312	1.000135898590088
18	110.4247739315033	pulse	0	t		16.0	2.5	/experiments/knapen_AOT/AOT_stimuli/rescaled_final/1143_rv.mp4	0.0	151.47349905967712	
18	110.43295288085938	movie	1		243	16.0	2.5	/experiments/knapen_AOT/AOT_stimuli/rescaled_final/1143_rv.mp4	0.0	151.4816780090332	2.5087571144104004
18	112.02649903297424	pulse	1	t		16.0	2.5	/experiments/knapen_AOT/AOT_stimuli/rescaled_final/1143_rv.mp4	0.0	153.07522416114807	
18	112.94170999526978	fix_post	2		12	16.0	2.5	/experiments/knapen_AOT/AOT_stimuli/rescaled_final/1143_rv.mp4	0.0	153.9904351234436	0.1000359058380127
19	113.04174590110779	fix_pre	0		120	17.0	2.5	/experiments/knapen_AOT/AOT_stimuli/rescaled_final/0507_rv.mp4	0.0	154.09047102928162	1.0001451969146729
19	113.62526798248291	pulse	0	t		17.0	2.5	/experiments/knapen_AOT/AOT_stimuli/rescaled_final/0507_rv.mp4	0.0	154.67399311065674	
19	114.04189109802246	movie	1		242	17.0	2.5	/experiments/knapen_AOT/AOT_stimuli/rescaled_final/0507_rv.mp4	0.0	155.0906162261963	2.500401020050049
19	115.22565793991089	pulse	1	t		17.0	2.5	/experiments/knapen_AOT/AOT_stimuli/rescaled_final/0507_rv.mp4	0.0	156.27438306808472	
19	116.54229211807251	fix_post	2		12	17.0	2.5	/experiments/knapen_AOT/AOT_stimuli/rescaled_final/0507_rv.mp4	0.0	157.59101724624634	0.09994792938232422
20	116.64224004745483	fix_pre	0		120	18.0	2.5	/experiments/knapen_AOT/AOT_stimuli/rescaled_final/1001_rv.mp4	0.0	157.69096517562866	1.0001499652862549
20	116.82572102546692	pulse	0	t		18.0	2.5	/experiments/knapen_AOT/AOT_stimuli/rescaled_final/1001_rv.mp4	0.0	157.87444615364075	
20	117.64239001274109	movie	1		242	18.0	2.5	/experiments/knapen_AOT/AOT_stimuli/rescaled_final/1001_rv.mp4	0.0	158.69111514091492	2.500433921813965
20	118.42607092857361	pulse	1	t		18.0	2.5	/experiments/knapen_AOT/AOT_stimuli/rescaled_final/1001_rv.mp4	0.0	159.47479605674744	
20	120.0264880657196	pulse	1	t		18.0	2.5	/experiments/knapen_AOT/AOT_stimuli/rescaled_final/1001_rv.mp4	0.0	161.07521319389343	
20	120.14282393455505	fix_post	2		12	18.0	2.5	/experiments/knapen_AOT/AOT_stimuli/rescaled_final/1001_rv.mp4	0.0	161.19154906272888	0.09995818138122559
21	120.24278211593628	fix_pre	0		120	19.0	2.5	/experiments/knapen_AOT/AOT_stimuli/rescaled_final/0120_fw.mp4	0.0	161.2915072441101	1.0001709461212158
21	121.2429530620575	movie	1		242	19.0	2.5	/experiments/knapen_AOT/AOT_stimuli/rescaled_final/0120_fw.mp4	0.0	162.29167819023132	2.4920990467071533
21	121.62721490859985	pulse	1	t		19.0	2.5	/experiments/knapen_AOT/AOT_stimuli/rescaled_final/0120_fw.mp4	0.0	162.67594003677368	
21	123.22669792175293	pulse	1	t		19.0	2.5	/experiments/knapen_AOT/AOT_stimuli/rescaled_final/0120_fw.mp4	0.0	164.27542304992676	
21	123.73505210876465	fix_post	2		12	19.0	2.5	/experiments/knapen_AOT/AOT_stimuli/rescaled_final/0120_fw.mp4	0.0	164.78377723693848	0.09996700286865234
22	123.8350191116333	fix_pre	0		120	20.0	2.5	/experiments/knapen_AOT/AOT_stimuli/rescaled_final/0619_rv.mp4	0.0	164.88374423980713	1.0001099109649658
22	124.8271210193634	pulse	0	t		20.0	2.5	/experiments/knapen_AOT/AOT_stimuli/rescaled_final/0619_rv.mp4	0.0	165.87584614753723	
22	124.83512902259827	movie	1		243	20.0	2.5	/experiments/knapen_AOT/AOT_stimuli/rescaled_final/0619_rv.mp4	0.0	165.8838541507721	2.508733034133911
22	126.42839097976685	pulse	1	t		20.0	2.5	/experiments/knapen_AOT/AOT_stimuli/rescaled_final/0619_rv.mp4	0.0	167.47711610794067	
22	127.34386205673218	fix_post	2		12	20.0	2.5	/experiments/knapen_AOT/AOT_stimuli/rescaled_final/0619_rv.mp4	0.0	168.392587184906	0.09998393058776855
23	127.44384598731995	fix_pre	0		120	21.0	2.5	blank	1.0	168.49257111549377	1.0001599788665771
23	128.0274510383606	pulse	0	t		21.0	2.5	blank	1.0	169.07617616653442	
23	128.44400596618652	movie	1		300	21.0	2.5	blank	1.0	169.49273109436035	2.500437021255493
23	129.62766098976135	pulse	1	t		21.0	2.5	blank	1.0	170.67638611793518	
23	130.94444298744202	fix_post	2		12	21.0	2.5	blank	1.0	171.99316811561584	0.0999460220336914
24	131.0443890094757	fix_pre	0		120	22.0	2.5	/experiments/knapen_AOT/AOT_stimuli/rescaled_final/1926_fw.mp4	0.0	172.09311413764954	1.0001630783081055
24	131.22807002067566	pulse	0	t		22.0	2.5	/experiments/knapen_AOT/AOT_stimuli/rescaled_final/1926_fw.mp4	0.0	172.2767951488495	
24	132.0445520877838	movie	1		244	22.0	2.5	/experiments/knapen_AOT/AOT_stimuli/rescaled_final/1926_fw.mp4	0.0	173.09327721595764	2.5004189014434814
24	132.82824110984802	pulse	1	t		22.0	2.5	/experiments/knapen_AOT/AOT_stimuli/rescaled_final/1926_fw.mp4	0.0	173.87696623802185	
24	134.4262490272522	pulse	1	t		22.0	2.5	/experiments/knapen_AOT/AOT_stimuli/rescaled_final/1926_fw.mp4	0.0	175.47497415542603	
24	134.5449709892273	fix_post	2		12	22.0	2.5	/experiments/knapen_AOT/AOT_stimuli/rescaled_final/1926_fw.mp4	0.0	175.59369611740112	0.10002899169921875
25	134.6449999809265	fix_pre	0		120	23.0	2.5	/experiments/knapen_AOT/AOT_stimuli/rescaled_final/0913_rv.mp4	0.0	175.69372510910034	1.0001120567321777
25	135.6451120376587	movie	1		237	23.0	2.5	/experiments/knapen_AOT/AOT_stimuli/rescaled_final/0913_rv.mp4	0.0	176.69383716583252	2.492055892944336
25	136.02922201156616	pulse	1	t		23.0	2.5	/experiments/knapen_AOT/AOT_stimuli/rescaled_final/0913_rv.mp4	0.0	177.07794713974	
25	137.62168097496033	pulse	1	t		23.0	2.5	/experiments/knapen_AOT/AOT_stimuli/rescaled_final/0913_rv.mp4	0.0	178.67040610313416	
25	138.13716793060303	fix_post	2		12	23.0	2.5	/experiments/knapen_AOT/AOT_stimuli/rescaled_final/0913_rv.mp4	0.0	179.18589305877686	0.09998703002929688
26	138.23715496063232	fix_pre	0		120	24.0	2.5	/experiments/knapen_AOT/AOT_stimuli/rescaled_final/1865_fw.mp4	0.0	179.28588008880615	1.0000970363616943
26	139.22158098220825	pulse	0	t		24.0	2.5	/experiments/knapen_AOT/AOT_stimuli/rescaled_final/1865_fw.mp4	0.0	180.27030611038208	
26	139.23725199699402	movie	1		243	24.0	2.5	/experiments/knapen_AOT/AOT_stimuli/rescaled_final/1865_fw.mp4	0.0	180.28597712516785	2.5088160037994385
26	140.82117104530334	pulse	1	t		24.0	2.5	/experiments/knapen_AOT/AOT_stimuli/rescaled_final/1865_fw.mp4	0.0	181.86989617347717	
26	141.74606800079346	fix_post	2		12	24.0	2.5	/experiments/knapen_AOT/AOT_stimuli/rescaled_final/1865_fw.mp4	0.0	182.79479312896729	0.10000491142272949
27	141.8460729122162	fix_pre	0		120	25.0	2.5	/experiments/knapen_AOT/AOT_stimuli/rescaled_final/0394_fw.mp4	0.0	182.89479804039001	1.0000991821289062
27	142.42122888565063	pulse	0	t		25.0	2.5	/experiments/knapen_AOT/AOT_stimuli/rescaled_final/0394_fw.mp4	0.0	183.46995401382446	
27	142.8461720943451	movie	1		242	25.0	2.5	/experiments/knapen_AOT/AOT_stimuli/rescaled_final/0394_fw.mp4	0.0	183.89489722251892	2.5004019737243652
27	144.02185702323914	pulse	1	t		25.0	2.5	/experiments/knapen_AOT/AOT_stimuli/rescaled_final/0394_fw.mp4	0.0	185.07058215141296	
27	145.34657406806946	fix_post	2		12	25.0	2.5	/experiments/knapen_AOT/AOT_stimuli/rescaled_final/0394_fw.mp4	0.0	186.3952991962433	0.09993982315063477
28	145.4465138912201	fix_pre	0		120	26.0	2.5	/experiments/knapen_AOT/AOT_stimuli/rescaled_final/0855_fw.mp4	0.0	186.49523901939392	1.0002150535583496
28	145.62170004844666	pulse	0	t		26.0	2.5	/experiments/knapen_AOT/AOT_stimuli/rescaled_final/0855_fw.mp4	0.0	186.67042517662048	
28	146.44672894477844	movie	1		243	26.0	2.5	/experiments/knapen_AOT/AOT_stimuli/rescaled_final/0855_fw.mp4	0.0	187.49545407295227	2.5004661083221436
28	147.2220549583435	pulse	1	t		26.0	2.5	/experiments/knapen_AOT/AOT_stimuli/rescaled_final/0855_fw.mp4	0.0	188.27078008651733	
28	148.82218098640442	pulse	1	t		26.0	2.5	/experiments/knapen_AOT/AOT_stimuli/rescaled_final/0855_fw.mp4	0.0	189.87090611457825	
28	148.9471950531006	fix_post	2		12	26.0	2.5	/experiments/knapen_AOT/AOT_stimuli/rescaled_final/0855_fw.mp4	0.0	189.9959201812744	0.09987998008728027
29	149.04707503318787	fix_pre	0		120	27.0	2.5	/experiments/knapen_AOT/AOT_stimuli/rescaled_final/1743_rv.mp4	0.0	190.0958001613617	1.0002079010009766
29	150.04728293418884	movie	1		241	27.0	2.5	/experiments/knapen_AOT/AOT_stimuli/rescaled_final/1743_rv.mp4	0.0	191.09600806236267	2.4920780658721924
29	150.4225308895111	pulse	1	t		27.0	2.5	/experiments/knapen_AOT/AOT_stimuli/rescaled_final/1743_rv.mp4	0.0	191.47125601768494	
29	152.02275609970093	pulse	1	t		27.0	2.5	/experiments/knapen_AOT/AOT_stimuli/rescaled_final/1743_rv.mp4	0.0	193.07148122787476	
29	152.53936100006104	fix_post	2		12	27.0	2.5	/experiments/knapen_AOT/AOT_stimuli/rescaled_final/1743_rv.mp4	0.0	193.58808612823486	0.09992790222167969
30	152.63928890228271	fix_pre	0		119	28.0	2.5	blank	1.0	193.68801403045654	0.991854190826416
30	153.62297701835632	pulse	0	t		28.0	2.5	blank	1.0	194.67170214653015	
30	153.63114309310913	movie	1		301	28.0	2.5	blank	1.0	194.67986822128296	2.5087289810180664
30	155.2232530117035	pulse	1	t		28.0	2.5	blank	1.0	196.27197813987732	
30	156.1398720741272	fix_post	2		12	28.0	2.5	blank	1.0	197.18859720230103	0.09992289543151855
31	156.23979496955872	fix_pre	0		120	29.0	2.5	/experiments/knapen_AOT/AOT_stimuli/rescaled_final/1041_fw.mp4	0.0	197.28852009773254	1.000175952911377
31	156.8235158920288	pulse	0	t		29.0	2.5	/experiments/knapen_AOT/AOT_stimuli/rescaled_final/1041_fw.mp4	0.0	197.87224102020264	
31	157.2399709224701	movie	1		242	29.0	2.5	/experiments/knapen_AOT/AOT_stimuli/rescaled_final/1041_fw.mp4	0.0	198.28869605064392	2.500533103942871
31	158.42378091812134	pulse	1	t		29.0	2.5	/experiments/knapen_AOT/AOT_stimuli/rescaled_final/1041_fw.mp4	0.0	199.47250604629517	
31	159.74050402641296	fix_post	2		12	29.0	2.5	/experiments/knapen_AOT/AOT_stimuli/rescaled_final/1041_fw.mp4	0.0	200.7892291545868	0.09988689422607422
32	159.84039092063904	fix_pre	0		120	30.0	2.5	/experiments/knapen_AOT/AOT_stimuli/rescaled_final/1812_rv.mp4	0.0	200.88911604881287	1.0000910758972168
32	160.02383708953857	pulse	0	t		30.0	2.5	/experiments/knapen_AOT/AOT_stimuli/rescaled_final/1812_rv.mp4	0.0	201.0725622177124	
32	160.84048199653625	movie	1		243	30.0	2.5	/experiments/knapen_AOT/AOT_stimuli/rescaled_final/1812_rv.mp4	0.0	201.88920712471008	2.5004470348358154
32	161.62425994873047	pulse	1	t		30.0	2.5	/experiments/knapen_AOT/AOT_stimuli/rescaled_final/1812_rv.mp4	0.0	202.6729850769043	
32	163.22414588928223	pulse	1	t		30.0	2.5	/experiments/knapen_AOT/AOT_stimuli/rescaled_final/1812_rv.mp4	0.0	204.27287101745605	
32	163.34092903137207	fix_post	2		12	30.0	2.5	/experiments/knapen_AOT/AOT_stimuli/rescaled_final/1812_rv.mp4	0.0	204.3896541595459	0.09995508193969727
33	163.44088411331177	fix_pre	0		120	31.0	2.5	/experiments/knapen_AOT/AOT_stimuli/rescaled_final/0913_rv.mp4	0.0	204.4896092414856	1.0002098083496094
33	164.44109392166138	movie	1		242	31.0	2.5	/experiments/knapen_AOT/AOT_stimuli/rescaled_final/0913_rv.mp4	0.0	205.4898190498352	2.4919981956481934
33	164.82511591911316	pulse	1	t		31.0	2.5	/experiments/knapen_AOT/AOT_stimuli/rescaled_final/0913_rv.mp4	0.0	205.873841047287	
33	166.42479610443115	pulse	1	t		31.0	2.5	/experiments/knapen_AOT/AOT_stimuli/rescaled_final/0913_rv.mp4	0.0	207.47352123260498	
33	166.93309211730957	fix_post	2		12	31.0	2.5	/experiments/knapen_AOT/AOT_stimuli/rescaled_final/0913_rv.mp4	0.0	207.9818172454834	0.10004377365112305
34	167.0331358909607	fix_pre	0		120	32.0	2.5	/experiments/knapen_AOT/AOT_stimuli/rescaled_final/1820_rv.mp4	0.0	208.08186101913452	1.0001060962677002
34	168.02513098716736	pulse	0	t		32.0	2.5	/experiments/knapen_AOT/AOT_stimuli/rescaled_final/1820_rv.mp4	0.0	209.0738561153412	
34	168.0332419872284	movie	1		244	32.0	2.5	/experiments/knapen_AOT/AOT_stimuli/rescaled_final/1820_rv.mp4	0.0	209.08196711540222	2.508765935897827
34	169.62574100494385	pulse	1	t		32.0	2.5	/experiments/knapen_AOT/AOT_stimuli/rescaled_final/1820_rv.mp4	0.0	210.67446613311768	
34	170.54200792312622	fix_post	2		12	32.0	2.5	/experiments/knapen_AOT/AOT_stimuli/rescaled_final/1820_rv.mp4	0.0	211.59073305130005	0.09996914863586426
35	170.64197707176208	fix_pre	0		120	33.0	2.5	/experiments/knapen_AOT/AOT_stimuli/rescaled_final/1672_fw.mp4	0.0	211.6907021999359	1.0001449584960938
35	171.2256190776825	pulse	0	t		33.0	2.5	/experiments/knapen_AOT/AOT_stimuli/rescaled_final/1672_fw.mp4	0.0	212.27434420585632	
35	171.64212203025818	movie	1		242	33.0	2.5	/experiments/knapen_AOT/AOT_stimuli/rescaled_final/1672_fw.mp4	0.0	212.690847158432	2.5004019737243652
35	172.8259038925171	pulse	1	t		33.0	2.5	/experiments/knapen_AOT/AOT_stimuli/rescaled_final/1672_fw.mp4	0.0	213.87462902069092	
35	174.14252400398254	fix_post	2		12	33.0	2.5	/experiments/knapen_AOT/AOT_stimuli/rescaled_final/1672_fw.mp4	0.0	215.19124913215637	0.09997797012329102
36	174.24250197410583	fix_pre	0		120	34.0	2.5	blank	1.0	215.29122710227966	1.0001380443572998
36	174.4260950088501	pulse	0	t		34.0	2.5	blank	1.0	215.47482013702393	
36	175.24264001846313	movie	1		300	34.0	2.5	blank	1.0	216.29136514663696	2.5004360675811768
36	176.02635407447815	pulse	1	t		34.0	2.5	blank	1.0	217.07507920265198	
36	177.62658095359802	pulse	1	t		34.0	2.5	blank	1.0	218.67530608177185	
36	177.7430760860443	fix_post	2		12	34.0	2.5	blank	1.0	218.79180121421814	0.10000896453857422
37	177.84308505058289	fix_pre	0		120	35.0	2.5	/experiments/knapen_AOT/AOT_stimuli/rescaled_final/1429_fw.mp4	0.0	218.8918101787567	1.0001628398895264
37	178.8432478904724	movie	1		241	35.0	2.5	/experiments/knapen_AOT/AOT_stimuli/rescaled_final/1429_fw.mp4	0.0	219.89197301864624	2.4920880794525146
37	179.2280559539795	pulse	1	t		35.0	2.5	/experiments/knapen_AOT/AOT_stimuli/rescaled_final/1429_fw.mp4	0.0	220.27678108215332	
37	180.8270959854126	pulse	1	t		35.0	2.5	/experiments/knapen_AOT/AOT_stimuli/rescaled_final/1429_fw.mp4	0.0	221.87582111358643	
37	181.33533596992493	fix_post	2		12	35.0	2.5	/experiments/knapen_AOT/AOT_stimuli/rescaled_final/1429_fw.mp4	0.0	222.38406109809875	0.09999608993530273
38	181.43533205986023	fix_pre	0		120	36.0	2.5	/experiments/knapen_AOT/AOT_stimuli/rescaled_final/1934_fw.mp4	0.0	222.48405718803406	1.000074863433838
38	182.42731404304504	pulse	0	t		36.0	2.5	/experiments/knapen_AOT/AOT_stimuli/rescaled_final/1934_fw.mp4	0.0	223.47603917121887	
38	182.43540692329407	movie	1		243	36.0	2.5	/experiments/knapen_AOT/AOT_stimuli/rescaled_final/1934_fw.mp4	0.0	223.4841320514679	2.508713960647583
38	184.0280680656433	pulse	1	t		36.0	2.5	/experiments/knapen_AOT/AOT_stimuli/rescaled_final/1934_fw.mp4	0.0	225.07679319381714	
38	184.94412088394165	fix_post	2		12	36.0	2.5	/experiments/knapen_AOT/AOT_stimuli/rescaled_final/1934_fw.mp4	0.0	225.99284601211548	0.10000300407409668
39	185.04412388801575	fix_pre	0		120	37.0	2.5	/experiments/knapen_AOT/AOT_stimuli/rescaled_final/1812_rv.mp4	0.0	226.09284901618958	1.0001811981201172
39	185.62779593467712	pulse	0	t		37.0	2.5	/experiments/knapen_AOT/AOT_stimuli/rescaled_final/1812_rv.mp4	0.0	226.67652106285095	
39	186.04430508613586	movie	1		243	37.0	2.5	/experiments/knapen_AOT/AOT_stimuli/rescaled_final/1812_rv.mp4	0.0	227.0930302143097	2.500330924987793
39	187.22803688049316	pulse	1	t		37.0	2.5	/experiments/knapen_AOT/AOT_stimuli/rescaled_final/1812_rv.mp4	0.0	228.276762008667	
39	188.54463601112366	fix_post	2		12	37.0	2.5	/experiments/knapen_AOT/AOT_stimuli/rescaled_final/1812_rv.mp4	0.0	229.59336113929749	0.10002493858337402
40	188.64466094970703	fix_pre	0		120	38.0	2.5	/experiments/knapen_AOT/AOT_stimuli/rescaled_final/0757_rv.mp4	0.0	229.69338607788086	1.0001890659332275
40	188.82820510864258	pulse	0	t		38.0	2.5	/experiments/knapen_AOT/AOT_stimuli/rescaled_final/0757_rv.mp4	0.0	229.8769302368164	
40	189.64485001564026	movie	1		244	38.0	2.5	/experiments/knapen_AOT/AOT_stimuli/rescaled_final/0757_rv.mp4	0.0	230.6935751438141	2.5003979206085205
40	190.42858600616455	pulse	1	t		38.0	2.5	/experiments/knapen_AOT/AOT_stimuli/rescaled_final/0757_rv.mp4	0.0	231.47731113433838	
40	192.02863693237305	pulse	1	t		38.0	2.5	/experiments/knapen_AOT/AOT_stimuli/rescaled_final/0757_rv.mp4	0.0	233.07736206054688	
40	192.14524793624878	fix_post	2		12	38.0	2.5	/experiments/knapen_AOT/AOT_stimuli/rescaled_final/0757_rv.mp4	0.0	233.1939730644226	0.09992504119873047
41	192.2451729774475	fix_pre	0		120	39.0	2.5	/experiments/knapen_AOT/AOT_stimuli/rescaled_final/1079_rv.mp4	0.0	233.29389810562134	1.0001780986785889
41	193.2453510761261	movie	1		241	39.0	2.5	/experiments/knapen_AOT/AOT_stimuli/rescaled_final/1079_rv.mp4	0.0	234.29407620429993	2.492102861404419
41	193.62932300567627	pulse	1	t		39.0	2.5	/experiments/knapen_AOT/AOT_stimuli/rescaled_final/1079_rv.mp4	0.0	234.6780481338501	
41	195.22197198867798	pulse	1	t		39.0	2.5	/experiments/knapen_AOT/AOT_stimuli/rescaled_final/1079_rv.mp4	0.0	236.2706971168518	
41	195.73745393753052	fix_post	2		12	39.0	2.5	/experiments/knapen_AOT/AOT_stimuli/rescaled_final/1079_rv.mp4	0.0	236.78617906570435	0.09997010231018066
42	195.8374240398407	fix_pre	0		120	40.0	2.5	/experiments/knapen_AOT/AOT_stimuli/rescaled_final/2056_fw.mp4	0.0	236.88614916801453	1.0001649856567383
42	196.8219439983368	pulse	0	t		40.0	2.5	/experiments/knapen_AOT/AOT_stimuli/rescaled_final/2056_fw.mp4	0.0	237.87066912651062	
42	196.83758902549744	movie	1		244	40.0	2.5	/experiments/knapen_AOT/AOT_stimuli/rescaled_final/2056_fw.mp4	0.0	237.88631415367126	2.5087549686431885
42	198.43042397499084	pulse	1	t		40.0	2.5	/experiments/knapen_AOT/AOT_stimuli/rescaled_final/2056_fw.mp4	0.0	239.47914910316467	
42	199.34634399414062	fix_post	2		12	40.0	2.5	/experiments/knapen_AOT/AOT_stimuli/rescaled_final/2056_fw.mp4	0.0	240.39506912231445	0.0999898910522461
43	199.44633388519287	fix_pre	0		120	41.0	2.5	/experiments/knapen_AOT/AOT_stimuli/rescaled_final/1099_fw.mp4	0.0	240.4950590133667	1.000129222869873
43	200.02252793312073	pulse	0	t		41.0	2.5	/experiments/knapen_AOT/AOT_stimuli/rescaled_final/1099_fw.mp4	0.0	241.07125306129456	
43	200.44646310806274	movie	1		239	41.0	2.5	/experiments/knapen_AOT/AOT_stimuli/rescaled_final/1099_fw.mp4	0.0	241.49518823623657	2.5004489421844482
43	201.62304401397705	pulse	1	t		41.0	2.5	/experiments/knapen_AOT/AOT_stimuli/rescaled_final/1099_fw.mp4	0.0	242.67176914215088	
43	202.9469120502472	fix_post	2		12	41.0	2.5	/experiments/knapen_AOT/AOT_stimuli/rescaled_final/1099_fw.mp4	0.0	243.99563717842102	0.09992194175720215
44	203.0468339920044	fix_pre	0		120	42.0	2.5	blank	1.0	244.09555912017822	1.000190019607544
44	203.22193503379822	pulse	0	t		42.0	2.5	blank	1.0	244.27066016197205	
44	204.04702401161194	movie	1		300	42.0	2.5	blank	1.0	245.09574913978577	2.500324010848999
44	204.82216596603394	pulse	1	t		42.0	2.5	blank	1.0	245.87089109420776	
44	206.4225790500641	pulse	1	t		42.0	2.5	blank	1.0	247.47130417823792	
44	206.54734802246094	fix_post	2		12	42.0	2.5	blank	1.0	247.59607315063477	0.10004496574401855
45	206.64739298820496	fix_pre	0		119	43.0	2.5	/experiments/knapen_AOT/AOT_stimuli/rescaled_final/0186_rv.mp4	0.0	247.69611811637878	0.9917809963226318
45	207.6391739845276	movie	1		243	43.0	2.5	/experiments/knapen_AOT/AOT_stimuli/rescaled_final/0186_rv.mp4	0.0	248.68789911270142	2.5004689693450928
45	208.02332711219788	pulse	1	t		43.0	2.5	/experiments/knapen_AOT/AOT_stimuli/rescaled_final/0186_rv.mp4	0.0	249.0720522403717	
45	209.62302899360657	pulse	1	t		43.0	2.5	/experiments/knapen_AOT/AOT_stimuli/rescaled_final/0186_rv.mp4	0.0	250.6717541217804	
45	210.13964295387268	fix_post	2		12	43.0	2.5	/experiments/knapen_AOT/AOT_stimuli/rescaled_final/0186_rv.mp4	0.0	251.1883680820465	0.09991312026977539
46	210.23955607414246	fix_pre	0		119	44.0	2.5	/experiments/knapen_AOT/AOT_stimuli/rescaled_final/2168_fw.mp4	0.0	251.28828120231628	0.9918110370635986
46	211.2232151031494	pulse	0	t		44.0	2.5	/experiments/knapen_AOT/AOT_stimuli/rescaled_final/2168_fw.mp4	0.0	252.27194023132324	
46	211.23136711120605	movie	1		244	44.0	2.5	/experiments/knapen_AOT/AOT_stimuli/rescaled_final/2168_fw.mp4	0.0	252.28009223937988	2.508737802505493
46	212.82408499717712	pulse	1	t		44.0	2.5	/experiments/knapen_AOT/AOT_stimuli/rescaled_final/2168_fw.mp4	0.0	253.87281012535095	
46	213.74010491371155	fix_post	2		12	44.0	2.5	/experiments/knapen_AOT/AOT_stimuli/rescaled_final/2168_fw.mp4	0.0	254.78883004188538	0.10004615783691406
47	213.84015107154846	fix_pre	0		120	45.0	2.5	/experiments/knapen_AOT/AOT_stimuli/rescaled_final/1631_fw.mp4	0.0	254.8888761997223	1.0001099109649658
47	214.4237630367279	pulse	0	t		45.0	2.5	/experiments/knapen_AOT/AOT_stimuli/rescaled_final/1631_fw.mp4	0.0	255.47248816490173	
47	214.84026098251343	movie	1		242	45.0	2.5	/experiments/knapen_AOT/AOT_stimuli/rescaled_final/1631_fw.mp4	0.0	255.88898611068726	2.5004019737243652
47	216.02417588233948	pulse	1	t		45.0	2.5	/experiments/knapen_AOT/AOT_stimuli/rescaled_final/1631_fw.mp4	0.0	257.0729010105133	
47	217.3406629562378	fix_post	2		12	45.0	2.5	/experiments/knapen_AOT/AOT_stimuli/rescaled_final/1631_fw.mp4	0.0	258.3893880844116	0.09996294975280762
48	217.4406259059906	fix_pre	0		120	46.0	2.5	/experiments/knapen_AOT/AOT_stimuli/rescaled_final/2179_rv.mp4	0.0	258.48935103416443	1.0002310276031494
48	217.62429809570312	pulse	0	t		46.0	2.5	/experiments/knapen_AOT/AOT_stimuli/rescaled_final/2179_rv.mp4	0.0	258.67302322387695	
48	218.44085693359375	movie	1		242	46.0	2.5	/experiments/knapen_AOT/AOT_stimuli/rescaled_final/2179_rv.mp4	0.0	259.4895820617676	2.500499963760376
48	219.22443509101868	pulse	1	t		46.0	2.5	/experiments/knapen_AOT/AOT_stimuli/rescaled_final/2179_rv.mp4	0.0	260.2731602191925	
48	220.82465505599976	pulse	1	t		46.0	2.5	/experiments/knapen_AOT/AOT_stimuli/rescaled_final/2179_rv.mp4	0.0	261.8733801841736	
48	220.94135689735413	fix_post	2		12	46.0	2.5	/experiments/knapen_AOT/AOT_stimuli/rescaled_final/2179_rv.mp4	0.0	261.99008202552795	0.0998680591583252
49	221.04122495651245	fix_pre	0		120	47.0	2.5	/experiments/knapen_AOT/AOT_stimuli/rescaled_final/0132_fw.mp4	0.0	262.0899500846863	1.0001139640808105
49	222.04133892059326	movie	1		242	47.0	2.5	/experiments/knapen_AOT/AOT_stimuli/rescaled_final/0132_fw.mp4	0.0	263.0900640487671	2.492009162902832
49	222.42537689208984	pulse	1	t		47.0	2.5	/experiments/knapen_AOT/AOT_stimuli/rescaled_final/0132_fw.mp4	0.0	263.4741020202637	
49	224.0252170562744	pulse	1	t		47.0	2.5	/experiments/knapen_AOT/AOT_stimuli/rescaled_final/0132_fw.mp4	0.0	265.07394218444824	
49	224.5333480834961	fix_post	2		12	47.0	2.5	/experiments/knapen_AOT/AOT_stimuli/rescaled_final/0132_fw.mp4	0.0	265.5820732116699	0.10001397132873535
50	224.63336205482483	fix_pre	0		120	48.0	2.5	/experiments/knapen_AOT/AOT_stimuli/rescaled_final/0408_rv.mp4	0.0	265.68208718299866	1.0001349449157715
50	225.625412940979	pulse	0	t		48.0	2.5	/experiments/knapen_AOT/AOT_stimuli/rescaled_final/0408_rv.mp4	0.0	266.67413806915283	
50	225.6334969997406	movie	1		244	48.0	2.5	/experiments/knapen_AOT/AOT_stimuli/rescaled_final/0408_rv.mp4	0.0	266.68222212791443	2.508805990219116
50	227.2261610031128	pulse	1	t		48.0	2.5	/experiments/knapen_AOT/AOT_stimuli/rescaled_final/0408_rv.mp4	0.0	268.2748861312866	
50	228.14230298995972	fix_post	2		12	48.0	2.5	/experiments/knapen_AOT/AOT_stimuli/rescaled_final/0408_rv.mp4	0.0	269.19102811813354	0.09995007514953613
51	228.24225306510925	fix_pre	0		120	49.0	2.5	blank	1.0	269.2909781932831	1.0001640319824219
51	228.82580995559692	pulse	0	t		49.0	2.5	blank	1.0	269.87453508377075	
51	229.24241709709167	movie	1		300	49.0	2.5	blank	1.0	270.2911422252655	2.5003879070281982
51	230.42618989944458	pulse	1	t		49.0	2.5	blank	1.0	271.4749150276184	
51	231.74280500411987	fix_post	2		12	49.0	2.5	blank	1.0	272.7915301322937	0.10001897811889648
52	231.84282398223877	fix_pre	0		120	50.0	2.5	/experiments/knapen_AOT/AOT_stimuli/rescaled_final/1948_rv.mp4	0.0	272.8915491104126	1.000114917755127
52	232.02645993232727	pulse	0	t		50.0	2.5	/experiments/knapen_AOT/AOT_stimuli/rescaled_final/1948_rv.mp4	0.0	273.0751850605011	
52	232.8429388999939	movie	1		243	50.0	2.5	/experiments/knapen_AOT/AOT_stimuli/rescaled_final/1948_rv.mp4	0.0	273.8916640281677	2.5004940032958984
52	233.62661004066467	pulse	1	t		50.0	2.5	/experiments/knapen_AOT/AOT_stimuli/rescaled_final/1948_rv.mp4	0.0	274.6753351688385	
52	235.22665405273438	pulse	1	t		50.0	2.5	/experiments/knapen_AOT/AOT_stimuli/rescaled_final/1948_rv.mp4	0.0	276.2753791809082	
52	235.3434329032898	fix_post	2		12	50.0	2.5	/experiments/knapen_AOT/AOT_stimuli/rescaled_final/1948_rv.mp4	0.0	276.3921580314636	0.09996604919433594
53	235.44339895248413	fix_pre	0		120	51.0	2.5	/experiments/knapen_AOT/AOT_stimuli/rescaled_final/2093_fw.mp4	0.0	276.49212408065796	1.000049114227295
53	236.44344806671143	movie	1		241	51.0	2.5	/experiments/knapen_AOT/AOT_stimuli/rescaled_final/2093_fw.mp4	0.0	277.49217319488525	2.4921388626098633
53	236.82757592201233	pulse	1	t		51.0	2.5	/experiments/knapen_AOT/AOT_stimuli/rescaled_final/2093_fw.mp4	0.0	277.87630105018616	
53	238.4272780418396	pulse	1	t		51.0	2.5	/experiments/knapen_AOT/AOT_stimuli/rescaled_final/2093_fw.mp4	0.0	279.4760031700134	
53	238.9355869293213	fix_post	2		12	51.0	2.5	/experiments/knapen_AOT/AOT_stimuli/rescaled_final/2093_fw.mp4	0.0	279.9843120574951	0.09990501403808594
54	239.03549194335938	fix_pre	0		120	52.0	2.5	/experiments/knapen_AOT/AOT_stimuli/rescaled_final/1605_fw.mp4	0.0	280.0842170715332	1.000143051147461
54	240.02760195732117	pulse	0	t		52.0	2.5	/experiments/knapen_AOT/AOT_stimuli/rescaled_final/1605_fw.mp4	0.0	281.076327085495	
54	240.03563499450684	movie	1		244	52.0	2.5	/experiments/knapen_AOT/AOT_stimuli/rescaled_final/1605_fw.mp4	0.0	281.08436012268066	2.508760929107666
54	241.6284110546112	pulse	1	t		52.0	2.5	/experiments/knapen_AOT/AOT_stimuli/rescaled_final/1605_fw.mp4	0.0	282.67713618278503	
54	242.5443959236145	fix_post	2		12	52.0	2.5	/experiments/knapen_AOT/AOT_stimuli/rescaled_final/1605_fw.mp4	0.0	283.59312105178833	0.10000014305114746
55	242.64439606666565	fix_pre	0		120	53.0	2.5	/experiments/knapen_AOT/AOT_stimuli/rescaled_final/0354_fw.mp4	0.0	283.6931211948395	1.0001418590545654
55	243.22800302505493	pulse	0	t		53.0	2.5	/experiments/knapen_AOT/AOT_stimuli/rescaled_final/0354_fw.mp4	0.0	284.27672815322876	
55	243.64453792572021	movie	1		243	53.0	2.5	/experiments/knapen_AOT/AOT_stimuli/rescaled_final/0354_fw.mp4	0.0	284.69326305389404	2.5005321502685547
55	244.8283679485321	pulse	1	t		53.0	2.5	/experiments/knapen_AOT/AOT_stimuli/rescaled_final/0354_fw.mp4	0.0	285.87709307670593	
55	246.14507007598877	fix_post	2		12	53.0	2.5	/experiments/knapen_AOT/AOT_stimuli/rescaled_final/0354_fw.mp4	0.0	287.1937952041626	0.09988784790039062
56	246.24495792388916	fix_pre	0		120	54.0	2.5	/experiments/knapen_AOT/AOT_stimuli/rescaled_final/1126_rv.mp4	0.0	287.293683052063	1.0001389980316162
56	246.42857909202576	pulse	0	t		54.0	2.5	/experiments/knapen_AOT/AOT_stimuli/rescaled_final/1126_rv.mp4	0.0	287.4773042201996	
56	247.24509692192078	movie	1		244	54.0	2.5	/experiments/knapen_AOT/AOT_stimuli/rescaled_final/1126_rv.mp4	0.0	288.2938220500946	2.5003931522369385
56	248.02140593528748	pulse	1	t		54.0	2.5	/experiments/knapen_AOT/AOT_stimuli/rescaled_final/1126_rv.mp4	0.0	289.0701310634613	
56	249.62897610664368	pulse	1	t		54.0	2.5	/experiments/knapen_AOT/AOT_stimuli/rescaled_final/1126_rv.mp4	0.0	290.6777012348175	
56	249.74549007415771	fix_post	2		12	54.0	2.5	/experiments/knapen_AOT/AOT_stimuli/rescaled_final/1126_rv.mp4	0.0	290.79421520233154	0.09997701644897461
57	249.8454670906067	fix_pre	0		120	55.0	2.5	/experiments/knapen_AOT/AOT_stimuli/rescaled_final/1558_rv.mp4	0.0	290.8941922187805	1.0001158714294434
57	250.84558296203613	movie	1		242	55.0	2.5	/experiments/knapen_AOT/AOT_stimuli/rescaled_final/1558_rv.mp4	0.0	291.89430809020996	2.4921090602874756
57	251.22955107688904	pulse	1	t		55.0	2.5	/experiments/knapen_AOT/AOT_stimuli/rescaled_final/1558_rv.mp4	0.0	292.27827620506287	
57	252.82206010818481	pulse	1	t		55.0	2.5	/experiments/knapen_AOT/AOT_stimuli/rescaled_final/1558_rv.mp4	0.0	293.87078523635864	
57	253.3376920223236	fix_post	2		12	55.0	2.5	/experiments/knapen_AOT/AOT_stimuli/rescaled_final/1558_rv.mp4	0.0	294.38641715049744	0.09994792938232422
58	253.43763995170593	fix_pre	0		120	56.0	2.5	blank	1.0	294.48636507987976	1.000169038772583
58	254.42209005355835	pulse	0	t		56.0	2.5	blank	1.0	295.4708151817322	
58	254.43780899047852	movie	1		301	56.0	2.5	blank	1.0	295.48653411865234	2.508713960647583
58	256.0216290950775	pulse	1	t		56.0	2.5	blank	1.0	297.07035422325134	
58	256.9465229511261	fix_post	2		12	56.0	2.5	blank	1.0	297.9952480792999	0.09998512268066406
59	257.04650807380676	fix_pre	0		120	57.0	2.5	/experiments/knapen_AOT/AOT_stimuli/rescaled_final/1466_fw.mp4	0.0	298.0952332019806	1.0001578330993652
59	257.62170791625977	pulse	0	t		57.0	2.5	/experiments/knapen_AOT/AOT_stimuli/rescaled_final/1466_fw.mp4	0.0	298.6704330444336	
59	258.0466659069061	movie	1		242	57.0	2.5	/experiments/knapen_AOT/AOT_stimuli/rescaled_final/1466_fw.mp4	0.0	299.09539103507996	2.5005550384521484
59	259.22242999076843	pulse	1	t		57.0	2.5	/experiments/knapen_AOT/AOT_stimuli/rescaled_final/1466_fw.mp4	0.0	300.27115511894226	
59	260.5472209453583	fix_post	2		12	57.0	2.5	/experiments/knapen_AOT/AOT_stimuli/rescaled_final/1466_fw.mp4	0.0	301.5959460735321	0.09986114501953125
60	260.6470820903778	fix_pre	0		120	58.0	2.5	/experiments/knapen_AOT/AOT_stimuli/rescaled_final/0209_fw.mp4	0.0	301.69580721855164	1.0001540184020996
60	260.82233595848083	pulse	0	t		58.0	2.5	/experiments/knapen_AOT/AOT_stimuli/rescaled_final/0209_fw.mp4	0.0	301.87106108665466	
60	261.6472361087799	movie	1		241	58.0	2.5	/experiments/knapen_AOT/AOT_stimuli/rescaled_final/0209_fw.mp4	0.0	302.69596123695374	2.50034499168396
60	262.4224979877472	pulse	1	t		58.0	2.5	/experiments/knapen_AOT/AOT_stimuli/rescaled_final/0209_fw.mp4	0.0	303.471223115921	
60	264.02274799346924	pulse	1	t		58.0	2.5	/experiments/knapen_AOT/AOT_stimuli/rescaled_final/0209_fw.mp4	0.0	305.07147312164307	
60	264.14758110046387	fix_post	2		12	58.0	2.5	/experiments/knapen_AOT/AOT_stimuli/rescaled_final/0209_fw.mp4	0.0	305.1963062286377	0.10000181198120117
61	264.24758291244507	fix_pre	0		119	59.0	2.5	/experiments/knapen_AOT/AOT_stimuli/rescaled_final/1746_fw.mp4	0.0	305.2963080406189	0.9918971061706543
61	265.2394800186157	movie	1		243	59.0	2.5	/experiments/knapen_AOT/AOT_stimuli/rescaled_final/1746_fw.mp4	0.0	306.28820514678955	2.5003280639648438
61	265.62372398376465	pulse	1	t		59.0	2.5	/experiments/knapen_AOT/AOT_stimuli/rescaled_final/1746_fw.mp4	0.0	306.6724491119385	
61	267.223237991333	pulse	1	t		59.0	2.5	/experiments/knapen_AOT/AOT_stimuli/rescaled_final/1746_fw.mp4	0.0	308.27196311950684	
61	267.73980808258057	fix_post	2		12	59.0	2.5	/experiments/knapen_AOT/AOT_stimuli/rescaled_final/1746_fw.mp4	0.0	308.7885332107544	0.10004091262817383
62	267.83984899520874	fix_pre	0		119	60.0	2.5	/experiments/knapen_AOT/AOT_stimuli/rescaled_final/0557_fw.mp4	0.0	308.88857412338257	0.9917850494384766
62	268.8234848976135	pulse	0	t		60.0	2.5	/experiments/knapen_AOT/AOT_stimuli/rescaled_final/0557_fw.mp4	0.0	309.87221002578735	
62	268.8316340446472	movie	1		244	60.0	2.5	/experiments/knapen_AOT/AOT_stimuli/rescaled_final/0557_fw.mp4	0.0	309.88035917282104	2.5087900161743164
62	270.42424988746643	pulse	1	t		60.0	2.5	/experiments/knapen_AOT/AOT_stimuli/rescaled_final/0557_fw.mp4	0.0	311.47297501564026	
62	271.34042406082153	fix_post	2		12	60.0	2.5	/experiments/knapen_AOT/AOT_stimuli/rescaled_final/0557_fw.mp4	0.0	312.38914918899536	0.10004401206970215
63	271.44046807289124	fix_pre	0		120	61.0	2.5	/experiments/knapen_AOT/AOT_stimuli/rescaled_final/0992_rv.mp4	0.0	312.48919320106506	1.000011920928955
63	272.02393889427185	pulse	0	t		61.0	2.5	/experiments/knapen_AOT/AOT_stimuli/rescaled_final/0992_rv.mp4	0.0	313.0726640224457	
63	272.4404799938202	movie	1		243	61.0	2.5	/experiments/knapen_AOT/AOT_stimuli/rescaled_final/0992_rv.mp4	0.0	313.489205121994	2.500396966934204
63	273.62424898147583	pulse	1	t		61.0	2.5	/experiments/knapen_AOT/AOT_stimuli/rescaled_final/0992_rv.mp4	0.0	314.67297410964966	
63	274.9408769607544	fix_post	2		12	61.0	2.5	/experiments/knapen_AOT/AOT_stimuli/rescaled_final/0992_rv.mp4	0.0	315.9896020889282	0.10000801086425781
64	275.04088497161865	fix_pre	0		120	62.0	2.5	blank	1.0	316.0896100997925	1.0001389980316162
64	275.2245628833771	pulse	0	t		62.0	2.5	blank	1.0	316.2732880115509	
64	276.04102396965027	movie	1		300	62.0	2.5	blank	1.0	317.0897490978241	2.500430107116699
64	276.82467889785767	pulse	1	t		62.0	2.5	blank	1.0	317.8734040260315	
64	278.42480397224426	pulse	1	t		62.0	2.5	blank	1.0	319.4735291004181	
64	278.54145407676697	fix_post	2		12	62.0	2.5	blank	1.0	319.5901792049408	0.09997391700744629
65	278.6414279937744	fix_pre	0		120	63.0	2.5	/experiments/knapen_AOT/AOT_stimuli/rescaled_final/1065_rv.mp4	0.0	319.69015312194824	1.0001449584960938
65	279.6415729522705	movie	1		242	63.0	2.5	/experiments/knapen_AOT/AOT_stimuli/rescaled_final/1065_rv.mp4	0.0	320.69029808044434	2.492077112197876
65	280.0257799625397	pulse	1	t		63.0	2.5	/experiments/knapen_AOT/AOT_stimuli/rescaled_final/1065_rv.mp4	0.0	321.0745050907135	
65	281.6255180835724	pulse	1	t		63.0	2.5	/experiments/knapen_AOT/AOT_stimuli/rescaled_final/1065_rv.mp4	0.0	322.6742432117462	
65	282.1336500644684	fix_post	2		12	63.0	2.5	/experiments/knapen_AOT/AOT_stimuli/rescaled_final/1065_rv.mp4	0.0	323.1823751926422	0.09998083114624023
66	282.2336308956146	fix_pre	0		120	64.0	2.5	/experiments/knapen_AOT/AOT_stimuli/rescaled_final/1631_rv.mp4	0.0	323.28235602378845	1.0001821517944336
66	283.22573590278625	pulse	0	t		64.0	2.5	/experiments/knapen_AOT/AOT_stimuli/rescaled_final/1631_rv.mp4	0.0	324.2744610309601	
66	283.23381304740906	movie	1		243	64.0	2.5	/experiments/knapen_AOT/AOT_stimuli/rescaled_final/1631_rv.mp4	0.0	324.2825381755829	2.5087130069732666
66	284.82670307159424	pulse	1	t		64.0	2.5	/experiments/knapen_AOT/AOT_stimuli/rescaled_final/1631_rv.mp4	0.0	325.87542819976807	
66	285.7425260543823	fix_post	2		12	64.0	2.5	/experiments/knapen_AOT/AOT_stimuli/rescaled_final/1631_rv.mp4	0.0	326.79125118255615	0.10002398490905762
67	285.8425500392914	fix_pre	0		120	65.0	2.5	/experiments/knapen_AOT/AOT_stimuli/rescaled_final/1429_rv.mp4	0.0	326.8912751674652	1.0000898838043213
67	286.42613410949707	pulse	0	t		65.0	2.5	/experiments/knapen_AOT/AOT_stimuli/rescaled_final/1429_rv.mp4	0.0	327.4748592376709	
67	286.8426399230957	movie	1		242	65.0	2.5	/experiments/knapen_AOT/AOT_stimuli/rescaled_final/1429_rv.mp4	0.0	327.89136505126953	2.500498056411743
67	288.0264220237732	pulse	1	t		65.0	2.5	/experiments/knapen_AOT/AOT_stimuli/rescaled_final/1429_rv.mp4	0.0	329.075147151947	
67	289.34313797950745	fix_post	2		12	65.0	2.5	/experiments/knapen_AOT/AOT_stimuli/rescaled_final/1429_rv.mp4	0.0	330.3918631076813	0.09989809989929199
68	289.44303607940674	fix_pre	0		120	66.0	2.5	/experiments/knapen_AOT/AOT_stimuli/rescaled_final/1939_rv.mp4	0.0	330.49176120758057	1.0002379417419434
68	289.6266438961029	pulse	0	t		66.0	2.5	/experiments/knapen_AOT/AOT_stimuli/rescaled_final/1939_rv.mp4	0.0	330.67536902427673	
68	290.4432740211487	movie	1		243	66.0	2.5	/experiments/knapen_AOT/AOT_stimuli/rescaled_final/1939_rv.mp4	0.0	331.4919991493225	2.5002939701080322
68	291.22679805755615	pulse	1	t		66.0	2.5	/experiments/knapen_AOT/AOT_stimuli/rescaled_final/1939_rv.mp4	0.0	332.27552318573	
68	292.8277928829193	pulse	1	t		66.0	2.5	/experiments/knapen_AOT/AOT_stimuli/rescaled_final/1939_rv.mp4	0.0	333.87651801109314	
68	292.9435679912567	fix_post	2		12	66.0	2.5	/experiments/knapen_AOT/AOT_stimuli/rescaled_final/1939_rv.mp4	0.0	333.99229311943054	0.10000801086425781
69	293.043576002121	fix_pre	0		120	67.0	2.5	/experiments/knapen_AOT/AOT_stimuli/rescaled_final/0624_fw.mp4	0.0	334.0923011302948	1.0001530647277832
69	294.04372906684875	movie	1		242	67.0	2.5	/experiments/knapen_AOT/AOT_stimuli/rescaled_final/0624_fw.mp4	0.0	335.0924541950226	2.4921329021453857
69	294.4281361103058	pulse	1	t		67.0	2.5	/experiments/knapen_AOT/AOT_stimuli/rescaled_final/0624_fw.mp4	0.0	335.4768612384796	
69	296.02760004997253	pulse	1	t		67.0	2.5	/experiments/knapen_AOT/AOT_stimuli/rescaled_final/0624_fw.mp4	0.0	337.07632517814636	
69	296.53586196899414	fix_post	2		12	67.0	2.5	/experiments/knapen_AOT/AOT_stimuli/rescaled_final/0624_fw.mp4	0.0	337.58458709716797	0.09998106956481934
70	296.63584303855896	fix_pre	0		120	68.0	2.5	/experiments/knapen_AOT/AOT_stimuli/rescaled_final/1003_rv.mp4	0.0	337.6845681667328	1.0001258850097656
70	297.6277229785919	pulse	0	t		68.0	2.5	/experiments/knapen_AOT/AOT_stimuli/rescaled_final/1003_rv.mp4	0.0	338.67644810676575	
70	297.6359689235687	movie	1		244	68.0	2.5	/experiments/knapen_AOT/AOT_stimuli/rescaled_final/1003_rv.mp4	0.0	338.68469405174255	2.5086569786071777
70	299.22848105430603	pulse	1	t		68.0	2.5	/experiments/knapen_AOT/AOT_stimuli/rescaled_final/1003_rv.mp4	0.0	340.27720618247986	
70	300.1446259021759	fix_post	2		12	68.0	2.5	/experiments/knapen_AOT/AOT_stimuli/rescaled_final/1003_rv.mp4	0.0	341.19335103034973	0.10012006759643555
71	300.24474596977234	fix_pre	0		120	69.0	2.5	blank	1.0	341.29347109794617	1.000035047531128
71	300.82831597328186	pulse	0	t		69.0	2.5	blank	1.0	341.8770411014557	
71	301.24478101730347	movie	1		300	69.0	2.5	blank	1.0	342.2935061454773	2.5004680156707764
71	302.4285249710083	pulse	1	t		69.0	2.5	blank	1.0	343.47725009918213	
71	303.74524903297424	fix_post	2		12	69.0	2.5	blank	1.0	344.79397416114807	0.09996390342712402
72	303.84521293640137	fix_pre	0		120	70.0	2.5	/experiments/knapen_AOT/AOT_stimuli/rescaled_final/0386_fw.mp4	0.0	344.8939380645752	1.0001471042633057
72	304.0288429260254	pulse	0	t		70.0	2.5	/experiments/knapen_AOT/AOT_stimuli/rescaled_final/0386_fw.mp4	0.0	345.0775680541992	
72	304.8453600406647	movie	1		244	70.0	2.5	/experiments/knapen_AOT/AOT_stimuli/rescaled_final/0386_fw.mp4	0.0	345.8940851688385	2.500359058380127
72	305.62904500961304	pulse	1	t		70.0	2.5	/experiments/knapen_AOT/AOT_stimuli/rescaled_final/0386_fw.mp4	0.0	346.67777013778687	
72	307.2297570705414	pulse	1	t		70.0	2.5	/experiments/knapen_AOT/AOT_stimuli/rescaled_final/0386_fw.mp4	0.0	348.2784821987152	
72	307.3457190990448	fix_post	2		12	70.0	2.5	/experiments/knapen_AOT/AOT_stimuli/rescaled_final/0386_fw.mp4	0.0	348.3944442272186	0.09999394416809082
73	307.4457130432129	fix_pre	0		120	71.0	2.5	/experiments/knapen_AOT/AOT_stimuli/rescaled_final/0588_rv.mp4	0.0	348.4944381713867	1.000248908996582
73	308.4459619522095	movie	1		241	71.0	2.5	/experiments/knapen_AOT/AOT_stimuli/rescaled_final/0588_rv.mp4	0.0	349.4946870803833	2.4920389652252197
73	308.821182012558	pulse	1	t		71.0	2.5	/experiments/knapen_AOT/AOT_stimuli/rescaled_final/0588_rv.mp4	0.0	349.8699071407318	
73	310.4214069843292	pulse	1	t		71.0	2.5	/experiments/knapen_AOT/AOT_stimuli/rescaled_final/0588_rv.mp4	0.0	351.47013211250305	
73	310.9380009174347	fix_post	2		12	71.0	2.5	/experiments/knapen_AOT/AOT_stimuli/rescaled_final/0588_rv.mp4	0.0	351.9867260456085	0.09995317459106445
74	311.03795409202576	fix_pre	0		119	72.0	2.5	/experiments/knapen_AOT/AOT_stimuli/rescaled_final/1631_rv.mp4	0.0	352.0866792201996	0.9917728900909424
74	312.0216031074524	pulse	0	t		72.0	2.5	/experiments/knapen_AOT/AOT_stimuli/rescaled_final/1631_rv.mp4	0.0	353.0703282356262	
74	312.0297269821167	movie	1		243	72.0	2.5	/experiments/knapen_AOT/AOT_stimuli/rescaled_final/1631_rv.mp4	0.0	353.0784521102905	2.508729934692383
74	313.6230568885803	pulse	1	t		72.0	2.5	/experiments/knapen_AOT/AOT_stimuli/rescaled_final/1631_rv.mp4	0.0	354.67178201675415	
74	314.5384569168091	fix_post	2		12	72.0	2.5	/experiments/knapen_AOT/AOT_stimuli/rescaled_final/1631_rv.mp4	0.0	355.5871820449829	0.10000801086425781
75	314.63846492767334	fix_pre	0		120	73.0	2.5	/experiments/knapen_AOT/AOT_stimuli/rescaled_final/1143_fw.mp4	0.0	355.68719005584717	1.0001771450042725
75	315.2221369743347	pulse	0	t		73.0	2.5	/experiments/knapen_AOT/AOT_stimuli/rescaled_final/1143_fw.mp4	0.0	356.27086210250854	
75	315.6386420726776	movie	1		242	73.0	2.5	/experiments/knapen_AOT/AOT_stimuli/rescaled_final/1143_fw.mp4	0.0	356.68736720085144	2.5004689693450928
75	316.822468996048	pulse	1	t		73.0	2.5	/experiments/knapen_AOT/AOT_stimuli/rescaled_final/1143_fw.mp4	0.0	357.8711941242218	
75	318.1391110420227	fix_post	2		12	73.0	2.5	/experiments/knapen_AOT/AOT_stimuli/rescaled_final/1143_fw.mp4	0.0	359.18783617019653	0.09993600845336914
76	318.2390470504761	fix_pre	0		120	74.0	2.5	/experiments/knapen_AOT/AOT_stimuli/rescaled_final/0834_rv.mp4	0.0	359.2877721786499	1.0001399517059326
76	318.4224920272827	pulse	0	t		74.0	2.5	/experiments/knapen_AOT/AOT_stimuli/rescaled_final/0834_rv.mp4	0.0	359.47121715545654	
76	319.239187002182	movie	1		243	74.0	2.5	/experiments/knapen_AOT/AOT_stimuli/rescaled_final/0834_rv.mp4	0.0	360.28791213035583	2.5003199577331543
76	320.0227348804474	pulse	1	t		74.0	2.5	/experiments/knapen_AOT/AOT_stimuli/rescaled_final/0834_rv.mp4	0.0	361.0714600086212	
76	321.62279891967773	pulse	1	t		74.0	2.5	/experiments/knapen_AOT/AOT_stimuli/rescaled_final/0834_rv.mp4	0.0	362.67152404785156	
76	321.73950695991516	fix_post	2		12	74.0	2.5	/experiments/knapen_AOT/AOT_stimuli/rescaled_final/0834_rv.mp4	0.0	362.788232088089	0.10000896453857422
77	321.83951592445374	fix_pre	0		119	75.0	2.5	blank	1.0	362.88824105262756	0.9918360710144043
77	322.83135199546814	movie	1		300	75.0	2.5	blank	1.0	363.88007712364197	2.5003769397735596
77	323.22333788871765	pulse	1	t		75.0	2.5	blank	1.0	364.2720630168915	
77	324.8235580921173	pulse	1	t		75.0	2.5	blank	1.0	365.87228322029114	
77	325.3317289352417	fix_post	2		12	75.0	2.5	blank	1.0	366.3804540634155	0.10004305839538574
78	325.4317719936371	fix_pre	0		118	76.0	2.5	/experiments/knapen_AOT/AOT_stimuli/rescaled_final/1112_fw.mp4	0.0	366.4804971218109	1.0001161098480225
78	326.4236650466919	pulse	0	t		76.0	2.5	/experiments/knapen_AOT/AOT_stimuli/rescaled_final/1112_fw.mp4	0.0	367.4723901748657	
78	326.4318881034851	movie	1		243	76.0	2.5	/experiments/knapen_AOT/AOT_stimuli/rescaled_final/1112_fw.mp4	0.0	367.48061323165894	2.5086989402770996
78	328.02836894989014	pulse	1	t		76.0	2.5	/experiments/knapen_AOT/AOT_stimuli/rescaled_final/1112_fw.mp4	0.0	369.07709407806396	
78	328.9405870437622	fix_post	2		12	76.0	2.5	/experiments/knapen_AOT/AOT_stimuli/rescaled_final/1112_fw.mp4	0.0	369.98931217193604	0.09999704360961914
79	329.0405840873718	fix_pre	0		120	77.0	2.5	/experiments/knapen_AOT/AOT_stimuli/rescaled_final/2056_rv.mp4	0.0	370.08930921554565	1.0002379417419434
79	329.62432503700256	pulse	0	t		77.0	2.5	/experiments/knapen_AOT/AOT_stimuli/rescaled_final/2056_rv.mp4	0.0	370.6730501651764	
79	330.04082202911377	movie	1		243	77.0	2.5	/experiments/knapen_AOT/AOT_stimuli/rescaled_final/2056_rv.mp4	0.0	371.0895471572876	2.5003769397735596
79	331.2246470451355	pulse	1	t		77.0	2.5	/experiments/knapen_AOT/AOT_stimuli/rescaled_final/2056_rv.mp4	0.0	372.2733721733093	
79	332.54119896888733	fix_post	2		12	77.0	2.5	/experiments/knapen_AOT/AOT_stimuli/rescaled_final/2056_rv.mp4	0.0	373.58992409706116	0.09999704360961914
80	332.64119601249695	fix_pre	0		120	78.0	2.5	/experiments/knapen_AOT/AOT_stimuli/rescaled_final/1176_fw.mp4	0.0	373.6899211406708	1.0001490116119385
80	332.8246819972992	pulse	0	t		78.0	2.5	/experiments/knapen_AOT/AOT_stimuli/rescaled_final/1176_fw.mp4	0.0	373.873407125473	
80	333.6413450241089	movie	1		242	78.0	2.5	/experiments/knapen_AOT/AOT_stimuli/rescaled_final/1176_fw.mp4	0.0	374.6900701522827	2.5003628730773926
80	334.4249629974365	pulse	1	t		78.0	2.5	/experiments/knapen_AOT/AOT_stimuli/rescaled_final/1176_fw.mp4	0.0	375.47368812561035	
80	336.02492594718933	pulse	1	t		78.0	2.5	/experiments/knapen_AOT/AOT_stimuli/rescaled_final/1176_fw.mp4	0.0	377.07365107536316	
80	336.1417078971863	fix_post	2		12	78.0	2.5	/experiments/knapen_AOT/AOT_stimuli/rescaled_final/1176_fw.mp4	0.0	377.1904330253601	0.09996318817138672
81	336.24167108535767	fix_pre	0		120	79.0	2.5	/experiments/knapen_AOT/AOT_stimuli/rescaled_final/1368_rv.mp4	0.0	377.2903962135315	1.0001678466796875
81	337.24183893203735	movie	1		241	79.0	2.5	/experiments/knapen_AOT/AOT_stimuli/rescaled_final/1368_rv.mp4	0.0	378.2905640602112	2.4920971393585205
81	337.625981092453	pulse	1	t		79.0	2.5	/experiments/knapen_AOT/AOT_stimuli/rescaled_final/1368_rv.mp4	0.0	378.67470622062683	
81	339.2256700992584	pulse	1	t		79.0	2.5	/experiments/knapen_AOT/AOT_stimuli/rescaled_final/1368_rv.mp4	0.0	380.27439522743225	
81	339.7339360713959	fix_post	2		12	79.0	2.5	/experiments/knapen_AOT/AOT_stimuli/rescaled_final/1368_rv.mp4	0.0	380.7826611995697	0.0999898910522461
82	339.8339259624481	fix_pre	0		120	80.0	2.5	/experiments/knapen_AOT/AOT_stimuli/rescaled_final/0076_fw.mp4	0.0	380.88265109062195	1.0001590251922607
82	340.82583689689636	pulse	0	t		80.0	2.5	/experiments/knapen_AOT/AOT_stimuli/rescaled_final/0076_fw.mp4	0.0	381.8745620250702	
82	340.8340849876404	movie	1		245	80.0	2.5	/experiments/knapen_AOT/AOT_stimuli/rescaled_final/0076_fw.mp4	0.0	381.8828101158142	2.508760929107666
82	342.42739510536194	pulse	1	t		80.0	2.5	/experiments/knapen_AOT/AOT_stimuli/rescaled_final/0076_fw.mp4	0.0	383.47612023353577	
82	343.34284591674805	fix_post	2		12	80.0	2.5	/experiments/knapen_AOT/AOT_stimuli/rescaled_final/0076_fw.mp4	0.0	384.3915710449219	0.09997916221618652
83	343.44282507896423	fix_pre	0		120	81.0	2.5	/experiments/knapen_AOT/AOT_stimuli/rescaled_final/0283_rv.mp4	0.0	384.49155020713806	1.0001378059387207
83	344.02644205093384	pulse	0	t		81.0	2.5	/experiments/knapen_AOT/AOT_stimuli/rescaled_final/0283_rv.mp4	0.0	385.07516717910767	
83	344.44296288490295	movie	1		243	81.0	2.5	/experiments/knapen_AOT/AOT_stimuli/rescaled_final/0283_rv.mp4	0.0	385.4916880130768	2.500336170196533
83	345.6267900466919	pulse	1	t		81.0	2.5	/experiments/knapen_AOT/AOT_stimuli/rescaled_final/0283_rv.mp4	0.0	386.6755151748657	
83	346.9432990550995	fix_post	2		12	81.0	2.5	/experiments/knapen_AOT/AOT_stimuli/rescaled_final/0283_rv.mp4	0.0	387.9920241832733	0.10004305839538574
84	347.0433421134949	fix_pre	0		120	82.0	2.5	/experiments/knapen_AOT/AOT_stimuli/rescaled_final/1877_fw.mp4	0.0	388.0920672416687	1.000128984451294
84	347.2267920970917	pulse	0	t		82.0	2.5	/experiments/knapen_AOT/AOT_stimuli/rescaled_final/1877_fw.mp4	0.0	388.2755172252655	
84	348.04347109794617	movie	1		244	82.0	2.5	/experiments/knapen_AOT/AOT_stimuli/rescaled_final/1877_fw.mp4	0.0	389.09219622612	2.5003979206085205
84	348.8271460533142	pulse	1	t		82.0	2.5	/experiments/knapen_AOT/AOT_stimuli/rescaled_final/1877_fw.mp4	0.0	389.87587118148804	
84	350.42742395401	pulse	1	t		82.0	2.5	/experiments/knapen_AOT/AOT_stimuli/rescaled_final/1877_fw.mp4	0.0	391.47614908218384	
84	350.5438690185547	fix_post	2		12	82.0	2.5	/experiments/knapen_AOT/AOT_stimuli/rescaled_final/1877_fw.mp4	0.0	391.5925941467285	0.09997701644897461
85	350.64384603500366	fix_pre	0		119	83.0	2.5	blank	1.0	391.6925711631775	0.991847038269043
85	351.6356930732727	movie	1		300	83.0	2.5	blank	1.0	392.68441820144653	2.5003819465637207
85	352.02760910987854	pulse	1	t		83.0	2.5	blank	1.0	393.07633423805237	
85	353.62772393226624	pulse	1	t		83.0	2.5	blank	1.0	394.67644906044006	
85	354.1360750198364	fix_post	2		12	83.0	2.5	blank	1.0	395.18480014801025	0.10000991821289062
87	354.2360849380493	stim	0		1716					395.28481006622314	14.30222201347351
87	355.22802901268005	pulse	0	t						396.2767541408539	
87	356.82830905914307	pulse	0	t						397.8770341873169	
87	358.4285309314728	pulse	0	t						399.4772560596466	
87	360.02875995635986	pulse	0	t						401.0774850845337	
87	361.6216061115265	pulse	0	t						402.6703312397003	
87	363.22180008888245	pulse	0	t						404.2705252170563	
87	364.82205510139465	pulse	0	t						405.8707802295685	
87	366.42233204841614	pulse	0	t						407.47105717658997	
87	368.0225450992584	pulse	0	t						409.07127022743225	
