trial_nr	onset	event_type	phase	response	nr_frames	movie_index	movie_duration	movie_file	blank	onset_abs	duration
0	0.14988493919372559	stim	0		16					20.09972596168518	0.13604307174682617
0	0.2680020332336426	response	0	space						20.217843055725098	
1	0.28592801094055176	stim	0		4646					20.235769033432007	38.71375608444214
1	38.98868703842163	pulse	0	t						58.938528060913086	
1	38.99968409538269	stim	1		1717					58.949525117874146	14.308286905288696
1	40.583158016204834	pulse	1	t						60.53299903869629	
1	42.1831579208374	pulse	1	t						62.13299894332886	
1	43.78313708305359	pulse	1	t						63.732978105545044	
1	45.383198976516724	pulse	1	t						65.33303999900818	
1	46.98317909240723	pulse	1	t						66.93302011489868	
1	48.58315396308899	pulse	1	t						68.53299498558044	
1	50.18387293815613	pulse	1	t						70.13371396064758	
1	51.78386187553406	pulse	1	t						71.73370289802551	
2	53.30797100067139	fix_pre	0		11	0.0	2.5	/experiments/AOT/AOT_stimuli/rescaled_final/0030_fw.mp4	0.0	73.25781202316284	0.09160399436950684
2	53.38389492034912	pulse	0	t		0.0	2.5	/experiments/AOT/AOT_stimuli/rescaled_final/0030_fw.mp4	0.0	73.33373594284058	
2	53.399574995040894	movie	1		245	0.0	2.5	/experiments/AOT/AOT_stimuli/rescaled_final/0030_fw.mp4	0.0	73.34941601753235	2.508373975753784
2	54.98314595222473	pulse	1	t		0.0	2.5	/experiments/AOT/AOT_stimuli/rescaled_final/0030_fw.mp4	0.0	74.93298697471619	
2	55.90794897079468	fix_post	2		12	0.0	2.5	/experiments/AOT/AOT_stimuli/rescaled_final/0030_fw.mp4	0.0	75.85778999328613	0.09997296333312988
3	56.00792193412781	fix_pre	0		120	1.0	2.5	/experiments/AOT/AOT_stimuli/rescaled_final/0367_fw.mp4	0.0	75.95776295661926	0.9999680519104004
3	56.58310508728027	pulse	0	t		1.0	2.5	/experiments/AOT/AOT_stimuli/rescaled_final/0367_fw.mp4	0.0	76.53294610977173	
3	57.00788998603821	movie	1		244	1.0	2.5	/experiments/AOT/AOT_stimuli/rescaled_final/0367_fw.mp4	0.0	76.95773100852966	2.499648094177246
3	58.191417932510376	pulse	1	t		1.0	2.5	/experiments/AOT/AOT_stimuli/rescaled_final/0367_fw.mp4	0.0	78.14125895500183	
3	59.507538080215454	fix_post	2		12	1.0	2.5	/experiments/AOT/AOT_stimuli/rescaled_final/0367_fw.mp4	0.0	79.45737910270691	0.10038280487060547
4	59.60792088508606	fix_pre	0		120	2.0	2.5	/experiments/AOT/AOT_stimuli/rescaled_final/1211_fw.mp4	0.0	79.55776190757751	0.9999752044677734
4	59.78311204910278	pulse	0	t		2.0	2.5	/experiments/AOT/AOT_stimuli/rescaled_final/1211_fw.mp4	0.0	79.73295307159424	
4	60.60789608955383	movie	1		244	2.0	2.5	/experiments/AOT/AOT_stimuli/rescaled_final/1211_fw.mp4	0.0	80.55773711204529	2.500013828277588
4	61.3831090927124	pulse	1	t		2.0	2.5	/experiments/AOT/AOT_stimuli/rescaled_final/1211_fw.mp4	0.0	81.33295011520386	
4	62.98307204246521	pulse	1	t		2.0	2.5	/experiments/AOT/AOT_stimuli/rescaled_final/1211_fw.mp4	0.0	82.93291306495667	
4	63.10790991783142	fix_post	2		12	2.0	2.5	/experiments/AOT/AOT_stimuli/rescaled_final/1211_fw.mp4	0.0	83.05775094032288	0.09957695007324219
5	63.20748686790466	fix_pre	0		120	3.0	2.5	/experiments/AOT/AOT_stimuli/rescaled_final/1969_rv.mp4	0.0	83.15732789039612	1.0003771781921387
5	64.2078640460968	movie	1		244	3.0	2.5	/experiments/AOT/AOT_stimuli/rescaled_final/1969_rv.mp4	0.0	84.15770506858826	2.500140905380249
5	64.58300590515137	pulse	1	t		3.0	2.5	/experiments/AOT/AOT_stimuli/rescaled_final/1969_rv.mp4	0.0	84.53284692764282	
5	66.18396997451782	pulse	1	t		3.0	2.5	/experiments/AOT/AOT_stimuli/rescaled_final/1969_rv.mp4	0.0	86.13381099700928	
5	66.70800495147705	fix_post	2		12	3.0	2.5	/experiments/AOT/AOT_stimuli/rescaled_final/1969_rv.mp4	0.0	86.6578459739685	0.0999140739440918
6	66.80791902542114	fix_pre	0		119	4.0	2.5	/experiments/AOT/AOT_stimuli/rescaled_final/0853_rv.mp4	0.0	86.7577600479126	0.991663932800293
6	67.78389501571655	pulse	0	t		4.0	2.5	/experiments/AOT/AOT_stimuli/rescaled_final/0853_rv.mp4	0.0	87.73373603820801	
6	67.79958295822144	movie	1		248	4.0	2.5	/experiments/AOT/AOT_stimuli/rescaled_final/0853_rv.mp4	0.0	87.74942398071289	2.5081470012664795
6	69.3907859325409	pulse	1	t		4.0	2.5	/experiments/AOT/AOT_stimuli/rescaled_final/0853_rv.mp4	0.0	89.34062695503235	
6	70.30772995948792	fix_post	2		12	4.0	2.5	/experiments/AOT/AOT_stimuli/rescaled_final/0853_rv.mp4	0.0	90.25757098197937	0.09989213943481445
7	70.40762209892273	fix_pre	0		120	5.0	2.5	blank	1.0	90.35746312141418	1.0001277923583984
7	70.9832489490509	pulse	0	t		5.0	2.5	blank	1.0	90.93308997154236	
7	71.40774989128113	movie	1		300	5.0	2.5	blank	1.0	91.35759091377258	2.5001180171966553
7	72.5830910205841	pulse	1	t		5.0	2.5	blank	1.0	92.53293204307556	
7	73.90786790847778	fix_post	2		12	5.0	2.5	blank	1.0	93.85770893096924	0.09954619407653809
8	74.00741410255432	fix_pre	0		120	6.0	2.5	/experiments/AOT/AOT_stimuli/rescaled_final/0175_rv.mp4	0.0	93.95725512504578	1.0004379749298096
8	74.18304109573364	pulse	0	t		6.0	2.5	/experiments/AOT/AOT_stimuli/rescaled_final/0175_rv.mp4	0.0	94.1328821182251	
8	75.00785207748413	movie	1		244	6.0	2.5	/experiments/AOT/AOT_stimuli/rescaled_final/0175_rv.mp4	0.0	94.95769309997559	2.499499797821045
8	75.78294491767883	pulse	1	t		6.0	2.5	/experiments/AOT/AOT_stimuli/rescaled_final/0175_rv.mp4	0.0	95.73278594017029	
8	77.38291001319885	pulse	1	t		6.0	2.5	/experiments/AOT/AOT_stimuli/rescaled_final/0175_rv.mp4	0.0	97.33275103569031	
8	77.50735187530518	fix_post	2		12	6.0	2.5	/experiments/AOT/AOT_stimuli/rescaled_final/0175_rv.mp4	0.0	97.45719289779663	0.10049819946289062
9	77.60785007476807	fix_pre	0		120	7.0	2.5	/experiments/AOT/AOT_stimuli/rescaled_final/2094_fw.mp4	0.0	97.55769109725952	0.999985933303833
9	78.6078360080719	movie	1		242	7.0	2.5	/experiments/AOT/AOT_stimuli/rescaled_final/2094_fw.mp4	0.0	98.55767703056335	2.499561071395874
9	78.98292088508606	pulse	1	t		7.0	2.5	/experiments/AOT/AOT_stimuli/rescaled_final/2094_fw.mp4	0.0	98.93276190757751	
9	80.5830569267273	pulse	1	t		7.0	2.5	/experiments/AOT/AOT_stimuli/rescaled_final/2094_fw.mp4	0.0	100.53289794921875	
9	81.10739707946777	fix_post	2		12	7.0	2.5	/experiments/AOT/AOT_stimuli/rescaled_final/2094_fw.mp4	0.0	101.05723810195923	0.1003868579864502
10	81.20778393745422	fix_pre	0		119	8.0	2.5	/experiments/AOT/AOT_stimuli/rescaled_final/1312_rv.mp4	0.0	101.15762495994568	0.9917089939117432
10	82.18380403518677	pulse	0	t		8.0	2.5	/experiments/AOT/AOT_stimuli/rescaled_final/1312_rv.mp4	0.0	102.13364505767822	
10	82.19949293136597	movie	1		247	8.0	2.5	/experiments/AOT/AOT_stimuli/rescaled_final/1312_rv.mp4	0.0	102.14933395385742	2.5082881450653076
10	83.79101490974426	pulse	1	t		8.0	2.5	/experiments/AOT/AOT_stimuli/rescaled_final/1312_rv.mp4	0.0	103.74085593223572	
10	84.70778107643127	fix_post	2		12	8.0	2.5	/experiments/AOT/AOT_stimuli/rescaled_final/1312_rv.mp4	0.0	104.65762209892273	0.10010480880737305
11	84.80788588523865	fix_pre	0		120	9.0	2.5	/experiments/AOT/AOT_stimuli/rescaled_final/1034_fw.mp4	0.0	104.7577269077301	0.9999010562896729
11	85.38376998901367	pulse	0	t		9.0	2.5	/experiments/AOT/AOT_stimuli/rescaled_final/1034_fw.mp4	0.0	105.33361101150513	
11	85.80778694152832	movie	1		247	9.0	2.5	/experiments/AOT/AOT_stimuli/rescaled_final/1034_fw.mp4	0.0	105.75762796401978	2.4995949268341064
11	86.98411798477173	pulse	1	t		9.0	2.5	/experiments/AOT/AOT_stimuli/rescaled_final/1034_fw.mp4	0.0	106.93395900726318	
11	88.30738186836243	fix_post	2		12	9.0	2.5	/experiments/AOT/AOT_stimuli/rescaled_final/1034_fw.mp4	0.0	108.25722289085388	0.10035014152526855
12	88.4077320098877	fix_pre	0		120	10.0	2.5	/experiments/AOT/AOT_stimuli/rescaled_final/0658_fw.mp4	0.0	108.35757303237915	1.0000178813934326
12	88.5837619304657	pulse	0	t		10.0	2.5	/experiments/AOT/AOT_stimuli/rescaled_final/0658_fw.mp4	0.0	108.53360295295715	
12	89.40774989128113	movie	1		244	10.0	2.5	/experiments/AOT/AOT_stimuli/rescaled_final/0658_fw.mp4	0.0	109.35759091377258	2.500002145767212
12	90.18293595314026	pulse	1	t		10.0	2.5	/experiments/AOT/AOT_stimuli/rescaled_final/0658_fw.mp4	0.0	110.13277697563171	
12	91.78291893005371	pulse	1	t		10.0	2.5	/experiments/AOT/AOT_stimuli/rescaled_final/0658_fw.mp4	0.0	111.73275995254517	
12	91.90775203704834	fix_post	2		12	10.0	2.5	/experiments/AOT/AOT_stimuli/rescaled_final/0658_fw.mp4	0.0	111.8575930595398	0.1000208854675293
13	92.00777292251587	fix_pre	0		120	11.0	2.5	/experiments/AOT/AOT_stimuli/rescaled_final/2014_fw.mp4	0.0	111.95761394500732	0.9999620914459229
13	93.00773501396179	movie	1		247	11.0	2.5	/experiments/AOT/AOT_stimuli/rescaled_final/2014_fw.mp4	0.0	112.95757603645325	2.500087022781372
13	93.38292503356934	pulse	1	t		11.0	2.5	/experiments/AOT/AOT_stimuli/rescaled_final/2014_fw.mp4	0.0	113.33276605606079	
13	94.98299789428711	pulse	1	t		11.0	2.5	/experiments/AOT/AOT_stimuli/rescaled_final/2014_fw.mp4	0.0	114.93283891677856	
13	95.50782203674316	fix_post	2		12	11.0	2.5	/experiments/AOT/AOT_stimuli/rescaled_final/2014_fw.mp4	0.0	115.45766305923462	0.09950804710388184
14	95.60733008384705	fix_pre	0		118	12.0	2.5	/experiments/AOT/AOT_stimuli/rescaled_final/1860_fw.mp4	0.0	115.5571711063385	0.983771800994873
14	96.58284902572632	pulse	0	t		12.0	2.5	/experiments/AOT/AOT_stimuli/rescaled_final/1860_fw.mp4	0.0	116.53269004821777	
14	96.59110188484192	movie	1		246	12.0	2.5	/experiments/AOT/AOT_stimuli/rescaled_final/1860_fw.mp4	0.0	116.54094290733337	2.507866144180298
14	98.19123792648315	pulse	1	t		12.0	2.5	/experiments/AOT/AOT_stimuli/rescaled_final/1860_fw.mp4	0.0	118.14107894897461	
14	99.09896802902222	fix_post	2		12	12.0	2.5	/experiments/AOT/AOT_stimuli/rescaled_final/1860_fw.mp4	0.0	119.04880905151367	0.10045504570007324
15	99.19942307472229	fix_pre	0		120	13.0	2.5	blank	1.0	119.14926409721375	0.9995229244232178
15	99.7838020324707	pulse	0	t		13.0	2.5	blank	1.0	119.73364305496216	
15	100.19894599914551	movie	1		300	13.0	2.5	blank	1.0	120.14878702163696	2.50042986869812
15	101.3836898803711	pulse	1	t		13.0	2.5	blank	1.0	121.33353090286255	
15	102.69937586784363	fix_post	2		12	13.0	2.5	blank	1.0	122.64921689033508	0.09996914863586426
16	102.79934501647949	fix_pre	0		120	14.0	2.5	/experiments/AOT/AOT_stimuli/rescaled_final/0247_rv.mp4	0.0	122.74918603897095	1.0000569820404053
16	102.98369002342224	pulse	0	t		14.0	2.5	/experiments/AOT/AOT_stimuli/rescaled_final/0247_rv.mp4	0.0	122.9335310459137	
16	103.7994019985199	movie	1		246	14.0	2.5	/experiments/AOT/AOT_stimuli/rescaled_final/0247_rv.mp4	0.0	123.74924302101135	2.4995229244232178
16	104.58369088172913	pulse	1	t		14.0	2.5	/experiments/AOT/AOT_stimuli/rescaled_final/0247_rv.mp4	0.0	124.53353190422058	
16	106.19137597084045	pulse	1	t		14.0	2.5	/experiments/AOT/AOT_stimuli/rescaled_final/0247_rv.mp4	0.0	126.14121699333191	
16	106.29892492294312	fix_post	2		12	14.0	2.5	/experiments/AOT/AOT_stimuli/rescaled_final/0247_rv.mp4	0.0	126.24876594543457	0.10039305686950684
17	106.39931797981262	fix_pre	0		120	15.0	2.5	/experiments/AOT/AOT_stimuli/rescaled_final/1227_fw.mp4	0.0	126.34915900230408	0.9996209144592285
17	107.39893889427185	movie	1		246	15.0	2.5	/experiments/AOT/AOT_stimuli/rescaled_final/1227_fw.mp4	0.0	127.3487799167633	2.5003721714019775
17	107.79123497009277	pulse	1	t		15.0	2.5	/experiments/AOT/AOT_stimuli/rescaled_final/1227_fw.mp4	0.0	127.74107599258423	
17	109.38281202316284	pulse	1	t		15.0	2.5	/experiments/AOT/AOT_stimuli/rescaled_final/1227_fw.mp4	0.0	129.3326530456543	
17	109.89931106567383	fix_post	2		12	15.0	2.5	/experiments/AOT/AOT_stimuli/rescaled_final/1227_fw.mp4	0.0	129.84915208816528	0.09962797164916992
18	109.998939037323	fix_pre	0		119	16.0	2.5	/experiments/AOT/AOT_stimuli/rescaled_final/1174_rv.mp4	0.0	129.94878005981445	0.9920599460601807
18	110.9828040599823	pulse	0	t		16.0	2.5	/experiments/AOT/AOT_stimuli/rescaled_final/1174_rv.mp4	0.0	130.93264508247375	
18	110.99099898338318	movie	1		246	16.0	2.5	/experiments/AOT/AOT_stimuli/rescaled_final/1174_rv.mp4	0.0	130.94084000587463	2.508280038833618
18	112.59121894836426	pulse	1	t		16.0	2.5	/experiments/AOT/AOT_stimuli/rescaled_final/1174_rv.mp4	0.0	132.5410599708557	
18	113.4992790222168	fix_post	2		12	16.0	2.5	/experiments/AOT/AOT_stimuli/rescaled_final/1174_rv.mp4	0.0	133.44912004470825	0.09964299201965332
19	113.59892201423645	fix_pre	0		120	17.0	2.5	/experiments/AOT/AOT_stimuli/rescaled_final/1321_rv.mp4	0.0	133.5487630367279	1.0004050731658936
19	114.1835548877716	pulse	0	t		17.0	2.5	/experiments/AOT/AOT_stimuli/rescaled_final/1321_rv.mp4	0.0	134.13339591026306	
19	114.59932708740234	movie	1		244	17.0	2.5	/experiments/AOT/AOT_stimuli/rescaled_final/1321_rv.mp4	0.0	134.5491681098938	2.4999308586120605
19	115.78372192382812	pulse	1	t		17.0	2.5	/experiments/AOT/AOT_stimuli/rescaled_final/1321_rv.mp4	0.0	135.73356294631958	
19	117.0992579460144	fix_post	2		12	17.0	2.5	/experiments/AOT/AOT_stimuli/rescaled_final/1321_rv.mp4	0.0	137.04909896850586	0.10008406639099121
20	117.1993420124054	fix_pre	0		120	18.0	2.5	/experiments/AOT/AOT_stimuli/rescaled_final/1391_rv.mp4	0.0	137.14918303489685	0.9999299049377441
20	117.38358092308044	pulse	0	t		18.0	2.5	/experiments/AOT/AOT_stimuli/rescaled_final/1391_rv.mp4	0.0	137.3334219455719	
20	118.19927191734314	movie	1		244	18.0	2.5	/experiments/AOT/AOT_stimuli/rescaled_final/1391_rv.mp4	0.0	138.1491129398346	2.5000500679016113
20	118.98369002342224	pulse	1	t		18.0	2.5	/experiments/AOT/AOT_stimuli/rescaled_final/1391_rv.mp4	0.0	138.9335310459137	
20	120.59114599227905	pulse	1	t		18.0	2.5	/experiments/AOT/AOT_stimuli/rescaled_final/1391_rv.mp4	0.0	140.5409870147705	
20	120.69932198524475	fix_post	2		12	18.0	2.5	/experiments/AOT/AOT_stimuli/rescaled_final/1391_rv.mp4	0.0	140.6491630077362	0.09952592849731445
21	120.79884791374207	fix_pre	0		120	19.0	2.5	/experiments/AOT/AOT_stimuli/rescaled_final/0737_rv.mp4	0.0	140.74868893623352	1.0000131130218506
21	121.79886102676392	movie	1		246	19.0	2.5	/experiments/AOT/AOT_stimuli/rescaled_final/0737_rv.mp4	0.0	141.74870204925537	2.500030040740967
21	122.19116592407227	pulse	1	t		19.0	2.5	/experiments/AOT/AOT_stimuli/rescaled_final/0737_rv.mp4	0.0	142.14100694656372	
21	123.78353595733643	pulse	1	t		19.0	2.5	/experiments/AOT/AOT_stimuli/rescaled_final/0737_rv.mp4	0.0	143.73337697982788	
21	124.29889106750488	fix_post	2		12	19.0	2.5	/experiments/AOT/AOT_stimuli/rescaled_final/0737_rv.mp4	0.0	144.24873208999634	0.09999585151672363
22	124.3988869190216	fix_pre	0		120	20.0	2.5	/experiments/AOT/AOT_stimuli/rescaled_final/1408_fw.mp4	0.0	144.34872794151306	0.9999921321868896
22	125.38315796852112	pulse	0	t		20.0	2.5	/experiments/AOT/AOT_stimuli/rescaled_final/1408_fw.mp4	0.0	145.33299899101257	
22	125.3988790512085	movie	1		244	20.0	2.5	/experiments/AOT/AOT_stimuli/rescaled_final/1408_fw.mp4	0.0	145.34872007369995	2.5086159706115723
22	126.98290300369263	pulse	1	t		20.0	2.5	/experiments/AOT/AOT_stimuli/rescaled_final/1408_fw.mp4	0.0	146.93274402618408	
22	127.90749502182007	fix_post	2		12	20.0	2.5	/experiments/AOT/AOT_stimuli/rescaled_final/1408_fw.mp4	0.0	147.85733604431152	0.10008406639099121
23	128.00757908821106	fix_pre	0		120	21.0	2.5	blank	1.0	147.95742011070251	1.0000269412994385
23	128.58274292945862	pulse	0	t		21.0	2.5	blank	1.0	148.53258395195007	
23	129.0076060295105	movie	1		300	21.0	2.5	blank	1.0	148.95744705200195	2.4999608993530273
23	130.19114303588867	pulse	1	t		21.0	2.5	blank	1.0	150.14098405838013	
23	131.50756692886353	fix_post	2		12	21.0	2.5	blank	1.0	151.45740795135498	0.09962606430053711
24	131.60719299316406	fix_pre	0		120	22.0	2.5	/experiments/AOT/AOT_stimuli/rescaled_final/0519_rv.mp4	0.0	151.55703401565552	1.0003409385681152
24	131.78352904319763	pulse	0	t		22.0	2.5	/experiments/AOT/AOT_stimuli/rescaled_final/0519_rv.mp4	0.0	151.7333700656891	
24	132.60753393173218	movie	1		246	22.0	2.5	/experiments/AOT/AOT_stimuli/rescaled_final/0519_rv.mp4	0.0	152.55737495422363	2.499948024749756
24	133.38353490829468	pulse	1	t		22.0	2.5	/experiments/AOT/AOT_stimuli/rescaled_final/0519_rv.mp4	0.0	153.33337593078613	
24	134.9894790649414	pulse	1	t		22.0	2.5	/experiments/AOT/AOT_stimuli/rescaled_final/0519_rv.mp4	0.0	154.93932008743286	
24	135.10748195648193	fix_post	2		12	22.0	2.5	/experiments/AOT/AOT_stimuli/rescaled_final/0519_rv.mp4	0.0	155.0573229789734	0.10005307197570801
25	135.20753502845764	fix_pre	0		120	23.0	2.5	/experiments/AOT/AOT_stimuli/rescaled_final/1157_fw.mp4	0.0	155.1573760509491	1.0000078678131104
25	136.20754289627075	movie	1		246	23.0	2.5	/experiments/AOT/AOT_stimuli/rescaled_final/1157_fw.mp4	0.0	156.1573839187622	2.499514102935791
25	136.59090209007263	pulse	1	t		23.0	2.5	/experiments/AOT/AOT_stimuli/rescaled_final/1157_fw.mp4	0.0	156.5407431125641	
25	138.18376898765564	pulse	1	t		23.0	2.5	/experiments/AOT/AOT_stimuli/rescaled_final/1157_fw.mp4	0.0	158.1336100101471	
25	138.70705699920654	fix_post	2		12	23.0	2.5	/experiments/AOT/AOT_stimuli/rescaled_final/1157_fw.mp4	0.0	158.656898021698	0.10045099258422852
26	138.80750799179077	fix_pre	0		119	24.0	2.5	/experiments/AOT/AOT_stimuli/rescaled_final/0607_fw.mp4	0.0	158.75734901428223	0.9916911125183105
26	139.78365898132324	pulse	0	t		24.0	2.5	/experiments/AOT/AOT_stimuli/rescaled_final/0607_fw.mp4	0.0	159.7335000038147	
26	139.79919910430908	movie	1		247	24.0	2.5	/experiments/AOT/AOT_stimuli/rescaled_final/0607_fw.mp4	0.0	159.74904012680054	2.5078928470611572
26	141.390930891037	pulse	1	t		24.0	2.5	/experiments/AOT/AOT_stimuli/rescaled_final/0607_fw.mp4	0.0	161.34077191352844	
26	142.30709195137024	fix_post	2		12	24.0	2.5	/experiments/AOT/AOT_stimuli/rescaled_final/0607_fw.mp4	0.0	162.2569329738617	0.10037899017333984
27	142.40747094154358	fix_pre	0		120	25.0	2.5	/experiments/AOT/AOT_stimuli/rescaled_final/0367_fw.mp4	0.0	162.35731196403503	1.0000009536743164
27	142.9827959537506	pulse	0	t		25.0	2.5	/experiments/AOT/AOT_stimuli/rescaled_final/0367_fw.mp4	0.0	162.93263697624207	
27	143.4074718952179	movie	1		244	25.0	2.5	/experiments/AOT/AOT_stimuli/rescaled_final/0367_fw.mp4	0.0	163.35731291770935	2.50006103515625
27	144.59102392196655	pulse	1	t		25.0	2.5	/experiments/AOT/AOT_stimuli/rescaled_final/0367_fw.mp4	0.0	164.540864944458	
27	145.90753293037415	fix_post	2		12	25.0	2.5	/experiments/AOT/AOT_stimuli/rescaled_final/0367_fw.mp4	0.0	165.8573739528656	0.09998011589050293
28	146.00751304626465	fix_pre	0		120	26.0	2.5	blank	1.0	165.9573540687561	1.000013828277588
28	146.19096994400024	pulse	0	t		26.0	2.5	blank	1.0	166.1408109664917	
28	147.00752687454224	movie	1		300	26.0	2.5	blank	1.0	166.9573678970337	2.499974012374878
28	147.78341507911682	pulse	1	t		26.0	2.5	blank	1.0	167.73325610160828	
28	149.38338994979858	pulse	1	t		26.0	2.5	blank	1.0	169.33323097229004	
28	149.50750088691711	fix_post	2		12	26.0	2.5	blank	1.0	169.45734190940857	0.1001591682434082
29	149.60766005516052	fix_pre	0		120	27.0	2.5	/experiments/AOT/AOT_stimuli/rescaled_final/1639_fw.mp4	0.0	169.55750107765198	0.9998838901519775
29	150.6075439453125	movie	1		245	27.0	2.5	/experiments/AOT/AOT_stimuli/rescaled_final/1639_fw.mp4	0.0	170.55738496780396	2.4998841285705566
29	150.99061799049377	pulse	1	t		27.0	2.5	/experiments/AOT/AOT_stimuli/rescaled_final/1639_fw.mp4	0.0	170.94045901298523	
29	152.58358097076416	pulse	1	t		27.0	2.5	/experiments/AOT/AOT_stimuli/rescaled_final/1639_fw.mp4	0.0	172.53342199325562	
29	153.10742807388306	fix_post	2		12	27.0	2.5	/experiments/AOT/AOT_stimuli/rescaled_final/1639_fw.mp4	0.0	173.0572690963745	0.09994792938232422
30	153.20737600326538	fix_pre	0		119	28.0	2.5	/experiments/AOT/AOT_stimuli/rescaled_final/1967_rv.mp4	0.0	173.15721702575684	0.9917709827423096
30	154.18340396881104	pulse	0	t		28.0	2.5	/experiments/AOT/AOT_stimuli/rescaled_final/1967_rv.mp4	0.0	174.1332449913025	
30	154.1991469860077	movie	1		247	28.0	2.5	/experiments/AOT/AOT_stimuli/rescaled_final/1967_rv.mp4	0.0	174.14898800849915	2.508327007293701
30	155.7910659313202	pulse	1	t		28.0	2.5	/experiments/AOT/AOT_stimuli/rescaled_final/1967_rv.mp4	0.0	175.74090695381165	
30	156.7074739933014	fix_post	2		12	28.0	2.5	/experiments/AOT/AOT_stimuli/rescaled_final/1967_rv.mp4	0.0	176.65731501579285	0.09998893737792969
31	156.80746293067932	fix_pre	0		120	29.0	2.5	/experiments/AOT/AOT_stimuli/rescaled_final/1162_rv.mp4	0.0	176.75730395317078	0.9999010562896729
31	157.38337898254395	pulse	0	t		29.0	2.5	/experiments/AOT/AOT_stimuli/rescaled_final/1162_rv.mp4	0.0	177.3332200050354	
31	157.807363986969	movie	1		245	29.0	2.5	/experiments/AOT/AOT_stimuli/rescaled_final/1162_rv.mp4	0.0	177.75720500946045	2.4996490478515625
31	158.98366689682007	pulse	1	t		29.0	2.5	/experiments/AOT/AOT_stimuli/rescaled_final/1162_rv.mp4	0.0	178.93350791931152	
31	160.30701303482056	fix_post	2		12	29.0	2.5	/experiments/AOT/AOT_stimuli/rescaled_final/1162_rv.mp4	0.0	180.256854057312	0.1003868579864502
32	160.407399892807	fix_pre	0		120	30.0	2.5	/experiments/AOT/AOT_stimuli/rescaled_final/0289_rv.mp4	0.0	180.35724091529846	1.0000560283660889
32	160.5833489894867	pulse	0	t		30.0	2.5	/experiments/AOT/AOT_stimuli/rescaled_final/0289_rv.mp4	0.0	180.53319001197815	
32	161.4074559211731	movie	1		245	30.0	2.5	/experiments/AOT/AOT_stimuli/rescaled_final/0289_rv.mp4	0.0	181.35729694366455	2.4998841285705566
32	162.1910719871521	pulse	1	t		30.0	2.5	/experiments/AOT/AOT_stimuli/rescaled_final/0289_rv.mp4	0.0	182.14091300964355	
32	163.78703093528748	pulse	1	t		30.0	2.5	/experiments/AOT/AOT_stimuli/rescaled_final/0289_rv.mp4	0.0	183.73687195777893	
32	163.90734004974365	fix_post	2		12	30.0	2.5	/experiments/AOT/AOT_stimuli/rescaled_final/0289_rv.mp4	0.0	183.8571810722351	0.1000969409942627
33	164.00743699073792	fix_pre	0		120	31.0	2.5	/experiments/AOT/AOT_stimuli/rescaled_final/0665_fw.mp4	0.0	183.95727801322937	0.9995560646057129
33	165.00699305534363	movie	1		243	31.0	2.5	/experiments/AOT/AOT_stimuli/rescaled_final/0665_fw.mp4	0.0	184.95683407783508	2.5003929138183594
33	165.39232397079468	pulse	1	t		31.0	2.5	/experiments/AOT/AOT_stimuli/rescaled_final/0665_fw.mp4	0.0	185.34216499328613	
33	166.98363208770752	pulse	1	t		31.0	2.5	/experiments/AOT/AOT_stimuli/rescaled_final/0665_fw.mp4	0.0	186.93347311019897	
33	167.507385969162	fix_post	2		12	31.0	2.5	/experiments/AOT/AOT_stimuli/rescaled_final/0665_fw.mp4	0.0	187.45722699165344	0.09995913505554199
34	167.60734510421753	fix_pre	0		119	32.0	2.5	/experiments/AOT/AOT_stimuli/rescaled_final/1174_fw.mp4	0.0	187.55718612670898	0.9916198253631592
34	168.58334493637085	pulse	0	t		32.0	2.5	/experiments/AOT/AOT_stimuli/rescaled_final/1174_fw.mp4	0.0	188.5331859588623	
34	168.5989649295807	movie	1		244	32.0	2.5	/experiments/AOT/AOT_stimuli/rescaled_final/1174_fw.mp4	0.0	188.54880595207214	2.5084731578826904
34	170.19054293632507	pulse	1	t		32.0	2.5	/experiments/AOT/AOT_stimuli/rescaled_final/1174_fw.mp4	0.0	190.14038395881653	
34	171.10743808746338	fix_post	2		12	32.0	2.5	/experiments/AOT/AOT_stimuli/rescaled_final/1174_fw.mp4	0.0	191.05727910995483	0.09997296333312988
35	171.2074110507965	fix_pre	0		120	33.0	2.5	/experiments/AOT/AOT_stimuli/rescaled_final/0114_rv.mp4	0.0	191.15725207328796	0.9999740123748779
35	171.78332710266113	pulse	0	t		33.0	2.5	/experiments/AOT/AOT_stimuli/rescaled_final/0114_rv.mp4	0.0	191.7331681251526	
35	172.2073850631714	movie	1		244	33.0	2.5	/experiments/AOT/AOT_stimuli/rescaled_final/0114_rv.mp4	0.0	192.15722608566284	2.4995529651641846
35	173.39087891578674	pulse	1	t		33.0	2.5	/experiments/AOT/AOT_stimuli/rescaled_final/0114_rv.mp4	0.0	193.3407199382782	
35	174.70693802833557	fix_post	2		12	33.0	2.5	/experiments/AOT/AOT_stimuli/rescaled_final/0114_rv.mp4	0.0	194.65677905082703	0.1004328727722168
36	174.8073709011078	fix_pre	0		120	34.0	2.5	blank	1.0	194.75721192359924	1.0000600814819336
36	174.98332595825195	pulse	0	t		34.0	2.5	blank	1.0	194.9331669807434	
36	175.80743098258972	movie	1		300	34.0	2.5	blank	1.0	195.75727200508118	2.500009059906006
36	176.58328700065613	pulse	1	t		34.0	2.5	blank	1.0	196.53312802314758	
36	178.19079303741455	pulse	1	t		34.0	2.5	blank	1.0	198.140634059906	
36	178.30744004249573	fix_post	2		12	34.0	2.5	blank	1.0	198.25728106498718	0.09994983673095703
37	178.40738987922668	fix_pre	0		120	35.0	2.5	/experiments/AOT/AOT_stimuli/rescaled_final/1887_fw.mp4	0.0	198.35723090171814	0.9999730587005615
37	179.40736293792725	movie	1		245	35.0	2.5	/experiments/AOT/AOT_stimuli/rescaled_final/1887_fw.mp4	0.0	199.3572039604187	2.50004506111145
37	179.7909049987793	pulse	1	t		35.0	2.5	/experiments/AOT/AOT_stimuli/rescaled_final/1887_fw.mp4	0.0	199.74074602127075	
37	181.39079189300537	pulse	1	t		35.0	2.5	/experiments/AOT/AOT_stimuli/rescaled_final/1887_fw.mp4	0.0	201.34063291549683	
37	181.9074079990387	fix_post	2		12	35.0	2.5	/experiments/AOT/AOT_stimuli/rescaled_final/1887_fw.mp4	0.0	201.85724902153015	0.09955406188964844
38	182.00696206092834	fix_pre	0		119	36.0	2.5	/experiments/AOT/AOT_stimuli/rescaled_final/0550_rv.mp4	0.0	201.9568030834198	0.9922330379486084
38	182.99073195457458	pulse	0	t		36.0	2.5	/experiments/AOT/AOT_stimuli/rescaled_final/0550_rv.mp4	0.0	202.94057297706604	
38	182.99919509887695	movie	1		250	36.0	2.5	/experiments/AOT/AOT_stimuli/rescaled_final/0550_rv.mp4	0.0	202.9490361213684	2.508086919784546
38	184.59053492546082	pulse	1	t		36.0	2.5	/experiments/AOT/AOT_stimuli/rescaled_final/0550_rv.mp4	0.0	204.54037594795227	
38	185.5072820186615	fix_post	2		12	36.0	2.5	/experiments/AOT/AOT_stimuli/rescaled_final/0550_rv.mp4	0.0	205.45712304115295	0.10003089904785156
39	185.60731291770935	fix_pre	0		120	37.0	2.5	/experiments/AOT/AOT_stimuli/rescaled_final/0030_fw.mp4	0.0	205.5571539402008	0.9999420642852783
39	186.1833519935608	pulse	0	t		37.0	2.5	/experiments/AOT/AOT_stimuli/rescaled_final/0030_fw.mp4	0.0	206.13319301605225	
39	186.60725498199463	movie	1		246	37.0	2.5	/experiments/AOT/AOT_stimuli/rescaled_final/0030_fw.mp4	0.0	206.55709600448608	2.500044107437134
39	187.79082798957825	pulse	1	t		37.0	2.5	/experiments/AOT/AOT_stimuli/rescaled_final/0030_fw.mp4	0.0	207.7406690120697	
39	189.10729908943176	fix_post	2		12	37.0	2.5	/experiments/AOT/AOT_stimuli/rescaled_final/0030_fw.mp4	0.0	209.05714011192322	0.0999288558959961
40	189.20722794532776	fix_pre	0		120	38.0	2.5	/experiments/AOT/AOT_stimuli/rescaled_final/1467_fw.mp4	0.0	209.1570689678192	1.0000360012054443
40	189.38331389427185	pulse	0	t		38.0	2.5	/experiments/AOT/AOT_stimuli/rescaled_final/1467_fw.mp4	0.0	209.3331549167633	
40	190.2072639465332	movie	1		242	38.0	2.5	/experiments/AOT/AOT_stimuli/rescaled_final/1467_fw.mp4	0.0	210.15710496902466	2.499951124191284
40	190.98342895507812	pulse	1	t		38.0	2.5	/experiments/AOT/AOT_stimuli/rescaled_final/1467_fw.mp4	0.0	210.93326997756958	
40	192.58895301818848	pulse	1	t		38.0	2.5	/experiments/AOT/AOT_stimuli/rescaled_final/1467_fw.mp4	0.0	212.53879404067993	
40	192.7072150707245	fix_post	2		12	38.0	2.5	/experiments/AOT/AOT_stimuli/rescaled_final/1467_fw.mp4	0.0	212.65705609321594	0.09999489784240723
41	192.8072099685669	fix_pre	0		120	39.0	2.5	/experiments/AOT/AOT_stimuli/rescaled_final/1391_fw.mp4	0.0	212.75705099105835	0.9999990463256836
41	193.80720901489258	movie	1		243	39.0	2.5	/experiments/AOT/AOT_stimuli/rescaled_final/1391_fw.mp4	0.0	213.75705003738403	2.5000178813934326
41	194.19079899787903	pulse	1	t		39.0	2.5	/experiments/AOT/AOT_stimuli/rescaled_final/1391_fw.mp4	0.0	214.14064002037048	
41	195.7907109260559	pulse	1	t		39.0	2.5	/experiments/AOT/AOT_stimuli/rescaled_final/1391_fw.mp4	0.0	215.74055194854736	
41	196.307226896286	fix_post	2		12	39.0	2.5	/experiments/AOT/AOT_stimuli/rescaled_final/1391_fw.mp4	0.0	216.25706791877747	0.09994220733642578
42	196.40716910362244	fix_pre	0		119	40.0	2.5	blank	1.0	216.3570101261139	0.9917287826538086
42	197.3907699584961	pulse	0	t		40.0	2.5	blank	1.0	217.34061098098755	
42	197.39889788627625	movie	1		301	40.0	2.5	blank	1.0	217.3487389087677	2.508334159851074
42	198.99073886871338	pulse	1	t		40.0	2.5	blank	1.0	218.94057989120483	
42	199.90723204612732	fix_post	2		12	40.0	2.5	blank	1.0	219.85707306861877	0.09997296333312988
43	200.00720500946045	fix_pre	0		120	41.0	2.5	/experiments/AOT/AOT_stimuli/rescaled_final/0712_fw.mp4	0.0	219.9570460319519	0.9995598793029785
43	200.5833990573883	pulse	0	t		41.0	2.5	/experiments/AOT/AOT_stimuli/rescaled_final/0712_fw.mp4	0.0	220.53324007987976	
43	201.00676488876343	movie	1		247	41.0	2.5	/experiments/AOT/AOT_stimuli/rescaled_final/0712_fw.mp4	0.0	220.95660591125488	2.500030040740967
43	202.18334794044495	pulse	1	t		41.0	2.5	/experiments/AOT/AOT_stimuli/rescaled_final/0712_fw.mp4	0.0	222.1331889629364	
43	203.5067949295044	fix_post	2		12	41.0	2.5	/experiments/AOT/AOT_stimuli/rescaled_final/0712_fw.mp4	0.0	223.45663595199585	0.10040712356567383
44	203.60720205307007	fix_pre	0		120	42.0	2.5	/experiments/AOT/AOT_stimuli/rescaled_final/1716_rv.mp4	0.0	223.55704307556152	1.0000309944152832
44	203.78328204154968	pulse	0	t		42.0	2.5	/experiments/AOT/AOT_stimuli/rescaled_final/1716_rv.mp4	0.0	223.73312306404114	
44	204.60723304748535	movie	1		243	42.0	2.5	/experiments/AOT/AOT_stimuli/rescaled_final/1716_rv.mp4	0.0	224.5570740699768	2.499527931213379
44	205.38324308395386	pulse	1	t		42.0	2.5	/experiments/AOT/AOT_stimuli/rescaled_final/1716_rv.mp4	0.0	225.3330841064453	
44	206.9889109134674	pulse	1	t		42.0	2.5	/experiments/AOT/AOT_stimuli/rescaled_final/1716_rv.mp4	0.0	226.93875193595886	
44	207.10676097869873	fix_post	2		12	42.0	2.5	/experiments/AOT/AOT_stimuli/rescaled_final/1716_rv.mp4	0.0	227.05660200119019	0.10038590431213379
45	207.20714688301086	fix_pre	0		120	43.0	2.5	/experiments/AOT/AOT_stimuli/rescaled_final/0229_rv.mp4	0.0	227.15698790550232	1.0000979900360107
45	208.20724487304688	movie	1		243	43.0	2.5	/experiments/AOT/AOT_stimuli/rescaled_final/0229_rv.mp4	0.0	228.15708589553833	2.499927043914795
45	208.59046292304993	pulse	1	t		43.0	2.5	/experiments/AOT/AOT_stimuli/rescaled_final/0229_rv.mp4	0.0	228.54030394554138	
45	210.19057989120483	pulse	1	t		43.0	2.5	/experiments/AOT/AOT_stimuli/rescaled_final/0229_rv.mp4	0.0	230.1404209136963	
45	210.70717191696167	fix_post	2		12	43.0	2.5	/experiments/AOT/AOT_stimuli/rescaled_final/0229_rv.mp4	0.0	230.65701293945312	0.09961104393005371
46	210.80678296089172	fix_pre	0		119	44.0	2.5	/experiments/AOT/AOT_stimuli/rescaled_final/1545_fw.mp4	0.0	230.75662398338318	0.9920470714569092
46	211.79061794281006	pulse	0	t		44.0	2.5	/experiments/AOT/AOT_stimuli/rescaled_final/1545_fw.mp4	0.0	231.7404589653015	
46	211.79883003234863	movie	1		244	44.0	2.5	/experiments/AOT/AOT_stimuli/rescaled_final/1545_fw.mp4	0.0	231.7486710548401	2.5083839893341064
46	213.39029788970947	pulse	1	t		44.0	2.5	/experiments/AOT/AOT_stimuli/rescaled_final/1545_fw.mp4	0.0	233.34013891220093	
46	214.30721402168274	fix_post	2		12	44.0	2.5	/experiments/AOT/AOT_stimuli/rescaled_final/1545_fw.mp4	0.0	234.2570550441742	0.09993386268615723
47	214.4071478843689	fix_pre	0		120	45.0	2.5	/experiments/AOT/AOT_stimuli/rescaled_final/0954_fw.mp4	0.0	234.35698890686035	0.9999880790710449
47	214.99056100845337	pulse	0	t		45.0	2.5	/experiments/AOT/AOT_stimuli/rescaled_final/0954_fw.mp4	0.0	234.94040203094482	
47	215.40713596343994	movie	1		245	45.0	2.5	/experiments/AOT/AOT_stimuli/rescaled_final/0954_fw.mp4	0.0	235.3569769859314	2.4995501041412354
47	216.5907039642334	pulse	1	t		45.0	2.5	/experiments/AOT/AOT_stimuli/rescaled_final/0954_fw.mp4	0.0	236.54054498672485	
47	217.90668606758118	fix_post	2		12	45.0	2.5	/experiments/AOT/AOT_stimuli/rescaled_final/0954_fw.mp4	0.0	237.85652709007263	0.10039901733398438
48	218.00708508491516	fix_pre	0		120	46.0	2.5	/experiments/AOT/AOT_stimuli/rescaled_final/0413_rv.mp4	0.0	237.95692610740662	0.999985933303833
48	218.1906759738922	pulse	0	t		46.0	2.5	/experiments/AOT/AOT_stimuli/rescaled_final/0413_rv.mp4	0.0	238.14051699638367	
48	219.007071018219	movie	1		247	46.0	2.5	/experiments/AOT/AOT_stimuli/rescaled_final/0413_rv.mp4	0.0	238.95691204071045	2.500056028366089
48	219.7832489013672	pulse	1	t		46.0	2.5	/experiments/AOT/AOT_stimuli/rescaled_final/0413_rv.mp4	0.0	239.73308992385864	
48	221.38668990135193	pulse	1	t		46.0	2.5	/experiments/AOT/AOT_stimuli/rescaled_final/0413_rv.mp4	0.0	241.33653092384338	
48	221.50712704658508	fix_post	2		12	46.0	2.5	/experiments/AOT/AOT_stimuli/rescaled_final/0413_rv.mp4	0.0	241.45696806907654	0.09995484352111816
49	221.6070818901062	fix_pre	0		120	47.0	2.5	blank	1.0	241.55692291259766	0.9999880790710449
49	222.60706996917725	movie	1		300	47.0	2.5	blank	1.0	242.5569109916687	2.5001089572906494
49	222.98313903808594	pulse	1	t		47.0	2.5	blank	1.0	242.9329800605774	
49	224.5829770565033	pulse	1	t		47.0	2.5	blank	1.0	244.53281807899475	
49	225.1071789264679	fix_post	2		12	47.0	2.5	blank	1.0	245.05701994895935	0.09992599487304688
50	225.20710492134094	fix_pre	0		119	48.0	2.5	/experiments/AOT/AOT_stimuli/rescaled_final/1178_fw.mp4	0.0	245.1569459438324	0.991631031036377
50	226.1906280517578	pulse	0	t		48.0	2.5	/experiments/AOT/AOT_stimuli/rescaled_final/1178_fw.mp4	0.0	246.14046907424927	
50	226.19873595237732	movie	1		245	48.0	2.5	/experiments/AOT/AOT_stimuli/rescaled_final/1178_fw.mp4	0.0	246.14857697486877	2.5082669258117676
50	227.79031801223755	pulse	1	t		48.0	2.5	/experiments/AOT/AOT_stimuli/rescaled_final/1178_fw.mp4	0.0	247.740159034729	
50	228.7070028781891	fix_post	2		12	48.0	2.5	/experiments/AOT/AOT_stimuli/rescaled_final/1178_fw.mp4	0.0	248.65684390068054	0.10009312629699707
51	228.80709600448608	fix_pre	0		120	49.0	2.5	/experiments/AOT/AOT_stimuli/rescaled_final/0920_rv.mp4	0.0	248.75693702697754	0.9995870590209961
51	229.39066290855408	pulse	0	t		49.0	2.5	/experiments/AOT/AOT_stimuli/rescaled_final/0920_rv.mp4	0.0	249.34050393104553	
51	229.80668306350708	movie	1		242	49.0	2.5	/experiments/AOT/AOT_stimuli/rescaled_final/0920_rv.mp4	0.0	249.75652408599854	2.500347852706909
51	230.98344802856445	pulse	1	t		49.0	2.5	/experiments/AOT/AOT_stimuli/rescaled_final/0920_rv.mp4	0.0	250.9332890510559	
51	232.307030916214	fix_post	2		12	49.0	2.5	/experiments/AOT/AOT_stimuli/rescaled_final/0920_rv.mp4	0.0	252.25687193870544	0.1000511646270752
52	232.40708208084106	fix_pre	0		120	50.0	2.5	/experiments/AOT/AOT_stimuli/rescaled_final/0579_rv.mp4	0.0	252.35692310333252	0.9996018409729004
52	232.59074592590332	pulse	0	t		50.0	2.5	/experiments/AOT/AOT_stimuli/rescaled_final/0579_rv.mp4	0.0	252.54058694839478	
52	233.40668392181396	movie	1		243	50.0	2.5	/experiments/AOT/AOT_stimuli/rescaled_final/0579_rv.mp4	0.0	253.35652494430542	2.499951124191284
52	234.19056105613708	pulse	1	t		50.0	2.5	/experiments/AOT/AOT_stimuli/rescaled_final/0579_rv.mp4	0.0	254.14040207862854	
52	235.78895688056946	pulse	1	t		50.0	2.5	/experiments/AOT/AOT_stimuli/rescaled_final/0579_rv.mp4	0.0	255.7387979030609	
52	235.90663504600525	fix_post	2		12	50.0	2.5	/experiments/AOT/AOT_stimuli/rescaled_final/0579_rv.mp4	0.0	255.8564760684967	0.10040497779846191
53	236.0070400238037	fix_pre	0		120	51.0	2.5	/experiments/AOT/AOT_stimuli/rescaled_final/0607_rv.mp4	0.0	255.95688104629517	1.000011920928955
53	237.00705194473267	movie	1		244	51.0	2.5	/experiments/AOT/AOT_stimuli/rescaled_final/0607_rv.mp4	0.0	256.9568929672241	2.4999120235443115
53	237.39137291908264	pulse	1	t		51.0	2.5	/experiments/AOT/AOT_stimuli/rescaled_final/0607_rv.mp4	0.0	257.3412139415741	
53	238.98338508605957	pulse	1	t		51.0	2.5	/experiments/AOT/AOT_stimuli/rescaled_final/0607_rv.mp4	0.0	258.933226108551	
53	239.50696396827698	fix_post	2		12	51.0	2.5	/experiments/AOT/AOT_stimuli/rescaled_final/0607_rv.mp4	0.0	259.45680499076843	0.10045409202575684
54	239.60741806030273	fix_pre	0		119	52.0	2.5	/experiments/AOT/AOT_stimuli/rescaled_final/1967_rv.mp4	0.0	259.5572590827942	0.9913280010223389
54	240.58303093910217	pulse	0	t		52.0	2.5	/experiments/AOT/AOT_stimuli/rescaled_final/1967_rv.mp4	0.0	260.5328719615936	
54	240.59874606132507	movie	1		246	52.0	2.5	/experiments/AOT/AOT_stimuli/rescaled_final/1967_rv.mp4	0.0	260.5485870838165	2.5082569122314453
54	242.19021606445312	pulse	1	t		52.0	2.5	/experiments/AOT/AOT_stimuli/rescaled_final/1967_rv.mp4	0.0	262.1400570869446	
54	243.10700297355652	fix_post	2		12	52.0	2.5	/experiments/AOT/AOT_stimuli/rescaled_final/1967_rv.mp4	0.0	263.056843996048	0.10004901885986328
55	243.20705199241638	fix_pre	0		120	53.0	2.5	/experiments/AOT/AOT_stimuli/rescaled_final/0166_rv.mp4	0.0	263.15689301490784	0.9999170303344727
55	243.7905149459839	pulse	0	t		53.0	2.5	/experiments/AOT/AOT_stimuli/rescaled_final/0166_rv.mp4	0.0	263.74035596847534	
55	244.20696902275085	movie	1		245	53.0	2.5	/experiments/AOT/AOT_stimuli/rescaled_final/0166_rv.mp4	0.0	264.1568100452423	2.5001299381256104
55	245.39059710502625	pulse	1	t		53.0	2.5	/experiments/AOT/AOT_stimuli/rescaled_final/0166_rv.mp4	0.0	265.3404381275177	
55	246.70709896087646	fix_post	2		12	53.0	2.5	/experiments/AOT/AOT_stimuli/rescaled_final/0166_rv.mp4	0.0	266.6569399833679	0.0998239517211914
56	246.80692291259766	fix_pre	0		120	54.0	2.5	/experiments/AOT/AOT_stimuli/rescaled_final/1958_rv.mp4	0.0	266.7567639350891	1.0000791549682617
56	246.99042987823486	pulse	0	t		54.0	2.5	/experiments/AOT/AOT_stimuli/rescaled_final/1958_rv.mp4	0.0	266.9402709007263	
56	247.80700206756592	movie	1		245	54.0	2.5	/experiments/AOT/AOT_stimuli/rescaled_final/1958_rv.mp4	0.0	267.7568430900574	2.4999568462371826
56	248.59043788909912	pulse	1	t		54.0	2.5	/experiments/AOT/AOT_stimuli/rescaled_final/1958_rv.mp4	0.0	268.5402789115906	
56	250.18859100341797	pulse	1	t		54.0	2.5	/experiments/AOT/AOT_stimuli/rescaled_final/1958_rv.mp4	0.0	270.1384320259094	
56	250.3069589138031	fix_post	2		12	54.0	2.5	/experiments/AOT/AOT_stimuli/rescaled_final/1958_rv.mp4	0.0	270.25679993629456	0.10001611709594727
57	250.40697503089905	fix_pre	0		120	55.0	2.5	/experiments/AOT/AOT_stimuli/rescaled_final/1629_rv.mp4	0.0	270.3568160533905	0.9999759197235107
57	251.40695095062256	movie	1		244	55.0	2.5	/experiments/AOT/AOT_stimuli/rescaled_final/1629_rv.mp4	0.0	271.356791973114	2.499937057495117
57	251.78998398780823	pulse	1	t		55.0	2.5	/experiments/AOT/AOT_stimuli/rescaled_final/1629_rv.mp4	0.0	271.7398250102997	
57	253.38311409950256	pulse	1	t		55.0	2.5	/experiments/AOT/AOT_stimuli/rescaled_final/1629_rv.mp4	0.0	273.332955121994	
57	253.90688800811768	fix_post	2		12	55.0	2.5	/experiments/AOT/AOT_stimuli/rescaled_final/1629_rv.mp4	0.0	273.85672903060913	0.10004401206970215
58	254.00693202018738	fix_pre	0		119	56.0	2.5	blank	1.0	273.95677304267883	0.9917259216308594
58	254.98296904563904	pulse	0	t		56.0	2.5	blank	1.0	274.9328100681305	
58	254.99865794181824	movie	1		301	56.0	2.5	blank	1.0	274.9484989643097	2.508347988128662
58	256.58287286758423	pulse	1	t		56.0	2.5	blank	1.0	276.5327138900757	
58	257.5070059299469	fix_post	2		12	56.0	2.5	blank	1.0	277.45684695243835	0.09989595413208008
59	257.606901884079	fix_pre	0		120	57.0	2.5	/experiments/AOT/AOT_stimuli/rescaled_final/1343_fw.mp4	0.0	277.55674290657043	1.000014066696167
59	258.1904489994049	pulse	0	t		57.0	2.5	/experiments/AOT/AOT_stimuli/rescaled_final/1343_fw.mp4	0.0	278.14029002189636	
59	258.60691595077515	movie	1		244	57.0	2.5	/experiments/AOT/AOT_stimuli/rescaled_final/1343_fw.mp4	0.0	278.5567569732666	2.500025987625122
59	259.79040694236755	pulse	1	t		57.0	2.5	/experiments/AOT/AOT_stimuli/rescaled_final/1343_fw.mp4	0.0	279.740247964859	
59	261.10694193840027	fix_post	2		12	57.0	2.5	/experiments/AOT/AOT_stimuli/rescaled_final/1343_fw.mp4	0.0	281.0567829608917	0.100006103515625
60	261.2069480419159	fix_pre	0		120	58.0	2.5	/experiments/AOT/AOT_stimuli/rescaled_final/1628_rv.mp4	0.0	281.15678906440735	0.9999380111694336
60	261.39049196243286	pulse	0	t		58.0	2.5	/experiments/AOT/AOT_stimuli/rescaled_final/1628_rv.mp4	0.0	281.3403329849243	
60	262.2068860530853	movie	1		244	58.0	2.5	/experiments/AOT/AOT_stimuli/rescaled_final/1628_rv.mp4	0.0	282.1567270755768	2.5000038146972656
60	262.9904489517212	pulse	1	t		58.0	2.5	/experiments/AOT/AOT_stimuli/rescaled_final/1628_rv.mp4	0.0	282.94028997421265	
60	264.58880496025085	pulse	1	t		58.0	2.5	/experiments/AOT/AOT_stimuli/rescaled_final/1628_rv.mp4	0.0	284.5386459827423	
60	264.7068898677826	fix_post	2		12	58.0	2.5	/experiments/AOT/AOT_stimuli/rescaled_final/1628_rv.mp4	0.0	284.65673089027405	0.10002422332763672
61	264.80691409111023	fix_pre	0		120	59.0	2.5	/experiments/AOT/AOT_stimuli/rescaled_final/1207_fw.mp4	0.0	284.7567551136017	1.0000088214874268
61	265.80692291259766	movie	1		246	59.0	2.5	/experiments/AOT/AOT_stimuli/rescaled_final/1207_fw.mp4	0.0	285.7567639350891	2.499638080596924
61	266.19003200531006	pulse	1	t		59.0	2.5	/experiments/AOT/AOT_stimuli/rescaled_final/1207_fw.mp4	0.0	286.1398730278015	
61	267.7904589176178	pulse	1	t		59.0	2.5	/experiments/AOT/AOT_stimuli/rescaled_final/1207_fw.mp4	0.0	287.74029994010925	
61	268.3065609931946	fix_post	2		12	59.0	2.5	/experiments/AOT/AOT_stimuli/rescaled_final/1207_fw.mp4	0.0	288.25640201568604	0.10004591941833496
62	268.4066069126129	fix_pre	0		119	60.0	2.5	/experiments/AOT/AOT_stimuli/rescaled_final/0235_fw.mp4	0.0	288.35644793510437	0.9919750690460205
62	269.3903660774231	pulse	0	t		60.0	2.5	/experiments/AOT/AOT_stimuli/rescaled_final/0235_fw.mp4	0.0	289.34020709991455	
62	269.39858198165894	movie	1		247	60.0	2.5	/experiments/AOT/AOT_stimuli/rescaled_final/0235_fw.mp4	0.0	289.3484230041504	2.5078859329223633
62	270.99019503593445	pulse	1	t		60.0	2.5	/experiments/AOT/AOT_stimuli/rescaled_final/0235_fw.mp4	0.0	290.9400360584259	
62	271.9064679145813	fix_post	2		12	60.0	2.5	/experiments/AOT/AOT_stimuli/rescaled_final/0235_fw.mp4	0.0	291.85630893707275	0.10043597221374512
63	272.00690388679504	fix_pre	0		120	61.0	2.5	/experiments/AOT/AOT_stimuli/rescaled_final/0448_rv.mp4	0.0	291.9567449092865	0.9999561309814453
63	272.5828330516815	pulse	0	t		61.0	2.5	/experiments/AOT/AOT_stimuli/rescaled_final/0448_rv.mp4	0.0	292.532674074173	
63	273.0068600177765	movie	1		242	61.0	2.5	/experiments/AOT/AOT_stimuli/rescaled_final/0448_rv.mp4	0.0	292.95670104026794	2.500019073486328
63	274.19041109085083	pulse	1	t		61.0	2.5	/experiments/AOT/AOT_stimuli/rescaled_final/0448_rv.mp4	0.0	294.1402521133423	
63	275.5068790912628	fix_post	2		12	61.0	2.5	/experiments/AOT/AOT_stimuli/rescaled_final/0448_rv.mp4	0.0	295.4567201137543	0.0998837947845459
64	275.60676288604736	fix_pre	0		120	62.0	2.5	blank	1.0	295.5566039085388	1.0002100467681885
64	275.7903549671173	pulse	0	t		62.0	2.5	blank	1.0	295.74019598960876	
64	276.60697293281555	movie	1		300	62.0	2.5	blank	1.0	296.556813955307	2.4998910427093506
64	277.3903999328613	pulse	1	t		62.0	2.5	blank	1.0	297.3402409553528	
64	278.99033093452454	pulse	1	t		62.0	2.5	blank	1.0	298.940171957016	
64	279.1068639755249	fix_post	2		12	62.0	2.5	blank	1.0	299.05670499801636	0.0999290943145752
65	279.2067930698395	fix_pre	0		120	63.0	2.5	/experiments/AOT/AOT_stimuli/rescaled_final/1163_fw.mp4	0.0	299.15663409233093	1.0001018047332764
65	280.20689487457275	movie	1		243	63.0	2.5	/experiments/AOT/AOT_stimuli/rescaled_final/1163_fw.mp4	0.0	300.1567358970642	2.4999470710754395
65	280.59006690979004	pulse	1	t		63.0	2.5	/experiments/AOT/AOT_stimuli/rescaled_final/1163_fw.mp4	0.0	300.5399079322815	
65	282.1903328895569	pulse	1	t		63.0	2.5	/experiments/AOT/AOT_stimuli/rescaled_final/1163_fw.mp4	0.0	302.14017391204834	
65	282.7068419456482	fix_post	2		12	63.0	2.5	/experiments/AOT/AOT_stimuli/rescaled_final/1163_fw.mp4	0.0	302.65668296813965	0.09992504119873047
66	282.8067669868469	fix_pre	0		119	64.0	2.5	/experiments/AOT/AOT_stimuli/rescaled_final/0658_rv.mp4	0.0	302.7566080093384	0.991671085357666
66	283.79035687446594	pulse	0	t		64.0	2.5	/experiments/AOT/AOT_stimuli/rescaled_final/0658_rv.mp4	0.0	303.7401978969574	
66	283.7984380722046	movie	1		244	64.0	2.5	/experiments/AOT/AOT_stimuli/rescaled_final/0658_rv.mp4	0.0	303.74827909469604	2.508291006088257
66	285.39132809638977	pulse	1	t		64.0	2.5	/experiments/AOT/AOT_stimuli/rescaled_final/0658_rv.mp4	0.0	305.3411691188812	
66	286.30672907829285	fix_post	2		12	64.0	2.5	/experiments/AOT/AOT_stimuli/rescaled_final/0658_rv.mp4	0.0	306.2565701007843	0.1000828742980957
67	286.40681195259094	fix_pre	0		120	65.0	2.5	/experiments/AOT/AOT_stimuli/rescaled_final/1781_fw.mp4	0.0	306.3566529750824	0.999920129776001
67	286.990336894989	pulse	0	t		65.0	2.5	/experiments/AOT/AOT_stimuli/rescaled_final/1781_fw.mp4	0.0	306.94017791748047	
67	287.40673208236694	movie	1		244	65.0	2.5	/experiments/AOT/AOT_stimuli/rescaled_final/1781_fw.mp4	0.0	307.3565731048584	2.500095844268799
67	288.5902760028839	pulse	1	t		65.0	2.5	/experiments/AOT/AOT_stimuli/rescaled_final/1781_fw.mp4	0.0	308.54011702537537	
67	289.90682792663574	fix_post	2		12	65.0	2.5	/experiments/AOT/AOT_stimuli/rescaled_final/1781_fw.mp4	0.0	309.8566689491272	0.09996414184570312
68	290.00679206848145	fix_pre	0		120	66.0	2.5	/experiments/AOT/AOT_stimuli/rescaled_final/1511_fw.mp4	0.0	309.9566330909729	1.0000228881835938
68	290.1902949810028	pulse	0	t		66.0	2.5	/experiments/AOT/AOT_stimuli/rescaled_final/1511_fw.mp4	0.0	310.14013600349426	
68	291.00681495666504	movie	1		245	66.0	2.5	/experiments/AOT/AOT_stimuli/rescaled_final/1511_fw.mp4	0.0	310.9566559791565	2.500025987625122
68	291.7898120880127	pulse	1	t		66.0	2.5	/experiments/AOT/AOT_stimuli/rescaled_final/1511_fw.mp4	0.0	311.73965311050415	
68	293.38815999031067	pulse	1	t		66.0	2.5	/experiments/AOT/AOT_stimuli/rescaled_final/1511_fw.mp4	0.0	313.3380010128021	
68	293.50684094429016	fix_post	2		12	66.0	2.5	/experiments/AOT/AOT_stimuli/rescaled_final/1511_fw.mp4	0.0	313.4566819667816	0.10000896453857422
69	293.60684990882874	fix_pre	0		120	67.0	2.5	/experiments/AOT/AOT_stimuli/rescaled_final/2138_rv.mp4	0.0	313.5566909313202	0.999683141708374
69	294.6065330505371	movie	1		245	67.0	2.5	/experiments/AOT/AOT_stimuli/rescaled_final/2138_rv.mp4	0.0	314.55637407302856	2.500241994857788
69	294.99012303352356	pulse	1	t		67.0	2.5	/experiments/AOT/AOT_stimuli/rescaled_final/2138_rv.mp4	0.0	314.939964056015	
69	296.59037590026855	pulse	1	t		67.0	2.5	/experiments/AOT/AOT_stimuli/rescaled_final/2138_rv.mp4	0.0	316.54021692276	
69	297.1067750453949	fix_post	2		12	67.0	2.5	/experiments/AOT/AOT_stimuli/rescaled_final/2138_rv.mp4	0.0	317.05661606788635	0.09996891021728516
70	297.2067439556122	fix_pre	0		119	68.0	2.5	/experiments/AOT/AOT_stimuli/rescaled_final/1312_rv.mp4	0.0	317.15658497810364	0.9916610717773438
70	298.1903610229492	pulse	0	t		68.0	2.5	/experiments/AOT/AOT_stimuli/rescaled_final/1312_rv.mp4	0.0	318.1402020454407	
70	298.1984050273895	movie	1		246	68.0	2.5	/experiments/AOT/AOT_stimuli/rescaled_final/1312_rv.mp4	0.0	318.148246049881	2.5082929134368896
70	299.7902190685272	pulse	1	t		68.0	2.5	/experiments/AOT/AOT_stimuli/rescaled_final/1312_rv.mp4	0.0	319.7400600910187	
70	300.7066979408264	fix_post	2		12	68.0	2.5	/experiments/AOT/AOT_stimuli/rescaled_final/1312_rv.mp4	0.0	320.65653896331787	0.10000801086425781
71	300.8067059516907	fix_pre	0		120	69.0	2.5	blank	1.0	320.75654697418213	0.9996211528778076
71	301.3901879787445	pulse	0	t		69.0	2.5	blank	1.0	321.34002900123596	
71	301.8063271045685	movie	1		300	69.0	2.5	blank	1.0	321.75616812705994	2.499957799911499
71	302.9901819229126	pulse	1	t		69.0	2.5	blank	1.0	322.94002294540405	
71	304.30628490448	fix_post	2		12	69.0	2.5	blank	1.0	324.25612592697144	0.10042309761047363
72	304.40670800209045	fix_pre	0		120	70.0	2.5	/experiments/AOT/AOT_stimuli/rescaled_final/1321_fw.mp4	0.0	324.3565490245819	0.9999690055847168
72	304.59017992019653	pulse	0	t		70.0	2.5	/experiments/AOT/AOT_stimuli/rescaled_final/1321_fw.mp4	0.0	324.540020942688	
72	305.40667700767517	movie	1		245	70.0	2.5	/experiments/AOT/AOT_stimuli/rescaled_final/1321_fw.mp4	0.0	325.3565180301666	2.5000689029693604
72	306.190141916275	pulse	1	t		70.0	2.5	/experiments/AOT/AOT_stimuli/rescaled_final/1321_fw.mp4	0.0	326.1399829387665	
72	307.78626894950867	pulse	1	t		70.0	2.5	/experiments/AOT/AOT_stimuli/rescaled_final/1321_fw.mp4	0.0	327.7361099720001	
72	307.90674591064453	fix_post	2		12	70.0	2.5	/experiments/AOT/AOT_stimuli/rescaled_final/1321_fw.mp4	0.0	327.856586933136	0.10002398490905762
73	308.0067698955536	fix_pre	0		120	71.0	2.5	/experiments/AOT/AOT_stimuli/rescaled_final/2062_fw.mp4	0.0	327.95661091804504	0.9999351501464844
73	309.0067050457001	movie	1		246	71.0	2.5	/experiments/AOT/AOT_stimuli/rescaled_final/2062_fw.mp4	0.0	328.9565460681915	2.4997329711914062
73	309.3903329372406	pulse	1	t		71.0	2.5	/experiments/AOT/AOT_stimuli/rescaled_final/2062_fw.mp4	0.0	329.34017395973206	
73	310.9902319908142	pulse	1	t		71.0	2.5	/experiments/AOT/AOT_stimuli/rescaled_final/2062_fw.mp4	0.0	330.94007301330566	
73	311.5064380168915	fix_post	2		12	71.0	2.5	/experiments/AOT/AOT_stimuli/rescaled_final/2062_fw.mp4	0.0	331.45627903938293	0.10024094581604004
74	311.6066789627075	fix_pre	0		119	72.0	2.5	/experiments/AOT/AOT_stimuli/rescaled_final/0114_fw.mp4	0.0	331.556519985199	0.9916269779205322
74	312.59017395973206	pulse	0	t		72.0	2.5	/experiments/AOT/AOT_stimuli/rescaled_final/0114_fw.mp4	0.0	332.5400149822235	
74	312.59830594062805	movie	1		249	72.0	2.5	/experiments/AOT/AOT_stimuli/rescaled_final/0114_fw.mp4	0.0	332.5481469631195	2.5083601474761963
74	314.1902279853821	pulse	1	t		72.0	2.5	/experiments/AOT/AOT_stimuli/rescaled_final/0114_fw.mp4	0.0	334.14006900787354	
74	315.10666608810425	fix_post	2		12	72.0	2.5	/experiments/AOT/AOT_stimuli/rescaled_final/0114_fw.mp4	0.0	335.0565071105957	0.09997081756591797
75	315.20663690567017	fix_pre	0		120	73.0	2.5	/experiments/AOT/AOT_stimuli/rescaled_final/1526_rv.mp4	0.0	335.1564779281616	1.000089168548584
75	315.7839798927307	pulse	0	t		73.0	2.5	/experiments/AOT/AOT_stimuli/rescaled_final/1526_rv.mp4	0.0	335.73382091522217	
75	316.20672607421875	movie	1		247	73.0	2.5	/experiments/AOT/AOT_stimuli/rescaled_final/1526_rv.mp4	0.0	336.1565670967102	2.499964952468872
75	317.3902349472046	pulse	1	t		73.0	2.5	/experiments/AOT/AOT_stimuli/rescaled_final/1526_rv.mp4	0.0	337.34007596969604	
75	318.7066910266876	fix_post	2		12	73.0	2.5	/experiments/AOT/AOT_stimuli/rescaled_final/1526_rv.mp4	0.0	338.6565320491791	0.10000801086425781
76	318.8066990375519	fix_pre	0		120	74.0	2.5	/experiments/AOT/AOT_stimuli/rescaled_final/2126_rv.mp4	0.0	338.75654006004333	1.0000200271606445
76	318.9902060031891	pulse	0	t		74.0	2.5	/experiments/AOT/AOT_stimuli/rescaled_final/2126_rv.mp4	0.0	338.94004702568054	
76	319.8067190647125	movie	1		243	74.0	2.5	/experiments/AOT/AOT_stimuli/rescaled_final/2126_rv.mp4	0.0	339.756560087204	2.4995009899139404
76	320.5901610851288	pulse	1	t		74.0	2.5	/experiments/AOT/AOT_stimuli/rescaled_final/2126_rv.mp4	0.0	340.54000210762024	
76	322.18864488601685	pulse	1	t		74.0	2.5	/experiments/AOT/AOT_stimuli/rescaled_final/2126_rv.mp4	0.0	342.1384859085083	
76	322.30622005462646	fix_post	2		12	74.0	2.5	/experiments/AOT/AOT_stimuli/rescaled_final/2126_rv.mp4	0.0	342.2560610771179	0.10043096542358398
77	322.40665102005005	fix_pre	0		120	75.0	2.5	/experiments/AOT/AOT_stimuli/rescaled_final/0790_fw.mp4	0.0	342.3564920425415	0.9999558925628662
77	323.4066069126129	movie	1		244	75.0	2.5	/experiments/AOT/AOT_stimuli/rescaled_final/0790_fw.mp4	0.0	343.35644793510437	2.4995510578155518
77	323.791375875473	pulse	1	t		75.0	2.5	/experiments/AOT/AOT_stimuli/rescaled_final/0790_fw.mp4	0.0	343.7412168979645	
77	325.39012694358826	pulse	1	t		75.0	2.5	/experiments/AOT/AOT_stimuli/rescaled_final/0790_fw.mp4	0.0	345.3399679660797	
77	325.90615797042847	fix_post	2		12	75.0	2.5	/experiments/AOT/AOT_stimuli/rescaled_final/0790_fw.mp4	0.0	345.8559989929199	0.10046195983886719
78	326.00661993026733	fix_pre	0		119	76.0	2.5	blank	1.0	345.9564609527588	0.9915890693664551
78	326.9900860786438	pulse	0	t		76.0	2.5	blank	1.0	346.93992710113525	
78	326.9982089996338	movie	1		301	76.0	2.5	blank	1.0	346.94805002212524	2.5083789825439453
78	328.5901529788971	pulse	1	t		76.0	2.5	blank	1.0	348.53999400138855	
78	329.50658798217773	fix_post	2		12	76.0	2.5	blank	1.0	349.4564290046692	0.10004401206970215
79	329.60663199424744	fix_pre	0		120	77.0	2.5	/experiments/AOT/AOT_stimuli/rescaled_final/0333_fw.mp4	0.0	349.5564730167389	0.999985933303833
79	330.1901080608368	pulse	0	t		77.0	2.5	/experiments/AOT/AOT_stimuli/rescaled_final/0333_fw.mp4	0.0	350.13994908332825	
79	330.60661792755127	movie	1		245	77.0	2.5	/experiments/AOT/AOT_stimuli/rescaled_final/0333_fw.mp4	0.0	350.5564589500427	2.499972105026245
79	331.7901859283447	pulse	1	t		77.0	2.5	/experiments/AOT/AOT_stimuli/rescaled_final/0333_fw.mp4	0.0	351.7400269508362	
79	333.1065900325775	fix_post	2		12	77.0	2.5	/experiments/AOT/AOT_stimuli/rescaled_final/0333_fw.mp4	0.0	353.05643105506897	0.09993505477905273
80	333.20652508735657	fix_pre	0		120	78.0	2.5	/experiments/AOT/AOT_stimuli/rescaled_final/1726_fw.mp4	0.0	353.156366109848	0.9997348785400391
80	333.39012908935547	pulse	0	t		78.0	2.5	/experiments/AOT/AOT_stimuli/rescaled_final/1726_fw.mp4	0.0	353.3399701118469	
80	334.2062599658966	movie	1		245	78.0	2.5	/experiments/AOT/AOT_stimuli/rescaled_final/1726_fw.mp4	0.0	354.15610098838806	2.5003011226654053
80	334.9900860786438	pulse	1	t		78.0	2.5	/experiments/AOT/AOT_stimuli/rescaled_final/1726_fw.mp4	0.0	354.93992710113525	
80	336.5882589817047	pulse	1	t		78.0	2.5	/experiments/AOT/AOT_stimuli/rescaled_final/1726_fw.mp4	0.0	356.53810000419617	
80	336.706561088562	fix_post	2		12	78.0	2.5	/experiments/AOT/AOT_stimuli/rescaled_final/1726_fw.mp4	0.0	356.65640211105347	0.10000896453857422
81	336.8065700531006	fix_pre	0		120	79.0	2.5	/experiments/AOT/AOT_stimuli/rescaled_final/1935_fw.mp4	0.0	356.75641107559204	1.0000238418579102
81	337.8065938949585	movie	1		244	79.0	2.5	/experiments/AOT/AOT_stimuli/rescaled_final/1935_fw.mp4	0.0	357.75643491744995	2.4999680519104004
81	338.1897859573364	pulse	1	t		79.0	2.5	/experiments/AOT/AOT_stimuli/rescaled_final/1935_fw.mp4	0.0	358.1396269798279	
81	339.7900650501251	pulse	1	t		79.0	2.5	/experiments/AOT/AOT_stimuli/rescaled_final/1935_fw.mp4	0.0	359.7399060726166	
81	340.3065619468689	fix_post	2		12	79.0	2.5	/experiments/AOT/AOT_stimuli/rescaled_final/1935_fw.mp4	0.0	360.25640296936035	0.09993815422058105
82	340.4065001010895	fix_pre	0		119	80.0	2.5	/experiments/AOT/AOT_stimuli/rescaled_final/0030_rv.mp4	0.0	360.35634112358093	0.9917178153991699
82	341.39008593559265	pulse	0	t		80.0	2.5	/experiments/AOT/AOT_stimuli/rescaled_final/0030_rv.mp4	0.0	361.3399269580841	
82	341.39821791648865	movie	1		246	80.0	2.5	/experiments/AOT/AOT_stimuli/rescaled_final/0030_rv.mp4	0.0	361.3480589389801	2.5082571506500244
82	342.9899399280548	pulse	1	t		80.0	2.5	/experiments/AOT/AOT_stimuli/rescaled_final/0030_rv.mp4	0.0	362.93978095054626	
82	343.9064750671387	fix_post	2		12	80.0	2.5	/experiments/AOT/AOT_stimuli/rescaled_final/0030_rv.mp4	0.0	363.8563160896301	0.10007500648498535
83	344.00655007362366	fix_pre	0		120	81.0	2.5	/experiments/AOT/AOT_stimuli/rescaled_final/1856_fw.mp4	0.0	363.9563910961151	0.9999728202819824
83	344.5901138782501	pulse	0	t		81.0	2.5	/experiments/AOT/AOT_stimuli/rescaled_final/1856_fw.mp4	0.0	364.5399549007416	
83	345.00652289390564	movie	1		243	81.0	2.5	/experiments/AOT/AOT_stimuli/rescaled_final/1856_fw.mp4	0.0	364.9563639163971	2.4999899864196777
83	346.19019293785095	pulse	1	t		81.0	2.5	/experiments/AOT/AOT_stimuli/rescaled_final/1856_fw.mp4	0.0	366.1400339603424	
83	347.5065128803253	fix_post	2		12	81.0	2.5	/experiments/AOT/AOT_stimuli/rescaled_final/1856_fw.mp4	0.0	367.4563539028168	0.10001420974731445
84	347.60652709007263	fix_pre	0		120	82.0	2.5	/experiments/AOT/AOT_stimuli/rescaled_final/1518_fw.mp4	0.0	367.5563681125641	0.99965500831604
84	347.79000186920166	pulse	0	t		82.0	2.5	/experiments/AOT/AOT_stimuli/rescaled_final/1518_fw.mp4	0.0	367.7398428916931	
84	348.6061820983887	movie	1		244	82.0	2.5	/experiments/AOT/AOT_stimuli/rescaled_final/1518_fw.mp4	0.0	368.5560231208801	2.500201940536499
84	349.3896129131317	pulse	1	t		82.0	2.5	/experiments/AOT/AOT_stimuli/rescaled_final/1518_fw.mp4	0.0	369.33945393562317	
84	350.9879570007324	pulse	1	t		82.0	2.5	/experiments/AOT/AOT_stimuli/rescaled_final/1518_fw.mp4	0.0	370.9377980232239	
84	351.10638403892517	fix_post	2		12	82.0	2.5	/experiments/AOT/AOT_stimuli/rescaled_final/1518_fw.mp4	0.0	371.0562250614166	0.1000518798828125
85	351.206435918808	fix_pre	0		120	83.0	2.5	blank	1.0	371.15627694129944	1.0000770092010498
85	352.20651292800903	movie	1		300	83.0	2.5	blank	1.0	372.1563539505005	2.4999351501464844
85	352.5900208950043	pulse	1	t		83.0	2.5	blank	1.0	372.5398619174957	
85	354.1899929046631	pulse	1	t		83.0	2.5	blank	1.0	374.13983392715454	
85	354.7064480781555	fix_post	2		12	83.0	2.5	blank	1.0	374.656289100647	0.1000218391418457
87	354.80646991729736	stim	0		1716					374.7563109397888	14.299951076507568
87	355.79000997543335	pulse	0	t						375.7398509979248	
87	357.3899130821228	pulse	0	t						377.33975410461426	
87	358.98989391326904	pulse	0	t						378.9397349357605	
87	360.58995389938354	pulse	0	t						380.539794921875	
87	362.18983793258667	pulse	0	t						382.1396789550781	
87	363.7899658679962	pulse	0	t						383.73980689048767	
87	365.3898730278015	pulse	0	t						385.33971405029297	
87	366.9898838996887	pulse	0	t						386.9397249221802	
87	368.58993101119995	pulse	0	t						388.5397720336914	
