trial_nr	onset	event_type	phase	response	nr_frames	movie_index	movie_duration	movie_file	blank	onset_abs	duration
0	0.20813202857971191	stim	0		100					24.60669183731079	0.8334290981292725
0	1.0335590839385986	response	0	space						25.432118892669678	
1	1.0415611267089844	stim	0		4698					25.440120935440063	39.16616892814636
1	40.19805598258972	pulse	0	t						64.5966157913208	
1	40.20773005485535	stim	1		1715					64.60628986358643	14.300137042999268
1	41.789504051208496	pulse	1	t						66.18806385993958	
1	43.38976001739502	pulse	1	t						67.7883198261261	
1	44.98997616767883	pulse	1	t						69.38853597640991	
1	46.590152978897095	pulse	1	t						70.98871278762817	
1	48.190410137176514	pulse	1	t						72.58896994590759	
1	49.79073715209961	pulse	1	t						74.18929696083069	
1	51.39101314544678	pulse	1	t						75.78957295417786	
1	52.9911630153656	pulse	1	t						77.38972282409668	
2	54.507867097854614	fix_pre	0		11	0.0	2.5	/experiments/knapen_AOT/AOT_stimuli/rescaled_final/0105_rv.mp4	0.0	78.9064269065857	0.09171509742736816
2	54.59136509895325	pulse	0	t		0.0	2.5	/experiments/knapen_AOT/AOT_stimuli/rescaled_final/0105_rv.mp4	0.0	78.98992490768433	
2	54.59958219528198	movie	1		243	0.0	2.5	/experiments/knapen_AOT/AOT_stimuli/rescaled_final/0105_rv.mp4	0.0	78.99814200401306	2.5086278915405273
2	56.19278407096863	pulse	1	t		0.0	2.5	/experiments/knapen_AOT/AOT_stimuli/rescaled_final/0105_rv.mp4	0.0	80.5913438796997	
2	57.10821008682251	fix_post	2		12	0.0	2.5	/experiments/knapen_AOT/AOT_stimuli/rescaled_final/0105_rv.mp4	0.0	81.50676989555359	0.10003399848937988
3	57.20824408531189	fix_pre	0		120	1.0	2.5	/experiments/knapen_AOT/AOT_stimuli/rescaled_final/1092_rv.mp4	0.0	81.60680389404297	1.0001649856567383
3	57.791988134384155	pulse	0	t		1.0	2.5	/experiments/knapen_AOT/AOT_stimuli/rescaled_final/1092_rv.mp4	0.0	82.19054794311523	
3	58.20840907096863	movie	1		243	1.0	2.5	/experiments/knapen_AOT/AOT_stimuli/rescaled_final/1092_rv.mp4	0.0	82.6069688796997	2.5005760192871094
3	59.392266035079956	pulse	1	t		1.0	2.5	/experiments/knapen_AOT/AOT_stimuli/rescaled_final/1092_rv.mp4	0.0	83.79082584381104	
3	60.70898509025574	fix_post	2		12	1.0	2.5	/experiments/knapen_AOT/AOT_stimuli/rescaled_final/1092_rv.mp4	0.0	85.10754489898682	0.09980607032775879
4	60.808791160583496	fix_pre	0		120	2.0	2.5	/experiments/knapen_AOT/AOT_stimuli/rescaled_final/0765_rv.mp4	0.0	85.20735096931458	1.0001440048217773
4	60.99239802360535	pulse	0	t		2.0	2.5	/experiments/knapen_AOT/AOT_stimuli/rescaled_final/0765_rv.mp4	0.0	85.39095783233643	
4	61.80893516540527	movie	1		246	2.0	2.5	/experiments/knapen_AOT/AOT_stimuli/rescaled_final/0765_rv.mp4	0.0	86.20749497413635	2.5003859996795654
4	62.59254813194275	pulse	1	t		2.0	2.5	/experiments/knapen_AOT/AOT_stimuli/rescaled_final/0765_rv.mp4	0.0	86.99110794067383	
4	64.19294810295105	pulse	1	t		2.0	2.5	/experiments/knapen_AOT/AOT_stimuli/rescaled_final/0765_rv.mp4	0.0	88.59150791168213	
4	64.30932116508484	fix_post	2		12	2.0	2.5	/experiments/knapen_AOT/AOT_stimuli/rescaled_final/0765_rv.mp4	0.0	88.70788097381592	0.09999203681945801
5	64.4093132019043	fix_pre	0		119	3.0	2.5	/experiments/knapen_AOT/AOT_stimuli/rescaled_final/0160_fw.mp4	0.0	88.80787301063538	0.9918739795684814
5	65.40118718147278	movie	1		243	3.0	2.5	/experiments/knapen_AOT/AOT_stimuli/rescaled_final/0160_fw.mp4	0.0	89.79974699020386	2.500319004058838
5	65.79318714141846	pulse	1	t		3.0	2.5	/experiments/knapen_AOT/AOT_stimuli/rescaled_final/0160_fw.mp4	0.0	90.19174695014954	
5	67.39334201812744	pulse	1	t		3.0	2.5	/experiments/knapen_AOT/AOT_stimuli/rescaled_final/0160_fw.mp4	0.0	91.79190182685852	
5	67.90150618553162	fix_post	2		12	3.0	2.5	/experiments/knapen_AOT/AOT_stimuli/rescaled_final/0160_fw.mp4	0.0	92.3000659942627	0.10001778602600098
6	68.00152397155762	fix_pre	0		120	4.0	2.5	/experiments/knapen_AOT/AOT_stimuli/rescaled_final/0811_rv.mp4	0.0	92.4000837802887	1.0001630783081055
6	68.9935040473938	pulse	0	t		4.0	2.5	/experiments/knapen_AOT/AOT_stimuli/rescaled_final/0811_rv.mp4	0.0	93.39206385612488	
6	69.00168704986572	movie	1		245	4.0	2.5	/experiments/knapen_AOT/AOT_stimuli/rescaled_final/0811_rv.mp4	0.0	93.4002468585968	2.5086801052093506
6	70.5939040184021	pulse	1	t		4.0	2.5	/experiments/knapen_AOT/AOT_stimuli/rescaled_final/0811_rv.mp4	0.0	94.99246382713318	
6	71.51036715507507	fix_post	2		12	4.0	2.5	/experiments/knapen_AOT/AOT_stimuli/rescaled_final/0811_rv.mp4	0.0	95.90892696380615	0.10004687309265137
7	71.61041402816772	fix_pre	0		120	5.0	2.5	blank	1.0	96.0089738368988	1.0001440048217773
7	72.19412302970886	pulse	0	t		5.0	2.5	blank	1.0	96.59268283843994	
7	72.6105580329895	movie	1		300	5.0	2.5	blank	1.0	97.00911784172058	2.5004019737243652
7	73.78684496879578	pulse	1	t		5.0	2.5	blank	1.0	98.18540477752686	
7	75.11096000671387	fix_post	2		12	5.0	2.5	blank	1.0	99.50951981544495	0.0999751091003418
8	75.21093511581421	fix_pre	0		120	6.0	2.5	/experiments/knapen_AOT/AOT_stimuli/rescaled_final/0462_fw.mp4	0.0	99.60949492454529	1.000169038772583
8	75.38702702522278	pulse	0	t		6.0	2.5	/experiments/knapen_AOT/AOT_stimuli/rescaled_final/0462_fw.mp4	0.0	99.78558683395386	
8	76.21110415458679	movie	1		244	6.0	2.5	/experiments/knapen_AOT/AOT_stimuli/rescaled_final/0462_fw.mp4	0.0	100.60966396331787	2.5003859996795654
8	76.98719716072083	pulse	1	t		6.0	2.5	/experiments/knapen_AOT/AOT_stimuli/rescaled_final/0462_fw.mp4	0.0	101.3857569694519	
8	78.5963990688324	pulse	1	t		6.0	2.5	/experiments/knapen_AOT/AOT_stimuli/rescaled_final/0462_fw.mp4	0.0	102.99495887756348	
8	78.71149015426636	fix_post	2		12	6.0	2.5	/experiments/knapen_AOT/AOT_stimuli/rescaled_final/0462_fw.mp4	0.0	103.11004996299744	0.09999895095825195
9	78.81148910522461	fix_pre	0		119	7.0	2.5	/experiments/knapen_AOT/AOT_stimuli/rescaled_final/0637_rv.mp4	0.0	103.21004891395569	0.9918138980865479
9	79.80330300331116	movie	1		244	7.0	2.5	/experiments/knapen_AOT/AOT_stimuli/rescaled_final/0637_rv.mp4	0.0	104.20186281204224	2.5003411769866943
9	80.1878969669342	pulse	1	t		7.0	2.5	/experiments/knapen_AOT/AOT_stimuli/rescaled_final/0637_rv.mp4	0.0	104.58645677566528	
9	81.78705716133118	pulse	1	t		7.0	2.5	/experiments/knapen_AOT/AOT_stimuli/rescaled_final/0637_rv.mp4	0.0	106.18561697006226	
9	82.30364418029785	fix_post	2		12	7.0	2.5	/experiments/knapen_AOT/AOT_stimuli/rescaled_final/0637_rv.mp4	0.0	106.70220398902893	0.10003185272216797
10	82.40367603302002	fix_pre	0		119	8.0	2.5	/experiments/knapen_AOT/AOT_stimuli/rescaled_final/1228_fw.mp4	0.0	106.8022358417511	0.9918150901794434
10	83.3873860836029	pulse	0	t		8.0	2.5	/experiments/knapen_AOT/AOT_stimuli/rescaled_final/1228_fw.mp4	0.0	107.78594589233398	
10	83.39549112319946	movie	1		244	8.0	2.5	/experiments/knapen_AOT/AOT_stimuli/rescaled_final/1228_fw.mp4	0.0	107.79405093193054	2.508713960647583
10	84.99160599708557	pulse	1	t		8.0	2.5	/experiments/knapen_AOT/AOT_stimuli/rescaled_final/1228_fw.mp4	0.0	109.39016580581665	
10	85.90420508384705	fix_post	2		12	8.0	2.5	/experiments/knapen_AOT/AOT_stimuli/rescaled_final/1228_fw.mp4	0.0	110.30276489257812	0.09998106956481934
11	86.00418615341187	fix_pre	0		120	9.0	2.5	/experiments/knapen_AOT/AOT_stimuli/rescaled_final/1450_rv.mp4	0.0	110.40274596214294	1.0001749992370605
11	86.58790898323059	pulse	0	t		9.0	2.5	/experiments/knapen_AOT/AOT_stimuli/rescaled_final/1450_rv.mp4	0.0	110.98646879196167	
11	87.00436115264893	movie	1		243	9.0	2.5	/experiments/knapen_AOT/AOT_stimuli/rescaled_final/1450_rv.mp4	0.0	111.40292096138	2.5003609657287598
11	88.18827509880066	pulse	1	t		9.0	2.5	/experiments/knapen_AOT/AOT_stimuli/rescaled_final/1450_rv.mp4	0.0	112.58683490753174	
11	89.50472211837769	fix_post	2		12	9.0	2.5	/experiments/knapen_AOT/AOT_stimuli/rescaled_final/1450_rv.mp4	0.0	113.90328192710876	0.10003995895385742
12	89.60476207733154	fix_pre	0		120	10.0	2.5	/experiments/knapen_AOT/AOT_stimuli/rescaled_final/0077_rv.mp4	0.0	114.00332188606262	1.0001790523529053
12	89.78833818435669	pulse	0	t		10.0	2.5	/experiments/knapen_AOT/AOT_stimuli/rescaled_final/0077_rv.mp4	0.0	114.18689799308777	
12	90.60494112968445	movie	1		243	10.0	2.5	/experiments/knapen_AOT/AOT_stimuli/rescaled_final/0077_rv.mp4	0.0	115.00350093841553	2.5003418922424316
12	91.38849401473999	pulse	1	t		10.0	2.5	/experiments/knapen_AOT/AOT_stimuli/rescaled_final/0077_rv.mp4	0.0	115.78705382347107	
12	92.98874497413635	pulse	1	t		10.0	2.5	/experiments/knapen_AOT/AOT_stimuli/rescaled_final/0077_rv.mp4	0.0	117.38730478286743	
12	93.10528302192688	fix_post	2		12	10.0	2.5	/experiments/knapen_AOT/AOT_stimuli/rescaled_final/0077_rv.mp4	0.0	117.50384283065796	0.1000070571899414
13	93.20529007911682	fix_pre	0		119	11.0	2.5	/experiments/knapen_AOT/AOT_stimuli/rescaled_final/0393_fw.mp4	0.0	117.6038498878479	0.9918270111083984
13	94.19711709022522	movie	1		244	11.0	2.5	/experiments/knapen_AOT/AOT_stimuli/rescaled_final/0393_fw.mp4	0.0	118.5956768989563	2.5003550052642822
13	94.58914113044739	pulse	1	t		11.0	2.5	/experiments/knapen_AOT/AOT_stimuli/rescaled_final/0393_fw.mp4	0.0	118.98770093917847	
13	96.18938612937927	pulse	1	t		11.0	2.5	/experiments/knapen_AOT/AOT_stimuli/rescaled_final/0393_fw.mp4	0.0	120.58794593811035	
13	96.6974720954895	fix_post	2		12	11.0	2.5	/experiments/knapen_AOT/AOT_stimuli/rescaled_final/0393_fw.mp4	0.0	121.09603190422058	0.10000395774841309
14	96.79747605323792	fix_pre	0		120	12.0	2.5	blank	1.0	121.196035861969	1.0001609325408936
14	97.78946304321289	pulse	0	t		12.0	2.5	blank	1.0	122.18802285194397	
14	97.79763698577881	movie	1		301	12.0	2.5	blank	1.0	122.19619679450989	2.5087571144104004
14	99.38969111442566	pulse	1	t		12.0	2.5	blank	1.0	123.78825092315674	
14	100.30639410018921	fix_post	2		12	12.0	2.5	blank	1.0	124.70495390892029	0.09996294975280762
15	100.40635704994202	fix_pre	0		120	13.0	2.5	/experiments/knapen_AOT/AOT_stimuli/rescaled_final/0841_rv.mp4	0.0	124.8049168586731	1.000180959701538
15	100.99009299278259	pulse	0	t		13.0	2.5	/experiments/knapen_AOT/AOT_stimuli/rescaled_final/0841_rv.mp4	0.0	125.38865280151367	
15	101.40653800964355	movie	1		246	13.0	2.5	/experiments/knapen_AOT/AOT_stimuli/rescaled_final/0841_rv.mp4	0.0	125.80509781837463	2.500343084335327
15	102.5903069972992	pulse	1	t		13.0	2.5	/experiments/knapen_AOT/AOT_stimuli/rescaled_final/0841_rv.mp4	0.0	126.98886680603027	
15	103.90688109397888	fix_post	2		12	13.0	2.5	/experiments/knapen_AOT/AOT_stimuli/rescaled_final/0841_rv.mp4	0.0	128.30544090270996	0.10001587867736816
16	104.00689697265625	fix_pre	0		120	14.0	2.5	/experiments/knapen_AOT/AOT_stimuli/rescaled_final/1092_fw.mp4	0.0	128.40545678138733	1.0001771450042725
16	104.19044899940491	pulse	0	t		14.0	2.5	/experiments/knapen_AOT/AOT_stimuli/rescaled_final/1092_fw.mp4	0.0	128.589008808136	
16	105.00707411766052	movie	1		239	14.0	2.5	/experiments/knapen_AOT/AOT_stimuli/rescaled_final/1092_fw.mp4	0.0	129.4056339263916	2.5003490447998047
16	105.79070711135864	pulse	1	t		14.0	2.5	/experiments/knapen_AOT/AOT_stimuli/rescaled_final/1092_fw.mp4	0.0	130.18926692008972	
16	107.39094114303589	pulse	1	t		14.0	2.5	/experiments/knapen_AOT/AOT_stimuli/rescaled_final/1092_fw.mp4	0.0	131.78950095176697	
16	107.50742316246033	fix_post	2		12	14.0	2.5	/experiments/knapen_AOT/AOT_stimuli/rescaled_final/1092_fw.mp4	0.0	131.9059829711914	0.09998202323913574
17	107.60740518569946	fix_pre	0		119	15.0	2.5	/experiments/knapen_AOT/AOT_stimuli/rescaled_final/1228_rv.mp4	0.0	132.00596499443054	0.9918758869171143
17	108.59928107261658	movie	1		243	15.0	2.5	/experiments/knapen_AOT/AOT_stimuli/rescaled_final/1228_rv.mp4	0.0	132.99784088134766	2.500365972518921
17	108.99136519432068	pulse	1	t		15.0	2.5	/experiments/knapen_AOT/AOT_stimuli/rescaled_final/1228_rv.mp4	0.0	133.38992500305176	
17	110.59137606620789	pulse	1	t		15.0	2.5	/experiments/knapen_AOT/AOT_stimuli/rescaled_final/1228_rv.mp4	0.0	134.98993587493896	
17	111.0996470451355	fix_post	2		12	15.0	2.5	/experiments/knapen_AOT/AOT_stimuli/rescaled_final/1228_rv.mp4	0.0	135.49820685386658	0.09998202323913574
18	111.19962906837463	fix_pre	0		120	16.0	2.5	/experiments/knapen_AOT/AOT_stimuli/rescaled_final/1550_fw.mp4	0.0	135.5981888771057	1.0001730918884277
18	112.19169807434082	pulse	0	t		16.0	2.5	/experiments/knapen_AOT/AOT_stimuli/rescaled_final/1550_fw.mp4	0.0	136.5902578830719	
18	112.19980216026306	movie	1		246	16.0	2.5	/experiments/knapen_AOT/AOT_stimuli/rescaled_final/1550_fw.mp4	0.0	136.59836196899414	2.5087058544158936
18	113.79249715805054	pulse	1	t		16.0	2.5	/experiments/knapen_AOT/AOT_stimuli/rescaled_final/1550_fw.mp4	0.0	138.19105696678162	
18	114.70850801467896	fix_post	2		12	16.0	2.5	/experiments/knapen_AOT/AOT_stimuli/rescaled_final/1550_fw.mp4	0.0	139.10706782341003	0.09999299049377441
19	114.80850100517273	fix_pre	0		120	17.0	2.5	/experiments/knapen_AOT/AOT_stimuli/rescaled_final/1670_rv.mp4	0.0	139.2070608139038	1.0001981258392334
19	115.39217901229858	pulse	0	t		17.0	2.5	/experiments/knapen_AOT/AOT_stimuli/rescaled_final/1670_rv.mp4	0.0	139.79073882102966	
19	115.80869913101196	movie	1		244	17.0	2.5	/experiments/knapen_AOT/AOT_stimuli/rescaled_final/1670_rv.mp4	0.0	140.20725893974304	2.50032901763916
19	116.99251103401184	pulse	1	t		17.0	2.5	/experiments/knapen_AOT/AOT_stimuli/rescaled_final/1670_rv.mp4	0.0	141.39107084274292	
19	118.30902814865112	fix_post	2		12	17.0	2.5	/experiments/knapen_AOT/AOT_stimuli/rescaled_final/1670_rv.mp4	0.0	142.7075879573822	0.10000491142272949
20	118.40903306007385	fix_pre	0		120	18.0	2.5	/experiments/knapen_AOT/AOT_stimuli/rescaled_final/0797_fw.mp4	0.0	142.80759286880493	1.0001800060272217
20	118.5925920009613	pulse	0	t		18.0	2.5	/experiments/knapen_AOT/AOT_stimuli/rescaled_final/0797_fw.mp4	0.0	142.99115180969238	
20	119.40921306610107	movie	1		244	18.0	2.5	/experiments/knapen_AOT/AOT_stimuli/rescaled_final/0797_fw.mp4	0.0	143.80777287483215	2.5003669261932373
20	120.19288206100464	pulse	1	t		18.0	2.5	/experiments/knapen_AOT/AOT_stimuli/rescaled_final/0797_fw.mp4	0.0	144.59144186973572	
20	121.7935540676117	pulse	1	t		18.0	2.5	/experiments/knapen_AOT/AOT_stimuli/rescaled_final/0797_fw.mp4	0.0	146.19211387634277	
20	121.90957999229431	fix_post	2		12	18.0	2.5	/experiments/knapen_AOT/AOT_stimuli/rescaled_final/0797_fw.mp4	0.0	146.3081398010254	0.10005497932434082
21	122.00963497161865	fix_pre	0		120	19.0	2.5	/experiments/knapen_AOT/AOT_stimuli/rescaled_final/0158_rv.mp4	0.0	146.40819478034973	1.0001051425933838
21	123.00974011421204	movie	1		242	19.0	2.5	/experiments/knapen_AOT/AOT_stimuli/rescaled_final/0158_rv.mp4	0.0	147.40829992294312	2.4920570850372314
21	123.39375710487366	pulse	1	t		19.0	2.5	/experiments/knapen_AOT/AOT_stimuli/rescaled_final/0158_rv.mp4	0.0	147.79231691360474	
21	124.99354219436646	pulse	1	t		19.0	2.5	/experiments/knapen_AOT/AOT_stimuli/rescaled_final/0158_rv.mp4	0.0	149.39210200309753	
21	125.50179719924927	fix_post	2		12	19.0	2.5	/experiments/knapen_AOT/AOT_stimuli/rescaled_final/0158_rv.mp4	0.0	149.90035700798035	0.10006499290466309
22	125.60186219215393	fix_pre	0		120	20.0	2.5	blank	1.0	150.000422000885	1.0001049041748047
22	126.59380412101746	pulse	0	t		20.0	2.5	blank	1.0	150.99236392974854	
22	126.60196709632874	movie	1		301	20.0	2.5	blank	1.0	151.00052690505981	2.5086939334869385
22	128.19401097297668	pulse	1	t		20.0	2.5	blank	1.0	152.59257078170776	
22	129.11066102981567	fix_post	2		12	20.0	2.5	blank	1.0	153.50922083854675	0.10004305839538574
23	129.21070408821106	fix_pre	0		120	21.0	2.5	/experiments/knapen_AOT/AOT_stimuli/rescaled_final/0436_fw.mp4	0.0	153.60926389694214	1.0001180171966553
23	129.79433012008667	pulse	0	t		21.0	2.5	/experiments/knapen_AOT/AOT_stimuli/rescaled_final/0436_fw.mp4	0.0	154.19288992881775	
23	130.21082210540771	movie	1		244	21.0	2.5	/experiments/knapen_AOT/AOT_stimuli/rescaled_final/0436_fw.mp4	0.0	154.6093819141388	2.5003578662872314
23	131.39458918571472	pulse	1	t		21.0	2.5	/experiments/knapen_AOT/AOT_stimuli/rescaled_final/0436_fw.mp4	0.0	155.7931489944458	
23	132.71117997169495	fix_post	2		12	21.0	2.5	/experiments/knapen_AOT/AOT_stimuli/rescaled_final/0436_fw.mp4	0.0	157.10973978042603	0.10001301765441895
24	132.81119298934937	fix_pre	0		120	22.0	2.5	/experiments/knapen_AOT/AOT_stimuli/rescaled_final/1963_fw.mp4	0.0	157.20975279808044	1.0001561641693115
24	132.9948751926422	pulse	0	t		22.0	2.5	/experiments/knapen_AOT/AOT_stimuli/rescaled_final/1963_fw.mp4	0.0	157.3934350013733	
24	133.81134915351868	movie	1		244	22.0	2.5	/experiments/knapen_AOT/AOT_stimuli/rescaled_final/1963_fw.mp4	0.0	158.20990896224976	2.5004079341888428
24	134.58754706382751	pulse	1	t		22.0	2.5	/experiments/knapen_AOT/AOT_stimuli/rescaled_final/1963_fw.mp4	0.0	158.9861068725586	
24	136.1954309940338	pulse	1	t		22.0	2.5	/experiments/knapen_AOT/AOT_stimuli/rescaled_final/1963_fw.mp4	0.0	160.5939908027649	
24	136.31175708770752	fix_post	2		12	22.0	2.5	/experiments/knapen_AOT/AOT_stimuli/rescaled_final/1963_fw.mp4	0.0	160.7103168964386	0.09999489784240723
25	136.41175198554993	fix_pre	0		120	23.0	2.5	/experiments/knapen_AOT/AOT_stimuli/rescaled_final/2134_fw.mp4	0.0	160.810311794281	1.0001301765441895
25	137.41188216209412	movie	1		243	23.0	2.5	/experiments/knapen_AOT/AOT_stimuli/rescaled_final/2134_fw.mp4	0.0	161.8104419708252	2.492067813873291
25	137.7960901260376	pulse	1	t		23.0	2.5	/experiments/knapen_AOT/AOT_stimuli/rescaled_final/2134_fw.mp4	0.0	162.19464993476868	
25	139.38830518722534	pulse	1	t		23.0	2.5	/experiments/knapen_AOT/AOT_stimuli/rescaled_final/2134_fw.mp4	0.0	163.78686499595642	
25	139.9039499759674	fix_post	2		12	23.0	2.5	/experiments/knapen_AOT/AOT_stimuli/rescaled_final/2134_fw.mp4	0.0	164.3025097846985	0.09996414184570312
26	140.0039141178131	fix_pre	0		119	24.0	2.5	/experiments/knapen_AOT/AOT_stimuli/rescaled_final/1829_fw.mp4	0.0	164.4024739265442	0.9918420314788818
26	140.98761916160583	pulse	0	t		24.0	2.5	/experiments/knapen_AOT/AOT_stimuli/rescaled_final/1829_fw.mp4	0.0	165.3861789703369	
26	140.995756149292	movie	1		246	24.0	2.5	/experiments/knapen_AOT/AOT_stimuli/rescaled_final/1829_fw.mp4	0.0	165.39431595802307	2.50871205329895
26	142.58917999267578	pulse	1	t		24.0	2.5	/experiments/knapen_AOT/AOT_stimuli/rescaled_final/1829_fw.mp4	0.0	166.98773980140686	
26	143.50446820259094	fix_post	2		12	24.0	2.5	/experiments/knapen_AOT/AOT_stimuli/rescaled_final/1829_fw.mp4	0.0	167.90302801132202	0.10002899169921875
27	143.60449719429016	fix_pre	0		120	25.0	2.5	/experiments/knapen_AOT/AOT_stimuli/rescaled_final/1955_rv.mp4	0.0	168.00305700302124	1.0002458095550537
27	144.1882040500641	pulse	0	t		25.0	2.5	/experiments/knapen_AOT/AOT_stimuli/rescaled_final/1955_rv.mp4	0.0	168.58676385879517	
27	144.60474300384521	movie	1		243	25.0	2.5	/experiments/knapen_AOT/AOT_stimuli/rescaled_final/1955_rv.mp4	0.0	169.0033028125763	2.500231981277466
27	145.78843903541565	pulse	1	t		25.0	2.5	/experiments/knapen_AOT/AOT_stimuli/rescaled_final/1955_rv.mp4	0.0	170.18699884414673	
27	147.10497498512268	fix_post	2		12	25.0	2.5	/experiments/knapen_AOT/AOT_stimuli/rescaled_final/1955_rv.mp4	0.0	171.50353479385376	0.10004019737243652
28	147.20501518249512	fix_pre	0		120	26.0	2.5	blank	1.0	171.6035749912262	1.0002059936523438
28	147.38858914375305	pulse	0	t		26.0	2.5	blank	1.0	171.78714895248413	
28	148.20522117614746	movie	1		300	26.0	2.5	blank	1.0	172.60378098487854	2.5003488063812256
28	148.98884320259094	pulse	1	t		26.0	2.5	blank	1.0	173.38740301132202	
28	150.58902597427368	pulse	1	t		26.0	2.5	blank	1.0	174.98758578300476	
28	150.7055699825287	fix_post	2		12	26.0	2.5	blank	1.0	175.10412979125977	0.09998106956481934
29	150.8055510520935	fix_pre	0		120	27.0	2.5	/experiments/knapen_AOT/AOT_stimuli/rescaled_final/0378_fw.mp4	0.0	175.20411086082458	1.000154972076416
29	151.80570602416992	movie	1		244	27.0	2.5	/experiments/knapen_AOT/AOT_stimuli/rescaled_final/0378_fw.mp4	0.0	176.204265832901	2.4920520782470703
29	152.18948316574097	pulse	1	t		27.0	2.5	/experiments/knapen_AOT/AOT_stimuli/rescaled_final/0378_fw.mp4	0.0	176.58804297447205	
29	153.7895359992981	pulse	1	t		27.0	2.5	/experiments/knapen_AOT/AOT_stimuli/rescaled_final/0378_fw.mp4	0.0	178.18809580802917	
29	154.297758102417	fix_post	2		12	27.0	2.5	/experiments/knapen_AOT/AOT_stimuli/rescaled_final/0378_fw.mp4	0.0	178.69631791114807	0.10002398490905762
30	154.39778208732605	fix_pre	0		120	28.0	2.5	/experiments/knapen_AOT/AOT_stimuli/rescaled_final/0620_fw.mp4	0.0	178.79634189605713	1.0001349449157715
30	155.38983297348022	pulse	0	t		28.0	2.5	/experiments/knapen_AOT/AOT_stimuli/rescaled_final/0620_fw.mp4	0.0	179.7883927822113	
30	155.39791703224182	movie	1		244	28.0	2.5	/experiments/knapen_AOT/AOT_stimuli/rescaled_final/0620_fw.mp4	0.0	179.7964768409729	2.5087130069732666
30	156.9907431602478	pulse	1	t		28.0	2.5	/experiments/knapen_AOT/AOT_stimuli/rescaled_final/0620_fw.mp4	0.0	181.38930296897888	
30	157.9066300392151	fix_post	2		12	28.0	2.5	/experiments/knapen_AOT/AOT_stimuli/rescaled_final/0620_fw.mp4	0.0	182.30518984794617	0.10003399848937988
31	158.00666403770447	fix_pre	0		120	29.0	2.5	/experiments/knapen_AOT/AOT_stimuli/rescaled_final/0462_rv.mp4	0.0	182.40522384643555	1.0001201629638672
31	158.5902190208435	pulse	0	t		29.0	2.5	/experiments/knapen_AOT/AOT_stimuli/rescaled_final/0462_rv.mp4	0.0	182.98877882957458	
31	159.00678420066833	movie	1		244	29.0	2.5	/experiments/knapen_AOT/AOT_stimuli/rescaled_final/0462_rv.mp4	0.0	183.4053440093994	2.5003879070281982
31	160.19054317474365	pulse	1	t		29.0	2.5	/experiments/knapen_AOT/AOT_stimuli/rescaled_final/0462_rv.mp4	0.0	184.58910298347473	
31	161.50717210769653	fix_post	2		12	29.0	2.5	/experiments/knapen_AOT/AOT_stimuli/rescaled_final/0462_rv.mp4	0.0	185.9057319164276	0.10003995895385742
32	161.6072120666504	fix_pre	0		120	30.0	2.5	/experiments/knapen_AOT/AOT_stimuli/rescaled_final/0480_rv.mp4	0.0	186.00577187538147	1.0001671314239502
32	161.79079604148865	pulse	0	t		30.0	2.5	/experiments/knapen_AOT/AOT_stimuli/rescaled_final/0480_rv.mp4	0.0	186.18935585021973	
32	162.60737919807434	movie	1		242	30.0	2.5	/experiments/knapen_AOT/AOT_stimuli/rescaled_final/0480_rv.mp4	0.0	187.00593900680542	2.5003058910369873
32	163.3910939693451	pulse	1	t		30.0	2.5	/experiments/knapen_AOT/AOT_stimuli/rescaled_final/0480_rv.mp4	0.0	187.78965377807617	
32	164.988862991333	pulse	1	t		30.0	2.5	/experiments/knapen_AOT/AOT_stimuli/rescaled_final/0480_rv.mp4	0.0	189.3874228000641	
32	165.10768508911133	fix_post	2		12	30.0	2.5	/experiments/knapen_AOT/AOT_stimuli/rescaled_final/0480_rv.mp4	0.0	189.5062448978424	0.10006189346313477
33	165.20774698257446	fix_pre	0		120	31.0	2.5	/experiments/knapen_AOT/AOT_stimuli/rescaled_final/2153_fw.mp4	0.0	189.60630679130554	1.0001060962677002
33	166.20785307884216	movie	1		244	31.0	2.5	/experiments/knapen_AOT/AOT_stimuli/rescaled_final/2153_fw.mp4	0.0	190.60641288757324	2.4920830726623535
33	166.59197616577148	pulse	1	t		31.0	2.5	/experiments/knapen_AOT/AOT_stimuli/rescaled_final/2153_fw.mp4	0.0	190.99053597450256	
33	168.19178819656372	pulse	1	t		31.0	2.5	/experiments/knapen_AOT/AOT_stimuli/rescaled_final/2153_fw.mp4	0.0	192.5903480052948	
33	168.69993615150452	fix_post	2		12	31.0	2.5	/experiments/knapen_AOT/AOT_stimuli/rescaled_final/2153_fw.mp4	0.0	193.0984959602356	0.10004281997680664
34	168.79997897148132	fix_pre	0		120	32.0	2.5	/experiments/knapen_AOT/AOT_stimuli/rescaled_final/1774_fw.mp4	0.0	193.1985387802124	1.0001029968261719
34	169.79208397865295	pulse	0	t		32.0	2.5	/experiments/knapen_AOT/AOT_stimuli/rescaled_final/1774_fw.mp4	0.0	194.19064378738403	
34	169.8000819683075	movie	1		245	32.0	2.5	/experiments/knapen_AOT/AOT_stimuli/rescaled_final/1774_fw.mp4	0.0	194.19864177703857	2.5086920261383057
34	171.39285516738892	pulse	1	t		32.0	2.5	/experiments/knapen_AOT/AOT_stimuli/rescaled_final/1774_fw.mp4	0.0	195.79141497612	
34	172.3087739944458	fix_post	2		12	32.0	2.5	/experiments/knapen_AOT/AOT_stimuli/rescaled_final/1774_fw.mp4	0.0	196.70733380317688	0.10002803802490234
35	172.4088020324707	fix_pre	0		120	33.0	2.5	/experiments/knapen_AOT/AOT_stimuli/rescaled_final/1825_fw.mp4	0.0	196.80736184120178	1.0001239776611328
35	172.9923870563507	pulse	0	t		33.0	2.5	/experiments/knapen_AOT/AOT_stimuli/rescaled_final/1825_fw.mp4	0.0	197.3909468650818	
35	173.40892601013184	movie	1		243	33.0	2.5	/experiments/knapen_AOT/AOT_stimuli/rescaled_final/1825_fw.mp4	0.0	197.80748581886292	2.5003650188446045
35	174.59266901016235	pulse	1	t		33.0	2.5	/experiments/knapen_AOT/AOT_stimuli/rescaled_final/1825_fw.mp4	0.0	198.99122881889343	
35	175.90929102897644	fix_post	2		12	33.0	2.5	/experiments/knapen_AOT/AOT_stimuli/rescaled_final/1825_fw.mp4	0.0	200.30785083770752	0.10004615783691406
36	176.00933718681335	fix_pre	0		120	34.0	2.5	blank	1.0	200.40789699554443	1.0001399517059326
36	176.19289803504944	pulse	0	t		34.0	2.5	blank	1.0	200.59145784378052	
36	177.0094771385193	movie	1		300	34.0	2.5	blank	1.0	201.40803694725037	2.500375986099243
36	177.7931730747223	pulse	1	t		34.0	2.5	blank	1.0	202.19173288345337	
36	179.39342999458313	pulse	1	t		34.0	2.5	blank	1.0	203.7919898033142	
36	179.50985312461853	fix_post	2		12	34.0	2.5	blank	1.0	203.9084129333496	0.10002589225769043
37	179.60987901687622	fix_pre	0		120	35.0	2.5	/experiments/knapen_AOT/AOT_stimuli/rescaled_final/0477_rv.mp4	0.0	204.0084388256073	1.0001461505889893
37	180.6100251674652	movie	1		244	35.0	2.5	/experiments/knapen_AOT/AOT_stimuli/rescaled_final/0477_rv.mp4	0.0	205.0085849761963	2.4920778274536133
37	180.99508619308472	pulse	1	t		35.0	2.5	/experiments/knapen_AOT/AOT_stimuli/rescaled_final/0477_rv.mp4	0.0	205.3936460018158	
37	182.59393906593323	pulse	1	t		35.0	2.5	/experiments/knapen_AOT/AOT_stimuli/rescaled_final/0477_rv.mp4	0.0	206.9924988746643	
37	183.10210299491882	fix_post	2		12	35.0	2.5	/experiments/knapen_AOT/AOT_stimuli/rescaled_final/0477_rv.mp4	0.0	207.5006628036499	0.099945068359375
38	183.2020480632782	fix_pre	0		120	36.0	2.5	/experiments/knapen_AOT/AOT_stimuli/rescaled_final/0457_fw.mp4	0.0	207.60060787200928	1.0001790523529053
38	184.19421911239624	pulse	0	t		36.0	2.5	/experiments/knapen_AOT/AOT_stimuli/rescaled_final/0457_fw.mp4	0.0	208.59277892112732	
38	184.2022271156311	movie	1		245	36.0	2.5	/experiments/knapen_AOT/AOT_stimuli/rescaled_final/0457_fw.mp4	0.0	208.60078692436218	2.5086798667907715
38	185.79544615745544	pulse	1	t		36.0	2.5	/experiments/knapen_AOT/AOT_stimuli/rescaled_final/0457_fw.mp4	0.0	210.19400596618652	
38	186.71090698242188	fix_post	2		12	36.0	2.5	/experiments/knapen_AOT/AOT_stimuli/rescaled_final/0457_fw.mp4	0.0	211.10946679115295	0.10001420974731445
39	186.8109211921692	fix_pre	0		120	37.0	2.5	/experiments/knapen_AOT/AOT_stimuli/rescaled_final/0293_rv.mp4	0.0	211.20948100090027	1.000208854675293
39	187.38709115982056	pulse	0	t		37.0	2.5	/experiments/knapen_AOT/AOT_stimuli/rescaled_final/0293_rv.mp4	0.0	211.78565096855164	
39	187.81113004684448	movie	1		243	37.0	2.5	/experiments/knapen_AOT/AOT_stimuli/rescaled_final/0293_rv.mp4	0.0	212.20968985557556	2.500309944152832
39	188.99494004249573	pulse	1	t		37.0	2.5	/experiments/knapen_AOT/AOT_stimuli/rescaled_final/0293_rv.mp4	0.0	213.3934998512268	
39	190.31143999099731	fix_post	2		12	37.0	2.5	/experiments/knapen_AOT/AOT_stimuli/rescaled_final/0293_rv.mp4	0.0	214.7099997997284	0.10003209114074707
40	190.41147208213806	fix_pre	0		120	38.0	2.5	/experiments/knapen_AOT/AOT_stimuli/rescaled_final/0806_rv.mp4	0.0	214.81003189086914	1.0002059936523438
40	190.58748412132263	pulse	0	t		38.0	2.5	/experiments/knapen_AOT/AOT_stimuli/rescaled_final/0806_rv.mp4	0.0	214.9860439300537	
40	191.4116780757904	movie	1		243	38.0	2.5	/experiments/knapen_AOT/AOT_stimuli/rescaled_final/0806_rv.mp4	0.0	215.81023788452148	2.500368118286133
40	192.18788313865662	pulse	1	t		38.0	2.5	/experiments/knapen_AOT/AOT_stimuli/rescaled_final/0806_rv.mp4	0.0	216.5864429473877	
40	193.78736519813538	pulse	1	t		38.0	2.5	/experiments/knapen_AOT/AOT_stimuli/rescaled_final/0806_rv.mp4	0.0	218.18592500686646	
40	193.91204619407654	fix_post	2		12	38.0	2.5	/experiments/knapen_AOT/AOT_stimuli/rescaled_final/0806_rv.mp4	0.0	218.31060600280762	0.09995698928833008
41	194.01200318336487	fix_pre	0		120	39.0	2.5	/experiments/knapen_AOT/AOT_stimuli/rescaled_final/1419_rv.mp4	0.0	218.41056299209595	1.000152826309204
41	195.01215600967407	movie	1		243	39.0	2.5	/experiments/knapen_AOT/AOT_stimuli/rescaled_final/1419_rv.mp4	0.0	219.41071581840515	2.4920461177825928
41	195.38738012313843	pulse	1	t		39.0	2.5	/experiments/knapen_AOT/AOT_stimuli/rescaled_final/1419_rv.mp4	0.0	219.7859399318695	
41	196.98771119117737	pulse	1	t		39.0	2.5	/experiments/knapen_AOT/AOT_stimuli/rescaled_final/1419_rv.mp4	0.0	221.38627099990845	
41	197.50420212745667	fix_post	2		12	39.0	2.5	/experiments/knapen_AOT/AOT_stimuli/rescaled_final/1419_rv.mp4	0.0	221.90276193618774	0.10003399848937988
42	197.60423612594604	fix_pre	0		119	40.0	2.5	blank	1.0	222.00279593467712	0.9917929172515869
42	198.58798909187317	pulse	0	t		40.0	2.5	blank	1.0	222.98654890060425	
42	198.59602904319763	movie	1		301	40.0	2.5	blank	1.0	222.9945888519287	2.5087130069732666
42	200.18824410438538	pulse	1	t		40.0	2.5	blank	1.0	224.58680391311646	
42	201.1047420501709	fix_post	2		12	40.0	2.5	blank	1.0	225.50330185890198	0.10005307197570801
43	201.2047951221466	fix_pre	0		120	41.0	2.5	/experiments/knapen_AOT/AOT_stimuli/rescaled_final/0762_rv.mp4	0.0	225.60335493087769	1.0001258850097656
43	201.78840708732605	pulse	0	t		41.0	2.5	/experiments/knapen_AOT/AOT_stimuli/rescaled_final/0762_rv.mp4	0.0	226.18696689605713	
43	202.20492100715637	movie	1		245	41.0	2.5	/experiments/knapen_AOT/AOT_stimuli/rescaled_final/0762_rv.mp4	0.0	226.60348081588745	2.5003461837768555
43	203.3886730670929	pulse	1	t		41.0	2.5	/experiments/knapen_AOT/AOT_stimuli/rescaled_final/0762_rv.mp4	0.0	227.78723287582397	
43	204.70526719093323	fix_post	2		12	41.0	2.5	/experiments/knapen_AOT/AOT_stimuli/rescaled_final/0762_rv.mp4	0.0	229.1038269996643	0.10001277923583984
44	204.80527997016907	fix_pre	0		120	42.0	2.5	/experiments/knapen_AOT/AOT_stimuli/rescaled_final/0719_fw.mp4	0.0	229.20383977890015	1.0001580715179443
44	204.98881196975708	pulse	0	t		42.0	2.5	/experiments/knapen_AOT/AOT_stimuli/rescaled_final/0719_fw.mp4	0.0	229.38737177848816	
44	205.805438041687	movie	1		244	42.0	2.5	/experiments/knapen_AOT/AOT_stimuli/rescaled_final/0719_fw.mp4	0.0	230.2039978504181	2.500354051589966
44	206.58923316001892	pulse	1	t		42.0	2.5	/experiments/knapen_AOT/AOT_stimuli/rescaled_final/0719_fw.mp4	0.0	230.98779296875	
44	208.1896710395813	pulse	1	t		42.0	2.5	/experiments/knapen_AOT/AOT_stimuli/rescaled_final/0719_fw.mp4	0.0	232.58823084831238	
44	208.30579209327698	fix_post	2		12	42.0	2.5	/experiments/knapen_AOT/AOT_stimuli/rescaled_final/0719_fw.mp4	0.0	232.70435190200806	0.10003805160522461
45	208.4058301448822	fix_pre	0		120	43.0	2.5	/experiments/knapen_AOT/AOT_stimuli/rescaled_final/0390_fw.mp4	0.0	232.80438995361328	1.0001699924468994
45	209.4060001373291	movie	1		243	43.0	2.5	/experiments/knapen_AOT/AOT_stimuli/rescaled_final/0390_fw.mp4	0.0	233.80455994606018	2.4920499324798584
45	209.79023098945618	pulse	1	t		43.0	2.5	/experiments/knapen_AOT/AOT_stimuli/rescaled_final/0390_fw.mp4	0.0	234.18879079818726	
45	211.38988518714905	pulse	1	t		43.0	2.5	/experiments/knapen_AOT/AOT_stimuli/rescaled_final/0390_fw.mp4	0.0	235.78844499588013	
45	211.89805006980896	fix_post	2		12	43.0	2.5	/experiments/knapen_AOT/AOT_stimuli/rescaled_final/0390_fw.mp4	0.0	236.29660987854004	0.09998393058776855
46	211.99803400039673	fix_pre	0		120	44.0	2.5	/experiments/knapen_AOT/AOT_stimuli/rescaled_final/1761_rv.mp4	0.0	236.3965938091278	1.0001380443572998
46	212.99005317687988	pulse	0	t		44.0	2.5	/experiments/knapen_AOT/AOT_stimuli/rescaled_final/1761_rv.mp4	0.0	237.38861298561096	
46	212.99817204475403	movie	1		245	44.0	2.5	/experiments/knapen_AOT/AOT_stimuli/rescaled_final/1761_rv.mp4	0.0	237.3967318534851	2.5087790489196777
46	214.59230303764343	pulse	1	t		44.0	2.5	/experiments/knapen_AOT/AOT_stimuli/rescaled_final/1761_rv.mp4	0.0	238.9908628463745	
46	215.5069510936737	fix_post	2		12	44.0	2.5	/experiments/knapen_AOT/AOT_stimuli/rescaled_final/1761_rv.mp4	0.0	239.90551090240479	0.09999704360961914
47	215.60694813728333	fix_pre	0		120	45.0	2.5	/experiments/knapen_AOT/AOT_stimuli/rescaled_final/1626_fw.mp4	0.0	240.0055079460144	1.0001208782196045
47	216.19049501419067	pulse	0	t		45.0	2.5	/experiments/knapen_AOT/AOT_stimuli/rescaled_final/1626_fw.mp4	0.0	240.58905482292175	
47	216.60706901550293	movie	1		244	45.0	2.5	/experiments/knapen_AOT/AOT_stimuli/rescaled_final/1626_fw.mp4	0.0	241.005628824234	2.5003299713134766
47	217.79082918167114	pulse	1	t		45.0	2.5	/experiments/knapen_AOT/AOT_stimuli/rescaled_final/1626_fw.mp4	0.0	242.18938899040222	
47	219.1073989868164	fix_post	2		12	45.0	2.5	/experiments/knapen_AOT/AOT_stimuli/rescaled_final/1626_fw.mp4	0.0	243.50595879554749	0.10004711151123047
48	219.20744609832764	fix_pre	0		120	46.0	2.5	/experiments/knapen_AOT/AOT_stimuli/rescaled_final/0762_rv.mp4	0.0	243.60600590705872	1.0002000331878662
48	219.39098405838013	pulse	0	t		46.0	2.5	/experiments/knapen_AOT/AOT_stimuli/rescaled_final/0762_rv.mp4	0.0	243.7895438671112	
48	220.2076461315155	movie	1		245	46.0	2.5	/experiments/knapen_AOT/AOT_stimuli/rescaled_final/0762_rv.mp4	0.0	244.60620594024658	2.5003390312194824
48	220.99138116836548	pulse	1	t		46.0	2.5	/experiments/knapen_AOT/AOT_stimuli/rescaled_final/0762_rv.mp4	0.0	245.38994097709656	
48	222.58901500701904	pulse	1	t		46.0	2.5	/experiments/knapen_AOT/AOT_stimuli/rescaled_final/0762_rv.mp4	0.0	246.98757481575012	
48	222.70798516273499	fix_post	2		12	46.0	2.5	/experiments/knapen_AOT/AOT_stimuli/rescaled_final/0762_rv.mp4	0.0	247.10654497146606	0.10011792182922363
49	222.8081030845642	fix_pre	0		120	47.0	2.5	/experiments/knapen_AOT/AOT_stimuli/rescaled_final/1138_rv.mp4	0.0	247.2066628932953	1.0000360012054443
49	223.80813908576965	movie	1		239	47.0	2.5	/experiments/knapen_AOT/AOT_stimuli/rescaled_final/1138_rv.mp4	0.0	248.20669889450073	2.492055892944336
49	224.1921420097351	pulse	1	t		47.0	2.5	/experiments/knapen_AOT/AOT_stimuli/rescaled_final/1138_rv.mp4	0.0	248.5907018184662	
49	225.79203820228577	pulse	1	t		47.0	2.5	/experiments/knapen_AOT/AOT_stimuli/rescaled_final/1138_rv.mp4	0.0	250.19059801101685	
49	226.300194978714	fix_post	2		12	47.0	2.5	/experiments/knapen_AOT/AOT_stimuli/rescaled_final/1138_rv.mp4	0.0	250.69875478744507	0.09998416900634766
50	226.40017914772034	fix_pre	0		120	48.0	2.5	/experiments/knapen_AOT/AOT_stimuli/rescaled_final/0724_fw.mp4	0.0	250.79873895645142	1.0001459121704102
50	227.39220213890076	pulse	0	t		48.0	2.5	/experiments/knapen_AOT/AOT_stimuli/rescaled_final/0724_fw.mp4	0.0	251.79076194763184	
50	227.40032505989075	movie	1		248	48.0	2.5	/experiments/knapen_AOT/AOT_stimuli/rescaled_final/0724_fw.mp4	0.0	251.79888486862183	2.508687973022461
50	228.99284100532532	pulse	1	t		48.0	2.5	/experiments/knapen_AOT/AOT_stimuli/rescaled_final/0724_fw.mp4	0.0	253.3914008140564	
50	229.9090130329132	fix_post	2		12	48.0	2.5	/experiments/knapen_AOT/AOT_stimuli/rescaled_final/0724_fw.mp4	0.0	254.3075728416443	0.10006403923034668
51	230.00907707214355	fix_pre	0		120	49.0	2.5	blank	1.0	254.40763688087463	1.000154972076416
51	230.59271216392517	pulse	0	t		49.0	2.5	blank	1.0	254.99127197265625	
51	231.00923204421997	movie	1		300	49.0	2.5	blank	1.0	255.40779185295105	2.5003819465637207
51	232.1930480003357	pulse	1	t		49.0	2.5	blank	1.0	256.5916078090668	
51	233.5096139907837	fix_post	2		12	49.0	2.5	blank	1.0	257.90817379951477	0.0999760627746582
52	233.60959005355835	fix_pre	0		120	50.0	2.5	/experiments/knapen_AOT/AOT_stimuli/rescaled_final/2084_fw.mp4	0.0	258.00814986228943	1.0001449584960938
52	233.793151140213	pulse	0	t		50.0	2.5	/experiments/knapen_AOT/AOT_stimuli/rescaled_final/2084_fw.mp4	0.0	258.1917109489441	
52	234.60973501205444	movie	1		243	50.0	2.5	/experiments/knapen_AOT/AOT_stimuli/rescaled_final/2084_fw.mp4	0.0	259.0082948207855	2.500364065170288
52	235.39334416389465	pulse	1	t		50.0	2.5	/experiments/knapen_AOT/AOT_stimuli/rescaled_final/2084_fw.mp4	0.0	259.79190397262573	
52	236.9936511516571	pulse	1	t		50.0	2.5	/experiments/knapen_AOT/AOT_stimuli/rescaled_final/2084_fw.mp4	0.0	261.3922109603882	
52	237.11009907722473	fix_post	2		12	50.0	2.5	/experiments/knapen_AOT/AOT_stimuli/rescaled_final/2084_fw.mp4	0.0	261.5086588859558	0.10003805160522461
53	237.21013712882996	fix_pre	0		120	51.0	2.5	/experiments/knapen_AOT/AOT_stimuli/rescaled_final/2150_rv.mp4	0.0	261.60869693756104	1.000166893005371
53	238.21030402183533	movie	1		242	51.0	2.5	/experiments/knapen_AOT/AOT_stimuli/rescaled_final/2150_rv.mp4	0.0	262.6088638305664	2.491976022720337
53	238.59414505958557	pulse	1	t		51.0	2.5	/experiments/knapen_AOT/AOT_stimuli/rescaled_final/2150_rv.mp4	0.0	262.99270486831665	
53	240.19420099258423	pulse	1	t		51.0	2.5	/experiments/knapen_AOT/AOT_stimuli/rescaled_final/2150_rv.mp4	0.0	264.5927608013153	
53	240.70228004455566	fix_post	2		12	51.0	2.5	/experiments/knapen_AOT/AOT_stimuli/rescaled_final/2150_rv.mp4	0.0	265.10083985328674	0.10004496574401855
54	240.80232501029968	fix_pre	0		120	52.0	2.5	/experiments/knapen_AOT/AOT_stimuli/rescaled_final/1474_fw.mp4	0.0	265.20088481903076	1.0001740455627441
54	241.79436111450195	pulse	0	t		52.0	2.5	/experiments/knapen_AOT/AOT_stimuli/rescaled_final/1474_fw.mp4	0.0	266.19292092323303	
54	241.80249905586243	movie	1		245	52.0	2.5	/experiments/knapen_AOT/AOT_stimuli/rescaled_final/1474_fw.mp4	0.0	266.2010588645935	2.5086910724639893
54	243.39497900009155	pulse	1	t		52.0	2.5	/experiments/knapen_AOT/AOT_stimuli/rescaled_final/1474_fw.mp4	0.0	267.79353880882263	
54	244.31119012832642	fix_post	2		12	52.0	2.5	/experiments/knapen_AOT/AOT_stimuli/rescaled_final/1474_fw.mp4	0.0	268.7097499370575	0.1000058650970459
55	244.41119599342346	fix_pre	0		120	53.0	2.5	/experiments/knapen_AOT/AOT_stimuli/rescaled_final/1550_rv.mp4	0.0	268.80975580215454	1.0001471042633057
55	244.99490904808044	pulse	0	t		53.0	2.5	/experiments/knapen_AOT/AOT_stimuli/rescaled_final/1550_rv.mp4	0.0	269.3934688568115	
55	245.41134309768677	movie	1		245	53.0	2.5	/experiments/knapen_AOT/AOT_stimuli/rescaled_final/1550_rv.mp4	0.0	269.80990290641785	2.5003719329833984
55	246.59513020515442	pulse	1	t		53.0	2.5	/experiments/knapen_AOT/AOT_stimuli/rescaled_final/1550_rv.mp4	0.0	270.9936900138855	
55	247.91171503067017	fix_post	2		12	53.0	2.5	/experiments/knapen_AOT/AOT_stimuli/rescaled_final/1550_rv.mp4	0.0	272.31027483940125	0.10002994537353516
56	248.0117449760437	fix_pre	0		120	54.0	2.5	blank	1.0	272.4103047847748	1.000157117843628
56	248.18791913986206	pulse	0	t		54.0	2.5	blank	1.0	272.58647894859314	
56	249.01190209388733	movie	1		300	54.0	2.5	blank	1.0	273.4104619026184	2.5004079341888428
56	249.7881100177765	pulse	1	t		54.0	2.5	blank	1.0	274.18666982650757	
56	251.3882281780243	pulse	1	t		54.0	2.5	blank	1.0	275.78678798675537	
56	251.51231002807617	fix_post	2		12	54.0	2.5	blank	1.0	275.91086983680725	0.09998297691345215
57	251.61229300498962	fix_pre	0		119	55.0	2.5	/experiments/knapen_AOT/AOT_stimuli/rescaled_final/1626_fw.mp4	0.0	276.0108528137207	0.9918060302734375
57	252.60409903526306	movie	1		244	55.0	2.5	/experiments/knapen_AOT/AOT_stimuli/rescaled_final/1626_fw.mp4	0.0	277.00265884399414	2.5004091262817383
57	252.98808813095093	pulse	1	t		55.0	2.5	/experiments/knapen_AOT/AOT_stimuli/rescaled_final/1626_fw.mp4	0.0	277.386647939682	
57	254.58811616897583	pulse	1	t		55.0	2.5	/experiments/knapen_AOT/AOT_stimuli/rescaled_final/1626_fw.mp4	0.0	278.9866759777069	
57	255.1045081615448	fix_post	2		12	55.0	2.5	/experiments/knapen_AOT/AOT_stimuli/rescaled_final/1626_fw.mp4	0.0	279.5030679702759	0.10010099411010742
58	255.2046091556549	fix_pre	0		119	56.0	2.5	/experiments/knapen_AOT/AOT_stimuli/rescaled_final/1542_fw.mp4	0.0	279.603168964386	0.9916868209838867
58	256.18811106681824	pulse	0	t		56.0	2.5	/experiments/knapen_AOT/AOT_stimuli/rescaled_final/1542_fw.mp4	0.0	280.5866708755493	
58	256.1962959766388	movie	1		245	56.0	2.5	/experiments/knapen_AOT/AOT_stimuli/rescaled_final/1542_fw.mp4	0.0	280.5948557853699	2.5087060928344727
58	257.78972816467285	pulse	1	t		56.0	2.5	/experiments/knapen_AOT/AOT_stimuli/rescaled_final/1542_fw.mp4	0.0	282.18828797340393	
58	258.70500206947327	fix_post	2		12	56.0	2.5	/experiments/knapen_AOT/AOT_stimuli/rescaled_final/1542_fw.mp4	0.0	283.10356187820435	0.10004711151123047
59	258.8050491809845	fix_pre	0		120	57.0	2.5	/experiments/knapen_AOT/AOT_stimuli/rescaled_final/0246_fw.mp4	0.0	283.2036089897156	1.0001258850097656
59	259.3886411190033	pulse	0	t		57.0	2.5	/experiments/knapen_AOT/AOT_stimuli/rescaled_final/0246_fw.mp4	0.0	283.7872009277344	
59	259.80517506599426	movie	1		245	57.0	2.5	/experiments/knapen_AOT/AOT_stimuli/rescaled_final/0246_fw.mp4	0.0	284.20373487472534	2.5003719329833984
59	260.9889521598816	pulse	1	t		57.0	2.5	/experiments/knapen_AOT/AOT_stimuli/rescaled_final/0246_fw.mp4	0.0	285.38751196861267	
59	262.30554699897766	fix_post	2		12	57.0	2.5	/experiments/knapen_AOT/AOT_stimuli/rescaled_final/0246_fw.mp4	0.0	286.70410680770874	0.10003519058227539
60	262.40558218955994	fix_pre	0		120	58.0	2.5	/experiments/knapen_AOT/AOT_stimuli/rescaled_final/0811_fw.mp4	0.0	286.804141998291	1.000175952911377
60	262.589182138443	pulse	0	t		58.0	2.5	/experiments/knapen_AOT/AOT_stimuli/rescaled_final/0811_fw.mp4	0.0	286.9877419471741	
60	263.4057581424713	movie	1		245	58.0	2.5	/experiments/knapen_AOT/AOT_stimuli/rescaled_final/0811_fw.mp4	0.0	287.8043179512024	2.500316858291626
60	264.1894180774689	pulse	1	t		58.0	2.5	/experiments/knapen_AOT/AOT_stimuli/rescaled_final/0811_fw.mp4	0.0	288.58797788619995	
60	265.78706216812134	pulse	1	t		58.0	2.5	/experiments/knapen_AOT/AOT_stimuli/rescaled_final/0811_fw.mp4	0.0	290.1856219768524	
60	265.90607500076294	fix_post	2		12	58.0	2.5	/experiments/knapen_AOT/AOT_stimuli/rescaled_final/0811_fw.mp4	0.0	290.304634809494	0.1000211238861084
61	266.00609612464905	fix_pre	0		120	59.0	2.5	/experiments/knapen_AOT/AOT_stimuli/rescaled_final/1450_fw.mp4	0.0	290.4046559333801	1.0001850128173828
61	267.00628113746643	movie	1		242	59.0	2.5	/experiments/knapen_AOT/AOT_stimuli/rescaled_final/1450_fw.mp4	0.0	291.4048409461975	2.4919989109039307
61	267.3899841308594	pulse	1	t		59.0	2.5	/experiments/knapen_AOT/AOT_stimuli/rescaled_final/1450_fw.mp4	0.0	291.78854393959045	
61	268.9902021884918	pulse	1	t		59.0	2.5	/experiments/knapen_AOT/AOT_stimuli/rescaled_final/1450_fw.mp4	0.0	293.3887619972229	
61	269.49828004837036	fix_post	2		12	59.0	2.5	/experiments/knapen_AOT/AOT_stimuli/rescaled_final/1450_fw.mp4	0.0	293.89683985710144	0.10002708435058594
62	269.59830713272095	fix_pre	0		120	60.0	2.5	/experiments/knapen_AOT/AOT_stimuli/rescaled_final/1871_rv.mp4	0.0	293.996866941452	1.000135898590088
62	270.59031319618225	pulse	0	t		60.0	2.5	/experiments/knapen_AOT/AOT_stimuli/rescaled_final/1871_rv.mp4	0.0	294.98887300491333	
62	270.59844303131104	movie	1		245	60.0	2.5	/experiments/knapen_AOT/AOT_stimuli/rescaled_final/1871_rv.mp4	0.0	294.9970028400421	2.5087130069732666
62	272.1910881996155	pulse	1	t		60.0	2.5	/experiments/knapen_AOT/AOT_stimuli/rescaled_final/1871_rv.mp4	0.0	296.58964800834656	
62	273.1071560382843	fix_post	2		12	60.0	2.5	/experiments/knapen_AOT/AOT_stimuli/rescaled_final/1871_rv.mp4	0.0	297.5057158470154	0.10002994537353516
63	273.20718598365784	fix_pre	0		120	61.0	2.5	/experiments/knapen_AOT/AOT_stimuli/rescaled_final/0444_rv.mp4	0.0	297.6057457923889	1.000133991241455
63	273.7908082008362	pulse	0	t		61.0	2.5	/experiments/knapen_AOT/AOT_stimuli/rescaled_final/0444_rv.mp4	0.0	298.18936800956726	
63	274.2073199748993	movie	1		244	61.0	2.5	/experiments/knapen_AOT/AOT_stimuli/rescaled_final/0444_rv.mp4	0.0	298.60587978363037	2.5003621578216553
63	275.39118003845215	pulse	1	t		61.0	2.5	/experiments/knapen_AOT/AOT_stimuli/rescaled_final/0444_rv.mp4	0.0	299.7897398471832	
63	276.70768213272095	fix_post	2		12	61.0	2.5	/experiments/knapen_AOT/AOT_stimuli/rescaled_final/0444_rv.mp4	0.0	301.106241941452	0.1000969409942627
64	276.8077790737152	fix_pre	0		120	62.0	2.5	/experiments/knapen_AOT/AOT_stimuli/rescaled_final/2174_rv.mp4	0.0	301.2063388824463	1.0023579597473145
64	276.9914000034332	pulse	0	t		62.0	2.5	/experiments/knapen_AOT/AOT_stimuli/rescaled_final/2174_rv.mp4	0.0	301.3899598121643	
64	277.8101370334625	movie	1		241	62.0	2.5	/experiments/knapen_AOT/AOT_stimuli/rescaled_final/2174_rv.mp4	0.0	302.2086968421936	2.498060941696167
64	278.5915141105652	pulse	1	t		62.0	2.5	/experiments/knapen_AOT/AOT_stimuli/rescaled_final/2174_rv.mp4	0.0	302.99007391929626	
64	280.1892101764679	pulse	1	t		62.0	2.5	/experiments/knapen_AOT/AOT_stimuli/rescaled_final/2174_rv.mp4	0.0	304.587769985199	
64	280.3081979751587	fix_post	2		12	62.0	2.5	/experiments/knapen_AOT/AOT_stimuli/rescaled_final/2174_rv.mp4	0.0	304.70675778388977	0.10003304481506348
65	280.40823101997375	fix_pre	0		120	63.0	2.5	blank	1.0	304.80679082870483	1.0001850128173828
65	281.40841603279114	movie	1		299	63.0	2.5	blank	1.0	305.8069758415222	2.4920339584350586
65	281.7920150756836	pulse	1	t		63.0	2.5	blank	1.0	306.1905748844147	
65	283.39225912094116	pulse	1	t		63.0	2.5	blank	1.0	307.79081892967224	
65	283.9004499912262	fix_post	2		12	63.0	2.5	blank	1.0	308.2990097999573	0.10000920295715332
66	284.00045919418335	fix_pre	0		120	64.0	2.5	/experiments/knapen_AOT/AOT_stimuli/rescaled_final/0917_fw.mp4	0.0	308.39901900291443	1.0001389980316162
66	284.99243211746216	pulse	0	t		64.0	2.5	/experiments/knapen_AOT/AOT_stimuli/rescaled_final/0917_fw.mp4	0.0	309.39099192619324	
66	285.00059819221497	movie	1		244	64.0	2.5	/experiments/knapen_AOT/AOT_stimuli/rescaled_final/0917_fw.mp4	0.0	309.39915800094604	2.508699893951416
66	286.59326219558716	pulse	1	t		64.0	2.5	/experiments/knapen_AOT/AOT_stimuli/rescaled_final/0917_fw.mp4	0.0	310.99182200431824	
66	287.5092980861664	fix_post	2		12	64.0	2.5	/experiments/knapen_AOT/AOT_stimuli/rescaled_final/0917_fw.mp4	0.0	311.90785789489746	0.10001206398010254
67	287.6093101501465	fix_pre	0		120	65.0	2.5	/experiments/knapen_AOT/AOT_stimuli/rescaled_final/1068_fw.mp4	0.0	312.00786995887756	1.0001649856567383
67	288.1929771900177	pulse	0	t		65.0	2.5	/experiments/knapen_AOT/AOT_stimuli/rescaled_final/1068_fw.mp4	0.0	312.5915369987488	
67	288.6094751358032	movie	1		244	65.0	2.5	/experiments/knapen_AOT/AOT_stimuli/rescaled_final/1068_fw.mp4	0.0	313.0080349445343	2.500396966934204
67	289.79326915740967	pulse	1	t		65.0	2.5	/experiments/knapen_AOT/AOT_stimuli/rescaled_final/1068_fw.mp4	0.0	314.19182896614075	
67	291.1098721027374	fix_post	2		12	65.0	2.5	/experiments/knapen_AOT/AOT_stimuli/rescaled_final/1068_fw.mp4	0.0	315.5084319114685	0.09999895095825195
68	291.2098710536957	fix_pre	0		120	66.0	2.5	/experiments/knapen_AOT/AOT_stimuli/rescaled_final/0643_rv.mp4	0.0	315.60843086242676	1.0001559257507324
68	291.39345502853394	pulse	0	t		66.0	2.5	/experiments/knapen_AOT/AOT_stimuli/rescaled_final/0643_rv.mp4	0.0	315.792014837265	
68	292.2100269794464	movie	1		244	66.0	2.5	/experiments/knapen_AOT/AOT_stimuli/rescaled_final/0643_rv.mp4	0.0	316.6085867881775	2.5003762245178223
68	292.9936730861664	pulse	1	t		66.0	2.5	/experiments/knapen_AOT/AOT_stimuli/rescaled_final/0643_rv.mp4	0.0	317.39223289489746	
68	294.5939071178436	pulse	1	t		66.0	2.5	/experiments/knapen_AOT/AOT_stimuli/rescaled_final/0643_rv.mp4	0.0	318.9924669265747	
68	294.71040320396423	fix_post	2		12	66.0	2.5	/experiments/knapen_AOT/AOT_stimuli/rescaled_final/0643_rv.mp4	0.0	319.1089630126953	0.09998297691345215
69	294.8103861808777	fix_pre	0		120	67.0	2.5	/experiments/knapen_AOT/AOT_stimuli/rescaled_final/0454_fw.mp4	0.0	319.20894598960876	1.000154972076416
69	295.8105411529541	movie	1		243	67.0	2.5	/experiments/knapen_AOT/AOT_stimuli/rescaled_final/0454_fw.mp4	0.0	320.2091009616852	2.492064952850342
69	296.194766998291	pulse	1	t		67.0	2.5	/experiments/knapen_AOT/AOT_stimuli/rescaled_final/0454_fw.mp4	0.0	320.5933268070221	
69	297.7944121360779	pulse	1	t		67.0	2.5	/experiments/knapen_AOT/AOT_stimuli/rescaled_final/0454_fw.mp4	0.0	322.19297194480896	
69	298.30260610580444	fix_post	2		12	67.0	2.5	/experiments/knapen_AOT/AOT_stimuli/rescaled_final/0454_fw.mp4	0.0	322.7011659145355	0.09998607635498047
70	298.4025921821594	fix_pre	0		120	68.0	2.5	/experiments/knapen_AOT/AOT_stimuli/rescaled_final/1600_rv.mp4	0.0	322.8011519908905	1.00016188621521
70	299.3946189880371	pulse	0	t		68.0	2.5	/experiments/knapen_AOT/AOT_stimuli/rescaled_final/1600_rv.mp4	0.0	323.7931787967682	
70	299.40275406837463	movie	1		245	68.0	2.5	/experiments/knapen_AOT/AOT_stimuli/rescaled_final/1600_rv.mp4	0.0	323.8013138771057	2.5087149143218994
70	300.99550104141235	pulse	1	t		68.0	2.5	/experiments/knapen_AOT/AOT_stimuli/rescaled_final/1600_rv.mp4	0.0	325.39406085014343	
70	301.91146898269653	fix_post	2		12	68.0	2.5	/experiments/knapen_AOT/AOT_stimuli/rescaled_final/1600_rv.mp4	0.0	326.3100287914276	0.09998917579650879
71	302.01145815849304	fix_pre	0		120	69.0	2.5	/experiments/knapen_AOT/AOT_stimuli/rescaled_final/0393_rv.mp4	0.0	326.4100179672241	1.0001938343048096
71	302.5875840187073	pulse	0	t		69.0	2.5	/experiments/knapen_AOT/AOT_stimuli/rescaled_final/0393_rv.mp4	0.0	326.98614382743835	
71	303.01165199279785	movie	1		244	69.0	2.5	/experiments/knapen_AOT/AOT_stimuli/rescaled_final/0393_rv.mp4	0.0	327.41021180152893	2.500427007675171
71	304.1878311634064	pulse	1	t		69.0	2.5	/experiments/knapen_AOT/AOT_stimuli/rescaled_final/0393_rv.mp4	0.0	328.58639097213745	
71	305.512079000473	fix_post	2		12	69.0	2.5	/experiments/knapen_AOT/AOT_stimuli/rescaled_final/0393_rv.mp4	0.0	329.9106388092041	0.09994196891784668
72	305.61202096939087	fix_pre	0		120	70.0	2.5	blank	1.0	330.01058077812195	1.0001740455627441
72	305.7881259918213	pulse	0	t		70.0	2.5	blank	1.0	330.18668580055237	
72	306.6121950149536	movie	1		300	70.0	2.5	blank	1.0	331.0107548236847	2.500373125076294
72	307.3882451057434	pulse	1	t		70.0	2.5	blank	1.0	331.7868049144745	
72	308.9876081943512	pulse	1	t		70.0	2.5	blank	1.0	333.3861680030823	
72	309.1125681400299	fix_post	2		12	70.0	2.5	blank	1.0	333.511127948761	0.09996795654296875
73	309.2125360965729	fix_pre	0		120	71.0	2.5	/experiments/knapen_AOT/AOT_stimuli/rescaled_final/2154_fw.mp4	0.0	333.61109590530396	1.000143051147461
73	310.21267914772034	movie	1		246	71.0	2.5	/experiments/knapen_AOT/AOT_stimuli/rescaled_final/2154_fw.mp4	0.0	334.6112389564514	2.4920568466186523
73	310.58789014816284	pulse	1	t		71.0	2.5	/experiments/knapen_AOT/AOT_stimuli/rescaled_final/2154_fw.mp4	0.0	334.9864499568939	
73	312.18830013275146	pulse	1	t		71.0	2.5	/experiments/knapen_AOT/AOT_stimuli/rescaled_final/2154_fw.mp4	0.0	336.58685994148254	
73	312.704735994339	fix_post	2		12	71.0	2.5	/experiments/knapen_AOT/AOT_stimuli/rescaled_final/2154_fw.mp4	0.0	337.10329580307007	0.10003209114074707
74	312.80476808547974	fix_pre	0		119	72.0	2.5	/experiments/knapen_AOT/AOT_stimuli/rescaled_final/2084_rv.mp4	0.0	337.2033278942108	0.9918079376220703
74	313.78844714164734	pulse	0	t		72.0	2.5	/experiments/knapen_AOT/AOT_stimuli/rescaled_final/2084_rv.mp4	0.0	338.1870069503784	
74	313.7965760231018	movie	1		245	72.0	2.5	/experiments/knapen_AOT/AOT_stimuli/rescaled_final/2084_rv.mp4	0.0	338.1951358318329	2.5086960792541504
74	315.3893280029297	pulse	1	t		72.0	2.5	/experiments/knapen_AOT/AOT_stimuli/rescaled_final/2084_rv.mp4	0.0	339.78788781166077	
74	316.30527210235596	fix_post	2		12	72.0	2.5	/experiments/knapen_AOT/AOT_stimuli/rescaled_final/2084_rv.mp4	0.0	340.70383191108704	0.10000205039978027
75	316.40527415275574	fix_pre	0		120	73.0	2.5	/experiments/knapen_AOT/AOT_stimuli/rescaled_final/1981_rv.mp4	0.0	340.8038339614868	1.000182867050171
75	316.9889280796051	pulse	0	t		73.0	2.5	/experiments/knapen_AOT/AOT_stimuli/rescaled_final/1981_rv.mp4	0.0	341.3874878883362	
75	317.4054570198059	movie	1		244	73.0	2.5	/experiments/knapen_AOT/AOT_stimuli/rescaled_final/1981_rv.mp4	0.0	341.804016828537	2.5003671646118164
75	318.5891799926758	pulse	1	t		73.0	2.5	/experiments/knapen_AOT/AOT_stimuli/rescaled_final/1981_rv.mp4	0.0	342.98773980140686	
75	319.9058241844177	fix_post	2		12	73.0	2.5	/experiments/knapen_AOT/AOT_stimuli/rescaled_final/1981_rv.mp4	0.0	344.3043839931488	0.10000896453857422
76	320.0058331489563	fix_pre	0		120	74.0	2.5	/experiments/knapen_AOT/AOT_stimuli/rescaled_final/1829_rv.mp4	0.0	344.4043929576874	1.0001718997955322
76	320.18938398361206	pulse	0	t		74.0	2.5	/experiments/knapen_AOT/AOT_stimuli/rescaled_final/1829_rv.mp4	0.0	344.58794379234314	
76	321.00600504875183	movie	1		244	74.0	2.5	/experiments/knapen_AOT/AOT_stimuli/rescaled_final/1829_rv.mp4	0.0	345.4045648574829	2.5003271102905273
76	321.7896111011505	pulse	1	t		74.0	2.5	/experiments/knapen_AOT/AOT_stimuli/rescaled_final/1829_rv.mp4	0.0	346.1881709098816	
76	323.3898901939392	pulse	1	t		74.0	2.5	/experiments/knapen_AOT/AOT_stimuli/rescaled_final/1829_rv.mp4	0.0	347.7884500026703	
76	323.50633215904236	fix_post	2		12	74.0	2.5	/experiments/knapen_AOT/AOT_stimuli/rescaled_final/1829_rv.mp4	0.0	347.90489196777344	0.10003900527954102
77	323.6063711643219	fix_pre	0		120	75.0	2.5	blank	1.0	348.004930973053	1.0001819133758545
77	324.60655307769775	movie	1		299	75.0	2.5	blank	1.0	349.00511288642883	2.4920029640197754
77	324.9901909828186	pulse	1	t		75.0	2.5	blank	1.0	349.3887507915497	
77	326.5903000831604	pulse	1	t		75.0	2.5	blank	1.0	350.9888598918915	
77	327.09855604171753	fix_post	2		12	75.0	2.5	blank	1.0	351.4971158504486	0.10004401206970215
78	327.19860005378723	fix_pre	0		120	76.0	2.5	/experiments/knapen_AOT/AOT_stimuli/rescaled_final/1344_rv.mp4	0.0	351.5971598625183	1.0001389980316162
78	328.19055700302124	pulse	0	t		76.0	2.5	/experiments/knapen_AOT/AOT_stimuli/rescaled_final/1344_rv.mp4	0.0	352.5891168117523	
78	328.19873905181885	movie	1		245	76.0	2.5	/experiments/knapen_AOT/AOT_stimuli/rescaled_final/1344_rv.mp4	0.0	352.5972988605499	2.5086700916290283
78	329.7912001609802	pulse	1	t		76.0	2.5	/experiments/knapen_AOT/AOT_stimuli/rescaled_final/1344_rv.mp4	0.0	354.1897599697113	
78	330.7074091434479	fix_post	2		12	76.0	2.5	/experiments/knapen_AOT/AOT_stimuli/rescaled_final/1344_rv.mp4	0.0	355.10596895217896	0.10002803802490234
79	330.8074371814728	fix_pre	0		120	77.0	2.5	/experiments/knapen_AOT/AOT_stimuli/rescaled_final/2040_fw.mp4	0.0	355.20599699020386	1.0001418590545654
79	331.39118218421936	pulse	0	t		77.0	2.5	/experiments/knapen_AOT/AOT_stimuli/rescaled_final/2040_fw.mp4	0.0	355.78974199295044	
79	331.80757904052734	movie	1		247	77.0	2.5	/experiments/knapen_AOT/AOT_stimuli/rescaled_final/2040_fw.mp4	0.0	356.2061388492584	2.5003859996795654
79	332.99134397506714	pulse	1	t		77.0	2.5	/experiments/knapen_AOT/AOT_stimuli/rescaled_final/2040_fw.mp4	0.0	357.3899037837982	
79	334.3079650402069	fix_post	2		12	77.0	2.5	/experiments/knapen_AOT/AOT_stimuli/rescaled_final/2040_fw.mp4	0.0	358.706524848938	0.10000205039978027
80	334.4079670906067	fix_pre	0		120	78.0	2.5	/experiments/knapen_AOT/AOT_stimuli/rescaled_final/1138_rv.mp4	0.0	358.80652689933777	1.00016188621521
80	334.59159111976624	pulse	0	t		78.0	2.5	/experiments/knapen_AOT/AOT_stimuli/rescaled_final/1138_rv.mp4	0.0	358.9901509284973	
80	335.4081289768219	movie	1		243	78.0	2.5	/experiments/knapen_AOT/AOT_stimuli/rescaled_final/1138_rv.mp4	0.0	359.806688785553	2.5004122257232666
80	336.1918921470642	pulse	1	t		78.0	2.5	/experiments/knapen_AOT/AOT_stimuli/rescaled_final/1138_rv.mp4	0.0	360.5904519557953	
80	337.79171204566956	pulse	1	t		78.0	2.5	/experiments/knapen_AOT/AOT_stimuli/rescaled_final/1138_rv.mp4	0.0	362.19027185440063	
80	337.90854120254517	fix_post	2		12	78.0	2.5	/experiments/knapen_AOT/AOT_stimuli/rescaled_final/1138_rv.mp4	0.0	362.30710101127625	0.09997081756591797
81	338.0085120201111	fix_pre	0		119	79.0	2.5	/experiments/knapen_AOT/AOT_stimuli/rescaled_final/1825_rv.mp4	0.0	362.40707182884216	0.9918081760406494
81	339.00032019615173	movie	1		243	79.0	2.5	/experiments/knapen_AOT/AOT_stimuli/rescaled_final/1825_rv.mp4	0.0	363.3988800048828	2.5003697872161865
81	339.39236402511597	pulse	1	t		79.0	2.5	/experiments/knapen_AOT/AOT_stimuli/rescaled_final/1825_rv.mp4	0.0	363.79092383384705	
81	340.9924650192261	pulse	1	t		79.0	2.5	/experiments/knapen_AOT/AOT_stimuli/rescaled_final/1825_rv.mp4	0.0	365.39102482795715	
81	341.5006899833679	fix_post	2		12	79.0	2.5	/experiments/knapen_AOT/AOT_stimuli/rescaled_final/1825_rv.mp4	0.0	365.899249792099	0.10004520416259766
82	341.6007351875305	fix_pre	0		120	80.0	2.5	/experiments/knapen_AOT/AOT_stimuli/rescaled_final/1988_rv.mp4	0.0	365.9992949962616	1.0001568794250488
82	342.59279704093933	pulse	0	t		80.0	2.5	/experiments/knapen_AOT/AOT_stimuli/rescaled_final/1988_rv.mp4	0.0	366.9913568496704	
82	342.60089206695557	movie	1		245	80.0	2.5	/experiments/knapen_AOT/AOT_stimuli/rescaled_final/1988_rv.mp4	0.0	366.99945187568665	2.5086870193481445
82	344.19347310066223	pulse	1	t		80.0	2.5	/experiments/knapen_AOT/AOT_stimuli/rescaled_final/1988_rv.mp4	0.0	368.5920329093933	
82	345.1095790863037	fix_post	2		12	80.0	2.5	/experiments/knapen_AOT/AOT_stimuli/rescaled_final/1988_rv.mp4	0.0	369.5081388950348	0.10003900527954102
83	345.20961809158325	fix_pre	0		120	81.0	2.5	/experiments/knapen_AOT/AOT_stimuli/rescaled_final/1796_rv.mp4	0.0	369.60817790031433	1.000128984451294
83	345.79329919815063	pulse	0	t		81.0	2.5	/experiments/knapen_AOT/AOT_stimuli/rescaled_final/1796_rv.mp4	0.0	370.1918590068817	
83	346.20974707603455	movie	1		241	81.0	2.5	/experiments/knapen_AOT/AOT_stimuli/rescaled_final/1796_rv.mp4	0.0	370.6083068847656	2.5003631114959717
83	347.39350414276123	pulse	1	t		81.0	2.5	/experiments/knapen_AOT/AOT_stimuli/rescaled_final/1796_rv.mp4	0.0	371.7920639514923	
83	348.7101101875305	fix_post	2		12	81.0	2.5	/experiments/knapen_AOT/AOT_stimuli/rescaled_final/1796_rv.mp4	0.0	373.1086699962616	0.10002899169921875
84	348.81013917922974	fix_pre	0		120	82.0	2.5	blank	1.0	373.2086989879608	1.0001327991485596
84	348.993723154068	pulse	0	t		82.0	2.5	blank	1.0	373.3922829627991	
84	349.8102719783783	movie	1		300	82.0	2.5	blank	1.0	374.2088317871094	2.5004801750183105
84	350.593896150589	pulse	1	t		82.0	2.5	blank	1.0	374.99245595932007	
84	352.19429302215576	pulse	1	t		82.0	2.5	blank	1.0	376.59285283088684	
84	352.3107521533966	fix_post	2		12	82.0	2.5	blank	1.0	376.7093119621277	0.09989690780639648
85	352.410649061203	fix_pre	0		120	83.0	2.5	/experiments/knapen_AOT/AOT_stimuli/rescaled_final/2084_fw.mp4	0.0	376.8092088699341	1.0001399517059326
85	353.41078901290894	movie	1		242	83.0	2.5	/experiments/knapen_AOT/AOT_stimuli/rescaled_final/2084_fw.mp4	0.0	377.80934882164	2.492091178894043
85	353.79483008384705	pulse	1	t		83.0	2.5	/experiments/knapen_AOT/AOT_stimuli/rescaled_final/2084_fw.mp4	0.0	378.1933898925781	
85	355.3874831199646	pulse	1	t		83.0	2.5	/experiments/knapen_AOT/AOT_stimuli/rescaled_final/2084_fw.mp4	0.0	379.7860429286957	
85	355.902880191803	fix_post	2		12	83.0	2.5	/experiments/knapen_AOT/AOT_stimuli/rescaled_final/2084_fw.mp4	0.0	380.30144000053406	0.10001897811889648
87	356.0028991699219	stim	0		1716					380.40145897865295	14.302233934402466
87	356.98741006851196	pulse	0	t						381.38596987724304	
87	358.58765506744385	pulse	0	t						382.9862148761749	
87	360.1879861354828	pulse	0	t						384.58654594421387	
87	361.7883141040802	pulse	0	t						386.1868739128113	
87	363.387403011322	pulse	0	t						387.7859628200531	
87	364.9876730442047	pulse	0	t						389.3862328529358	
87	366.587984085083	pulse	0	t						390.9865438938141	
87	368.1882231235504	pulse	0	t						392.5867829322815	
87	369.7883870601654	pulse	0	t						394.1869468688965	
