trial_nr	onset	event_type	phase	response	nr_frames	movie_index	movie_duration	movie_file	blank	onset_abs	duration
0	0.20816397666931152	stim	0		67					16.732255935668945	0.5584220886230469
0	0.7584078311920166	response	0	space						17.28249979019165	
1	0.7665860652923584	stim	0		4940					17.290678024291992	41.18613290786743
1	41.93787884712219	pulse	0	t						58.461970806121826	
1	41.95271897315979	stim	1		1715					58.476810932159424	14.297146081924438
1	43.531574964523315	pulse	1	t						60.05566692352295	
1	45.13171887397766	pulse	1	t						61.655810832977295	
1	46.731974840164185	pulse	1	t						63.25606679916382	
1	48.33218193054199	pulse	1	t						64.85627388954163	
1	49.932432889938354	pulse	1	t						66.45652484893799	
1	51.53252100944519	pulse	1	t						68.05661296844482	
1	53.13294005393982	pulse	1	t						69.65703201293945	
1	54.733190059661865	pulse	1	t						71.2572820186615	
2	56.24986505508423	fix_pre	0		11	0.0	2.5	/experiments/knapen_AOT/AOT_stimuli/rescaled_final/1529_fw.mp4	0.0	72.77395701408386	0.09164690971374512
2	56.33337688446045	pulse	0	t		0.0	2.5	/experiments/knapen_AOT/AOT_stimuli/rescaled_final/1529_fw.mp4	0.0	72.85746884346008	
2	56.341511964797974	movie	1		242	0.0	2.5	/experiments/knapen_AOT/AOT_stimuli/rescaled_final/1529_fw.mp4	0.0	72.86560392379761	2.508754014968872
2	57.93421292304993	pulse	1	t		0.0	2.5	/experiments/knapen_AOT/AOT_stimuli/rescaled_final/1529_fw.mp4	0.0	74.45830488204956	
2	58.850265979766846	fix_post	2		12	0.0	2.5	/experiments/knapen_AOT/AOT_stimuli/rescaled_final/1529_fw.mp4	0.0	75.37435793876648	0.09995293617248535
3	58.95021891593933	fix_pre	0		120	1.0	2.5	/experiments/knapen_AOT/AOT_stimuli/rescaled_final/0574_fw.mp4	0.0	75.47431087493896	1.0001411437988281
3	59.53409790992737	pulse	0	t		1.0	2.5	/experiments/knapen_AOT/AOT_stimuli/rescaled_final/0574_fw.mp4	0.0	76.058189868927	
3	59.95036005973816	movie	1		245	1.0	2.5	/experiments/knapen_AOT/AOT_stimuli/rescaled_final/0574_fw.mp4	0.0	76.4744520187378	2.5004079341888428
3	61.134132862091064	pulse	1	t		1.0	2.5	/experiments/knapen_AOT/AOT_stimuli/rescaled_final/0574_fw.mp4	0.0	77.6582248210907	
3	62.450767993927	fix_post	2		12	1.0	2.5	/experiments/knapen_AOT/AOT_stimuli/rescaled_final/0574_fw.mp4	0.0	78.97485995292664	0.10002803802490234
4	62.550796031951904	fix_pre	0		120	2.0	2.5	/experiments/knapen_AOT/AOT_stimuli/rescaled_final/0533_fw.mp4	0.0	79.07488799095154	1.0001609325408936
4	62.73430299758911	pulse	0	t		2.0	2.5	/experiments/knapen_AOT/AOT_stimuli/rescaled_final/0533_fw.mp4	0.0	79.25839495658875	
4	63.5509569644928	movie	1		243	2.0	2.5	/experiments/knapen_AOT/AOT_stimuli/rescaled_final/0533_fw.mp4	0.0	80.07504892349243	2.500322103500366
4	64.33445191383362	pulse	1	t		2.0	2.5	/experiments/knapen_AOT/AOT_stimuli/rescaled_final/0533_fw.mp4	0.0	80.85854387283325	
4	65.93454885482788	pulse	1	t		2.0	2.5	/experiments/knapen_AOT/AOT_stimuli/rescaled_final/0533_fw.mp4	0.0	82.45864081382751	
4	66.05127906799316	fix_post	2		12	2.0	2.5	/experiments/knapen_AOT/AOT_stimuli/rescaled_final/0533_fw.mp4	0.0	82.5753710269928	0.10003089904785156
5	66.15130996704102	fix_pre	0		120	3.0	2.5	/experiments/knapen_AOT/AOT_stimuli/rescaled_final/2099_fw.mp4	0.0	82.67540192604065	1.0001468658447266
5	67.15145683288574	movie	1		242	3.0	2.5	/experiments/knapen_AOT/AOT_stimuli/rescaled_final/2099_fw.mp4	0.0	83.67554879188538	2.4920241832733154
5	67.53533697128296	pulse	1	t		3.0	2.5	/experiments/knapen_AOT/AOT_stimuli/rescaled_final/2099_fw.mp4	0.0	84.05942893028259	
5	69.12797904014587	pulse	1	t		3.0	2.5	/experiments/knapen_AOT/AOT_stimuli/rescaled_final/2099_fw.mp4	0.0	85.65207099914551	
5	69.64348101615906	fix_post	2		12	3.0	2.5	/experiments/knapen_AOT/AOT_stimuli/rescaled_final/2099_fw.mp4	0.0	86.16757297515869	0.10002803802490234
6	69.74350905418396	fix_pre	0		120	4.0	2.5	/experiments/knapen_AOT/AOT_stimuli/rescaled_final/0459_fw.mp4	0.0	86.2676010131836	1.000108003616333
6	70.72810983657837	pulse	0	t		4.0	2.5	/experiments/knapen_AOT/AOT_stimuli/rescaled_final/0459_fw.mp4	0.0	87.252201795578	
6	70.7436170578003	movie	1		244	4.0	2.5	/experiments/knapen_AOT/AOT_stimuli/rescaled_final/0459_fw.mp4	0.0	87.26770901679993	2.508788824081421
6	72.33620500564575	pulse	1	t		4.0	2.5	/experiments/knapen_AOT/AOT_stimuli/rescaled_final/0459_fw.mp4	0.0	88.86029696464539	
6	73.25240588188171	fix_post	2		12	4.0	2.5	/experiments/knapen_AOT/AOT_stimuli/rescaled_final/0459_fw.mp4	0.0	89.77649784088135	0.09995412826538086
7	73.3523600101471	fix_pre	0		120	5.0	2.5	/experiments/knapen_AOT/AOT_stimuli/rescaled_final/1875_fw.mp4	0.0	89.87645196914673	1.0001590251922607
7	73.92843794822693	pulse	0	t		5.0	2.5	/experiments/knapen_AOT/AOT_stimuli/rescaled_final/1875_fw.mp4	0.0	90.45252990722656	
7	74.35251903533936	movie	1		242	5.0	2.5	/experiments/knapen_AOT/AOT_stimuli/rescaled_final/1875_fw.mp4	0.0	90.87661099433899	2.5005738735198975
7	75.52862095832825	pulse	1	t		5.0	2.5	/experiments/knapen_AOT/AOT_stimuli/rescaled_final/1875_fw.mp4	0.0	92.05271291732788	
7	76.85309290885925	fix_post	2		12	5.0	2.5	/experiments/knapen_AOT/AOT_stimuli/rescaled_final/1875_fw.mp4	0.0	93.37718486785889	0.09988999366760254
8	76.95298290252686	fix_pre	0		120	6.0	2.5	/experiments/knapen_AOT/AOT_stimuli/rescaled_final/1796_rv.mp4	0.0	93.47707486152649	1.0000910758972168
8	77.12809300422668	pulse	0	t		6.0	2.5	/experiments/knapen_AOT/AOT_stimuli/rescaled_final/1796_rv.mp4	0.0	93.65218496322632	
8	77.95307397842407	movie	1		242	6.0	2.5	/experiments/knapen_AOT/AOT_stimuli/rescaled_final/1796_rv.mp4	0.0	94.4771659374237	2.4922618865966797
8	78.72836399078369	pulse	1	t		6.0	2.5	/experiments/knapen_AOT/AOT_stimuli/rescaled_final/1796_rv.mp4	0.0	95.25245594978333	
8	80.32857584953308	pulse	1	t		6.0	2.5	/experiments/knapen_AOT/AOT_stimuli/rescaled_final/1796_rv.mp4	0.0	96.85266780853271	
8	80.44533586502075	fix_post	2		12	6.0	2.5	/experiments/knapen_AOT/AOT_stimuli/rescaled_final/1796_rv.mp4	0.0	96.96942782402039	0.09982919692993164
9	80.54516506195068	fix_pre	0		120	7.0	2.5	blank	1.0	97.06925702095032	1.0000958442687988
9	81.54526090621948	movie	1		300	7.0	2.5	blank	1.0	98.06935286521912	2.5004050731658936
9	81.9288420677185	pulse	1	t		7.0	2.5	blank	1.0	98.45293402671814	
9	83.52913904190063	pulse	1	t		7.0	2.5	blank	1.0	100.05323100090027	
9	84.04566597938538	fix_post	2		12	7.0	2.5	blank	1.0	100.56975793838501	0.10000801086425781
10	84.14567399024963	fix_pre	0		119	8.0	2.5	/experiments/knapen_AOT/AOT_stimuli/rescaled_final/1775_rv.mp4	0.0	100.66976594924927	0.9918620586395264
10	85.12932085990906	pulse	0	t		8.0	2.5	/experiments/knapen_AOT/AOT_stimuli/rescaled_final/1775_rv.mp4	0.0	101.65341281890869	
10	85.13753604888916	movie	1		243	8.0	2.5	/experiments/knapen_AOT/AOT_stimuli/rescaled_final/1775_rv.mp4	0.0	101.6616280078888	2.5086519718170166
10	86.73391795158386	pulse	1	t		8.0	2.5	/experiments/knapen_AOT/AOT_stimuli/rescaled_final/1775_rv.mp4	0.0	103.2580099105835	
10	87.64618802070618	fix_post	2		12	8.0	2.5	/experiments/knapen_AOT/AOT_stimuli/rescaled_final/1775_rv.mp4	0.0	104.17027997970581	0.1000208854675293
11	87.7462089061737	fix_pre	0		120	9.0	2.5	/experiments/knapen_AOT/AOT_stimuli/rescaled_final/0826_rv.mp4	0.0	104.27030086517334	1.0001389980316162
11	88.32987785339355	pulse	0	t		9.0	2.5	/experiments/knapen_AOT/AOT_stimuli/rescaled_final/0826_rv.mp4	0.0	104.85396981239319	
11	88.74634790420532	movie	1		243	9.0	2.5	/experiments/knapen_AOT/AOT_stimuli/rescaled_final/0826_rv.mp4	0.0	105.27043986320496	2.500607967376709
11	89.93013787269592	pulse	1	t		9.0	2.5	/experiments/knapen_AOT/AOT_stimuli/rescaled_final/0826_rv.mp4	0.0	106.45422983169556	
11	91.24695587158203	fix_post	2		12	9.0	2.5	/experiments/knapen_AOT/AOT_stimuli/rescaled_final/0826_rv.mp4	0.0	107.77104783058167	0.09975719451904297
12	91.34671306610107	fix_pre	0		120	10.0	2.5	/experiments/knapen_AOT/AOT_stimuli/rescaled_final/1011_fw.mp4	0.0	107.87080502510071	1.0001389980316162
12	91.53034806251526	pulse	0	t		10.0	2.5	/experiments/knapen_AOT/AOT_stimuli/rescaled_final/1011_fw.mp4	0.0	108.05444002151489	
12	92.34685206413269	movie	1		243	10.0	2.5	/experiments/knapen_AOT/AOT_stimuli/rescaled_final/1011_fw.mp4	0.0	108.87094402313232	2.500499963760376
12	93.13043999671936	pulse	1	t		10.0	2.5	/experiments/knapen_AOT/AOT_stimuli/rescaled_final/1011_fw.mp4	0.0	109.654531955719	
12	94.73092985153198	pulse	1	t		10.0	2.5	/experiments/knapen_AOT/AOT_stimuli/rescaled_final/1011_fw.mp4	0.0	111.25502181053162	
12	94.84735202789307	fix_post	2		12	10.0	2.5	/experiments/knapen_AOT/AOT_stimuli/rescaled_final/1011_fw.mp4	0.0	111.3714439868927	0.09993290901184082
13	94.94728493690491	fix_pre	0		120	11.0	2.5	/experiments/knapen_AOT/AOT_stimuli/rescaled_final/2051_fw.mp4	0.0	111.47137689590454	1.0001349449157715
13	95.94741988182068	movie	1		238	11.0	2.5	/experiments/knapen_AOT/AOT_stimuli/rescaled_final/2051_fw.mp4	0.0	112.47151184082031	2.4921271800994873
13	96.331533908844	pulse	1	t		11.0	2.5	/experiments/knapen_AOT/AOT_stimuli/rescaled_final/2051_fw.mp4	0.0	112.85562586784363	
13	97.9312379360199	pulse	1	t		11.0	2.5	/experiments/knapen_AOT/AOT_stimuli/rescaled_final/2051_fw.mp4	0.0	114.45532989501953	
13	98.43954706192017	fix_post	2		12	11.0	2.5	/experiments/knapen_AOT/AOT_stimuli/rescaled_final/2051_fw.mp4	0.0	114.9636390209198	0.09995484352111816
14	98.53950190544128	fix_pre	0		120	12.0	2.5	blank	1.0	115.06359386444092	1.0001721382141113
14	99.53147888183594	pulse	0	t		12.0	2.5	blank	1.0	116.05557084083557	
14	99.5396740436554	movie	1		301	12.0	2.5	blank	1.0	116.06376600265503	2.5086917877197266
14	101.13180804252625	pulse	1	t		12.0	2.5	blank	1.0	117.65590000152588	
14	102.04836583137512	fix_post	2		12	12.0	2.5	blank	1.0	118.57245779037476	0.09996509552001953
15	102.14833092689514	fix_pre	0		120	13.0	2.5	/experiments/knapen_AOT/AOT_stimuli/rescaled_final/0458_rv.mp4	0.0	118.67242288589478	1.0001931190490723
15	102.73198986053467	pulse	0	t		13.0	2.5	/experiments/knapen_AOT/AOT_stimuli/rescaled_final/0458_rv.mp4	0.0	119.2560818195343	
15	103.14852404594421	movie	1		243	13.0	2.5	/experiments/knapen_AOT/AOT_stimuli/rescaled_final/0458_rv.mp4	0.0	119.67261600494385	2.5005059242248535
15	104.33224701881409	pulse	1	t		13.0	2.5	/experiments/knapen_AOT/AOT_stimuli/rescaled_final/0458_rv.mp4	0.0	120.85633897781372	
15	105.64902997016907	fix_post	2		12	13.0	2.5	/experiments/knapen_AOT/AOT_stimuli/rescaled_final/0458_rv.mp4	0.0	122.1731219291687	0.099822998046875
16	105.74885296821594	fix_pre	0		120	14.0	2.5	/experiments/knapen_AOT/AOT_stimuli/rescaled_final/1158_rv.mp4	0.0	122.27294492721558	1.000169038772583
16	105.93242597579956	pulse	0	t		14.0	2.5	/experiments/knapen_AOT/AOT_stimuli/rescaled_final/1158_rv.mp4	0.0	122.4565179347992	
16	106.74902200698853	movie	1		243	14.0	2.5	/experiments/knapen_AOT/AOT_stimuli/rescaled_final/1158_rv.mp4	0.0	123.27311396598816	2.500566005706787
16	107.53269696235657	pulse	1	t		14.0	2.5	/experiments/knapen_AOT/AOT_stimuli/rescaled_final/1158_rv.mp4	0.0	124.0567889213562	
16	109.13305687904358	pulse	1	t		14.0	2.5	/experiments/knapen_AOT/AOT_stimuli/rescaled_final/1158_rv.mp4	0.0	125.65714883804321	
16	109.24958801269531	fix_post	2		12	14.0	2.5	/experiments/knapen_AOT/AOT_stimuli/rescaled_final/1158_rv.mp4	0.0	125.77367997169495	0.09993386268615723
17	109.34952187538147	fix_pre	0		120	15.0	2.5	/experiments/knapen_AOT/AOT_stimuli/rescaled_final/1020_fw.mp4	0.0	125.8736138343811	1.0000500679016113
17	110.34957194328308	movie	1		242	15.0	2.5	/experiments/knapen_AOT/AOT_stimuli/rescaled_final/1020_fw.mp4	0.0	126.87366390228271	2.4922609329223633
17	110.7338318824768	pulse	1	t		15.0	2.5	/experiments/knapen_AOT/AOT_stimuli/rescaled_final/1020_fw.mp4	0.0	127.25792384147644	
17	112.33331799507141	pulse	1	t		15.0	2.5	/experiments/knapen_AOT/AOT_stimuli/rescaled_final/1020_fw.mp4	0.0	128.85740995407104	
17	112.84183287620544	fix_post	2		12	15.0	2.5	/experiments/knapen_AOT/AOT_stimuli/rescaled_final/1020_fw.mp4	0.0	129.36592483520508	0.09981417655944824
18	112.94164705276489	fix_pre	0		120	16.0	2.5	/experiments/knapen_AOT/AOT_stimuli/rescaled_final/0135_fw.mp4	0.0	129.46573901176453	1.0001449584960938
18	113.93370985984802	pulse	0	t		16.0	2.5	/experiments/knapen_AOT/AOT_stimuli/rescaled_final/0135_fw.mp4	0.0	130.45780181884766	
18	113.94179201126099	movie	1		243	16.0	2.5	/experiments/knapen_AOT/AOT_stimuli/rescaled_final/0135_fw.mp4	0.0	130.46588397026062	2.5087568759918213
18	115.5343508720398	pulse	1	t		16.0	2.5	/experiments/knapen_AOT/AOT_stimuli/rescaled_final/0135_fw.mp4	0.0	132.05844283103943	
18	116.45054888725281	fix_post	2		12	16.0	2.5	/experiments/knapen_AOT/AOT_stimuli/rescaled_final/0135_fw.mp4	0.0	132.97464084625244	0.10004401206970215
19	116.55059289932251	fix_pre	0		120	17.0	2.5	/experiments/knapen_AOT/AOT_stimuli/rescaled_final/2032_rv.mp4	0.0	133.07468485832214	1.0001201629638672
19	117.13415789604187	pulse	0	t		17.0	2.5	/experiments/knapen_AOT/AOT_stimuli/rescaled_final/2032_rv.mp4	0.0	133.6582498550415	
19	117.55071306228638	movie	1		242	17.0	2.5	/experiments/knapen_AOT/AOT_stimuli/rescaled_final/2032_rv.mp4	0.0	134.074805021286	2.5004568099975586
19	118.73438286781311	pulse	1	t		17.0	2.5	/experiments/knapen_AOT/AOT_stimuli/rescaled_final/2032_rv.mp4	0.0	135.25847482681274	
19	120.05116987228394	fix_post	2		12	17.0	2.5	/experiments/knapen_AOT/AOT_stimuli/rescaled_final/2032_rv.mp4	0.0	136.57526183128357	0.09987115859985352
20	120.15104103088379	fix_pre	0		120	18.0	2.5	/experiments/knapen_AOT/AOT_stimuli/rescaled_final/1703_fw.mp4	0.0	136.67513298988342	1.0001049041748047
20	120.33453798294067	pulse	0	t		18.0	2.5	/experiments/knapen_AOT/AOT_stimuli/rescaled_final/1703_fw.mp4	0.0	136.8586299419403	
20	121.1511459350586	movie	1		242	18.0	2.5	/experiments/knapen_AOT/AOT_stimuli/rescaled_final/1703_fw.mp4	0.0	137.67523789405823	2.5006749629974365
20	121.92734694480896	pulse	1	t		18.0	2.5	/experiments/knapen_AOT/AOT_stimuli/rescaled_final/1703_fw.mp4	0.0	138.4514389038086	
20	123.53494501113892	pulse	1	t		18.0	2.5	/experiments/knapen_AOT/AOT_stimuli/rescaled_final/1703_fw.mp4	0.0	140.05903697013855	
20	123.65182089805603	fix_post	2		12	18.0	2.5	/experiments/knapen_AOT/AOT_stimuli/rescaled_final/1703_fw.mp4	0.0	140.17591285705566	0.0998389720916748
21	123.7516598701477	fix_pre	0		120	19.0	2.5	/experiments/knapen_AOT/AOT_stimuli/rescaled_final/1189_fw.mp4	0.0	140.27575182914734	1.0001130104064941
21	124.7517728805542	movie	1		241	19.0	2.5	/experiments/knapen_AOT/AOT_stimuli/rescaled_final/1189_fw.mp4	0.0	141.27586483955383	2.4921231269836426
21	125.13650298118591	pulse	1	t		19.0	2.5	/experiments/knapen_AOT/AOT_stimuli/rescaled_final/1189_fw.mp4	0.0	141.66059494018555	
21	126.72820901870728	pulse	1	t		19.0	2.5	/experiments/knapen_AOT/AOT_stimuli/rescaled_final/1189_fw.mp4	0.0	143.2523009777069	
21	127.24389600753784	fix_post	2		12	19.0	2.5	/experiments/knapen_AOT/AOT_stimuli/rescaled_final/1189_fw.mp4	0.0	143.76798796653748	0.0999288558959961
22	127.34382486343384	fix_pre	0		120	20.0	2.5	blank	1.0	143.86791682243347	1.0001120567321777
22	128.32816696166992	pulse	0	t		20.0	2.5	blank	1.0	144.85225892066956	
22	128.34393692016602	movie	1		301	20.0	2.5	blank	1.0	144.86802887916565	2.5087850093841553
22	129.92763805389404	pulse	1	t		20.0	2.5	blank	1.0	146.45173001289368	
22	130.85272192955017	fix_post	2		12	20.0	2.5	blank	1.0	147.3768138885498	0.09999990463256836
23	130.95272183418274	fix_pre	0		120	21.0	2.5	/experiments/knapen_AOT/AOT_stimuli/rescaled_final/1990_fw.mp4	0.0	147.47681379318237	1.0000901222229004
23	131.52786588668823	pulse	0	t		21.0	2.5	/experiments/knapen_AOT/AOT_stimuli/rescaled_final/1990_fw.mp4	0.0	148.05195784568787	
23	131.95281195640564	movie	1		243	21.0	2.5	/experiments/knapen_AOT/AOT_stimuli/rescaled_final/1990_fw.mp4	0.0	148.47690391540527	2.5005199909210205
23	133.1287009716034	pulse	1	t		21.0	2.5	/experiments/knapen_AOT/AOT_stimuli/rescaled_final/1990_fw.mp4	0.0	149.65279293060303	
23	134.45333194732666	fix_post	2		12	21.0	2.5	/experiments/knapen_AOT/AOT_stimuli/rescaled_final/1990_fw.mp4	0.0	150.9774239063263	0.09990310668945312
24	134.5532350540161	fix_pre	0		120	22.0	2.5	/experiments/knapen_AOT/AOT_stimuli/rescaled_final/0826_rv.mp4	0.0	151.07732701301575	1.0000908374786377
24	134.72838497161865	pulse	0	t		22.0	2.5	/experiments/knapen_AOT/AOT_stimuli/rescaled_final/0826_rv.mp4	0.0	151.2524769306183	
24	135.55332589149475	movie	1		243	22.0	2.5	/experiments/knapen_AOT/AOT_stimuli/rescaled_final/0826_rv.mp4	0.0	152.07741785049438	2.500476121902466
24	136.32856798171997	pulse	1	t		22.0	2.5	/experiments/knapen_AOT/AOT_stimuli/rescaled_final/0826_rv.mp4	0.0	152.8526599407196	
24	137.92891788482666	pulse	1	t		22.0	2.5	/experiments/knapen_AOT/AOT_stimuli/rescaled_final/0826_rv.mp4	0.0	154.4530098438263	
24	138.05380201339722	fix_post	2		12	22.0	2.5	/experiments/knapen_AOT/AOT_stimuli/rescaled_final/0826_rv.mp4	0.0	154.57789397239685	0.09996604919433594
25	138.15376806259155	fix_pre	0		120	23.0	2.5	/experiments/knapen_AOT/AOT_stimuli/rescaled_final/0346_fw.mp4	0.0	154.6778600215912	1.0001440048217773
25	139.15391206741333	movie	1		242	23.0	2.5	/experiments/knapen_AOT/AOT_stimuli/rescaled_final/0346_fw.mp4	0.0	155.67800402641296	2.492238998413086
25	139.52908992767334	pulse	1	t		23.0	2.5	/experiments/knapen_AOT/AOT_stimuli/rescaled_final/0346_fw.mp4	0.0	156.05318188667297	
25	141.1294400691986	pulse	1	t		23.0	2.5	/experiments/knapen_AOT/AOT_stimuli/rescaled_final/0346_fw.mp4	0.0	157.65353202819824	
25	141.64615106582642	fix_post	2		12	23.0	2.5	/experiments/knapen_AOT/AOT_stimuli/rescaled_final/0346_fw.mp4	0.0	158.17024302482605	0.09979987144470215
26	141.74595093727112	fix_pre	0		119	24.0	2.5	/experiments/knapen_AOT/AOT_stimuli/rescaled_final/1902_rv.mp4	0.0	158.27004289627075	0.9917800426483154
26	142.72952795028687	pulse	0	t		24.0	2.5	/experiments/knapen_AOT/AOT_stimuli/rescaled_final/1902_rv.mp4	0.0	159.2536199092865	
26	142.73773097991943	movie	1		244	24.0	2.5	/experiments/knapen_AOT/AOT_stimuli/rescaled_final/1902_rv.mp4	0.0	159.26182293891907	2.5087430477142334
26	144.3303689956665	pulse	1	t		24.0	2.5	/experiments/knapen_AOT/AOT_stimuli/rescaled_final/1902_rv.mp4	0.0	160.85446095466614	
26	145.24647402763367	fix_post	2		12	24.0	2.5	/experiments/knapen_AOT/AOT_stimuli/rescaled_final/1902_rv.mp4	0.0	161.7705659866333	0.0999908447265625
27	145.34646487236023	fix_pre	0		120	25.0	2.5	/experiments/knapen_AOT/AOT_stimuli/rescaled_final/0339_rv.mp4	0.0	161.87055683135986	1.0001261234283447
27	145.92999601364136	pulse	0	t		25.0	2.5	/experiments/knapen_AOT/AOT_stimuli/rescaled_final/0339_rv.mp4	0.0	162.454087972641	
27	146.34659099578857	movie	1		243	25.0	2.5	/experiments/knapen_AOT/AOT_stimuli/rescaled_final/0339_rv.mp4	0.0	162.8706829547882	2.5005948543548584
27	147.53032994270325	pulse	1	t		25.0	2.5	/experiments/knapen_AOT/AOT_stimuli/rescaled_final/0339_rv.mp4	0.0	164.05442190170288	
27	148.84718585014343	fix_post	2		12	25.0	2.5	/experiments/knapen_AOT/AOT_stimuli/rescaled_final/0339_rv.mp4	0.0	165.37127780914307	0.09984898567199707
28	148.94703483581543	fix_pre	0		120	26.0	2.5	/experiments/knapen_AOT/AOT_stimuli/rescaled_final/0377_rv.mp4	0.0	165.47112679481506	1.0001540184020996
28	149.1304750442505	pulse	0	t		26.0	2.5	/experiments/knapen_AOT/AOT_stimuli/rescaled_final/0377_rv.mp4	0.0	165.65456700325012	
28	149.94718885421753	movie	1		243	26.0	2.5	/experiments/knapen_AOT/AOT_stimuli/rescaled_final/0377_rv.mp4	0.0	166.47128081321716	2.5003859996795654
28	150.73086595535278	pulse	1	t		26.0	2.5	/experiments/knapen_AOT/AOT_stimuli/rescaled_final/0377_rv.mp4	0.0	167.25495791435242	
28	152.33077597618103	pulse	1	t		26.0	2.5	/experiments/knapen_AOT/AOT_stimuli/rescaled_final/0377_rv.mp4	0.0	168.85486793518066	
28	152.4475748538971	fix_post	2		12	26.0	2.5	/experiments/knapen_AOT/AOT_stimuli/rescaled_final/0377_rv.mp4	0.0	168.97166681289673	0.10004019737243652
29	152.54761505126953	fix_pre	0		119	27.0	2.5	/experiments/knapen_AOT/AOT_stimuli/rescaled_final/2079_rv.mp4	0.0	169.07170701026917	0.9917058944702148
29	153.53932094573975	movie	1		243	27.0	2.5	/experiments/knapen_AOT/AOT_stimuli/rescaled_final/2079_rv.mp4	0.0	170.06341290473938	2.500577926635742
29	153.9314260482788	pulse	1	t		27.0	2.5	/experiments/knapen_AOT/AOT_stimuli/rescaled_final/2079_rv.mp4	0.0	170.45551800727844	
29	155.53153896331787	pulse	1	t		27.0	2.5	/experiments/knapen_AOT/AOT_stimuli/rescaled_final/2079_rv.mp4	0.0	172.0556309223175	
29	156.0398988723755	fix_post	2		12	27.0	2.5	/experiments/knapen_AOT/AOT_stimuli/rescaled_final/2079_rv.mp4	0.0	172.56399083137512	0.09989500045776367
30	156.13979387283325	fix_pre	0		120	28.0	2.5	blank	1.0	172.66388583183289	1.0001320838928223
30	157.1317629814148	pulse	0	t		28.0	2.5	blank	1.0	173.65585494041443	
30	157.13992595672607	movie	1		301	28.0	2.5	blank	1.0	173.6640179157257	2.5086629390716553
30	158.73208093643188	pulse	1	t		28.0	2.5	blank	1.0	175.25617289543152	
30	159.64858889579773	fix_post	2		9	28.0	2.5	blank	1.0	176.17268085479736	0.10003304481506348
31	159.7486219406128	fix_pre	0		120	29.0	2.5	/experiments/knapen_AOT/AOT_stimuli/rescaled_final/1229_rv.mp4	0.0	176.27271389961243	1.0001249313354492
31	160.33230304718018	pulse	0	t		29.0	2.5	/experiments/knapen_AOT/AOT_stimuli/rescaled_final/1229_rv.mp4	0.0	176.8563950061798	
31	160.74874687194824	movie	1		243	29.0	2.5	/experiments/knapen_AOT/AOT_stimuli/rescaled_final/1229_rv.mp4	0.0	177.27283883094788	2.5005640983581543
31	161.93256783485413	pulse	1	t		29.0	2.5	/experiments/knapen_AOT/AOT_stimuli/rescaled_final/1229_rv.mp4	0.0	178.45665979385376	
31	163.2493109703064	fix_post	2		12	29.0	2.5	/experiments/knapen_AOT/AOT_stimuli/rescaled_final/1229_rv.mp4	0.0	179.77340292930603	0.0998380184173584
32	163.34914898872375	fix_pre	0		120	30.0	2.5	/experiments/knapen_AOT/AOT_stimuli/rescaled_final/1931_fw.mp4	0.0	179.8732409477234	1.0001180171966553
32	163.5327169895172	pulse	0	t		30.0	2.5	/experiments/knapen_AOT/AOT_stimuli/rescaled_final/1931_fw.mp4	0.0	180.05680894851685	
32	164.3492670059204	movie	1		242	30.0	2.5	/experiments/knapen_AOT/AOT_stimuli/rescaled_final/1931_fw.mp4	0.0	180.87335896492004	2.500579833984375
32	165.13298797607422	pulse	1	t		30.0	2.5	/experiments/knapen_AOT/AOT_stimuli/rescaled_final/1931_fw.mp4	0.0	181.65707993507385	
32	166.73328495025635	pulse	1	t		30.0	2.5	/experiments/knapen_AOT/AOT_stimuli/rescaled_final/1931_fw.mp4	0.0	183.25737690925598	
32	166.84984683990479	fix_post	2		12	30.0	2.5	/experiments/knapen_AOT/AOT_stimuli/rescaled_final/1931_fw.mp4	0.0	183.37393879890442	0.09983515739440918
33	166.9496819972992	fix_pre	0		120	31.0	2.5	/experiments/knapen_AOT/AOT_stimuli/rescaled_final/2099_rv.mp4	0.0	183.47377395629883	1.0001490116119385
33	167.94983100891113	movie	1		242	31.0	2.5	/experiments/knapen_AOT/AOT_stimuli/rescaled_final/2099_rv.mp4	0.0	184.47392296791077	2.492051839828491
33	168.33398294448853	pulse	1	t		31.0	2.5	/experiments/knapen_AOT/AOT_stimuli/rescaled_final/2099_rv.mp4	0.0	184.85807490348816	
33	169.93364191055298	pulse	1	t		31.0	2.5	/experiments/knapen_AOT/AOT_stimuli/rescaled_final/2099_rv.mp4	0.0	186.4577338695526	
33	170.44188284873962	fix_post	2		12	31.0	2.5	/experiments/knapen_AOT/AOT_stimuli/rescaled_final/2099_rv.mp4	0.0	186.96597480773926	0.09998011589050293
34	170.54186296463013	fix_pre	0		120	32.0	2.5	/experiments/knapen_AOT/AOT_stimuli/rescaled_final/0859_fw.mp4	0.0	187.06595492362976	1.0002119541168213
34	171.533921957016	pulse	0	t		32.0	2.5	/experiments/knapen_AOT/AOT_stimuli/rescaled_final/0859_fw.mp4	0.0	188.05801391601562	
34	171.54207491874695	movie	1		243	32.0	2.5	/experiments/knapen_AOT/AOT_stimuli/rescaled_final/0859_fw.mp4	0.0	188.06616687774658	2.508697986602783
34	173.13866996765137	pulse	1	t		32.0	2.5	/experiments/knapen_AOT/AOT_stimuli/rescaled_final/0859_fw.mp4	0.0	189.662761926651	
34	174.05077290534973	fix_post	2		12	32.0	2.5	/experiments/knapen_AOT/AOT_stimuli/rescaled_final/0859_fw.mp4	0.0	190.57486486434937	0.09997296333312988
35	174.15074586868286	fix_pre	0		120	33.0	2.5	/experiments/knapen_AOT/AOT_stimuli/rescaled_final/0695_rv.mp4	0.0	190.6748378276825	1.0001580715179443
35	174.73444604873657	pulse	0	t		33.0	2.5	/experiments/knapen_AOT/AOT_stimuli/rescaled_final/0695_rv.mp4	0.0	191.2585380077362	
35	175.1509039402008	movie	1		243	33.0	2.5	/experiments/knapen_AOT/AOT_stimuli/rescaled_final/0695_rv.mp4	0.0	191.67499589920044	2.500454902648926
35	176.33477592468262	pulse	1	t		33.0	2.5	/experiments/knapen_AOT/AOT_stimuli/rescaled_final/0695_rv.mp4	0.0	192.85886788368225	
35	177.65135884284973	fix_post	2		12	33.0	2.5	/experiments/knapen_AOT/AOT_stimuli/rescaled_final/0695_rv.mp4	0.0	194.17545080184937	0.09993815422058105
36	177.7512969970703	fix_pre	0		120	34.0	2.5	blank	1.0	194.27538895606995	1.000169038772583
36	177.93487691879272	pulse	0	t		34.0	2.5	blank	1.0	194.45896887779236	
36	178.7514660358429	movie	1		300	34.0	2.5	blank	1.0	195.27555799484253	2.500370979309082
36	179.5350580215454	pulse	1	t		34.0	2.5	blank	1.0	196.05914998054504	
36	181.13535594940186	pulse	1	t		34.0	2.5	blank	1.0	197.6594479084015	
36	181.25183701515198	fix_post	2		12	34.0	2.5	blank	1.0	197.7759289741516	0.09998703002929688
37	181.35182404518127	fix_pre	0		120	35.0	2.5	/experiments/knapen_AOT/AOT_stimuli/rescaled_final/1254_rv.mp4	0.0	197.8759160041809	1.0002520084381104
37	182.35207605361938	movie	1		242	35.0	2.5	/experiments/knapen_AOT/AOT_stimuli/rescaled_final/1254_rv.mp4	0.0	198.87616801261902	2.492039918899536
37	182.73619103431702	pulse	1	t		35.0	2.5	/experiments/knapen_AOT/AOT_stimuli/rescaled_final/1254_rv.mp4	0.0	199.26028299331665	
37	184.32840085029602	pulse	1	t		35.0	2.5	/experiments/knapen_AOT/AOT_stimuli/rescaled_final/1254_rv.mp4	0.0	200.85249280929565	
37	184.84411597251892	fix_post	2		12	35.0	2.5	/experiments/knapen_AOT/AOT_stimuli/rescaled_final/1254_rv.mp4	0.0	201.36820793151855	0.10002493858337402
38	184.9441409111023	fix_pre	0		120	36.0	2.5	/experiments/knapen_AOT/AOT_stimuli/rescaled_final/1378_fw.mp4	0.0	201.46823287010193	1.0000319480895996
38	185.92856693267822	pulse	0	t		36.0	2.5	/experiments/knapen_AOT/AOT_stimuli/rescaled_final/1378_fw.mp4	0.0	202.45265889167786	
38	185.9441728591919	movie	1		245	36.0	2.5	/experiments/knapen_AOT/AOT_stimuli/rescaled_final/1378_fw.mp4	0.0	202.46826481819153	2.508714199066162
38	187.53777194023132	pulse	1	t		36.0	2.5	/experiments/knapen_AOT/AOT_stimuli/rescaled_final/1378_fw.mp4	0.0	204.06186389923096	
38	188.45288705825806	fix_post	2		12	36.0	2.5	/experiments/knapen_AOT/AOT_stimuli/rescaled_final/1378_fw.mp4	0.0	204.9769790172577	0.09999394416809082
39	188.55288100242615	fix_pre	0		120	37.0	2.5	/experiments/knapen_AOT/AOT_stimuli/rescaled_final/2091_rv.mp4	0.0	205.07697296142578	1.0001530647277832
39	189.12829899787903	pulse	0	t		37.0	2.5	/experiments/knapen_AOT/AOT_stimuli/rescaled_final/2091_rv.mp4	0.0	205.65239095687866	
39	189.55303406715393	movie	1		242	37.0	2.5	/experiments/knapen_AOT/AOT_stimuli/rescaled_final/2091_rv.mp4	0.0	206.07712602615356	2.5006279945373535
39	190.72900199890137	pulse	1	t		37.0	2.5	/experiments/knapen_AOT/AOT_stimuli/rescaled_final/2091_rv.mp4	0.0	207.253093957901	
39	192.05366206169128	fix_post	2		12	37.0	2.5	/experiments/knapen_AOT/AOT_stimuli/rescaled_final/2091_rv.mp4	0.0	208.57775402069092	0.09977388381958008
40	192.15343594551086	fix_pre	0		120	38.0	2.5	/experiments/knapen_AOT/AOT_stimuli/rescaled_final/1797_fw.mp4	0.0	208.6775279045105	1.0002009868621826
40	192.32862091064453	pulse	0	t		38.0	2.5	/experiments/knapen_AOT/AOT_stimuli/rescaled_final/1797_fw.mp4	0.0	208.85271286964417	
40	193.15363693237305	movie	1		243	38.0	2.5	/experiments/knapen_AOT/AOT_stimuli/rescaled_final/1797_fw.mp4	0.0	209.67772889137268	2.500483989715576
40	193.92899894714355	pulse	1	t		38.0	2.5	/experiments/knapen_AOT/AOT_stimuli/rescaled_final/1797_fw.mp4	0.0	210.4530909061432	
40	195.529198884964	pulse	1	t		38.0	2.5	/experiments/knapen_AOT/AOT_stimuli/rescaled_final/1797_fw.mp4	0.0	212.05329084396362	
40	195.65412092208862	fix_post	2		12	38.0	2.5	/experiments/knapen_AOT/AOT_stimuli/rescaled_final/1797_fw.mp4	0.0	212.17821288108826	0.0998539924621582
41	195.75397491455078	fix_pre	0		119	39.0	2.5	/experiments/knapen_AOT/AOT_stimuli/rescaled_final/1056_fw.mp4	0.0	212.27806687355042	0.9918439388275146
41	196.7458188533783	movie	1		242	39.0	2.5	/experiments/knapen_AOT/AOT_stimuli/rescaled_final/1056_fw.mp4	0.0	213.26991081237793	2.5004281997680664
41	197.1305890083313	pulse	1	t		39.0	2.5	/experiments/knapen_AOT/AOT_stimuli/rescaled_final/1056_fw.mp4	0.0	213.65468096733093	
41	198.72962498664856	pulse	1	t		39.0	2.5	/experiments/knapen_AOT/AOT_stimuli/rescaled_final/1056_fw.mp4	0.0	215.2537169456482	
41	199.24624705314636	fix_post	2		12	39.0	2.5	/experiments/knapen_AOT/AOT_stimuli/rescaled_final/1056_fw.mp4	0.0	215.770339012146	0.09993386268615723
42	199.34618091583252	fix_pre	0		119	40.0	2.5	blank	1.0	215.87027287483215	0.9918289184570312
42	200.32994484901428	pulse	0	t		40.0	2.5	blank	1.0	216.85403680801392	
42	200.33800983428955	movie	1		301	40.0	2.5	blank	1.0	216.86210179328918	2.508733034133911
42	201.93014788627625	pulse	1	t		40.0	2.5	blank	1.0	218.45423984527588	
42	202.84674286842346	fix_post	2		12	40.0	2.5	blank	1.0	219.3708348274231	0.09999513626098633
43	202.94673800468445	fix_pre	0		120	41.0	2.5	/experiments/knapen_AOT/AOT_stimuli/rescaled_final/0458_fw.mp4	0.0	219.47082996368408	1.000169038772583
43	203.53028798103333	pulse	0	t		41.0	2.5	/experiments/knapen_AOT/AOT_stimuli/rescaled_final/0458_fw.mp4	0.0	220.05437994003296	
43	203.94690704345703	movie	1		243	41.0	2.5	/experiments/knapen_AOT/AOT_stimuli/rescaled_final/0458_fw.mp4	0.0	220.47099900245667	2.500455856323242
43	205.13061094284058	pulse	1	t		41.0	2.5	/experiments/knapen_AOT/AOT_stimuli/rescaled_final/0458_fw.mp4	0.0	221.6547029018402	
43	206.44736289978027	fix_post	2		12	41.0	2.5	/experiments/knapen_AOT/AOT_stimuli/rescaled_final/0458_fw.mp4	0.0	222.9714548587799	0.09987616539001465
44	206.5472390651703	fix_pre	0		120	42.0	2.5	/experiments/knapen_AOT/AOT_stimuli/rescaled_final/0714_rv.mp4	0.0	223.07133102416992	1.000255823135376
44	206.7309148311615	pulse	0	t		42.0	2.5	/experiments/knapen_AOT/AOT_stimuli/rescaled_final/0714_rv.mp4	0.0	223.25500679016113	
44	207.54749488830566	movie	1		243	42.0	2.5	/experiments/knapen_AOT/AOT_stimuli/rescaled_final/0714_rv.mp4	0.0	224.0715868473053	2.500296115875244
44	208.3310968875885	pulse	1	t		42.0	2.5	/experiments/knapen_AOT/AOT_stimuli/rescaled_final/0714_rv.mp4	0.0	224.85518884658813	
44	209.93122100830078	pulse	1	t		42.0	2.5	/experiments/knapen_AOT/AOT_stimuli/rescaled_final/0714_rv.mp4	0.0	226.45531296730042	
44	210.0477910041809	fix_post	2		12	42.0	2.5	/experiments/knapen_AOT/AOT_stimuli/rescaled_final/0714_rv.mp4	0.0	226.57188296318054	0.10005903244018555
45	210.1478500366211	fix_pre	0		120	43.0	2.5	/experiments/knapen_AOT/AOT_stimuli/rescaled_final/0282_fw.mp4	0.0	226.67194199562073	1.0001068115234375
45	211.14795684814453	movie	1		241	43.0	2.5	/experiments/knapen_AOT/AOT_stimuli/rescaled_final/0282_fw.mp4	0.0	227.67204880714417	2.4922280311584473
45	211.53210306167603	pulse	1	t		43.0	2.5	/experiments/knapen_AOT/AOT_stimuli/rescaled_final/0282_fw.mp4	0.0	228.05619502067566	
45	213.13186192512512	pulse	1	t		43.0	2.5	/experiments/knapen_AOT/AOT_stimuli/rescaled_final/0282_fw.mp4	0.0	229.65595388412476	
45	213.64018487930298	fix_post	2		12	43.0	2.5	/experiments/knapen_AOT/AOT_stimuli/rescaled_final/0282_fw.mp4	0.0	230.1642768383026	0.09986400604248047
46	213.74004888534546	fix_pre	0		120	44.0	2.5	/experiments/knapen_AOT/AOT_stimuli/rescaled_final/1616_fw.mp4	0.0	230.2641408443451	1.0000901222229004
46	214.73212599754333	pulse	0	t		44.0	2.5	/experiments/knapen_AOT/AOT_stimuli/rescaled_final/1616_fw.mp4	0.0	231.25621795654297	
46	214.74013900756836	movie	1		243	44.0	2.5	/experiments/knapen_AOT/AOT_stimuli/rescaled_final/1616_fw.mp4	0.0	231.264230966568	2.508802890777588
46	216.33327984809875	pulse	1	t		44.0	2.5	/experiments/knapen_AOT/AOT_stimuli/rescaled_final/1616_fw.mp4	0.0	232.8573718070984	
46	217.24894189834595	fix_post	2		12	44.0	2.5	/experiments/knapen_AOT/AOT_stimuli/rescaled_final/1616_fw.mp4	0.0	233.77303385734558	0.09998703002929688
47	217.34892892837524	fix_pre	0		120	45.0	2.5	/experiments/knapen_AOT/AOT_stimuli/rescaled_final/1931_rv.mp4	0.0	233.87302088737488	1.000143051147461
47	217.93241786956787	pulse	0	t		45.0	2.5	/experiments/knapen_AOT/AOT_stimuli/rescaled_final/1931_rv.mp4	0.0	234.4565098285675	
47	218.3490719795227	movie	1		242	45.0	2.5	/experiments/knapen_AOT/AOT_stimuli/rescaled_final/1931_rv.mp4	0.0	234.87316393852234	2.5003838539123535
47	219.53288793563843	pulse	1	t		45.0	2.5	/experiments/knapen_AOT/AOT_stimuli/rescaled_final/1931_rv.mp4	0.0	236.05697989463806	
47	220.84945583343506	fix_post	2		12	45.0	2.5	/experiments/knapen_AOT/AOT_stimuli/rescaled_final/1931_rv.mp4	0.0	237.3735477924347	0.09993100166320801
48	220.94938683509827	fix_pre	0		117	46.0	2.5	/experiments/knapen_AOT/AOT_stimuli/rescaled_final/0461_rv.mp4	0.0	237.4734787940979	1.0001940727233887
48	221.13302493095398	pulse	0	t		46.0	2.5	/experiments/knapen_AOT/AOT_stimuli/rescaled_final/0461_rv.mp4	0.0	237.6571168899536	
48	221.94958090782166	movie	1		243	46.0	2.5	/experiments/knapen_AOT/AOT_stimuli/rescaled_final/0461_rv.mp4	0.0	238.4736728668213	2.5004680156707764
48	222.73323488235474	pulse	1	t		46.0	2.5	/experiments/knapen_AOT/AOT_stimuli/rescaled_final/0461_rv.mp4	0.0	239.25732684135437	
48	224.33328890800476	pulse	1	t		46.0	2.5	/experiments/knapen_AOT/AOT_stimuli/rescaled_final/0461_rv.mp4	0.0	240.8573808670044	
48	224.45004892349243	fix_post	2		12	46.0	2.5	/experiments/knapen_AOT/AOT_stimuli/rescaled_final/0461_rv.mp4	0.0	240.97414088249207	0.09987807273864746
49	224.54992699623108	fix_pre	0		120	47.0	2.5	/experiments/knapen_AOT/AOT_stimuli/rescaled_final/2081_rv.mp4	0.0	241.0740189552307	1.0001490116119385
49	225.55007600784302	movie	1		242	47.0	2.5	/experiments/knapen_AOT/AOT_stimuli/rescaled_final/2081_rv.mp4	0.0	242.07416796684265	2.492231845855713
49	225.93476700782776	pulse	1	t		47.0	2.5	/experiments/knapen_AOT/AOT_stimuli/rescaled_final/2081_rv.mp4	0.0	242.4588589668274	
49	227.53403306007385	pulse	1	t		47.0	2.5	/experiments/knapen_AOT/AOT_stimuli/rescaled_final/2081_rv.mp4	0.0	244.0581250190735	
49	228.04230785369873	fix_post	2		12	47.0	2.5	/experiments/knapen_AOT/AOT_stimuli/rescaled_final/2081_rv.mp4	0.0	244.56639981269836	0.09984016418457031
50	228.1421480178833	fix_pre	0		120	48.0	2.5	/experiments/knapen_AOT/AOT_stimuli/rescaled_final/0872_fw.mp4	0.0	244.66623997688293	1.0001308917999268
50	229.1342649459839	pulse	0	t		48.0	2.5	/experiments/knapen_AOT/AOT_stimuli/rescaled_final/0872_fw.mp4	0.0	245.65835690498352	
50	229.14227890968323	movie	1		244	48.0	2.5	/experiments/knapen_AOT/AOT_stimuli/rescaled_final/0872_fw.mp4	0.0	245.66637086868286	2.5088350772857666
50	230.73509097099304	pulse	1	t		48.0	2.5	/experiments/knapen_AOT/AOT_stimuli/rescaled_final/0872_fw.mp4	0.0	247.25918292999268	
50	231.651113986969	fix_post	2		12	48.0	2.5	/experiments/knapen_AOT/AOT_stimuli/rescaled_final/0872_fw.mp4	0.0	248.17520594596863	0.09988093376159668
51	231.7509949207306	fix_pre	0		120	49.0	2.5	blank	1.0	248.27508687973022	1.0001909732818604
51	232.33461904525757	pulse	0	t		49.0	2.5	blank	1.0	248.8587110042572	
51	232.75118589401245	movie	1		300	49.0	2.5	blank	1.0	249.27527785301208	2.5003750324249268
51	233.93495988845825	pulse	1	t		49.0	2.5	blank	1.0	250.45905184745789	
51	235.25156092643738	fix_post	2		12	49.0	2.5	blank	1.0	251.775652885437	0.10010409355163574
52	235.351665019989	fix_pre	0		120	50.0	2.5	/experiments/knapen_AOT/AOT_stimuli/rescaled_final/1197_fw.mp4	0.0	251.87575697898865	1.0001318454742432
52	235.52761387825012	pulse	0	t		50.0	2.5	/experiments/knapen_AOT/AOT_stimuli/rescaled_final/1197_fw.mp4	0.0	252.05170583724976	
52	236.35179686546326	movie	1		242	50.0	2.5	/experiments/knapen_AOT/AOT_stimuli/rescaled_final/1197_fw.mp4	0.0	252.8758888244629	2.500521183013916
52	237.12809586524963	pulse	1	t		50.0	2.5	/experiments/knapen_AOT/AOT_stimuli/rescaled_final/1197_fw.mp4	0.0	253.65218782424927	
52	238.7354838848114	pulse	1	t		50.0	2.5	/experiments/knapen_AOT/AOT_stimuli/rescaled_final/1197_fw.mp4	0.0	255.25957584381104	
52	238.85231804847717	fix_post	2		12	50.0	2.5	/experiments/knapen_AOT/AOT_stimuli/rescaled_final/1197_fw.mp4	0.0	255.3764100074768	0.0998239517211914
53	238.95214200019836	fix_pre	0		120	51.0	2.5	/experiments/knapen_AOT/AOT_stimuli/rescaled_final/2051_rv.mp4	0.0	255.476233959198	1.0000879764556885
53	239.95222997665405	movie	1		241	51.0	2.5	/experiments/knapen_AOT/AOT_stimuli/rescaled_final/2051_rv.mp4	0.0	256.4763219356537	2.4921140670776367
53	240.33697485923767	pulse	1	t		51.0	2.5	/experiments/knapen_AOT/AOT_stimuli/rescaled_final/2051_rv.mp4	0.0	256.8610668182373	
53	241.92791295051575	pulse	1	t		51.0	2.5	/experiments/knapen_AOT/AOT_stimuli/rescaled_final/2051_rv.mp4	0.0	258.4520049095154	
53	242.4443440437317	fix_post	2		12	51.0	2.5	/experiments/knapen_AOT/AOT_stimuli/rescaled_final/2051_rv.mp4	0.0	258.9684360027313	0.0999460220336914
54	242.54429006576538	fix_pre	0		119	52.0	2.5	/experiments/knapen_AOT/AOT_stimuli/rescaled_final/1653_fw.mp4	0.0	259.068382024765	0.991797924041748
54	243.52791094779968	pulse	0	t		52.0	2.5	/experiments/knapen_AOT/AOT_stimuli/rescaled_final/1653_fw.mp4	0.0	260.0520029067993	
54	243.53608798980713	movie	1		243	52.0	2.5	/experiments/knapen_AOT/AOT_stimuli/rescaled_final/1653_fw.mp4	0.0	260.06017994880676	2.5088000297546387
54	245.12866592407227	pulse	1	t		52.0	2.5	/experiments/knapen_AOT/AOT_stimuli/rescaled_final/1653_fw.mp4	0.0	261.6527578830719	
54	246.04488801956177	fix_post	2		12	52.0	2.5	/experiments/knapen_AOT/AOT_stimuli/rescaled_final/1653_fw.mp4	0.0	262.5689799785614	0.1000208854675293
55	246.1449089050293	fix_pre	0		120	53.0	2.5	/experiments/knapen_AOT/AOT_stimuli/rescaled_final/1009_fw.mp4	0.0	262.66900086402893	1.000096082687378
55	246.7284049987793	pulse	0	t		53.0	2.5	/experiments/knapen_AOT/AOT_stimuli/rescaled_final/1009_fw.mp4	0.0	263.25249695777893	
55	247.14500498771667	movie	1		243	53.0	2.5	/experiments/knapen_AOT/AOT_stimuli/rescaled_final/1009_fw.mp4	0.0	263.6690969467163	2.500446081161499
55	248.32878994941711	pulse	1	t		53.0	2.5	/experiments/knapen_AOT/AOT_stimuli/rescaled_final/1009_fw.mp4	0.0	264.85288190841675	
55	249.64545106887817	fix_post	2		12	53.0	2.5	/experiments/knapen_AOT/AOT_stimuli/rescaled_final/1009_fw.mp4	0.0	266.1695430278778	0.09992289543151855
56	249.7453739643097	fix_pre	0		120	54.0	2.5	/experiments/knapen_AOT/AOT_stimuli/rescaled_final/1810_fw.mp4	0.0	266.2694659233093	1.0001380443572998
56	249.92893886566162	pulse	0	t		54.0	2.5	/experiments/knapen_AOT/AOT_stimuli/rescaled_final/1810_fw.mp4	0.0	266.45303082466125	
56	250.745512008667	movie	1		242	54.0	2.5	/experiments/knapen_AOT/AOT_stimuli/rescaled_final/1810_fw.mp4	0.0	267.2696039676666	2.5006418228149414
56	251.52920794487	pulse	1	t		54.0	2.5	/experiments/knapen_AOT/AOT_stimuli/rescaled_final/1810_fw.mp4	0.0	268.05329990386963	
56	253.1300868988037	pulse	1	t		54.0	2.5	/experiments/knapen_AOT/AOT_stimuli/rescaled_final/1810_fw.mp4	0.0	269.65417885780334	
56	253.24615383148193	fix_post	2		12	54.0	2.5	/experiments/knapen_AOT/AOT_stimuli/rescaled_final/1810_fw.mp4	0.0	269.77024579048157	0.09982013702392578
57	253.34597396850586	fix_pre	0		120	55.0	2.5	blank	1.0	269.8700659275055	1.0000970363616943
57	254.34607100486755	movie	1		299	55.0	2.5	blank	1.0	270.8701629638672	2.4920408725738525
57	254.72966599464417	pulse	1	t		55.0	2.5	blank	1.0	271.2537579536438	
57	256.3298749923706	pulse	1	t		55.0	2.5	blank	1.0	272.85396695137024	
57	256.8381118774414	fix_post	2		12	55.0	2.5	blank	1.0	273.36220383644104	0.10004997253417969
58	256.9381618499756	fix_pre	0		120	56.0	2.5	/experiments/knapen_AOT/AOT_stimuli/rescaled_final/1519_rv.mp4	0.0	273.4622538089752	1.000068187713623
58	257.93013405799866	pulse	0	t		56.0	2.5	/experiments/knapen_AOT/AOT_stimuli/rescaled_final/1519_rv.mp4	0.0	274.4542260169983	
58	257.9382300376892	movie	1		243	56.0	2.5	/experiments/knapen_AOT/AOT_stimuli/rescaled_final/1519_rv.mp4	0.0	274.46232199668884	2.508791923522949
58	259.53095293045044	pulse	1	t		56.0	2.5	/experiments/knapen_AOT/AOT_stimuli/rescaled_final/1519_rv.mp4	0.0	276.0550448894501	
58	260.44702196121216	fix_post	2		12	56.0	2.5	/experiments/knapen_AOT/AOT_stimuli/rescaled_final/1519_rv.mp4	0.0	276.9711139202118	0.10001993179321289
59	260.54704189300537	fix_pre	0		120	57.0	2.5	/experiments/knapen_AOT/AOT_stimuli/rescaled_final/0362_fw.mp4	0.0	277.071133852005	1.0001561641693115
59	261.13054895401	pulse	0	t		57.0	2.5	/experiments/knapen_AOT/AOT_stimuli/rescaled_final/0362_fw.mp4	0.0	277.65464091300964	
59	261.5471980571747	movie	1		243	57.0	2.5	/experiments/knapen_AOT/AOT_stimuli/rescaled_final/0362_fw.mp4	0.0	278.0712900161743	2.5003349781036377
59	262.73090386390686	pulse	1	t		57.0	2.5	/experiments/knapen_AOT/AOT_stimuli/rescaled_final/0362_fw.mp4	0.0	279.2549958229065	
59	264.0475330352783	fix_post	2		12	57.0	2.5	/experiments/knapen_AOT/AOT_stimuli/rescaled_final/0362_fw.mp4	0.0	280.57162499427795	0.10001683235168457
60	264.14754986763	fix_pre	0		120	58.0	2.5	/experiments/knapen_AOT/AOT_stimuli/rescaled_final/0346_fw.mp4	0.0	280.67164182662964	1.0001120567321777
60	264.3310549259186	pulse	0	t		58.0	2.5	/experiments/knapen_AOT/AOT_stimuli/rescaled_final/0346_fw.mp4	0.0	280.8551468849182	
60	265.1476619243622	movie	1		243	58.0	2.5	/experiments/knapen_AOT/AOT_stimuli/rescaled_final/0346_fw.mp4	0.0	281.6717538833618	2.5004351139068604
60	265.9313268661499	pulse	1	t		58.0	2.5	/experiments/knapen_AOT/AOT_stimuli/rescaled_final/0346_fw.mp4	0.0	282.45541882514954	
60	267.5315799713135	pulse	1	t		58.0	2.5	/experiments/knapen_AOT/AOT_stimuli/rescaled_final/0346_fw.mp4	0.0	284.0556719303131	
60	267.64809703826904	fix_post	2		12	58.0	2.5	/experiments/knapen_AOT/AOT_stimuli/rescaled_final/0346_fw.mp4	0.0	284.1721889972687	0.10001802444458008
61	267.7481150627136	fix_pre	0		120	59.0	2.5	/experiments/knapen_AOT/AOT_stimuli/rescaled_final/0574_rv.mp4	0.0	284.27220702171326	1.000093936920166
61	268.7482089996338	movie	1		244	59.0	2.5	/experiments/knapen_AOT/AOT_stimuli/rescaled_final/0574_rv.mp4	0.0	285.2723009586334	2.492051839828491
61	269.1324429512024	pulse	1	t		59.0	2.5	/experiments/knapen_AOT/AOT_stimuli/rescaled_final/0574_rv.mp4	0.0	285.656534910202	
61	270.73201298713684	pulse	1	t		59.0	2.5	/experiments/knapen_AOT/AOT_stimuli/rescaled_final/0574_rv.mp4	0.0	287.2561049461365	
61	271.2402608394623	fix_post	2		12	59.0	2.5	/experiments/knapen_AOT/AOT_stimuli/rescaled_final/0574_rv.mp4	0.0	287.7643527984619	0.10003304481506348
62	271.34029388427734	fix_pre	0		120	60.0	2.5	/experiments/knapen_AOT/AOT_stimuli/rescaled_final/0400_fw.mp4	0.0	287.864385843277	1.0000970363616943
62	272.3322379589081	pulse	0	t		60.0	2.5	/experiments/knapen_AOT/AOT_stimuli/rescaled_final/0400_fw.mp4	0.0	288.8563299179077	
62	272.34039092063904	movie	1		245	60.0	2.5	/experiments/knapen_AOT/AOT_stimuli/rescaled_final/0400_fw.mp4	0.0	288.8644828796387	2.5088040828704834
62	273.9338538646698	pulse	1	t		60.0	2.5	/experiments/knapen_AOT/AOT_stimuli/rescaled_final/0400_fw.mp4	0.0	290.45794582366943	
62	274.8491950035095	fix_post	2		12	60.0	2.5	/experiments/knapen_AOT/AOT_stimuli/rescaled_final/0400_fw.mp4	0.0	291.37328696250916	0.10001587867736816
63	274.9492108821869	fix_pre	0		120	61.0	2.5	/experiments/knapen_AOT/AOT_stimuli/rescaled_final/0833_fw.mp4	0.0	291.4733028411865	1.0000801086425781
63	275.5328199863434	pulse	0	t		61.0	2.5	/experiments/knapen_AOT/AOT_stimuli/rescaled_final/0833_fw.mp4	0.0	292.056911945343	
63	275.94929099082947	movie	1		242	61.0	2.5	/experiments/knapen_AOT/AOT_stimuli/rescaled_final/0833_fw.mp4	0.0	292.4733829498291	2.500408887863159
63	277.13309597969055	pulse	1	t		61.0	2.5	/experiments/knapen_AOT/AOT_stimuli/rescaled_final/0833_fw.mp4	0.0	293.6571879386902	
63	278.4496998786926	fix_post	2		12	61.0	2.5	/experiments/knapen_AOT/AOT_stimuli/rescaled_final/0833_fw.mp4	0.0	294.97379183769226	0.09999203681945801
64	278.5496919155121	fix_pre	0		120	62.0	2.5	blank	1.0	295.0737838745117	1.0001461505889893
64	278.73322892189026	pulse	0	t		62.0	2.5	blank	1.0	295.2573208808899	
64	279.5498380661011	movie	1		300	62.0	2.5	blank	1.0	296.0739300251007	2.500394821166992
64	280.33350586891174	pulse	1	t		62.0	2.5	blank	1.0	296.8575978279114	
64	281.933709859848	pulse	1	t		62.0	2.5	blank	1.0	298.45780181884766	
64	282.05023288726807	fix_post	2		10	62.0	2.5	blank	1.0	298.5743248462677	0.09997296333312988
65	282.1502058506012	fix_pre	0		119	63.0	2.5	/experiments/knapen_AOT/AOT_stimuli/rescaled_final/1336_fw.mp4	0.0	298.67429780960083	0.9918220043182373
65	283.14202785491943	movie	1		243	63.0	2.5	/experiments/knapen_AOT/AOT_stimuli/rescaled_final/1336_fw.mp4	0.0	299.66611981391907	2.500378131866455
65	283.53412795066833	pulse	1	t		63.0	2.5	/experiments/knapen_AOT/AOT_stimuli/rescaled_final/1336_fw.mp4	0.0	300.05821990966797	
65	285.1341989040375	pulse	1	t		63.0	2.5	/experiments/knapen_AOT/AOT_stimuli/rescaled_final/1336_fw.mp4	0.0	301.6582908630371	
65	285.6424059867859	fix_post	2		12	63.0	2.5	/experiments/knapen_AOT/AOT_stimuli/rescaled_final/1336_fw.mp4	0.0	302.1664979457855	0.09998798370361328
66	285.7423939704895	fix_pre	0		120	64.0	2.5	/experiments/knapen_AOT/AOT_stimuli/rescaled_final/0237_rv.mp4	0.0	302.26648592948914	1.0001959800720215
66	286.7344000339508	pulse	0	t		64.0	2.5	/experiments/knapen_AOT/AOT_stimuli/rescaled_final/0237_rv.mp4	0.0	303.25849199295044	
66	286.7425899505615	movie	1		244	64.0	2.5	/experiments/knapen_AOT/AOT_stimuli/rescaled_final/0237_rv.mp4	0.0	303.26668190956116	2.5087220668792725
66	288.3353340625763	pulse	1	t		64.0	2.5	/experiments/knapen_AOT/AOT_stimuli/rescaled_final/0237_rv.mp4	0.0	304.8594260215759	
66	289.2513120174408	fix_post	2		12	64.0	2.5	/experiments/knapen_AOT/AOT_stimuli/rescaled_final/0237_rv.mp4	0.0	305.77540397644043	0.09995484352111816
67	289.3512668609619	fix_pre	0		120	65.0	2.5	/experiments/knapen_AOT/AOT_stimuli/rescaled_final/1874_rv.mp4	0.0	305.87535881996155	1.000236988067627
67	289.9273660182953	pulse	0	t		65.0	2.5	/experiments/knapen_AOT/AOT_stimuli/rescaled_final/1874_rv.mp4	0.0	306.4514579772949	
67	290.35150384902954	movie	1		244	65.0	2.5	/experiments/knapen_AOT/AOT_stimuli/rescaled_final/1874_rv.mp4	0.0	306.8755958080292	2.5003700256347656
67	291.5306599140167	pulse	1	t		65.0	2.5	/experiments/knapen_AOT/AOT_stimuli/rescaled_final/1874_rv.mp4	0.0	308.05475187301636	
67	292.8518738746643	fix_post	2		12	65.0	2.5	/experiments/knapen_AOT/AOT_stimuli/rescaled_final/1874_rv.mp4	0.0	309.37596583366394	0.09998917579650879
68	292.9518630504608	fix_pre	0		120	66.0	2.5	/experiments/knapen_AOT/AOT_stimuli/rescaled_final/1234_fw.mp4	0.0	309.47595500946045	1.0001189708709717
68	293.12797689437866	pulse	0	t		66.0	2.5	/experiments/knapen_AOT/AOT_stimuli/rescaled_final/1234_fw.mp4	0.0	309.6520688533783	
68	293.9519820213318	movie	1		243	66.0	2.5	/experiments/knapen_AOT/AOT_stimuli/rescaled_final/1234_fw.mp4	0.0	310.4760739803314	2.5004019737243652
68	294.7281448841095	pulse	1	t		66.0	2.5	/experiments/knapen_AOT/AOT_stimuli/rescaled_final/1234_fw.mp4	0.0	311.25223684310913	
68	296.32764291763306	pulse	1	t		66.0	2.5	/experiments/knapen_AOT/AOT_stimuli/rescaled_final/1234_fw.mp4	0.0	312.8517348766327	
68	296.45238399505615	fix_post	2		12	66.0	2.5	/experiments/knapen_AOT/AOT_stimuli/rescaled_final/1234_fw.mp4	0.0	312.9764759540558	0.09999203681945801
69	296.5523760318756	fix_pre	0		119	67.0	2.5	/experiments/knapen_AOT/AOT_stimuli/rescaled_final/0536_rv.mp4	0.0	313.07646799087524	0.9917809963226318
69	297.54415702819824	movie	1		243	67.0	2.5	/experiments/knapen_AOT/AOT_stimuli/rescaled_final/0536_rv.mp4	0.0	314.0682489871979	2.5006020069122314
69	297.9282069206238	pulse	1	t		67.0	2.5	/experiments/knapen_AOT/AOT_stimuli/rescaled_final/0536_rv.mp4	0.0	314.4522988796234	
69	299.5280120372772	pulse	1	t		67.0	2.5	/experiments/knapen_AOT/AOT_stimuli/rescaled_final/0536_rv.mp4	0.0	316.05210399627686	
69	300.0447590351105	fix_post	2		12	67.0	2.5	/experiments/knapen_AOT/AOT_stimuli/rescaled_final/0536_rv.mp4	0.0	316.5688509941101	0.09989285469055176
70	300.144651889801	fix_pre	0		119	68.0	2.5	/experiments/knapen_AOT/AOT_stimuli/rescaled_final/1928_rv.mp4	0.0	316.66874384880066	0.9917240142822266
70	301.128289937973	pulse	0	t		68.0	2.5	/experiments/knapen_AOT/AOT_stimuli/rescaled_final/1928_rv.mp4	0.0	317.65238189697266	
70	301.13637590408325	movie	1		244	68.0	2.5	/experiments/knapen_AOT/AOT_stimuli/rescaled_final/1928_rv.mp4	0.0	317.6604678630829	2.50883412361145
70	302.72906589508057	pulse	1	t		68.0	2.5	/experiments/knapen_AOT/AOT_stimuli/rescaled_final/1928_rv.mp4	0.0	319.2531578540802	
70	303.6452100276947	fix_post	2		12	68.0	2.5	/experiments/knapen_AOT/AOT_stimuli/rescaled_final/1928_rv.mp4	0.0	320.16930198669434	0.09994697570800781
71	303.7451570034027	fix_pre	0		120	69.0	2.5	blank	1.0	320.26924896240234	1.0000908374786377
71	304.3287558555603	pulse	0	t		69.0	2.5	blank	1.0	320.85284781455994	
71	304.74524784088135	movie	1		300	69.0	2.5	blank	1.0	321.269339799881	2.5003881454467773
71	305.9289309978485	pulse	1	t		69.0	2.5	blank	1.0	322.45302295684814	
71	307.2456359863281	fix_post	2		12	69.0	2.5	blank	1.0	323.76972794532776	0.10006499290466309
72	307.3457009792328	fix_pre	0		120	70.0	2.5	/experiments/knapen_AOT/AOT_stimuli/rescaled_final/1020_rv.mp4	0.0	323.8697929382324	1.000096082687378
72	307.5294108390808	pulse	0	t		70.0	2.5	/experiments/knapen_AOT/AOT_stimuli/rescaled_final/1020_rv.mp4	0.0	324.05350279808044	
72	308.34579706192017	movie	1		244	70.0	2.5	/experiments/knapen_AOT/AOT_stimuli/rescaled_final/1020_rv.mp4	0.0	324.8698890209198	2.5003628730773926
72	309.12941002845764	pulse	1	t		70.0	2.5	/experiments/knapen_AOT/AOT_stimuli/rescaled_final/1020_rv.mp4	0.0	325.6535019874573	
72	310.729514837265	pulse	1	t		70.0	2.5	/experiments/knapen_AOT/AOT_stimuli/rescaled_final/1020_rv.mp4	0.0	327.25360679626465	
72	310.84615993499756	fix_post	2		12	70.0	2.5	/experiments/knapen_AOT/AOT_stimuli/rescaled_final/1020_rv.mp4	0.0	327.3702518939972	0.10003995895385742
73	310.9461998939514	fix_pre	0		120	71.0	2.5	/experiments/knapen_AOT/AOT_stimuli/rescaled_final/1674_rv.mp4	0.0	327.47029185295105	1.0001089572906494
73	311.94630885124207	movie	1		241	71.0	2.5	/experiments/knapen_AOT/AOT_stimuli/rescaled_final/1674_rv.mp4	0.0	328.4704008102417	2.492112159729004
73	312.33061695098877	pulse	1	t		71.0	2.5	/experiments/knapen_AOT/AOT_stimuli/rescaled_final/1674_rv.mp4	0.0	328.8547089099884	
73	313.9301269054413	pulse	1	t		71.0	2.5	/experiments/knapen_AOT/AOT_stimuli/rescaled_final/1674_rv.mp4	0.0	330.4542188644409	
73	314.43842101097107	fix_post	2		12	71.0	2.5	/experiments/knapen_AOT/AOT_stimuli/rescaled_final/1674_rv.mp4	0.0	330.9625129699707	0.09998083114624023
74	314.5384018421173	fix_pre	0		120	72.0	2.5	/experiments/knapen_AOT/AOT_stimuli/rescaled_final/2099_fw.mp4	0.0	331.06249380111694	1.0002620220184326
74	315.530385017395	pulse	0	t		72.0	2.5	/experiments/knapen_AOT/AOT_stimuli/rescaled_final/2099_fw.mp4	0.0	332.05447697639465	
74	315.53866386413574	movie	1		244	72.0	2.5	/experiments/knapen_AOT/AOT_stimuli/rescaled_final/2099_fw.mp4	0.0	332.0627558231354	2.5085561275482178
74	317.1311469078064	pulse	1	t		72.0	2.5	/experiments/knapen_AOT/AOT_stimuli/rescaled_final/2099_fw.mp4	0.0	333.65523886680603	
74	318.04721999168396	fix_post	2		12	72.0	2.5	/experiments/knapen_AOT/AOT_stimuli/rescaled_final/2099_fw.mp4	0.0	334.5713119506836	0.10001802444458008
75	318.14723801612854	fix_pre	0		120	73.0	2.5	/experiments/knapen_AOT/AOT_stimuli/rescaled_final/2032_rv.mp4	0.0	334.6713299751282	1.0001449584960938
75	318.73099303245544	pulse	0	t		73.0	2.5	/experiments/knapen_AOT/AOT_stimuli/rescaled_final/2032_rv.mp4	0.0	335.2550849914551	
75	319.14738297462463	movie	1		242	73.0	2.5	/experiments/knapen_AOT/AOT_stimuli/rescaled_final/2032_rv.mp4	0.0	335.67147493362427	2.500443935394287
75	320.3312819004059	pulse	1	t		73.0	2.5	/experiments/knapen_AOT/AOT_stimuli/rescaled_final/2032_rv.mp4	0.0	336.8553738594055	
75	321.6478269100189	fix_post	2		12	73.0	2.5	/experiments/knapen_AOT/AOT_stimuli/rescaled_final/2032_rv.mp4	0.0	338.17191886901855	0.1000070571899414
76	321.74783396720886	fix_pre	0		120	74.0	2.5	/experiments/knapen_AOT/AOT_stimuli/rescaled_final/0284_rv.mp4	0.0	338.2719259262085	1.00016188621521
76	321.9313759803772	pulse	0	t		74.0	2.5	/experiments/knapen_AOT/AOT_stimuli/rescaled_final/0284_rv.mp4	0.0	338.45546793937683	
76	322.7479958534241	movie	1		242	74.0	2.5	/experiments/knapen_AOT/AOT_stimuli/rescaled_final/0284_rv.mp4	0.0	339.2720878124237	2.500462055206299
76	323.531546831131	pulse	1	t		74.0	2.5	/experiments/knapen_AOT/AOT_stimuli/rescaled_final/0284_rv.mp4	0.0	340.0556387901306	
76	325.131698846817	pulse	1	t		74.0	2.5	/experiments/knapen_AOT/AOT_stimuli/rescaled_final/0284_rv.mp4	0.0	341.65579080581665	
76	325.24845790863037	fix_post	2		12	74.0	2.5	/experiments/knapen_AOT/AOT_stimuli/rescaled_final/0284_rv.mp4	0.0	341.77254986763	0.09984898567199707
77	325.34830689430237	fix_pre	0		119	75.0	2.5	/experiments/knapen_AOT/AOT_stimuli/rescaled_final/1674_rv.mp4	0.0	341.872398853302	0.9918560981750488
77	326.3401629924774	movie	1		242	75.0	2.5	/experiments/knapen_AOT/AOT_stimuli/rescaled_final/1674_rv.mp4	0.0	342.86425495147705	2.500427007675171
77	326.73227095603943	pulse	1	t		75.0	2.5	/experiments/knapen_AOT/AOT_stimuli/rescaled_final/1674_rv.mp4	0.0	343.25636291503906	
77	328.3323860168457	pulse	1	t		75.0	2.5	/experiments/knapen_AOT/AOT_stimuli/rescaled_final/1674_rv.mp4	0.0	344.85647797584534	
77	328.8405900001526	fix_post	2		12	75.0	2.5	/experiments/knapen_AOT/AOT_stimuli/rescaled_final/1674_rv.mp4	0.0	345.3646819591522	0.09992599487304688
78	328.94051599502563	fix_pre	0		120	76.0	2.5	blank	1.0	345.46460795402527	1.0002570152282715
78	329.93250703811646	pulse	0	t		76.0	2.5	blank	1.0	346.4565989971161	
78	329.9407730102539	movie	1		301	76.0	2.5	blank	1.0	346.46486496925354	2.5086050033569336
78	331.5328290462494	pulse	1	t		76.0	2.5	blank	1.0	348.056921005249	
78	332.44937801361084	fix_post	2		12	76.0	2.5	blank	1.0	348.9734699726105	0.10002398490905762
79	332.5494019985199	fix_pre	0		120	77.0	2.5	/experiments/knapen_AOT/AOT_stimuli/rescaled_final/1009_rv.mp4	0.0	349.07349395751953	1.00016188621521
79	333.1331639289856	pulse	0	t		77.0	2.5	/experiments/knapen_AOT/AOT_stimuli/rescaled_final/1009_rv.mp4	0.0	349.65725588798523	
79	333.5495638847351	movie	1		243	77.0	2.5	/experiments/knapen_AOT/AOT_stimuli/rescaled_final/1009_rv.mp4	0.0	350.07365584373474	2.5005900859832764
79	334.73339104652405	pulse	1	t		77.0	2.5	/experiments/knapen_AOT/AOT_stimuli/rescaled_final/1009_rv.mp4	0.0	351.2574830055237	
79	336.0501539707184	fix_post	2		12	77.0	2.5	/experiments/knapen_AOT/AOT_stimuli/rescaled_final/1009_rv.mp4	0.0	352.574245929718	0.09984302520751953
80	336.1499969959259	fix_pre	0		120	78.0	2.5	/experiments/knapen_AOT/AOT_stimuli/rescaled_final/1276_rv.mp4	0.0	352.67408895492554	1.0001180171966553
80	336.333477973938	pulse	0	t		78.0	2.5	/experiments/knapen_AOT/AOT_stimuli/rescaled_final/1276_rv.mp4	0.0	352.8575699329376	
80	337.15011501312256	movie	1		243	78.0	2.5	/experiments/knapen_AOT/AOT_stimuli/rescaled_final/1276_rv.mp4	0.0	353.6742069721222	2.5005998611450195
80	337.9337258338928	pulse	1	t		78.0	2.5	/experiments/knapen_AOT/AOT_stimuli/rescaled_final/1276_rv.mp4	0.0	354.45781779289246	
80	339.53400588035583	pulse	1	t		78.0	2.5	/experiments/knapen_AOT/AOT_stimuli/rescaled_final/1276_rv.mp4	0.0	356.05809783935547	
80	339.6507148742676	fix_post	2		12	78.0	2.5	/experiments/knapen_AOT/AOT_stimuli/rescaled_final/1276_rv.mp4	0.0	356.1748068332672	0.09984707832336426
81	339.75056195259094	fix_pre	0		119	79.0	2.5	/experiments/knapen_AOT/AOT_stimuli/rescaled_final/0346_rv.mp4	0.0	356.2746539115906	0.9917299747467041
81	340.74229192733765	movie	1		242	79.0	2.5	/experiments/knapen_AOT/AOT_stimuli/rescaled_final/0346_rv.mp4	0.0	357.2663838863373	2.5122101306915283
81	341.1343970298767	pulse	1	t		79.0	2.5	/experiments/knapen_AOT/AOT_stimuli/rescaled_final/0346_rv.mp4	0.0	357.65848898887634	
81	342.73452401161194	pulse	1	t		79.0	2.5	/experiments/knapen_AOT/AOT_stimuli/rescaled_final/0346_rv.mp4	0.0	359.2586159706116	
81	343.2545020580292	fix_post	2		11	79.0	2.5	/experiments/knapen_AOT/AOT_stimuli/rescaled_final/0346_rv.mp4	0.0	359.7785940170288	0.08821582794189453
82	343.34271788597107	fix_pre	0		120	80.0	2.5	/experiments/knapen_AOT/AOT_stimuli/rescaled_final/1486_fw.mp4	0.0	359.8668098449707	1.0001721382141113
82	344.33468794822693	pulse	0	t		80.0	2.5	/experiments/knapen_AOT/AOT_stimuli/rescaled_final/1486_fw.mp4	0.0	360.85877990722656	
82	344.3428900241852	movie	1		244	80.0	2.5	/experiments/knapen_AOT/AOT_stimuli/rescaled_final/1486_fw.mp4	0.0	360.8669819831848	2.508814811706543
82	345.9355869293213	pulse	1	t		80.0	2.5	/experiments/knapen_AOT/AOT_stimuli/rescaled_final/1486_fw.mp4	0.0	362.4596788883209	
82	346.8517048358917	fix_post	2		12	80.0	2.5	/experiments/knapen_AOT/AOT_stimuli/rescaled_final/1486_fw.mp4	0.0	363.37579679489136	0.09989500045776367
83	346.9515998363495	fix_pre	0		120	81.0	2.5	/experiments/knapen_AOT/AOT_stimuli/rescaled_final/1087_fw.mp4	0.0	363.4756917953491	1.000096082687378
83	347.5353150367737	pulse	0	t		81.0	2.5	/experiments/knapen_AOT/AOT_stimuli/rescaled_final/1087_fw.mp4	0.0	364.0594069957733	
83	347.95169591903687	movie	1		243	81.0	2.5	/experiments/knapen_AOT/AOT_stimuli/rescaled_final/1087_fw.mp4	0.0	364.4757878780365	2.500560998916626
83	349.13556385040283	pulse	1	t		81.0	2.5	/experiments/knapen_AOT/AOT_stimuli/rescaled_final/1087_fw.mp4	0.0	365.65965580940247	
83	350.4522569179535	fix_post	2		12	81.0	2.5	/experiments/knapen_AOT/AOT_stimuli/rescaled_final/1087_fw.mp4	0.0	366.9763488769531	0.09991002082824707
84	350.55216693878174	fix_pre	0		120	82.0	2.5	/experiments/knapen_AOT/AOT_stimuli/rescaled_final/0805_rv.mp4	0.0	367.0762588977814	1.0000500679016113
84	350.72815203666687	pulse	0	t		82.0	2.5	/experiments/knapen_AOT/AOT_stimuli/rescaled_final/0805_rv.mp4	0.0	367.2522439956665	
84	351.55221700668335	movie	1		243	82.0	2.5	/experiments/knapen_AOT/AOT_stimuli/rescaled_final/0805_rv.mp4	0.0	368.076308965683	2.5005669593811035
84	352.32860589027405	pulse	1	t		82.0	2.5	/experiments/knapen_AOT/AOT_stimuli/rescaled_final/0805_rv.mp4	0.0	368.8526978492737	
84	353.9362208843231	pulse	1	t		82.0	2.5	/experiments/knapen_AOT/AOT_stimuli/rescaled_final/0805_rv.mp4	0.0	370.46031284332275	
84	354.05278396606445	fix_post	2		12	82.0	2.5	/experiments/knapen_AOT/AOT_stimuli/rescaled_final/0805_rv.mp4	0.0	370.5768759250641	0.09987401962280273
85	354.15265798568726	fix_pre	0		120	83.0	2.5	blank	1.0	370.6767499446869	1.0001230239868164
85	355.1527810096741	movie	1		299	83.0	2.5	blank	1.0	371.6768729686737	2.4920430183410645
85	355.5281949043274	pulse	1	t		83.0	2.5	blank	1.0	372.052286863327	
85	357.12820386886597	pulse	1	t		83.0	2.5	blank	1.0	373.6522958278656	
85	357.64482402801514	fix_post	2		12	83.0	2.5	blank	1.0	374.16891598701477	0.10005402565002441
87	357.74487805366516	stim	0		1716					374.2689700126648	14.302175998687744
87	358.7284438610077	pulse	0	t						375.2525358200073	
87	360.32890486717224	pulse	0	t						376.8529968261719	
87	361.9289360046387	pulse	0	t						378.4530279636383	
87	363.5291769504547	pulse	0	t						380.05326890945435	
87	365.12937092781067	pulse	0	t						381.6534628868103	
87	366.7296528816223	pulse	0	t						383.25374484062195	
87	368.3299329280853	pulse	0	t						384.85402488708496	
87	369.9301760196686	pulse	0	t						386.4542679786682	
87	371.53039288520813	pulse	0	t						388.05448484420776	
