trial_nr	onset	event_type	phase	response	nr_frames	movie_index	movie_duration	movie_file	blank	onset_abs	duration
0	0.16636419296264648	stim	0		6					16.216840744018555	0.04994678497314453
0	0.20819878578186035	response	0	space						16.25867533683777	
1	0.21631097793579102	stim	0		3871					16.2667875289917	32.27455496788025
1	32.481271505355835	pulse	0	t						48.53174805641174	
1	32.49086594581604	stim	1		1716					48.54134249687195	14.307511806488037
1	34.07181167602539	pulse	1	t						50.1222882270813	
1	35.6718430519104	pulse	1	t						51.72231960296631	
1	37.27215003967285	pulse	1	t						53.32262659072876	
1	38.87233281135559	pulse	1	t						54.9228093624115	
1	40.472580909729004	pulse	1	t						56.52305746078491	
1	42.07282638549805	pulse	1	t						58.123302936553955	
1	43.67303800582886	pulse	1	t						59.723514556884766	
1	45.27333617210388	pulse	1	t						61.32381272315979	
2	46.79837775230408	fix_pre	0		10	0.0	2.5	/experiments/Knapen_AOT/AOT_stimuli/rescaled_final/0508_rv.mp4	0.0	62.848854303359985	0.10006976127624512
2	46.873507261276245	pulse	0	t		0.0	2.5	/experiments/Knapen_AOT/AOT_stimuli/rescaled_final/0508_rv.mp4	0.0	62.92398381233215	
2	46.89844751358032	movie	1		283	0.0	2.5	/experiments/Knapen_AOT/AOT_stimuli/rescaled_final/0508_rv.mp4	0.0	62.94892406463623	2.4919421672821045
2	48.47357773780823	pulse	1	t		0.0	2.5	/experiments/Knapen_AOT/AOT_stimuli/rescaled_final/0508_rv.mp4	0.0	64.52405428886414	
2	49.39038968086243	fix_post	2		12	0.0	2.5	/experiments/Knapen_AOT/AOT_stimuli/rescaled_final/0508_rv.mp4	0.0	65.44086623191833	0.10001397132873535
3	49.49040365219116	fix_pre	0		120	1.0	2.5	/experiments/Knapen_AOT/AOT_stimuli/rescaled_final/1387_rv.mp4	0.0	65.54088020324707	1.0085575580596924
3	50.07407212257385	pulse	0	t		1.0	2.5	/experiments/Knapen_AOT/AOT_stimuli/rescaled_final/1387_rv.mp4	0.0	66.12454867362976	
3	50.498961210250854	movie	1		289	1.0	2.5	/experiments/Knapen_AOT/AOT_stimuli/rescaled_final/1387_rv.mp4	0.0	66.54943776130676	2.492042064666748
3	51.672566413879395	pulse	1	t		1.0	2.5	/experiments/Knapen_AOT/AOT_stimuli/rescaled_final/1387_rv.mp4	0.0	67.7230429649353	
3	52.9910032749176	fix_post	2		12	1.0	2.5	/experiments/Knapen_AOT/AOT_stimuli/rescaled_final/1387_rv.mp4	0.0	69.04147982597351	0.09998512268066406
4	53.09098839759827	fix_pre	0		120	2.0	2.5	/experiments/Knapen_AOT/AOT_stimuli/rescaled_final/1100_rv.mp4	0.0	69.14146494865417	1.00846529006958
4	53.27447175979614	pulse	0	t		2.0	2.5	/experiments/Knapen_AOT/AOT_stimuli/rescaled_final/1100_rv.mp4	0.0	69.32494831085205	
4	54.09945368766785	movie	1		282	2.0	2.5	/experiments/Knapen_AOT/AOT_stimuli/rescaled_final/1100_rv.mp4	0.0	70.14993023872375	2.492060661315918
4	54.87240672111511	pulse	1	t		2.0	2.5	/experiments/Knapen_AOT/AOT_stimuli/rescaled_final/1100_rv.mp4	0.0	70.92288327217102	
4	56.47279381752014	pulse	1	t		2.0	2.5	/experiments/Knapen_AOT/AOT_stimuli/rescaled_final/1100_rv.mp4	0.0	72.52327036857605	
4	56.591514348983765	fix_post	2		12	2.0	2.5	/experiments/Knapen_AOT/AOT_stimuli/rescaled_final/1100_rv.mp4	0.0	72.64199090003967	0.09998583793640137
5	56.691500186920166	fix_pre	0		120	3.0	2.5	/experiments/Knapen_AOT/AOT_stimuli/rescaled_final/0189_fw.mp4	0.0	72.74197673797607	1.0084989070892334
5	57.6999990940094	movie	1		285	3.0	2.5	/experiments/Knapen_AOT/AOT_stimuli/rescaled_final/0189_fw.mp4	0.0	73.75047564506531	2.49202823638916
5	58.07352685928345	pulse	1	t		3.0	2.5	/experiments/Knapen_AOT/AOT_stimuli/rescaled_final/0189_fw.mp4	0.0	74.12400341033936	
5	59.67368531227112	pulse	1	t		3.0	2.5	/experiments/Knapen_AOT/AOT_stimuli/rescaled_final/0189_fw.mp4	0.0	75.72416186332703	
5	60.19202733039856	fix_post	2		12	3.0	2.5	/experiments/Knapen_AOT/AOT_stimuli/rescaled_final/0189_fw.mp4	0.0	76.24250388145447	0.10000967979431152
6	60.29203701019287	fix_pre	0		119	4.0	2.5	/experiments/Knapen_AOT/AOT_stimuli/rescaled_final/0691_rv.mp4	0.0	76.34251356124878	1.0002374649047852
6	61.27571225166321	pulse	0	t		4.0	2.5	/experiments/Knapen_AOT/AOT_stimuli/rescaled_final/0691_rv.mp4	0.0	77.32618880271912	
6	61.292274475097656	movie	1		284	4.0	2.5	/experiments/Knapen_AOT/AOT_stimuli/rescaled_final/0691_rv.mp4	0.0	77.34275102615356	2.5003137588500977
6	62.874573945999146	pulse	1	t		4.0	2.5	/experiments/Knapen_AOT/AOT_stimuli/rescaled_final/0691_rv.mp4	0.0	78.92505049705505	
6	63.792588233947754	fix_post	2		12	4.0	2.5	/experiments/Knapen_AOT/AOT_stimuli/rescaled_final/0691_rv.mp4	0.0	79.84306478500366	0.09999465942382812
7	63.89258289337158	fix_pre	0		120	5.0	2.5	blank	1.0	79.94305944442749	1.0001285076141357
7	64.47616076469421	pulse	0	t		5.0	2.5	blank	1.0	80.52663731575012	
7	64.89271140098572	movie	1		300	5.0	2.5	blank	1.0	80.94318795204163	2.5003864765167236
7	66.07642817497253	pulse	1	t		5.0	2.5	blank	1.0	82.12690472602844	
7	67.39309787750244	fix_post	2		12	5.0	2.5	blank	1.0	83.44357442855835	0.10001516342163086
8	67.49311304092407	fix_pre	0		120	6.0	2.5	/experiments/Knapen_AOT/AOT_stimuli/rescaled_final/1542_rv.mp4	0.0	83.54358959197998	1.0084843635559082
8	67.67664766311646	pulse	0	t		6.0	2.5	/experiments/Knapen_AOT/AOT_stimuli/rescaled_final/1542_rv.mp4	0.0	83.72712421417236	
8	68.50159740447998	movie	1		277	6.0	2.5	/experiments/Knapen_AOT/AOT_stimuli/rescaled_final/1542_rv.mp4	0.0	84.55207395553589	2.4920315742492676
8	69.27461004257202	pulse	1	t		6.0	2.5	/experiments/Knapen_AOT/AOT_stimuli/rescaled_final/1542_rv.mp4	0.0	85.32508659362793	
8	70.87500095367432	pulse	1	t		6.0	2.5	/experiments/Knapen_AOT/AOT_stimuli/rescaled_final/1542_rv.mp4	0.0	86.92547750473022	
8	70.99362897872925	fix_post	2		12	6.0	2.5	/experiments/Knapen_AOT/AOT_stimuli/rescaled_final/1542_rv.mp4	0.0	87.04410552978516	0.10001087188720703
9	71.09363985061646	fix_pre	0		120	7.0	2.5	/experiments/Knapen_AOT/AOT_stimuli/rescaled_final/2050_rv.mp4	0.0	87.14411640167236	1.0085253715515137
9	72.10216522216797	movie	1		279	7.0	2.5	/experiments/Knapen_AOT/AOT_stimuli/rescaled_final/2050_rv.mp4	0.0	88.15264177322388	2.492095470428467
9	72.47554349899292	pulse	1	t		7.0	2.5	/experiments/Knapen_AOT/AOT_stimuli/rescaled_final/2050_rv.mp4	0.0	88.52602005004883	
9	74.07555532455444	pulse	1	t		7.0	2.5	/experiments/Knapen_AOT/AOT_stimuli/rescaled_final/2050_rv.mp4	0.0	90.12603187561035	
9	74.59426069259644	fix_post	2		12	7.0	2.5	/experiments/Knapen_AOT/AOT_stimuli/rescaled_final/2050_rv.mp4	0.0	90.64473724365234	0.0999302864074707
10	74.6941909790039	fix_pre	0		119	8.0	2.5	/experiments/Knapen_AOT/AOT_stimuli/rescaled_final/1029_fw.mp4	0.0	90.74466753005981	1.0086054801940918
10	75.67800569534302	pulse	0	t		8.0	2.5	/experiments/Knapen_AOT/AOT_stimuli/rescaled_final/1029_fw.mp4	0.0	91.72848224639893	
10	75.702796459198	movie	1		288	8.0	2.5	/experiments/Knapen_AOT/AOT_stimuli/rescaled_final/1029_fw.mp4	0.0	91.7532730102539	2.491939067840576
10	77.27692985534668	pulse	1	t		8.0	2.5	/experiments/Knapen_AOT/AOT_stimuli/rescaled_final/1029_fw.mp4	0.0	93.32740640640259	
10	78.19473552703857	fix_post	2		12	8.0	2.5	/experiments/Knapen_AOT/AOT_stimuli/rescaled_final/1029_fw.mp4	0.0	94.24521207809448	0.1000051498413086
11	78.29474067687988	fix_pre	0		120	9.0	2.5	/experiments/Knapen_AOT/AOT_stimuli/rescaled_final/0450_rv.mp4	0.0	94.34521722793579	1.008512020111084
11	78.8708713054657	pulse	0	t		9.0	2.5	/experiments/Knapen_AOT/AOT_stimuli/rescaled_final/0450_rv.mp4	0.0	94.9213478565216	
11	79.30325269699097	movie	1		280	9.0	2.5	/experiments/Knapen_AOT/AOT_stimuli/rescaled_final/0450_rv.mp4	0.0	95.35372924804688	2.492011785507202
11	80.47719740867615	pulse	1	t		9.0	2.5	/experiments/Knapen_AOT/AOT_stimuli/rescaled_final/0450_rv.mp4	0.0	96.52767395973206	
11	81.79526448249817	fix_post	2		12	9.0	2.5	/experiments/Knapen_AOT/AOT_stimuli/rescaled_final/0450_rv.mp4	0.0	97.84574103355408	0.10001730918884277
12	81.89528179168701	fix_pre	0		120	10.0	2.5	/experiments/Knapen_AOT/AOT_stimuli/rescaled_final/0384_rv.mp4	0.0	97.94575834274292	1.0085303783416748
12	82.07101225852966	pulse	0	t		10.0	2.5	/experiments/Knapen_AOT/AOT_stimuli/rescaled_final/0384_rv.mp4	0.0	98.12148880958557	
12	82.90381217002869	movie	1		270	10.0	2.5	/experiments/Knapen_AOT/AOT_stimuli/rescaled_final/0384_rv.mp4	0.0	98.9542887210846	2.492021083831787
12	83.67096304893494	pulse	1	t		10.0	2.5	/experiments/Knapen_AOT/AOT_stimuli/rescaled_final/0384_rv.mp4	0.0	99.72143959999084	
12	85.27100586891174	pulse	1	t		10.0	2.5	/experiments/Knapen_AOT/AOT_stimuli/rescaled_final/0384_rv.mp4	0.0	101.32148241996765	
12	85.39583325386047	fix_post	2		12	10.0	2.5	/experiments/Knapen_AOT/AOT_stimuli/rescaled_final/0384_rv.mp4	0.0	101.44630980491638	0.10000205039978027
13	85.49583530426025	fix_pre	0		120	11.0	2.5	/experiments/Knapen_AOT/AOT_stimuli/rescaled_final/0788_rv.mp4	0.0	101.54631185531616	1.0085036754608154
13	86.50433897972107	movie	1		276	11.0	2.5	/experiments/Knapen_AOT/AOT_stimuli/rescaled_final/0788_rv.mp4	0.0	102.55481553077698	2.4919984340667725
13	86.87132239341736	pulse	1	t		11.0	2.5	/experiments/Knapen_AOT/AOT_stimuli/rescaled_final/0788_rv.mp4	0.0	102.92179894447327	
13	88.47081017494202	pulse	1	t		11.0	2.5	/experiments/Knapen_AOT/AOT_stimuli/rescaled_final/0788_rv.mp4	0.0	104.52128672599792	
13	88.99633741378784	fix_post	2		12	11.0	2.5	/experiments/Knapen_AOT/AOT_stimuli/rescaled_final/0788_rv.mp4	0.0	105.04681396484375	0.10009622573852539
14	89.09643363952637	fix_pre	0		118	12.0	2.5	blank	1.0	105.14691019058228	0.9834294319152832
14	90.07179045677185	pulse	0	t		12.0	2.5	blank	1.0	106.12226700782776	
14	90.07986307144165	movie	1		301	12.0	2.5	blank	1.0	106.13033962249756	2.508687973022461
14	91.67197299003601	pulse	1	t		12.0	2.5	blank	1.0	107.72244954109192	
14	92.58855104446411	fix_post	2		12	12.0	2.5	blank	1.0	108.63902759552002	0.10003399848937988
15	92.68858504295349	fix_pre	0		120	13.0	2.5	/experiments/Knapen_AOT/AOT_stimuli/rescaled_final/0443_rv.mp4	0.0	108.7390615940094	1.008519172668457
15	93.27219605445862	pulse	0	t		13.0	2.5	/experiments/Knapen_AOT/AOT_stimuli/rescaled_final/0443_rv.mp4	0.0	109.32267260551453	
15	93.69710421562195	movie	1		281	13.0	2.5	/experiments/Knapen_AOT/AOT_stimuli/rescaled_final/0443_rv.mp4	0.0	109.74758076667786	2.4919931888580322
15	94.87251305580139	pulse	1	t		13.0	2.5	/experiments/Knapen_AOT/AOT_stimuli/rescaled_final/0443_rv.mp4	0.0	110.9229896068573	
15	96.18909740447998	fix_post	2		12	13.0	2.5	/experiments/Knapen_AOT/AOT_stimuli/rescaled_final/0443_rv.mp4	0.0	112.23957395553589	0.10001897811889648
16	96.28911638259888	fix_pre	0		120	14.0	2.5	/experiments/Knapen_AOT/AOT_stimuli/rescaled_final/1696_fw.mp4	0.0	112.33959293365479	1.0085313320159912
16	96.47311329841614	pulse	0	t		14.0	2.5	/experiments/Knapen_AOT/AOT_stimuli/rescaled_final/1696_fw.mp4	0.0	112.52358984947205	
16	97.29764771461487	movie	1		284	14.0	2.5	/experiments/Knapen_AOT/AOT_stimuli/rescaled_final/1696_fw.mp4	0.0	113.34812426567078	2.492058038711548
16	98.07234621047974	pulse	1	t		14.0	2.5	/experiments/Knapen_AOT/AOT_stimuli/rescaled_final/1696_fw.mp4	0.0	114.12282276153564	
16	99.67136740684509	pulse	1	t		14.0	2.5	/experiments/Knapen_AOT/AOT_stimuli/rescaled_final/1696_fw.mp4	0.0	115.721843957901	
16	99.78970575332642	fix_post	2		12	14.0	2.5	/experiments/Knapen_AOT/AOT_stimuli/rescaled_final/1696_fw.mp4	0.0	115.84018230438232	0.10008883476257324
17	99.88979458808899	fix_pre	0		120	15.0	2.5	/experiments/Knapen_AOT/AOT_stimuli/rescaled_final/0964_rv.mp4	0.0	115.9402711391449	1.0083398818969727
17	100.89813446998596	movie	1		280	15.0	2.5	/experiments/Knapen_AOT/AOT_stimuli/rescaled_final/0964_rv.mp4	0.0	116.94861102104187	2.5003981590270996
17	101.27186679840088	pulse	1	t		15.0	2.5	/experiments/Knapen_AOT/AOT_stimuli/rescaled_final/0964_rv.mp4	0.0	117.32234334945679	
17	102.87139391899109	pulse	1	t		15.0	2.5	/experiments/Knapen_AOT/AOT_stimuli/rescaled_final/0964_rv.mp4	0.0	118.921870470047	
17	103.39853262901306	fix_post	2		11	15.0	2.5	/experiments/Knapen_AOT/AOT_stimuli/rescaled_final/0964_rv.mp4	0.0	119.44900918006897	0.09170794486999512
18	103.49024057388306	fix_pre	0		119	16.0	2.5	/experiments/Knapen_AOT/AOT_stimuli/rescaled_final/0523_fw.mp4	0.0	119.54071712493896	1.0001201629638672
18	104.47385048866272	pulse	0	t		16.0	2.5	/experiments/Knapen_AOT/AOT_stimuli/rescaled_final/0523_fw.mp4	0.0	120.52432703971863	
18	104.49036073684692	movie	1		280	16.0	2.5	/experiments/Knapen_AOT/AOT_stimuli/rescaled_final/0523_fw.mp4	0.0	120.54083728790283	2.5003743171691895
18	106.07249474525452	pulse	1	t		16.0	2.5	/experiments/Knapen_AOT/AOT_stimuli/rescaled_final/0523_fw.mp4	0.0	122.12297129631042	
18	106.99073505401611	fix_post	2		12	16.0	2.5	/experiments/Knapen_AOT/AOT_stimuli/rescaled_final/0523_fw.mp4	0.0	123.04121160507202	0.09999823570251465
19	107.09073328971863	fix_pre	0		120	17.0	2.5	/experiments/Knapen_AOT/AOT_stimuli/rescaled_final/0900_rv.mp4	0.0	123.14120984077454	1.0084986686706543
19	107.67439389228821	pulse	0	t		17.0	2.5	/experiments/Knapen_AOT/AOT_stimuli/rescaled_final/0900_rv.mp4	0.0	123.72487044334412	
19	108.09923195838928	movie	1		286	17.0	2.5	/experiments/Knapen_AOT/AOT_stimuli/rescaled_final/0900_rv.mp4	0.0	124.14970850944519	2.4920992851257324
19	109.2727279663086	pulse	1	t		17.0	2.5	/experiments/Knapen_AOT/AOT_stimuli/rescaled_final/0900_rv.mp4	0.0	125.3232045173645	
19	110.59133124351501	fix_post	2		12	17.0	2.5	/experiments/Knapen_AOT/AOT_stimuli/rescaled_final/0900_rv.mp4	0.0	126.64180779457092	0.09994792938232422
20	110.69127917289734	fix_pre	0		120	18.0	2.5	/experiments/Knapen_AOT/AOT_stimuli/rescaled_final/1407_rv.mp4	0.0	126.74175572395325	1.008512258529663
20	110.87489104270935	pulse	0	t		18.0	2.5	/experiments/Knapen_AOT/AOT_stimuli/rescaled_final/1407_rv.mp4	0.0	126.92536759376526	
20	111.699791431427	movie	1		277	18.0	2.5	/experiments/Knapen_AOT/AOT_stimuli/rescaled_final/1407_rv.mp4	0.0	127.75026798248291	2.492034912109375
20	112.47337937355042	pulse	1	t		18.0	2.5	/experiments/Knapen_AOT/AOT_stimuli/rescaled_final/1407_rv.mp4	0.0	128.52385592460632	
20	114.07308650016785	pulse	1	t		18.0	2.5	/experiments/Knapen_AOT/AOT_stimuli/rescaled_final/1407_rv.mp4	0.0	130.12356305122375	
20	114.19182634353638	fix_post	2		12	18.0	2.5	/experiments/Knapen_AOT/AOT_stimuli/rescaled_final/1407_rv.mp4	0.0	130.24230289459229	0.10001993179321289
21	114.29184627532959	fix_pre	0		120	19.0	2.5	/experiments/Knapen_AOT/AOT_stimuli/rescaled_final/1978_fw.mp4	0.0	130.3423228263855	1.0084800720214844
21	115.30032634735107	movie	1		277	19.0	2.5	/experiments/Knapen_AOT/AOT_stimuli/rescaled_final/1978_fw.mp4	0.0	131.35080289840698	2.492032051086426
21	115.67389130592346	pulse	1	t		19.0	2.5	/experiments/Knapen_AOT/AOT_stimuli/rescaled_final/1978_fw.mp4	0.0	131.72436785697937	
21	117.27379083633423	pulse	1	t		19.0	2.5	/experiments/Knapen_AOT/AOT_stimuli/rescaled_final/1978_fw.mp4	0.0	133.32426738739014	
21	117.7923583984375	fix_post	2		12	19.0	2.5	/experiments/Knapen_AOT/AOT_stimuli/rescaled_final/1978_fw.mp4	0.0	133.8428349494934	0.09999656677246094
22	117.89235496520996	fix_pre	0		119	20.0	2.5	blank	1.0	133.94283151626587	0.9918358325958252
22	118.87603878974915	pulse	0	t		20.0	2.5	blank	1.0	134.92651534080505	
22	118.88419079780579	movie	1		301	20.0	2.5	blank	1.0	134.9346673488617	2.5087127685546875
22	120.47631478309631	pulse	1	t		20.0	2.5	blank	1.0	136.52679133415222	
22	121.39290356636047	fix_post	2		12	20.0	2.5	blank	1.0	137.44338011741638	0.09998106956481934
23	121.4928846359253	fix_pre	0		120	21.0	2.5	/experiments/Knapen_AOT/AOT_stimuli/rescaled_final/1104_rv.mp4	0.0	137.5433611869812	1.0085055828094482
23	122.07649421691895	pulse	0	t		21.0	2.5	/experiments/Knapen_AOT/AOT_stimuli/rescaled_final/1104_rv.mp4	0.0	138.12697076797485	
23	122.50139021873474	movie	1		272	21.0	2.5	/experiments/Knapen_AOT/AOT_stimuli/rescaled_final/1104_rv.mp4	0.0	138.55186676979065	2.492027521133423
23	123.67689442634583	pulse	1	t		21.0	2.5	/experiments/Knapen_AOT/AOT_stimuli/rescaled_final/1104_rv.mp4	0.0	139.72737097740173	
23	124.99341773986816	fix_post	2		12	21.0	2.5	/experiments/Knapen_AOT/AOT_stimuli/rescaled_final/1104_rv.mp4	0.0	141.04389429092407	0.10004520416259766
24	125.09346294403076	fix_pre	0		120	22.0	2.5	/experiments/Knapen_AOT/AOT_stimuli/rescaled_final/1101_rv.mp4	0.0	141.14393949508667	1.0085384845733643
24	125.27707481384277	pulse	0	t		22.0	2.5	/experiments/Knapen_AOT/AOT_stimuli/rescaled_final/1101_rv.mp4	0.0	141.32755136489868	
24	126.10200142860413	movie	1		268	22.0	2.5	/experiments/Knapen_AOT/AOT_stimuli/rescaled_final/1101_rv.mp4	0.0	142.15247797966003	2.4920766353607178
24	126.87515544891357	pulse	1	t		22.0	2.5	/experiments/Knapen_AOT/AOT_stimuli/rescaled_final/1101_rv.mp4	0.0	142.92563199996948	
24	128.47525691986084	pulse	1	t		22.0	2.5	/experiments/Knapen_AOT/AOT_stimuli/rescaled_final/1101_rv.mp4	0.0	144.52573347091675	
24	128.59407806396484	fix_post	2		12	22.0	2.5	/experiments/Knapen_AOT/AOT_stimuli/rescaled_final/1101_rv.mp4	0.0	144.64455461502075	0.09992170333862305
25	128.69399976730347	fix_pre	0		120	23.0	2.5	/experiments/Knapen_AOT/AOT_stimuli/rescaled_final/0227_fw.mp4	0.0	144.74447631835938	1.0085270404815674
25	129.70252680778503	movie	1		278	23.0	2.5	/experiments/Knapen_AOT/AOT_stimuli/rescaled_final/0227_fw.mp4	0.0	145.75300335884094	2.4920177459716797
25	130.07605457305908	pulse	1	t		23.0	2.5	/experiments/Knapen_AOT/AOT_stimuli/rescaled_final/0227_fw.mp4	0.0	146.126531124115	
25	131.6759479045868	pulse	1	t		23.0	2.5	/experiments/Knapen_AOT/AOT_stimuli/rescaled_final/0227_fw.mp4	0.0	147.7264244556427	
25	132.1945445537567	fix_post	2		12	23.0	2.5	/experiments/Knapen_AOT/AOT_stimuli/rescaled_final/0227_fw.mp4	0.0	148.24502110481262	0.09998106956481934
26	132.29452562332153	fix_pre	0		119	24.0	2.5	/experiments/Knapen_AOT/AOT_stimuli/rescaled_final/0691_rv.mp4	0.0	148.34500217437744	1.0001697540283203
26	133.2782678604126	pulse	0	t		24.0	2.5	/experiments/Knapen_AOT/AOT_stimuli/rescaled_final/0691_rv.mp4	0.0	149.3287444114685	
26	133.29469537734985	movie	1		282	24.0	2.5	/experiments/Knapen_AOT/AOT_stimuli/rescaled_final/0691_rv.mp4	0.0	149.34517192840576	2.500356435775757
26	134.87720441818237	pulse	1	t		24.0	2.5	/experiments/Knapen_AOT/AOT_stimuli/rescaled_final/0691_rv.mp4	0.0	150.92768096923828	
26	135.7950518131256	fix_post	2		12	24.0	2.5	/experiments/Knapen_AOT/AOT_stimuli/rescaled_final/0691_rv.mp4	0.0	151.84552836418152	0.10002374649047852
27	135.8950755596161	fix_pre	0		120	25.0	2.5	/experiments/Knapen_AOT/AOT_stimuli/rescaled_final/1984_fw.mp4	0.0	151.945552110672	1.0084915161132812
27	136.4787380695343	pulse	0	t		25.0	2.5	/experiments/Knapen_AOT/AOT_stimuli/rescaled_final/1984_fw.mp4	0.0	152.5292146205902	
27	136.90356707572937	movie	1		280	25.0	2.5	/experiments/Knapen_AOT/AOT_stimuli/rescaled_final/1984_fw.mp4	0.0	152.95404362678528	2.492138624191284
27	138.07700753211975	pulse	1	t		25.0	2.5	/experiments/Knapen_AOT/AOT_stimuli/rescaled_final/1984_fw.mp4	0.0	154.12748408317566	
27	139.39570569992065	fix_post	2		12	25.0	2.5	/experiments/Knapen_AOT/AOT_stimuli/rescaled_final/1984_fw.mp4	0.0	155.44618225097656	0.0999138355255127
28	139.49561953544617	fix_pre	0		120	26.0	2.5	blank	1.0	155.54609608650208	1.0001246929168701
28	139.67155838012695	pulse	0	t		26.0	2.5	blank	1.0	155.72203493118286	
28	140.49574422836304	movie	1		300	26.0	2.5	blank	1.0	156.54622077941895	2.5004162788391113
28	141.27134728431702	pulse	1	t		26.0	2.5	blank	1.0	157.32182383537292	
28	142.87160420417786	pulse	1	t		26.0	2.5	blank	1.0	158.92208075523376	
28	142.99616050720215	fix_post	2		12	26.0	2.5	blank	1.0	159.04663705825806	0.09999346733093262
29	143.09615397453308	fix_pre	0		120	27.0	2.5	/experiments/Knapen_AOT/AOT_stimuli/rescaled_final/1104_fw.mp4	0.0	159.146630525589	1.0085442066192627
29	144.10469818115234	movie	1		282	27.0	2.5	/experiments/Knapen_AOT/AOT_stimuli/rescaled_final/1104_fw.mp4	0.0	160.15517473220825	2.4920220375061035
29	144.47154474258423	pulse	1	t		27.0	2.5	/experiments/Knapen_AOT/AOT_stimuli/rescaled_final/1104_fw.mp4	0.0	160.52202129364014	
29	146.0718047618866	pulse	1	t		27.0	2.5	/experiments/Knapen_AOT/AOT_stimuli/rescaled_final/1104_fw.mp4	0.0	162.1222813129425	
29	146.59672021865845	fix_post	2		12	27.0	2.5	/experiments/Knapen_AOT/AOT_stimuli/rescaled_final/1104_fw.mp4	0.0	162.64719676971436	0.09997963905334473
30	146.6966998577118	fix_pre	0		118	28.0	2.5	/experiments/Knapen_AOT/AOT_stimuli/rescaled_final/0637_rv.mp4	0.0	162.7471764087677	0.9919354915618896
30	147.67208862304688	pulse	0	t		28.0	2.5	/experiments/Knapen_AOT/AOT_stimuli/rescaled_final/0637_rv.mp4	0.0	163.72256517410278	
30	147.68863534927368	movie	1		279	28.0	2.5	/experiments/Knapen_AOT/AOT_stimuli/rescaled_final/0637_rv.mp4	0.0	163.7391119003296	2.5003132820129395
30	149.2719554901123	pulse	1	t		28.0	2.5	/experiments/Knapen_AOT/AOT_stimuli/rescaled_final/0637_rv.mp4	0.0	165.3224320411682	
30	150.18894863128662	fix_post	2		12	28.0	2.5	/experiments/Knapen_AOT/AOT_stimuli/rescaled_final/0637_rv.mp4	0.0	166.23942518234253	0.09996652603149414
31	150.28891515731812	fix_pre	0		120	29.0	2.5	/experiments/Knapen_AOT/AOT_stimuli/rescaled_final/0206_rv.mp4	0.0	166.33939170837402	1.0085113048553467
31	150.87250971794128	pulse	0	t		29.0	2.5	/experiments/Knapen_AOT/AOT_stimuli/rescaled_final/0206_rv.mp4	0.0	166.9229862689972	
31	151.29742646217346	movie	1		276	29.0	2.5	/experiments/Knapen_AOT/AOT_stimuli/rescaled_final/0206_rv.mp4	0.0	167.34790301322937	2.492008686065674
31	152.47160506248474	pulse	1	t		29.0	2.5	/experiments/Knapen_AOT/AOT_stimuli/rescaled_final/0206_rv.mp4	0.0	168.52208161354065	
31	153.78943514823914	fix_post	2		12	29.0	2.5	/experiments/Knapen_AOT/AOT_stimuli/rescaled_final/0206_rv.mp4	0.0	169.83991169929504	0.10002398490905762
32	153.8894591331482	fix_pre	0		120	30.0	2.5	/experiments/Knapen_AOT/AOT_stimuli/rescaled_final/0448_rv.mp4	0.0	169.9399356842041	1.0084900856018066
32	154.072984457016	pulse	0	t		30.0	2.5	/experiments/Knapen_AOT/AOT_stimuli/rescaled_final/0448_rv.mp4	0.0	170.1234610080719	
32	154.89794921875	movie	1		276	30.0	2.5	/experiments/Knapen_AOT/AOT_stimuli/rescaled_final/0448_rv.mp4	0.0	170.9484257698059	2.5004334449768066
32	155.67364835739136	pulse	1	t		30.0	2.5	/experiments/Knapen_AOT/AOT_stimuli/rescaled_final/0448_rv.mp4	0.0	171.72412490844727	
32	157.2720284461975	pulse	1	t		30.0	2.5	/experiments/Knapen_AOT/AOT_stimuli/rescaled_final/0448_rv.mp4	0.0	173.32250499725342	
32	157.3983826637268	fix_post	2		11	30.0	2.5	/experiments/Knapen_AOT/AOT_stimuli/rescaled_final/0448_rv.mp4	0.0	173.44885921478271	0.09159994125366211
33	157.48998260498047	fix_pre	0		120	31.0	2.5	/experiments/Knapen_AOT/AOT_stimuli/rescaled_final/1873_fw.mp4	0.0	173.54045915603638	1.008542776107788
33	158.49852538108826	movie	1		282	31.0	2.5	/experiments/Knapen_AOT/AOT_stimuli/rescaled_final/1873_fw.mp4	0.0	174.54900193214417	2.4920153617858887
33	158.87318587303162	pulse	1	t		31.0	2.5	/experiments/Knapen_AOT/AOT_stimuli/rescaled_final/1873_fw.mp4	0.0	174.92366242408752	
33	160.47204327583313	pulse	1	t		31.0	2.5	/experiments/Knapen_AOT/AOT_stimuli/rescaled_final/1873_fw.mp4	0.0	176.52251982688904	
33	160.99054074287415	fix_post	2		12	31.0	2.5	/experiments/Knapen_AOT/AOT_stimuli/rescaled_final/1873_fw.mp4	0.0	177.04101729393005	0.09999895095825195
34	161.0905396938324	fix_pre	0		119	32.0	2.5	/experiments/Knapen_AOT/AOT_stimuli/rescaled_final/1695_rv.mp4	0.0	177.1410162448883	1.000276803970337
34	162.0742645263672	pulse	0	t		32.0	2.5	/experiments/Knapen_AOT/AOT_stimuli/rescaled_final/1695_rv.mp4	0.0	178.1247410774231	
34	162.09081649780273	movie	1		272	32.0	2.5	/experiments/Knapen_AOT/AOT_stimuli/rescaled_final/1695_rv.mp4	0.0	178.14129304885864	2.5002317428588867
34	163.67383480072021	pulse	1	t		32.0	2.5	/experiments/Knapen_AOT/AOT_stimuli/rescaled_final/1695_rv.mp4	0.0	179.72431135177612	
34	164.59104824066162	fix_post	2		12	32.0	2.5	/experiments/Knapen_AOT/AOT_stimuli/rescaled_final/1695_rv.mp4	0.0	180.64152479171753	0.1000525951385498
35	164.69110083580017	fix_pre	0		120	33.0	2.5	/experiments/Knapen_AOT/AOT_stimuli/rescaled_final/1466_fw.mp4	0.0	180.74157738685608	1.008528232574463
35	165.2746663093567	pulse	0	t		33.0	2.5	/experiments/Knapen_AOT/AOT_stimuli/rescaled_final/1466_fw.mp4	0.0	181.3251428604126	
35	165.69962906837463	movie	1		276	33.0	2.5	/experiments/Knapen_AOT/AOT_stimuli/rescaled_final/1466_fw.mp4	0.0	181.75010561943054	2.4919843673706055
35	166.8734574317932	pulse	1	t		33.0	2.5	/experiments/Knapen_AOT/AOT_stimuli/rescaled_final/1466_fw.mp4	0.0	182.92393398284912	
35	168.19161343574524	fix_post	2		12	33.0	2.5	/experiments/Knapen_AOT/AOT_stimuli/rescaled_final/1466_fw.mp4	0.0	184.24208998680115	0.09999942779541016
36	168.29161286354065	fix_pre	0		120	34.0	2.5	blank	1.0	184.34208941459656	1.0001258850097656
36	168.4752197265625	pulse	0	t		34.0	2.5	blank	1.0	184.5256962776184	
36	169.29173874855042	movie	1		300	34.0	2.5	blank	1.0	185.34221529960632	2.500375986099243
36	170.07545804977417	pulse	1	t		34.0	2.5	blank	1.0	186.12593460083008	
36	171.67565417289734	pulse	1	t		34.0	2.5	blank	1.0	187.72613072395325	
36	171.79211473464966	fix_post	2		12	34.0	2.5	blank	1.0	187.84259128570557	0.10004234313964844
37	171.8921570777893	fix_pre	0		120	35.0	2.5	/experiments/Knapen_AOT/AOT_stimuli/rescaled_final/2156_fw.mp4	0.0	187.94263362884521	1.008497953414917
37	172.90065503120422	movie	1		279	35.0	2.5	/experiments/Knapen_AOT/AOT_stimuli/rescaled_final/2156_fw.mp4	0.0	188.95113158226013	2.492053747177124
37	173.27456951141357	pulse	1	t		35.0	2.5	/experiments/Knapen_AOT/AOT_stimuli/rescaled_final/2156_fw.mp4	0.0	189.32504606246948	
37	174.87466406822205	pulse	1	t		35.0	2.5	/experiments/Knapen_AOT/AOT_stimuli/rescaled_final/2156_fw.mp4	0.0	190.92514061927795	
37	175.39270877838135	fix_post	2		12	35.0	2.5	/experiments/Knapen_AOT/AOT_stimuli/rescaled_final/2156_fw.mp4	0.0	191.44318532943726	0.10002779960632324
38	175.49273657798767	fix_pre	0		119	36.0	2.5	/experiments/Knapen_AOT/AOT_stimuli/rescaled_final/1029_rv.mp4	0.0	191.54321312904358	1.0085585117340088
38	176.4765396118164	pulse	0	t		36.0	2.5	/experiments/Knapen_AOT/AOT_stimuli/rescaled_final/1029_rv.mp4	0.0	192.52701616287231	
38	176.50129508972168	movie	1		279	36.0	2.5	/experiments/Knapen_AOT/AOT_stimuli/rescaled_final/1029_rv.mp4	0.0	192.5517716407776	2.491929769515991
38	178.074848651886	pulse	1	t		36.0	2.5	/experiments/Knapen_AOT/AOT_stimuli/rescaled_final/1029_rv.mp4	0.0	194.1253252029419	
38	178.99322485923767	fix_post	2		12	36.0	2.5	/experiments/Knapen_AOT/AOT_stimuli/rescaled_final/1029_rv.mp4	0.0	195.04370141029358	0.10000967979431152
39	179.09323453903198	fix_pre	0		120	37.0	2.5	/experiments/Knapen_AOT/AOT_stimuli/rescaled_final/0293_fw.mp4	0.0	195.1437110900879	1.0085563659667969
39	179.67713737487793	pulse	0	t		37.0	2.5	/experiments/Knapen_AOT/AOT_stimuli/rescaled_final/0293_fw.mp4	0.0	195.72761392593384	
39	180.10179090499878	movie	1		286	37.0	2.5	/experiments/Knapen_AOT/AOT_stimuli/rescaled_final/0293_fw.mp4	0.0	196.1522674560547	2.4919955730438232
39	181.2764928340912	pulse	1	t		37.0	2.5	/experiments/Knapen_AOT/AOT_stimuli/rescaled_final/0293_fw.mp4	0.0	197.3269693851471	
39	182.5937864780426	fix_post	2		12	37.0	2.5	/experiments/Knapen_AOT/AOT_stimuli/rescaled_final/0293_fw.mp4	0.0	198.6442630290985	0.10000467300415039
40	182.69379115104675	fix_pre	0		120	38.0	2.5	/experiments/Knapen_AOT/AOT_stimuli/rescaled_final/1341_fw.mp4	0.0	198.74426770210266	1.0084621906280518
40	182.87735319137573	pulse	0	t		38.0	2.5	/experiments/Knapen_AOT/AOT_stimuli/rescaled_final/1341_fw.mp4	0.0	198.92782974243164	
40	183.7022533416748	movie	1		273	38.0	2.5	/experiments/Knapen_AOT/AOT_stimuli/rescaled_final/1341_fw.mp4	0.0	199.7527298927307	2.492093563079834
40	184.47621703147888	pulse	1	t		38.0	2.5	/experiments/Knapen_AOT/AOT_stimuli/rescaled_final/1341_fw.mp4	0.0	200.5266935825348	
40	186.07565641403198	pulse	1	t		38.0	2.5	/experiments/Knapen_AOT/AOT_stimuli/rescaled_final/1341_fw.mp4	0.0	202.1261329650879	
40	186.19434690475464	fix_post	2		12	38.0	2.5	/experiments/Knapen_AOT/AOT_stimuli/rescaled_final/1341_fw.mp4	0.0	202.24482345581055	0.09996533393859863
41	186.29431223869324	fix_pre	0		120	39.0	2.5	/experiments/Knapen_AOT/AOT_stimuli/rescaled_final/0116_fw.mp4	0.0	202.34478878974915	1.0085687637329102
41	187.30288100242615	movie	1		286	39.0	2.5	/experiments/Knapen_AOT/AOT_stimuli/rescaled_final/0116_fw.mp4	0.0	203.35335755348206	2.4920432567596436
41	187.67670226097107	pulse	1	t		39.0	2.5	/experiments/Knapen_AOT/AOT_stimuli/rescaled_final/0116_fw.mp4	0.0	203.72717881202698	
41	189.27607107162476	pulse	1	t		39.0	2.5	/experiments/Knapen_AOT/AOT_stimuli/rescaled_final/0116_fw.mp4	0.0	205.32654762268066	
41	189.7949242591858	fix_post	2		12	39.0	2.5	/experiments/Knapen_AOT/AOT_stimuli/rescaled_final/0116_fw.mp4	0.0	205.8454008102417	0.10004281997680664
42	189.8949670791626	fix_pre	0		119	40.0	2.5	/experiments/Knapen_AOT/AOT_stimuli/rescaled_final/1128_rv.mp4	0.0	205.9454436302185	1.0000379085540771
42	190.87078523635864	pulse	0	t		40.0	2.5	/experiments/Knapen_AOT/AOT_stimuli/rescaled_final/1128_rv.mp4	0.0	206.92126178741455	
42	190.89500498771667	movie	1		280	40.0	2.5	/experiments/Knapen_AOT/AOT_stimuli/rescaled_final/1128_rv.mp4	0.0	206.94548153877258	2.5004658699035645
42	192.47081422805786	pulse	1	t		40.0	2.5	/experiments/Knapen_AOT/AOT_stimuli/rescaled_final/1128_rv.mp4	0.0	208.52129077911377	
42	193.39547085762024	fix_post	2		12	40.0	2.5	/experiments/Knapen_AOT/AOT_stimuli/rescaled_final/1128_rv.mp4	0.0	209.44594740867615	0.09992098808288574
43	193.49539184570312	fix_pre	0		120	41.0	2.5	/experiments/Knapen_AOT/AOT_stimuli/rescaled_final/0218_rv.mp4	0.0	209.54586839675903	1.00856614112854
43	194.07075905799866	pulse	0	t		41.0	2.5	/experiments/Knapen_AOT/AOT_stimuli/rescaled_final/0218_rv.mp4	0.0	210.12123560905457	
43	194.50395798683167	movie	1		288	41.0	2.5	/experiments/Knapen_AOT/AOT_stimuli/rescaled_final/0218_rv.mp4	0.0	210.55443453788757	2.491999387741089
43	195.67103219032288	pulse	1	t		41.0	2.5	/experiments/Knapen_AOT/AOT_stimuli/rescaled_final/0218_rv.mp4	0.0	211.72150874137878	
43	196.99595737457275	fix_post	2		12	41.0	2.5	/experiments/Knapen_AOT/AOT_stimuli/rescaled_final/0218_rv.mp4	0.0	213.04643392562866	0.10003781318664551
44	197.0959951877594	fix_pre	0		120	42.0	2.5	blank	1.0	213.1464717388153	1.0000927448272705
44	197.27124953269958	pulse	0	t		42.0	2.5	blank	1.0	213.3217260837555	
44	198.09608793258667	movie	1		300	42.0	2.5	blank	1.0	214.14656448364258	2.5003702640533447
44	198.87142062187195	pulse	1	t		42.0	2.5	blank	1.0	214.92189717292786	
44	200.47173500061035	pulse	1	t		42.0	2.5	blank	1.0	216.52221155166626	
44	200.59645819664001	fix_post	2		12	42.0	2.5	blank	1.0	216.64693474769592	0.10002374649047852
45	200.6964819431305	fix_pre	0		120	43.0	2.5	/experiments/Knapen_AOT/AOT_stimuli/rescaled_final/0499_rv.mp4	0.0	216.7469584941864	1.0085179805755615
45	201.70499992370605	movie	1		280	43.0	2.5	/experiments/Knapen_AOT/AOT_stimuli/rescaled_final/0499_rv.mp4	0.0	217.75547647476196	2.4920530319213867
45	202.07440400123596	pulse	1	t		43.0	2.5	/experiments/Knapen_AOT/AOT_stimuli/rescaled_final/0499_rv.mp4	0.0	218.12488055229187	
45	203.67232704162598	pulse	1	t		43.0	2.5	/experiments/Knapen_AOT/AOT_stimuli/rescaled_final/0499_rv.mp4	0.0	219.72280359268188	
45	204.19705295562744	fix_post	2		12	43.0	2.5	/experiments/Knapen_AOT/AOT_stimuli/rescaled_final/0499_rv.mp4	0.0	220.24752950668335	0.09998512268066406
46	204.2970380783081	fix_pre	0		118	44.0	2.5	/experiments/Knapen_AOT/AOT_stimuli/rescaled_final/0096_fw.mp4	0.0	220.347514629364	0.9918158054351807
46	205.27242136001587	pulse	0	t		44.0	2.5	/experiments/Knapen_AOT/AOT_stimuli/rescaled_final/0096_fw.mp4	0.0	221.32289791107178	
46	205.2888538837433	movie	1		255	44.0	2.5	/experiments/Knapen_AOT/AOT_stimuli/rescaled_final/0096_fw.mp4	0.0	221.3393304347992	2.5003504753112793
46	206.87150883674622	pulse	1	t		44.0	2.5	/experiments/Knapen_AOT/AOT_stimuli/rescaled_final/0096_fw.mp4	0.0	222.92198538780212	
46	207.78920435905457	fix_post	2		12	44.0	2.5	/experiments/Knapen_AOT/AOT_stimuli/rescaled_final/0096_fw.mp4	0.0	223.83968091011047	0.1000223159790039
47	207.88922667503357	fix_pre	0		120	45.0	2.5	/experiments/Knapen_AOT/AOT_stimuli/rescaled_final/1368_rv.mp4	0.0	223.93970322608948	1.0085463523864746
47	208.47293329238892	pulse	0	t		45.0	2.5	/experiments/Knapen_AOT/AOT_stimuli/rescaled_final/1368_rv.mp4	0.0	224.52340984344482	
47	208.89777302742004	movie	1		283	45.0	2.5	/experiments/Knapen_AOT/AOT_stimuli/rescaled_final/1368_rv.mp4	0.0	224.94824957847595	2.491986036300659
47	210.073410987854	pulse	1	t		45.0	2.5	/experiments/Knapen_AOT/AOT_stimuli/rescaled_final/1368_rv.mp4	0.0	226.1238875389099	
47	211.3897590637207	fix_post	2		12	45.0	2.5	/experiments/Knapen_AOT/AOT_stimuli/rescaled_final/1368_rv.mp4	0.0	227.4402356147766	0.10001206398010254
48	211.4897711277008	fix_pre	0		120	46.0	2.5	/experiments/Knapen_AOT/AOT_stimuli/rescaled_final/1321_rv.mp4	0.0	227.5402476787567	1.0085115432739258
48	211.6734757423401	pulse	0	t		46.0	2.5	/experiments/Knapen_AOT/AOT_stimuli/rescaled_final/1321_rv.mp4	0.0	227.723952293396	
48	212.49828267097473	movie	1		270	46.0	2.5	/experiments/Knapen_AOT/AOT_stimuli/rescaled_final/1321_rv.mp4	0.0	228.54875922203064	2.492023468017578
48	213.27374053001404	pulse	1	t		46.0	2.5	/experiments/Knapen_AOT/AOT_stimuli/rescaled_final/1321_rv.mp4	0.0	229.32421708106995	
48	214.87388586997986	pulse	1	t		46.0	2.5	/experiments/Knapen_AOT/AOT_stimuli/rescaled_final/1321_rv.mp4	0.0	230.92436242103577	
48	214.9903061389923	fix_post	2		12	46.0	2.5	/experiments/Knapen_AOT/AOT_stimuli/rescaled_final/1321_rv.mp4	0.0	231.04078269004822	0.10000395774841309
49	215.09031009674072	fix_pre	0		119	47.0	2.5	blank	1.0	231.14078664779663	1.000150203704834
49	216.09046030044556	movie	1		300	47.0	2.5	blank	1.0	232.14093685150146	2.5003774166107178
49	216.47408056259155	pulse	1	t		47.0	2.5	blank	1.0	232.52455711364746	
49	218.07432746887207	pulse	1	t		47.0	2.5	blank	1.0	234.12480401992798	
49	218.59083771705627	fix_post	2		12	47.0	2.5	blank	1.0	234.64131426811218	0.10002803802490234
50	218.69086575508118	fix_pre	0		102	48.0	2.5	/experiments/Knapen_AOT/AOT_stimuli/rescaled_final/0986_rv.mp4	0.0	234.74134230613708	1.0085411071777344
50	219.6745524406433	pulse	0	t		48.0	2.5	/experiments/Knapen_AOT/AOT_stimuli/rescaled_final/0986_rv.mp4	0.0	235.72502899169922	
50	219.6994068622589	movie	1		269	48.0	2.5	/experiments/Knapen_AOT/AOT_stimuli/rescaled_final/0986_rv.mp4	0.0	235.74988341331482	2.4919674396514893
50	221.2756690979004	pulse	1	t		48.0	2.5	/experiments/Knapen_AOT/AOT_stimuli/rescaled_final/0986_rv.mp4	0.0	237.3261456489563	
50	222.1913743019104	fix_post	2		12	48.0	2.5	/experiments/Knapen_AOT/AOT_stimuli/rescaled_final/0986_rv.mp4	0.0	238.2418508529663	0.10001969337463379
51	222.29139399528503	fix_pre	0		120	49.0	2.5	/experiments/Knapen_AOT/AOT_stimuli/rescaled_final/0043_rv.mp4	0.0	238.34187054634094	1.0085666179656982
51	222.8750946521759	pulse	0	t		49.0	2.5	/experiments/Knapen_AOT/AOT_stimuli/rescaled_final/0043_rv.mp4	0.0	238.9255712032318	
51	223.29996061325073	movie	1		283	49.0	2.5	/experiments/Knapen_AOT/AOT_stimuli/rescaled_final/0043_rv.mp4	0.0	239.35043716430664	2.491969347000122
51	224.47324776649475	pulse	1	t		49.0	2.5	/experiments/Knapen_AOT/AOT_stimuli/rescaled_final/0043_rv.mp4	0.0	240.52372431755066	
51	225.79192996025085	fix_post	2		12	49.0	2.5	/experiments/Knapen_AOT/AOT_stimuli/rescaled_final/0043_rv.mp4	0.0	241.84240651130676	0.10000371932983398
52	225.8919336795807	fix_pre	0		120	50.0	2.5	/experiments/Knapen_AOT/AOT_stimuli/rescaled_final/2005_rv.mp4	0.0	241.9424102306366	1.0085010528564453
52	226.07557272911072	pulse	0	t		50.0	2.5	/experiments/Knapen_AOT/AOT_stimuli/rescaled_final/2005_rv.mp4	0.0	242.12604928016663	
52	226.90043473243713	movie	1		273	50.0	2.5	/experiments/Knapen_AOT/AOT_stimuli/rescaled_final/2005_rv.mp4	0.0	242.95091128349304	2.4920315742492676
52	227.67353081703186	pulse	1	t		50.0	2.5	/experiments/Knapen_AOT/AOT_stimuli/rescaled_final/2005_rv.mp4	0.0	243.72400736808777	
52	229.27393746376038	pulse	1	t		50.0	2.5	/experiments/Knapen_AOT/AOT_stimuli/rescaled_final/2005_rv.mp4	0.0	245.32441401481628	
52	229.3924663066864	fix_post	2		12	50.0	2.5	/experiments/Knapen_AOT/AOT_stimuli/rescaled_final/2005_rv.mp4	0.0	245.4429428577423	0.1000065803527832
53	229.49247288703918	fix_pre	0		120	51.0	2.5	/experiments/Knapen_AOT/AOT_stimuli/rescaled_final/0215_rv.mp4	0.0	245.5429494380951	1.008530855178833
53	230.50100374221802	movie	1		279	51.0	2.5	/experiments/Knapen_AOT/AOT_stimuli/rescaled_final/0215_rv.mp4	0.0	246.55148029327393	2.492008686065674
53	230.87499618530273	pulse	1	t		51.0	2.5	/experiments/Knapen_AOT/AOT_stimuli/rescaled_final/0215_rv.mp4	0.0	246.92547273635864	
53	232.4766709804535	pulse	1	t		51.0	2.5	/experiments/Knapen_AOT/AOT_stimuli/rescaled_final/0215_rv.mp4	0.0	248.5271475315094	
53	232.9930124282837	fix_post	2		12	51.0	2.5	/experiments/Knapen_AOT/AOT_stimuli/rescaled_final/0215_rv.mp4	0.0	249.0434889793396	0.10004854202270508
54	233.0930609703064	fix_pre	0		119	52.0	2.5	/experiments/Knapen_AOT/AOT_stimuli/rescaled_final/0384_fw.mp4	0.0	249.1435375213623	1.0002105236053467
54	234.07666206359863	pulse	0	t		52.0	2.5	/experiments/Knapen_AOT/AOT_stimuli/rescaled_final/0384_fw.mp4	0.0	250.12713861465454	
54	234.09327149391174	movie	1		276	52.0	2.5	/experiments/Knapen_AOT/AOT_stimuli/rescaled_final/0384_fw.mp4	0.0	250.14374804496765	2.5002822875976562
54	235.6751892566681	pulse	1	t		52.0	2.5	/experiments/Knapen_AOT/AOT_stimuli/rescaled_final/0384_fw.mp4	0.0	251.725665807724	
54	236.5935537815094	fix_post	2		12	52.0	2.5	/experiments/Knapen_AOT/AOT_stimuli/rescaled_final/0384_fw.mp4	0.0	252.6440303325653	0.09998440742492676
55	236.69353818893433	fix_pre	0		120	53.0	2.5	/experiments/Knapen_AOT/AOT_stimuli/rescaled_final/1015_rv.mp4	0.0	252.74401473999023	1.0085129737854004
55	237.27726650238037	pulse	0	t		53.0	2.5	/experiments/Knapen_AOT/AOT_stimuli/rescaled_final/1015_rv.mp4	0.0	253.32774305343628	
55	237.70205116271973	movie	1		270	53.0	2.5	/experiments/Knapen_AOT/AOT_stimuli/rescaled_final/1015_rv.mp4	0.0	253.75252771377563	2.492060422897339
55	238.87572813034058	pulse	1	t		53.0	2.5	/experiments/Knapen_AOT/AOT_stimuli/rescaled_final/1015_rv.mp4	0.0	254.92620468139648	
55	240.19411158561707	fix_post	2		12	53.0	2.5	/experiments/Knapen_AOT/AOT_stimuli/rescaled_final/1015_rv.mp4	0.0	256.244588136673	0.09999442100524902
56	240.29410600662231	fix_pre	0		120	54.0	2.5	/experiments/Knapen_AOT/AOT_stimuli/rescaled_final/0003_fw.mp4	0.0	256.3445825576782	1.0085461139678955
56	240.47766971588135	pulse	0	t		54.0	2.5	/experiments/Knapen_AOT/AOT_stimuli/rescaled_final/0003_fw.mp4	0.0	256.52814626693726	
56	241.3026521205902	movie	1		274	54.0	2.5	/experiments/Knapen_AOT/AOT_stimuli/rescaled_final/0003_fw.mp4	0.0	257.3531286716461	2.491974353790283
56	242.07596802711487	pulse	1	t		54.0	2.5	/experiments/Knapen_AOT/AOT_stimuli/rescaled_final/0003_fw.mp4	0.0	258.1264445781708	
56	243.67604970932007	pulse	1	t		54.0	2.5	/experiments/Knapen_AOT/AOT_stimuli/rescaled_final/0003_fw.mp4	0.0	259.726526260376	
56	243.7946264743805	fix_post	2		12	54.0	2.5	/experiments/Knapen_AOT/AOT_stimuli/rescaled_final/0003_fw.mp4	0.0	259.8451030254364	0.10004019737243652
57	243.89466667175293	fix_pre	0		120	55.0	2.5	blank	1.0	259.94514322280884	1.0001051425933838
57	244.8947718143463	movie	1		300	55.0	2.5	blank	1.0	260.9452483654022	2.5004332065582275
57	245.27844405174255	pulse	1	t		55.0	2.5	blank	1.0	261.32892060279846	
57	246.87866115570068	pulse	1	t		55.0	2.5	blank	1.0	262.9291377067566	
57	247.39520502090454	fix_post	2		12	55.0	2.5	blank	1.0	263.44568157196045	0.09998559951782227
58	247.49519062042236	fix_pre	0		119	56.0	2.5	/experiments/Knapen_AOT/AOT_stimuli/rescaled_final/1777_rv.mp4	0.0	263.54566717147827	1.0085840225219727
58	248.47105932235718	pulse	0	t		56.0	2.5	/experiments/Knapen_AOT/AOT_stimuli/rescaled_final/1777_rv.mp4	0.0	264.5215358734131	
58	248.50377464294434	movie	1		280	56.0	2.5	/experiments/Knapen_AOT/AOT_stimuli/rescaled_final/1777_rv.mp4	0.0	264.55425119400024	2.4919354915618896
58	250.07759952545166	pulse	1	t		56.0	2.5	/experiments/Knapen_AOT/AOT_stimuli/rescaled_final/1777_rv.mp4	0.0	266.12807607650757	
58	250.99571013450623	fix_post	2		12	56.0	2.5	/experiments/Knapen_AOT/AOT_stimuli/rescaled_final/1777_rv.mp4	0.0	267.04618668556213	0.10003232955932617
59	251.09574246406555	fix_pre	0		120	57.0	2.5	/experiments/Knapen_AOT/AOT_stimuli/rescaled_final/0745_rv.mp4	0.0	267.14621901512146	1.0084912776947021
59	251.67119002342224	pulse	0	t		57.0	2.5	/experiments/Knapen_AOT/AOT_stimuli/rescaled_final/0745_rv.mp4	0.0	267.72166657447815	
59	252.10423374176025	movie	1		286	57.0	2.5	/experiments/Knapen_AOT/AOT_stimuli/rescaled_final/0745_rv.mp4	0.0	268.15471029281616	2.4920103549957275
59	253.27129912376404	pulse	1	t		57.0	2.5	/experiments/Knapen_AOT/AOT_stimuli/rescaled_final/0745_rv.mp4	0.0	269.32177567481995	
59	254.59624409675598	fix_post	2		12	57.0	2.5	/experiments/Knapen_AOT/AOT_stimuli/rescaled_final/0745_rv.mp4	0.0	270.6467206478119	0.10004258155822754
60	254.6962866783142	fix_pre	0		120	58.0	2.5	/experiments/Knapen_AOT/AOT_stimuli/rescaled_final/1134_fw.mp4	0.0	270.7467632293701	1.0084915161132812
60	254.87150740623474	pulse	0	t		58.0	2.5	/experiments/Knapen_AOT/AOT_stimuli/rescaled_final/1134_fw.mp4	0.0	270.92198395729065	
60	255.7047781944275	movie	1		276	58.0	2.5	/experiments/Knapen_AOT/AOT_stimuli/rescaled_final/1134_fw.mp4	0.0	271.7552547454834	2.492000102996826
60	256.47205996513367	pulse	1	t		58.0	2.5	/experiments/Knapen_AOT/AOT_stimuli/rescaled_final/1134_fw.mp4	0.0	272.5225365161896	
60	258.072053194046	pulse	1	t		58.0	2.5	/experiments/Knapen_AOT/AOT_stimuli/rescaled_final/1134_fw.mp4	0.0	274.12252974510193	
60	258.1967782974243	fix_post	2		12	58.0	2.5	/experiments/Knapen_AOT/AOT_stimuli/rescaled_final/1134_fw.mp4	0.0	274.2472548484802	0.1000375747680664
61	258.2968158721924	fix_pre	0		120	59.0	2.5	/experiments/Knapen_AOT/AOT_stimuli/rescaled_final/0499_fw.mp4	0.0	274.3472924232483	1.008493423461914
61	259.3053092956543	movie	1		264	59.0	2.5	/experiments/Knapen_AOT/AOT_stimuli/rescaled_final/0499_fw.mp4	0.0	275.3557858467102	2.4920239448547363
61	259.67285561561584	pulse	1	t		59.0	2.5	/experiments/Knapen_AOT/AOT_stimuli/rescaled_final/0499_fw.mp4	0.0	275.72333216667175	
61	261.27271270751953	pulse	1	t		59.0	2.5	/experiments/Knapen_AOT/AOT_stimuli/rescaled_final/0499_fw.mp4	0.0	277.32318925857544	
61	261.79733324050903	fix_post	2		12	59.0	2.5	/experiments/Knapen_AOT/AOT_stimuli/rescaled_final/0499_fw.mp4	0.0	277.84780979156494	0.09999990463256836
62	261.8973331451416	fix_pre	0		118	60.0	2.5	/experiments/Knapen_AOT/AOT_stimuli/rescaled_final/1873_rv.mp4	0.0	277.9478096961975	0.9918167591094971
62	262.8727889060974	pulse	0	t		60.0	2.5	/experiments/Knapen_AOT/AOT_stimuli/rescaled_final/1873_rv.mp4	0.0	278.9232654571533	
62	262.8891499042511	movie	1		283	60.0	2.5	/experiments/Knapen_AOT/AOT_stimuli/rescaled_final/1873_rv.mp4	0.0	278.939626455307	2.5005509853363037
62	264.4712588787079	pulse	1	t		60.0	2.5	/experiments/Knapen_AOT/AOT_stimuli/rescaled_final/1873_rv.mp4	0.0	280.5217354297638	
62	265.3897008895874	fix_post	2		12	60.0	2.5	/experiments/Knapen_AOT/AOT_stimuli/rescaled_final/1873_rv.mp4	0.0	281.4401774406433	0.09986019134521484
63	265.4895610809326	fix_pre	0		120	61.0	2.5	/experiments/Knapen_AOT/AOT_stimuli/rescaled_final/0733_fw.mp4	0.0	281.5400376319885	1.0085136890411377
63	266.07331824302673	pulse	0	t		61.0	2.5	/experiments/Knapen_AOT/AOT_stimuli/rescaled_final/0733_fw.mp4	0.0	282.12379479408264	
63	266.49807476997375	movie	1		282	61.0	2.5	/experiments/Knapen_AOT/AOT_stimuli/rescaled_final/0733_fw.mp4	0.0	282.54855132102966	2.491992950439453
63	267.67160987854004	pulse	1	t		61.0	2.5	/experiments/Knapen_AOT/AOT_stimuli/rescaled_final/0733_fw.mp4	0.0	283.72208642959595	
63	268.9900677204132	fix_post	2		12	61.0	2.5	/experiments/Knapen_AOT/AOT_stimuli/rescaled_final/0733_fw.mp4	0.0	285.0405442714691	0.10011863708496094
64	269.09018635749817	fix_pre	0		120	62.0	2.5	blank	1.0	285.1406629085541	1.0000746250152588
64	269.27390336990356	pulse	0	t		62.0	2.5	blank	1.0	285.3243799209595	
64	270.0902609825134	movie	1		300	62.0	2.5	blank	1.0	286.14073753356934	2.5003597736358643
64	270.87395119667053	pulse	1	t		62.0	2.5	blank	1.0	286.92442774772644	
64	272.4741401672363	pulse	1	t		62.0	2.5	blank	1.0	288.52461671829224	
64	272.5906207561493	fix_post	2		12	62.0	2.5	blank	1.0	288.6410973072052	0.09998488426208496
65	272.6906056404114	fix_pre	0		120	63.0	2.5	/experiments/Knapen_AOT/AOT_stimuli/rescaled_final/0464_rv.mp4	0.0	288.7410821914673	1.0085227489471436
65	273.6991283893585	movie	1		274	63.0	2.5	/experiments/Knapen_AOT/AOT_stimuli/rescaled_final/0464_rv.mp4	0.0	289.74960494041443	2.4920272827148438
65	274.07344794273376	pulse	1	t		63.0	2.5	/experiments/Knapen_AOT/AOT_stimuli/rescaled_final/0464_rv.mp4	0.0	290.1239244937897	
65	275.6725904941559	pulse	1	t		63.0	2.5	/experiments/Knapen_AOT/AOT_stimuli/rescaled_final/0464_rv.mp4	0.0	291.7230670452118	
65	276.19115567207336	fix_post	2		12	63.0	2.5	/experiments/Knapen_AOT/AOT_stimuli/rescaled_final/0464_rv.mp4	0.0	292.2416322231293	0.10002279281616211
66	276.2911784648895	fix_pre	0		119	64.0	2.5	/experiments/Knapen_AOT/AOT_stimuli/rescaled_final/2085_fw.mp4	0.0	292.34165501594543	1.0002086162567139
66	277.27493238449097	pulse	0	t		64.0	2.5	/experiments/Knapen_AOT/AOT_stimuli/rescaled_final/2085_fw.mp4	0.0	293.3254089355469	
66	277.29138708114624	movie	1		272	64.0	2.5	/experiments/Knapen_AOT/AOT_stimuli/rescaled_final/2085_fw.mp4	0.0	293.34186363220215	2.5003457069396973
66	278.87424397468567	pulse	1	t		64.0	2.5	/experiments/Knapen_AOT/AOT_stimuli/rescaled_final/2085_fw.mp4	0.0	294.9247205257416	
66	279.79173278808594	fix_post	2		12	64.0	2.5	/experiments/Knapen_AOT/AOT_stimuli/rescaled_final/2085_fw.mp4	0.0	295.84220933914185	0.10004115104675293
67	279.8917739391327	fix_pre	0		120	65.0	2.5	/experiments/Knapen_AOT/AOT_stimuli/rescaled_final/1695_fw.mp4	0.0	295.9422504901886	1.008399248123169
67	280.4753258228302	pulse	0	t		65.0	2.5	/experiments/Knapen_AOT/AOT_stimuli/rescaled_final/1695_fw.mp4	0.0	296.5258023738861	
67	280.90017318725586	movie	1		274	65.0	2.5	/experiments/Knapen_AOT/AOT_stimuli/rescaled_final/1695_fw.mp4	0.0	296.95064973831177	2.492067813873291
67	282.07504415512085	pulse	1	t		65.0	2.5	/experiments/Knapen_AOT/AOT_stimuli/rescaled_final/1695_fw.mp4	0.0	298.12552070617676	
67	283.39224100112915	fix_post	2		12	65.0	2.5	/experiments/Knapen_AOT/AOT_stimuli/rescaled_final/1695_fw.mp4	0.0	299.44271755218506	0.10002398490905762
68	283.4922649860382	fix_pre	0		120	66.0	2.5	/experiments/Knapen_AOT/AOT_stimuli/rescaled_final/1368_rv.mp4	0.0	299.5427415370941	1.008521556854248
68	283.67589950561523	pulse	0	t		66.0	2.5	/experiments/Knapen_AOT/AOT_stimuli/rescaled_final/1368_rv.mp4	0.0	299.72637605667114	
68	284.50078654289246	movie	1		274	66.0	2.5	/experiments/Knapen_AOT/AOT_stimuli/rescaled_final/1368_rv.mp4	0.0	300.55126309394836	2.4919965267181396
68	285.2739863395691	pulse	1	t		66.0	2.5	/experiments/Knapen_AOT/AOT_stimuli/rescaled_final/1368_rv.mp4	0.0	301.324462890625	
68	286.87527441978455	pulse	1	t		66.0	2.5	/experiments/Knapen_AOT/AOT_stimuli/rescaled_final/1368_rv.mp4	0.0	302.92575097084045	
68	286.9927830696106	fix_post	2		12	66.0	2.5	/experiments/Knapen_AOT/AOT_stimuli/rescaled_final/1368_rv.mp4	0.0	303.0432596206665	0.09998035430908203
69	287.0927634239197	fix_pre	0		120	67.0	2.5	/experiments/Knapen_AOT/AOT_stimuli/rescaled_final/1479_rv.mp4	0.0	303.1432399749756	1.0085830688476562
69	288.10134649276733	movie	1		273	67.0	2.5	/experiments/Knapen_AOT/AOT_stimuli/rescaled_final/1479_rv.mp4	0.0	304.15182304382324	2.492011785507202
69	288.4766767024994	pulse	1	t		67.0	2.5	/experiments/Knapen_AOT/AOT_stimuli/rescaled_final/1479_rv.mp4	0.0	304.5271532535553	
69	290.074711561203	pulse	1	t		67.0	2.5	/experiments/Knapen_AOT/AOT_stimuli/rescaled_final/1479_rv.mp4	0.0	306.1251881122589	
69	290.59335827827454	fix_post	2		12	67.0	2.5	/experiments/Knapen_AOT/AOT_stimuli/rescaled_final/1479_rv.mp4	0.0	306.64383482933044	0.10004305839538574
70	290.6934013366699	fix_pre	0		119	68.0	2.5	blank	1.0	306.74387788772583	0.9917426109313965
70	291.6770815849304	pulse	0	t		68.0	2.5	blank	1.0	307.7275581359863	
70	291.6851439476013	movie	1		301	68.0	2.5	blank	1.0	307.7356204986572	2.508737087249756
70	293.2772822380066	pulse	1	t		68.0	2.5	blank	1.0	309.3277587890625	
70	294.1938810348511	fix_post	2		12	68.0	2.5	blank	1.0	310.244357585907	0.1000216007232666
71	294.29390263557434	fix_pre	0		120	69.0	2.5	/experiments/Knapen_AOT/AOT_stimuli/rescaled_final/0281_rv.mp4	0.0	310.34437918663025	1.0084855556488037
71	294.8775861263275	pulse	0	t		69.0	2.5	/experiments/Knapen_AOT/AOT_stimuli/rescaled_final/0281_rv.mp4	0.0	310.9280626773834	
71	295.30238819122314	movie	1		267	69.0	2.5	/experiments/Knapen_AOT/AOT_stimuli/rescaled_final/0281_rv.mp4	0.0	311.35286474227905	2.492017984390259
71	296.4772961139679	pulse	1	t		69.0	2.5	/experiments/Knapen_AOT/AOT_stimuli/rescaled_final/0281_rv.mp4	0.0	312.5277726650238	
71	297.7944061756134	fix_post	2		12	69.0	2.5	/experiments/Knapen_AOT/AOT_stimuli/rescaled_final/0281_rv.mp4	0.0	313.8448827266693	0.10001039505004883
72	297.89441657066345	fix_pre	0		120	70.0	2.5	/experiments/Knapen_AOT/AOT_stimuli/rescaled_final/1825_fw.mp4	0.0	313.94489312171936	1.0085508823394775
72	298.07799911499023	pulse	0	t		70.0	2.5	/experiments/Knapen_AOT/AOT_stimuli/rescaled_final/1825_fw.mp4	0.0	314.12847566604614	
72	298.90296745300293	movie	1		279	70.0	2.5	/experiments/Knapen_AOT/AOT_stimuli/rescaled_final/1825_fw.mp4	0.0	314.95344400405884	2.491992473602295
72	299.67622470855713	pulse	1	t		70.0	2.5	/experiments/Knapen_AOT/AOT_stimuli/rescaled_final/1825_fw.mp4	0.0	315.72670125961304	
72	301.27685022354126	pulse	1	t		70.0	2.5	/experiments/Knapen_AOT/AOT_stimuli/rescaled_final/1825_fw.mp4	0.0	317.32732677459717	
72	301.3949599266052	fix_post	2		12	70.0	2.5	/experiments/Knapen_AOT/AOT_stimuli/rescaled_final/1825_fw.mp4	0.0	317.44543647766113	0.10007119178771973
73	301.49503111839294	fix_pre	0		120	71.0	2.5	/experiments/Knapen_AOT/AOT_stimuli/rescaled_final/0784_rv.mp4	0.0	317.54550766944885	1.0084316730499268
73	302.50346279144287	movie	1		269	71.0	2.5	/experiments/Knapen_AOT/AOT_stimuli/rescaled_final/0784_rv.mp4	0.0	318.5539393424988	2.4920289516448975
73	302.8771002292633	pulse	1	t		71.0	2.5	/experiments/Knapen_AOT/AOT_stimuli/rescaled_final/0784_rv.mp4	0.0	318.9275767803192	
73	304.479088306427	pulse	1	t		71.0	2.5	/experiments/Knapen_AOT/AOT_stimuli/rescaled_final/0784_rv.mp4	0.0	320.5295648574829	
73	304.99549174308777	fix_post	2		12	71.0	2.5	/experiments/Knapen_AOT/AOT_stimuli/rescaled_final/0784_rv.mp4	0.0	321.0459682941437	0.10002303123474121
74	305.0955147743225	fix_pre	0		119	72.0	2.5	/experiments/Knapen_AOT/AOT_stimuli/rescaled_final/0205_rv.mp4	0.0	321.1459913253784	1.0001301765441895
74	306.07149052619934	pulse	0	t		72.0	2.5	/experiments/Knapen_AOT/AOT_stimuli/rescaled_final/0205_rv.mp4	0.0	322.12196707725525	
74	306.0956449508667	movie	1		267	72.0	2.5	/experiments/Knapen_AOT/AOT_stimuli/rescaled_final/0205_rv.mp4	0.0	322.1461215019226	2.5004312992095947
74	307.6783902645111	pulse	1	t		72.0	2.5	/experiments/Knapen_AOT/AOT_stimuli/rescaled_final/0205_rv.mp4	0.0	323.728866815567	
74	308.5960762500763	fix_post	2		12	72.0	2.5	/experiments/Knapen_AOT/AOT_stimuli/rescaled_final/0205_rv.mp4	0.0	324.6465528011322	0.10015225410461426
75	308.6962285041809	fix_pre	0		120	73.0	2.5	/experiments/Knapen_AOT/AOT_stimuli/rescaled_final/2135_rv.mp4	0.0	324.7467050552368	1.0082933902740479
75	309.2716064453125	pulse	0	t		73.0	2.5	/experiments/Knapen_AOT/AOT_stimuli/rescaled_final/2135_rv.mp4	0.0	325.3220829963684	
75	309.70452189445496	movie	1		274	73.0	2.5	/experiments/Knapen_AOT/AOT_stimuli/rescaled_final/2135_rv.mp4	0.0	325.75499844551086	2.492048978805542
75	310.87168741226196	pulse	1	t		73.0	2.5	/experiments/Knapen_AOT/AOT_stimuli/rescaled_final/2135_rv.mp4	0.0	326.92216396331787	
75	312.1965708732605	fix_post	2		12	73.0	2.5	/experiments/Knapen_AOT/AOT_stimuli/rescaled_final/2135_rv.mp4	0.0	328.2470474243164	0.10003066062927246
76	312.29660153388977	fix_pre	0		120	74.0	2.5	/experiments/Knapen_AOT/AOT_stimuli/rescaled_final/1320_rv.mp4	0.0	328.3470780849457	1.008502721786499
76	312.4717552661896	pulse	0	t		74.0	2.5	/experiments/Knapen_AOT/AOT_stimuli/rescaled_final/1320_rv.mp4	0.0	328.5222318172455	
76	313.30510425567627	movie	1		273	74.0	2.5	/experiments/Knapen_AOT/AOT_stimuli/rescaled_final/1320_rv.mp4	0.0	329.3555808067322	2.4920241832733154
76	314.07218527793884	pulse	1	t		74.0	2.5	/experiments/Knapen_AOT/AOT_stimuli/rescaled_final/1320_rv.mp4	0.0	330.12266182899475	
76	315.6722867488861	pulse	1	t		74.0	2.5	/experiments/Knapen_AOT/AOT_stimuli/rescaled_final/1320_rv.mp4	0.0	331.722763299942	
76	315.7971284389496	fix_post	2		12	74.0	2.5	/experiments/Knapen_AOT/AOT_stimuli/rescaled_final/1320_rv.mp4	0.0	331.8476049900055	0.10001039505004883
77	315.89713883399963	fix_pre	0		120	75.0	2.5	blank	1.0	331.94761538505554	1.0001718997955322
77	316.89731073379517	movie	1		300	75.0	2.5	blank	1.0	332.9477872848511	2.500483512878418
77	317.2726421356201	pulse	1	t		75.0	2.5	blank	1.0	333.323118686676	
77	318.8727900981903	pulse	1	t		75.0	2.5	blank	1.0	334.9232666492462	
77	319.3977942466736	fix_post	2		12	75.0	2.5	blank	1.0	335.4482707977295	0.09988021850585938
78	319.49767446517944	fix_pre	0		118	76.0	2.5	/experiments/Knapen_AOT/AOT_stimuli/rescaled_final/1207_rv.mp4	0.0	335.54815101623535	1.0002326965332031
78	320.47302746772766	pulse	0	t		76.0	2.5	/experiments/Knapen_AOT/AOT_stimuli/rescaled_final/1207_rv.mp4	0.0	336.52350401878357	
78	320.49790716171265	movie	1		273	76.0	2.5	/experiments/Knapen_AOT/AOT_stimuli/rescaled_final/1207_rv.mp4	0.0	336.54838371276855	2.4919891357421875
78	322.0723819732666	pulse	1	t		76.0	2.5	/experiments/Knapen_AOT/AOT_stimuli/rescaled_final/1207_rv.mp4	0.0	338.1228585243225	
78	322.98989629745483	fix_post	2		12	76.0	2.5	/experiments/Knapen_AOT/AOT_stimuli/rescaled_final/1207_rv.mp4	0.0	339.04037284851074	0.09998583793640137
79	323.08988213539124	fix_pre	0		120	77.0	2.5	/experiments/Knapen_AOT/AOT_stimuli/rescaled_final/0008_rv.mp4	0.0	339.14035868644714	1.0085632801055908
79	323.6735599040985	pulse	0	t		77.0	2.5	/experiments/Knapen_AOT/AOT_stimuli/rescaled_final/0008_rv.mp4	0.0	339.7240364551544	
79	324.0984454154968	movie	1		278	77.0	2.5	/experiments/Knapen_AOT/AOT_stimuli/rescaled_final/0008_rv.mp4	0.0	340.14892196655273	2.4919862747192383
79	325.2724173069	pulse	1	t		77.0	2.5	/experiments/Knapen_AOT/AOT_stimuli/rescaled_final/0008_rv.mp4	0.0	341.32289385795593	
79	326.59043169021606	fix_post	2		12	77.0	2.5	/experiments/Knapen_AOT/AOT_stimuli/rescaled_final/0008_rv.mp4	0.0	342.640908241272	0.10005497932434082
80	326.6904866695404	fix_pre	0		119	78.0	2.5	/experiments/Knapen_AOT/AOT_stimuli/rescaled_final/0664_fw.mp4	0.0	342.7409632205963	1.0085279941558838
80	326.8740520477295	pulse	0	t		78.0	2.5	/experiments/Knapen_AOT/AOT_stimuli/rescaled_final/0664_fw.mp4	0.0	342.9245285987854	
80	327.6990146636963	movie	1		282	78.0	2.5	/experiments/Knapen_AOT/AOT_stimuli/rescaled_final/0664_fw.mp4	0.0	343.7494912147522	2.491953134536743
80	328.47207140922546	pulse	1	t		78.0	2.5	/experiments/Knapen_AOT/AOT_stimuli/rescaled_final/0664_fw.mp4	0.0	344.5225479602814	
80	330.07278966903687	pulse	1	t		78.0	2.5	/experiments/Knapen_AOT/AOT_stimuli/rescaled_final/0664_fw.mp4	0.0	346.1232662200928	
80	330.19096779823303	fix_post	2		12	78.0	2.5	/experiments/Knapen_AOT/AOT_stimuli/rescaled_final/0664_fw.mp4	0.0	346.24144434928894	0.100067138671875
81	330.2910349369049	fix_pre	0		120	79.0	2.5	/experiments/Knapen_AOT/AOT_stimuli/rescaled_final/1816_fw.mp4	0.0	346.3415114879608	1.0084335803985596
81	331.29946851730347	movie	1		264	79.0	2.5	/experiments/Knapen_AOT/AOT_stimuli/rescaled_final/1816_fw.mp4	0.0	347.3499450683594	2.4920077323913574
81	331.67478466033936	pulse	1	t		79.0	2.5	/experiments/Knapen_AOT/AOT_stimuli/rescaled_final/1816_fw.mp4	0.0	347.72526121139526	
81	333.27321577072144	pulse	1	t		79.0	2.5	/experiments/Knapen_AOT/AOT_stimuli/rescaled_final/1816_fw.mp4	0.0	349.32369232177734	
81	333.7914762496948	fix_post	2		12	79.0	2.5	/experiments/Knapen_AOT/AOT_stimuli/rescaled_final/1816_fw.mp4	0.0	349.84195280075073	0.1000525951385498
82	333.8915288448334	fix_pre	0		119	80.0	2.5	/experiments/Knapen_AOT/AOT_stimuli/rescaled_final/1512_fw.mp4	0.0	349.9420053958893	1.000103235244751
82	334.87514638900757	pulse	0	t		80.0	2.5	/experiments/Knapen_AOT/AOT_stimuli/rescaled_final/1512_fw.mp4	0.0	350.9256229400635	
82	334.8916320800781	movie	1		280	80.0	2.5	/experiments/Knapen_AOT/AOT_stimuli/rescaled_final/1512_fw.mp4	0.0	350.94210863113403	2.5004279613494873
82	336.4749822616577	pulse	1	t		80.0	2.5	/experiments/Knapen_AOT/AOT_stimuli/rescaled_final/1512_fw.mp4	0.0	352.5254588127136	
82	337.3920600414276	fix_post	2		12	80.0	2.5	/experiments/Knapen_AOT/AOT_stimuli/rescaled_final/1512_fw.mp4	0.0	353.4425365924835	0.10002946853637695
83	337.492089509964	fix_pre	0		120	81.0	2.5	/experiments/Knapen_AOT/AOT_stimuli/rescaled_final/1525_rv.mp4	0.0	353.5425660610199	1.0084633827209473
83	338.07583475112915	pulse	0	t		81.0	2.5	/experiments/Knapen_AOT/AOT_stimuli/rescaled_final/1525_rv.mp4	0.0	354.12631130218506	
83	338.50055289268494	movie	1		272	81.0	2.5	/experiments/Knapen_AOT/AOT_stimuli/rescaled_final/1525_rv.mp4	0.0	354.55102944374084	2.492023468017578
83	339.6741545200348	pulse	1	t		81.0	2.5	/experiments/Knapen_AOT/AOT_stimuli/rescaled_final/1525_rv.mp4	0.0	355.7246310710907	
83	340.9925763607025	fix_post	2		12	81.0	2.5	/experiments/Knapen_AOT/AOT_stimuli/rescaled_final/1525_rv.mp4	0.0	357.0430529117584	0.09999299049377441
84	341.0925693511963	fix_pre	0		120	82.0	2.5	/experiments/Knapen_AOT/AOT_stimuli/rescaled_final/0416_rv.mp4	0.0	357.1430459022522	1.0085206031799316
84	341.27611923217773	pulse	0	t		82.0	2.5	/experiments/Knapen_AOT/AOT_stimuli/rescaled_final/0416_rv.mp4	0.0	357.32659578323364	
84	342.1010899543762	movie	1		265	82.0	2.5	/experiments/Knapen_AOT/AOT_stimuli/rescaled_final/0416_rv.mp4	0.0	358.15156650543213	2.4921727180480957
84	342.876610994339	pulse	1	t		82.0	2.5	/experiments/Knapen_AOT/AOT_stimuli/rescaled_final/0416_rv.mp4	0.0	358.9270875453949	
84	344.4745147228241	pulse	1	t		82.0	2.5	/experiments/Knapen_AOT/AOT_stimuli/rescaled_final/0416_rv.mp4	0.0	360.52499127388	
84	344.5932626724243	fix_post	2		12	82.0	2.5	/experiments/Knapen_AOT/AOT_stimuli/rescaled_final/0416_rv.mp4	0.0	360.6437392234802	0.09983515739440918
85	344.6930978298187	fix_pre	0		120	83.0	2.5	blank	1.0	360.74357438087463	1.0001766681671143
85	345.69327449798584	movie	1		300	83.0	2.5	blank	1.0	361.74375104904175	2.5003700256347656
85	346.0769703388214	pulse	1	t		83.0	2.5	blank	1.0	362.1274468898773	
85	347.6771035194397	pulse	1	t		83.0	2.5	blank	1.0	363.7275800704956	
85	348.1936445236206	fix_post	2		12	83.0	2.5	blank	1.0	364.2441210746765	0.09998250007629395
87	348.2936270236969	stim	0		1715					364.3441035747528	14.293936252593994
87	349.2773468494415	pulse	0	t						365.32782340049744	
87	350.87766432762146	pulse	0	t						366.92814087867737	
87	352.47807002067566	pulse	0	t						368.52854657173157	
87	354.07813835144043	pulse	0	t						370.12861490249634	
87	355.6709270477295	pulse	0	t						371.7214035987854	
87	357.27087354660034	pulse	0	t						373.32135009765625	
87	358.87102818489075	pulse	0	t						374.92150473594666	
87	360.47097873687744	pulse	0	t						376.52145528793335	
87	362.0710768699646	pulse	0	t						378.1215534210205	
