trial_nr	onset	event_type	phase	response	nr_frames	movie_index	movie_duration	movie_file	blank	onset_abs	duration
0	0.14987993240356445	stim	0		28					20.816138982772827	0.23325800895690918
0	0.3751389980316162	response	0	space						21.04139804840088	
1	0.38313794136047363	stim	0		12630					21.049396991729736	105.24949598312378
1	105.62867498397827	pulse	0	t						126.29493403434753	
1	105.63263392448425	stim	1		1717					126.29889297485352	14.308266162872314
1	107.22451210021973	pulse	1	t						127.89077115058899	
1	108.82446002960205	pulse	1	t						129.4907190799713	
1	110.42438411712646	pulse	1	t						131.09064316749573	
1	112.02445888519287	pulse	1	t						132.69071793556213	
1	113.62443399429321	pulse	1	t						134.29069304466248	
1	115.22435903549194	pulse	1	t						135.8906180858612	
1	116.82437491416931	pulse	1	t						137.49063396453857	
1	118.42439603805542	pulse	1	t						139.09065508842468	
2	119.94090008735657	fix_pre	0		11	0.0	2.5	/experiments/AOT/AOT_stimuli/rescaled_final/0705_rv.mp4	0.0	140.60715913772583	0.09160184860229492
2	120.02439403533936	pulse	0	t		0.0	2.5	/experiments/AOT/AOT_stimuli/rescaled_final/0705_rv.mp4	0.0	140.69065308570862	
2	120.03250193595886	movie	1		245	0.0	2.5	/experiments/AOT/AOT_stimuli/rescaled_final/0705_rv.mp4	0.0	140.69876098632812	2.508388042449951
2	121.62399911880493	pulse	1	t		0.0	2.5	/experiments/AOT/AOT_stimuli/rescaled_final/0705_rv.mp4	0.0	142.2902581691742	
2	122.54088997840881	fix_post	2		12	0.0	2.5	/experiments/AOT/AOT_stimuli/rescaled_final/0705_rv.mp4	0.0	143.20714902877808	0.10005712509155273
3	122.64094710350037	fix_pre	0		120	1.0	2.5	/experiments/AOT/AOT_stimuli/rescaled_final/1820_fw.mp4	0.0	143.30720615386963	0.9999899864196777
3	123.22437906265259	pulse	0	t		1.0	2.5	/experiments/AOT/AOT_stimuli/rescaled_final/1820_fw.mp4	0.0	143.89063811302185	
3	123.64093708992004	movie	1		245	1.0	2.5	/experiments/AOT/AOT_stimuli/rescaled_final/1820_fw.mp4	0.0	144.3071961402893	2.5000178813934326
3	124.82445192337036	pulse	1	t		1.0	2.5	/experiments/AOT/AOT_stimuli/rescaled_final/1820_fw.mp4	0.0	145.49071097373962	
3	126.14095497131348	fix_post	2		12	1.0	2.5	/experiments/AOT/AOT_stimuli/rescaled_final/1820_fw.mp4	0.0	146.80721402168274	0.09993910789489746
4	126.24089407920837	fix_pre	0		120	2.0	2.5	/experiments/AOT/AOT_stimuli/rescaled_final/1125_rv.mp4	0.0	146.90715312957764	0.9999749660491943
4	126.42456698417664	pulse	0	t		2.0	2.5	/experiments/AOT/AOT_stimuli/rescaled_final/1125_rv.mp4	0.0	147.0908260345459	
4	127.24086904525757	movie	1		245	2.0	2.5	/experiments/AOT/AOT_stimuli/rescaled_final/1125_rv.mp4	0.0	147.90712809562683	2.500131845474243
4	128.0243570804596	pulse	1	t		2.0	2.5	/experiments/AOT/AOT_stimuli/rescaled_final/1125_rv.mp4	0.0	148.69061613082886	
4	129.6230230331421	pulse	1	t		2.0	2.5	/experiments/AOT/AOT_stimuli/rescaled_final/1125_rv.mp4	0.0	150.28928208351135	
4	129.7410008907318	fix_post	2		12	2.0	2.5	/experiments/AOT/AOT_stimuli/rescaled_final/1125_rv.mp4	0.0	150.40725994110107	0.09988117218017578
5	129.840882062912	fix_pre	0		120	3.0	2.5	/experiments/AOT/AOT_stimuli/rescaled_final/0209_fw.mp4	0.0	150.50714111328125	1.000025987625122
5	130.8409080505371	movie	1		244	3.0	2.5	/experiments/AOT/AOT_stimuli/rescaled_final/0209_fw.mp4	0.0	151.50716710090637	2.4998929500579834
5	131.22440600395203	pulse	1	t		3.0	2.5	/experiments/AOT/AOT_stimuli/rescaled_final/0209_fw.mp4	0.0	151.8906650543213	
5	132.82436108589172	pulse	1	t		3.0	2.5	/experiments/AOT/AOT_stimuli/rescaled_final/0209_fw.mp4	0.0	153.490620136261	
5	133.3408010005951	fix_post	2		12	3.0	2.5	/experiments/AOT/AOT_stimuli/rescaled_final/0209_fw.mp4	0.0	154.00706005096436	0.10002589225769043
6	133.44082689285278	fix_pre	0		119	4.0	2.5	/experiments/AOT/AOT_stimuli/rescaled_final/1285_fw.mp4	0.0	154.10708594322205	0.9916090965270996
6	134.42434906959534	pulse	0	t		4.0	2.5	/experiments/AOT/AOT_stimuli/rescaled_final/1285_fw.mp4	0.0	155.0906081199646	
6	134.43243598937988	movie	1		245	4.0	2.5	/experiments/AOT/AOT_stimuli/rescaled_final/1285_fw.mp4	0.0	155.09869503974915	2.508430004119873
6	136.0240180492401	pulse	1	t		4.0	2.5	/experiments/AOT/AOT_stimuli/rescaled_final/1285_fw.mp4	0.0	156.69027709960938	
6	136.94086599349976	fix_post	2		12	4.0	2.5	/experiments/AOT/AOT_stimuli/rescaled_final/1285_fw.mp4	0.0	157.60712504386902	0.10010194778442383
7	137.04096794128418	fix_pre	0		120	5.0	2.5	blank	1.0	157.70722699165344	0.9999251365661621
7	137.62440299987793	pulse	0	t		5.0	2.5	blank	1.0	158.2906620502472	
7	138.04089307785034	movie	1		300	5.0	2.5	blank	1.0	158.7071521282196	2.4999818801879883
7	139.22430801391602	pulse	1	t		5.0	2.5	blank	1.0	159.89056706428528	
7	140.54087495803833	fix_post	2		12	5.0	2.5	blank	1.0	161.2071340084076	0.0999441146850586
8	140.6408190727234	fix_pre	0		120	6.0	2.5	/experiments/AOT/AOT_stimuli/rescaled_final/0450_rv.mp4	0.0	161.30707812309265	1.0001049041748047
8	140.82433104515076	pulse	0	t		6.0	2.5	/experiments/AOT/AOT_stimuli/rescaled_final/0450_rv.mp4	0.0	161.49059009552002	
8	141.6409239768982	movie	1		245	6.0	2.5	/experiments/AOT/AOT_stimuli/rescaled_final/0450_rv.mp4	0.0	162.30718302726746	2.4999659061431885
8	142.4243369102478	pulse	1	t		6.0	2.5	/experiments/AOT/AOT_stimuli/rescaled_final/0450_rv.mp4	0.0	163.09059596061707	
8	144.0228350162506	pulse	1	t		6.0	2.5	/experiments/AOT/AOT_stimuli/rescaled_final/0450_rv.mp4	0.0	164.68909406661987	
8	144.14088988304138	fix_post	2		12	6.0	2.5	/experiments/AOT/AOT_stimuli/rescaled_final/0450_rv.mp4	0.0	164.80714893341064	0.09993100166320801
9	144.2408208847046	fix_pre	0		120	7.0	2.5	/experiments/AOT/AOT_stimuli/rescaled_final/0808_fw.mp4	0.0	164.90707993507385	1.0000121593475342
9	145.24083304405212	movie	1		244	7.0	2.5	/experiments/AOT/AOT_stimuli/rescaled_final/0808_fw.mp4	0.0	165.9070920944214	2.4999239444732666
9	145.62383103370667	pulse	1	t		7.0	2.5	/experiments/AOT/AOT_stimuli/rescaled_final/0808_fw.mp4	0.0	166.29009008407593	
9	147.22425198554993	pulse	1	t		7.0	2.5	/experiments/AOT/AOT_stimuli/rescaled_final/0808_fw.mp4	0.0	167.8905110359192	
9	147.7407569885254	fix_post	2		12	7.0	2.5	/experiments/AOT/AOT_stimuli/rescaled_final/0808_fw.mp4	0.0	168.40701603889465	0.10000300407409668
10	147.8407599925995	fix_pre	0		119	8.0	2.5	/experiments/AOT/AOT_stimuli/rescaled_final/0369_rv.mp4	0.0	168.50701904296875	0.991645097732544
10	148.82420802116394	pulse	0	t		8.0	2.5	/experiments/AOT/AOT_stimuli/rescaled_final/0369_rv.mp4	0.0	169.4904670715332	
10	148.83240509033203	movie	1		247	8.0	2.5	/experiments/AOT/AOT_stimuli/rescaled_final/0369_rv.mp4	0.0	169.4986641407013	2.5083179473876953
10	150.42374801635742	pulse	1	t		8.0	2.5	/experiments/AOT/AOT_stimuli/rescaled_final/0369_rv.mp4	0.0	171.09000706672668	
10	151.34072303771973	fix_post	2		12	8.0	2.5	/experiments/AOT/AOT_stimuli/rescaled_final/0369_rv.mp4	0.0	172.006982088089	0.10006284713745117
11	151.44078588485718	fix_pre	0		120	9.0	2.5	/experiments/AOT/AOT_stimuli/rescaled_final/0678_rv.mp4	0.0	172.10704493522644	1.0000321865081787
11	152.02424097061157	pulse	0	t		9.0	2.5	/experiments/AOT/AOT_stimuli/rescaled_final/0678_rv.mp4	0.0	172.69050002098083	
11	152.44081807136536	movie	1		244	9.0	2.5	/experiments/AOT/AOT_stimuli/rescaled_final/0678_rv.mp4	0.0	173.10707712173462	2.500041961669922
11	153.62448692321777	pulse	1	t		9.0	2.5	/experiments/AOT/AOT_stimuli/rescaled_final/0678_rv.mp4	0.0	174.29074597358704	
11	154.94086003303528	fix_post	2		12	9.0	2.5	/experiments/AOT/AOT_stimuli/rescaled_final/0678_rv.mp4	0.0	175.60711908340454	0.09995102882385254
12	155.04081106185913	fix_pre	0		120	10.0	2.5	/experiments/AOT/AOT_stimuli/rescaled_final/1842_rv.mp4	0.0	175.7070701122284	1.0001120567321777
12	155.22433400154114	pulse	0	t		10.0	2.5	/experiments/AOT/AOT_stimuli/rescaled_final/1842_rv.mp4	0.0	175.8905930519104	
12	156.0409231185913	movie	1		243	10.0	2.5	/experiments/AOT/AOT_stimuli/rescaled_final/1842_rv.mp4	0.0	176.70718216896057	2.4999608993530273
12	156.8240180015564	pulse	1	t		10.0	2.5	/experiments/AOT/AOT_stimuli/rescaled_final/1842_rv.mp4	0.0	177.49027705192566	
12	158.4224100112915	pulse	1	t		10.0	2.5	/experiments/AOT/AOT_stimuli/rescaled_final/1842_rv.mp4	0.0	179.08866906166077	
12	158.54088401794434	fix_post	2		12	10.0	2.5	/experiments/AOT/AOT_stimuli/rescaled_final/1842_rv.mp4	0.0	179.2071430683136	0.09959697723388672
13	158.64048099517822	fix_pre	0		120	11.0	2.5	/experiments/AOT/AOT_stimuli/rescaled_final/1262_rv.mp4	0.0	179.30674004554749	1.0005619525909424
13	159.64104294776917	movie	1		243	11.0	2.5	/experiments/AOT/AOT_stimuli/rescaled_final/1262_rv.mp4	0.0	180.30730199813843	2.4993460178375244
13	160.02370595932007	pulse	1	t		11.0	2.5	/experiments/AOT/AOT_stimuli/rescaled_final/1262_rv.mp4	0.0	180.68996500968933	
13	161.62420105934143	pulse	1	t		11.0	2.5	/experiments/AOT/AOT_stimuli/rescaled_final/1262_rv.mp4	0.0	182.2904601097107	
13	162.1403889656067	fix_post	2		12	11.0	2.5	/experiments/AOT/AOT_stimuli/rescaled_final/1262_rv.mp4	0.0	182.80664801597595	0.1003270149230957
14	162.24071598052979	fix_pre	0		119	12.0	2.5	/experiments/AOT/AOT_stimuli/rescaled_final/0769_rv.mp4	0.0	182.90697503089905	0.9916970729827881
14	163.2243049144745	pulse	0	t		12.0	2.5	/experiments/AOT/AOT_stimuli/rescaled_final/0769_rv.mp4	0.0	183.89056396484375	
14	163.23241305351257	movie	1		248	12.0	2.5	/experiments/AOT/AOT_stimuli/rescaled_final/0769_rv.mp4	0.0	183.89867210388184	2.5082778930664062
14	164.8238890171051	pulse	1	t		12.0	2.5	/experiments/AOT/AOT_stimuli/rescaled_final/0769_rv.mp4	0.0	185.49014806747437	
14	165.74069094657898	fix_post	2		12	12.0	2.5	/experiments/AOT/AOT_stimuli/rescaled_final/0769_rv.mp4	0.0	186.40694999694824	0.100006103515625
15	165.8406970500946	fix_pre	0		120	13.0	2.5	blank	1.0	186.50695610046387	0.9999849796295166
15	166.4241840839386	pulse	0	t		13.0	2.5	blank	1.0	187.09044313430786	
15	166.84068202972412	movie	1		300	13.0	2.5	blank	1.0	187.50694108009338	2.4999618530273438
15	168.02420806884766	pulse	1	t		13.0	2.5	blank	1.0	188.69046711921692	
15	169.34064388275146	fix_post	2		12	13.0	2.5	blank	1.0	190.00690293312073	0.10007619857788086
16	169.44072008132935	fix_pre	0		120	14.0	2.5	/experiments/AOT/AOT_stimuli/rescaled_final/1292_rv.mp4	0.0	190.1069791316986	0.9999418258666992
16	169.62416911125183	pulse	0	t		14.0	2.5	/experiments/AOT/AOT_stimuli/rescaled_final/1292_rv.mp4	0.0	190.2904281616211	
16	170.44066190719604	movie	1		246	14.0	2.5	/experiments/AOT/AOT_stimuli/rescaled_final/1292_rv.mp4	0.0	191.1069209575653	2.499997138977051
16	171.2241849899292	pulse	1	t		14.0	2.5	/experiments/AOT/AOT_stimuli/rescaled_final/1292_rv.mp4	0.0	191.89044404029846	
16	172.82270407676697	pulse	1	t		14.0	2.5	/experiments/AOT/AOT_stimuli/rescaled_final/1292_rv.mp4	0.0	193.48896312713623	
16	172.9406590461731	fix_post	2		12	14.0	2.5	/experiments/AOT/AOT_stimuli/rescaled_final/1292_rv.mp4	0.0	193.60691809654236	0.10006904602050781
17	173.0407280921936	fix_pre	0		120	15.0	2.5	/experiments/AOT/AOT_stimuli/rescaled_final/0323_rv.mp4	0.0	193.70698714256287	0.9999799728393555
17	174.04070806503296	movie	1		244	15.0	2.5	/experiments/AOT/AOT_stimuli/rescaled_final/0323_rv.mp4	0.0	194.70696711540222	2.4999589920043945
17	174.42393398284912	pulse	1	t		15.0	2.5	/experiments/AOT/AOT_stimuli/rescaled_final/0323_rv.mp4	0.0	195.09019303321838	
17	176.0241401195526	pulse	1	t		15.0	2.5	/experiments/AOT/AOT_stimuli/rescaled_final/0323_rv.mp4	0.0	196.69039916992188	
17	176.54066705703735	fix_post	2		12	15.0	2.5	/experiments/AOT/AOT_stimuli/rescaled_final/0323_rv.mp4	0.0	197.20692610740662	0.1000208854675293
18	176.64068794250488	fix_pre	0		119	16.0	2.5	/experiments/AOT/AOT_stimuli/rescaled_final/1890_fw.mp4	0.0	197.30694699287415	0.9916610717773438
18	177.62420010566711	pulse	0	t		16.0	2.5	/experiments/AOT/AOT_stimuli/rescaled_final/1890_fw.mp4	0.0	198.29045915603638	
18	177.63234901428223	movie	1		245	16.0	2.5	/experiments/AOT/AOT_stimuli/rescaled_final/1890_fw.mp4	0.0	198.2986080646515	2.508323907852173
18	179.22371006011963	pulse	1	t		16.0	2.5	/experiments/AOT/AOT_stimuli/rescaled_final/1890_fw.mp4	0.0	199.8899691104889	
18	180.1406729221344	fix_post	2		12	16.0	2.5	/experiments/AOT/AOT_stimuli/rescaled_final/1890_fw.mp4	0.0	200.80693197250366	0.10004019737243652
19	180.24071311950684	fix_pre	0		120	17.0	2.5	/experiments/AOT/AOT_stimuli/rescaled_final/0301_fw.mp4	0.0	200.9069721698761	0.99997878074646
19	180.8241798877716	pulse	0	t		17.0	2.5	/experiments/AOT/AOT_stimuli/rescaled_final/0301_fw.mp4	0.0	201.49043893814087	
19	181.2406919002533	movie	1		243	17.0	2.5	/experiments/AOT/AOT_stimuli/rescaled_final/0301_fw.mp4	0.0	201.90695095062256	2.4999442100524902
19	182.42424893379211	pulse	1	t		17.0	2.5	/experiments/AOT/AOT_stimuli/rescaled_final/0301_fw.mp4	0.0	203.09050798416138	
19	183.7406361103058	fix_post	2		12	17.0	2.5	/experiments/AOT/AOT_stimuli/rescaled_final/0301_fw.mp4	0.0	204.40689516067505	0.1000218391418457
20	183.84065794944763	fix_pre	0		120	18.0	2.5	/experiments/AOT/AOT_stimuli/rescaled_final/0762_rv.mp4	0.0	204.5069169998169	0.9995560646057129
20	184.02413201332092	pulse	0	t		18.0	2.5	/experiments/AOT/AOT_stimuli/rescaled_final/0762_rv.mp4	0.0	204.69039106369019	
20	184.84021401405334	movie	1		245	18.0	2.5	/experiments/AOT/AOT_stimuli/rescaled_final/0762_rv.mp4	0.0	205.5064730644226	2.500403881072998
20	185.6241419315338	pulse	1	t		18.0	2.5	/experiments/AOT/AOT_stimuli/rescaled_final/0762_rv.mp4	0.0	206.29040098190308	
20	187.22028803825378	pulse	1	t		18.0	2.5	/experiments/AOT/AOT_stimuli/rescaled_final/0762_rv.mp4	0.0	207.88654708862305	
20	187.34061789512634	fix_post	2		12	18.0	2.5	/experiments/AOT/AOT_stimuli/rescaled_final/0762_rv.mp4	0.0	208.0068769454956	0.09963607788085938
21	187.4402539730072	fix_pre	0		120	19.0	2.5	/experiments/AOT/AOT_stimuli/rescaled_final/1745_rv.mp4	0.0	208.10651302337646	1.0003249645233154
21	188.44057893753052	movie	1		244	19.0	2.5	/experiments/AOT/AOT_stimuli/rescaled_final/1745_rv.mp4	0.0	209.10683798789978	2.5000600814819336
21	188.82520198822021	pulse	1	t		19.0	2.5	/experiments/AOT/AOT_stimuli/rescaled_final/1745_rv.mp4	0.0	209.49146103858948	
21	190.42416501045227	pulse	1	t		19.0	2.5	/experiments/AOT/AOT_stimuli/rescaled_final/1745_rv.mp4	0.0	211.09042406082153	
21	190.94063901901245	fix_post	2		12	19.0	2.5	/experiments/AOT/AOT_stimuli/rescaled_final/1745_rv.mp4	0.0	211.6068980693817	0.09998297691345215
22	191.0406219959259	fix_pre	0		119	20.0	2.5	blank	1.0	211.70688104629517	0.9916698932647705
22	192.02416610717773	pulse	0	t		20.0	2.5	blank	1.0	212.690425157547	
22	192.03229188919067	movie	1		301	20.0	2.5	blank	1.0	212.69855093955994	2.508404016494751
22	193.62422108650208	pulse	1	t		20.0	2.5	blank	1.0	214.29048013687134	
22	194.54069590568542	fix_post	2		12	20.0	2.5	blank	1.0	215.2069549560547	0.09998202323913574
23	194.64067792892456	fix_pre	0		120	21.0	2.5	/experiments/AOT/AOT_stimuli/rescaled_final/0693_rv.mp4	0.0	215.30693697929382	1.000020980834961
23	195.22412490844727	pulse	0	t		21.0	2.5	/experiments/AOT/AOT_stimuli/rescaled_final/0693_rv.mp4	0.0	215.89038395881653	
23	195.64069890975952	movie	1		243	21.0	2.5	/experiments/AOT/AOT_stimuli/rescaled_final/0693_rv.mp4	0.0	216.30695796012878	2.4996070861816406
23	196.82420802116394	pulse	1	t		21.0	2.5	/experiments/AOT/AOT_stimuli/rescaled_final/0693_rv.mp4	0.0	217.4904670715332	
23	198.14030599594116	fix_post	2		12	21.0	2.5	/experiments/AOT/AOT_stimuli/rescaled_final/0693_rv.mp4	0.0	218.80656504631042	0.10036802291870117
24	198.24067401885986	fix_pre	0		120	22.0	2.5	/experiments/AOT/AOT_stimuli/rescaled_final/1723_fw.mp4	0.0	218.90693306922913	1.0000240802764893
24	198.4242880344391	pulse	0	t		22.0	2.5	/experiments/AOT/AOT_stimuli/rescaled_final/1723_fw.mp4	0.0	219.09054708480835	
24	199.24069809913635	movie	1		243	22.0	2.5	/experiments/AOT/AOT_stimuli/rescaled_final/1723_fw.mp4	0.0	219.90695714950562	2.499842882156372
24	200.0241219997406	pulse	1	t		22.0	2.5	/experiments/AOT/AOT_stimuli/rescaled_final/1723_fw.mp4	0.0	220.69038105010986	
24	201.62265801429749	pulse	1	t		22.0	2.5	/experiments/AOT/AOT_stimuli/rescaled_final/1723_fw.mp4	0.0	222.28891706466675	
24	201.74054098129272	fix_post	2		12	22.0	2.5	/experiments/AOT/AOT_stimuli/rescaled_final/1723_fw.mp4	0.0	222.406800031662	0.09995913505554199
25	201.84050011634827	fix_pre	0		120	23.0	2.5	/experiments/AOT/AOT_stimuli/rescaled_final/2099_fw.mp4	0.0	222.50675916671753	1.0001029968261719
25	202.84060311317444	movie	1		244	23.0	2.5	/experiments/AOT/AOT_stimuli/rescaled_final/2099_fw.mp4	0.0	223.5068621635437	2.500013828277588
25	203.22496795654297	pulse	1	t		23.0	2.5	/experiments/AOT/AOT_stimuli/rescaled_final/2099_fw.mp4	0.0	223.89122700691223	
25	204.82417702674866	pulse	1	t		23.0	2.5	/experiments/AOT/AOT_stimuli/rescaled_final/2099_fw.mp4	0.0	225.49043607711792	
25	205.34061694145203	fix_post	2		12	23.0	2.5	/experiments/AOT/AOT_stimuli/rescaled_final/2099_fw.mp4	0.0	226.0068759918213	0.09994697570800781
26	205.44056391716003	fix_pre	0		119	24.0	2.5	/experiments/AOT/AOT_stimuli/rescaled_final/0396_rv.mp4	0.0	226.1068229675293	0.9917070865631104
26	206.4241020679474	pulse	0	t		24.0	2.5	/experiments/AOT/AOT_stimuli/rescaled_final/0396_rv.mp4	0.0	227.09036111831665	
26	206.43227100372314	movie	1		245	24.0	2.5	/experiments/AOT/AOT_stimuli/rescaled_final/0396_rv.mp4	0.0	227.0985300540924	2.5082828998565674
26	208.02416110038757	pulse	1	t		24.0	2.5	/experiments/AOT/AOT_stimuli/rescaled_final/0396_rv.mp4	0.0	228.69042015075684	
26	208.9405539035797	fix_post	2		12	24.0	2.5	/experiments/AOT/AOT_stimuli/rescaled_final/0396_rv.mp4	0.0	229.60681295394897	0.10001611709594727
27	209.04057002067566	fix_pre	0		120	25.0	2.5	/experiments/AOT/AOT_stimuli/rescaled_final/0762_rv.mp4	0.0	229.70682907104492	0.999561071395874
27	209.62423992156982	pulse	0	t		25.0	2.5	/experiments/AOT/AOT_stimuli/rescaled_final/0762_rv.mp4	0.0	230.2904989719391	
27	210.04013109207153	movie	1		247	25.0	2.5	/experiments/AOT/AOT_stimuli/rescaled_final/0762_rv.mp4	0.0	230.7063901424408	2.4999828338623047
27	211.22411108016968	pulse	1	t		25.0	2.5	/experiments/AOT/AOT_stimuli/rescaled_final/0762_rv.mp4	0.0	231.89037013053894	
27	212.54011392593384	fix_post	2		12	25.0	2.5	/experiments/AOT/AOT_stimuli/rescaled_final/0762_rv.mp4	0.0	233.2063729763031	0.10045814514160156
28	212.64057207107544	fix_pre	0		120	26.0	2.5	/experiments/AOT/AOT_stimuli/rescaled_final/0329_fw.mp4	0.0	233.3068311214447	0.9997398853302002
28	212.82366800308228	pulse	0	t		26.0	2.5	/experiments/AOT/AOT_stimuli/rescaled_final/0329_fw.mp4	0.0	233.48992705345154	
28	213.64031195640564	movie	1		243	26.0	2.5	/experiments/AOT/AOT_stimuli/rescaled_final/0329_fw.mp4	0.0	234.3065710067749	2.500213146209717
28	214.42372488975525	pulse	1	t		26.0	2.5	/experiments/AOT/AOT_stimuli/rescaled_final/0329_fw.mp4	0.0	235.0899839401245	
28	216.02304792404175	pulse	1	t		26.0	2.5	/experiments/AOT/AOT_stimuli/rescaled_final/0329_fw.mp4	0.0	236.689306974411	
28	216.14052510261536	fix_post	2		12	26.0	2.5	/experiments/AOT/AOT_stimuli/rescaled_final/0329_fw.mp4	0.0	236.80678415298462	0.10004186630249023
29	216.24056696891785	fix_pre	0		120	27.0	2.5	blank	1.0	236.9068260192871	1.0000150203704834
29	217.24058198928833	movie	1		300	27.0	2.5	blank	1.0	237.9068410396576	2.499906063079834
29	217.62409496307373	pulse	1	t		27.0	2.5	blank	1.0	238.290354013443	
29	219.22405695915222	pulse	1	t		27.0	2.5	blank	1.0	239.89031600952148	
29	219.74048805236816	fix_post	2		12	27.0	2.5	blank	1.0	240.40674710273743	0.10004997253417969
30	219.84053802490234	fix_pre	0		119	28.0	2.5	/experiments/AOT/AOT_stimuli/rescaled_final/0754_fw.mp4	0.0	240.5067970752716	0.9916360378265381
30	220.8240110874176	pulse	0	t		28.0	2.5	/experiments/AOT/AOT_stimuli/rescaled_final/0754_fw.mp4	0.0	241.49027013778687	
30	220.83217406272888	movie	1		247	28.0	2.5	/experiments/AOT/AOT_stimuli/rescaled_final/0754_fw.mp4	0.0	241.49843311309814	2.5083580017089844
30	222.42384099960327	pulse	1	t		28.0	2.5	/experiments/AOT/AOT_stimuli/rescaled_final/0754_fw.mp4	0.0	243.09010004997253	
30	223.34053206443787	fix_post	2		12	28.0	2.5	/experiments/AOT/AOT_stimuli/rescaled_final/0754_fw.mp4	0.0	244.00679111480713	0.0999748706817627
31	223.44050693511963	fix_pre	0		120	29.0	2.5	/experiments/AOT/AOT_stimuli/rescaled_final/1090_fw.mp4	0.0	244.1067659854889	0.9999799728393555
31	224.02400708198547	pulse	0	t		29.0	2.5	/experiments/AOT/AOT_stimuli/rescaled_final/1090_fw.mp4	0.0	244.69026613235474	
31	224.44048690795898	movie	1		244	29.0	2.5	/experiments/AOT/AOT_stimuli/rescaled_final/1090_fw.mp4	0.0	245.10674595832825	2.4996440410614014
31	225.62404489517212	pulse	1	t		29.0	2.5	/experiments/AOT/AOT_stimuli/rescaled_final/1090_fw.mp4	0.0	246.29030394554138	
31	226.94013094902039	fix_post	2		12	29.0	2.5	/experiments/AOT/AOT_stimuli/rescaled_final/1090_fw.mp4	0.0	247.60638999938965	0.1003720760345459
32	227.04050302505493	fix_pre	0		120	30.0	2.5	/experiments/AOT/AOT_stimuli/rescaled_final/1909_fw.mp4	0.0	247.7067620754242	1.0000019073486328
32	227.22403597831726	pulse	0	t		30.0	2.5	/experiments/AOT/AOT_stimuli/rescaled_final/1909_fw.mp4	0.0	247.89029502868652	
32	228.04050493240356	movie	1		246	30.0	2.5	/experiments/AOT/AOT_stimuli/rescaled_final/1909_fw.mp4	0.0	248.70676398277283	2.499972105026245
32	228.82394099235535	pulse	1	t		30.0	2.5	/experiments/AOT/AOT_stimuli/rescaled_final/1909_fw.mp4	0.0	249.4902000427246	
32	230.42230200767517	pulse	1	t		30.0	2.5	/experiments/AOT/AOT_stimuli/rescaled_final/1909_fw.mp4	0.0	251.08856105804443	
32	230.5404770374298	fix_post	2		12	30.0	2.5	/experiments/AOT/AOT_stimuli/rescaled_final/1909_fw.mp4	0.0	251.20673608779907	0.10002803802490234
33	230.6405050754547	fix_pre	0		120	31.0	2.5	/experiments/AOT/AOT_stimuli/rescaled_final/0489_rv.mp4	0.0	251.30676412582397	1.0000460147857666
33	231.64055109024048	movie	1		245	31.0	2.5	/experiments/AOT/AOT_stimuli/rescaled_final/0489_rv.mp4	0.0	252.30681014060974	2.499478816986084
33	232.02378010749817	pulse	1	t		31.0	2.5	/experiments/AOT/AOT_stimuli/rescaled_final/0489_rv.mp4	0.0	252.69003915786743	
33	233.6238911151886	pulse	1	t		31.0	2.5	/experiments/AOT/AOT_stimuli/rescaled_final/0489_rv.mp4	0.0	254.29015016555786	
33	234.14002990722656	fix_post	2		12	31.0	2.5	/experiments/AOT/AOT_stimuli/rescaled_final/0489_rv.mp4	0.0	254.80628895759583	0.10039710998535156
34	234.2404270172119	fix_pre	0		119	32.0	2.5	/experiments/AOT/AOT_stimuli/rescaled_final/1568_rv.mp4	0.0	254.90668606758118	0.9916059970855713
34	235.22391390800476	pulse	0	t		32.0	2.5	/experiments/AOT/AOT_stimuli/rescaled_final/1568_rv.mp4	0.0	255.89017295837402	
34	235.23203301429749	movie	1		247	32.0	2.5	/experiments/AOT/AOT_stimuli/rescaled_final/1568_rv.mp4	0.0	255.89829206466675	2.5084500312805176
34	236.8236289024353	pulse	1	t		32.0	2.5	/experiments/AOT/AOT_stimuli/rescaled_final/1568_rv.mp4	0.0	257.48988795280457	
34	237.740483045578	fix_post	2		12	32.0	2.5	/experiments/AOT/AOT_stimuli/rescaled_final/1568_rv.mp4	0.0	258.40674209594727	0.09999704360961914
35	237.84048008918762	fix_pre	0		120	33.0	2.5	/experiments/AOT/AOT_stimuli/rescaled_final/0490_rv.mp4	0.0	258.5067391395569	0.999957799911499
35	238.42387294769287	pulse	0	t		33.0	2.5	/experiments/AOT/AOT_stimuli/rescaled_final/0490_rv.mp4	0.0	259.09013199806213	
35	238.84043788909912	movie	1		245	33.0	2.5	/experiments/AOT/AOT_stimuli/rescaled_final/0490_rv.mp4	0.0	259.5066969394684	2.499948024749756
35	240.02402710914612	pulse	1	t		33.0	2.5	/experiments/AOT/AOT_stimuli/rescaled_final/0490_rv.mp4	0.0	260.6902861595154	
35	241.34038591384888	fix_post	2		12	33.0	2.5	/experiments/AOT/AOT_stimuli/rescaled_final/0490_rv.mp4	0.0	262.00664496421814	0.10001707077026367
36	241.44040298461914	fix_pre	0		120	34.0	2.5	/experiments/AOT/AOT_stimuli/rescaled_final/0369_rv.mp4	0.0	262.1066620349884	1.0000629425048828
36	241.62405490875244	pulse	0	t		34.0	2.5	/experiments/AOT/AOT_stimuli/rescaled_final/0369_rv.mp4	0.0	262.2903139591217	
36	242.44046592712402	movie	1		244	34.0	2.5	/experiments/AOT/AOT_stimuli/rescaled_final/0369_rv.mp4	0.0	263.1067249774933	2.5000159740448
36	243.2239909172058	pulse	1	t		34.0	2.5	/experiments/AOT/AOT_stimuli/rescaled_final/0369_rv.mp4	0.0	263.8902499675751	
36	244.82257890701294	pulse	1	t		34.0	2.5	/experiments/AOT/AOT_stimuli/rescaled_final/0369_rv.mp4	0.0	265.4888379573822	
36	244.94048190116882	fix_post	2		12	34.0	2.5	/experiments/AOT/AOT_stimuli/rescaled_final/0369_rv.mp4	0.0	265.6067409515381	0.09993410110473633
37	245.04041600227356	fix_pre	0		120	35.0	2.5	blank	1.0	265.7066750526428	1.0000290870666504
37	246.0404450893402	movie	1		300	35.0	2.5	blank	1.0	266.7067041397095	2.4999828338623047
37	246.42389607429504	pulse	1	t		35.0	2.5	blank	1.0	267.0901551246643	
37	248.02384305000305	pulse	1	t		35.0	2.5	blank	1.0	268.6901021003723	
37	248.54042792320251	fix_post	2		12	35.0	2.5	blank	1.0	269.2066869735718	0.09999299049377441
38	248.6404209136963	fix_pre	0		119	36.0	2.5	/experiments/AOT/AOT_stimuli/rescaled_final/0244_fw.mp4	0.0	269.30667996406555	0.9916470050811768
38	249.6239631175995	pulse	0	t		36.0	2.5	/experiments/AOT/AOT_stimuli/rescaled_final/0244_fw.mp4	0.0	270.29022216796875	
38	249.63206791877747	movie	1		247	36.0	2.5	/experiments/AOT/AOT_stimuli/rescaled_final/0244_fw.mp4	0.0	270.29832696914673	2.508362054824829
38	251.22381210327148	pulse	1	t		36.0	2.5	/experiments/AOT/AOT_stimuli/rescaled_final/0244_fw.mp4	0.0	271.89007115364075	
38	252.1404299736023	fix_post	2		12	36.0	2.5	/experiments/AOT/AOT_stimuli/rescaled_final/0244_fw.mp4	0.0	272.80668902397156	0.10005903244018555
39	252.24048900604248	fix_pre	0		120	37.0	2.5	/experiments/AOT/AOT_stimuli/rescaled_final/0860_fw.mp4	0.0	272.90674805641174	0.9999980926513672
39	252.82390308380127	pulse	0	t		37.0	2.5	/experiments/AOT/AOT_stimuli/rescaled_final/0860_fw.mp4	0.0	273.49016213417053	
39	253.24048709869385	movie	1		246	37.0	2.5	/experiments/AOT/AOT_stimuli/rescaled_final/0860_fw.mp4	0.0	273.9067461490631	2.499969959259033
39	254.42393803596497	pulse	1	t		37.0	2.5	/experiments/AOT/AOT_stimuli/rescaled_final/0860_fw.mp4	0.0	275.09019708633423	
39	255.74045705795288	fix_post	2		12	37.0	2.5	/experiments/AOT/AOT_stimuli/rescaled_final/0860_fw.mp4	0.0	276.40671610832214	0.09995794296264648
40	255.84041500091553	fix_pre	0		120	38.0	2.5	/experiments/AOT/AOT_stimuli/rescaled_final/0166_fw.mp4	0.0	276.5066740512848	0.9999749660491943
40	256.02385210990906	pulse	0	t		38.0	2.5	/experiments/AOT/AOT_stimuli/rescaled_final/0166_fw.mp4	0.0	276.6901111602783	
40	256.8403899669647	movie	1		243	38.0	2.5	/experiments/AOT/AOT_stimuli/rescaled_final/0166_fw.mp4	0.0	277.506649017334	2.499951124191284
40	257.6238899230957	pulse	1	t		38.0	2.5	/experiments/AOT/AOT_stimuli/rescaled_final/0166_fw.mp4	0.0	278.29014897346497	
40	259.2222719192505	pulse	1	t		38.0	2.5	/experiments/AOT/AOT_stimuli/rescaled_final/0166_fw.mp4	0.0	279.88853096961975	
40	259.340341091156	fix_post	2		12	38.0	2.5	/experiments/AOT/AOT_stimuli/rescaled_final/0166_fw.mp4	0.0	280.00660014152527	0.10010290145874023
41	259.44044399261475	fix_pre	0		120	39.0	2.5	/experiments/AOT/AOT_stimuli/rescaled_final/1343_fw.mp4	0.0	280.106703042984	0.9999480247497559
41	260.4403920173645	movie	1		244	39.0	2.5	/experiments/AOT/AOT_stimuli/rescaled_final/1343_fw.mp4	0.0	281.10665106773376	2.5000529289245605
41	260.8233709335327	pulse	1	t		39.0	2.5	/experiments/AOT/AOT_stimuli/rescaled_final/1343_fw.mp4	0.0	281.489629983902	
41	262.42391705513	pulse	1	t		39.0	2.5	/experiments/AOT/AOT_stimuli/rescaled_final/1343_fw.mp4	0.0	283.09017610549927	
41	262.94044494628906	fix_post	2		12	39.0	2.5	/experiments/AOT/AOT_stimuli/rescaled_final/1343_fw.mp4	0.0	283.6067039966583	0.09997105598449707
42	263.04041600227356	fix_pre	0		119	40.0	2.5	/experiments/AOT/AOT_stimuli/rescaled_final/1681_fw.mp4	0.0	283.7066750526428	0.9916260242462158
42	264.02388191223145	pulse	0	t		40.0	2.5	/experiments/AOT/AOT_stimuli/rescaled_final/1681_fw.mp4	0.0	284.6901409626007	
42	264.0320420265198	movie	1		244	40.0	2.5	/experiments/AOT/AOT_stimuli/rescaled_final/1681_fw.mp4	0.0	284.69830107688904	2.5083370208740234
42	265.62390303611755	pulse	1	t		40.0	2.5	/experiments/AOT/AOT_stimuli/rescaled_final/1681_fw.mp4	0.0	286.2901620864868	
42	266.5403790473938	fix_post	2		12	40.0	2.5	/experiments/AOT/AOT_stimuli/rescaled_final/1681_fw.mp4	0.0	287.20663809776306	0.09997701644897461
43	266.6403560638428	fix_pre	0		120	41.0	2.5	/experiments/AOT/AOT_stimuli/rescaled_final/0538_fw.mp4	0.0	287.30661511421204	1.0000410079956055
43	267.2238349914551	pulse	0	t		41.0	2.5	/experiments/AOT/AOT_stimuli/rescaled_final/0538_fw.mp4	0.0	287.89009404182434	
43	267.6403970718384	movie	1		246	41.0	2.5	/experiments/AOT/AOT_stimuli/rescaled_final/0538_fw.mp4	0.0	288.30665612220764	2.500077962875366
43	268.8234980106354	pulse	1	t		41.0	2.5	/experiments/AOT/AOT_stimuli/rescaled_final/0538_fw.mp4	0.0	289.48975706100464	
43	270.14047503471375	fix_post	2		12	41.0	2.5	/experiments/AOT/AOT_stimuli/rescaled_final/0538_fw.mp4	0.0	290.806734085083	0.09957003593444824
44	270.2400450706482	fix_pre	0		120	42.0	2.5	blank	1.0	290.90630412101746	1.000201940536499
44	270.42366194725037	pulse	0	t		42.0	2.5	blank	1.0	291.08992099761963	
44	271.2402470111847	movie	1		300	42.0	2.5	blank	1.0	291.90650606155396	2.5001299381256104
44	272.02381801605225	pulse	1	t		42.0	2.5	blank	1.0	292.6900770664215	
44	273.6238820552826	pulse	1	t		42.0	2.5	blank	1.0	294.29014110565186	
44	273.7403769493103	fix_post	2		12	42.0	2.5	blank	1.0	294.40663599967957	0.0999600887298584
45	273.84033703804016	fix_pre	0		120	43.0	2.5	/experiments/AOT/AOT_stimuli/rescaled_final/1211_fw.mp4	0.0	294.5065960884094	1.0000369548797607
45	274.8403739929199	movie	1		247	43.0	2.5	/experiments/AOT/AOT_stimuli/rescaled_final/1211_fw.mp4	0.0	295.5066330432892	2.4999659061431885
45	275.2233850955963	pulse	1	t		43.0	2.5	/experiments/AOT/AOT_stimuli/rescaled_final/1211_fw.mp4	0.0	295.8896441459656	
45	276.8237121105194	pulse	1	t		43.0	2.5	/experiments/AOT/AOT_stimuli/rescaled_final/1211_fw.mp4	0.0	297.4899711608887	
45	277.3403398990631	fix_post	2		12	43.0	2.5	/experiments/AOT/AOT_stimuli/rescaled_final/1211_fw.mp4	0.0	298.0065989494324	0.09996199607849121
46	277.4403018951416	fix_pre	0		119	44.0	2.5	/experiments/AOT/AOT_stimuli/rescaled_final/1536_fw.mp4	0.0	298.10656094551086	0.9917302131652832
46	278.42377495765686	pulse	0	t		44.0	2.5	/experiments/AOT/AOT_stimuli/rescaled_final/1536_fw.mp4	0.0	299.0900340080261	
46	278.4320321083069	movie	1		248	44.0	2.5	/experiments/AOT/AOT_stimuli/rescaled_final/1536_fw.mp4	0.0	299.09829115867615	2.508293867111206
46	280.0235209465027	pulse	1	t		44.0	2.5	/experiments/AOT/AOT_stimuli/rescaled_final/1536_fw.mp4	0.0	300.68977999687195	
46	280.9403259754181	fix_post	2		12	44.0	2.5	/experiments/AOT/AOT_stimuli/rescaled_final/1536_fw.mp4	0.0	301.60658502578735	0.09995508193969727
47	281.0402810573578	fix_pre	0		120	45.0	2.5	/experiments/AOT/AOT_stimuli/rescaled_final/0424_rv.mp4	0.0	301.70654010772705	0.9996788501739502
47	281.62378096580505	pulse	0	t		45.0	2.5	/experiments/AOT/AOT_stimuli/rescaled_final/0424_rv.mp4	0.0	302.2900400161743	
47	282.03995990753174	movie	1		245	45.0	2.5	/experiments/AOT/AOT_stimuli/rescaled_final/0424_rv.mp4	0.0	302.706218957901	2.500317096710205
47	283.2239499092102	pulse	1	t		45.0	2.5	/experiments/AOT/AOT_stimuli/rescaled_final/0424_rv.mp4	0.0	303.89020895957947	
47	284.54027700424194	fix_post	2		12	45.0	2.5	/experiments/AOT/AOT_stimuli/rescaled_final/0424_rv.mp4	0.0	305.2065360546112	0.09999990463256836
48	284.6402769088745	fix_pre	0		120	46.0	2.5	/experiments/AOT/AOT_stimuli/rescaled_final/0146_fw.mp4	0.0	305.3065359592438	1.0000321865081787
48	284.82377791404724	pulse	0	t		46.0	2.5	/experiments/AOT/AOT_stimuli/rescaled_final/0146_fw.mp4	0.0	305.4900369644165	
48	285.6403090953827	movie	1		244	46.0	2.5	/experiments/AOT/AOT_stimuli/rescaled_final/0146_fw.mp4	0.0	306.30656814575195	2.500060796737671
48	286.42374205589294	pulse	1	t		46.0	2.5	/experiments/AOT/AOT_stimuli/rescaled_final/0146_fw.mp4	0.0	307.0900011062622	
48	288.02283692359924	pulse	1	t		46.0	2.5	/experiments/AOT/AOT_stimuli/rescaled_final/0146_fw.mp4	0.0	308.6890959739685	
48	288.14036989212036	fix_post	2		12	46.0	2.5	/experiments/AOT/AOT_stimuli/rescaled_final/0146_fw.mp4	0.0	308.8066289424896	0.10003018379211426
49	288.2404000759125	fix_pre	0		120	47.0	2.5	/experiments/AOT/AOT_stimuli/rescaled_final/1256_rv.mp4	0.0	308.90665912628174	0.9999289512634277
49	289.2403290271759	movie	1		244	47.0	2.5	/experiments/AOT/AOT_stimuli/rescaled_final/1256_rv.mp4	0.0	309.90658807754517	2.499985933303833
49	289.62377190589905	pulse	1	t		47.0	2.5	/experiments/AOT/AOT_stimuli/rescaled_final/1256_rv.mp4	0.0	310.2900309562683	
49	291.2238039970398	pulse	1	t		47.0	2.5	/experiments/AOT/AOT_stimuli/rescaled_final/1256_rv.mp4	0.0	311.89006304740906	
49	291.74031496047974	fix_post	2		12	47.0	2.5	/experiments/AOT/AOT_stimuli/rescaled_final/1256_rv.mp4	0.0	312.406574010849	0.09996604919433594
50	291.8402810096741	fix_pre	0		119	48.0	2.5	/experiments/AOT/AOT_stimuli/rescaled_final/0384_fw.mp4	0.0	312.50654006004333	0.991645097732544
50	292.8237910270691	pulse	0	t		48.0	2.5	/experiments/AOT/AOT_stimuli/rescaled_final/0384_fw.mp4	0.0	313.49005007743835	
50	292.8319261074066	movie	1		244	48.0	2.5	/experiments/AOT/AOT_stimuli/rescaled_final/0384_fw.mp4	0.0	313.4981851577759	2.5078389644622803
50	294.4232120513916	pulse	1	t		48.0	2.5	/experiments/AOT/AOT_stimuli/rescaled_final/0384_fw.mp4	0.0	315.08947110176086	
50	295.3397650718689	fix_post	2		12	48.0	2.5	/experiments/AOT/AOT_stimuli/rescaled_final/0384_fw.mp4	0.0	316.00602412223816	0.1004939079284668
51	295.44025897979736	fix_pre	0		120	49.0	2.5	blank	1.0	316.1065180301666	0.9999909400939941
51	296.02372193336487	pulse	0	t		49.0	2.5	blank	1.0	316.68998098373413	
51	296.44024991989136	movie	1		300	49.0	2.5	blank	1.0	317.1065089702606	2.4999279975891113
51	297.6237630844116	pulse	1	t		49.0	2.5	blank	1.0	318.2900221347809	
51	298.94017791748047	fix_post	2		12	49.0	2.5	blank	1.0	319.60643696784973	0.10004711151123047
52	299.0402250289917	fix_pre	0		120	50.0	2.5	/experiments/AOT/AOT_stimuli/rescaled_final/1681_rv.mp4	0.0	319.70648407936096	1.0000660419464111
52	299.22370505332947	pulse	0	t		50.0	2.5	/experiments/AOT/AOT_stimuli/rescaled_final/1681_rv.mp4	0.0	319.88996410369873	
52	300.0402910709381	movie	1		244	50.0	2.5	/experiments/AOT/AOT_stimuli/rescaled_final/1681_rv.mp4	0.0	320.7065501213074	2.50002384185791
52	300.82372403144836	pulse	1	t		50.0	2.5	/experiments/AOT/AOT_stimuli/rescaled_final/1681_rv.mp4	0.0	321.4899830818176	
52	302.42221093177795	pulse	1	t		50.0	2.5	/experiments/AOT/AOT_stimuli/rescaled_final/1681_rv.mp4	0.0	323.0884699821472	
52	302.540314912796	fix_post	2		12	50.0	2.5	/experiments/AOT/AOT_stimuli/rescaled_final/1681_rv.mp4	0.0	323.2065739631653	0.09993720054626465
53	302.6402521133423	fix_pre	0		120	51.0	2.5	/experiments/AOT/AOT_stimuli/rescaled_final/1527_fw.mp4	0.0	323.30651116371155	1.0000569820404053
53	303.6403090953827	movie	1		249	51.0	2.5	/experiments/AOT/AOT_stimuli/rescaled_final/1527_fw.mp4	0.0	324.30656814575195	2.500005006790161
53	304.0234999656677	pulse	1	t		51.0	2.5	/experiments/AOT/AOT_stimuli/rescaled_final/1527_fw.mp4	0.0	324.689759016037	
53	305.6237208843231	pulse	1	t		51.0	2.5	/experiments/AOT/AOT_stimuli/rescaled_final/1527_fw.mp4	0.0	326.2899799346924	
53	306.14031410217285	fix_post	2		12	51.0	2.5	/experiments/AOT/AOT_stimuli/rescaled_final/1527_fw.mp4	0.0	326.8065731525421	0.09991884231567383
54	306.2402329444885	fix_pre	0		119	52.0	2.5	/experiments/AOT/AOT_stimuli/rescaled_final/0015_fw.mp4	0.0	326.9064919948578	0.9916520118713379
54	307.2237460613251	pulse	0	t		52.0	2.5	/experiments/AOT/AOT_stimuli/rescaled_final/0015_fw.mp4	0.0	327.89000511169434	
54	307.23188495635986	movie	1		246	52.0	2.5	/experiments/AOT/AOT_stimuli/rescaled_final/0015_fw.mp4	0.0	327.8981440067291	2.5083000659942627
54	308.8236389160156	pulse	1	t		52.0	2.5	/experiments/AOT/AOT_stimuli/rescaled_final/0015_fw.mp4	0.0	329.4898979663849	
54	309.7401850223541	fix_post	2		12	52.0	2.5	/experiments/AOT/AOT_stimuli/rescaled_final/0015_fw.mp4	0.0	330.4064440727234	0.09992003440856934
55	309.8401050567627	fix_pre	0		120	53.0	2.5	/experiments/AOT/AOT_stimuli/rescaled_final/2117_fw.mp4	0.0	330.50636410713196	1.0002079010009766
55	310.4237310886383	pulse	0	t		53.0	2.5	/experiments/AOT/AOT_stimuli/rescaled_final/2117_fw.mp4	0.0	331.08999013900757	
55	310.8403129577637	movie	1		246	53.0	2.5	/experiments/AOT/AOT_stimuli/rescaled_final/2117_fw.mp4	0.0	331.50657200813293	2.4999170303344727
55	312.02374601364136	pulse	1	t		53.0	2.5	/experiments/AOT/AOT_stimuli/rescaled_final/2117_fw.mp4	0.0	332.6900050640106	
55	313.34022998809814	fix_post	2		12	53.0	2.5	/experiments/AOT/AOT_stimuli/rescaled_final/2117_fw.mp4	0.0	334.0064890384674	0.09995794296264648
56	313.4401879310608	fix_pre	0		120	54.0	2.5	blank	1.0	334.10644698143005	0.9999799728393555
56	313.6237139701843	pulse	0	t		54.0	2.5	blank	1.0	334.2899730205536	
56	314.44016790390015	movie	1		300	54.0	2.5	blank	1.0	335.1064269542694	2.5000360012054443
56	315.22371792793274	pulse	1	t		54.0	2.5	blank	1.0	335.889976978302	
56	316.82366704940796	pulse	1	t		54.0	2.5	blank	1.0	337.4899260997772	
56	316.9402039051056	fix_post	2		12	54.0	2.5	blank	1.0	337.60646295547485	0.09994816780090332
57	317.0401520729065	fix_pre	0		120	55.0	2.5	/experiments/AOT/AOT_stimuli/rescaled_final/0815_rv.mp4	0.0	337.70641112327576	1.0000460147857666
57	318.04019808769226	movie	1		243	55.0	2.5	/experiments/AOT/AOT_stimuli/rescaled_final/0815_rv.mp4	0.0	338.7064571380615	2.499894857406616
57	318.4236900806427	pulse	1	t		55.0	2.5	/experiments/AOT/AOT_stimuli/rescaled_final/0815_rv.mp4	0.0	339.08994913101196	
57	320.0236339569092	pulse	1	t		55.0	2.5	/experiments/AOT/AOT_stimuli/rescaled_final/0815_rv.mp4	0.0	340.68989300727844	
57	320.5400929450989	fix_post	2		12	55.0	2.5	/experiments/AOT/AOT_stimuli/rescaled_final/0815_rv.mp4	0.0	341.20635199546814	0.10001516342163086
58	320.6401081085205	fix_pre	0		119	56.0	2.5	/experiments/AOT/AOT_stimuli/rescaled_final/2067_fw.mp4	0.0	341.30636715888977	0.9917199611663818
58	321.62361907958984	pulse	0	t		56.0	2.5	/experiments/AOT/AOT_stimuli/rescaled_final/2067_fw.mp4	0.0	342.2898781299591	
58	321.6318280696869	movie	1		246	56.0	2.5	/experiments/AOT/AOT_stimuli/rescaled_final/2067_fw.mp4	0.0	342.29808712005615	2.5083038806915283
58	323.22316789627075	pulse	1	t		56.0	2.5	/experiments/AOT/AOT_stimuli/rescaled_final/2067_fw.mp4	0.0	343.88942694664	
58	324.1401319503784	fix_post	2		12	56.0	2.5	/experiments/AOT/AOT_stimuli/rescaled_final/2067_fw.mp4	0.0	344.8063910007477	0.09960699081420898
59	324.2397389411926	fix_pre	0		120	57.0	2.5	/experiments/AOT/AOT_stimuli/rescaled_final/0621_rv.mp4	0.0	344.9059979915619	1.0000171661376953
59	324.8232510089874	pulse	0	t		57.0	2.5	/experiments/AOT/AOT_stimuli/rescaled_final/0621_rv.mp4	0.0	345.4895100593567	
59	325.2397561073303	movie	1		244	57.0	2.5	/experiments/AOT/AOT_stimuli/rescaled_final/0621_rv.mp4	0.0	345.9060151576996	2.5004048347473145
59	326.4238049983978	pulse	1	t		57.0	2.5	/experiments/AOT/AOT_stimuli/rescaled_final/0621_rv.mp4	0.0	347.0900640487671	
59	327.74016094207764	fix_post	2		12	57.0	2.5	/experiments/AOT/AOT_stimuli/rescaled_final/0621_rv.mp4	0.0	348.4064199924469	0.09996795654296875
60	327.8401288986206	fix_pre	0		120	58.0	2.5	/experiments/AOT/AOT_stimuli/rescaled_final/0384_rv.mp4	0.0	348.50638794898987	1.0000061988830566
60	328.0237350463867	pulse	0	t		58.0	2.5	/experiments/AOT/AOT_stimuli/rescaled_final/0384_rv.mp4	0.0	348.689994096756	
60	328.84013509750366	movie	1		244	58.0	2.5	/experiments/AOT/AOT_stimuli/rescaled_final/0384_rv.mp4	0.0	349.5063941478729	2.50002384185791
60	329.6236000061035	pulse	1	t		58.0	2.5	/experiments/AOT/AOT_stimuli/rescaled_final/0384_rv.mp4	0.0	350.2898590564728	
60	331.2220289707184	pulse	1	t		58.0	2.5	/experiments/AOT/AOT_stimuli/rescaled_final/0384_rv.mp4	0.0	351.88828802108765	
60	331.3401589393616	fix_post	2		12	58.0	2.5	/experiments/AOT/AOT_stimuli/rescaled_final/0384_rv.mp4	0.0	352.00641798973083	0.10001206398010254
61	331.4401710033417	fix_pre	0		120	59.0	2.5	/experiments/AOT/AOT_stimuli/rescaled_final/1581_rv.mp4	0.0	352.10643005371094	0.9999549388885498
61	332.4401259422302	movie	1		246	59.0	2.5	/experiments/AOT/AOT_stimuli/rescaled_final/1581_rv.mp4	0.0	353.1063849925995	2.5000150203704834
61	332.8247001171112	pulse	1	t		59.0	2.5	/experiments/AOT/AOT_stimuli/rescaled_final/1581_rv.mp4	0.0	353.49095916748047	
61	334.4237139225006	pulse	1	t		59.0	2.5	/experiments/AOT/AOT_stimuli/rescaled_final/1581_rv.mp4	0.0	355.0899729728699	
61	334.9401409626007	fix_post	2		12	59.0	2.5	/experiments/AOT/AOT_stimuli/rescaled_final/1581_rv.mp4	0.0	355.60640001296997	0.09991002082824707
62	335.04005098342896	fix_pre	0		119	60.0	2.5	/experiments/AOT/AOT_stimuli/rescaled_final/1673_rv.mp4	0.0	355.7063100337982	0.9916579723358154
62	336.0235900878906	pulse	0	t		60.0	2.5	/experiments/AOT/AOT_stimuli/rescaled_final/1673_rv.mp4	0.0	356.6898491382599	
62	336.03170895576477	movie	1		244	60.0	2.5	/experiments/AOT/AOT_stimuli/rescaled_final/1673_rv.mp4	0.0	356.69796800613403	2.5084030628204346
62	337.62369894981384	pulse	1	t		60.0	2.5	/experiments/AOT/AOT_stimuli/rescaled_final/1673_rv.mp4	0.0	358.2899580001831	
62	338.5401120185852	fix_post	2		12	60.0	2.5	/experiments/AOT/AOT_stimuli/rescaled_final/1673_rv.mp4	0.0	359.20637106895447	0.09998297691345215
63	338.64009499549866	fix_pre	0		120	61.0	2.5	/experiments/AOT/AOT_stimuli/rescaled_final/0749_rv.mp4	0.0	359.3063540458679	0.9999721050262451
63	339.22354197502136	pulse	0	t		61.0	2.5	/experiments/AOT/AOT_stimuli/rescaled_final/0749_rv.mp4	0.0	359.8898010253906	
63	339.6400671005249	movie	1		244	61.0	2.5	/experiments/AOT/AOT_stimuli/rescaled_final/0749_rv.mp4	0.0	360.30632615089417	2.5000269412994385
63	340.82364797592163	pulse	1	t		61.0	2.5	/experiments/AOT/AOT_stimuli/rescaled_final/0749_rv.mp4	0.0	361.4899070262909	
63	342.14009404182434	fix_post	2		12	61.0	2.5	/experiments/AOT/AOT_stimuli/rescaled_final/0749_rv.mp4	0.0	362.8063530921936	0.09998488426208496
64	342.2400789260864	fix_pre	0		120	62.0	2.5	blank	1.0	362.9063379764557	0.9999551773071289
64	342.4235939979553	pulse	0	t		62.0	2.5	blank	1.0	363.0898530483246	
64	343.24003410339355	movie	1		300	62.0	2.5	blank	1.0	363.9062931537628	2.5000410079956055
64	344.02361607551575	pulse	1	t		62.0	2.5	blank	1.0	364.689875125885	
64	345.623486995697	pulse	1	t		62.0	2.5	blank	1.0	366.2897460460663	
64	345.74007511138916	fix_post	2		12	62.0	2.5	blank	1.0	366.4063341617584	0.0996239185333252
65	345.8396990299225	fix_pre	0		120	63.0	2.5	/experiments/AOT/AOT_stimuli/rescaled_final/0343_rv.mp4	0.0	366.50595808029175	1.0003869533538818
65	346.84008598327637	movie	1		244	63.0	2.5	/experiments/AOT/AOT_stimuli/rescaled_final/0343_rv.mp4	0.0	367.50634503364563	2.4996020793914795
65	347.223268032074	pulse	1	t		63.0	2.5	/experiments/AOT/AOT_stimuli/rescaled_final/0343_rv.mp4	0.0	367.88952708244324	
65	348.82351303100586	pulse	1	t		63.0	2.5	/experiments/AOT/AOT_stimuli/rescaled_final/0343_rv.mp4	0.0	369.4897720813751	
65	349.33968806266785	fix_post	2		12	63.0	2.5	/experiments/AOT/AOT_stimuli/rescaled_final/0343_rv.mp4	0.0	370.0059471130371	0.10033988952636719
66	349.4400279521942	fix_pre	0		119	64.0	2.5	/experiments/AOT/AOT_stimuli/rescaled_final/0022_rv.mp4	0.0	370.1062870025635	0.9916670322418213
66	350.42359709739685	pulse	0	t		64.0	2.5	/experiments/AOT/AOT_stimuli/rescaled_final/0022_rv.mp4	0.0	371.0898561477661	
66	350.43169498443604	movie	1		246	64.0	2.5	/experiments/AOT/AOT_stimuli/rescaled_final/0022_rv.mp4	0.0	371.0979540348053	2.508327007293701
66	352.0237948894501	pulse	1	t		64.0	2.5	/experiments/AOT/AOT_stimuli/rescaled_final/0022_rv.mp4	0.0	372.69005393981934	
66	352.94002199172974	fix_post	2		12	64.0	2.5	/experiments/AOT/AOT_stimuli/rescaled_final/0022_rv.mp4	0.0	373.606281042099	0.10004806518554688
67	353.0400700569153	fix_pre	0		120	65.0	2.5	/experiments/AOT/AOT_stimuli/rescaled_final/0749_fw.mp4	0.0	373.70632910728455	0.999945878982544
67	353.623498916626	pulse	0	t		65.0	2.5	/experiments/AOT/AOT_stimuli/rescaled_final/0749_fw.mp4	0.0	374.28975796699524	
67	354.0400159358978	movie	1		245	65.0	2.5	/experiments/AOT/AOT_stimuli/rescaled_final/0749_fw.mp4	0.0	374.7062749862671	2.4999849796295166
67	355.22356390953064	pulse	1	t		65.0	2.5	/experiments/AOT/AOT_stimuli/rescaled_final/0749_fw.mp4	0.0	375.8898229598999	
67	356.54000091552734	fix_post	2		12	65.0	2.5	/experiments/AOT/AOT_stimuli/rescaled_final/0749_fw.mp4	0.0	377.2062599658966	0.09992098808288574
68	356.63992190361023	fix_pre	0		120	66.0	2.5	/experiments/AOT/AOT_stimuli/rescaled_final/1609_fw.mp4	0.0	377.3061809539795	1.000110149383545
68	356.8234760761261	pulse	0	t		66.0	2.5	/experiments/AOT/AOT_stimuli/rescaled_final/1609_fw.mp4	0.0	377.48973512649536	
68	357.6400320529938	movie	1		242	66.0	2.5	/experiments/AOT/AOT_stimuli/rescaled_final/1609_fw.mp4	0.0	378.30629110336304	2.4995689392089844
68	358.4234480857849	pulse	1	t		66.0	2.5	/experiments/AOT/AOT_stimuli/rescaled_final/1609_fw.mp4	0.0	379.0897071361542	
68	360.0218470096588	pulse	1	t		66.0	2.5	/experiments/AOT/AOT_stimuli/rescaled_final/1609_fw.mp4	0.0	380.6881060600281	
68	360.13960099220276	fix_post	2		12	66.0	2.5	/experiments/AOT/AOT_stimuli/rescaled_final/1609_fw.mp4	0.0	380.805860042572	0.10044598579406738
69	360.2400469779968	fix_pre	0		120	67.0	2.5	/experiments/AOT/AOT_stimuli/rescaled_final/0424_fw.mp4	0.0	380.9063060283661	1.0
69	361.2400469779968	movie	1		244	67.0	2.5	/experiments/AOT/AOT_stimuli/rescaled_final/0424_fw.mp4	0.0	381.9063060283661	2.4999499320983887
69	361.62484407424927	pulse	1	t		67.0	2.5	/experiments/AOT/AOT_stimuli/rescaled_final/0424_fw.mp4	0.0	382.29110312461853	
69	363.22341108322144	pulse	1	t		67.0	2.5	/experiments/AOT/AOT_stimuli/rescaled_final/0424_fw.mp4	0.0	383.8896701335907	
69	363.7399969100952	fix_post	2		12	67.0	2.5	/experiments/AOT/AOT_stimuli/rescaled_final/0424_fw.mp4	0.0	384.4062559604645	0.10002613067626953
70	363.8400230407715	fix_pre	0		119	68.0	2.5	/experiments/AOT/AOT_stimuli/rescaled_final/0167_rv.mp4	0.0	384.50628209114075	0.9916219711303711
70	364.8234848976135	pulse	0	t		68.0	2.5	/experiments/AOT/AOT_stimuli/rescaled_final/0167_rv.mp4	0.0	385.4897439479828	
70	364.83164501190186	movie	1		246	68.0	2.5	/experiments/AOT/AOT_stimuli/rescaled_final/0167_rv.mp4	0.0	385.4979040622711	2.508023977279663
70	366.4248399734497	pulse	1	t		68.0	2.5	/experiments/AOT/AOT_stimuli/rescaled_final/0167_rv.mp4	0.0	387.09109902381897	
70	367.3396689891815	fix_post	2		12	68.0	2.5	/experiments/AOT/AOT_stimuli/rescaled_final/0167_rv.mp4	0.0	388.0059280395508	0.10040092468261719
71	367.44006991386414	fix_pre	0		120	69.0	2.5	/experiments/AOT/AOT_stimuli/rescaled_final/1260_fw.mp4	0.0	388.1063289642334	0.9999179840087891
71	368.0234920978546	pulse	0	t		69.0	2.5	/experiments/AOT/AOT_stimuli/rescaled_final/1260_fw.mp4	0.0	388.6897511482239	
71	368.4399878978729	movie	1		246	69.0	2.5	/experiments/AOT/AOT_stimuli/rescaled_final/1260_fw.mp4	0.0	389.1062469482422	2.499918222427368
71	369.62352991104126	pulse	1	t		69.0	2.5	/experiments/AOT/AOT_stimuli/rescaled_final/1260_fw.mp4	0.0	390.2897889614105	
71	370.9399061203003	fix_post	2		12	69.0	2.5	/experiments/AOT/AOT_stimuli/rescaled_final/1260_fw.mp4	0.0	391.60616517066956	0.10006499290466309
72	371.03997111320496	fix_pre	0		120	70.0	2.5	blank	1.0	391.7062301635742	0.999884843826294
72	371.2235019207001	pulse	0	t		70.0	2.5	blank	1.0	391.88976097106934	
72	372.03985595703125	movie	1		300	70.0	2.5	blank	1.0	392.7061150074005	2.500153064727783
72	372.8234670162201	pulse	1	t		70.0	2.5	blank	1.0	393.48972606658936	
72	374.4234220981598	pulse	1	t		70.0	2.5	blank	1.0	395.08968114852905	
72	374.54000902175903	fix_post	2		12	70.0	2.5	blank	1.0	395.2062680721283	0.09994387626647949
73	374.6399528980255	fix_pre	0		120	71.0	2.5	/experiments/AOT/AOT_stimuli/rescaled_final/1738_rv.mp4	0.0	395.3062119483948	1.0000710487365723
73	375.6400239467621	movie	1		243	71.0	2.5	/experiments/AOT/AOT_stimuli/rescaled_final/1738_rv.mp4	0.0	396.30628299713135	2.499467134475708
73	376.02327489852905	pulse	1	t		71.0	2.5	/experiments/AOT/AOT_stimuli/rescaled_final/1738_rv.mp4	0.0	396.6895339488983	
73	377.6235239505768	pulse	1	t		71.0	2.5	/experiments/AOT/AOT_stimuli/rescaled_final/1738_rv.mp4	0.0	398.28978300094604	
73	378.1394910812378	fix_post	2		12	71.0	2.5	/experiments/AOT/AOT_stimuli/rescaled_final/1738_rv.mp4	0.0	398.80575013160706	0.10045289993286133
74	378.23994398117065	fix_pre	0		119	72.0	2.5	/experiments/AOT/AOT_stimuli/rescaled_final/2004_fw.mp4	0.0	398.9062030315399	0.9917969703674316
74	379.22351598739624	pulse	0	t		72.0	2.5	/experiments/AOT/AOT_stimuli/rescaled_final/2004_fw.mp4	0.0	399.8897750377655	
74	379.2317409515381	movie	1		246	72.0	2.5	/experiments/AOT/AOT_stimuli/rescaled_final/2004_fw.mp4	0.0	399.89800000190735	2.507920980453491
74	380.8226020336151	pulse	1	t		72.0	2.5	/experiments/AOT/AOT_stimuli/rescaled_final/2004_fw.mp4	0.0	401.4888610839844	
74	381.7396619319916	fix_post	2		12	72.0	2.5	/experiments/AOT/AOT_stimuli/rescaled_final/2004_fw.mp4	0.0	402.40592098236084	0.10043001174926758
75	381.84009194374084	fix_pre	0		120	73.0	2.5	/experiments/AOT/AOT_stimuli/rescaled_final/0416_fw.mp4	0.0	402.5063509941101	0.9997081756591797
75	382.4232409000397	pulse	0	t		73.0	2.5	/experiments/AOT/AOT_stimuli/rescaled_final/0416_fw.mp4	0.0	403.08949995040894	
75	382.8398001194	movie	1		244	73.0	2.5	/experiments/AOT/AOT_stimuli/rescaled_final/0416_fw.mp4	0.0	403.5060591697693	2.4996488094329834
75	384.0234799385071	pulse	1	t		73.0	2.5	/experiments/AOT/AOT_stimuli/rescaled_final/0416_fw.mp4	0.0	404.68973898887634	
75	385.339448928833	fix_post	2		12	73.0	2.5	/experiments/AOT/AOT_stimuli/rescaled_final/0416_fw.mp4	0.0	406.00570797920227	0.10052704811096191
76	385.43997597694397	fix_pre	0		120	74.0	2.5	/experiments/AOT/AOT_stimuli/rescaled_final/0384_fw.mp4	0.0	406.10623502731323	0.9999949932098389
76	385.62346506118774	pulse	0	t		74.0	2.5	/experiments/AOT/AOT_stimuli/rescaled_final/0384_fw.mp4	0.0	406.289724111557	
76	386.4399709701538	movie	1		245	74.0	2.5	/experiments/AOT/AOT_stimuli/rescaled_final/0384_fw.mp4	0.0	407.10623002052307	2.500020980834961
76	387.2234160900116	pulse	1	t		74.0	2.5	/experiments/AOT/AOT_stimuli/rescaled_final/0384_fw.mp4	0.0	407.88967514038086	
76	388.82172298431396	pulse	1	t		74.0	2.5	/experiments/AOT/AOT_stimuli/rescaled_final/0384_fw.mp4	0.0	409.4879820346832	
76	388.93999195098877	fix_post	2		12	74.0	2.5	/experiments/AOT/AOT_stimuli/rescaled_final/0384_fw.mp4	0.0	409.60625100135803	0.09983110427856445
77	389.03982305526733	fix_pre	0		120	75.0	2.5	/experiments/AOT/AOT_stimuli/rescaled_final/1775_rv.mp4	0.0	409.7060821056366	1.0001239776611328
77	390.03994703292847	movie	1		246	75.0	2.5	/experiments/AOT/AOT_stimuli/rescaled_final/1775_rv.mp4	0.0	410.70620608329773	2.499937057495117
77	390.4227828979492	pulse	1	t		75.0	2.5	/experiments/AOT/AOT_stimuli/rescaled_final/1775_rv.mp4	0.0	411.0890419483185	
77	392.02336406707764	pulse	1	t		75.0	2.5	/experiments/AOT/AOT_stimuli/rescaled_final/1775_rv.mp4	0.0	412.6896231174469	
77	392.5398840904236	fix_post	2		12	75.0	2.5	/experiments/AOT/AOT_stimuli/rescaled_final/1775_rv.mp4	0.0	413.20614314079285	0.10002493858337402
78	392.63990902900696	fix_pre	0		119	76.0	2.5	blank	1.0	413.3061680793762	0.9915568828582764
78	393.62333488464355	pulse	0	t		76.0	2.5	blank	1.0	414.2895939350128	
78	393.63146591186523	movie	1		301	76.0	2.5	blank	1.0	414.2977249622345	2.5084431171417236
78	395.2233190536499	pulse	1	t		76.0	2.5	blank	1.0	415.88957810401917	
78	396.13990902900696	fix_post	2		12	76.0	2.5	blank	1.0	416.8061680793762	0.09999299049377441
79	396.23990201950073	fix_pre	0		120	77.0	2.5	/experiments/AOT/AOT_stimuli/rescaled_final/1616_rv.mp4	0.0	416.90616106987	1.0001280307769775
79	396.8233480453491	pulse	0	t		77.0	2.5	/experiments/AOT/AOT_stimuli/rescaled_final/1616_rv.mp4	0.0	417.4896070957184	
79	397.2400300502777	movie	1		244	77.0	2.5	/experiments/AOT/AOT_stimuli/rescaled_final/1616_rv.mp4	0.0	417.906289100647	2.499469041824341
79	398.42341709136963	pulse	1	t		77.0	2.5	/experiments/AOT/AOT_stimuli/rescaled_final/1616_rv.mp4	0.0	419.0896761417389	
79	399.73949909210205	fix_post	2		12	77.0	2.5	/experiments/AOT/AOT_stimuli/rescaled_final/1616_rv.mp4	0.0	420.4057581424713	0.10028791427612305
80	399.8397870063782	fix_pre	0		120	78.0	2.5	/experiments/AOT/AOT_stimuli/rescaled_final/1408_rv.mp4	0.0	420.50604605674744	1.0000379085540771
80	400.0233030319214	pulse	0	t		78.0	2.5	/experiments/AOT/AOT_stimuli/rescaled_final/1408_rv.mp4	0.0	420.68956208229065	
80	400.83982491493225	movie	1		243	78.0	2.5	/experiments/AOT/AOT_stimuli/rescaled_final/1408_rv.mp4	0.0	421.5060839653015	2.4999501705169678
80	401.6233580112457	pulse	1	t		78.0	2.5	/experiments/AOT/AOT_stimuli/rescaled_final/1408_rv.mp4	0.0	422.289617061615	
80	403.22175002098083	pulse	1	t		78.0	2.5	/experiments/AOT/AOT_stimuli/rescaled_final/1408_rv.mp4	0.0	423.8880090713501	
80	403.3397750854492	fix_post	2		12	78.0	2.5	/experiments/AOT/AOT_stimuli/rescaled_final/1408_rv.mp4	0.0	424.0060341358185	0.1000208854675293
81	403.43979597091675	fix_pre	0		120	79.0	2.5	/experiments/AOT/AOT_stimuli/rescaled_final/2135_rv.mp4	0.0	424.106055021286	1.0000050067901611
81	404.4398009777069	movie	1		245	79.0	2.5	/experiments/AOT/AOT_stimuli/rescaled_final/2135_rv.mp4	0.0	425.1060600280762	2.4999959468841553
81	404.8228929042816	pulse	1	t		79.0	2.5	/experiments/AOT/AOT_stimuli/rescaled_final/2135_rv.mp4	0.0	425.4891519546509	
81	406.4233338832855	pulse	1	t		79.0	2.5	/experiments/AOT/AOT_stimuli/rescaled_final/2135_rv.mp4	0.0	427.0895929336548	
81	406.93979692459106	fix_post	2		12	79.0	2.5	/experiments/AOT/AOT_stimuli/rescaled_final/2135_rv.mp4	0.0	427.6060559749603	0.09998512268066406
82	407.03978204727173	fix_pre	0		119	80.0	2.5	/experiments/AOT/AOT_stimuli/rescaled_final/1561_fw.mp4	0.0	427.706041097641	0.9916620254516602
82	408.02329111099243	pulse	0	t		80.0	2.5	/experiments/AOT/AOT_stimuli/rescaled_final/1561_fw.mp4	0.0	428.6895501613617	
82	408.0314440727234	movie	1		248	80.0	2.5	/experiments/AOT/AOT_stimuli/rescaled_final/1561_fw.mp4	0.0	428.69770312309265	2.5085740089416504
82	409.6229820251465	pulse	1	t		80.0	2.5	/experiments/AOT/AOT_stimuli/rescaled_final/1561_fw.mp4	0.0	430.28924107551575	
82	410.54001808166504	fix_post	2		12	80.0	2.5	/experiments/AOT/AOT_stimuli/rescaled_final/1561_fw.mp4	0.0	431.2062771320343	0.09974098205566406
83	410.6397590637207	fix_pre	0		120	81.0	2.5	/experiments/AOT/AOT_stimuli/rescaled_final/0935_fw.mp4	0.0	431.30601811408997	1.0001540184020996
83	411.22315192222595	pulse	0	t		81.0	2.5	/experiments/AOT/AOT_stimuli/rescaled_final/0935_fw.mp4	0.0	431.8894109725952	
83	411.6399130821228	movie	1		244	81.0	2.5	/experiments/AOT/AOT_stimuli/rescaled_final/0935_fw.mp4	0.0	432.30617213249207	2.499955892562866
83	412.8234930038452	pulse	1	t		81.0	2.5	/experiments/AOT/AOT_stimuli/rescaled_final/0935_fw.mp4	0.0	433.4897520542145	
83	414.13986897468567	fix_post	2		12	81.0	2.5	/experiments/AOT/AOT_stimuli/rescaled_final/0935_fw.mp4	0.0	434.80612802505493	0.10001397132873535
84	414.2398829460144	fix_pre	0		120	82.0	2.5	/experiments/AOT/AOT_stimuli/rescaled_final/1455_fw.mp4	0.0	434.90614199638367	0.9998819828033447
84	414.42333698272705	pulse	0	t		82.0	2.5	/experiments/AOT/AOT_stimuli/rescaled_final/1455_fw.mp4	0.0	435.0895960330963	
84	415.23976492881775	movie	1		244	82.0	2.5	/experiments/AOT/AOT_stimuli/rescaled_final/1455_fw.mp4	0.0	435.906023979187	2.500035047531128
84	416.02330803871155	pulse	1	t		82.0	2.5	/experiments/AOT/AOT_stimuli/rescaled_final/1455_fw.mp4	0.0	436.6895670890808	
84	417.6218008995056	pulse	1	t		82.0	2.5	/experiments/AOT/AOT_stimuli/rescaled_final/1455_fw.mp4	0.0	438.2880599498749	
84	417.7397999763489	fix_post	2		12	82.0	2.5	/experiments/AOT/AOT_stimuli/rescaled_final/1455_fw.mp4	0.0	438.40605902671814	0.10003113746643066
85	417.8398311138153	fix_pre	0		120	83.0	2.5	blank	1.0	438.50609016418457	0.9999539852142334
85	418.83978509902954	movie	1		300	83.0	2.5	blank	1.0	439.5060441493988	2.5000269412994385
85	419.2233259677887	pulse	1	t		83.0	2.5	blank	1.0	439.88958501815796	
85	420.8232638835907	pulse	1	t		83.0	2.5	blank	1.0	441.48952293395996	
85	421.339812040329	fix_post	2		12	83.0	2.5	blank	1.0	442.00607109069824	0.10002493858337402
87	421.43983697891235	stim	0		1716					442.1060960292816	14.299493074417114
87	422.4233009815216	pulse	0	t						443.08956003189087	
87	424.02325892448425	pulse	0	t						444.6895179748535	
87	425.6232240200043	pulse	0	t						446.28948307037354	
87	427.22329807281494	pulse	0	t						447.8895571231842	
87	428.82322907447815	pulse	0	t						449.4894881248474	
87	430.4232249259949	pulse	0	t						451.08948397636414	
87	432.02325105667114	pulse	0	t						452.6895101070404	
87	433.6231689453125	pulse	0	t						454.28942799568176	
87	435.2232210636139	pulse	0	t						455.88948011398315	
