trial_nr	onset	event_type	phase	response	nr_frames	movie_index	movie_duration	movie_file	blank	onset_abs	duration
0	0.20819091796875	stim	0		49					25.37950587272644	0.4083101749420166
0	0.6082839965820312	response	0	space						25.77959895133972	
1	0.6165010929107666	stim	0		4956					25.787816047668457	41.316529989242554
1	41.92329001426697	pulse	0	t						67.09460496902466	
1	41.93303108215332	stim	1		1715					67.10434603691101	14.300091981887817
1	43.51480412483215	pulse	1	t						68.68611907958984	
1	45.114989042282104	pulse	1	t						70.2863039970398	
1	46.70773005485535	pulse	1	t						71.87904500961304	
1	48.307997941970825	pulse	1	t						73.47931289672852	
1	49.908164978027344	pulse	1	t						75.07947993278503	
1	51.50858402252197	pulse	1	t						76.67989897727966	
1	53.108612060546875	pulse	1	t						78.27992701530457	
1	54.70799994468689	pulse	1	t						79.87931489944458	
2	56.23312306404114	fix_pre	0		10	0.0	2.5	/experiments/knapen_AOT/AOT_stimuli/rescaled_final/1432_fw.mp4	0.0	81.40443801879883	0.09175395965576172
2	56.308305978775024	pulse	0	t		0.0	2.5	/experiments/knapen_AOT/AOT_stimuli/rescaled_final/1432_fw.mp4	0.0	81.47962093353271	
2	56.3248770236969	movie	1		242	0.0	2.5	/experiments/knapen_AOT/AOT_stimuli/rescaled_final/1432_fw.mp4	0.0	81.49619197845459	2.5002970695495605
2	57.90923595428467	pulse	1	t		0.0	2.5	/experiments/knapen_AOT/AOT_stimuli/rescaled_final/1432_fw.mp4	0.0	83.08055090904236	
2	58.82517409324646	fix_post	2		12	0.0	2.5	/experiments/knapen_AOT/AOT_stimuli/rescaled_final/1432_fw.mp4	0.0	83.99648904800415	0.10001802444458008
3	58.92519211769104	fix_pre	0		120	1.0	2.5	/experiments/knapen_AOT/AOT_stimuli/rescaled_final/1402_rv.mp4	0.0	84.09650707244873	1.0001368522644043
3	59.50892400741577	pulse	0	t		1.0	2.5	/experiments/knapen_AOT/AOT_stimuli/rescaled_final/1402_rv.mp4	0.0	84.68023896217346	
3	59.925328969955444	movie	1		243	1.0	2.5	/experiments/knapen_AOT/AOT_stimuli/rescaled_final/1402_rv.mp4	0.0	85.09664392471313	2.500375986099243
3	61.10916090011597	pulse	1	t		1.0	2.5	/experiments/knapen_AOT/AOT_stimuli/rescaled_final/1402_rv.mp4	0.0	86.28047585487366	
3	62.42570495605469	fix_post	2		12	1.0	2.5	/experiments/knapen_AOT/AOT_stimuli/rescaled_final/1402_rv.mp4	0.0	87.59701991081238	0.10001993179321289
4	62.5257248878479	fix_pre	0		120	2.0	2.5	/experiments/knapen_AOT/AOT_stimuli/rescaled_final/2149_rv.mp4	0.0	87.69703984260559	1.0001530647277832
4	62.70926094055176	pulse	0	t		2.0	2.5	/experiments/knapen_AOT/AOT_stimuli/rescaled_final/2149_rv.mp4	0.0	87.88057589530945	
4	63.525877952575684	movie	1		243	2.0	2.5	/experiments/knapen_AOT/AOT_stimuli/rescaled_final/2149_rv.mp4	0.0	88.69719290733337	2.5003931522369385
4	64.30945897102356	pulse	1	t		2.0	2.5	/experiments/knapen_AOT/AOT_stimuli/rescaled_final/2149_rv.mp4	0.0	89.48077392578125	
4	65.90960311889648	pulse	1	t		2.0	2.5	/experiments/knapen_AOT/AOT_stimuli/rescaled_final/2149_rv.mp4	0.0	91.08091807365417	
4	66.02627110481262	fix_post	2		12	2.0	2.5	/experiments/knapen_AOT/AOT_stimuli/rescaled_final/2149_rv.mp4	0.0	91.19758605957031	0.10000181198120117
5	66.12627291679382	fix_pre	0		120	3.0	2.5	/experiments/knapen_AOT/AOT_stimuli/rescaled_final/0372_rv.mp4	0.0	91.29758787155151	1.0001521110534668
5	67.12642502784729	movie	1		244	3.0	2.5	/experiments/knapen_AOT/AOT_stimuli/rescaled_final/0372_rv.mp4	0.0	92.29773998260498	2.491995096206665
5	67.51065111160278	pulse	1	t		3.0	2.5	/experiments/knapen_AOT/AOT_stimuli/rescaled_final/0372_rv.mp4	0.0	92.68196606636047	
5	69.11023998260498	pulse	1	t		3.0	2.5	/experiments/knapen_AOT/AOT_stimuli/rescaled_final/0372_rv.mp4	0.0	94.28155493736267	
5	69.61842012405396	fix_post	2		12	3.0	2.5	/experiments/knapen_AOT/AOT_stimuli/rescaled_final/0372_rv.mp4	0.0	94.78973507881165	0.1000368595123291
6	69.71845698356628	fix_pre	0		120	4.0	2.5	/experiments/knapen_AOT/AOT_stimuli/rescaled_final/0372_fw.mp4	0.0	94.88977193832397	1.0001590251922607
6	70.71057605743408	pulse	0	t		4.0	2.5	/experiments/knapen_AOT/AOT_stimuli/rescaled_final/0372_fw.mp4	0.0	95.88189101219177	
6	70.71861600875854	movie	1		245	4.0	2.5	/experiments/knapen_AOT/AOT_stimuli/rescaled_final/0372_fw.mp4	0.0	95.88993096351624	2.5087130069732666
6	72.31191802024841	pulse	1	t		4.0	2.5	/experiments/knapen_AOT/AOT_stimuli/rescaled_final/0372_fw.mp4	0.0	97.4832329750061	
6	73.22732901573181	fix_post	2		12	4.0	2.5	/experiments/knapen_AOT/AOT_stimuli/rescaled_final/0372_fw.mp4	0.0	98.3986439704895	0.10005903244018555
7	73.327388048172	fix_pre	0		120	5.0	2.5	blank	1.0	98.49870300292969	1.0001170635223389
7	73.91102409362793	pulse	0	t		5.0	2.5	blank	1.0	99.08233904838562	
7	74.32750511169434	movie	1		300	5.0	2.5	blank	1.0	99.49882006645203	2.500427007675171
7	75.51125597953796	pulse	1	t		5.0	2.5	blank	1.0	100.68257093429565	
7	76.8279321193695	fix_post	2		12	5.0	2.5	blank	1.0	101.9992470741272	0.10000181198120117
8	76.92793393135071	fix_pre	0		120	6.0	2.5	/experiments/knapen_AOT/AOT_stimuli/rescaled_final/1282_rv.mp4	0.0	102.0992488861084	1.0000901222229004
8	77.11139297485352	pulse	0	t		6.0	2.5	/experiments/knapen_AOT/AOT_stimuli/rescaled_final/1282_rv.mp4	0.0	102.2827079296112	
8	77.92802405357361	movie	1		245	6.0	2.5	/experiments/knapen_AOT/AOT_stimuli/rescaled_final/1282_rv.mp4	0.0	103.0993390083313	2.5003929138183594
8	78.71175789833069	pulse	1	t		6.0	2.5	/experiments/knapen_AOT/AOT_stimuli/rescaled_final/1282_rv.mp4	0.0	103.88307285308838	
8	80.3119809627533	pulse	1	t		6.0	2.5	/experiments/knapen_AOT/AOT_stimuli/rescaled_final/1282_rv.mp4	0.0	105.48329591751099	
8	80.42841696739197	fix_post	2		9	6.0	2.5	/experiments/knapen_AOT/AOT_stimuli/rescaled_final/1282_rv.mp4	0.0	105.59973192214966	0.09998297691345215
9	80.52839994430542	fix_pre	0		120	7.0	2.5	/experiments/knapen_AOT/AOT_stimuli/rescaled_final/0199_rv.mp4	0.0	105.69971489906311	1.000162124633789
9	81.52856206893921	movie	1		244	7.0	2.5	/experiments/knapen_AOT/AOT_stimuli/rescaled_final/0199_rv.mp4	0.0	106.6998770236969	2.492069959640503
9	81.91272211074829	pulse	1	t		7.0	2.5	/experiments/knapen_AOT/AOT_stimuli/rescaled_final/0199_rv.mp4	0.0	107.08403706550598	
9	83.51234889030457	pulse	1	t		7.0	2.5	/experiments/knapen_AOT/AOT_stimuli/rescaled_final/0199_rv.mp4	0.0	108.68366384506226	
9	84.02063202857971	fix_post	2		12	7.0	2.5	/experiments/knapen_AOT/AOT_stimuli/rescaled_final/0199_rv.mp4	0.0	109.1919469833374	0.09998393058776855
10	84.12061595916748	fix_pre	0		120	8.0	2.5	/experiments/knapen_AOT/AOT_stimuli/rescaled_final/0087_rv.mp4	0.0	109.29193091392517	1.000180959701538
10	85.11269092559814	pulse	0	t		8.0	2.5	/experiments/knapen_AOT/AOT_stimuli/rescaled_final/0087_rv.mp4	0.0	110.28400588035583	
10	85.12079691886902	movie	1		245	8.0	2.5	/experiments/knapen_AOT/AOT_stimuli/rescaled_final/0087_rv.mp4	0.0	110.29211187362671	2.508671998977661
10	86.71412396430969	pulse	1	t		8.0	2.5	/experiments/knapen_AOT/AOT_stimuli/rescaled_final/0087_rv.mp4	0.0	111.88543891906738	
10	87.62946891784668	fix_post	2		12	8.0	2.5	/experiments/knapen_AOT/AOT_stimuli/rescaled_final/0087_rv.mp4	0.0	112.80078387260437	0.1000070571899414
11	87.72947597503662	fix_pre	0		120	9.0	2.5	/experiments/knapen_AOT/AOT_stimuli/rescaled_final/1365_fw.mp4	0.0	112.90079092979431	1.0002131462097168
11	88.31322002410889	pulse	0	t		9.0	2.5	/experiments/knapen_AOT/AOT_stimuli/rescaled_final/1365_fw.mp4	0.0	113.48453497886658	
11	88.72968912124634	movie	1		245	9.0	2.5	/experiments/knapen_AOT/AOT_stimuli/rescaled_final/1365_fw.mp4	0.0	113.90100407600403	2.500332832336426
11	89.91337704658508	pulse	1	t		9.0	2.5	/experiments/knapen_AOT/AOT_stimuli/rescaled_final/1365_fw.mp4	0.0	115.08469200134277	
11	91.23002195358276	fix_post	2		12	9.0	2.5	/experiments/knapen_AOT/AOT_stimuli/rescaled_final/1365_fw.mp4	0.0	116.40133690834045	0.1000361442565918
12	91.33005809783936	fix_pre	0		120	10.0	2.5	/experiments/knapen_AOT/AOT_stimuli/rescaled_final/1504_rv.mp4	0.0	116.50137305259705	1.0001490116119385
12	91.51358890533447	pulse	0	t		10.0	2.5	/experiments/knapen_AOT/AOT_stimuli/rescaled_final/1504_rv.mp4	0.0	116.68490386009216	
12	92.3302071094513	movie	1		246	10.0	2.5	/experiments/knapen_AOT/AOT_stimuli/rescaled_final/1504_rv.mp4	0.0	117.50152206420898	2.5003809928894043
12	93.1139669418335	pulse	1	t		10.0	2.5	/experiments/knapen_AOT/AOT_stimuli/rescaled_final/1504_rv.mp4	0.0	118.28528189659119	
12	94.71415209770203	pulse	1	t		10.0	2.5	/experiments/knapen_AOT/AOT_stimuli/rescaled_final/1504_rv.mp4	0.0	119.88546705245972	
12	94.8305881023407	fix_post	2		12	10.0	2.5	/experiments/knapen_AOT/AOT_stimuli/rescaled_final/1504_rv.mp4	0.0	120.00190305709839	0.09997391700744629
13	94.93056201934814	fix_pre	0		120	11.0	2.5	/experiments/knapen_AOT/AOT_stimuli/rescaled_final/2171_fw.mp4	0.0	120.10187697410583	1.000143051147461
13	95.9307050704956	movie	1		242	11.0	2.5	/experiments/knapen_AOT/AOT_stimuli/rescaled_final/2171_fw.mp4	0.0	121.1020200252533	2.492017984390259
13	96.31484603881836	pulse	1	t		11.0	2.5	/experiments/knapen_AOT/AOT_stimuli/rescaled_final/2171_fw.mp4	0.0	121.48616099357605	
13	97.91451811790466	pulse	1	t		11.0	2.5	/experiments/knapen_AOT/AOT_stimuli/rescaled_final/2171_fw.mp4	0.0	123.08583307266235	
13	98.42272305488586	fix_post	2		12	11.0	2.5	/experiments/knapen_AOT/AOT_stimuli/rescaled_final/2171_fw.mp4	0.0	123.59403800964355	0.10010504722595215
14	98.52282810211182	fix_pre	0		120	12.0	2.5	blank	1.0	123.6941430568695	1.000119924545288
14	99.51483702659607	pulse	0	t		12.0	2.5	blank	1.0	124.68615198135376	
14	99.5229480266571	movie	1		301	12.0	2.5	blank	1.0	124.6942629814148	2.5086770057678223
14	101.11509394645691	pulse	1	t		12.0	2.5	blank	1.0	126.2864089012146	
14	102.03162503242493	fix_post	2		12	12.0	2.5	blank	1.0	127.20293998718262	0.09995603561401367
15	102.13158106803894	fix_pre	0		120	13.0	2.5	/experiments/knapen_AOT/AOT_stimuli/rescaled_final/0514_rv.mp4	0.0	127.30289602279663	1.000216007232666
15	102.71537494659424	pulse	0	t		13.0	2.5	/experiments/knapen_AOT/AOT_stimuli/rescaled_final/0514_rv.mp4	0.0	127.88668990135193	
15	103.1317970752716	movie	1		244	13.0	2.5	/experiments/knapen_AOT/AOT_stimuli/rescaled_final/0514_rv.mp4	0.0	128.3031120300293	2.5003719329833984
15	104.31558609008789	pulse	1	t		13.0	2.5	/experiments/knapen_AOT/AOT_stimuli/rescaled_final/0514_rv.mp4	0.0	129.48690104484558	
15	105.632169008255	fix_post	2		12	13.0	2.5	/experiments/knapen_AOT/AOT_stimuli/rescaled_final/0514_rv.mp4	0.0	130.8034839630127	0.10002994537353516
16	105.73219895362854	fix_pre	0		120	14.0	2.5	/experiments/knapen_AOT/AOT_stimuli/rescaled_final/0032_fw.mp4	0.0	130.90351390838623	1.0001370906829834
16	105.9157280921936	pulse	0	t		14.0	2.5	/experiments/knapen_AOT/AOT_stimuli/rescaled_final/0032_fw.mp4	0.0	131.0870430469513	
16	106.73233604431152	movie	1		244	14.0	2.5	/experiments/knapen_AOT/AOT_stimuli/rescaled_final/0032_fw.mp4	0.0	131.9036509990692	2.5003159046173096
16	107.50858092308044	pulse	1	t		14.0	2.5	/experiments/knapen_AOT/AOT_stimuli/rescaled_final/0032_fw.mp4	0.0	132.67989587783813	
16	109.1163420677185	pulse	1	t		14.0	2.5	/experiments/knapen_AOT/AOT_stimuli/rescaled_final/0032_fw.mp4	0.0	134.2876570224762	
16	109.23265194892883	fix_post	2		12	14.0	2.5	/experiments/knapen_AOT/AOT_stimuli/rescaled_final/0032_fw.mp4	0.0	134.40396690368652	0.10004615783691406
17	109.33269810676575	fix_pre	0		120	15.0	2.5	/experiments/knapen_AOT/AOT_stimuli/rescaled_final/2001_rv.mp4	0.0	134.50401306152344	1.000166893005371
17	110.33286499977112	movie	1		242	15.0	2.5	/experiments/knapen_AOT/AOT_stimuli/rescaled_final/2001_rv.mp4	0.0	135.5041799545288	2.4920060634613037
17	110.70823907852173	pulse	1	t		15.0	2.5	/experiments/knapen_AOT/AOT_stimuli/rescaled_final/2001_rv.mp4	0.0	135.87955403327942	
17	112.30837106704712	pulse	1	t		15.0	2.5	/experiments/knapen_AOT/AOT_stimuli/rescaled_final/2001_rv.mp4	0.0	137.4796860218048	
17	112.82487106323242	fix_post	2		12	15.0	2.5	/experiments/knapen_AOT/AOT_stimuli/rescaled_final/2001_rv.mp4	0.0	137.9961860179901	0.10010004043579102
18	112.92497110366821	fix_pre	0		119	16.0	2.5	/experiments/knapen_AOT/AOT_stimuli/rescaled_final/0605_fw.mp4	0.0	138.0962860584259	0.9917519092559814
18	113.90859508514404	pulse	0	t		16.0	2.5	/experiments/knapen_AOT/AOT_stimuli/rescaled_final/0605_fw.mp4	0.0	139.07991003990173	
18	113.9167230129242	movie	1		244	16.0	2.5	/experiments/knapen_AOT/AOT_stimuli/rescaled_final/0605_fw.mp4	0.0	139.08803796768188	2.508676052093506
18	115.51273894309998	pulse	1	t		16.0	2.5	/experiments/knapen_AOT/AOT_stimuli/rescaled_final/0605_fw.mp4	0.0	140.68405389785767	
18	116.4253990650177	fix_post	2		12	16.0	2.5	/experiments/knapen_AOT/AOT_stimuli/rescaled_final/0605_fw.mp4	0.0	141.5967140197754	0.10009503364562988
19	116.52549409866333	fix_pre	0		120	17.0	2.5	/experiments/knapen_AOT/AOT_stimuli/rescaled_final/0690_rv.mp4	0.0	141.69680905342102	1.0001099109649658
19	117.10905909538269	pulse	0	t		17.0	2.5	/experiments/knapen_AOT/AOT_stimuli/rescaled_final/0690_rv.mp4	0.0	142.28037405014038	
19	117.5256040096283	movie	1		244	17.0	2.5	/experiments/knapen_AOT/AOT_stimuli/rescaled_final/0690_rv.mp4	0.0	142.696918964386	2.500312089920044
19	118.70946788787842	pulse	1	t		17.0	2.5	/experiments/knapen_AOT/AOT_stimuli/rescaled_final/0690_rv.mp4	0.0	143.8807828426361	
19	120.02591609954834	fix_post	2		12	17.0	2.5	/experiments/knapen_AOT/AOT_stimuli/rescaled_final/0690_rv.mp4	0.0	145.19723105430603	0.10006880760192871
20	120.12598490715027	fix_pre	0		120	18.0	2.5	/experiments/knapen_AOT/AOT_stimuli/rescaled_final/0087_rv.mp4	0.0	145.29729986190796	1.000143051147461
20	120.30953407287598	pulse	0	t		18.0	2.5	/experiments/knapen_AOT/AOT_stimuli/rescaled_final/0087_rv.mp4	0.0	145.48084902763367	
20	121.12612795829773	movie	1		244	18.0	2.5	/experiments/knapen_AOT/AOT_stimuli/rescaled_final/0087_rv.mp4	0.0	146.29744291305542	2.5003910064697266
20	121.90985989570618	pulse	1	t		18.0	2.5	/experiments/knapen_AOT/AOT_stimuli/rescaled_final/0087_rv.mp4	0.0	147.08117485046387	
20	123.50998210906982	pulse	1	t		18.0	2.5	/experiments/knapen_AOT/AOT_stimuli/rescaled_final/0087_rv.mp4	0.0	148.68129706382751	
20	123.62651896476746	fix_post	2		12	18.0	2.5	/experiments/knapen_AOT/AOT_stimuli/rescaled_final/0087_rv.mp4	0.0	148.79783391952515	0.1000070571899414
21	123.7265260219574	fix_pre	0		120	19.0	2.5	/experiments/knapen_AOT/AOT_stimuli/rescaled_final/1704_rv.mp4	0.0	148.8978409767151	1.0001399517059326
21	124.72666597366333	movie	1		242	19.0	2.5	/experiments/knapen_AOT/AOT_stimuli/rescaled_final/1704_rv.mp4	0.0	149.89798092842102	2.492043972015381
21	125.11146998405457	pulse	1	t		19.0	2.5	/experiments/knapen_AOT/AOT_stimuli/rescaled_final/1704_rv.mp4	0.0	150.28278493881226	
21	126.7105770111084	pulse	1	t		19.0	2.5	/experiments/knapen_AOT/AOT_stimuli/rescaled_final/1704_rv.mp4	0.0	151.8818919658661	
21	127.21870994567871	fix_post	2		12	19.0	2.5	/experiments/knapen_AOT/AOT_stimuli/rescaled_final/1704_rv.mp4	0.0	152.3900249004364	0.10004997253417969
22	127.31875991821289	fix_pre	0		120	20.0	2.5	blank	1.0	152.49007487297058	1.000128984451294
22	128.3108069896698	pulse	0	t		20.0	2.5	blank	1.0	153.4821219444275	
22	128.31888890266418	movie	1		301	20.0	2.5	blank	1.0	153.49020385742188	2.508721113204956
22	129.9110291004181	pulse	1	t		20.0	2.5	blank	1.0	155.08234405517578	
22	130.82761001586914	fix_post	2		12	20.0	2.5	blank	1.0	155.99892497062683	0.0999751091003418
23	130.92758512496948	fix_pre	0		120	21.0	2.5	/experiments/knapen_AOT/AOT_stimuli/rescaled_final/1573_fw.mp4	0.0	156.09890007972717	1.0001609325408936
23	131.51134705543518	pulse	0	t		21.0	2.5	/experiments/knapen_AOT/AOT_stimuli/rescaled_final/1573_fw.mp4	0.0	156.68266201019287	
23	131.92774605751038	movie	1		244	21.0	2.5	/experiments/knapen_AOT/AOT_stimuli/rescaled_final/1573_fw.mp4	0.0	157.09906101226807	2.5003459453582764
23	133.11164808273315	pulse	1	t		21.0	2.5	/experiments/knapen_AOT/AOT_stimuli/rescaled_final/1573_fw.mp4	0.0	158.28296303749084	
23	134.42809200286865	fix_post	2		12	21.0	2.5	/experiments/knapen_AOT/AOT_stimuli/rescaled_final/1573_fw.mp4	0.0	159.59940695762634	0.10002398490905762
24	134.5281159877777	fix_pre	0		120	22.0	2.5	/experiments/knapen_AOT/AOT_stimuli/rescaled_final/0665_rv.mp4	0.0	159.6994309425354	1.0001640319824219
24	134.71172499656677	pulse	0	t		22.0	2.5	/experiments/knapen_AOT/AOT_stimuli/rescaled_final/0665_rv.mp4	0.0	159.88303995132446	
24	135.52828001976013	movie	1		243	22.0	2.5	/experiments/knapen_AOT/AOT_stimuli/rescaled_final/0665_rv.mp4	0.0	160.69959497451782	2.5003609657287598
24	136.31195998191833	pulse	1	t		22.0	2.5	/experiments/knapen_AOT/AOT_stimuli/rescaled_final/0665_rv.mp4	0.0	161.48327493667603	
24	137.91208696365356	pulse	1	t		22.0	2.5	/experiments/knapen_AOT/AOT_stimuli/rescaled_final/0665_rv.mp4	0.0	163.08340191841125	
24	138.0286409854889	fix_post	2		12	22.0	2.5	/experiments/knapen_AOT/AOT_stimuli/rescaled_final/0665_rv.mp4	0.0	163.19995594024658	0.1000509262084961
25	138.1286919116974	fix_pre	0		120	23.0	2.5	/experiments/knapen_AOT/AOT_stimuli/rescaled_final/0372_rv.mp4	0.0	163.30000686645508	1.0001590251922607
25	139.12885093688965	movie	1		240	23.0	2.5	/experiments/knapen_AOT/AOT_stimuli/rescaled_final/0372_rv.mp4	0.0	164.30016589164734	2.491997003555298
25	139.5130341053009	pulse	1	t		23.0	2.5	/experiments/knapen_AOT/AOT_stimuli/rescaled_final/0372_rv.mp4	0.0	164.6843490600586	
25	141.1128408908844	pulse	1	t		23.0	2.5	/experiments/knapen_AOT/AOT_stimuli/rescaled_final/0372_rv.mp4	0.0	166.2841558456421	
25	141.62084794044495	fix_post	2		12	23.0	2.5	/experiments/knapen_AOT/AOT_stimuli/rescaled_final/0372_rv.mp4	0.0	166.79216289520264	0.10001301765441895
26	141.72086095809937	fix_pre	0		120	24.0	2.5	/experiments/knapen_AOT/AOT_stimuli/rescaled_final/1780_rv.mp4	0.0	166.89217591285706	1.0001850128173828
26	142.7128701210022	pulse	0	t		24.0	2.5	/experiments/knapen_AOT/AOT_stimuli/rescaled_final/1780_rv.mp4	0.0	167.8841850757599	
26	142.72104597091675	movie	1		246	24.0	2.5	/experiments/knapen_AOT/AOT_stimuli/rescaled_final/1780_rv.mp4	0.0	167.89236092567444	2.5086801052093506
26	144.31396794319153	pulse	1	t		24.0	2.5	/experiments/knapen_AOT/AOT_stimuli/rescaled_final/1780_rv.mp4	0.0	169.48528289794922	
26	145.2297260761261	fix_post	2		12	24.0	2.5	/experiments/knapen_AOT/AOT_stimuli/rescaled_final/1780_rv.mp4	0.0	170.4010410308838	0.10002398490905762
27	145.32975006103516	fix_pre	0		120	25.0	2.5	/experiments/knapen_AOT/AOT_stimuli/rescaled_final/0707_rv.mp4	0.0	170.50106501579285	1.0001368522644043
27	145.9133050441742	pulse	0	t		25.0	2.5	/experiments/knapen_AOT/AOT_stimuli/rescaled_final/0707_rv.mp4	0.0	171.08461999893188	
27	146.32988691329956	movie	1		244	25.0	2.5	/experiments/knapen_AOT/AOT_stimuli/rescaled_final/0707_rv.mp4	0.0	171.50120186805725	2.5003662109375
27	147.51366209983826	pulse	1	t		25.0	2.5	/experiments/knapen_AOT/AOT_stimuli/rescaled_final/0707_rv.mp4	0.0	172.68497705459595	
27	148.83025312423706	fix_post	2		12	25.0	2.5	/experiments/knapen_AOT/AOT_stimuli/rescaled_final/0707_rv.mp4	0.0	174.00156807899475	0.10001897811889648
28	148.93027210235596	fix_pre	0		120	26.0	2.5	blank	1.0	174.10158705711365	1.0001490116119385
28	149.11402797698975	pulse	0	t		26.0	2.5	blank	1.0	174.28534293174744	
28	149.9304211139679	movie	1		300	26.0	2.5	blank	1.0	175.1017360687256	2.5004348754882812
28	150.71405911445618	pulse	1	t		26.0	2.5	blank	1.0	175.88537406921387	
28	152.31423592567444	pulse	1	t		26.0	2.5	blank	1.0	177.48555088043213	
28	152.43085598945618	fix_post	2		12	26.0	2.5	blank	1.0	177.60217094421387	0.09998798370361328
29	152.5308439731598	fix_pre	0		120	27.0	2.5	/experiments/knapen_AOT/AOT_stimuli/rescaled_final/0965_rv.mp4	0.0	177.70215892791748	1.0001211166381836
29	153.53096508979797	movie	1		243	27.0	2.5	/experiments/knapen_AOT/AOT_stimuli/rescaled_final/0965_rv.mp4	0.0	178.70228004455566	2.492079019546509
29	153.91976809501648	pulse	1	t		27.0	2.5	/experiments/knapen_AOT/AOT_stimuli/rescaled_final/0965_rv.mp4	0.0	179.09108304977417	
29	155.51482105255127	pulse	1	t		27.0	2.5	/experiments/knapen_AOT/AOT_stimuli/rescaled_final/0965_rv.mp4	0.0	180.68613600730896	
29	156.02304410934448	fix_post	2		12	27.0	2.5	/experiments/knapen_AOT/AOT_stimuli/rescaled_final/0965_rv.mp4	0.0	181.19435906410217	0.09998679161071777
30	156.1230309009552	fix_pre	0		120	28.0	2.5	/experiments/knapen_AOT/AOT_stimuli/rescaled_final/0044_fw.mp4	0.0	181.2943458557129	1.0001652240753174
30	157.1150450706482	pulse	0	t		28.0	2.5	/experiments/knapen_AOT/AOT_stimuli/rescaled_final/0044_fw.mp4	0.0	182.28636002540588	
30	157.12319612503052	movie	1		244	28.0	2.5	/experiments/knapen_AOT/AOT_stimuli/rescaled_final/0044_fw.mp4	0.0	182.2945110797882	2.508664846420288
30	158.71652603149414	pulse	1	t		28.0	2.5	/experiments/knapen_AOT/AOT_stimuli/rescaled_final/0044_fw.mp4	0.0	183.88784098625183	
30	159.6318609714508	fix_post	2		12	28.0	2.5	/experiments/knapen_AOT/AOT_stimuli/rescaled_final/0044_fw.mp4	0.0	184.8031759262085	0.10003900527954102
31	159.73189997673035	fix_pre	0		120	29.0	2.5	/experiments/knapen_AOT/AOT_stimuli/rescaled_final/2036_fw.mp4	0.0	184.90321493148804	1.0001499652862549
31	160.3154981136322	pulse	0	t		29.0	2.5	/experiments/knapen_AOT/AOT_stimuli/rescaled_final/2036_fw.mp4	0.0	185.4868130683899	
31	160.7320499420166	movie	1		246	29.0	2.5	/experiments/knapen_AOT/AOT_stimuli/rescaled_final/2036_fw.mp4	0.0	185.9033648967743	2.50034499168396
31	161.91584396362305	pulse	1	t		29.0	2.5	/experiments/knapen_AOT/AOT_stimuli/rescaled_final/2036_fw.mp4	0.0	187.08715891838074	
31	163.23239493370056	fix_post	2		12	29.0	2.5	/experiments/knapen_AOT/AOT_stimuli/rescaled_final/2036_fw.mp4	0.0	188.40370988845825	0.10008096694946289
32	163.33247590065002	fix_pre	0		120	30.0	2.5	/experiments/knapen_AOT/AOT_stimuli/rescaled_final/1780_rv.mp4	0.0	188.50379085540771	1.000129222869873
32	163.50860691070557	pulse	0	t		30.0	2.5	/experiments/knapen_AOT/AOT_stimuli/rescaled_final/1780_rv.mp4	0.0	188.67992186546326	
32	164.3326051235199	movie	1		245	30.0	2.5	/experiments/knapen_AOT/AOT_stimuli/rescaled_final/1780_rv.mp4	0.0	189.5039200782776	2.5003559589385986
32	165.10886406898499	pulse	1	t		30.0	2.5	/experiments/knapen_AOT/AOT_stimuli/rescaled_final/1780_rv.mp4	0.0	190.28017902374268	
32	166.7137269973755	pulse	1	t		30.0	2.5	/experiments/knapen_AOT/AOT_stimuli/rescaled_final/1780_rv.mp4	0.0	191.88504195213318	
32	166.8329610824585	fix_post	2		12	30.0	2.5	/experiments/knapen_AOT/AOT_stimuli/rescaled_final/1780_rv.mp4	0.0	192.0042760372162	0.10004186630249023
33	166.933002948761	fix_pre	0		120	31.0	2.5	/experiments/knapen_AOT/AOT_stimuli/rescaled_final/0887_fw.mp4	0.0	192.10431790351868	1.0001130104064941
33	167.93311595916748	movie	1		242	31.0	2.5	/experiments/knapen_AOT/AOT_stimuli/rescaled_final/0887_fw.mp4	0.0	193.10443091392517	2.492004156112671
33	168.3083529472351	pulse	1	t		31.0	2.5	/experiments/knapen_AOT/AOT_stimuli/rescaled_final/0887_fw.mp4	0.0	193.4796679019928	
33	169.90862011909485	pulse	1	t		31.0	2.5	/experiments/knapen_AOT/AOT_stimuli/rescaled_final/0887_fw.mp4	0.0	195.07993507385254	
33	170.42512011528015	fix_post	2		12	31.0	2.5	/experiments/knapen_AOT/AOT_stimuli/rescaled_final/0887_fw.mp4	0.0	195.59643507003784	0.1000368595123291
34	170.52515697479248	fix_pre	0		119	32.0	2.5	/experiments/knapen_AOT/AOT_stimuli/rescaled_final/1594_rv.mp4	0.0	195.69647192955017	0.9918301105499268
34	171.5089180469513	pulse	0	t		32.0	2.5	/experiments/knapen_AOT/AOT_stimuli/rescaled_final/1594_rv.mp4	0.0	196.68023300170898	
34	171.5169870853424	movie	1		246	32.0	2.5	/experiments/knapen_AOT/AOT_stimuli/rescaled_final/1594_rv.mp4	0.0	196.6883020401001	2.5087180137634277
34	173.1097240447998	pulse	1	t		32.0	2.5	/experiments/knapen_AOT/AOT_stimuli/rescaled_final/1594_rv.mp4	0.0	198.2810389995575	
34	174.02570509910583	fix_post	2		12	32.0	2.5	/experiments/knapen_AOT/AOT_stimuli/rescaled_final/1594_rv.mp4	0.0	199.19702005386353	0.10000181198120117
35	174.12570691108704	fix_pre	0		120	33.0	2.5	/experiments/knapen_AOT/AOT_stimuli/rescaled_final/1306_rv.mp4	0.0	199.29702186584473	1.0001630783081055
35	174.70929098129272	pulse	0	t		33.0	2.5	/experiments/knapen_AOT/AOT_stimuli/rescaled_final/1306_rv.mp4	0.0	199.88060593605042	
35	175.12586998939514	movie	1		244	33.0	2.5	/experiments/knapen_AOT/AOT_stimuli/rescaled_final/1306_rv.mp4	0.0	200.29718494415283	2.500364065170288
35	176.30961990356445	pulse	1	t		33.0	2.5	/experiments/knapen_AOT/AOT_stimuli/rescaled_final/1306_rv.mp4	0.0	201.48093485832214	
35	177.62623405456543	fix_post	2		12	33.0	2.5	/experiments/knapen_AOT/AOT_stimuli/rescaled_final/1306_rv.mp4	0.0	202.79754900932312	0.10003399848937988
36	177.7262680530548	fix_pre	0		120	34.0	2.5	/experiments/knapen_AOT/AOT_stimuli/rescaled_final/1380_rv.mp4	0.0	202.8975830078125	1.0001540184020996
36	177.9098379611969	pulse	0	t		34.0	2.5	/experiments/knapen_AOT/AOT_stimuli/rescaled_final/1380_rv.mp4	0.0	203.0811529159546	
36	178.7264220714569	movie	1		243	34.0	2.5	/experiments/knapen_AOT/AOT_stimuli/rescaled_final/1380_rv.mp4	0.0	203.8977370262146	2.5003490447998047
36	179.51003694534302	pulse	1	t		34.0	2.5	/experiments/knapen_AOT/AOT_stimuli/rescaled_final/1380_rv.mp4	0.0	204.6813519001007	
36	181.11021900177002	pulse	1	t		34.0	2.5	/experiments/knapen_AOT/AOT_stimuli/rescaled_final/1380_rv.mp4	0.0	206.2815339565277	
36	181.2267711162567	fix_post	2		12	34.0	2.5	/experiments/knapen_AOT/AOT_stimuli/rescaled_final/1380_rv.mp4	0.0	206.3980860710144	0.10001087188720703
37	181.32678198814392	fix_pre	0		120	35.0	2.5	blank	1.0	206.4980969429016	1.0001680850982666
37	182.3269500732422	movie	1		299	35.0	2.5	blank	1.0	207.49826502799988	2.4920408725738525
37	182.71050095558167	pulse	1	t		35.0	2.5	blank	1.0	207.88181591033936	
37	184.31082391738892	pulse	1	t		35.0	2.5	blank	1.0	209.4821388721466	
37	184.81899094581604	fix_post	2		12	35.0	2.5	blank	1.0	209.99030590057373	0.09999704360961914
38	184.91898798942566	fix_pre	0		120	36.0	2.5	/experiments/knapen_AOT/AOT_stimuli/rescaled_final/2149_fw.mp4	0.0	210.09030294418335	1.000140905380249
38	185.91100907325745	pulse	0	t		36.0	2.5	/experiments/knapen_AOT/AOT_stimuli/rescaled_final/2149_fw.mp4	0.0	211.08232402801514	
38	185.9191288948059	movie	1		244	36.0	2.5	/experiments/knapen_AOT/AOT_stimuli/rescaled_final/2149_fw.mp4	0.0	211.0904438495636	2.5087101459503174
38	187.5126121044159	pulse	1	t		36.0	2.5	/experiments/knapen_AOT/AOT_stimuli/rescaled_final/2149_fw.mp4	0.0	212.68392705917358	
38	188.42783904075623	fix_post	2		12	36.0	2.5	/experiments/knapen_AOT/AOT_stimuli/rescaled_final/2149_fw.mp4	0.0	213.59915399551392	0.1000058650970459
39	188.52784490585327	fix_pre	0		120	37.0	2.5	/experiments/knapen_AOT/AOT_stimuli/rescaled_final/1934_fw.mp4	0.0	213.69915986061096	1.0001411437988281
39	189.11142897605896	pulse	0	t		37.0	2.5	/experiments/knapen_AOT/AOT_stimuli/rescaled_final/1934_fw.mp4	0.0	214.28274393081665	
39	189.5279860496521	movie	1		243	37.0	2.5	/experiments/knapen_AOT/AOT_stimuli/rescaled_final/1934_fw.mp4	0.0	214.6993010044098	2.5003950595855713
39	190.71190690994263	pulse	1	t		37.0	2.5	/experiments/knapen_AOT/AOT_stimuli/rescaled_final/1934_fw.mp4	0.0	215.88322186470032	
39	192.02838110923767	fix_post	2		12	37.0	2.5	/experiments/knapen_AOT/AOT_stimuli/rescaled_final/1934_fw.mp4	0.0	217.19969606399536	0.10000085830688477
40	192.12838196754456	fix_pre	0		120	38.0	2.5	/experiments/knapen_AOT/AOT_stimuli/rescaled_final/1723_rv.mp4	0.0	217.29969692230225	1.00018310546875
40	192.31200408935547	pulse	0	t		38.0	2.5	/experiments/knapen_AOT/AOT_stimuli/rescaled_final/1723_rv.mp4	0.0	217.48331904411316	
40	193.1285650730133	movie	1		243	38.0	2.5	/experiments/knapen_AOT/AOT_stimuli/rescaled_final/1723_rv.mp4	0.0	218.299880027771	2.500309944152832
40	193.9122769832611	pulse	1	t		38.0	2.5	/experiments/knapen_AOT/AOT_stimuli/rescaled_final/1723_rv.mp4	0.0	219.0835919380188	
40	195.51253294944763	pulse	1	t		38.0	2.5	/experiments/knapen_AOT/AOT_stimuli/rescaled_final/1723_rv.mp4	0.0	220.68384790420532	
40	195.62887501716614	fix_post	2		12	38.0	2.5	/experiments/knapen_AOT/AOT_stimuli/rescaled_final/1723_rv.mp4	0.0	220.80018997192383	0.10004210472106934
41	195.7289171218872	fix_pre	0		120	39.0	2.5	/experiments/knapen_AOT/AOT_stimuli/rescaled_final/0247_fw.mp4	0.0	220.9002320766449	1.0001988410949707
41	196.72911596298218	movie	1		243	39.0	2.5	/experiments/knapen_AOT/AOT_stimuli/rescaled_final/0247_fw.mp4	0.0	221.90043091773987	2.4920380115509033
41	197.11704802513123	pulse	1	t		39.0	2.5	/experiments/knapen_AOT/AOT_stimuli/rescaled_final/0247_fw.mp4	0.0	222.28836297988892	
41	198.71305394172668	pulse	1	t		39.0	2.5	/experiments/knapen_AOT/AOT_stimuli/rescaled_final/0247_fw.mp4	0.0	223.88436889648438	
41	199.22115397453308	fix_post	2		12	39.0	2.5	/experiments/knapen_AOT/AOT_stimuli/rescaled_final/0247_fw.mp4	0.0	224.39246892929077	0.09999704360961914
42	199.3211510181427	fix_pre	0		120	40.0	2.5	/experiments/knapen_AOT/AOT_stimuli/rescaled_final/1513_rv.mp4	0.0	224.4924659729004	1.0001258850097656
42	200.31324100494385	pulse	0	t		40.0	2.5	/experiments/knapen_AOT/AOT_stimuli/rescaled_final/1513_rv.mp4	0.0	225.48455595970154	
42	200.32127690315247	movie	1		244	40.0	2.5	/experiments/knapen_AOT/AOT_stimuli/rescaled_final/1513_rv.mp4	0.0	225.49259185791016	2.508782148361206
42	201.91410303115845	pulse	1	t		40.0	2.5	/experiments/knapen_AOT/AOT_stimuli/rescaled_final/1513_rv.mp4	0.0	227.08541798591614	
42	202.83005905151367	fix_post	2		12	40.0	2.5	/experiments/knapen_AOT/AOT_stimuli/rescaled_final/1513_rv.mp4	0.0	228.00137400627136	0.09993386268615723
43	202.92999291419983	fix_pre	0		120	41.0	2.5	blank	1.0	228.10130786895752	1.0001590251922607
43	203.51363396644592	pulse	0	t		41.0	2.5	blank	1.0	228.6849489212036	
43	203.9301519393921	movie	1		300	41.0	2.5	blank	1.0	229.10146689414978	2.5003740787506104
43	205.11392998695374	pulse	1	t		41.0	2.5	blank	1.0	230.28524494171143	
43	206.4305260181427	fix_post	2		12	41.0	2.5	blank	1.0	231.6018409729004	0.10004091262817383
44	206.53056693077087	fix_pre	0		120	42.0	2.5	/experiments/knapen_AOT/AOT_stimuli/rescaled_final/2155_rv.mp4	0.0	231.70188188552856	1.0001850128173828
44	206.7142391204834	pulse	0	t		42.0	2.5	/experiments/knapen_AOT/AOT_stimuli/rescaled_final/2155_rv.mp4	0.0	231.8855540752411	
44	207.53075194358826	movie	1		244	42.0	2.5	/experiments/knapen_AOT/AOT_stimuli/rescaled_final/2155_rv.mp4	0.0	232.70206689834595	2.5003390312194824
44	208.31434607505798	pulse	1	t		42.0	2.5	/experiments/knapen_AOT/AOT_stimuli/rescaled_final/2155_rv.mp4	0.0	233.48566102981567	
44	209.91462206840515	pulse	1	t		42.0	2.5	/experiments/knapen_AOT/AOT_stimuli/rescaled_final/2155_rv.mp4	0.0	235.08593702316284	
44	210.03109097480774	fix_post	2		12	42.0	2.5	/experiments/knapen_AOT/AOT_stimuli/rescaled_final/2155_rv.mp4	0.0	235.20240592956543	0.1000051498413086
45	210.13109612464905	fix_pre	0		120	43.0	2.5	/experiments/knapen_AOT/AOT_stimuli/rescaled_final/0986_rv.mp4	0.0	235.30241107940674	1.0001487731933594
45	211.1312448978424	movie	1		243	43.0	2.5	/experiments/knapen_AOT/AOT_stimuli/rescaled_final/0986_rv.mp4	0.0	236.3025598526001	2.4920170307159424
45	211.5152690410614	pulse	1	t		43.0	2.5	/experiments/knapen_AOT/AOT_stimuli/rescaled_final/0986_rv.mp4	0.0	236.6865839958191	
45	213.10776090621948	pulse	1	t		43.0	2.5	/experiments/knapen_AOT/AOT_stimuli/rescaled_final/0986_rv.mp4	0.0	238.27907586097717	
45	213.62326192855835	fix_post	2		12	43.0	2.5	/experiments/knapen_AOT/AOT_stimuli/rescaled_final/0986_rv.mp4	0.0	238.79457688331604	0.10004115104675293
46	213.7233030796051	fix_pre	0		120	44.0	2.5	/experiments/knapen_AOT/AOT_stimuli/rescaled_final/0995_fw.mp4	0.0	238.8946180343628	1.000187873840332
46	214.70789194107056	pulse	0	t		44.0	2.5	/experiments/knapen_AOT/AOT_stimuli/rescaled_final/0995_fw.mp4	0.0	239.87920689582825	
46	214.72349095344543	movie	1		246	44.0	2.5	/experiments/knapen_AOT/AOT_stimuli/rescaled_final/0995_fw.mp4	0.0	239.89480590820312	2.508665084838867
46	216.31945300102234	pulse	1	t		44.0	2.5	/experiments/knapen_AOT/AOT_stimuli/rescaled_final/0995_fw.mp4	0.0	241.49076795578003	
46	217.2321560382843	fix_post	2		12	44.0	2.5	/experiments/knapen_AOT/AOT_stimuli/rescaled_final/0995_fw.mp4	0.0	242.403470993042	0.10002708435058594
47	217.3321831226349	fix_pre	0		120	45.0	2.5	/experiments/knapen_AOT/AOT_stimuli/rescaled_final/1869_fw.mp4	0.0	242.50349807739258	1.0001628398895264
47	217.90834999084473	pulse	0	t		45.0	2.5	/experiments/knapen_AOT/AOT_stimuli/rescaled_final/1869_fw.mp4	0.0	243.07966494560242	
47	218.3323459625244	movie	1		244	45.0	2.5	/experiments/knapen_AOT/AOT_stimuli/rescaled_final/1869_fw.mp4	0.0	243.5036609172821	2.500317096710205
47	219.51226091384888	pulse	1	t		45.0	2.5	/experiments/knapen_AOT/AOT_stimuli/rescaled_final/1869_fw.mp4	0.0	244.68357586860657	
47	220.83266305923462	fix_post	2		12	45.0	2.5	/experiments/knapen_AOT/AOT_stimuli/rescaled_final/1869_fw.mp4	0.0	246.0039780139923	0.10001301765441895
48	220.93267607688904	fix_pre	0		120	46.0	2.5	/experiments/knapen_AOT/AOT_stimuli/rescaled_final/0995_rv.mp4	0.0	246.10399103164673	1.0002110004425049
48	221.1080150604248	pulse	0	t		46.0	2.5	/experiments/knapen_AOT/AOT_stimuli/rescaled_final/0995_rv.mp4	0.0	246.2793300151825	
48	221.93288707733154	movie	1		245	46.0	2.5	/experiments/knapen_AOT/AOT_stimuli/rescaled_final/0995_rv.mp4	0.0	247.10420203208923	2.500339984893799
48	222.70811104774475	pulse	1	t		46.0	2.5	/experiments/knapen_AOT/AOT_stimuli/rescaled_final/0995_rv.mp4	0.0	247.87942600250244	
48	224.30834794044495	pulse	1	t		46.0	2.5	/experiments/knapen_AOT/AOT_stimuli/rescaled_final/0995_rv.mp4	0.0	249.47966289520264	
48	224.43322706222534	fix_post	2		12	46.0	2.5	/experiments/knapen_AOT/AOT_stimuli/rescaled_final/0995_rv.mp4	0.0	249.60454201698303	0.10001301765441895
49	224.53324007987976	fix_pre	0		119	47.0	2.5	/experiments/knapen_AOT/AOT_stimuli/rescaled_final/1074_rv.mp4	0.0	249.70455503463745	0.9917709827423096
49	225.52501106262207	movie	1		243	47.0	2.5	/experiments/knapen_AOT/AOT_stimuli/rescaled_final/1074_rv.mp4	0.0	250.69632601737976	2.5003769397735596
49	225.91333389282227	pulse	1	t		47.0	2.5	/experiments/knapen_AOT/AOT_stimuli/rescaled_final/1074_rv.mp4	0.0	251.08464884757996	
49	227.50886011123657	pulse	1	t		47.0	2.5	/experiments/knapen_AOT/AOT_stimuli/rescaled_final/1074_rv.mp4	0.0	252.68017506599426	
49	228.02538800239563	fix_post	2		12	47.0	2.5	/experiments/knapen_AOT/AOT_stimuli/rescaled_final/1074_rv.mp4	0.0	253.19670295715332	0.10007309913635254
50	228.12546110153198	fix_pre	0		119	48.0	2.5	/experiments/knapen_AOT/AOT_stimuli/rescaled_final/1081_rv.mp4	0.0	253.29677605628967	0.9917459487915039
50	229.10911893844604	pulse	0	t		48.0	2.5	/experiments/knapen_AOT/AOT_stimuli/rescaled_final/1081_rv.mp4	0.0	254.28043389320374	
50	229.1172070503235	movie	1		245	48.0	2.5	/experiments/knapen_AOT/AOT_stimuli/rescaled_final/1081_rv.mp4	0.0	254.28852200508118	2.508699893951416
50	230.70980310440063	pulse	1	t		48.0	2.5	/experiments/knapen_AOT/AOT_stimuli/rescaled_final/1081_rv.mp4	0.0	255.88111805915833	
50	231.6259069442749	fix_post	2		12	48.0	2.5	/experiments/knapen_AOT/AOT_stimuli/rescaled_final/1081_rv.mp4	0.0	256.7972218990326	0.10006117820739746
51	231.7259681224823	fix_pre	0		120	49.0	2.5	blank	1.0	256.89728307724	1.0001659393310547
51	232.3096890449524	pulse	0	t		49.0	2.5	blank	1.0	257.4810039997101	
51	232.72613406181335	movie	1		300	49.0	2.5	blank	1.0	257.89744901657104	2.500372886657715
51	233.9098629951477	pulse	1	t		49.0	2.5	blank	1.0	259.0811779499054	
51	235.22650694847107	fix_post	2		12	49.0	2.5	blank	1.0	260.39782190322876	0.10000014305114746
52	235.32650709152222	fix_pre	0		120	50.0	2.5	/experiments/knapen_AOT/AOT_stimuli/rescaled_final/1608_fw.mp4	0.0	260.4978220462799	1.0001299381256104
52	235.51007509231567	pulse	0	t		50.0	2.5	/experiments/knapen_AOT/AOT_stimuli/rescaled_final/1608_fw.mp4	0.0	260.68139004707336	
52	236.32663702964783	movie	1		245	50.0	2.5	/experiments/knapen_AOT/AOT_stimuli/rescaled_final/1608_fw.mp4	0.0	261.4979519844055	2.5003819465637207
52	237.1103389263153	pulse	1	t		50.0	2.5	/experiments/knapen_AOT/AOT_stimuli/rescaled_final/1608_fw.mp4	0.0	262.281653881073	
52	238.71050310134888	pulse	1	t		50.0	2.5	/experiments/knapen_AOT/AOT_stimuli/rescaled_final/1608_fw.mp4	0.0	263.88181805610657	
52	238.82701897621155	fix_post	2		12	50.0	2.5	/experiments/knapen_AOT/AOT_stimuli/rescaled_final/1608_fw.mp4	0.0	263.99833393096924	0.10004305839538574
53	238.92706203460693	fix_pre	0		120	51.0	2.5	/experiments/knapen_AOT/AOT_stimuli/rescaled_final/1475_rv.mp4	0.0	264.0983769893646	1.0001459121704102
53	239.92720794677734	movie	1		243	51.0	2.5	/experiments/knapen_AOT/AOT_stimuli/rescaled_final/1475_rv.mp4	0.0	265.09852290153503	2.4920101165771484
53	240.31137490272522	pulse	1	t		51.0	2.5	/experiments/knapen_AOT/AOT_stimuli/rescaled_final/1475_rv.mp4	0.0	265.4826898574829	
53	241.91103196144104	pulse	1	t		51.0	2.5	/experiments/knapen_AOT/AOT_stimuli/rescaled_final/1475_rv.mp4	0.0	267.08234691619873	
53	242.4192180633545	fix_post	2		12	51.0	2.5	/experiments/knapen_AOT/AOT_stimuli/rescaled_final/1475_rv.mp4	0.0	267.5905330181122	0.10001397132873535
54	242.51923203468323	fix_pre	0		120	52.0	2.5	/experiments/knapen_AOT/AOT_stimuli/rescaled_final/0206_rv.mp4	0.0	267.6905469894409	1.000180959701538
54	243.51124095916748	pulse	0	t		52.0	2.5	/experiments/knapen_AOT/AOT_stimuli/rescaled_final/0206_rv.mp4	0.0	268.68255591392517	
54	243.51941299438477	movie	1		245	52.0	2.5	/experiments/knapen_AOT/AOT_stimuli/rescaled_final/0206_rv.mp4	0.0	268.69072794914246	2.5087029933929443
54	245.11199808120728	pulse	1	t		52.0	2.5	/experiments/knapen_AOT/AOT_stimuli/rescaled_final/0206_rv.mp4	0.0	270.28331303596497	
54	246.0281159877777	fix_post	2		12	52.0	2.5	/experiments/knapen_AOT/AOT_stimuli/rescaled_final/0206_rv.mp4	0.0	271.1994309425354	0.09998106956481934
55	246.12809705734253	fix_pre	0		120	53.0	2.5	/experiments/knapen_AOT/AOT_stimuli/rescaled_final/1228_fw.mp4	0.0	271.2994120121002	1.0001850128173828
55	246.711816072464	pulse	0	t		53.0	2.5	/experiments/knapen_AOT/AOT_stimuli/rescaled_final/1228_fw.mp4	0.0	271.8831310272217	
55	247.1282820701599	movie	1		243	53.0	2.5	/experiments/knapen_AOT/AOT_stimuli/rescaled_final/1228_fw.mp4	0.0	272.2995970249176	2.5003249645233154
55	248.3120620250702	pulse	1	t		53.0	2.5	/experiments/knapen_AOT/AOT_stimuli/rescaled_final/1228_fw.mp4	0.0	273.4833769798279	
55	249.62860703468323	fix_post	2		12	53.0	2.5	/experiments/knapen_AOT/AOT_stimuli/rescaled_final/1228_fw.mp4	0.0	274.7999219894409	0.10004496574401855
56	249.72865200042725	fix_pre	0		120	54.0	2.5	/experiments/knapen_AOT/AOT_stimuli/rescaled_final/1299_rv.mp4	0.0	274.89996695518494	1.0001740455627441
56	249.9121959209442	pulse	0	t		54.0	2.5	/experiments/knapen_AOT/AOT_stimuli/rescaled_final/1299_rv.mp4	0.0	275.0835108757019	
56	250.72882604599	movie	1		243	54.0	2.5	/experiments/knapen_AOT/AOT_stimuli/rescaled_final/1299_rv.mp4	0.0	275.9001410007477	2.5003390312194824
56	251.5124590396881	pulse	1	t		54.0	2.5	/experiments/knapen_AOT/AOT_stimuli/rescaled_final/1299_rv.mp4	0.0	276.6837739944458	
56	253.1124451160431	pulse	1	t		54.0	2.5	/experiments/knapen_AOT/AOT_stimuli/rescaled_final/1299_rv.mp4	0.0	278.2837600708008	
56	253.22916507720947	fix_post	2		12	54.0	2.5	/experiments/knapen_AOT/AOT_stimuli/rescaled_final/1299_rv.mp4	0.0	278.40048003196716	0.10004186630249023
57	253.32920694351196	fix_pre	0		120	55.0	2.5	blank	1.0	278.50052189826965	1.000110149383545
57	254.3293170928955	movie	1		299	55.0	2.5	blank	1.0	279.5006320476532	2.492060899734497
57	254.71304607391357	pulse	1	t		55.0	2.5	blank	1.0	279.88436102867126	
57	256.31315994262695	pulse	1	t		55.0	2.5	blank	1.0	281.48447489738464	
57	256.82137799263	fix_post	2		12	55.0	2.5	blank	1.0	281.9926929473877	0.10000395774841309
58	256.9213819503784	fix_pre	0		120	56.0	2.5	/experiments/knapen_AOT/AOT_stimuli/rescaled_final/0089_fw.mp4	0.0	282.0926969051361	1.0001890659332275
58	257.91338896751404	pulse	0	t		56.0	2.5	/experiments/knapen_AOT/AOT_stimuli/rescaled_final/0089_fw.mp4	0.0	283.08470392227173	
58	257.92157101631165	movie	1		246	56.0	2.5	/experiments/knapen_AOT/AOT_stimuli/rescaled_final/0089_fw.mp4	0.0	283.09288597106934	2.5086569786071777
58	259.5142390727997	pulse	1	t		56.0	2.5	/experiments/knapen_AOT/AOT_stimuli/rescaled_final/0089_fw.mp4	0.0	284.6855540275574	
58	260.4302279949188	fix_post	2		12	56.0	2.5	/experiments/knapen_AOT/AOT_stimuli/rescaled_final/0089_fw.mp4	0.0	285.6015429496765	0.10003089904785156
59	260.5302588939667	fix_pre	0		120	57.0	2.5	/experiments/knapen_AOT/AOT_stimuli/rescaled_final/1284_rv.mp4	0.0	285.70157384872437	1.0001940727233887
59	261.113972902298	pulse	0	t		57.0	2.5	/experiments/knapen_AOT/AOT_stimuli/rescaled_final/1284_rv.mp4	0.0	286.28528785705566	
59	261.53045296669006	movie	1		242	57.0	2.5	/experiments/knapen_AOT/AOT_stimuli/rescaled_final/1284_rv.mp4	0.0	286.70176792144775	2.500317096710205
59	262.71422004699707	pulse	1	t		57.0	2.5	/experiments/knapen_AOT/AOT_stimuli/rescaled_final/1284_rv.mp4	0.0	287.88553500175476	
59	264.03077006340027	fix_post	2		12	57.0	2.5	/experiments/knapen_AOT/AOT_stimuli/rescaled_final/1284_rv.mp4	0.0	289.20208501815796	0.10001683235168457
60	264.13078689575195	fix_pre	0		120	58.0	2.5	/experiments/knapen_AOT/AOT_stimuli/rescaled_final/1615_rv.mp4	0.0	289.30210185050964	1.000176191329956
60	264.314306974411	pulse	0	t		58.0	2.5	/experiments/knapen_AOT/AOT_stimuli/rescaled_final/1615_rv.mp4	0.0	289.4856219291687	
60	265.1309630870819	movie	1		246	58.0	2.5	/experiments/knapen_AOT/AOT_stimuli/rescaled_final/1615_rv.mp4	0.0	290.3022780418396	2.5003440380096436
60	265.9146490097046	pulse	1	t		58.0	2.5	/experiments/knapen_AOT/AOT_stimuli/rescaled_final/1615_rv.mp4	0.0	291.0859639644623	
60	267.5149230957031	pulse	1	t		58.0	2.5	/experiments/knapen_AOT/AOT_stimuli/rescaled_final/1615_rv.mp4	0.0	292.6862380504608	
60	267.63130712509155	fix_post	2		12	58.0	2.5	/experiments/knapen_AOT/AOT_stimuli/rescaled_final/1615_rv.mp4	0.0	292.80262207984924	0.1000359058380127
61	267.73134303092957	fix_pre	0		120	59.0	2.5	/experiments/knapen_AOT/AOT_stimuli/rescaled_final/1513_rv.mp4	0.0	292.90265798568726	1.0001509189605713
61	268.73149394989014	movie	1		246	59.0	2.5	/experiments/knapen_AOT/AOT_stimuli/rescaled_final/1513_rv.mp4	0.0	293.9028089046478	2.492108106613159
61	269.115709066391	pulse	1	t		59.0	2.5	/experiments/knapen_AOT/AOT_stimuli/rescaled_final/1513_rv.mp4	0.0	294.2870240211487	
61	270.7152919769287	pulse	1	t		59.0	2.5	/experiments/knapen_AOT/AOT_stimuli/rescaled_final/1513_rv.mp4	0.0	295.8866069316864	
61	271.2236020565033	fix_post	2		12	59.0	2.5	/experiments/knapen_AOT/AOT_stimuli/rescaled_final/1513_rv.mp4	0.0	296.394917011261	0.09992098808288574
62	271.3235230445862	fix_pre	0		120	60.0	2.5	/experiments/knapen_AOT/AOT_stimuli/rescaled_final/1622_rv.mp4	0.0	296.4948379993439	1.0001990795135498
62	272.3155519962311	pulse	0	t		60.0	2.5	/experiments/knapen_AOT/AOT_stimuli/rescaled_final/1622_rv.mp4	0.0	297.48686695098877	
62	272.32372212409973	movie	1		244	60.0	2.5	/experiments/knapen_AOT/AOT_stimuli/rescaled_final/1622_rv.mp4	0.0	297.4950370788574	2.508635997772217
62	273.91941690444946	pulse	1	t		60.0	2.5	/experiments/knapen_AOT/AOT_stimuli/rescaled_final/1622_rv.mp4	0.0	299.09073185920715	
62	274.83235812187195	fix_post	2		12	60.0	2.5	/experiments/knapen_AOT/AOT_stimuli/rescaled_final/1622_rv.mp4	0.0	300.00367307662964	0.10007786750793457
63	274.9324359893799	fix_pre	0		120	61.0	2.5	/experiments/knapen_AOT/AOT_stimuli/rescaled_final/1660_rv.mp4	0.0	300.1037509441376	1.0001239776611328
63	275.5085229873657	pulse	0	t		61.0	2.5	/experiments/knapen_AOT/AOT_stimuli/rescaled_final/1660_rv.mp4	0.0	300.6798379421234	
63	275.932559967041	movie	1		245	61.0	2.5	/experiments/knapen_AOT/AOT_stimuli/rescaled_final/1660_rv.mp4	0.0	301.1038749217987	2.5003950595855713
63	277.1163489818573	pulse	1	t		61.0	2.5	/experiments/knapen_AOT/AOT_stimuli/rescaled_final/1660_rv.mp4	0.0	302.287663936615	
63	278.4329550266266	fix_post	2		12	61.0	2.5	/experiments/knapen_AOT/AOT_stimuli/rescaled_final/1660_rv.mp4	0.0	303.6042699813843	0.10002589225769043
64	278.5329809188843	fix_pre	0		120	62.0	2.5	/experiments/knapen_AOT/AOT_stimuli/rescaled_final/0607_rv.mp4	0.0	303.70429587364197	1.0001230239868164
64	278.70911598205566	pulse	0	t		62.0	2.5	/experiments/knapen_AOT/AOT_stimuli/rescaled_final/0607_rv.mp4	0.0	303.88043093681335	
64	279.5331039428711	movie	1		245	62.0	2.5	/experiments/knapen_AOT/AOT_stimuli/rescaled_final/0607_rv.mp4	0.0	304.7044188976288	2.500359058380127
64	280.30923104286194	pulse	1	t		62.0	2.5	/experiments/knapen_AOT/AOT_stimuli/rescaled_final/0607_rv.mp4	0.0	305.48054599761963	
64	281.9086480140686	pulse	1	t		62.0	2.5	/experiments/knapen_AOT/AOT_stimuli/rescaled_final/0607_rv.mp4	0.0	307.0799629688263	
64	282.0334630012512	fix_post	2		12	62.0	2.5	/experiments/knapen_AOT/AOT_stimuli/rescaled_final/0607_rv.mp4	0.0	307.2047779560089	0.09999799728393555
65	282.13346099853516	fix_pre	0		120	63.0	2.5	blank	1.0	307.30477595329285	1.0001709461212158
65	283.1336319446564	movie	1		299	63.0	2.5	blank	1.0	308.30494689941406	2.4920811653137207
65	283.50889110565186	pulse	1	t		63.0	2.5	blank	1.0	308.68020606040955	
65	285.10921907424927	pulse	1	t		63.0	2.5	blank	1.0	310.28053402900696	
65	285.6257131099701	fix_post	2		12	63.0	2.5	blank	1.0	310.7970280647278	0.09996199607849121
66	285.7256751060486	fix_pre	0		119	64.0	2.5	/experiments/knapen_AOT/AOT_stimuli/rescaled_final/1988_rv.mp4	0.0	310.8969900608063	0.9918999671936035
66	286.7093060016632	pulse	0	t		64.0	2.5	/experiments/knapen_AOT/AOT_stimuli/rescaled_final/1988_rv.mp4	0.0	311.8806209564209	
66	286.7175750732422	movie	1		245	64.0	2.5	/experiments/knapen_AOT/AOT_stimuli/rescaled_final/1988_rv.mp4	0.0	311.8888900279999	2.5086169242858887
66	288.3106870651245	pulse	1	t		64.0	2.5	/experiments/knapen_AOT/AOT_stimuli/rescaled_final/1988_rv.mp4	0.0	313.4820020198822	
66	289.2261919975281	fix_post	2		12	64.0	2.5	/experiments/knapen_AOT/AOT_stimuli/rescaled_final/1988_rv.mp4	0.0	314.39750695228577	0.1000370979309082
67	289.326229095459	fix_pre	0		120	65.0	2.5	/experiments/knapen_AOT/AOT_stimuli/rescaled_final/0084_rv.mp4	0.0	314.4975440502167	1.000190019607544
67	289.9098958969116	pulse	0	t		65.0	2.5	/experiments/knapen_AOT/AOT_stimuli/rescaled_final/0084_rv.mp4	0.0	315.0812108516693	
67	290.3264191150665	movie	1		243	65.0	2.5	/experiments/knapen_AOT/AOT_stimuli/rescaled_final/0084_rv.mp4	0.0	315.4977340698242	2.5003199577331543
67	291.51012992858887	pulse	1	t		65.0	2.5	/experiments/knapen_AOT/AOT_stimuli/rescaled_final/0084_rv.mp4	0.0	316.68144488334656	
67	292.8267390727997	fix_post	2		12	65.0	2.5	/experiments/knapen_AOT/AOT_stimuli/rescaled_final/0084_rv.mp4	0.0	317.9980540275574	0.10005688667297363
68	292.92679595947266	fix_pre	0		120	66.0	2.5	/experiments/knapen_AOT/AOT_stimuli/rescaled_final/0089_rv.mp4	0.0	318.09811091423035	1.0001261234283447
68	293.11033511161804	pulse	0	t		66.0	2.5	/experiments/knapen_AOT/AOT_stimuli/rescaled_final/0089_rv.mp4	0.0	318.28165006637573	
68	293.926922082901	movie	1		244	66.0	2.5	/experiments/knapen_AOT/AOT_stimuli/rescaled_final/0089_rv.mp4	0.0	319.0982370376587	2.5003550052642822
68	294.7105190753937	pulse	1	t		66.0	2.5	/experiments/knapen_AOT/AOT_stimuli/rescaled_final/0089_rv.mp4	0.0	319.88183403015137	
68	296.31076312065125	pulse	1	t		66.0	2.5	/experiments/knapen_AOT/AOT_stimuli/rescaled_final/0089_rv.mp4	0.0	321.48207807540894	
68	296.4272770881653	fix_post	2		12	66.0	2.5	/experiments/knapen_AOT/AOT_stimuli/rescaled_final/0089_rv.mp4	0.0	321.598592042923	0.09999895095825195
69	296.52727603912354	fix_pre	0		119	67.0	2.5	/experiments/knapen_AOT/AOT_stimuli/rescaled_final/0382_rv.mp4	0.0	321.6985909938812	0.9918270111083984
69	297.51910305023193	movie	1		244	67.0	2.5	/experiments/knapen_AOT/AOT_stimuli/rescaled_final/0382_rv.mp4	0.0	322.6904180049896	2.500364065170288
69	297.91117811203003	pulse	1	t		67.0	2.5	/experiments/knapen_AOT/AOT_stimuli/rescaled_final/0382_rv.mp4	0.0	323.0824930667877	
69	299.51129698753357	pulse	1	t		67.0	2.5	/experiments/knapen_AOT/AOT_stimuli/rescaled_final/0382_rv.mp4	0.0	324.68261194229126	
69	300.0194671154022	fix_post	2		12	67.0	2.5	/experiments/knapen_AOT/AOT_stimuli/rescaled_final/0382_rv.mp4	0.0	325.1907820701599	0.10001087188720703
70	300.11947798728943	fix_pre	0		120	68.0	2.5	/experiments/knapen_AOT/AOT_stimuli/rescaled_final/1299_fw.mp4	0.0	325.2907929420471	1.000148057937622
70	301.1114809513092	pulse	0	t		68.0	2.5	/experiments/knapen_AOT/AOT_stimuli/rescaled_final/1299_fw.mp4	0.0	326.2827959060669	
70	301.11962604522705	movie	1		245	68.0	2.5	/experiments/knapen_AOT/AOT_stimuli/rescaled_final/1299_fw.mp4	0.0	326.29094099998474	2.508713960647583
70	302.7121980190277	pulse	1	t		68.0	2.5	/experiments/knapen_AOT/AOT_stimuli/rescaled_final/1299_fw.mp4	0.0	327.8835129737854	
70	303.62834000587463	fix_post	2		12	68.0	2.5	/experiments/knapen_AOT/AOT_stimuli/rescaled_final/1299_fw.mp4	0.0	328.7996549606323	0.1000370979309082
71	303.72837710380554	fix_pre	0		120	69.0	2.5	/experiments/knapen_AOT/AOT_stimuli/rescaled_final/1424_rv.mp4	0.0	328.89969205856323	1.0001399517059326
71	304.3121039867401	pulse	0	t		69.0	2.5	/experiments/knapen_AOT/AOT_stimuli/rescaled_final/1424_rv.mp4	0.0	329.4834189414978	
71	304.7285170555115	movie	1		244	69.0	2.5	/experiments/knapen_AOT/AOT_stimuli/rescaled_final/1424_rv.mp4	0.0	329.89983201026917	2.500364065170288
71	305.91232109069824	pulse	1	t		69.0	2.5	/experiments/knapen_AOT/AOT_stimuli/rescaled_final/1424_rv.mp4	0.0	331.08363604545593	
71	307.22888112068176	fix_post	2		12	69.0	2.5	/experiments/knapen_AOT/AOT_stimuli/rescaled_final/1424_rv.mp4	0.0	332.40019607543945	0.10005688667297363
72	307.32893800735474	fix_pre	0		120	70.0	2.5	blank	1.0	332.5002529621124	1.0001530647277832
72	307.512414932251	pulse	0	t		70.0	2.5	blank	1.0	332.68372988700867	
72	308.3290910720825	movie	1		300	70.0	2.5	blank	1.0	333.5004060268402	2.5003278255462646
72	309.11274099349976	pulse	1	t		70.0	2.5	blank	1.0	334.28405594825745	
72	310.7129421234131	pulse	1	t		70.0	2.5	blank	1.0	335.8842570781708	
72	310.8294188976288	fix_post	2		12	70.0	2.5	blank	1.0	336.0007338523865	0.10004401206970215
73	310.9294629096985	fix_pre	0		120	71.0	2.5	/experiments/knapen_AOT/AOT_stimuli/rescaled_final/1564_rv.mp4	0.0	336.1007778644562	1.0001440048217773
73	311.92960691452026	movie	1		243	71.0	2.5	/experiments/knapen_AOT/AOT_stimuli/rescaled_final/1564_rv.mp4	0.0	337.10092186927795	2.492011070251465
73	312.3140490055084	pulse	1	t		71.0	2.5	/experiments/knapen_AOT/AOT_stimuli/rescaled_final/1564_rv.mp4	0.0	337.4853639602661	
73	313.91343212127686	pulse	1	t		71.0	2.5	/experiments/knapen_AOT/AOT_stimuli/rescaled_final/1564_rv.mp4	0.0	339.08474707603455	
73	314.42161798477173	fix_post	2		12	71.0	2.5	/experiments/knapen_AOT/AOT_stimuli/rescaled_final/1564_rv.mp4	0.0	339.5929329395294	0.10002303123474121
74	314.52164101600647	fix_pre	0		120	72.0	2.5	/experiments/knapen_AOT/AOT_stimuli/rescaled_final/0689_fw.mp4	0.0	339.69295597076416	1.0001819133758545
74	315.513710975647	pulse	0	t		72.0	2.5	/experiments/knapen_AOT/AOT_stimuli/rescaled_final/0689_fw.mp4	0.0	340.68502593040466	
74	315.5218229293823	movie	1		244	72.0	2.5	/experiments/knapen_AOT/AOT_stimuli/rescaled_final/0689_fw.mp4	0.0	340.69313788414	2.5086510181427
74	317.1142590045929	pulse	1	t		72.0	2.5	/experiments/knapen_AOT/AOT_stimuli/rescaled_final/0689_fw.mp4	0.0	342.2855739593506	
74	318.030473947525	fix_post	2		12	72.0	2.5	/experiments/knapen_AOT/AOT_stimuli/rescaled_final/0689_fw.mp4	0.0	343.2017889022827	0.10000395774841309
75	318.13047790527344	fix_pre	0		120	73.0	2.5	/experiments/knapen_AOT/AOT_stimuli/rescaled_final/2036_rv.mp4	0.0	343.3017928600311	1.0002000331878662
75	318.7142798900604	pulse	0	t		73.0	2.5	/experiments/knapen_AOT/AOT_stimuli/rescaled_final/2036_rv.mp4	0.0	343.8855948448181	
75	319.1306779384613	movie	1		245	73.0	2.5	/experiments/knapen_AOT/AOT_stimuli/rescaled_final/2036_rv.mp4	0.0	344.301992893219	2.5003581047058105
75	320.31442403793335	pulse	1	t		73.0	2.5	/experiments/knapen_AOT/AOT_stimuli/rescaled_final/2036_rv.mp4	0.0	345.48573899269104	
75	321.6310360431671	fix_post	2		12	73.0	2.5	/experiments/knapen_AOT/AOT_stimuli/rescaled_final/2036_rv.mp4	0.0	346.8023509979248	0.10001087188720703
76	321.7310469150543	fix_pre	0		120	74.0	2.5	/experiments/knapen_AOT/AOT_stimuli/rescaled_final/2104_fw.mp4	0.0	346.902361869812	1.0001599788665771
76	321.914715051651	pulse	0	t		74.0	2.5	/experiments/knapen_AOT/AOT_stimuli/rescaled_final/2104_fw.mp4	0.0	347.0860300064087	
76	322.7312068939209	movie	1		240	74.0	2.5	/experiments/knapen_AOT/AOT_stimuli/rescaled_final/2104_fw.mp4	0.0	347.9025218486786	2.5003371238708496
76	323.5148720741272	pulse	1	t		74.0	2.5	/experiments/knapen_AOT/AOT_stimuli/rescaled_final/2104_fw.mp4	0.0	348.6861870288849	
76	325.11527609825134	pulse	1	t		74.0	2.5	/experiments/knapen_AOT/AOT_stimuli/rescaled_final/2104_fw.mp4	0.0	350.28659105300903	
76	325.23154401779175	fix_post	2		12	74.0	2.5	/experiments/knapen_AOT/AOT_stimuli/rescaled_final/2104_fw.mp4	0.0	350.40285897254944	0.10003995895385742
77	325.3315839767456	fix_pre	0		120	75.0	2.5	/experiments/knapen_AOT/AOT_stimuli/rescaled_final/0916_fw.mp4	0.0	350.5028989315033	1.0001771450042725
77	326.3317611217499	movie	1		242	75.0	2.5	/experiments/knapen_AOT/AOT_stimuli/rescaled_final/0916_fw.mp4	0.0	351.50307607650757	2.491973876953125
77	326.71660590171814	pulse	1	t		75.0	2.5	/experiments/knapen_AOT/AOT_stimuli/rescaled_final/0916_fw.mp4	0.0	351.88792085647583	
77	328.3082480430603	pulse	1	t		75.0	2.5	/experiments/knapen_AOT/AOT_stimuli/rescaled_final/0916_fw.mp4	0.0	353.479562997818	
77	328.823734998703	fix_post	2		12	75.0	2.5	/experiments/knapen_AOT/AOT_stimuli/rescaled_final/0916_fw.mp4	0.0	353.9950499534607	0.10008692741394043
78	328.92382192611694	fix_pre	0		120	76.0	2.5	/experiments/knapen_AOT/AOT_stimuli/rescaled_final/2040_fw.mp4	0.0	354.09513688087463	1.0001671314239502
78	329.9082000255585	pulse	0	t		76.0	2.5	/experiments/knapen_AOT/AOT_stimuli/rescaled_final/2040_fw.mp4	0.0	355.07951498031616	
78	329.9239890575409	movie	1		248	76.0	2.5	/experiments/knapen_AOT/AOT_stimuli/rescaled_final/2040_fw.mp4	0.0	355.0953040122986	2.5086588859558105
78	331.51676392555237	pulse	1	t		76.0	2.5	/experiments/knapen_AOT/AOT_stimuli/rescaled_final/2040_fw.mp4	0.0	356.68807888031006	
78	332.4326479434967	fix_post	2		12	76.0	2.5	/experiments/knapen_AOT/AOT_stimuli/rescaled_final/2040_fw.mp4	0.0	357.6039628982544	0.10001802444458008
79	332.5326659679413	fix_pre	0		120	77.0	2.5	blank	1.0	357.703980922699	1.000162124633789
79	333.1087610721588	pulse	0	t		77.0	2.5	blank	1.0	358.2800760269165	
79	333.5328280925751	movie	1		300	77.0	2.5	blank	1.0	358.70414304733276	2.5003960132598877
79	334.7083148956299	pulse	1	t		77.0	2.5	blank	1.0	359.8796298503876	
79	336.03322410583496	fix_post	2		12	77.0	2.5	blank	1.0	361.20453906059265	0.09996891021728516
80	336.13319301605225	fix_pre	0		120	78.0	2.5	/experiments/knapen_AOT/AOT_stimuli/rescaled_final/0360_fw.mp4	0.0	361.30450797080994	1.0001730918884277
80	336.30834794044495	pulse	0	t		78.0	2.5	/experiments/knapen_AOT/AOT_stimuli/rescaled_final/0360_fw.mp4	0.0	361.47966289520264	
80	337.1333661079407	movie	1		254	78.0	2.5	/experiments/knapen_AOT/AOT_stimuli/rescaled_final/0360_fw.mp4	0.0	362.30468106269836	2.500375986099243
80	337.90862798690796	pulse	1	t		78.0	2.5	/experiments/knapen_AOT/AOT_stimuli/rescaled_final/0360_fw.mp4	0.0	363.07994294166565	
80	339.50897312164307	pulse	1	t		78.0	2.5	/experiments/knapen_AOT/AOT_stimuli/rescaled_final/0360_fw.mp4	0.0	364.68028807640076	
80	339.6337420940399	fix_post	2		12	78.0	2.5	/experiments/knapen_AOT/AOT_stimuli/rescaled_final/0360_fw.mp4	0.0	364.8050570487976	0.09998893737792969
81	339.73373103141785	fix_pre	0		120	79.0	2.5	/experiments/knapen_AOT/AOT_stimuli/rescaled_final/1365_rv.mp4	0.0	364.90504598617554	1.0001299381256104
81	340.73386096954346	movie	1		243	79.0	2.5	/experiments/knapen_AOT/AOT_stimuli/rescaled_final/1365_rv.mp4	0.0	365.90517592430115	2.492043972015381
81	341.10919404029846	pulse	1	t		79.0	2.5	/experiments/knapen_AOT/AOT_stimuli/rescaled_final/1365_rv.mp4	0.0	366.28050899505615	
81	342.70941710472107	pulse	1	t		79.0	2.5	/experiments/knapen_AOT/AOT_stimuli/rescaled_final/1365_rv.mp4	0.0	367.88073205947876	
81	343.22590494155884	fix_post	2		12	79.0	2.5	/experiments/knapen_AOT/AOT_stimuli/rescaled_final/1365_rv.mp4	0.0	368.3972198963165	0.1000680923461914
82	343.32597303390503	fix_pre	0		119	80.0	2.5	/experiments/knapen_AOT/AOT_stimuli/rescaled_final/0032_rv.mp4	0.0	368.4972879886627	0.9917759895324707
82	344.30969190597534	pulse	0	t		80.0	2.5	/experiments/knapen_AOT/AOT_stimuli/rescaled_final/0032_rv.mp4	0.0	369.48100686073303	
82	344.3177490234375	movie	1		245	80.0	2.5	/experiments/knapen_AOT/AOT_stimuli/rescaled_final/0032_rv.mp4	0.0	369.4890639781952	2.508733034133911
82	345.91107296943665	pulse	1	t		80.0	2.5	/experiments/knapen_AOT/AOT_stimuli/rescaled_final/0032_rv.mp4	0.0	371.08238792419434	
82	346.8264820575714	fix_post	2		12	80.0	2.5	/experiments/knapen_AOT/AOT_stimuli/rescaled_final/0032_rv.mp4	0.0	371.9977970123291	0.09998083114624023
83	346.92646288871765	fix_pre	0		120	81.0	2.5	/experiments/knapen_AOT/AOT_stimuli/rescaled_final/1204_fw.mp4	0.0	372.09777784347534	1.000162124633789
83	347.5101070404053	pulse	0	t		81.0	2.5	/experiments/knapen_AOT/AOT_stimuli/rescaled_final/1204_fw.mp4	0.0	372.68142199516296	
83	347.92662501335144	movie	1		244	81.0	2.5	/experiments/knapen_AOT/AOT_stimuli/rescaled_final/1204_fw.mp4	0.0	373.09793996810913	2.5004050731658936
83	349.11042189598083	pulse	1	t		81.0	2.5	/experiments/knapen_AOT/AOT_stimuli/rescaled_final/1204_fw.mp4	0.0	374.2817368507385	
83	350.42703008651733	fix_post	2		12	81.0	2.5	/experiments/knapen_AOT/AOT_stimuli/rescaled_final/1204_fw.mp4	0.0	375.598345041275	0.10001301765441895
84	350.52704310417175	fix_pre	0		120	82.0	2.5	/experiments/knapen_AOT/AOT_stimuli/rescaled_final/0285_fw.mp4	0.0	375.69835805892944	1.000128984451294
84	350.71059489250183	pulse	0	t		82.0	2.5	/experiments/knapen_AOT/AOT_stimuli/rescaled_final/0285_fw.mp4	0.0	375.8819098472595	
84	351.52717208862305	movie	1		243	82.0	2.5	/experiments/knapen_AOT/AOT_stimuli/rescaled_final/0285_fw.mp4	0.0	376.69848704338074	2.5003459453582764
84	352.3107659816742	pulse	1	t		82.0	2.5	/experiments/knapen_AOT/AOT_stimuli/rescaled_final/0285_fw.mp4	0.0	377.4820809364319	
84	353.9110441207886	pulse	1	t		82.0	2.5	/experiments/knapen_AOT/AOT_stimuli/rescaled_final/0285_fw.mp4	0.0	379.08235907554626	
84	354.0275180339813	fix_post	2		12	82.0	2.5	/experiments/knapen_AOT/AOT_stimuli/rescaled_final/0285_fw.mp4	0.0	379.198832988739	0.10004091262817383
85	354.1275589466095	fix_pre	0		120	83.0	2.5	blank	1.0	379.2988739013672	1.000133991241455
85	355.12769293785095	movie	1		299	83.0	2.5	blank	1.0	380.29900789260864	2.4920401573181152
85	355.51126408576965	pulse	1	t		83.0	2.5	blank	1.0	380.68257904052734	
85	357.1116189956665	pulse	1	t		83.0	2.5	blank	1.0	382.2829339504242	
85	357.61973309516907	fix_post	2		12	83.0	2.5	blank	1.0	382.79104804992676	0.10001897811889648
87	357.71975207328796	stim	0		1716					382.89106702804565	14.30224084854126
87	358.7118179798126	pulse	0	t						383.8831329345703	
87	360.3120210170746	pulse	0	t						385.4833359718323	
87	361.91224694252014	pulse	0	t						387.08356189727783	
87	363.51248502731323	pulse	0	t						388.6837999820709	
87	365.1127419471741	pulse	0	t						390.28405690193176	
87	366.7130010128021	pulse	0	t						391.8843159675598	
87	368.31320309638977	pulse	0	t						393.48451805114746	
87	369.9133379459381	pulse	0	t						395.0846529006958	
87	371.5136330127716	pulse	0	t						396.6849479675293	
