trial_nr	onset	event_type	phase	response	nr_frames	movie_index	movie_duration	movie_file	blank	onset_abs	duration
0	0.14989900588989258	stim	0		113					21.26251196861267	0.9416100978851318
0	1.0834829807281494	response	0	space						22.196095943450928	
1	1.0915091037750244	stim	0		2982					22.204122066497803	24.84994101524353
1	25.93722414970398	pulse	0	t						47.04983711242676	
1	25.941450119018555	stim	1		1717					47.05406308174133	14.30824589729309
1	27.533162117004395	pulse	1	t						48.64577507972717	
1	29.13313102722168	pulse	1	t						50.24574398994446	
1	30.73312497138977	pulse	1	t						51.84573793411255	
1	32.33320093154907	pulse	1	t						53.44581389427185	
1	33.93319892883301	pulse	1	t						55.045811891555786	
1	35.53316593170166	pulse	1	t						56.64577889442444	
1	37.13312005996704	pulse	1	t						58.24573302268982	
1	38.73315095901489	pulse	1	t						59.84576392173767	
2	40.249696016311646	fix_pre	0		11	0.0	2.5	/experiments/AOT/AOT_stimuli/rescaled_final/2107_rv.mp4	0.0	61.362308979034424	0.09162497520446777
2	40.33313608169556	pulse	0	t		0.0	2.5	/experiments/AOT/AOT_stimuli/rescaled_final/2107_rv.mp4	0.0	61.445749044418335	
2	40.34132099151611	movie	1		247	0.0	2.5	/experiments/AOT/AOT_stimuli/rescaled_final/2107_rv.mp4	0.0	61.45393395423889	2.5084171295166016
2	41.93273591995239	pulse	1	t		0.0	2.5	/experiments/AOT/AOT_stimuli/rescaled_final/2107_rv.mp4	0.0	63.04534888267517	
2	42.849738121032715	fix_post	2		12	0.0	2.5	/experiments/AOT/AOT_stimuli/rescaled_final/2107_rv.mp4	0.0	63.96235108375549	0.09999990463256836
3	42.94973802566528	fix_pre	0		120	1.0	2.5	/experiments/AOT/AOT_stimuli/rescaled_final/1183_rv.mp4	0.0	64.06235098838806	0.999500036239624
3	43.53312015533447	pulse	0	t		1.0	2.5	/experiments/AOT/AOT_stimuli/rescaled_final/1183_rv.mp4	0.0	64.64573311805725	
3	43.94923806190491	movie	1		243	1.0	2.5	/experiments/AOT/AOT_stimuli/rescaled_final/1183_rv.mp4	0.0	65.06185102462769	2.4999608993530273
3	45.1331570148468	pulse	1	t		1.0	2.5	/experiments/AOT/AOT_stimuli/rescaled_final/1183_rv.mp4	0.0	66.24576997756958	
3	46.449198961257935	fix_post	2		12	1.0	2.5	/experiments/AOT/AOT_stimuli/rescaled_final/1183_rv.mp4	0.0	67.56181192398071	0.1004340648651123
4	46.54963302612305	fix_pre	0		120	2.0	2.5	/experiments/AOT/AOT_stimuli/rescaled_final/1312_rv.mp4	0.0	67.66224598884583	1.0000181198120117
4	46.73314905166626	pulse	0	t		2.0	2.5	/experiments/AOT/AOT_stimuli/rescaled_final/1312_rv.mp4	0.0	67.84576201438904	
4	47.54965114593506	movie	1		247	2.0	2.5	/experiments/AOT/AOT_stimuli/rescaled_final/1312_rv.mp4	0.0	68.66226410865784	2.4997708797454834
4	48.33268213272095	pulse	1	t		2.0	2.5	/experiments/AOT/AOT_stimuli/rescaled_final/1312_rv.mp4	0.0	69.44529509544373	
4	49.9332389831543	pulse	1	t		2.0	2.5	/experiments/AOT/AOT_stimuli/rescaled_final/1312_rv.mp4	0.0	71.04585194587708	
4	50.04942202568054	fix_post	2		12	2.0	2.5	/experiments/AOT/AOT_stimuli/rescaled_final/1312_rv.mp4	0.0	71.16203498840332	0.10000205039978027
5	50.14942407608032	fix_pre	0		120	3.0	2.5	/experiments/AOT/AOT_stimuli/rescaled_final/2161_fw.mp4	0.0	71.2620370388031	1.000511884689331
5	51.14993596076965	movie	1		246	3.0	2.5	/experiments/AOT/AOT_stimuli/rescaled_final/2161_fw.mp4	0.0	72.26254892349243	2.4996490478515625
5	51.53269696235657	pulse	1	t		3.0	2.5	/experiments/AOT/AOT_stimuli/rescaled_final/2161_fw.mp4	0.0	72.64530992507935	
5	53.13305902481079	pulse	1	t		3.0	2.5	/experiments/AOT/AOT_stimuli/rescaled_final/2161_fw.mp4	0.0	74.24567198753357	
5	53.649585008621216	fix_post	2		12	3.0	2.5	/experiments/AOT/AOT_stimuli/rescaled_final/2161_fw.mp4	0.0	74.762197971344	0.10001111030578613
6	53.749596118927	fix_pre	0		119	4.0	2.5	/experiments/AOT/AOT_stimuli/rescaled_final/0213_rv.mp4	0.0	74.86220908164978	0.9916930198669434
6	54.73307800292969	pulse	0	t		4.0	2.5	/experiments/AOT/AOT_stimuli/rescaled_final/0213_rv.mp4	0.0	75.84569096565247	
6	54.741289138793945	movie	1		247	4.0	2.5	/experiments/AOT/AOT_stimuli/rescaled_final/0213_rv.mp4	0.0	75.85390210151672	2.508302927017212
6	56.33280110359192	pulse	1	t		4.0	2.5	/experiments/AOT/AOT_stimuli/rescaled_final/0213_rv.mp4	0.0	77.4454140663147	
6	57.24959206581116	fix_post	2		12	4.0	2.5	/experiments/AOT/AOT_stimuli/rescaled_final/0213_rv.mp4	0.0	78.36220502853394	0.09994101524353027
7	57.34953308105469	fix_pre	0		120	5.0	2.5	/experiments/AOT/AOT_stimuli/rescaled_final/0304_fw.mp4	0.0	78.46214604377747	0.999985933303833
7	57.932981967926025	pulse	0	t		5.0	2.5	/experiments/AOT/AOT_stimuli/rescaled_final/0304_fw.mp4	0.0	79.0455949306488	
7	58.34951901435852	movie	1		246	5.0	2.5	/experiments/AOT/AOT_stimuli/rescaled_final/0304_fw.mp4	0.0	79.4621319770813	2.4996140003204346
7	59.532981157302856	pulse	1	t		5.0	2.5	/experiments/AOT/AOT_stimuli/rescaled_final/0304_fw.mp4	0.0	80.64559412002563	
7	60.849133014678955	fix_post	2		12	5.0	2.5	/experiments/AOT/AOT_stimuli/rescaled_final/0304_fw.mp4	0.0	81.96174597740173	0.10033893585205078
8	60.949471950531006	fix_pre	0		120	6.0	2.5	/experiments/AOT/AOT_stimuli/rescaled_final/0489_rv.mp4	0.0	82.06208491325378	1.000028133392334
8	61.1329779624939	pulse	0	t		6.0	2.5	/experiments/AOT/AOT_stimuli/rescaled_final/0489_rv.mp4	0.0	82.24559092521667	
8	61.94950008392334	movie	1		245	6.0	2.5	/experiments/AOT/AOT_stimuli/rescaled_final/0489_rv.mp4	0.0	83.06211304664612	2.5000100135803223
8	62.732972145080566	pulse	1	t		6.0	2.5	/experiments/AOT/AOT_stimuli/rescaled_final/0489_rv.mp4	0.0	83.84558510780334	
8	64.33164501190186	pulse	1	t		6.0	2.5	/experiments/AOT/AOT_stimuli/rescaled_final/0489_rv.mp4	0.0	85.44425797462463	
8	64.44951009750366	fix_post	2		12	6.0	2.5	/experiments/AOT/AOT_stimuli/rescaled_final/0489_rv.mp4	0.0	85.56212306022644	0.10000896453857422
9	64.54951906204224	fix_pre	0		120	7.0	2.5	blank	1.0	85.66213202476501	1.0001270771026611
9	65.5496461391449	movie	1		300	7.0	2.5	blank	1.0	86.66225910186768	2.49992299079895
9	65.93299603462219	pulse	1	t		7.0	2.5	blank	1.0	87.04560899734497	
9	67.53305006027222	pulse	1	t		7.0	2.5	blank	1.0	88.645663022995	
9	68.04956912994385	fix_post	2		12	7.0	2.5	blank	1.0	89.16218209266663	0.09992289543151855
10	68.14949202537537	fix_pre	0		119	8.0	2.5	/experiments/AOT/AOT_stimuli/rescaled_final/0336_fw.mp4	0.0	89.26210498809814	0.9915759563446045
10	69.13300108909607	pulse	0	t		8.0	2.5	/experiments/AOT/AOT_stimuli/rescaled_final/0336_fw.mp4	0.0	90.24561405181885	
10	69.14106798171997	movie	1		246	8.0	2.5	/experiments/AOT/AOT_stimuli/rescaled_final/0336_fw.mp4	0.0	90.25368094444275	2.5084540843963623
10	70.73240995407104	pulse	1	t		8.0	2.5	/experiments/AOT/AOT_stimuli/rescaled_final/0336_fw.mp4	0.0	91.84502291679382	
10	71.64952206611633	fix_post	2		12	8.0	2.5	/experiments/AOT/AOT_stimuli/rescaled_final/0336_fw.mp4	0.0	92.76213502883911	0.09998893737792969
11	71.74951100349426	fix_pre	0		120	9.0	2.5	/experiments/AOT/AOT_stimuli/rescaled_final/0255_rv.mp4	0.0	92.86212396621704	1.00006103515625
11	72.33300304412842	pulse	0	t		9.0	2.5	/experiments/AOT/AOT_stimuli/rescaled_final/0255_rv.mp4	0.0	93.4456160068512	
11	72.74957203865051	movie	1		245	9.0	2.5	/experiments/AOT/AOT_stimuli/rescaled_final/0255_rv.mp4	0.0	93.86218500137329	2.499912977218628
11	73.93302202224731	pulse	1	t		9.0	2.5	/experiments/AOT/AOT_stimuli/rescaled_final/0255_rv.mp4	0.0	95.04563498497009	
11	75.24948501586914	fix_post	2		12	9.0	2.5	/experiments/AOT/AOT_stimuli/rescaled_final/0255_rv.mp4	0.0	96.36209797859192	0.09995698928833008
12	75.34944200515747	fix_pre	0		120	10.0	2.5	/experiments/AOT/AOT_stimuli/rescaled_final/1377_rv.mp4	0.0	96.46205496788025	1.000035047531128
12	75.53290510177612	pulse	0	t		10.0	2.5	/experiments/AOT/AOT_stimuli/rescaled_final/1377_rv.mp4	0.0	96.6455180644989	
12	76.3494770526886	movie	1		245	10.0	2.5	/experiments/AOT/AOT_stimuli/rescaled_final/1377_rv.mp4	0.0	97.46209001541138	2.499911069869995
12	77.13287997245789	pulse	1	t		10.0	2.5	/experiments/AOT/AOT_stimuli/rescaled_final/1377_rv.mp4	0.0	98.24549293518066	
12	78.73244404792786	pulse	1	t		10.0	2.5	/experiments/AOT/AOT_stimuli/rescaled_final/1377_rv.mp4	0.0	99.84505701065063	
12	78.8493881225586	fix_post	2		12	10.0	2.5	/experiments/AOT/AOT_stimuli/rescaled_final/1377_rv.mp4	0.0	99.96200108528137	0.10006093978881836
13	78.94944906234741	fix_pre	0		120	11.0	2.5	/experiments/AOT/AOT_stimuli/rescaled_final/1053_rv.mp4	0.0	100.06206202507019	1.000087022781372
13	79.94953608512878	movie	1		244	11.0	2.5	/experiments/AOT/AOT_stimuli/rescaled_final/1053_rv.mp4	0.0	101.06214904785156	2.4999470710754395
13	80.3323450088501	pulse	1	t		11.0	2.5	/experiments/AOT/AOT_stimuli/rescaled_final/1053_rv.mp4	0.0	101.44495797157288	
13	81.93288898468018	pulse	1	t		11.0	2.5	/experiments/AOT/AOT_stimuli/rescaled_final/1053_rv.mp4	0.0	103.04550194740295	
13	82.44948315620422	fix_post	2		12	11.0	2.5	/experiments/AOT/AOT_stimuli/rescaled_final/1053_rv.mp4	0.0	103.562096118927	0.09997987747192383
14	82.54946303367615	fix_pre	0		119	12.0	2.5	blank	1.0	103.66207599639893	0.9916369915008545
14	83.5328631401062	pulse	0	t		12.0	2.5	blank	1.0	104.64547610282898	
14	83.541100025177	movie	1		301	12.0	2.5	blank	1.0	104.65371298789978	2.508294105529785
14	85.13294005393982	pulse	1	t		12.0	2.5	blank	1.0	106.2455530166626	
14	86.04939413070679	fix_post	2		12	12.0	2.5	blank	1.0	107.16200709342957	0.10001802444458008
15	86.14941215515137	fix_pre	0		120	13.0	2.5	/experiments/AOT/AOT_stimuli/rescaled_final/1046_fw.mp4	0.0	107.26202511787415	0.9999358654022217
15	86.7329170703888	pulse	0	t		13.0	2.5	/experiments/AOT/AOT_stimuli/rescaled_final/1046_fw.mp4	0.0	107.84553003311157	
15	87.14934802055359	movie	1		241	13.0	2.5	/experiments/AOT/AOT_stimuli/rescaled_final/1046_fw.mp4	0.0	108.26196098327637	2.499742031097412
15	88.33298397064209	pulse	1	t		13.0	2.5	/experiments/AOT/AOT_stimuli/rescaled_final/1046_fw.mp4	0.0	109.44559693336487	
15	89.649090051651	fix_post	2		12	13.0	2.5	/experiments/AOT/AOT_stimuli/rescaled_final/1046_fw.mp4	0.0	110.76170301437378	0.10031604766845703
16	89.74940609931946	fix_pre	0		120	14.0	2.5	/experiments/AOT/AOT_stimuli/rescaled_final/2065_fw.mp4	0.0	110.86201906204224	0.9999799728393555
16	89.93287897109985	pulse	0	t		14.0	2.5	/experiments/AOT/AOT_stimuli/rescaled_final/2065_fw.mp4	0.0	111.04549193382263	
16	90.74938607215881	movie	1		247	14.0	2.5	/experiments/AOT/AOT_stimuli/rescaled_final/2065_fw.mp4	0.0	111.86199903488159	2.499974012374878
16	91.5330901145935	pulse	1	t		14.0	2.5	/experiments/AOT/AOT_stimuli/rescaled_final/2065_fw.mp4	0.0	112.64570307731628	
16	93.1323721408844	pulse	1	t		14.0	2.5	/experiments/AOT/AOT_stimuli/rescaled_final/2065_fw.mp4	0.0	114.24498510360718	
16	93.24936008453369	fix_post	2		12	14.0	2.5	/experiments/AOT/AOT_stimuli/rescaled_final/2065_fw.mp4	0.0	114.36197304725647	0.09998703002929688
17	93.34934711456299	fix_pre	0		120	15.0	2.5	/experiments/AOT/AOT_stimuli/rescaled_final/0669_fw.mp4	0.0	114.46196007728577	1.0001020431518555
17	94.34944915771484	movie	1		243	15.0	2.5	/experiments/AOT/AOT_stimuli/rescaled_final/0669_fw.mp4	0.0	115.46206212043762	2.500382900238037
17	94.73276495933533	pulse	1	t		15.0	2.5	/experiments/AOT/AOT_stimuli/rescaled_final/0669_fw.mp4	0.0	115.8453779220581	
17	96.33277010917664	pulse	1	t		15.0	2.5	/experiments/AOT/AOT_stimuli/rescaled_final/0669_fw.mp4	0.0	117.44538307189941	
17	96.84983205795288	fix_post	2		12	15.0	2.5	/experiments/AOT/AOT_stimuli/rescaled_final/0669_fw.mp4	0.0	117.96244502067566	0.09949493408203125
18	96.94932699203491	fix_pre	0		119	16.0	2.5	/experiments/AOT/AOT_stimuli/rescaled_final/0392_rv.mp4	0.0	118.06193995475769	0.9917149543762207
18	97.93280506134033	pulse	0	t		16.0	2.5	/experiments/AOT/AOT_stimuli/rescaled_final/0392_rv.mp4	0.0	119.04541802406311	
18	97.94104194641113	movie	1		244	16.0	2.5	/experiments/AOT/AOT_stimuli/rescaled_final/0392_rv.mp4	0.0	119.05365490913391	2.508308172225952
18	99.53240895271301	pulse	1	t		16.0	2.5	/experiments/AOT/AOT_stimuli/rescaled_final/0392_rv.mp4	0.0	120.64502191543579	
18	100.44935011863708	fix_post	2		12	16.0	2.5	/experiments/AOT/AOT_stimuli/rescaled_final/0392_rv.mp4	0.0	121.56196308135986	0.09964299201965332
19	100.54899311065674	fix_pre	0		120	17.0	2.5	/experiments/AOT/AOT_stimuli/rescaled_final/1990_fw.mp4	0.0	121.66160607337952	1.000385046005249
19	101.13295197486877	pulse	0	t		17.0	2.5	/experiments/AOT/AOT_stimuli/rescaled_final/1990_fw.mp4	0.0	122.24556493759155	
19	101.54937815666199	movie	1		246	17.0	2.5	/experiments/AOT/AOT_stimuli/rescaled_final/1990_fw.mp4	0.0	122.66199111938477	2.4995739459991455
19	102.7329969406128	pulse	1	t		17.0	2.5	/experiments/AOT/AOT_stimuli/rescaled_final/1990_fw.mp4	0.0	123.84560990333557	
19	104.04895210266113	fix_post	2		12	17.0	2.5	/experiments/AOT/AOT_stimuli/rescaled_final/1990_fw.mp4	0.0	125.16156506538391	0.09991192817687988
20	104.14886403083801	fix_pre	0		120	18.0	2.5	/experiments/AOT/AOT_stimuli/rescaled_final/1943_rv.mp4	0.0	125.26147699356079	1.0001590251922607
20	104.33276915550232	pulse	0	t		18.0	2.5	/experiments/AOT/AOT_stimuli/rescaled_final/1943_rv.mp4	0.0	125.4453821182251	
20	105.14902305603027	movie	1		244	18.0	2.5	/experiments/AOT/AOT_stimuli/rescaled_final/1943_rv.mp4	0.0	126.26163601875305	2.5002939701080322
20	105.93249201774597	pulse	1	t		18.0	2.5	/experiments/AOT/AOT_stimuli/rescaled_final/1943_rv.mp4	0.0	127.04510498046875	
20	107.54111695289612	pulse	1	t		18.0	2.5	/experiments/AOT/AOT_stimuli/rescaled_final/1943_rv.mp4	0.0	128.6537299156189	
20	107.6493170261383	fix_post	2		12	18.0	2.5	/experiments/AOT/AOT_stimuli/rescaled_final/1943_rv.mp4	0.0	128.76192998886108	0.09997892379760742
21	107.74929594993591	fix_pre	0		120	19.0	2.5	blank	1.0	128.8619089126587	1.0000450611114502
21	108.74934101104736	movie	1		300	19.0	2.5	blank	1.0	129.86195397377014	2.4999821186065674
21	109.1328489780426	pulse	1	t		19.0	2.5	blank	1.0	130.24546194076538	
21	110.73278999328613	pulse	1	t		19.0	2.5	blank	1.0	131.8454029560089	
21	111.24932312965393	fix_post	2		12	19.0	2.5	blank	1.0	132.3619360923767	0.10000085830688477
22	111.34932398796082	fix_pre	0		119	20.0	2.5	/experiments/AOT/AOT_stimuli/rescaled_final/0214_rv.mp4	0.0	132.4619369506836	0.9915659427642822
22	112.3326780796051	pulse	0	t		20.0	2.5	/experiments/AOT/AOT_stimuli/rescaled_final/0214_rv.mp4	0.0	133.44529104232788	
22	112.3408899307251	movie	1		244	20.0	2.5	/experiments/AOT/AOT_stimuli/rescaled_final/0214_rv.mp4	0.0	133.45350289344788	2.5080502033233643
22	113.9322829246521	pulse	1	t		20.0	2.5	/experiments/AOT/AOT_stimuli/rescaled_final/0214_rv.mp4	0.0	135.04489588737488	
22	114.84894013404846	fix_post	2		12	20.0	2.5	/experiments/AOT/AOT_stimuli/rescaled_final/0214_rv.mp4	0.0	135.96155309677124	0.10028600692749023
23	114.94922614097595	fix_pre	0		120	21.0	2.5	/experiments/AOT/AOT_stimuli/rescaled_final/1355_fw.mp4	0.0	136.06183910369873	1.0000410079956055
23	115.53273105621338	pulse	0	t		21.0	2.5	/experiments/AOT/AOT_stimuli/rescaled_final/1355_fw.mp4	0.0	136.64534401893616	
23	115.94926714897156	movie	1		246	21.0	2.5	/experiments/AOT/AOT_stimuli/rescaled_final/1355_fw.mp4	0.0	137.06188011169434	2.4996237754821777
23	117.13280892372131	pulse	1	t		21.0	2.5	/experiments/AOT/AOT_stimuli/rescaled_final/1355_fw.mp4	0.0	138.2454218864441	
23	118.44889092445374	fix_post	2		12	21.0	2.5	/experiments/AOT/AOT_stimuli/rescaled_final/1355_fw.mp4	0.0	139.5615038871765	0.10032510757446289
24	118.5492160320282	fix_pre	0		120	22.0	2.5	/experiments/AOT/AOT_stimuli/rescaled_final/1990_rv.mp4	0.0	139.66182899475098	0.9996039867401123
24	118.73274302482605	pulse	0	t		22.0	2.5	/experiments/AOT/AOT_stimuli/rescaled_final/1990_rv.mp4	0.0	139.84535598754883	
24	119.54882001876831	movie	1		246	22.0	2.5	/experiments/AOT/AOT_stimuli/rescaled_final/1990_rv.mp4	0.0	140.6614329814911	2.5004429817199707
24	120.33265709877014	pulse	1	t		22.0	2.5	/experiments/AOT/AOT_stimuli/rescaled_final/1990_rv.mp4	0.0	141.44527006149292	
24	121.94111609458923	pulse	1	t		22.0	2.5	/experiments/AOT/AOT_stimuli/rescaled_final/1990_rv.mp4	0.0	143.053729057312	
24	122.04926300048828	fix_post	2		12	22.0	2.5	/experiments/AOT/AOT_stimuli/rescaled_final/1990_rv.mp4	0.0	143.16187596321106	0.09958910942077637
25	122.14885210990906	fix_pre	0		120	23.0	2.5	/experiments/AOT/AOT_stimuli/rescaled_final/0051_fw.mp4	0.0	143.26146507263184	1.0004379749298096
25	123.14929008483887	movie	1		246	23.0	2.5	/experiments/AOT/AOT_stimuli/rescaled_final/0051_fw.mp4	0.0	144.26190304756165	2.499569892883301
25	123.5327000617981	pulse	1	t		23.0	2.5	/experiments/AOT/AOT_stimuli/rescaled_final/0051_fw.mp4	0.0	144.64531302452087	
25	125.13265109062195	pulse	1	t		23.0	2.5	/experiments/AOT/AOT_stimuli/rescaled_final/0051_fw.mp4	0.0	146.24526405334473	
25	125.64885997772217	fix_post	2		12	23.0	2.5	/experiments/AOT/AOT_stimuli/rescaled_final/0051_fw.mp4	0.0	146.76147294044495	0.1003561019897461
26	125.74921607971191	fix_pre	0		119	24.0	2.5	/experiments/AOT/AOT_stimuli/rescaled_final/0746_rv.mp4	0.0	146.8618290424347	0.9916908740997314
26	126.73269295692444	pulse	0	t		24.0	2.5	/experiments/AOT/AOT_stimuli/rescaled_final/0746_rv.mp4	0.0	147.84530591964722	
26	126.74090695381165	movie	1		246	24.0	2.5	/experiments/AOT/AOT_stimuli/rescaled_final/0746_rv.mp4	0.0	147.85351991653442	2.5083651542663574
26	128.33248901367188	pulse	1	t		24.0	2.5	/experiments/AOT/AOT_stimuli/rescaled_final/0746_rv.mp4	0.0	149.44510197639465	
26	129.249272108078	fix_post	2		12	24.0	2.5	/experiments/AOT/AOT_stimuli/rescaled_final/0746_rv.mp4	0.0	150.36188507080078	0.09991288185119629
27	129.3491849899292	fix_pre	0		120	25.0	2.5	/experiments/AOT/AOT_stimuli/rescaled_final/1330_rv.mp4	0.0	150.46179795265198	1.0000410079956055
27	129.9326720237732	pulse	0	t		25.0	2.5	/experiments/AOT/AOT_stimuli/rescaled_final/1330_rv.mp4	0.0	151.04528498649597	
27	130.3492259979248	movie	1		243	25.0	2.5	/experiments/AOT/AOT_stimuli/rescaled_final/1330_rv.mp4	0.0	151.46183896064758	2.4999539852142334
27	131.53264808654785	pulse	1	t		25.0	2.5	/experiments/AOT/AOT_stimuli/rescaled_final/1330_rv.mp4	0.0	152.64526104927063	
27	132.84917998313904	fix_post	2		12	25.0	2.5	/experiments/AOT/AOT_stimuli/rescaled_final/1330_rv.mp4	0.0	153.96179294586182	0.09995603561401367
28	132.94913601875305	fix_pre	0		120	26.0	2.5	/experiments/AOT/AOT_stimuli/rescaled_final/1665_fw.mp4	0.0	154.06174898147583	1.0000700950622559
28	133.13262009620667	pulse	0	t		26.0	2.5	/experiments/AOT/AOT_stimuli/rescaled_final/1665_fw.mp4	0.0	154.24523305892944	
28	133.9492061138153	movie	1		243	26.0	2.5	/experiments/AOT/AOT_stimuli/rescaled_final/1665_fw.mp4	0.0	155.0618190765381	2.4999778270721436
28	134.73261713981628	pulse	1	t		26.0	2.5	/experiments/AOT/AOT_stimuli/rescaled_final/1665_fw.mp4	0.0	155.84523010253906	
28	136.34096312522888	pulse	1	t		26.0	2.5	/experiments/AOT/AOT_stimuli/rescaled_final/1665_fw.mp4	0.0	157.45357608795166	
28	136.44918394088745	fix_post	2		12	26.0	2.5	/experiments/AOT/AOT_stimuli/rescaled_final/1665_fw.mp4	0.0	157.56179690361023	0.100128173828125
29	136.54931211471558	fix_pre	0		120	27.0	2.5	/experiments/AOT/AOT_stimuli/rescaled_final/2151_fw.mp4	0.0	157.66192507743835	0.9998748302459717
29	137.54918694496155	movie	1		244	27.0	2.5	/experiments/AOT/AOT_stimuli/rescaled_final/2151_fw.mp4	0.0	158.66179990768433	2.4995310306549072
29	137.94108200073242	pulse	1	t		27.0	2.5	/experiments/AOT/AOT_stimuli/rescaled_final/2151_fw.mp4	0.0	159.0536949634552	
29	139.53268003463745	pulse	1	t		27.0	2.5	/experiments/AOT/AOT_stimuli/rescaled_final/2151_fw.mp4	0.0	160.64529299736023	
29	140.04871797561646	fix_post	2		12	27.0	2.5	/experiments/AOT/AOT_stimuli/rescaled_final/2151_fw.mp4	0.0	161.16133093833923	0.10044097900390625
30	140.14915895462036	fix_pre	0		119	28.0	2.5	blank	1.0	161.26177191734314	0.9916660785675049
30	141.13266897201538	pulse	0	t		28.0	2.5	blank	1.0	162.24528193473816	
30	141.14082503318787	movie	1		301	28.0	2.5	blank	1.0	162.25343799591064	2.50826096534729
30	142.7326729297638	pulse	1	t		28.0	2.5	blank	1.0	163.84528589248657	
30	143.64908599853516	fix_post	2		12	28.0	2.5	blank	1.0	164.76169896125793	0.10001015663146973
31	143.74909615516663	fix_pre	0		120	29.0	2.5	/experiments/AOT/AOT_stimuli/rescaled_final/1046_rv.mp4	0.0	164.8617091178894	0.9995758533477783
31	144.332622051239	pulse	0	t		29.0	2.5	/experiments/AOT/AOT_stimuli/rescaled_final/1046_rv.mp4	0.0	165.4452350139618	
31	144.7486720085144	movie	1		244	29.0	2.5	/experiments/AOT/AOT_stimuli/rescaled_final/1046_rv.mp4	0.0	165.86128497123718	2.5005500316619873
31	145.93276405334473	pulse	1	t		29.0	2.5	/experiments/AOT/AOT_stimuli/rescaled_final/1046_rv.mp4	0.0	167.0453770160675	
31	147.2492220401764	fix_post	2		12	29.0	2.5	/experiments/AOT/AOT_stimuli/rescaled_final/1046_rv.mp4	0.0	168.36183500289917	0.09995007514953613
32	147.34917211532593	fix_pre	0		120	30.0	2.5	/experiments/AOT/AOT_stimuli/rescaled_final/0717_rv.mp4	0.0	168.4617850780487	0.9999568462371826
32	147.53268814086914	pulse	0	t		30.0	2.5	/experiments/AOT/AOT_stimuli/rescaled_final/0717_rv.mp4	0.0	168.64530110359192	
32	148.3491289615631	movie	1		245	30.0	2.5	/experiments/AOT/AOT_stimuli/rescaled_final/0717_rv.mp4	0.0	169.4617419242859	2.5001440048217773
32	149.13275408744812	pulse	1	t		30.0	2.5	/experiments/AOT/AOT_stimuli/rescaled_final/0717_rv.mp4	0.0	170.2453670501709	
32	150.74281311035156	pulse	1	t		30.0	2.5	/experiments/AOT/AOT_stimuli/rescaled_final/0717_rv.mp4	0.0	171.85542607307434	
32	150.8492729663849	fix_post	2		12	30.0	2.5	/experiments/AOT/AOT_stimuli/rescaled_final/0717_rv.mp4	0.0	171.96188592910767	0.09989809989929199
33	150.94917106628418	fix_pre	0		120	31.0	2.5	/experiments/AOT/AOT_stimuli/rescaled_final/1422_fw.mp4	0.0	172.06178402900696	0.9999608993530273
33	151.9491319656372	movie	1		247	31.0	2.5	/experiments/AOT/AOT_stimuli/rescaled_final/1422_fw.mp4	0.0	173.06174492835999	2.499969959259033
33	152.34095692634583	pulse	1	t		31.0	2.5	/experiments/AOT/AOT_stimuli/rescaled_final/1422_fw.mp4	0.0	173.4535698890686	
33	153.93251609802246	pulse	1	t		31.0	2.5	/experiments/AOT/AOT_stimuli/rescaled_final/1422_fw.mp4	0.0	175.04512906074524	
33	154.44910192489624	fix_post	2		12	31.0	2.5	/experiments/AOT/AOT_stimuli/rescaled_final/1422_fw.mp4	0.0	175.56171488761902	0.10011100769042969
34	154.54921293258667	fix_pre	0		119	32.0	2.5	/experiments/AOT/AOT_stimuli/rescaled_final/1505_rv.mp4	0.0	175.66182589530945	0.991530179977417
34	155.53262495994568	pulse	0	t		32.0	2.5	/experiments/AOT/AOT_stimuli/rescaled_final/1505_rv.mp4	0.0	176.64523792266846	
34	155.5407431125641	movie	1		245	32.0	2.5	/experiments/AOT/AOT_stimuli/rescaled_final/1505_rv.mp4	0.0	176.65335607528687	2.508410930633545
34	157.132061958313	pulse	1	t		32.0	2.5	/experiments/AOT/AOT_stimuli/rescaled_final/1505_rv.mp4	0.0	178.24467492103577	
34	158.04915404319763	fix_post	2		12	32.0	2.5	/experiments/AOT/AOT_stimuli/rescaled_final/1505_rv.mp4	0.0	179.1617670059204	0.09994792938232422
35	158.14910197257996	fix_pre	0		120	33.0	2.5	/experiments/AOT/AOT_stimuli/rescaled_final/1428_rv.mp4	0.0	179.26171493530273	0.9999940395355225
35	158.73260807991028	pulse	0	t		33.0	2.5	/experiments/AOT/AOT_stimuli/rescaled_final/1428_rv.mp4	0.0	179.84522104263306	
35	159.14909601211548	movie	1		248	33.0	2.5	/experiments/AOT/AOT_stimuli/rescaled_final/1428_rv.mp4	0.0	180.26170897483826	2.5001111030578613
35	160.33218502998352	pulse	1	t		33.0	2.5	/experiments/AOT/AOT_stimuli/rescaled_final/1428_rv.mp4	0.0	181.4447979927063	
35	161.64920711517334	fix_post	2		12	33.0	2.5	/experiments/AOT/AOT_stimuli/rescaled_final/1428_rv.mp4	0.0	182.76182007789612	0.10001397132873535
36	161.74922108650208	fix_pre	0		120	34.0	2.5	blank	1.0	182.86183404922485	1.0001139640808105
36	161.93227815628052	pulse	0	t		34.0	2.5	blank	1.0	183.0448911190033	
36	162.74933505058289	movie	1		300	34.0	2.5	blank	1.0	183.86194801330566	2.4997799396514893
36	163.53251695632935	pulse	1	t		34.0	2.5	blank	1.0	184.64512991905212	
36	165.13257694244385	pulse	1	t		34.0	2.5	blank	1.0	186.24518990516663	
36	165.24911499023438	fix_post	2		12	34.0	2.5	blank	1.0	186.36172795295715	0.09992194175720215
37	165.34903693199158	fix_pre	0		120	35.0	2.5	/experiments/AOT/AOT_stimuli/rescaled_final/1467_rv.mp4	0.0	186.46164989471436	0.9999520778656006
37	166.34898900985718	movie	1		245	35.0	2.5	/experiments/AOT/AOT_stimuli/rescaled_final/1467_rv.mp4	0.0	187.46160197257996	2.500059127807617
37	166.74093008041382	pulse	1	t		35.0	2.5	/experiments/AOT/AOT_stimuli/rescaled_final/1467_rv.mp4	0.0	187.8535430431366	
37	168.33247208595276	pulse	1	t		35.0	2.5	/experiments/AOT/AOT_stimuli/rescaled_final/1467_rv.mp4	0.0	189.44508504867554	
37	168.8490481376648	fix_post	2		12	35.0	2.5	/experiments/AOT/AOT_stimuli/rescaled_final/1467_rv.mp4	0.0	189.96166110038757	0.09999680519104004
38	168.94904494285583	fix_pre	0		119	36.0	2.5	/experiments/AOT/AOT_stimuli/rescaled_final/1422_fw.mp4	0.0	190.0616579055786	0.9916560649871826
38	169.93261814117432	pulse	0	t		36.0	2.5	/experiments/AOT/AOT_stimuli/rescaled_final/1422_fw.mp4	0.0	191.0452311038971	
38	169.94070100784302	movie	1		247	36.0	2.5	/experiments/AOT/AOT_stimuli/rescaled_final/1422_fw.mp4	0.0	191.0533139705658	2.5082740783691406
38	171.533704996109	pulse	1	t		36.0	2.5	/experiments/AOT/AOT_stimuli/rescaled_final/1422_fw.mp4	0.0	192.6463179588318	
38	172.44897508621216	fix_post	2		12	36.0	2.5	/experiments/AOT/AOT_stimuli/rescaled_final/1422_fw.mp4	0.0	193.56158804893494	0.1000368595123291
39	172.5490119457245	fix_pre	0		120	37.0	2.5	/experiments/AOT/AOT_stimuli/rescaled_final/0115_rv.mp4	0.0	193.66162490844727	0.9995670318603516
39	173.13248896598816	pulse	0	t		37.0	2.5	/experiments/AOT/AOT_stimuli/rescaled_final/0115_rv.mp4	0.0	194.24510192871094	
39	173.54857897758484	movie	1		245	37.0	2.5	/experiments/AOT/AOT_stimuli/rescaled_final/0115_rv.mp4	0.0	194.66119194030762	2.500427007675171
39	174.73258209228516	pulse	1	t		37.0	2.5	/experiments/AOT/AOT_stimuli/rescaled_final/0115_rv.mp4	0.0	195.84519505500793	
39	176.04900598526	fix_post	2		12	37.0	2.5	/experiments/AOT/AOT_stimuli/rescaled_final/0115_rv.mp4	0.0	197.1616189479828	0.09998416900634766
40	176.14899015426636	fix_pre	0		120	38.0	2.5	/experiments/AOT/AOT_stimuli/rescaled_final/0561_fw.mp4	0.0	197.26160311698914	1.000044822692871
40	176.3324489593506	pulse	0	t		38.0	2.5	/experiments/AOT/AOT_stimuli/rescaled_final/0561_fw.mp4	0.0	197.44506192207336	
40	177.14903497695923	movie	1		243	38.0	2.5	/experiments/AOT/AOT_stimuli/rescaled_final/0561_fw.mp4	0.0	198.261647939682	2.499856948852539
40	177.93258905410767	pulse	1	t		38.0	2.5	/experiments/AOT/AOT_stimuli/rescaled_final/0561_fw.mp4	0.0	199.04520201683044	
40	179.54084300994873	pulse	1	t		38.0	2.5	/experiments/AOT/AOT_stimuli/rescaled_final/0561_fw.mp4	0.0	200.6534559726715	
40	179.64889192581177	fix_post	2		12	38.0	2.5	/experiments/AOT/AOT_stimuli/rescaled_final/0561_fw.mp4	0.0	200.76150488853455	0.100067138671875
41	179.74895906448364	fix_pre	0		120	39.0	2.5	/experiments/AOT/AOT_stimuli/rescaled_final/0159_rv.mp4	0.0	200.86157202720642	0.9999780654907227
41	180.74893712997437	movie	1		243	39.0	2.5	/experiments/AOT/AOT_stimuli/rescaled_final/0159_rv.mp4	0.0	201.86155009269714	2.5000557899475098
41	181.13372993469238	pulse	1	t		39.0	2.5	/experiments/AOT/AOT_stimuli/rescaled_final/0159_rv.mp4	0.0	202.24634289741516	
41	182.7323989868164	pulse	1	t		39.0	2.5	/experiments/AOT/AOT_stimuli/rescaled_final/0159_rv.mp4	0.0	203.84501194953918	
41	183.24899291992188	fix_post	2		12	39.0	2.5	/experiments/AOT/AOT_stimuli/rescaled_final/0159_rv.mp4	0.0	204.36160588264465	0.0999910831451416
42	183.34898400306702	fix_pre	0		119	40.0	2.5	/experiments/AOT/AOT_stimuli/rescaled_final/1530_rv.mp4	0.0	204.4615969657898	0.9915609359741211
42	184.3324329853058	pulse	0	t		40.0	2.5	/experiments/AOT/AOT_stimuli/rescaled_final/1530_rv.mp4	0.0	205.44504594802856	
42	184.34054493904114	movie	1		244	40.0	2.5	/experiments/AOT/AOT_stimuli/rescaled_final/1530_rv.mp4	0.0	205.45315790176392	2.507988214492798
42	185.94083213806152	pulse	1	t		40.0	2.5	/experiments/AOT/AOT_stimuli/rescaled_final/1530_rv.mp4	0.0	207.0534451007843	
42	186.84853315353394	fix_post	2		12	40.0	2.5	/experiments/AOT/AOT_stimuli/rescaled_final/1530_rv.mp4	0.0	207.9611461162567	0.10039877891540527
43	186.94893193244934	fix_pre	0		120	41.0	2.5	/experiments/AOT/AOT_stimuli/rescaled_final/1053_fw.mp4	0.0	208.06154489517212	1.0001041889190674
43	187.5324809551239	pulse	0	t		41.0	2.5	/experiments/AOT/AOT_stimuli/rescaled_final/1053_fw.mp4	0.0	208.64509391784668	
43	187.9490361213684	movie	1		245	41.0	2.5	/experiments/AOT/AOT_stimuli/rescaled_final/1053_fw.mp4	0.0	209.0616490840912	2.499882936477661
43	189.13265109062195	pulse	1	t		41.0	2.5	/experiments/AOT/AOT_stimuli/rescaled_final/1053_fw.mp4	0.0	210.24526405334473	
43	190.44891905784607	fix_post	2		12	41.0	2.5	/experiments/AOT/AOT_stimuli/rescaled_final/1053_fw.mp4	0.0	211.56153202056885	0.09999394416809082
44	190.54891300201416	fix_pre	0		120	42.0	2.5	blank	1.0	211.66152596473694	1.0000250339508057
44	190.73247599601746	pulse	0	t		42.0	2.5	blank	1.0	211.84508895874023	
44	191.54893803596497	movie	1		300	42.0	2.5	blank	1.0	212.66155099868774	2.5000109672546387
44	192.33238410949707	pulse	1	t		42.0	2.5	blank	1.0	213.44499707221985	
44	193.9323971271515	pulse	1	t		42.0	2.5	blank	1.0	215.04501008987427	
44	194.0489490032196	fix_post	2		12	42.0	2.5	blank	1.0	215.16156196594238	0.09985804557800293
45	194.1488070487976	fix_pre	0		120	43.0	2.5	/experiments/AOT/AOT_stimuli/rescaled_final/0873_fw.mp4	0.0	215.26142001152039	1.0000789165496826
45	195.1488859653473	movie	1		244	43.0	2.5	/experiments/AOT/AOT_stimuli/rescaled_final/0873_fw.mp4	0.0	216.26149892807007	2.4999351501464844
45	195.53209805488586	pulse	1	t		43.0	2.5	/experiments/AOT/AOT_stimuli/rescaled_final/0873_fw.mp4	0.0	216.64471101760864	
45	197.13247108459473	pulse	1	t		43.0	2.5	/experiments/AOT/AOT_stimuli/rescaled_final/0873_fw.mp4	0.0	218.2450840473175	
45	197.64882111549377	fix_post	2		12	43.0	2.5	/experiments/AOT/AOT_stimuli/rescaled_final/0873_fw.mp4	0.0	218.76143407821655	0.10006594657897949
46	197.74888706207275	fix_pre	0		119	44.0	2.5	/experiments/AOT/AOT_stimuli/rescaled_final/0017_rv.mp4	0.0	218.86150002479553	0.9916889667510986
46	198.73237109184265	pulse	0	t		44.0	2.5	/experiments/AOT/AOT_stimuli/rescaled_final/0017_rv.mp4	0.0	219.84498405456543	
46	198.74057602882385	movie	1		245	44.0	2.5	/experiments/AOT/AOT_stimuli/rescaled_final/0017_rv.mp4	0.0	219.85318899154663	2.5078511238098145
46	200.34079313278198	pulse	1	t		44.0	2.5	/experiments/AOT/AOT_stimuli/rescaled_final/0017_rv.mp4	0.0	221.45340609550476	
46	201.24842715263367	fix_post	2		12	44.0	2.5	/experiments/AOT/AOT_stimuli/rescaled_final/0017_rv.mp4	0.0	222.36104011535645	0.10048580169677734
47	201.34891295433044	fix_pre	0		120	45.0	2.5	/experiments/AOT/AOT_stimuli/rescaled_final/1385_fw.mp4	0.0	222.46152591705322	0.999981164932251
47	201.93237709999084	pulse	0	t		45.0	2.5	/experiments/AOT/AOT_stimuli/rescaled_final/1385_fw.mp4	0.0	223.04499006271362	
47	202.3488941192627	movie	1		244	45.0	2.5	/experiments/AOT/AOT_stimuli/rescaled_final/1385_fw.mp4	0.0	223.46150708198547	2.5000269412994385
47	203.5324740409851	pulse	1	t		45.0	2.5	/experiments/AOT/AOT_stimuli/rescaled_final/1385_fw.mp4	0.0	224.64508700370789	
47	204.84892106056213	fix_post	2		12	45.0	2.5	/experiments/AOT/AOT_stimuli/rescaled_final/1385_fw.mp4	0.0	225.9615340232849	0.09987092018127441
48	204.9487919807434	fix_pre	0		120	46.0	2.5	/experiments/AOT/AOT_stimuli/rescaled_final/0181_rv.mp4	0.0	226.0614049434662	1.0000779628753662
48	205.13231992721558	pulse	0	t		46.0	2.5	/experiments/AOT/AOT_stimuli/rescaled_final/0181_rv.mp4	0.0	226.24493288993835	
48	205.94886994361877	movie	1		245	46.0	2.5	/experiments/AOT/AOT_stimuli/rescaled_final/0181_rv.mp4	0.0	227.06148290634155	2.4999711513519287
48	206.73237109184265	pulse	1	t		46.0	2.5	/experiments/AOT/AOT_stimuli/rescaled_final/0181_rv.mp4	0.0	227.84498405456543	
48	208.33184504508972	pulse	1	t		46.0	2.5	/experiments/AOT/AOT_stimuli/rescaled_final/0181_rv.mp4	0.0	229.4444580078125	
48	208.4488410949707	fix_post	2		12	46.0	2.5	/experiments/AOT/AOT_stimuli/rescaled_final/0181_rv.mp4	0.0	229.56145405769348	0.10011506080627441
49	208.54895615577698	fix_pre	0		120	47.0	2.5	blank	1.0	229.66156911849976	0.9999628067016602
49	209.54891896247864	movie	1		300	47.0	2.5	blank	1.0	230.66153192520142	2.500028133392334
49	209.932382106781	pulse	1	t		47.0	2.5	blank	1.0	231.04499506950378	
49	211.5323829650879	pulse	1	t		47.0	2.5	blank	1.0	232.64499592781067	
49	212.04894709587097	fix_post	2		12	47.0	2.5	blank	1.0	233.16156005859375	0.09986305236816406
50	212.14881014823914	fix_pre	0		120	48.0	2.5	/experiments/AOT/AOT_stimuli/rescaled_final/0089_fw.mp4	0.0	233.2614231109619	0.9999799728393555
50	213.13326597213745	pulse	0	t		48.0	2.5	/experiments/AOT/AOT_stimuli/rescaled_final/0089_fw.mp4	0.0	234.24587893486023	
50	213.1487901210785	movie	1		245	48.0	2.5	/experiments/AOT/AOT_stimuli/rescaled_final/0089_fw.mp4	0.0	234.26140308380127	2.507934808731079
50	214.7421419620514	pulse	1	t		48.0	2.5	/experiments/AOT/AOT_stimuli/rescaled_final/0089_fw.mp4	0.0	235.85475492477417	
50	215.65672492980957	fix_post	2		12	48.0	2.5	/experiments/AOT/AOT_stimuli/rescaled_final/0089_fw.mp4	0.0	236.76933789253235	0.1005091667175293
51	215.7572340965271	fix_pre	0		120	49.0	2.5	/experiments/AOT/AOT_stimuli/rescaled_final/0848_fw.mp4	0.0	236.86984705924988	0.9995019435882568
51	216.3322639465332	pulse	0	t		49.0	2.5	/experiments/AOT/AOT_stimuli/rescaled_final/0848_fw.mp4	0.0	237.44487690925598	
51	216.75673604011536	movie	1		246	49.0	2.5	/experiments/AOT/AOT_stimuli/rescaled_final/0848_fw.mp4	0.0	237.86934900283813	2.5003600120544434
51	217.94037508964539	pulse	1	t		49.0	2.5	/experiments/AOT/AOT_stimuli/rescaled_final/0848_fw.mp4	0.0	239.05298805236816	
51	219.2570960521698	fix_post	2		12	49.0	2.5	/experiments/AOT/AOT_stimuli/rescaled_final/0848_fw.mp4	0.0	240.36970901489258	0.09999203681945801
52	219.35708808898926	fix_pre	0		120	50.0	2.5	/experiments/AOT/AOT_stimuli/rescaled_final/1993_rv.mp4	0.0	240.46970105171204	1.0000250339508057
52	219.53221106529236	pulse	0	t		50.0	2.5	/experiments/AOT/AOT_stimuli/rescaled_final/1993_rv.mp4	0.0	240.64482402801514	
52	220.35711312294006	movie	1		243	50.0	2.5	/experiments/AOT/AOT_stimuli/rescaled_final/1993_rv.mp4	0.0	241.46972608566284	2.499979019165039
52	221.13218307495117	pulse	1	t		50.0	2.5	/experiments/AOT/AOT_stimuli/rescaled_final/1993_rv.mp4	0.0	242.24479603767395	
52	222.73223495483398	pulse	1	t		50.0	2.5	/experiments/AOT/AOT_stimuli/rescaled_final/1993_rv.mp4	0.0	243.84484791755676	
52	222.8570921421051	fix_post	2		12	50.0	2.5	/experiments/AOT/AOT_stimuli/rescaled_final/1993_rv.mp4	0.0	243.96970510482788	0.09995198249816895
53	222.95704412460327	fix_pre	0		120	51.0	2.5	/experiments/AOT/AOT_stimuli/rescaled_final/1531_rv.mp4	0.0	244.06965708732605	0.9999809265136719
53	223.95702505111694	movie	1		244	51.0	2.5	/experiments/AOT/AOT_stimuli/rescaled_final/1531_rv.mp4	0.0	245.06963801383972	2.5000360012054443
53	224.33219408988953	pulse	1	t		51.0	2.5	/experiments/AOT/AOT_stimuli/rescaled_final/1531_rv.mp4	0.0	245.4448070526123	
53	225.9322760105133	pulse	1	t		51.0	2.5	/experiments/AOT/AOT_stimuli/rescaled_final/1531_rv.mp4	0.0	247.04488897323608	
53	226.4570610523224	fix_post	2		12	51.0	2.5	/experiments/AOT/AOT_stimuli/rescaled_final/1531_rv.mp4	0.0	247.56967401504517	0.09998488426208496
54	226.55704593658447	fix_pre	0		118	52.0	2.5	/experiments/AOT/AOT_stimuli/rescaled_final/1462_rv.mp4	0.0	247.66965889930725	0.9833099842071533
54	227.53222393989563	pulse	0	t		52.0	2.5	/experiments/AOT/AOT_stimuli/rescaled_final/1462_rv.mp4	0.0	248.6448369026184	
54	227.54035592079163	movie	1		247	52.0	2.5	/experiments/AOT/AOT_stimuli/rescaled_final/1462_rv.mp4	0.0	248.6529688835144	2.508376121520996
54	229.14073610305786	pulse	1	t		52.0	2.5	/experiments/AOT/AOT_stimuli/rescaled_final/1462_rv.mp4	0.0	250.25334906578064	
54	230.04873204231262	fix_post	2		12	52.0	2.5	/experiments/AOT/AOT_stimuli/rescaled_final/1462_rv.mp4	0.0	251.1613450050354	0.10003995895385742
55	230.14877200126648	fix_pre	0		120	53.0	2.5	/experiments/AOT/AOT_stimuli/rescaled_final/1310_fw.mp4	0.0	251.26138496398926	0.9999301433563232
55	230.7331371307373	pulse	0	t		53.0	2.5	/experiments/AOT/AOT_stimuli/rescaled_final/1310_fw.mp4	0.0	251.84575009346008	
55	231.1487021446228	movie	1		246	53.0	2.5	/experiments/AOT/AOT_stimuli/rescaled_final/1310_fw.mp4	0.0	252.26131510734558	2.499997854232788
55	232.33324694633484	pulse	1	t		53.0	2.5	/experiments/AOT/AOT_stimuli/rescaled_final/1310_fw.mp4	0.0	253.44585990905762	
55	233.6486999988556	fix_post	2		12	53.0	2.5	/experiments/AOT/AOT_stimuli/rescaled_final/1310_fw.mp4	0.0	254.76131296157837	0.10004901885986328
56	233.74874901771545	fix_pre	0		120	54.0	2.5	blank	1.0	254.86136198043823	1.000020980834961
56	233.93224596977234	pulse	0	t		54.0	2.5	blank	1.0	255.04485893249512	
56	234.74876999855042	movie	1		300	54.0	2.5	blank	1.0	255.8613829612732	2.4998979568481445
56	235.532320022583	pulse	1	t		54.0	2.5	blank	1.0	256.6449329853058	
56	237.1329209804535	pulse	1	t		54.0	2.5	blank	1.0	258.24553394317627	
56	237.24866795539856	fix_post	2		12	54.0	2.5	blank	1.0	258.36128091812134	0.1000211238861084
57	237.34868907928467	fix_pre	0		120	55.0	2.5	/experiments/AOT/AOT_stimuli/rescaled_final/0423_fw.mp4	0.0	258.46130204200745	1.0000309944152832
57	238.34872007369995	movie	1		244	55.0	2.5	/experiments/AOT/AOT_stimuli/rescaled_final/0423_fw.mp4	0.0	259.46133303642273	2.5000228881835938
57	238.74057602882385	pulse	1	t		55.0	2.5	/experiments/AOT/AOT_stimuli/rescaled_final/0423_fw.mp4	0.0	259.85318899154663	
57	240.33213996887207	pulse	1	t		55.0	2.5	/experiments/AOT/AOT_stimuli/rescaled_final/0423_fw.mp4	0.0	261.44475293159485	
57	240.84874296188354	fix_post	2		12	55.0	2.5	/experiments/AOT/AOT_stimuli/rescaled_final/0423_fw.mp4	0.0	261.9613559246063	0.09987211227416992
58	240.94861507415771	fix_pre	0		119	56.0	2.5	/experiments/AOT/AOT_stimuli/rescaled_final/2117_rv.mp4	0.0	262.0612280368805	0.9916729927062988
58	241.93213605880737	pulse	0	t		56.0	2.5	/experiments/AOT/AOT_stimuli/rescaled_final/2117_rv.mp4	0.0	263.04474902153015	
58	241.940288066864	movie	1		250	56.0	2.5	/experiments/AOT/AOT_stimuli/rescaled_final/2117_rv.mp4	0.0	263.0529010295868	2.5083348751068115
58	243.53195714950562	pulse	1	t		56.0	2.5	/experiments/AOT/AOT_stimuli/rescaled_final/2117_rv.mp4	0.0	264.6445701122284	
58	244.44862294197083	fix_post	2		12	56.0	2.5	/experiments/AOT/AOT_stimuli/rescaled_final/2117_rv.mp4	0.0	265.5612359046936	0.10007810592651367
59	244.54870104789734	fix_pre	0		120	57.0	2.5	/experiments/AOT/AOT_stimuli/rescaled_final/0384_fw.mp4	0.0	265.6613140106201	1.0000009536743164
59	245.13297200202942	pulse	0	t		57.0	2.5	/experiments/AOT/AOT_stimuli/rescaled_final/0384_fw.mp4	0.0	266.2455849647522	
59	245.54870200157166	movie	1		243	57.0	2.5	/experiments/AOT/AOT_stimuli/rescaled_final/0384_fw.mp4	0.0	266.66131496429443	2.499558925628662
59	246.7331199645996	pulse	1	t		57.0	2.5	/experiments/AOT/AOT_stimuli/rescaled_final/0384_fw.mp4	0.0	267.8457329273224	
59	248.04826092720032	fix_post	2		12	57.0	2.5	/experiments/AOT/AOT_stimuli/rescaled_final/0384_fw.mp4	0.0	269.1608738899231	0.10039210319519043
60	248.1486530303955	fix_pre	0		120	58.0	2.5	/experiments/AOT/AOT_stimuli/rescaled_final/0124_rv.mp4	0.0	269.2612659931183	1.0000240802764893
60	248.33294701576233	pulse	0	t		58.0	2.5	/experiments/AOT/AOT_stimuli/rescaled_final/0124_rv.mp4	0.0	269.4455599784851	
60	249.148677110672	movie	1		243	58.0	2.5	/experiments/AOT/AOT_stimuli/rescaled_final/0124_rv.mp4	0.0	270.2612900733948	2.499945878982544
60	249.93305611610413	pulse	1	t		58.0	2.5	/experiments/AOT/AOT_stimuli/rescaled_final/0124_rv.mp4	0.0	271.0456690788269	
60	251.54047393798828	pulse	1	t		58.0	2.5	/experiments/AOT/AOT_stimuli/rescaled_final/0124_rv.mp4	0.0	272.65308690071106	
60	251.64862298965454	fix_post	2		12	58.0	2.5	/experiments/AOT/AOT_stimuli/rescaled_final/0124_rv.mp4	0.0	272.7612359523773	0.09996604919433594
61	251.74858903884888	fix_pre	0		120	59.0	2.5	/experiments/AOT/AOT_stimuli/rescaled_final/1310_fw.mp4	0.0	272.86120200157166	1.0000009536743164
61	252.7485899925232	movie	1		245	59.0	2.5	/experiments/AOT/AOT_stimuli/rescaled_final/1310_fw.mp4	0.0	273.861202955246	2.500123977661133
61	253.1406090259552	pulse	1	t		59.0	2.5	/experiments/AOT/AOT_stimuli/rescaled_final/1310_fw.mp4	0.0	274.253221988678	
61	254.73208093643188	pulse	1	t		59.0	2.5	/experiments/AOT/AOT_stimuli/rescaled_final/1310_fw.mp4	0.0	275.84469389915466	
61	255.24871397018433	fix_post	2		12	59.0	2.5	/experiments/AOT/AOT_stimuli/rescaled_final/1310_fw.mp4	0.0	276.3613269329071	0.09993410110473633
62	255.34864807128906	fix_pre	0		119	60.0	2.5	/experiments/AOT/AOT_stimuli/rescaled_final/1961_rv.mp4	0.0	276.46126103401184	0.9915859699249268
62	256.33203411102295	pulse	0	t		60.0	2.5	/experiments/AOT/AOT_stimuli/rescaled_final/1961_rv.mp4	0.0	277.4446470737457	
62	256.340234041214	movie	1		246	60.0	2.5	/experiments/AOT/AOT_stimuli/rescaled_final/1961_rv.mp4	0.0	277.45284700393677	2.508431911468506
62	257.9324600696564	pulse	1	t		60.0	2.5	/experiments/AOT/AOT_stimuli/rescaled_final/1961_rv.mp4	0.0	279.04507303237915	
62	258.8486659526825	fix_post	2		12	60.0	2.5	/experiments/AOT/AOT_stimuli/rescaled_final/1961_rv.mp4	0.0	279.9612789154053	0.10000109672546387
63	258.94866704940796	fix_pre	0		120	61.0	2.5	blank	1.0	280.06128001213074	1.0000319480895996
63	259.5320620536804	pulse	0	t		61.0	2.5	blank	1.0	280.6446750164032	
63	259.94869899749756	movie	1		300	61.0	2.5	blank	1.0	281.06131196022034	2.4998879432678223
63	261.1320900917053	pulse	1	t		61.0	2.5	blank	1.0	282.2447030544281	
63	262.4485869407654	fix_post	2		12	61.0	2.5	blank	1.0	283.56119990348816	0.10003519058227539
64	262.54862213134766	fix_pre	0		120	62.0	2.5	/experiments/AOT/AOT_stimuli/rescaled_final/0903_rv.mp4	0.0	283.66123509407043	1.0000219345092773
64	262.73287296295166	pulse	0	t		62.0	2.5	/experiments/AOT/AOT_stimuli/rescaled_final/0903_rv.mp4	0.0	283.84548592567444	
64	263.54864406585693	movie	1		245	62.0	2.5	/experiments/AOT/AOT_stimuli/rescaled_final/0903_rv.mp4	0.0	284.6612570285797	2.499645948410034
64	264.3329060077667	pulse	1	t		62.0	2.5	/experiments/AOT/AOT_stimuli/rescaled_final/0903_rv.mp4	0.0	285.4455189704895	
64	265.93283700942993	pulse	1	t		62.0	2.5	/experiments/AOT/AOT_stimuli/rescaled_final/0903_rv.mp4	0.0	287.0454499721527	
64	266.04829001426697	fix_post	2		12	62.0	2.5	/experiments/AOT/AOT_stimuli/rescaled_final/0903_rv.mp4	0.0	287.16090297698975	0.10030698776245117
65	266.1485970020294	fix_pre	0		120	63.0	2.5	/experiments/AOT/AOT_stimuli/rescaled_final/0562_rv.mp4	0.0	287.2612099647522	0.9999101161956787
65	267.1485071182251	movie	1		243	63.0	2.5	/experiments/AOT/AOT_stimuli/rescaled_final/0562_rv.mp4	0.0	288.2611200809479	2.500087022781372
65	267.5322620868683	pulse	1	t		63.0	2.5	/experiments/AOT/AOT_stimuli/rescaled_final/0562_rv.mp4	0.0	288.64487504959106	
65	269.1328880786896	pulse	1	t		63.0	2.5	/experiments/AOT/AOT_stimuli/rescaled_final/0562_rv.mp4	0.0	290.24550104141235	
65	269.64859414100647	fix_post	2		12	63.0	2.5	/experiments/AOT/AOT_stimuli/rescaled_final/0562_rv.mp4	0.0	290.76120710372925	0.10002398490905762
66	269.7486181259155	fix_pre	0		120	64.0	2.5	/experiments/AOT/AOT_stimuli/rescaled_final/1136_fw.mp4	0.0	290.8612310886383	0.9999887943267822
66	270.7328550815582	pulse	0	t		64.0	2.5	/experiments/AOT/AOT_stimuli/rescaled_final/1136_fw.mp4	0.0	291.845468044281	
66	270.7486069202423	movie	1		245	64.0	2.5	/experiments/AOT/AOT_stimuli/rescaled_final/1136_fw.mp4	0.0	291.8612198829651	2.5078680515289307
66	272.3394911289215	pulse	1	t		64.0	2.5	/experiments/AOT/AOT_stimuli/rescaled_final/1136_fw.mp4	0.0	293.4521040916443	
66	273.25647497177124	fix_post	2		12	64.0	2.5	/experiments/AOT/AOT_stimuli/rescaled_final/1136_fw.mp4	0.0	294.369087934494	0.10052895545959473
67	273.35700392723083	fix_pre	0		120	65.0	2.5	/experiments/AOT/AOT_stimuli/rescaled_final/1443_rv.mp4	0.0	294.4696168899536	1.0000991821289062
67	273.93297600746155	pulse	0	t		65.0	2.5	/experiments/AOT/AOT_stimuli/rescaled_final/1443_rv.mp4	0.0	295.0455889701843	
67	274.35710310935974	movie	1		244	65.0	2.5	/experiments/AOT/AOT_stimuli/rescaled_final/1443_rv.mp4	0.0	295.4697160720825	2.4998619556427
67	275.53282594680786	pulse	1	t		65.0	2.5	/experiments/AOT/AOT_stimuli/rescaled_final/1443_rv.mp4	0.0	296.64543890953064	
67	276.85696506500244	fix_post	2		12	65.0	2.5	/experiments/AOT/AOT_stimuli/rescaled_final/1443_rv.mp4	0.0	297.9695780277252	0.099945068359375
68	276.9569101333618	fix_pre	0		120	66.0	2.5	/experiments/AOT/AOT_stimuli/rescaled_final/1377_fw.mp4	0.0	298.0695230960846	1.0001249313354492
68	277.13299202919006	pulse	0	t		66.0	2.5	/experiments/AOT/AOT_stimuli/rescaled_final/1377_fw.mp4	0.0	298.24560499191284	
68	277.95703506469727	movie	1		245	66.0	2.5	/experiments/AOT/AOT_stimuli/rescaled_final/1377_fw.mp4	0.0	299.06964802742004	2.4998300075531006
68	278.7328050136566	pulse	1	t		66.0	2.5	/experiments/AOT/AOT_stimuli/rescaled_final/1377_fw.mp4	0.0	299.8454179763794	
68	280.3385350704193	pulse	1	t		66.0	2.5	/experiments/AOT/AOT_stimuli/rescaled_final/1377_fw.mp4	0.0	301.4511480331421	
68	280.45686507225037	fix_post	2		12	66.0	2.5	/experiments/AOT/AOT_stimuli/rescaled_final/1377_fw.mp4	0.0	301.56947803497314	0.09999799728393555
69	280.5568630695343	fix_pre	0		120	67.0	2.5	/experiments/AOT/AOT_stimuli/rescaled_final/0998_rv.mp4	0.0	301.6694760322571	0.9999229907989502
69	281.55678606033325	movie	1		246	67.0	2.5	/experiments/AOT/AOT_stimuli/rescaled_final/0998_rv.mp4	0.0	302.66939902305603	2.500079870223999
69	281.939945936203	pulse	1	t		67.0	2.5	/experiments/AOT/AOT_stimuli/rescaled_final/0998_rv.mp4	0.0	303.0525588989258	
69	283.5330181121826	pulse	1	t		67.0	2.5	/experiments/AOT/AOT_stimuli/rescaled_final/0998_rv.mp4	0.0	304.6456310749054	
69	284.05686593055725	fix_post	2		12	67.0	2.5	/experiments/AOT/AOT_stimuli/rescaled_final/0998_rv.mp4	0.0	305.16947889328003	0.09993910789489746
70	284.15680503845215	fix_pre	0		119	68.0	2.5	/experiments/AOT/AOT_stimuli/rescaled_final/0844_rv.mp4	0.0	305.2694180011749	0.9917290210723877
70	285.13276410102844	pulse	0	t		68.0	2.5	/experiments/AOT/AOT_stimuli/rescaled_final/0844_rv.mp4	0.0	306.2453770637512	
70	285.14853405952454	movie	1		248	68.0	2.5	/experiments/AOT/AOT_stimuli/rescaled_final/0844_rv.mp4	0.0	306.2611470222473	2.5083439350128174
70	286.74038195610046	pulse	1	t		68.0	2.5	/experiments/AOT/AOT_stimuli/rescaled_final/0844_rv.mp4	0.0	307.85299491882324	
70	287.65687799453735	fix_post	2		12	68.0	2.5	/experiments/AOT/AOT_stimuli/rescaled_final/0844_rv.mp4	0.0	308.76949095726013	0.09990811347961426
71	287.75678610801697	fix_pre	0		120	69.0	2.5	/experiments/AOT/AOT_stimuli/rescaled_final/0089_rv.mp4	0.0	308.86939907073975	1.0000369548797607
71	288.33197593688965	pulse	0	t		69.0	2.5	/experiments/AOT/AOT_stimuli/rescaled_final/0089_rv.mp4	0.0	309.4445888996124	
71	288.75682306289673	movie	1		245	69.0	2.5	/experiments/AOT/AOT_stimuli/rescaled_final/0089_rv.mp4	0.0	309.8694360256195	2.4999148845672607
71	289.94030594825745	pulse	1	t		69.0	2.5	/experiments/AOT/AOT_stimuli/rescaled_final/0089_rv.mp4	0.0	311.0529189109802	
71	291.256737947464	fix_post	2		12	69.0	2.5	/experiments/AOT/AOT_stimuli/rescaled_final/0089_rv.mp4	0.0	312.36935091018677	0.10002017021179199
72	291.3567581176758	fix_pre	0		120	70.0	2.5	blank	1.0	312.46937108039856	0.999992847442627
72	291.5319011211395	pulse	0	t		70.0	2.5	blank	1.0	312.6445140838623	
72	292.3567509651184	movie	1		300	70.0	2.5	blank	1.0	313.4693639278412	2.5000710487365723
72	293.1326389312744	pulse	1	t		70.0	2.5	blank	1.0	314.2452518939972	
72	294.73270297050476	pulse	1	t		70.0	2.5	blank	1.0	315.84531593322754	
72	294.856822013855	fix_post	2		12	70.0	2.5	blank	1.0	315.96943497657776	0.09984397888183594
73	294.9566659927368	fix_pre	0		120	71.0	2.5	/experiments/AOT/AOT_stimuli/rescaled_final/1046_rv.mp4	0.0	316.0692789554596	0.9996881484985352
73	295.95635414123535	movie	1		245	71.0	2.5	/experiments/AOT/AOT_stimuli/rescaled_final/1046_rv.mp4	0.0	317.06896710395813	2.5003879070281982
73	296.3400321006775	pulse	1	t		71.0	2.5	/experiments/AOT/AOT_stimuli/rescaled_final/1046_rv.mp4	0.0	317.45264506340027	
73	297.9328110218048	pulse	1	t		71.0	2.5	/experiments/AOT/AOT_stimuli/rescaled_final/1046_rv.mp4	0.0	319.0454239845276	
73	298.45674204826355	fix_post	2		12	71.0	2.5	/experiments/AOT/AOT_stimuli/rescaled_final/1046_rv.mp4	0.0	319.5693550109863	0.09991192817687988
74	298.55665397644043	fix_pre	0		119	72.0	2.5	/experiments/AOT/AOT_stimuli/rescaled_final/2161_fw.mp4	0.0	319.6692669391632	0.9917271137237549
74	299.53257513046265	pulse	0	t		72.0	2.5	/experiments/AOT/AOT_stimuli/rescaled_final/2161_fw.mp4	0.0	320.6451880931854	
74	299.5483810901642	movie	1		247	72.0	2.5	/experiments/AOT/AOT_stimuli/rescaled_final/2161_fw.mp4	0.0	320.66099405288696	2.507882833480835
74	301.14050698280334	pulse	1	t		72.0	2.5	/experiments/AOT/AOT_stimuli/rescaled_final/2161_fw.mp4	0.0	322.2531199455261	
74	302.056263923645	fix_post	2		12	72.0	2.5	/experiments/AOT/AOT_stimuli/rescaled_final/2161_fw.mp4	0.0	323.1688768863678	0.10045003890991211
75	302.15671396255493	fix_pre	0		120	73.0	2.5	/experiments/AOT/AOT_stimuli/rescaled_final/2061_fw.mp4	0.0	323.2693269252777	0.9999251365661621
75	302.7326259613037	pulse	0	t		73.0	2.5	/experiments/AOT/AOT_stimuli/rescaled_final/2061_fw.mp4	0.0	323.8452389240265	
75	303.1566390991211	movie	1		244	73.0	2.5	/experiments/AOT/AOT_stimuli/rescaled_final/2061_fw.mp4	0.0	324.2692520618439	2.500011920928955
75	304.34019708633423	pulse	1	t		73.0	2.5	/experiments/AOT/AOT_stimuli/rescaled_final/2061_fw.mp4	0.0	325.452810049057	
75	305.65665102005005	fix_post	2		12	73.0	2.5	/experiments/AOT/AOT_stimuli/rescaled_final/2061_fw.mp4	0.0	326.7692639827728	0.10010910034179688
76	305.75676012039185	fix_pre	0		120	74.0	2.5	/experiments/AOT/AOT_stimuli/rescaled_final/0632_fw.mp4	0.0	326.8693730831146	0.9999229907989502
76	305.9317650794983	pulse	0	t		74.0	2.5	/experiments/AOT/AOT_stimuli/rescaled_final/0632_fw.mp4	0.0	327.04437804222107	
76	306.7566831111908	movie	1		244	74.0	2.5	/experiments/AOT/AOT_stimuli/rescaled_final/0632_fw.mp4	0.0	327.8692960739136	2.4999399185180664
76	307.5326910018921	pulse	1	t		74.0	2.5	/experiments/AOT/AOT_stimuli/rescaled_final/0632_fw.mp4	0.0	328.64530396461487	
76	309.1386260986328	pulse	1	t		74.0	2.5	/experiments/AOT/AOT_stimuli/rescaled_final/0632_fw.mp4	0.0	330.2512390613556	
76	309.25662302970886	fix_post	2		12	74.0	2.5	/experiments/AOT/AOT_stimuli/rescaled_final/0632_fw.mp4	0.0	330.36923599243164	0.09999299049377441
77	309.35661602020264	fix_pre	0		120	75.0	2.5	/experiments/AOT/AOT_stimuli/rescaled_final/1886_fw.mp4	0.0	330.4692289829254	1.00006103515625
77	310.3566770553589	movie	1		243	75.0	2.5	/experiments/AOT/AOT_stimuli/rescaled_final/1886_fw.mp4	0.0	331.46929001808167	2.4995310306549072
77	310.74047207832336	pulse	1	t		75.0	2.5	/experiments/AOT/AOT_stimuli/rescaled_final/1886_fw.mp4	0.0	331.85308504104614	
77	312.3328969478607	pulse	1	t		75.0	2.5	/experiments/AOT/AOT_stimuli/rescaled_final/1886_fw.mp4	0.0	333.4455099105835	
77	312.8562080860138	fix_post	2		12	75.0	2.5	/experiments/AOT/AOT_stimuli/rescaled_final/1886_fw.mp4	0.0	333.9688210487366	0.1004018783569336
78	312.9566099643707	fix_pre	0		119	76.0	2.5	blank	1.0	334.0692229270935	0.991671085357666
78	313.9326260089874	pulse	0	t		76.0	2.5	blank	1.0	335.0452389717102	
78	313.9482810497284	movie	1		301	76.0	2.5	blank	1.0	335.0608940124512	2.508331060409546
78	315.5325839519501	pulse	1	t		76.0	2.5	blank	1.0	336.64519691467285	
78	316.45661211013794	fix_post	2		12	76.0	2.5	blank	1.0	337.5692250728607	0.10002994537353516
79	316.5566420555115	fix_pre	0		120	77.0	2.5	/experiments/AOT/AOT_stimuli/rescaled_final/0489_fw.mp4	0.0	337.66925501823425	0.9999110698699951
79	317.13260197639465	pulse	0	t		77.0	2.5	/experiments/AOT/AOT_stimuli/rescaled_final/0489_fw.mp4	0.0	338.24521493911743	
79	317.55655312538147	movie	1		244	77.0	2.5	/experiments/AOT/AOT_stimuli/rescaled_final/0489_fw.mp4	0.0	338.66916608810425	2.5000998973846436
79	318.74018692970276	pulse	1	t		77.0	2.5	/experiments/AOT/AOT_stimuli/rescaled_final/0489_fw.mp4	0.0	339.85279989242554	
79	320.0566530227661	fix_post	2		12	77.0	2.5	/experiments/AOT/AOT_stimuli/rescaled_final/0489_fw.mp4	0.0	341.1692659854889	0.09998798370361328
80	320.1566410064697	fix_pre	0		120	78.0	2.5	/experiments/AOT/AOT_stimuli/rescaled_final/0255_rv.mp4	0.0	341.2692539691925	1.0001239776611328
80	320.33255100250244	pulse	0	t		78.0	2.5	/experiments/AOT/AOT_stimuli/rescaled_final/0255_rv.mp4	0.0	341.4451639652252	
80	321.15676498413086	movie	1		243	78.0	2.5	/experiments/AOT/AOT_stimuli/rescaled_final/0255_rv.mp4	0.0	342.26937794685364	2.4998209476470947
80	321.9318449497223	pulse	1	t		78.0	2.5	/experiments/AOT/AOT_stimuli/rescaled_final/0255_rv.mp4	0.0	343.04445791244507	
80	323.5317461490631	pulse	1	t		78.0	2.5	/experiments/AOT/AOT_stimuli/rescaled_final/0255_rv.mp4	0.0	344.6443591117859	
80	323.65658593177795	fix_post	2		12	78.0	2.5	/experiments/AOT/AOT_stimuli/rescaled_final/0255_rv.mp4	0.0	344.76919889450073	0.10004401206970215
81	323.75662994384766	fix_pre	0		120	79.0	2.5	/experiments/AOT/AOT_stimuli/rescaled_final/0293_fw.mp4	0.0	344.86924290657043	0.9998769760131836
81	324.75650691986084	movie	1		245	79.0	2.5	/experiments/AOT/AOT_stimuli/rescaled_final/0293_fw.mp4	0.0	345.8691198825836	2.5000991821289062
81	325.13947010040283	pulse	1	t		79.0	2.5	/experiments/AOT/AOT_stimuli/rescaled_final/0293_fw.mp4	0.0	346.2520830631256	
81	326.7326469421387	pulse	1	t		79.0	2.5	/experiments/AOT/AOT_stimuli/rescaled_final/0293_fw.mp4	0.0	347.84525990486145	
81	327.25660610198975	fix_post	2		12	79.0	2.5	/experiments/AOT/AOT_stimuli/rescaled_final/0293_fw.mp4	0.0	348.3692190647125	0.09958100318908691
82	327.35618710517883	fix_pre	0		119	80.0	2.5	/experiments/AOT/AOT_stimuli/rescaled_final/1593_fw.mp4	0.0	348.4688000679016	0.9916620254516602
82	328.3397419452667	pulse	0	t		80.0	2.5	/experiments/AOT/AOT_stimuli/rescaled_final/1593_fw.mp4	0.0	349.4523549079895	
82	328.3478491306305	movie	1		245	80.0	2.5	/experiments/AOT/AOT_stimuli/rescaled_final/1593_fw.mp4	0.0	349.46046209335327	2.509079933166504
82	329.93979001045227	pulse	1	t		80.0	2.5	/experiments/AOT/AOT_stimuli/rescaled_final/1593_fw.mp4	0.0	351.05240297317505	
82	330.856929063797	fix_post	2		12	80.0	2.5	/experiments/AOT/AOT_stimuli/rescaled_final/1593_fw.mp4	0.0	351.9695420265198	0.09955906867980957
83	330.9564881324768	fix_pre	0		120	81.0	2.5	/experiments/AOT/AOT_stimuli/rescaled_final/1943_rv.mp4	0.0	352.0691010951996	1.0000510215759277
83	331.5325930118561	pulse	0	t		81.0	2.5	/experiments/AOT/AOT_stimuli/rescaled_final/1943_rv.mp4	0.0	352.64520597457886	
83	331.95653915405273	movie	1		243	81.0	2.5	/experiments/AOT/AOT_stimuli/rescaled_final/1943_rv.mp4	0.0	353.0691521167755	2.5000360012054443
83	333.14010214805603	pulse	1	t		81.0	2.5	/experiments/AOT/AOT_stimuli/rescaled_final/1943_rv.mp4	0.0	354.2527151107788	
83	334.4565751552582	fix_post	2		12	81.0	2.5	/experiments/AOT/AOT_stimuli/rescaled_final/1943_rv.mp4	0.0	355.56918811798096	0.09993696212768555
84	334.55651211738586	fix_pre	0		120	82.0	2.5	/experiments/AOT/AOT_stimuli/rescaled_final/1858_rv.mp4	0.0	355.66912508010864	1.0000009536743164
84	334.73251700401306	pulse	0	t		82.0	2.5	/experiments/AOT/AOT_stimuli/rescaled_final/1858_rv.mp4	0.0	355.84512996673584	
84	335.5565130710602	movie	1		243	82.0	2.5	/experiments/AOT/AOT_stimuli/rescaled_final/1858_rv.mp4	0.0	356.66912603378296	2.5000078678131104
84	336.3325409889221	pulse	1	t		82.0	2.5	/experiments/AOT/AOT_stimuli/rescaled_final/1858_rv.mp4	0.0	357.4451539516449	
84	337.9382150173187	pulse	1	t		82.0	2.5	/experiments/AOT/AOT_stimuli/rescaled_final/1858_rv.mp4	0.0	359.0508279800415	
84	338.0565209388733	fix_post	2		12	82.0	2.5	/experiments/AOT/AOT_stimuli/rescaled_final/1858_rv.mp4	0.0	359.16913390159607	0.10004115104675293
85	338.15656208992004	fix_pre	0		120	83.0	2.5	blank	1.0	359.2691750526428	0.9999289512634277
85	339.1564910411835	movie	1		300	83.0	2.5	blank	1.0	360.26910400390625	2.499958038330078
85	339.53238797187805	pulse	1	t		83.0	2.5	blank	1.0	360.64500093460083	
85	341.1401090621948	pulse	1	t		83.0	2.5	blank	1.0	362.2527220249176	
85	341.65644907951355	fix_post	2		12	83.0	2.5	blank	1.0	362.7690620422363	0.10008788108825684
87	341.7565369606018	stim	0		1716					362.8691499233246	14.299971103668213
87	342.732794046402	pulse	0	t						363.84540700912476	
87	344.3401379585266	pulse	0	t						365.4527509212494	
87	345.9327449798584	pulse	0	t						367.0453579425812	
87	347.53276014328003	pulse	0	t						368.6453731060028	
87	349.1324939727783	pulse	0	t						370.2451069355011	
87	350.73250102996826	pulse	0	t						371.84511399269104	
87	352.3324761390686	pulse	0	t						373.4450891017914	
87	353.93240094184875	pulse	0	t						375.04501390457153	
87	355.5324821472168	pulse	0	t						376.6450951099396	
