trial_nr	onset	event_type	phase	response	nr_frames	movie_index	movie_duration	movie_file	blank	onset_abs	duration
0	0.15817642211914062	stim	0		1					17.329296350479126	0.016576528549194336
0	0.11322140693664551	response	0	space						17.28434133529663	
1	0.17475295066833496	stim	0		4687					17.34587287902832	39.06613063812256
1	39.23125624656677	pulse	0	t						56.40237617492676	
1	39.240883588790894	stim	1		1715					56.41200351715088	14.300241947174072
1	40.83106589317322	pulse	1	t						58.0021858215332	
1	42.43131375312805	pulse	1	t						59.60243368148804	
1	44.03158211708069	pulse	1	t						61.202702045440674	
1	45.63184952735901	pulse	1	t						62.802969455718994	
1	47.23207473754883	pulse	1	t						64.40319466590881	
1	48.83229446411133	pulse	1	t						66.00341439247131	
1	50.43257784843445	pulse	1	t						67.60369777679443	
1	52.03285503387451	pulse	1	t						69.2039749622345	
2	53.541125535964966	fix_pre	0		12	0.0	2.5	/experiments/knapen_AOT/AOT_stimuli/rescaled_final/0475_rv.mp4	0.0	70.71224546432495	0.11670780181884766
2	53.633002519607544	pulse	0	t		0.0	2.5	/experiments/knapen_AOT/AOT_stimuli/rescaled_final/0475_rv.mp4	0.0	70.80412244796753	
2	53.65783333778381	movie	1		263	0.0	2.5	/experiments/knapen_AOT/AOT_stimuli/rescaled_final/0475_rv.mp4	0.0	70.8289532661438	2.4920313358306885
2	55.232383012771606	pulse	1	t		0.0	2.5	/experiments/knapen_AOT/AOT_stimuli/rescaled_final/0475_rv.mp4	0.0	72.40350294113159	
2	56.1498646736145	fix_post	2		12	0.0	2.5	/experiments/knapen_AOT/AOT_stimuli/rescaled_final/0475_rv.mp4	0.0	73.32098460197449	0.10007238388061523
3	56.24993705749512	fix_pre	0		120	1.0	2.5	/experiments/knapen_AOT/AOT_stimuli/rescaled_final/0710_rv.mp4	0.0	73.4210569858551	1.00852370262146
3	56.833513021469116	pulse	0	t		1.0	2.5	/experiments/knapen_AOT/AOT_stimuli/rescaled_final/0710_rv.mp4	0.0	74.0046329498291	
3	57.25846076011658	movie	1		286	1.0	2.5	/experiments/knapen_AOT/AOT_stimuli/rescaled_final/0710_rv.mp4	0.0	74.42958068847656	2.4919512271881104
3	58.432820558547974	pulse	1	t		1.0	2.5	/experiments/knapen_AOT/AOT_stimuli/rescaled_final/0710_rv.mp4	0.0	75.60394048690796	
3	59.75041198730469	fix_post	2		12	1.0	2.5	/experiments/knapen_AOT/AOT_stimuli/rescaled_final/0710_rv.mp4	0.0	76.92153191566467	0.10004854202270508
4	59.85046052932739	fix_pre	0		120	2.0	2.5	/experiments/knapen_AOT/AOT_stimuli/rescaled_final/0174_fw.mp4	0.0	77.02158045768738	1.0085163116455078
4	60.034019470214844	pulse	0	t		2.0	2.5	/experiments/knapen_AOT/AOT_stimuli/rescaled_final/0174_fw.mp4	0.0	77.20513939857483	
4	60.8589768409729	movie	1		270	2.0	2.5	/experiments/knapen_AOT/AOT_stimuli/rescaled_final/0174_fw.mp4	0.0	78.03009676933289	2.491957426071167
4	61.63230514526367	pulse	1	t		2.0	2.5	/experiments/knapen_AOT/AOT_stimuli/rescaled_final/0174_fw.mp4	0.0	78.80342507362366	
4	63.234148025512695	pulse	1	t		2.0	2.5	/experiments/knapen_AOT/AOT_stimuli/rescaled_final/0174_fw.mp4	0.0	80.40526795387268	
4	63.35093426704407	fix_post	2		12	2.0	2.5	/experiments/knapen_AOT/AOT_stimuli/rescaled_final/0174_fw.mp4	0.0	80.52205419540405	0.10007476806640625
5	63.451009035110474	fix_pre	0		120	3.0	2.5	/experiments/knapen_AOT/AOT_stimuli/rescaled_final/0369_rv.mp4	0.0	80.62212896347046	1.0084593296051025
5	64.45946836471558	movie	1		279	3.0	2.5	/experiments/knapen_AOT/AOT_stimuli/rescaled_final/0369_rv.mp4	0.0	81.63058829307556	2.4919984340667725
5	64.83335947990417	pulse	1	t		3.0	2.5	/experiments/knapen_AOT/AOT_stimuli/rescaled_final/0369_rv.mp4	0.0	82.00447940826416	
5	66.43262982368469	pulse	1	t		3.0	2.5	/experiments/knapen_AOT/AOT_stimuli/rescaled_final/0369_rv.mp4	0.0	83.60374975204468	
5	66.95146679878235	fix_post	2		12	3.0	2.5	/experiments/knapen_AOT/AOT_stimuli/rescaled_final/0369_rv.mp4	0.0	84.12258672714233	0.10001087188720703
6	67.05147767066956	fix_pre	0		119	4.0	2.5	/experiments/knapen_AOT/AOT_stimuli/rescaled_final/0706_fw.mp4	0.0	84.22259759902954	1.0001983642578125
6	68.03514909744263	pulse	0	t		4.0	2.5	/experiments/knapen_AOT/AOT_stimuli/rescaled_final/0706_fw.mp4	0.0	85.20626902580261	
6	68.05167603492737	movie	1		277	4.0	2.5	/experiments/knapen_AOT/AOT_stimuli/rescaled_final/0706_fw.mp4	0.0	85.22279596328735	2.5005581378936768
6	69.6339476108551	pulse	1	t		4.0	2.5	/experiments/knapen_AOT/AOT_stimuli/rescaled_final/0706_fw.mp4	0.0	86.80506753921509	
6	70.55223417282104	fix_post	2		12	4.0	2.5	/experiments/knapen_AOT/AOT_stimuli/rescaled_final/0706_fw.mp4	0.0	87.72335410118103	0.09979677200317383
7	70.65203094482422	fix_pre	0		120	5.0	2.5	/experiments/knapen_AOT/AOT_stimuli/rescaled_final/1139_rv.mp4	0.0	87.8231508731842	1.008561372756958
7	71.23566889762878	pulse	0	t		5.0	2.5	/experiments/knapen_AOT/AOT_stimuli/rescaled_final/1139_rv.mp4	0.0	88.40678882598877	
7	71.66059231758118	movie	1		273	5.0	2.5	/experiments/knapen_AOT/AOT_stimuli/rescaled_final/1139_rv.mp4	0.0	88.83171224594116	2.491976022720337
7	72.83385300636292	pulse	1	t		5.0	2.5	/experiments/knapen_AOT/AOT_stimuli/rescaled_final/1139_rv.mp4	0.0	90.0049729347229	
7	74.15256834030151	fix_post	2		12	5.0	2.5	/experiments/knapen_AOT/AOT_stimuli/rescaled_final/1139_rv.mp4	0.0	91.3236882686615	0.10000872611999512
8	74.25257706642151	fix_pre	0		120	6.0	2.5	blank	1.0	91.4236969947815	1.000145435333252
8	74.4361343383789	pulse	0	t		6.0	2.5	blank	1.0	91.60725426673889	
8	75.25272250175476	movie	1		300	6.0	2.5	blank	1.0	92.42384243011475	2.5003652572631836
8	76.02860140800476	pulse	1	t		6.0	2.5	blank	1.0	93.19972133636475	
8	77.62872862815857	pulse	1	t		6.0	2.5	blank	1.0	94.79984855651855	
8	77.75308775901794	fix_post	2		12	6.0	2.5	blank	1.0	94.92420768737793	0.10002279281616211
9	77.8531105518341	fix_pre	0		120	7.0	2.5	/experiments/knapen_AOT/AOT_stimuli/rescaled_final/1528_fw.mp4	0.0	95.02423048019409	1.0084846019744873
9	78.8615951538086	movie	1		281	7.0	2.5	/experiments/knapen_AOT/AOT_stimuli/rescaled_final/1528_fw.mp4	0.0	96.03271508216858	2.49214506149292
9	79.22891020774841	pulse	1	t		7.0	2.5	/experiments/knapen_AOT/AOT_stimuli/rescaled_final/1528_fw.mp4	0.0	96.4000301361084	
9	80.82985281944275	pulse	1	t		7.0	2.5	/experiments/knapen_AOT/AOT_stimuli/rescaled_final/1528_fw.mp4	0.0	98.00097274780273	
9	81.35374021530151	fix_post	2		12	7.0	2.5	/experiments/knapen_AOT/AOT_stimuli/rescaled_final/1528_fw.mp4	0.0	98.5248601436615	0.09997105598449707
10	81.45371127128601	fix_pre	0		118	8.0	2.5	/experiments/knapen_AOT/AOT_stimuli/rescaled_final/1421_fw.mp4	0.0	98.624831199646	0.9917628765106201
10	82.4290771484375	pulse	0	t		8.0	2.5	/experiments/knapen_AOT/AOT_stimuli/rescaled_final/1421_fw.mp4	0.0	99.60019707679749	
10	82.44547414779663	movie	1		277	8.0	2.5	/experiments/knapen_AOT/AOT_stimuli/rescaled_final/1421_fw.mp4	0.0	99.61659407615662	2.500525712966919
10	84.02933931350708	pulse	1	t		8.0	2.5	/experiments/knapen_AOT/AOT_stimuli/rescaled_final/1421_fw.mp4	0.0	101.20045924186707	
10	84.94599986076355	fix_post	2		12	8.0	2.5	/experiments/knapen_AOT/AOT_stimuli/rescaled_final/1421_fw.mp4	0.0	102.11711978912354	0.10002803802490234
11	85.04602789878845	fix_pre	0		120	9.0	2.5	/experiments/knapen_AOT/AOT_stimuli/rescaled_final/1135_fw.mp4	0.0	102.21714782714844	1.0083320140838623
11	85.62981534004211	pulse	0	t		9.0	2.5	/experiments/knapen_AOT/AOT_stimuli/rescaled_final/1135_fw.mp4	0.0	102.8009352684021	
11	86.05435991287231	movie	1		264	9.0	2.5	/experiments/knapen_AOT/AOT_stimuli/rescaled_final/1135_fw.mp4	0.0	103.2254798412323	2.492015838623047
11	87.22886919975281	pulse	1	t		9.0	2.5	/experiments/knapen_AOT/AOT_stimuli/rescaled_final/1135_fw.mp4	0.0	104.3999891281128	
11	88.54637575149536	fix_post	2		12	9.0	2.5	/experiments/knapen_AOT/AOT_stimuli/rescaled_final/1135_fw.mp4	0.0	105.71749567985535	0.10003280639648438
12	88.64640855789185	fix_pre	0		120	10.0	2.5	/experiments/knapen_AOT/AOT_stimuli/rescaled_final/2066_rv.mp4	0.0	105.81752848625183	1.0085206031799316
12	88.82993793487549	pulse	0	t		10.0	2.5	/experiments/knapen_AOT/AOT_stimuli/rescaled_final/2066_rv.mp4	0.0	106.00105786323547	
12	89.65492916107178	movie	1		280	10.0	2.5	/experiments/knapen_AOT/AOT_stimuli/rescaled_final/2066_rv.mp4	0.0	106.82604908943176	2.4920997619628906
12	90.4304666519165	pulse	1	t		10.0	2.5	/experiments/knapen_AOT/AOT_stimuli/rescaled_final/2066_rv.mp4	0.0	107.60158658027649	
12	92.03048157691956	pulse	1	t		10.0	2.5	/experiments/knapen_AOT/AOT_stimuli/rescaled_final/2066_rv.mp4	0.0	109.20160150527954	
12	92.14702892303467	fix_post	2		12	10.0	2.5	/experiments/knapen_AOT/AOT_stimuli/rescaled_final/2066_rv.mp4	0.0	109.31814885139465	0.0999152660369873
13	92.24694418907166	fix_pre	0		120	11.0	2.5	/experiments/knapen_AOT/AOT_stimuli/rescaled_final/1623_rv.mp4	0.0	109.41806411743164	1.0086541175842285
13	93.25559830665588	movie	1		280	11.0	2.5	/experiments/knapen_AOT/AOT_stimuli/rescaled_final/1623_rv.mp4	0.0	110.42671823501587	2.4919593334198
13	93.63003587722778	pulse	1	t		11.0	2.5	/experiments/knapen_AOT/AOT_stimuli/rescaled_final/1623_rv.mp4	0.0	110.80115580558777	
13	95.23009157180786	pulse	1	t		11.0	2.5	/experiments/knapen_AOT/AOT_stimuli/rescaled_final/1623_rv.mp4	0.0	112.40121150016785	
13	95.74755764007568	fix_post	2		12	11.0	2.5	/experiments/knapen_AOT/AOT_stimuli/rescaled_final/1623_rv.mp4	0.0	112.91867756843567	0.09996581077575684
14	95.84752345085144	fix_pre	0		119	12.0	2.5	/experiments/knapen_AOT/AOT_stimuli/rescaled_final/1855_fw.mp4	0.0	113.01864337921143	1.000115156173706
14	96.83117341995239	pulse	0	t		12.0	2.5	/experiments/knapen_AOT/AOT_stimuli/rescaled_final/1855_fw.mp4	0.0	114.00229334831238	
14	96.84763860702515	movie	1		277	12.0	2.5	/experiments/knapen_AOT/AOT_stimuli/rescaled_final/1855_fw.mp4	0.0	114.01875853538513	2.500445604324341
14	98.42992615699768	pulse	1	t		12.0	2.5	/experiments/knapen_AOT/AOT_stimuli/rescaled_final/1855_fw.mp4	0.0	115.60104608535767	
14	99.34808421134949	fix_post	2		12	12.0	2.5	/experiments/knapen_AOT/AOT_stimuli/rescaled_final/1855_fw.mp4	0.0	116.51920413970947	0.09999227523803711
15	99.44807648658752	fix_pre	0		120	13.0	2.5	/experiments/knapen_AOT/AOT_stimuli/rescaled_final/0352_fw.mp4	0.0	116.61919641494751	1.0084764957427979
15	100.03170013427734	pulse	0	t		13.0	2.5	/experiments/knapen_AOT/AOT_stimuli/rescaled_final/0352_fw.mp4	0.0	117.20282006263733	
15	100.45655298233032	movie	1		281	13.0	2.5	/experiments/knapen_AOT/AOT_stimuli/rescaled_final/0352_fw.mp4	0.0	117.62767291069031	2.4921162128448486
15	101.63238835334778	pulse	1	t		13.0	2.5	/experiments/knapen_AOT/AOT_stimuli/rescaled_final/0352_fw.mp4	0.0	118.80350828170776	
15	102.94866919517517	fix_post	2		12	13.0	2.5	/experiments/knapen_AOT/AOT_stimuli/rescaled_final/0352_fw.mp4	0.0	120.11978912353516	0.09991836547851562
16	103.04858756065369	fix_pre	0		120	14.0	2.5	blank	1.0	120.21970748901367	1.0001354217529297
16	103.23245477676392	pulse	0	t		14.0	2.5	blank	1.0	120.4035747051239	
16	104.04872298240662	movie	1		300	14.0	2.5	blank	1.0	121.2198429107666	2.500382900238037
16	104.83268141746521	pulse	1	t		14.0	2.5	blank	1.0	122.0038013458252	
16	106.43276929855347	pulse	1	t		14.0	2.5	blank	1.0	123.60388922691345	
16	106.54910588264465	fix_post	2		12	14.0	2.5	blank	1.0	123.72022581100464	0.1001136302947998
17	106.64921951293945	fix_pre	0		120	15.0	2.5	/experiments/knapen_AOT/AOT_stimuli/rescaled_final/1288_rv.mp4	0.0	123.82033944129944	1.0085792541503906
17	107.65779876708984	movie	1		289	15.0	2.5	/experiments/knapen_AOT/AOT_stimuli/rescaled_final/1288_rv.mp4	0.0	124.82891869544983	2.4918322563171387
17	108.03317928314209	pulse	1	t		15.0	2.5	/experiments/knapen_AOT/AOT_stimuli/rescaled_final/1288_rv.mp4	0.0	125.20429921150208	
17	109.63131737709045	pulse	1	t		15.0	2.5	/experiments/knapen_AOT/AOT_stimuli/rescaled_final/1288_rv.mp4	0.0	126.80243730545044	
17	110.14963102340698	fix_post	2		12	15.0	2.5	/experiments/knapen_AOT/AOT_stimuli/rescaled_final/1288_rv.mp4	0.0	127.32075095176697	0.10001111030578613
18	110.24964213371277	fix_pre	0		119	16.0	2.5	/experiments/knapen_AOT/AOT_stimuli/rescaled_final/1921_fw.mp4	0.0	127.42076206207275	1.0001370906829834
18	111.23340582847595	pulse	0	t		16.0	2.5	/experiments/knapen_AOT/AOT_stimuli/rescaled_final/1921_fw.mp4	0.0	128.40452575683594	
18	111.24977922439575	movie	1		272	16.0	2.5	/experiments/knapen_AOT/AOT_stimuli/rescaled_final/1921_fw.mp4	0.0	128.42089915275574	2.500575542449951
18	112.83224153518677	pulse	1	t		16.0	2.5	/experiments/knapen_AOT/AOT_stimuli/rescaled_final/1921_fw.mp4	0.0	130.00336146354675	
18	113.7503547668457	fix_post	2		12	16.0	2.5	/experiments/knapen_AOT/AOT_stimuli/rescaled_final/1921_fw.mp4	0.0	130.9214746952057	0.09981727600097656
19	113.85017204284668	fix_pre	0		120	17.0	2.5	/experiments/knapen_AOT/AOT_stimuli/rescaled_final/0078_rv.mp4	0.0	131.02129197120667	1.0085289478302002
19	114.43383049964905	pulse	0	t		17.0	2.5	/experiments/knapen_AOT/AOT_stimuli/rescaled_final/0078_rv.mp4	0.0	131.60495042800903	
19	114.85870099067688	movie	1		251	17.0	2.5	/experiments/knapen_AOT/AOT_stimuli/rescaled_final/0078_rv.mp4	0.0	132.02982091903687	2.492016553878784
19	116.0324866771698	pulse	1	t		17.0	2.5	/experiments/knapen_AOT/AOT_stimuli/rescaled_final/0078_rv.mp4	0.0	133.20360660552979	
19	117.35071754455566	fix_post	2		12	17.0	2.5	/experiments/knapen_AOT/AOT_stimuli/rescaled_final/0078_rv.mp4	0.0	134.52183747291565	0.10004234313964844
20	117.45075988769531	fix_pre	0		120	18.0	2.5	/experiments/knapen_AOT/AOT_stimuli/rescaled_final/2170_fw.mp4	0.0	134.6218798160553	1.0084576606750488
20	117.63429737091064	pulse	0	t		18.0	2.5	/experiments/knapen_AOT/AOT_stimuli/rescaled_final/2170_fw.mp4	0.0	134.80541729927063	
20	118.45921754837036	movie	1		276	18.0	2.5	/experiments/knapen_AOT/AOT_stimuli/rescaled_final/2170_fw.mp4	0.0	135.63033747673035	2.492060899734497
20	119.2321891784668	pulse	1	t		18.0	2.5	/experiments/knapen_AOT/AOT_stimuli/rescaled_final/2170_fw.mp4	0.0	136.40330910682678	
20	120.83276748657227	pulse	1	t		18.0	2.5	/experiments/knapen_AOT/AOT_stimuli/rescaled_final/2170_fw.mp4	0.0	138.00388741493225	
20	120.95127844810486	fix_post	2		12	18.0	2.5	/experiments/knapen_AOT/AOT_stimuli/rescaled_final/2170_fw.mp4	0.0	138.12239837646484	0.10006570816040039
21	121.05134415626526	fix_pre	0		120	19.0	2.5	/experiments/knapen_AOT/AOT_stimuli/rescaled_final/0980_rv.mp4	0.0	138.22246408462524	1.0084960460662842
21	122.05984020233154	movie	1		282	19.0	2.5	/experiments/knapen_AOT/AOT_stimuli/rescaled_final/0980_rv.mp4	0.0	139.23096013069153	2.4921679496765137
21	122.43340563774109	pulse	1	t		19.0	2.5	/experiments/knapen_AOT/AOT_stimuli/rescaled_final/0980_rv.mp4	0.0	139.60452556610107	
21	124.03314447402954	pulse	1	t		19.0	2.5	/experiments/knapen_AOT/AOT_stimuli/rescaled_final/0980_rv.mp4	0.0	141.20426440238953	
21	124.55200815200806	fix_post	2		12	19.0	2.5	/experiments/knapen_AOT/AOT_stimuli/rescaled_final/0980_rv.mp4	0.0	141.72312808036804	0.10001492500305176
22	124.65202307701111	fix_pre	0		119	20.0	2.5	/experiments/knapen_AOT/AOT_stimuli/rescaled_final/1855_rv.mp4	0.0	141.8231430053711	0.9999661445617676
22	125.63560652732849	pulse	0	t		20.0	2.5	/experiments/knapen_AOT/AOT_stimuli/rescaled_final/1855_rv.mp4	0.0	142.80672645568848	
22	125.65198922157288	movie	1		279	20.0	2.5	/experiments/knapen_AOT/AOT_stimuli/rescaled_final/1855_rv.mp4	0.0	142.82310914993286	2.500706434249878
22	127.23389148712158	pulse	1	t		20.0	2.5	/experiments/knapen_AOT/AOT_stimuli/rescaled_final/1855_rv.mp4	0.0	144.40501141548157	
22	128.15269565582275	fix_post	2		12	20.0	2.5	/experiments/knapen_AOT/AOT_stimuli/rescaled_final/1855_rv.mp4	0.0	145.32381558418274	0.09971117973327637
23	128.25240683555603	fix_pre	0		120	21.0	2.5	blank	1.0	145.42352676391602	1.0001180171966553
23	128.8279345035553	pulse	0	t		21.0	2.5	blank	1.0	145.99905443191528	
23	129.25252485275269	movie	1		300	21.0	2.5	blank	1.0	146.42364478111267	2.500377893447876
23	130.42817640304565	pulse	1	t		21.0	2.5	blank	1.0	147.59929633140564	
23	131.75290274620056	fix_post	2		12	21.0	2.5	blank	1.0	148.92402267456055	0.10000276565551758
24	131.85290551185608	fix_pre	0		120	22.0	2.5	/experiments/knapen_AOT/AOT_stimuli/rescaled_final/0857_fw.mp4	0.0	149.02402544021606	1.0085055828094482
24	132.0282108783722	pulse	0	t		22.0	2.5	/experiments/knapen_AOT/AOT_stimuli/rescaled_final/0857_fw.mp4	0.0	149.19933080673218	
24	132.86141109466553	movie	1		287	22.0	2.5	/experiments/knapen_AOT/AOT_stimuli/rescaled_final/0857_fw.mp4	0.0	150.0325310230255	2.4921176433563232
24	133.62873148918152	pulse	1	t		22.0	2.5	/experiments/knapen_AOT/AOT_stimuli/rescaled_final/0857_fw.mp4	0.0	150.7998514175415	
24	135.22861981391907	pulse	1	t		22.0	2.5	/experiments/knapen_AOT/AOT_stimuli/rescaled_final/0857_fw.mp4	0.0	152.39973974227905	
24	135.35352873802185	fix_post	2		12	22.0	2.5	/experiments/knapen_AOT/AOT_stimuli/rescaled_final/0857_fw.mp4	0.0	152.52464866638184	0.10000300407409668
25	135.45353174209595	fix_pre	0		120	23.0	2.5	/experiments/knapen_AOT/AOT_stimuli/rescaled_final/1917_fw.mp4	0.0	152.62465167045593	1.008406162261963
25	136.4619379043579	movie	1		274	23.0	2.5	/experiments/knapen_AOT/AOT_stimuli/rescaled_final/1917_fw.mp4	0.0	153.6330578327179	2.492251396179199
25	136.82889223098755	pulse	1	t		23.0	2.5	/experiments/knapen_AOT/AOT_stimuli/rescaled_final/1917_fw.mp4	0.0	154.00001215934753	
25	138.42959022521973	pulse	1	t		23.0	2.5	/experiments/knapen_AOT/AOT_stimuli/rescaled_final/1917_fw.mp4	0.0	155.6007101535797	
25	138.9541893005371	fix_post	2		12	23.0	2.5	/experiments/knapen_AOT/AOT_stimuli/rescaled_final/1917_fw.mp4	0.0	156.1253092288971	0.09978032112121582
26	139.05396962165833	fix_pre	0		118	24.0	2.5	/experiments/knapen_AOT/AOT_stimuli/rescaled_final/0029_fw.mp4	0.0	156.2250895500183	0.991832971572876
26	140.02938294410706	pulse	0	t		24.0	2.5	/experiments/knapen_AOT/AOT_stimuli/rescaled_final/0029_fw.mp4	0.0	157.20050287246704	
26	140.0458025932312	movie	1		269	24.0	2.5	/experiments/knapen_AOT/AOT_stimuli/rescaled_final/0029_fw.mp4	0.0	157.2169225215912	2.5003621578216553
26	141.6295142173767	pulse	1	t		24.0	2.5	/experiments/knapen_AOT/AOT_stimuli/rescaled_final/0029_fw.mp4	0.0	158.8006341457367	
26	142.54616475105286	fix_post	2		12	24.0	2.5	/experiments/knapen_AOT/AOT_stimuli/rescaled_final/0029_fw.mp4	0.0	159.71728467941284	0.10001277923583984
27	142.6461775302887	fix_pre	0		120	25.0	2.5	/experiments/knapen_AOT/AOT_stimuli/rescaled_final/1678_rv.mp4	0.0	159.81729745864868	1.0086939334869385
27	143.22981238365173	pulse	0	t		25.0	2.5	/experiments/knapen_AOT/AOT_stimuli/rescaled_final/1678_rv.mp4	0.0	160.40093231201172	
27	143.65487146377563	movie	1		274	25.0	2.5	/experiments/knapen_AOT/AOT_stimuli/rescaled_final/1678_rv.mp4	0.0	160.82599139213562	2.492384910583496
27	144.82855582237244	pulse	1	t		25.0	2.5	/experiments/knapen_AOT/AOT_stimuli/rescaled_final/1678_rv.mp4	0.0	161.99967575073242	
27	146.14725637435913	fix_post	2		12	25.0	2.5	/experiments/knapen_AOT/AOT_stimuli/rescaled_final/1678_rv.mp4	0.0	163.31837630271912	0.09966301918029785
28	146.24691939353943	fix_pre	0		120	26.0	2.5	blank	1.0	163.4180393218994	1.0000030994415283
28	146.43041682243347	pulse	0	t		26.0	2.5	blank	1.0	163.60153675079346	
28	147.24692249298096	movie	1		300	26.0	2.5	blank	1.0	164.41804242134094	2.5004775524139404
28	148.03051900863647	pulse	1	t		26.0	2.5	blank	1.0	165.20163893699646	
28	149.630784034729	pulse	1	t		26.0	2.5	blank	1.0	166.801903963089	
28	149.7474000453949	fix_post	2		12	26.0	2.5	blank	1.0	166.91851997375488	0.0998685359954834
29	149.84726858139038	fix_pre	0		120	27.0	2.5	/experiments/knapen_AOT/AOT_stimuli/rescaled_final/1766_fw.mp4	0.0	167.01838850975037	1.0084843635559082
29	150.8557529449463	movie	1		262	27.0	2.5	/experiments/knapen_AOT/AOT_stimuli/rescaled_final/1766_fw.mp4	0.0	168.02687287330627	2.492051601409912
29	151.23102355003357	pulse	1	t		27.0	2.5	/experiments/knapen_AOT/AOT_stimuli/rescaled_final/1766_fw.mp4	0.0	168.40214347839355	
29	152.82912230491638	pulse	1	t		27.0	2.5	/experiments/knapen_AOT/AOT_stimuli/rescaled_final/1766_fw.mp4	0.0	170.00024223327637	
29	153.3478045463562	fix_post	2		12	27.0	2.5	/experiments/knapen_AOT/AOT_stimuli/rescaled_final/1766_fw.mp4	0.0	170.5189244747162	0.09999370574951172
30	153.4477982521057	fix_pre	0		119	28.0	2.5	/experiments/knapen_AOT/AOT_stimuli/rescaled_final/0758_fw.mp4	0.0	170.6189181804657	1.0001428127288818
30	154.43141317367554	pulse	0	t		28.0	2.5	/experiments/knapen_AOT/AOT_stimuli/rescaled_final/0758_fw.mp4	0.0	171.60253310203552	
30	154.4479410648346	movie	1		279	28.0	2.5	/experiments/knapen_AOT/AOT_stimuli/rescaled_final/0758_fw.mp4	0.0	171.61906099319458	2.50038743019104
30	156.03029799461365	pulse	1	t		28.0	2.5	/experiments/knapen_AOT/AOT_stimuli/rescaled_final/0758_fw.mp4	0.0	173.20141792297363	
30	156.94832849502563	fix_post	2		12	28.0	2.5	/experiments/knapen_AOT/AOT_stimuli/rescaled_final/0758_fw.mp4	0.0	174.11944842338562	0.10008382797241211
31	157.04841232299805	fix_pre	0		120	29.0	2.5	/experiments/knapen_AOT/AOT_stimuli/rescaled_final/1337_fw.mp4	0.0	174.21953225135803	1.0084524154663086
31	157.63189816474915	pulse	0	t		29.0	2.5	/experiments/knapen_AOT/AOT_stimuli/rescaled_final/1337_fw.mp4	0.0	174.80301809310913	
31	158.05686473846436	movie	1		263	29.0	2.5	/experiments/knapen_AOT/AOT_stimuli/rescaled_final/1337_fw.mp4	0.0	175.22798466682434	2.4924542903900146
31	159.2309386730194	pulse	1	t		29.0	2.5	/experiments/knapen_AOT/AOT_stimuli/rescaled_final/1337_fw.mp4	0.0	176.4020586013794	
31	160.54931902885437	fix_post	2		12	29.0	2.5	/experiments/knapen_AOT/AOT_stimuli/rescaled_final/1337_fw.mp4	0.0	177.72043895721436	0.09963798522949219
32	160.64895701408386	fix_pre	0		120	30.0	2.5	/experiments/knapen_AOT/AOT_stimuli/rescaled_final/1347_rv.mp4	0.0	177.82007694244385	1.0087480545043945
32	160.83248376846313	pulse	0	t		30.0	2.5	/experiments/knapen_AOT/AOT_stimuli/rescaled_final/1347_rv.mp4	0.0	178.00360369682312	
32	161.65770506858826	movie	1		288	30.0	2.5	/experiments/knapen_AOT/AOT_stimuli/rescaled_final/1347_rv.mp4	0.0	178.82882499694824	2.4917633533477783
32	162.4308762550354	pulse	1	t		30.0	2.5	/experiments/knapen_AOT/AOT_stimuli/rescaled_final/1347_rv.mp4	0.0	179.60199618339539	
32	164.03102660179138	pulse	1	t		30.0	2.5	/experiments/knapen_AOT/AOT_stimuli/rescaled_final/1347_rv.mp4	0.0	181.20214653015137	
32	164.14946842193604	fix_post	2		12	30.0	2.5	/experiments/knapen_AOT/AOT_stimuli/rescaled_final/1347_rv.mp4	0.0	181.32058835029602	0.10025286674499512
33	164.24972128868103	fix_pre	0		120	31.0	2.5	/experiments/knapen_AOT/AOT_stimuli/rescaled_final/1639_fw.mp4	0.0	181.42084121704102	1.0082993507385254
33	165.25802063941956	movie	1		277	31.0	2.5	/experiments/knapen_AOT/AOT_stimuli/rescaled_final/1639_fw.mp4	0.0	182.42914056777954	2.4920291900634766
33	165.63249015808105	pulse	1	t		31.0	2.5	/experiments/knapen_AOT/AOT_stimuli/rescaled_final/1639_fw.mp4	0.0	182.80361008644104	
33	167.23149180412292	pulse	1	t		31.0	2.5	/experiments/knapen_AOT/AOT_stimuli/rescaled_final/1639_fw.mp4	0.0	184.4026117324829	
33	167.75004982948303	fix_post	2		12	31.0	2.5	/experiments/knapen_AOT/AOT_stimuli/rescaled_final/1639_fw.mp4	0.0	184.92116975784302	0.09994935989379883
34	167.84999918937683	fix_pre	0		119	32.0	2.5	/experiments/knapen_AOT/AOT_stimuli/rescaled_final/0758_rv.mp4	0.0	185.02111911773682	1.0001213550567627
34	168.83363676071167	pulse	0	t		32.0	2.5	/experiments/knapen_AOT/AOT_stimuli/rescaled_final/0758_rv.mp4	0.0	186.00475668907166	
34	168.8501205444336	movie	1		277	32.0	2.5	/experiments/knapen_AOT/AOT_stimuli/rescaled_final/0758_rv.mp4	0.0	186.02124047279358	2.5003910064697266
34	170.43210816383362	pulse	1	t		32.0	2.5	/experiments/knapen_AOT/AOT_stimuli/rescaled_final/0758_rv.mp4	0.0	187.6032280921936	
34	171.35051155090332	fix_post	2		12	32.0	2.5	/experiments/knapen_AOT/AOT_stimuli/rescaled_final/0758_rv.mp4	0.0	188.5216314792633	0.10012197494506836
35	171.4506335258484	fix_pre	0		120	33.0	2.5	blank	1.0	188.62175345420837	1.000016212463379
35	172.03415083885193	pulse	0	t		33.0	2.5	blank	1.0	189.2052707672119	
35	172.45064973831177	movie	1		300	33.0	2.5	blank	1.0	189.62176966667175	2.500427484512329
35	173.63438272476196	pulse	1	t		33.0	2.5	blank	1.0	190.80550265312195	
35	174.9510772228241	fix_post	2		12	33.0	2.5	blank	1.0	192.12219715118408	0.10000038146972656
36	175.05107760429382	fix_pre	0		120	34.0	2.5	/experiments/knapen_AOT/AOT_stimuli/rescaled_final/1732_fw.mp4	0.0	192.2221975326538	1.0085878372192383
36	175.2346658706665	pulse	0	t		34.0	2.5	/experiments/knapen_AOT/AOT_stimuli/rescaled_final/1732_fw.mp4	0.0	192.4057857990265	
36	176.05966544151306	movie	1		277	34.0	2.5	/experiments/knapen_AOT/AOT_stimuli/rescaled_final/1732_fw.mp4	0.0	193.23078536987305	2.4920096397399902
36	176.8328824043274	pulse	1	t		34.0	2.5	/experiments/knapen_AOT/AOT_stimuli/rescaled_final/1732_fw.mp4	0.0	194.00400233268738	
36	178.4333086013794	pulse	1	t		34.0	2.5	/experiments/knapen_AOT/AOT_stimuli/rescaled_final/1732_fw.mp4	0.0	195.60442852973938	
36	178.55167508125305	fix_post	2		12	34.0	2.5	/experiments/knapen_AOT/AOT_stimuli/rescaled_final/1732_fw.mp4	0.0	195.72279500961304	0.09990787506103516
37	178.6515829563141	fix_pre	0		120	35.0	2.5	/experiments/knapen_AOT/AOT_stimuli/rescaled_final/0457_fw.mp4	0.0	195.82270288467407	1.0085625648498535
37	179.66014552116394	movie	1		274	35.0	2.5	/experiments/knapen_AOT/AOT_stimuli/rescaled_final/0457_fw.mp4	0.0	196.83126544952393	2.492016553878784
37	180.034681558609	pulse	1	t		35.0	2.5	/experiments/knapen_AOT/AOT_stimuli/rescaled_final/0457_fw.mp4	0.0	197.205801486969	
37	181.63363909721375	pulse	1	t		35.0	2.5	/experiments/knapen_AOT/AOT_stimuli/rescaled_final/0457_fw.mp4	0.0	198.80475902557373	
37	182.15216207504272	fix_post	2		12	35.0	2.5	/experiments/knapen_AOT/AOT_stimuli/rescaled_final/0457_fw.mp4	0.0	199.3232820034027	0.10000324249267578
38	182.2521653175354	fix_pre	0		119	36.0	2.5	/experiments/knapen_AOT/AOT_stimuli/rescaled_final/0899_fw.mp4	0.0	199.42328524589539	1.0002233982086182
38	183.23584461212158	pulse	0	t		36.0	2.5	/experiments/knapen_AOT/AOT_stimuli/rescaled_final/0899_fw.mp4	0.0	200.40696454048157	
38	183.25238871574402	movie	1		281	36.0	2.5	/experiments/knapen_AOT/AOT_stimuli/rescaled_final/0899_fw.mp4	0.0	200.423508644104	2.5005264282226562
38	184.83461499214172	pulse	1	t		36.0	2.5	/experiments/knapen_AOT/AOT_stimuli/rescaled_final/0899_fw.mp4	0.0	202.0057349205017	
38	185.75291514396667	fix_post	2		12	36.0	2.5	/experiments/knapen_AOT/AOT_stimuli/rescaled_final/0899_fw.mp4	0.0	202.92403507232666	0.10033464431762695
39	185.8532497882843	fix_pre	0		120	37.0	2.5	/experiments/knapen_AOT/AOT_stimuli/rescaled_final/0372_rv.mp4	0.0	203.0243697166443	1.0079898834228516
39	186.42857217788696	pulse	0	t		37.0	2.5	/experiments/knapen_AOT/AOT_stimuli/rescaled_final/0372_rv.mp4	0.0	203.59969210624695	
39	186.86123967170715	movie	1		263	37.0	2.5	/experiments/knapen_AOT/AOT_stimuli/rescaled_final/0372_rv.mp4	0.0	204.03235960006714	2.4921059608459473
39	188.02850604057312	pulse	1	t		37.0	2.5	/experiments/knapen_AOT/AOT_stimuli/rescaled_final/0372_rv.mp4	0.0	205.1996259689331	
39	189.3533456325531	fix_post	2		12	37.0	2.5	/experiments/knapen_AOT/AOT_stimuli/rescaled_final/0372_rv.mp4	0.0	206.5244655609131	0.09996414184570312
40	189.4533097743988	fix_pre	0		120	38.0	2.5	/experiments/knapen_AOT/AOT_stimuli/rescaled_final/1794_rv.mp4	0.0	206.6244297027588	1.0085904598236084
40	189.62852478027344	pulse	0	t		38.0	2.5	/experiments/knapen_AOT/AOT_stimuli/rescaled_final/1794_rv.mp4	0.0	206.79964470863342	
40	190.4619002342224	movie	1		276	38.0	2.5	/experiments/knapen_AOT/AOT_stimuli/rescaled_final/1794_rv.mp4	0.0	207.6330201625824	2.4918389320373535
40	191.22913908958435	pulse	1	t		38.0	2.5	/experiments/knapen_AOT/AOT_stimuli/rescaled_final/1794_rv.mp4	0.0	208.40025901794434	
40	192.8289487361908	pulse	1	t		38.0	2.5	/experiments/knapen_AOT/AOT_stimuli/rescaled_final/1794_rv.mp4	0.0	210.00006866455078	
40	192.95373916625977	fix_post	2		12	38.0	2.5	/experiments/knapen_AOT/AOT_stimuli/rescaled_final/1794_rv.mp4	0.0	210.12485909461975	0.10011005401611328
41	193.05384922027588	fix_pre	0		120	39.0	2.5	/experiments/knapen_AOT/AOT_stimuli/rescaled_final/1058_rv.mp4	0.0	210.22496914863586	1.0086724758148193
41	194.0625216960907	movie	1		269	39.0	2.5	/experiments/knapen_AOT/AOT_stimuli/rescaled_final/1058_rv.mp4	0.0	211.23364162445068	2.491870403289795
41	194.42923736572266	pulse	1	t		39.0	2.5	/experiments/knapen_AOT/AOT_stimuli/rescaled_final/1058_rv.mp4	0.0	211.60035729408264	
41	196.02943968772888	pulse	1	t		39.0	2.5	/experiments/knapen_AOT/AOT_stimuli/rescaled_final/1058_rv.mp4	0.0	213.20055961608887	
41	196.5543920993805	fix_post	2		12	39.0	2.5	/experiments/knapen_AOT/AOT_stimuli/rescaled_final/1058_rv.mp4	0.0	213.72551202774048	0.0999903678894043
42	196.6543824672699	fix_pre	0		118	40.0	2.5	blank	1.0	213.82550239562988	0.9834420680999756
42	197.62969517707825	pulse	0	t		40.0	2.5	blank	1.0	214.80081510543823	
42	197.63782453536987	movie	1		301	40.0	2.5	blank	1.0	214.80894446372986	2.508648633956909
42	199.22991561889648	pulse	1	t		40.0	2.5	blank	1.0	216.40103554725647	
42	200.14647316932678	fix_post	2		12	40.0	2.5	blank	1.0	217.31759309768677	0.10002994537353516
43	200.24650311470032	fix_pre	0		120	41.0	2.5	/experiments/knapen_AOT/AOT_stimuli/rescaled_final/0122_fw.mp4	0.0	217.4176230430603	1.008617639541626
43	200.83016896247864	pulse	0	t		41.0	2.5	/experiments/knapen_AOT/AOT_stimuli/rescaled_final/0122_fw.mp4	0.0	218.00128889083862	
43	201.25512075424194	movie	1		277	41.0	2.5	/experiments/knapen_AOT/AOT_stimuli/rescaled_final/0122_fw.mp4	0.0	218.42624068260193	2.4918951988220215
43	202.42868065834045	pulse	1	t		41.0	2.5	/experiments/knapen_AOT/AOT_stimuli/rescaled_final/0122_fw.mp4	0.0	219.59980058670044	
43	203.74701595306396	fix_post	2		12	41.0	2.5	/experiments/knapen_AOT/AOT_stimuli/rescaled_final/0122_fw.mp4	0.0	220.91813588142395	0.1000375747680664
44	203.84705352783203	fix_pre	0		120	42.0	2.5	/experiments/knapen_AOT/AOT_stimuli/rescaled_final/2127_rv.mp4	0.0	221.01817345619202	1.0086169242858887
44	204.03063416481018	pulse	0	t		42.0	2.5	/experiments/knapen_AOT/AOT_stimuli/rescaled_final/2127_rv.mp4	0.0	221.20175409317017	
44	204.85567045211792	movie	1		289	42.0	2.5	/experiments/knapen_AOT/AOT_stimuli/rescaled_final/2127_rv.mp4	0.0	222.0267903804779	2.491888999938965
44	205.62883377075195	pulse	1	t		42.0	2.5	/experiments/knapen_AOT/AOT_stimuli/rescaled_final/2127_rv.mp4	0.0	222.79995369911194	
44	207.22894620895386	pulse	1	t		42.0	2.5	/experiments/knapen_AOT/AOT_stimuli/rescaled_final/2127_rv.mp4	0.0	224.40006613731384	
44	207.34755945205688	fix_post	2		12	42.0	2.5	/experiments/knapen_AOT/AOT_stimuli/rescaled_final/2127_rv.mp4	0.0	224.51867938041687	0.1000211238861084
45	207.447580575943	fix_pre	0		120	43.0	2.5	/experiments/knapen_AOT/AOT_stimuli/rescaled_final/0816_fw.mp4	0.0	224.61870050430298	1.008518934249878
45	208.45609951019287	movie	1		266	43.0	2.5	/experiments/knapen_AOT/AOT_stimuli/rescaled_final/0816_fw.mp4	0.0	225.62721943855286	2.4922914505004883
45	208.82982087135315	pulse	1	t		43.0	2.5	/experiments/knapen_AOT/AOT_stimuli/rescaled_final/0816_fw.mp4	0.0	226.00094079971313	
45	210.4292552471161	pulse	1	t		43.0	2.5	/experiments/knapen_AOT/AOT_stimuli/rescaled_final/0816_fw.mp4	0.0	227.60037517547607	
45	210.94839096069336	fix_post	2		12	43.0	2.5	/experiments/knapen_AOT/AOT_stimuli/rescaled_final/0816_fw.mp4	0.0	228.11951088905334	0.09973382949829102
46	211.04812479019165	fix_pre	0		119	44.0	2.5	/experiments/knapen_AOT/AOT_stimuli/rescaled_final/1755_rv.mp4	0.0	228.21924471855164	1.0085723400115967
46	212.03181958198547	pulse	0	t		44.0	2.5	/experiments/knapen_AOT/AOT_stimuli/rescaled_final/1755_rv.mp4	0.0	229.20293951034546	
46	212.05669713020325	movie	1		276	44.0	2.5	/experiments/knapen_AOT/AOT_stimuli/rescaled_final/1755_rv.mp4	0.0	229.22781705856323	2.4920291900634766
46	213.63140034675598	pulse	1	t		44.0	2.5	/experiments/knapen_AOT/AOT_stimuli/rescaled_final/1755_rv.mp4	0.0	230.80252027511597	
46	214.54872632026672	fix_post	2		12	44.0	2.5	/experiments/knapen_AOT/AOT_stimuli/rescaled_final/1755_rv.mp4	0.0	231.7198462486267	0.10014986991882324
47	214.64887619018555	fix_pre	0		120	45.0	2.5	/experiments/knapen_AOT/AOT_stimuli/rescaled_final/2038_fw.mp4	0.0	231.81999611854553	1.0082943439483643
47	215.23230266571045	pulse	0	t		45.0	2.5	/experiments/knapen_AOT/AOT_stimuli/rescaled_final/2038_fw.mp4	0.0	232.40342259407043	
47	215.6571705341339	movie	1		271	45.0	2.5	/experiments/knapen_AOT/AOT_stimuli/rescaled_final/2038_fw.mp4	0.0	232.8282904624939	2.4921672344207764
47	216.83111476898193	pulse	1	t		45.0	2.5	/experiments/knapen_AOT/AOT_stimuli/rescaled_final/2038_fw.mp4	0.0	234.00223469734192	
47	218.1493377685547	fix_post	2		12	45.0	2.5	/experiments/knapen_AOT/AOT_stimuli/rescaled_final/2038_fw.mp4	0.0	235.32045769691467	0.09992432594299316
48	218.24926209449768	fix_pre	0		120	46.0	2.5	/experiments/knapen_AOT/AOT_stimuli/rescaled_final/0296_fw.mp4	0.0	235.42038202285767	1.0086498260498047
48	218.43276572227478	pulse	0	t		46.0	2.5	/experiments/knapen_AOT/AOT_stimuli/rescaled_final/0296_fw.mp4	0.0	235.60388565063477	
48	219.25791192054749	movie	1		254	46.0	2.5	/experiments/knapen_AOT/AOT_stimuli/rescaled_final/0296_fw.mp4	0.0	236.42903184890747	2.4922261238098145
48	220.0312626361847	pulse	1	t		46.0	2.5	/experiments/knapen_AOT/AOT_stimuli/rescaled_final/0296_fw.mp4	0.0	237.20238256454468	
48	221.6324965953827	pulse	1	t		46.0	2.5	/experiments/knapen_AOT/AOT_stimuli/rescaled_final/0296_fw.mp4	0.0	238.80361652374268	
48	221.7501380443573	fix_post	2		12	46.0	2.5	/experiments/knapen_AOT/AOT_stimuli/rescaled_final/0296_fw.mp4	0.0	238.92125797271729	0.09975004196166992
49	221.84988808631897	fix_pre	0		120	47.0	2.5	blank	1.0	239.02100801467896	1.000000238418579
49	222.84988832473755	movie	1		300	47.0	2.5	blank	1.0	240.02100825309753	2.5003879070281982
49	223.23361325263977	pulse	1	t		47.0	2.5	blank	1.0	240.40473318099976	
49	224.8337550163269	pulse	1	t		47.0	2.5	blank	1.0	242.0048749446869	
49	225.35027623176575	fix_post	2		12	47.0	2.5	blank	1.0	242.52139616012573	0.10010910034179688
50	225.45038533210754	fix_pre	0		119	48.0	2.5	/experiments/knapen_AOT/AOT_stimuli/rescaled_final/0951_fw.mp4	0.0	242.62150526046753	1.0002381801605225
50	226.43399357795715	pulse	0	t		48.0	2.5	/experiments/knapen_AOT/AOT_stimuli/rescaled_final/0951_fw.mp4	0.0	243.60511350631714	
50	226.45062351226807	movie	1		270	48.0	2.5	/experiments/knapen_AOT/AOT_stimuli/rescaled_final/0951_fw.mp4	0.0	243.62174344062805	2.5001847743988037
50	228.03366708755493	pulse	1	t		48.0	2.5	/experiments/knapen_AOT/AOT_stimuli/rescaled_final/0951_fw.mp4	0.0	245.20478701591492	
50	228.95080828666687	fix_post	2		12	48.0	2.5	/experiments/knapen_AOT/AOT_stimuli/rescaled_final/0951_fw.mp4	0.0	246.12192821502686	0.10003137588500977
51	229.05083966255188	fix_pre	0		120	49.0	2.5	/experiments/knapen_AOT/AOT_stimuli/rescaled_final/2072_fw.mp4	0.0	246.22195959091187	1.008634090423584
51	229.63498163223267	pulse	0	t		49.0	2.5	/experiments/knapen_AOT/AOT_stimuli/rescaled_final/2072_fw.mp4	0.0	246.80610156059265	
51	230.05947375297546	movie	1		286	49.0	2.5	/experiments/knapen_AOT/AOT_stimuli/rescaled_final/2072_fw.mp4	0.0	247.23059368133545	2.4920737743377686
51	231.23288655281067	pulse	1	t		49.0	2.5	/experiments/knapen_AOT/AOT_stimuli/rescaled_final/2072_fw.mp4	0.0	248.40400648117065	
51	232.55154752731323	fix_post	2		12	49.0	2.5	/experiments/knapen_AOT/AOT_stimuli/rescaled_final/2072_fw.mp4	0.0	249.72266745567322	0.09993529319763184
52	232.65148282051086	fix_pre	0		120	50.0	2.5	/experiments/knapen_AOT/AOT_stimuli/rescaled_final/0535_rv.mp4	0.0	249.82260274887085	1.0086371898651123
52	232.83493614196777	pulse	0	t		50.0	2.5	/experiments/knapen_AOT/AOT_stimuli/rescaled_final/0535_rv.mp4	0.0	250.00605607032776	
52	233.66012001037598	movie	1		279	50.0	2.5	/experiments/knapen_AOT/AOT_stimuli/rescaled_final/0535_rv.mp4	0.0	250.83123993873596	2.4917964935302734
52	234.43351864814758	pulse	1	t		50.0	2.5	/experiments/knapen_AOT/AOT_stimuli/rescaled_final/0535_rv.mp4	0.0	251.60463857650757	
52	236.0353810787201	pulse	1	t		50.0	2.5	/experiments/knapen_AOT/AOT_stimuli/rescaled_final/0535_rv.mp4	0.0	253.20650100708008	
52	236.15191650390625	fix_post	2		12	50.0	2.5	/experiments/knapen_AOT/AOT_stimuli/rescaled_final/0535_rv.mp4	0.0	253.32303643226624	0.10000824928283691
53	236.2519247531891	fix_pre	0		120	51.0	2.5	/experiments/knapen_AOT/AOT_stimuli/rescaled_final/1247_fw.mp4	0.0	253.42304468154907	1.0086255073547363
53	237.26055026054382	movie	1		265	51.0	2.5	/experiments/knapen_AOT/AOT_stimuli/rescaled_final/1247_fw.mp4	0.0	254.4316701889038	2.4919307231903076
53	237.6341814994812	pulse	1	t		51.0	2.5	/experiments/knapen_AOT/AOT_stimuli/rescaled_final/1247_fw.mp4	0.0	254.8053014278412	
53	239.2341125011444	pulse	1	t		51.0	2.5	/experiments/knapen_AOT/AOT_stimuli/rescaled_final/1247_fw.mp4	0.0	256.4052324295044	
53	239.75248098373413	fix_post	2		12	51.0	2.5	/experiments/knapen_AOT/AOT_stimuli/rescaled_final/1247_fw.mp4	0.0	256.9236009120941	0.09999799728393555
54	239.85247898101807	fix_pre	0		119	52.0	2.5	/experiments/knapen_AOT/AOT_stimuli/rescaled_final/1961_rv.mp4	0.0	257.02359890937805	1.0001351833343506
54	240.83644342422485	pulse	0	t		52.0	2.5	/experiments/knapen_AOT/AOT_stimuli/rescaled_final/1961_rv.mp4	0.0	258.00756335258484	
54	240.85261416435242	movie	1		264	52.0	2.5	/experiments/knapen_AOT/AOT_stimuli/rescaled_final/1961_rv.mp4	0.0	258.0237340927124	2.500481367111206
54	242.43460202217102	pulse	1	t		52.0	2.5	/experiments/knapen_AOT/AOT_stimuli/rescaled_final/1961_rv.mp4	0.0	259.605721950531	
54	243.35309553146362	fix_post	2		12	52.0	2.5	/experiments/knapen_AOT/AOT_stimuli/rescaled_final/1961_rv.mp4	0.0	260.5242154598236	0.09989571571350098
55	243.45299124717712	fix_pre	0		120	53.0	2.5	/experiments/knapen_AOT/AOT_stimuli/rescaled_final/1623_fw.mp4	0.0	260.6241111755371	1.008528470993042
55	244.02877926826477	pulse	0	t		53.0	2.5	/experiments/knapen_AOT/AOT_stimuli/rescaled_final/1623_fw.mp4	0.0	261.19989919662476	
55	244.46151971817017	movie	1		261	53.0	2.5	/experiments/knapen_AOT/AOT_stimuli/rescaled_final/1623_fw.mp4	0.0	261.63263964653015	2.4922685623168945
55	245.62887120246887	pulse	1	t		53.0	2.5	/experiments/knapen_AOT/AOT_stimuli/rescaled_final/1623_fw.mp4	0.0	262.79999113082886	
55	246.95378828048706	fix_post	2		12	53.0	2.5	/experiments/knapen_AOT/AOT_stimuli/rescaled_final/1623_fw.mp4	0.0	264.12490820884705	0.0999596118927002
56	247.05374789237976	fix_pre	0		120	54.0	2.5	/experiments/knapen_AOT/AOT_stimuli/rescaled_final/1385_rv.mp4	0.0	264.22486782073975	1.008296251296997
56	247.22880721092224	pulse	0	t		54.0	2.5	/experiments/knapen_AOT/AOT_stimuli/rescaled_final/1385_rv.mp4	0.0	264.3999271392822	
56	248.06204414367676	movie	1		280	54.0	2.5	/experiments/knapen_AOT/AOT_stimuli/rescaled_final/1385_rv.mp4	0.0	265.23316407203674	2.492018461227417
56	248.8290467262268	pulse	1	t		54.0	2.5	/experiments/knapen_AOT/AOT_stimuli/rescaled_final/1385_rv.mp4	0.0	266.0001666545868	
56	250.4294412136078	pulse	1	t		54.0	2.5	/experiments/knapen_AOT/AOT_stimuli/rescaled_final/1385_rv.mp4	0.0	267.6005611419678	
56	250.55406260490417	fix_post	2		12	54.0	2.5	/experiments/knapen_AOT/AOT_stimuli/rescaled_final/1385_rv.mp4	0.0	267.72518253326416	0.10001659393310547
57	250.65407919883728	fix_pre	0		120	55.0	2.5	blank	1.0	267.82519912719727	1.0001325607299805
57	251.65421175956726	movie	1		300	55.0	2.5	blank	1.0	268.82533168792725	2.5003743171691895
57	252.02954077720642	pulse	1	t		55.0	2.5	blank	1.0	269.2006607055664	
57	253.6297152042389	pulse	1	t		55.0	2.5	blank	1.0	270.8008351325989	
57	254.15458607673645	fix_post	2		12	55.0	2.5	blank	1.0	271.32570600509644	0.10042047500610352
58	254.25500655174255	fix_pre	0		118	56.0	2.5	/experiments/knapen_AOT/AOT_stimuli/rescaled_final/0951_rv.mp4	0.0	271.42612648010254	0.991654634475708
58	255.23000311851501	pulse	0	t		56.0	2.5	/experiments/knapen_AOT/AOT_stimuli/rescaled_final/0951_rv.mp4	0.0	272.401123046875	
58	255.24666118621826	movie	1		267	56.0	2.5	/experiments/knapen_AOT/AOT_stimuli/rescaled_final/0951_rv.mp4	0.0	272.41778111457825	2.5001494884490967
58	256.8290014266968	pulse	1	t		56.0	2.5	/experiments/knapen_AOT/AOT_stimuli/rescaled_final/0951_rv.mp4	0.0	274.00012135505676	
58	257.74681067466736	fix_post	2		12	56.0	2.5	/experiments/knapen_AOT/AOT_stimuli/rescaled_final/0951_rv.mp4	0.0	274.91793060302734	0.10004687309265137
59	257.84685754776	fix_pre	0		120	57.0	2.5	/experiments/knapen_AOT/AOT_stimuli/rescaled_final/0900_rv.mp4	0.0	275.01797747612	1.0084702968597412
59	258.43043971061707	pulse	0	t		57.0	2.5	/experiments/knapen_AOT/AOT_stimuli/rescaled_final/0900_rv.mp4	0.0	275.60155963897705	
59	258.85532784461975	movie	1		269	57.0	2.5	/experiments/knapen_AOT/AOT_stimuli/rescaled_final/0900_rv.mp4	0.0	276.02644777297974	2.4920313358306885
59	260.03077507019043	pulse	1	t		57.0	2.5	/experiments/knapen_AOT/AOT_stimuli/rescaled_final/0900_rv.mp4	0.0	277.2018949985504	
59	261.34735918045044	fix_post	2		12	57.0	2.5	/experiments/knapen_AOT/AOT_stimuli/rescaled_final/0900_rv.mp4	0.0	278.5184791088104	0.09999489784240723
60	261.44735407829285	fix_pre	0		120	58.0	2.5	/experiments/knapen_AOT/AOT_stimuli/rescaled_final/0900_fw.mp4	0.0	278.61847400665283	1.008493423461914
60	261.63100242614746	pulse	0	t		58.0	2.5	/experiments/knapen_AOT/AOT_stimuli/rescaled_final/0900_fw.mp4	0.0	278.80212235450745	
60	262.45584750175476	movie	1		287	58.0	2.5	/experiments/knapen_AOT/AOT_stimuli/rescaled_final/0900_fw.mp4	0.0	279.62696743011475	2.492042064666748
60	263.2291121482849	pulse	1	t		58.0	2.5	/experiments/knapen_AOT/AOT_stimuli/rescaled_final/0900_fw.mp4	0.0	280.4002320766449	
60	264.8295946121216	pulse	1	t		58.0	2.5	/experiments/knapen_AOT/AOT_stimuli/rescaled_final/0900_fw.mp4	0.0	282.00071454048157	
60	264.9478895664215	fix_post	2		12	58.0	2.5	/experiments/knapen_AOT/AOT_stimuli/rescaled_final/0900_fw.mp4	0.0	282.1190094947815	0.10003042221069336
61	265.0479199886322	fix_pre	0		120	59.0	2.5	/experiments/knapen_AOT/AOT_stimuli/rescaled_final/1139_fw.mp4	0.0	282.2190399169922	1.0085206031799316
61	266.05644059181213	movie	1		276	59.0	2.5	/experiments/knapen_AOT/AOT_stimuli/rescaled_final/1139_fw.mp4	0.0	283.2275605201721	2.4920616149902344
61	266.4299783706665	pulse	1	t		59.0	2.5	/experiments/knapen_AOT/AOT_stimuli/rescaled_final/1139_fw.mp4	0.0	283.6010982990265	
61	268.03015518188477	pulse	1	t		59.0	2.5	/experiments/knapen_AOT/AOT_stimuli/rescaled_final/1139_fw.mp4	0.0	285.20127511024475	
61	268.54850220680237	fix_post	2		12	59.0	2.5	/experiments/knapen_AOT/AOT_stimuli/rescaled_final/1139_fw.mp4	0.0	285.71962213516235	0.09995007514953613
62	268.6484522819519	fix_pre	0		119	60.0	2.5	/experiments/knapen_AOT/AOT_stimuli/rescaled_final/1197_rv.mp4	0.0	285.8195722103119	1.0002682209014893
62	269.63225388526917	pulse	0	t		60.0	2.5	/experiments/knapen_AOT/AOT_stimuli/rescaled_final/1197_rv.mp4	0.0	286.80337381362915	
62	269.6487205028534	movie	1		281	60.0	2.5	/experiments/knapen_AOT/AOT_stimuli/rescaled_final/1197_rv.mp4	0.0	286.8198404312134	2.5003159046173096
62	271.23084020614624	pulse	1	t		60.0	2.5	/experiments/knapen_AOT/AOT_stimuli/rescaled_final/1197_rv.mp4	0.0	288.4019601345062	
62	272.1490364074707	fix_post	2		12	60.0	2.5	/experiments/knapen_AOT/AOT_stimuli/rescaled_final/1197_rv.mp4	0.0	289.3201563358307	0.09996366500854492
63	272.24900007247925	fix_pre	0		120	61.0	2.5	blank	1.0	289.42012000083923	1.000126600265503
63	272.8326542377472	pulse	0	t		61.0	2.5	blank	1.0	290.0037741661072	
63	273.24912667274475	movie	1		300	61.0	2.5	blank	1.0	290.42024660110474	2.500377655029297
63	274.43300437927246	pulse	1	t		61.0	2.5	blank	1.0	291.60412430763245	
63	275.74950432777405	fix_post	2		12	61.0	2.5	blank	1.0	292.92062425613403	0.10004782676696777
64	275.849552154541	fix_pre	0		120	62.0	2.5	/experiments/knapen_AOT/AOT_stimuli/rescaled_final/0330_fw.mp4	0.0	293.020672082901	1.0086946487426758
64	276.0331025123596	pulse	0	t		62.0	2.5	/experiments/knapen_AOT/AOT_stimuli/rescaled_final/0330_fw.mp4	0.0	293.2042224407196	
64	276.8582468032837	movie	1		288	62.0	2.5	/experiments/knapen_AOT/AOT_stimuli/rescaled_final/0330_fw.mp4	0.0	294.0293667316437	2.491941452026367
64	277.63115906715393	pulse	1	t		62.0	2.5	/experiments/knapen_AOT/AOT_stimuli/rescaled_final/0330_fw.mp4	0.0	294.8022789955139	
64	279.2318947315216	pulse	1	t		62.0	2.5	/experiments/knapen_AOT/AOT_stimuli/rescaled_final/0330_fw.mp4	0.0	296.4030146598816	
64	279.35018825531006	fix_post	2		12	62.0	2.5	/experiments/knapen_AOT/AOT_stimuli/rescaled_final/0330_fw.mp4	0.0	296.52130818367004	0.09996485710144043
65	279.4501531124115	fix_pre	0		120	63.0	2.5	/experiments/knapen_AOT/AOT_stimuli/rescaled_final/0203_fw.mp4	0.0	296.6212730407715	1.0084149837493896
65	280.4585680961609	movie	1		266	63.0	2.5	/experiments/knapen_AOT/AOT_stimuli/rescaled_final/0203_fw.mp4	0.0	297.6296880245209	2.492232322692871
65	280.83220505714417	pulse	1	t		63.0	2.5	/experiments/knapen_AOT/AOT_stimuli/rescaled_final/0203_fw.mp4	0.0	298.00332498550415	
65	282.4322888851166	pulse	1	t		63.0	2.5	/experiments/knapen_AOT/AOT_stimuli/rescaled_final/0203_fw.mp4	0.0	299.60340881347656	
65	282.95080041885376	fix_post	2		12	63.0	2.5	/experiments/knapen_AOT/AOT_stimuli/rescaled_final/0203_fw.mp4	0.0	300.12192034721375	0.0998084545135498
66	283.0506088733673	fix_pre	0		119	64.0	2.5	/experiments/knapen_AOT/AOT_stimuli/rescaled_final/0216_rv.mp4	0.0	300.2217288017273	1.000196933746338
66	284.0342800617218	pulse	0	t		64.0	2.5	/experiments/knapen_AOT/AOT_stimuli/rescaled_final/0216_rv.mp4	0.0	301.2053999900818	
66	284.05080580711365	movie	1		284	64.0	2.5	/experiments/knapen_AOT/AOT_stimuli/rescaled_final/0216_rv.mp4	0.0	301.22192573547363	2.500641345977783
66	285.63261318206787	pulse	1	t		64.0	2.5	/experiments/knapen_AOT/AOT_stimuli/rescaled_final/0216_rv.mp4	0.0	302.80373311042786	
66	286.55144715309143	fix_post	2		12	64.0	2.5	/experiments/knapen_AOT/AOT_stimuli/rescaled_final/0216_rv.mp4	0.0	303.7225670814514	0.09976339340209961
67	286.65121054649353	fix_pre	0		120	65.0	2.5	/experiments/knapen_AOT/AOT_stimuli/rescaled_final/1522_fw.mp4	0.0	303.8223304748535	1.0084388256072998
67	287.23477268218994	pulse	0	t		65.0	2.5	/experiments/knapen_AOT/AOT_stimuli/rescaled_final/1522_fw.mp4	0.0	304.4058926105499	
67	287.65964937210083	movie	1		283	65.0	2.5	/experiments/knapen_AOT/AOT_stimuli/rescaled_final/1522_fw.mp4	0.0	304.8307693004608	2.492097854614258
67	288.8337242603302	pulse	1	t		65.0	2.5	/experiments/knapen_AOT/AOT_stimuli/rescaled_final/1522_fw.mp4	0.0	306.0048441886902	
67	290.1517472267151	fix_post	2		12	65.0	2.5	/experiments/knapen_AOT/AOT_stimuli/rescaled_final/1522_fw.mp4	0.0	307.3228671550751	0.09995174407958984
68	290.2516989707947	fix_pre	0		120	66.0	2.5	/experiments/knapen_AOT/AOT_stimuli/rescaled_final/0846_rv.mp4	0.0	307.42281889915466	1.0087170600891113
68	290.42833948135376	pulse	0	t		66.0	2.5	/experiments/knapen_AOT/AOT_stimuli/rescaled_final/0846_rv.mp4	0.0	307.59945940971375	
68	291.2604160308838	movie	1		277	66.0	2.5	/experiments/knapen_AOT/AOT_stimuli/rescaled_final/0846_rv.mp4	0.0	308.4315359592438	2.491827964782715
68	292.0334348678589	pulse	1	t		66.0	2.5	/experiments/knapen_AOT/AOT_stimuli/rescaled_final/0846_rv.mp4	0.0	309.2045547962189	
68	293.63396692276	pulse	1	t		66.0	2.5	/experiments/knapen_AOT/AOT_stimuli/rescaled_final/0846_rv.mp4	0.0	310.80508685112	
68	293.7522439956665	fix_post	2		12	66.0	2.5	/experiments/knapen_AOT/AOT_stimuli/rescaled_final/0846_rv.mp4	0.0	310.9233639240265	0.09999299049377441
69	293.8522369861603	fix_pre	0		120	67.0	2.5	/experiments/knapen_AOT/AOT_stimuli/rescaled_final/1940_rv.mp4	0.0	311.02335691452026	1.008483648300171
69	294.86072063446045	movie	1		266	67.0	2.5	/experiments/knapen_AOT/AOT_stimuli/rescaled_final/1940_rv.mp4	0.0	312.03184056282043	2.4921979904174805
69	295.2365493774414	pulse	1	t		67.0	2.5	/experiments/knapen_AOT/AOT_stimuli/rescaled_final/1940_rv.mp4	0.0	312.4076693058014	
69	296.8283112049103	pulse	1	t		67.0	2.5	/experiments/knapen_AOT/AOT_stimuli/rescaled_final/1940_rv.mp4	0.0	313.99943113327026	
69	297.35291862487793	fix_post	2		12	67.0	2.5	/experiments/knapen_AOT/AOT_stimuli/rescaled_final/1940_rv.mp4	0.0	314.5240385532379	0.09993195533752441
70	297.45285058021545	fix_pre	0		118	68.0	2.5	/experiments/knapen_AOT/AOT_stimuli/rescaled_final/0818_rv.mp4	0.0	314.62397050857544	0.9917507171630859
70	298.4283084869385	pulse	0	t		68.0	2.5	/experiments/knapen_AOT/AOT_stimuli/rescaled_final/0818_rv.mp4	0.0	315.59942841529846	
70	298.44460129737854	movie	1		274	68.0	2.5	/experiments/knapen_AOT/AOT_stimuli/rescaled_final/0818_rv.mp4	0.0	315.6157212257385	2.500478506088257
70	300.0285851955414	pulse	1	t		68.0	2.5	/experiments/knapen_AOT/AOT_stimuli/rescaled_final/0818_rv.mp4	0.0	317.19970512390137	
70	300.9450798034668	fix_post	2		12	68.0	2.5	/experiments/knapen_AOT/AOT_stimuli/rescaled_final/0818_rv.mp4	0.0	318.1161997318268	0.0999603271484375
71	301.04504013061523	fix_pre	0		120	69.0	2.5	/experiments/knapen_AOT/AOT_stimuli/rescaled_final/1665_rv.mp4	0.0	318.2161600589752	1.00846266746521
71	301.62863302230835	pulse	0	t		69.0	2.5	/experiments/knapen_AOT/AOT_stimuli/rescaled_final/1665_rv.mp4	0.0	318.79975295066833	
71	302.05350279808044	movie	1		265	69.0	2.5	/experiments/knapen_AOT/AOT_stimuli/rescaled_final/1665_rv.mp4	0.0	319.22462272644043	2.492342472076416
71	303.22904419898987	pulse	1	t		69.0	2.5	/experiments/knapen_AOT/AOT_stimuli/rescaled_final/1665_rv.mp4	0.0	320.40016412734985	
71	304.54584527015686	fix_post	2		12	69.0	2.5	/experiments/knapen_AOT/AOT_stimuli/rescaled_final/1665_rv.mp4	0.0	321.71696519851685	0.0998990535736084
72	304.64574432373047	fix_pre	0		120	70.0	2.5	blank	1.0	321.81686425209045	0.9999210834503174
72	304.82914209365845	pulse	0	t		70.0	2.5	blank	1.0	322.00026202201843	
72	305.6456654071808	movie	1		300	70.0	2.5	blank	1.0	322.81678533554077	2.500401020050049
72	306.4294099807739	pulse	1	t		70.0	2.5	blank	1.0	323.6005299091339	
72	308.02958130836487	pulse	1	t		70.0	2.5	blank	1.0	325.20070123672485	
72	308.14606642723083	fix_post	2		12	70.0	2.5	blank	1.0	325.3171863555908	0.10004234313964844
73	308.2461087703705	fix_pre	0		120	71.0	2.5	/experiments/knapen_AOT/AOT_stimuli/rescaled_final/1873_fw.mp4	0.0	325.41722869873047	1.0085761547088623
73	309.25468492507935	movie	1		255	71.0	2.5	/experiments/knapen_AOT/AOT_stimuli/rescaled_final/1873_fw.mp4	0.0	326.42580485343933	2.4920291900634766
73	309.62910318374634	pulse	1	t		71.0	2.5	/experiments/knapen_AOT/AOT_stimuli/rescaled_final/1873_fw.mp4	0.0	326.8002231121063	
73	311.2284963130951	pulse	1	t		71.0	2.5	/experiments/knapen_AOT/AOT_stimuli/rescaled_final/1873_fw.mp4	0.0	328.3996162414551	
73	311.7467141151428	fix_post	2		12	71.0	2.5	/experiments/knapen_AOT/AOT_stimuli/rescaled_final/1873_fw.mp4	0.0	328.9178340435028	0.09988284111022949
74	311.84659695625305	fix_pre	0		119	72.0	2.5	/experiments/knapen_AOT/AOT_stimuli/rescaled_final/1611_fw.mp4	0.0	329.01771688461304	1.0002338886260986
74	312.8306796550751	pulse	0	t		72.0	2.5	/experiments/knapen_AOT/AOT_stimuli/rescaled_final/1611_fw.mp4	0.0	330.00179958343506	
74	312.84683084487915	movie	1		264	72.0	2.5	/experiments/knapen_AOT/AOT_stimuli/rescaled_final/1611_fw.mp4	0.0	330.01795077323914	2.5005640983581543
74	314.4300651550293	pulse	1	t		72.0	2.5	/experiments/knapen_AOT/AOT_stimuli/rescaled_final/1611_fw.mp4	0.0	331.6011850833893	
74	315.3473949432373	fix_post	2		12	72.0	2.5	/experiments/knapen_AOT/AOT_stimuli/rescaled_final/1611_fw.mp4	0.0	332.5185148715973	0.09977531433105469
75	315.44717025756836	fix_pre	0		120	73.0	2.5	/experiments/knapen_AOT/AOT_stimuli/rescaled_final/0850_rv.mp4	0.0	332.61829018592834	1.0087528228759766
75	316.0308349132538	pulse	0	t		73.0	2.5	/experiments/knapen_AOT/AOT_stimuli/rescaled_final/0850_rv.mp4	0.0	333.20195484161377	
75	316.45592308044434	movie	1		275	73.0	2.5	/experiments/knapen_AOT/AOT_stimuli/rescaled_final/0850_rv.mp4	0.0	333.6270430088043	2.4919049739837646
75	317.63010573387146	pulse	1	t		73.0	2.5	/experiments/knapen_AOT/AOT_stimuli/rescaled_final/0850_rv.mp4	0.0	334.80122566223145	
75	318.9478280544281	fix_post	2		12	73.0	2.5	/experiments/knapen_AOT/AOT_stimuli/rescaled_final/0850_rv.mp4	0.0	336.1189479827881	0.09992337226867676
76	319.0477514266968	fix_pre	0		120	74.0	2.5	/experiments/knapen_AOT/AOT_stimuli/rescaled_final/0711_rv.mp4	0.0	336.21887135505676	1.008610486984253
76	319.23127269744873	pulse	0	t		74.0	2.5	/experiments/knapen_AOT/AOT_stimuli/rescaled_final/0711_rv.mp4	0.0	336.4023926258087	
76	320.05636191368103	movie	1		277	74.0	2.5	/experiments/knapen_AOT/AOT_stimuli/rescaled_final/0711_rv.mp4	0.0	337.227481842041	2.4918437004089355
76	320.8304204940796	pulse	1	t		74.0	2.5	/experiments/knapen_AOT/AOT_stimuli/rescaled_final/0711_rv.mp4	0.0	338.0015404224396	
76	322.430260181427	pulse	1	t		74.0	2.5	/experiments/knapen_AOT/AOT_stimuli/rescaled_final/0711_rv.mp4	0.0	339.601380109787	
76	322.54820561408997	fix_post	2		12	74.0	2.5	/experiments/knapen_AOT/AOT_stimuli/rescaled_final/0711_rv.mp4	0.0	339.71932554244995	0.10002398490905762
77	322.648229598999	fix_pre	0		120	75.0	2.5	blank	1.0	339.819349527359	1.0001404285430908
77	323.6483700275421	movie	1		300	75.0	2.5	blank	1.0	340.8194899559021	2.5003859996795654
77	324.0320792198181	pulse	1	t		75.0	2.5	blank	1.0	341.2031991481781	
77	325.632315158844	pulse	1	t		75.0	2.5	blank	1.0	342.803435087204	
77	326.1487560272217	fix_post	2		12	75.0	2.5	blank	1.0	343.31987595558167	0.10031914710998535
78	326.24907517433167	fix_pre	0		119	76.0	2.5	/experiments/knapen_AOT/AOT_stimuli/rescaled_final/1623_fw.mp4	0.0	343.42019510269165	0.9999237060546875
78	327.23256063461304	pulse	0	t		76.0	2.5	/experiments/knapen_AOT/AOT_stimuli/rescaled_final/1623_fw.mp4	0.0	344.403680562973	
78	327.24899888038635	movie	1		266	76.0	2.5	/experiments/knapen_AOT/AOT_stimuli/rescaled_final/1623_fw.mp4	0.0	344.42011880874634	2.5002939701080322
78	328.8318145275116	pulse	1	t		76.0	2.5	/experiments/knapen_AOT/AOT_stimuli/rescaled_final/1623_fw.mp4	0.0	346.0029344558716	
78	329.7492928504944	fix_post	2		12	76.0	2.5	/experiments/knapen_AOT/AOT_stimuli/rescaled_final/1623_fw.mp4	0.0	346.92041277885437	0.10009050369262695
79	329.849383354187	fix_pre	0		120	77.0	2.5	/experiments/knapen_AOT/AOT_stimuli/rescaled_final/0352_rv.mp4	0.0	347.020503282547	1.0084116458892822
79	330.4332826137543	pulse	0	t		77.0	2.5	/experiments/knapen_AOT/AOT_stimuli/rescaled_final/0352_rv.mp4	0.0	347.60440254211426	
79	330.8577950000763	movie	1		286	77.0	2.5	/experiments/knapen_AOT/AOT_stimuli/rescaled_final/0352_rv.mp4	0.0	348.0289149284363	2.4921443462371826
79	332.0313322544098	pulse	1	t		77.0	2.5	/experiments/knapen_AOT/AOT_stimuli/rescaled_final/0352_rv.mp4	0.0	349.2024521827698	
79	333.3499393463135	fix_post	2		12	77.0	2.5	/experiments/knapen_AOT/AOT_stimuli/rescaled_final/0352_rv.mp4	0.0	350.52105927467346	0.09993958473205566
80	333.44987893104553	fix_pre	0		120	78.0	2.5	/experiments/knapen_AOT/AOT_stimuli/rescaled_final/1082_fw.mp4	0.0	350.6209988594055	1.0086054801940918
80	333.63340044021606	pulse	0	t		78.0	2.5	/experiments/knapen_AOT/AOT_stimuli/rescaled_final/1082_fw.mp4	0.0	350.80452036857605	
80	334.4584844112396	movie	1		279	78.0	2.5	/experiments/knapen_AOT/AOT_stimuli/rescaled_final/1082_fw.mp4	0.0	351.6296043395996	2.4921696186065674
80	335.2319860458374	pulse	1	t		78.0	2.5	/experiments/knapen_AOT/AOT_stimuli/rescaled_final/1082_fw.mp4	0.0	352.4031059741974	
80	336.83311343193054	pulse	1	t		78.0	2.5	/experiments/knapen_AOT/AOT_stimuli/rescaled_final/1082_fw.mp4	0.0	354.0042333602905	
80	336.9506540298462	fix_post	2		12	78.0	2.5	/experiments/knapen_AOT/AOT_stimuli/rescaled_final/1082_fw.mp4	0.0	354.1217739582062	0.0997612476348877
81	337.0504152774811	fix_pre	0		120	79.0	2.5	/experiments/knapen_AOT/AOT_stimuli/rescaled_final/1769_rv.mp4	0.0	354.22153520584106	1.0084643363952637
81	338.05887961387634	movie	1		274	79.0	2.5	/experiments/knapen_AOT/AOT_stimuli/rescaled_final/1769_rv.mp4	0.0	355.2299995422363	2.4920544624328613
81	338.43319964408875	pulse	1	t		79.0	2.5	/experiments/knapen_AOT/AOT_stimuli/rescaled_final/1769_rv.mp4	0.0	355.60431957244873	
81	340.0326042175293	pulse	1	t		79.0	2.5	/experiments/knapen_AOT/AOT_stimuli/rescaled_final/1769_rv.mp4	0.0	357.2037241458893	
81	340.5509340763092	fix_post	2		12	79.0	2.5	/experiments/knapen_AOT/AOT_stimuli/rescaled_final/1769_rv.mp4	0.0	357.7220540046692	0.100006103515625
82	340.65094017982483	fix_pre	0		119	80.0	2.5	/experiments/knapen_AOT/AOT_stimuli/rescaled_final/1166_fw.mp4	0.0	357.8220601081848	1.0002706050872803
82	341.6350517272949	pulse	0	t		80.0	2.5	/experiments/knapen_AOT/AOT_stimuli/rescaled_final/1166_fw.mp4	0.0	358.8061716556549	
82	341.6512107849121	movie	1		283	80.0	2.5	/experiments/knapen_AOT/AOT_stimuli/rescaled_final/1166_fw.mp4	0.0	358.8223307132721	2.5002706050872803
82	343.23309445381165	pulse	1	t		80.0	2.5	/experiments/knapen_AOT/AOT_stimuli/rescaled_final/1166_fw.mp4	0.0	360.40421438217163	
82	344.1514813899994	fix_post	2		12	80.0	2.5	/experiments/knapen_AOT/AOT_stimuli/rescaled_final/1166_fw.mp4	0.0	361.3226013183594	0.09996390342712402
83	344.2514452934265	fix_pre	0		120	81.0	2.5	/experiments/knapen_AOT/AOT_stimuli/rescaled_final/1635_fw.mp4	0.0	361.4225652217865	1.0085835456848145
83	344.83509063720703	pulse	0	t		81.0	2.5	/experiments/knapen_AOT/AOT_stimuli/rescaled_final/1635_fw.mp4	0.0	362.006210565567	
83	345.2600288391113	movie	1		275	81.0	2.5	/experiments/knapen_AOT/AOT_stimuli/rescaled_final/1635_fw.mp4	0.0	362.4311487674713	2.4922568798065186
83	346.43408727645874	pulse	1	t		81.0	2.5	/experiments/knapen_AOT/AOT_stimuli/rescaled_final/1635_fw.mp4	0.0	363.6052072048187	
83	347.75228571891785	fix_post	2		12	81.0	2.5	/experiments/knapen_AOT/AOT_stimuli/rescaled_final/1635_fw.mp4	0.0	364.92340564727783	0.09980344772338867
84	347.85208916664124	fix_pre	0		120	82.0	2.5	blank	1.0	365.0232090950012	1.000063180923462
84	348.03557538986206	pulse	0	t		82.0	2.5	blank	1.0	365.20669531822205	
84	348.8521523475647	movie	1		300	82.0	2.5	blank	1.0	366.0232722759247	2.5003979206085205
84	349.63589572906494	pulse	1	t		82.0	2.5	blank	1.0	366.8070156574249	
84	351.23626351356506	pulse	1	t		82.0	2.5	blank	1.0	368.40738344192505	
84	351.3525502681732	fix_post	2		12	82.0	2.5	blank	1.0	368.5236701965332	0.1000208854675293
85	351.45257115364075	fix_pre	0		120	83.0	2.5	/experiments/knapen_AOT/AOT_stimuli/rescaled_final/1469_fw.mp4	0.0	368.62369108200073	1.0084798336029053
85	352.46105098724365	movie	1		279	83.0	2.5	/experiments/knapen_AOT/AOT_stimuli/rescaled_final/1469_fw.mp4	0.0	369.63217091560364	2.492431640625
85	352.836306810379	pulse	1	t		83.0	2.5	/experiments/knapen_AOT/AOT_stimuli/rescaled_final/1469_fw.mp4	0.0	370.007426738739	
85	354.42877531051636	pulse	1	t		83.0	2.5	/experiments/knapen_AOT/AOT_stimuli/rescaled_final/1469_fw.mp4	0.0	371.59989523887634	
85	354.95348262786865	fix_post	2		12	83.0	2.5	/experiments/knapen_AOT/AOT_stimuli/rescaled_final/1469_fw.mp4	0.0	372.12460255622864	0.0997776985168457
87	355.0532603263855	stim	0		1716					372.2243802547455	14.302023649215698
87	356.02864384651184	pulse	0	t						373.1997637748718	
87	357.62869453430176	pulse	0	t						374.79981446266174	
87	359.2291510105133	pulse	0	t						376.4002709388733	
87	360.82921624183655	pulse	0	t						378.00033617019653	
87	362.4295394420624	pulse	0	t						379.60065937042236	
87	364.0296347141266	pulse	0	t						381.2007546424866	
87	365.6299338340759	pulse	0	t						382.8010537624359	
87	367.23020482063293	pulse	0	t						384.4013247489929	
87	368.8304512500763	pulse	0	t						386.0015711784363	
