trial_nr	onset	event_type	phase	response	nr_frames	movie_index	movie_duration	movie_file	blank	onset_abs	duration
0	0.19981098175048828	stim	0		160					31.183959007263184	1.33353590965271
0	1.5253798961639404	response	0	space						32.509527921676636	
1	1.5333468914031982	stim	0		5310					32.517494916915894	44.268999099731445
1	45.78740096092224	pulse	0	t						76.77154898643494	
1	45.802345991134644	stim	1		1715					76.78649401664734	14.298198938369751
1	47.382099866867065	pulse	1	t						78.36624789237976	
1	48.98229384422302	pulse	1	t						79.96644186973572	
1	50.58260679244995	pulse	1	t						81.56675481796265	
1	52.18278479576111	pulse	1	t						83.1669328212738	
1	53.783082008361816	pulse	1	t						84.76723003387451	
1	55.383171796798706	pulse	1	t						86.3673198223114	
1	56.98346996307373	pulse	1	t						87.96761798858643	
1	58.583781003952026	pulse	1	t						89.56792902946472	
2	60.100544929504395	fix_pre	0		11	0.0	2.5	/experiments/knapen_AOT/AOT_stimuli/rescaled_final/1673_rv.mp4	0.0	91.08469295501709	0.09153199195861816
2	60.18405485153198	pulse	0	t		0.0	2.5	/experiments/knapen_AOT/AOT_stimuli/rescaled_final/1673_rv.mp4	0.0	91.16820287704468	
2	60.19207692146301	movie	1		243	0.0	2.5	/experiments/knapen_AOT/AOT_stimuli/rescaled_final/1673_rv.mp4	0.0	91.17622494697571	2.508749008178711
2	61.785040855407715	pulse	1	t		0.0	2.5	/experiments/knapen_AOT/AOT_stimuli/rescaled_final/1673_rv.mp4	0.0	92.76918888092041	
2	62.700825929641724	fix_post	2		12	0.0	2.5	/experiments/knapen_AOT/AOT_stimuli/rescaled_final/1673_rv.mp4	0.0	93.68497395515442	0.10003399848937988
3	62.8008599281311	fix_pre	0		120	1.0	2.5	/experiments/knapen_AOT/AOT_stimuli/rescaled_final/0973_rv.mp4	0.0	93.7850079536438	1.000119924545288
3	63.376914978027344	pulse	0	t		1.0	2.5	/experiments/knapen_AOT/AOT_stimuli/rescaled_final/0973_rv.mp4	0.0	94.36106300354004	
3	63.80097985267639	movie	1		243	1.0	2.5	/experiments/knapen_AOT/AOT_stimuli/rescaled_final/0973_rv.mp4	0.0	94.78512787818909	2.5003931522369385
3	64.97705483436584	pulse	1	t		1.0	2.5	/experiments/knapen_AOT/AOT_stimuli/rescaled_final/0973_rv.mp4	0.0	95.96120285987854	
3	66.30137300491333	fix_post	2		12	1.0	2.5	/experiments/knapen_AOT/AOT_stimuli/rescaled_final/0973_rv.mp4	0.0	97.28552103042603	0.10007596015930176
4	66.40144896507263	fix_pre	0		120	2.0	2.5	/experiments/knapen_AOT/AOT_stimuli/rescaled_final/2002_rv.mp4	0.0	97.38559699058533	1.0001389980316162
4	66.57757091522217	pulse	0	t		2.0	2.5	/experiments/knapen_AOT/AOT_stimuli/rescaled_final/2002_rv.mp4	0.0	97.56171894073486	
4	67.40158796310425	movie	1		244	2.0	2.5	/experiments/knapen_AOT/AOT_stimuli/rescaled_final/2002_rv.mp4	0.0	98.38573598861694	2.5003180503845215
4	68.17697286605835	pulse	1	t		2.0	2.5	/experiments/knapen_AOT/AOT_stimuli/rescaled_final/2002_rv.mp4	0.0	99.16112089157104	
4	69.77714991569519	pulse	1	t		2.0	2.5	/experiments/knapen_AOT/AOT_stimuli/rescaled_final/2002_rv.mp4	0.0	100.76129794120789	
4	69.90190601348877	fix_post	2		12	2.0	2.5	/experiments/knapen_AOT/AOT_stimuli/rescaled_final/2002_rv.mp4	0.0	100.88605403900146	0.1000518798828125
5	70.00195789337158	fix_pre	0		120	3.0	2.5	/experiments/knapen_AOT/AOT_stimuli/rescaled_final/1719_rv.mp4	0.0	100.98610591888428	1.0001161098480225
5	71.0020740032196	movie	1		243	3.0	2.5	/experiments/knapen_AOT/AOT_stimuli/rescaled_final/1719_rv.mp4	0.0	101.9862220287323	2.492034912109375
5	71.37731885910034	pulse	1	t		3.0	2.5	/experiments/knapen_AOT/AOT_stimuli/rescaled_final/1719_rv.mp4	0.0	102.36146688461304	
5	72.97767186164856	pulse	1	t		3.0	2.5	/experiments/knapen_AOT/AOT_stimuli/rescaled_final/1719_rv.mp4	0.0	103.96181988716125	
5	73.49410891532898	fix_post	2		12	3.0	2.5	/experiments/knapen_AOT/AOT_stimuli/rescaled_final/1719_rv.mp4	0.0	104.47825694084167	0.10005497932434082
6	73.59416389465332	fix_pre	0		119	4.0	2.5	/experiments/knapen_AOT/AOT_stimuli/rescaled_final/1045_rv.mp4	0.0	104.57831192016602	0.9917829036712646
6	74.5779299736023	pulse	0	t		4.0	2.5	/experiments/knapen_AOT/AOT_stimuli/rescaled_final/1045_rv.mp4	0.0	105.56207799911499	
6	74.58594679832458	movie	1		245	4.0	2.5	/experiments/knapen_AOT/AOT_stimuli/rescaled_final/1045_rv.mp4	0.0	105.57009482383728	2.508697986602783
6	76.17886281013489	pulse	1	t		4.0	2.5	/experiments/knapen_AOT/AOT_stimuli/rescaled_final/1045_rv.mp4	0.0	107.16301083564758	
6	77.09464478492737	fix_post	2		12	4.0	2.5	/experiments/knapen_AOT/AOT_stimuli/rescaled_final/1045_rv.mp4	0.0	108.07879281044006	0.10007715225219727
7	77.19472193717957	fix_pre	0		120	5.0	2.5	blank	1.0	108.17886996269226	1.0001049041748047
7	77.7782518863678	pulse	0	t		5.0	2.5	blank	1.0	108.7623999118805	
7	78.19482684135437	movie	1		300	5.0	2.5	blank	1.0	109.17897486686707	2.5003740787506104
7	79.3785150051117	pulse	1	t		5.0	2.5	blank	1.0	110.36266303062439	
7	80.69520092010498	fix_post	2		12	5.0	2.5	blank	1.0	111.67934894561768	0.10003995895385742
8	80.79524087905884	fix_pre	0		120	6.0	2.5	/experiments/knapen_AOT/AOT_stimuli/rescaled_final/1366_rv.mp4	0.0	111.77938890457153	1.0001389980316162
8	80.97895789146423	pulse	0	t		6.0	2.5	/experiments/knapen_AOT/AOT_stimuli/rescaled_final/1366_rv.mp4	0.0	111.96310591697693	
8	81.79537987709045	movie	1		245	6.0	2.5	/experiments/knapen_AOT/AOT_stimuli/rescaled_final/1366_rv.mp4	0.0	112.77952790260315	2.500361919403076
8	82.57911682128906	pulse	1	t		6.0	2.5	/experiments/knapen_AOT/AOT_stimuli/rescaled_final/1366_rv.mp4	0.0	113.56326484680176	
8	84.17705392837524	pulse	1	t		6.0	2.5	/experiments/knapen_AOT/AOT_stimuli/rescaled_final/1366_rv.mp4	0.0	115.16120195388794	
8	84.29574179649353	fix_post	2		12	6.0	2.5	/experiments/knapen_AOT/AOT_stimuli/rescaled_final/1366_rv.mp4	0.0	115.27988982200623	0.0999751091003418
9	84.39571690559387	fix_pre	0		120	7.0	2.5	/experiments/knapen_AOT/AOT_stimuli/rescaled_final/0987_rv.mp4	0.0	115.37986493110657	1.000175952911377
9	85.39589285850525	movie	1		243	7.0	2.5	/experiments/knapen_AOT/AOT_stimuli/rescaled_final/0987_rv.mp4	0.0	116.38004088401794	2.4920361042022705
9	85.78008389472961	pulse	1	t		7.0	2.5	/experiments/knapen_AOT/AOT_stimuli/rescaled_final/0987_rv.mp4	0.0	116.76423192024231	
9	87.3796877861023	pulse	1	t		7.0	2.5	/experiments/knapen_AOT/AOT_stimuli/rescaled_final/0987_rv.mp4	0.0	118.36383581161499	
9	87.88792896270752	fix_post	2		12	7.0	2.5	/experiments/knapen_AOT/AOT_stimuli/rescaled_final/0987_rv.mp4	0.0	118.87207698822021	0.10002493858337402
10	87.9879539012909	fix_pre	0		120	8.0	2.5	/experiments/knapen_AOT/AOT_stimuli/rescaled_final/0168_rv.mp4	0.0	118.97210192680359	1.0001230239868164
10	88.97998690605164	pulse	0	t		8.0	2.5	/experiments/knapen_AOT/AOT_stimuli/rescaled_final/0168_rv.mp4	0.0	119.96413493156433	
10	88.98807692527771	movie	1		245	8.0	2.5	/experiments/knapen_AOT/AOT_stimuli/rescaled_final/0168_rv.mp4	0.0	119.9722249507904	2.5087080001831055
10	90.58075881004333	pulse	1	t		8.0	2.5	/experiments/knapen_AOT/AOT_stimuli/rescaled_final/0168_rv.mp4	0.0	121.56490683555603	
10	91.49678492546082	fix_post	2		12	8.0	2.5	/experiments/knapen_AOT/AOT_stimuli/rescaled_final/0168_rv.mp4	0.0	122.48093295097351	0.10012102127075195
11	91.59690594673157	fix_pre	0		117	9.0	2.5	/experiments/knapen_AOT/AOT_stimuli/rescaled_final/0537_fw.mp4	0.0	122.58105397224426	1.0000739097595215
11	92.18050479888916	pulse	0	t		9.0	2.5	/experiments/knapen_AOT/AOT_stimuli/rescaled_final/0537_fw.mp4	0.0	123.16465282440186	
11	92.59697985649109	movie	1		244	9.0	2.5	/experiments/knapen_AOT/AOT_stimuli/rescaled_final/0537_fw.mp4	0.0	123.58112788200378	2.500343084335327
11	93.7807548046112	pulse	1	t		9.0	2.5	/experiments/knapen_AOT/AOT_stimuli/rescaled_final/0537_fw.mp4	0.0	124.7649028301239	
11	95.09732294082642	fix_post	2		12	9.0	2.5	/experiments/knapen_AOT/AOT_stimuli/rescaled_final/0537_fw.mp4	0.0	126.08147096633911	0.1000518798828125
12	95.19737482070923	fix_pre	0		120	10.0	2.5	/experiments/knapen_AOT/AOT_stimuli/rescaled_final/0595_fw.mp4	0.0	126.18152284622192	1.0001909732818604
12	95.38097882270813	pulse	0	t		10.0	2.5	/experiments/knapen_AOT/AOT_stimuli/rescaled_final/0595_fw.mp4	0.0	126.36512684822083	
12	96.19756579399109	movie	1		243	10.0	2.5	/experiments/knapen_AOT/AOT_stimuli/rescaled_final/0595_fw.mp4	0.0	127.18171381950378	2.500310182571411
12	96.98118686676025	pulse	1	t		10.0	2.5	/experiments/knapen_AOT/AOT_stimuli/rescaled_final/0595_fw.mp4	0.0	127.96533489227295	
12	98.58146381378174	pulse	1	t		10.0	2.5	/experiments/knapen_AOT/AOT_stimuli/rescaled_final/0595_fw.mp4	0.0	129.56561183929443	
12	98.6978759765625	fix_post	2		12	10.0	2.5	/experiments/knapen_AOT/AOT_stimuli/rescaled_final/0595_fw.mp4	0.0	129.6820240020752	0.10009503364562988
13	98.79797101020813	fix_pre	0		120	11.0	2.5	/experiments/knapen_AOT/AOT_stimuli/rescaled_final/0168_rv.mp4	0.0	129.78211903572083	1.0000858306884766
13	99.7980568408966	movie	1		242	11.0	2.5	/experiments/knapen_AOT/AOT_stimuli/rescaled_final/0168_rv.mp4	0.0	130.7822048664093	2.4920310974121094
13	100.18221879005432	pulse	1	t		11.0	2.5	/experiments/knapen_AOT/AOT_stimuli/rescaled_final/0168_rv.mp4	0.0	131.16636681556702	
13	101.78190493583679	pulse	1	t		11.0	2.5	/experiments/knapen_AOT/AOT_stimuli/rescaled_final/0168_rv.mp4	0.0	132.7660529613495	
13	102.29008793830872	fix_post	2		12	11.0	2.5	/experiments/knapen_AOT/AOT_stimuli/rescaled_final/0168_rv.mp4	0.0	133.2742359638214	0.09999990463256836
14	102.39008784294128	fix_pre	0		120	12.0	2.5	/experiments/knapen_AOT/AOT_stimuli/rescaled_final/0577_fw.mp4	0.0	133.37423586845398	1.0001709461212158
14	103.38218688964844	pulse	0	t		12.0	2.5	/experiments/knapen_AOT/AOT_stimuli/rescaled_final/0577_fw.mp4	0.0	134.36633491516113	
14	103.3902587890625	movie	1		245	12.0	2.5	/experiments/knapen_AOT/AOT_stimuli/rescaled_final/0577_fw.mp4	0.0	134.3744068145752	2.508693218231201
14	104.98690390586853	pulse	1	t		12.0	2.5	/experiments/knapen_AOT/AOT_stimuli/rescaled_final/0577_fw.mp4	0.0	135.97105193138123	
14	105.8989520072937	fix_post	2		12	12.0	2.5	/experiments/knapen_AOT/AOT_stimuli/rescaled_final/0577_fw.mp4	0.0	136.8831000328064	0.10003185272216797
15	105.99898386001587	fix_pre	0		120	13.0	2.5	/experiments/knapen_AOT/AOT_stimuli/rescaled_final/0417_rv.mp4	0.0	136.98313188552856	1.0001490116119385
15	106.58270788192749	pulse	0	t		13.0	2.5	/experiments/knapen_AOT/AOT_stimuli/rescaled_final/0417_rv.mp4	0.0	137.56685590744019	
15	106.99913287162781	movie	1		244	13.0	2.5	/experiments/knapen_AOT/AOT_stimuli/rescaled_final/0417_rv.mp4	0.0	137.9832808971405	2.5003881454467773
15	108.18290591239929	pulse	1	t		13.0	2.5	/experiments/knapen_AOT/AOT_stimuli/rescaled_final/0417_rv.mp4	0.0	139.167053937912	
15	109.49952101707458	fix_post	2		12	13.0	2.5	/experiments/knapen_AOT/AOT_stimuli/rescaled_final/0417_rv.mp4	0.0	140.48366904258728	0.10001492500305176
16	109.59953594207764	fix_pre	0		120	14.0	2.5	blank	1.0	140.58368396759033	1.0001120567321777
16	109.78302788734436	pulse	0	t		14.0	2.5	blank	1.0	140.76717591285706	
16	110.59964799880981	movie	1		300	14.0	2.5	blank	1.0	141.5837960243225	2.5003788471221924
16	111.38328289985657	pulse	1	t		14.0	2.5	blank	1.0	142.36743092536926	
16	112.9836528301239	pulse	1	t		14.0	2.5	blank	1.0	143.9678008556366	
16	113.100026845932	fix_post	2		12	14.0	2.5	blank	1.0	144.0841748714447	0.10001516342163086
17	113.20004200935364	fix_pre	0		120	15.0	2.5	/experiments/knapen_AOT/AOT_stimuli/rescaled_final/2140_rv.mp4	0.0	144.18419003486633	1.000135898590088
17	114.20017790794373	movie	1		243	15.0	2.5	/experiments/knapen_AOT/AOT_stimuli/rescaled_final/2140_rv.mp4	0.0	145.18432593345642	2.4920389652252197
17	114.58460092544556	pulse	1	t		15.0	2.5	/experiments/knapen_AOT/AOT_stimuli/rescaled_final/2140_rv.mp4	0.0	145.56874895095825	
17	116.17657899856567	pulse	1	t		15.0	2.5	/experiments/knapen_AOT/AOT_stimuli/rescaled_final/2140_rv.mp4	0.0	147.16072702407837	
17	116.69221687316895	fix_post	2		12	15.0	2.5	/experiments/knapen_AOT/AOT_stimuli/rescaled_final/2140_rv.mp4	0.0	147.67636489868164	0.10000300407409668
18	116.79221987724304	fix_pre	0		120	16.0	2.5	/experiments/knapen_AOT/AOT_stimuli/rescaled_final/1260_rv.mp4	0.0	147.77636790275574	1.000230073928833
18	117.77681183815002	pulse	0	t		16.0	2.5	/experiments/knapen_AOT/AOT_stimuli/rescaled_final/1260_rv.mp4	0.0	148.76095986366272	
18	117.79244995117188	movie	1		247	16.0	2.5	/experiments/knapen_AOT/AOT_stimuli/rescaled_final/1260_rv.mp4	0.0	148.77659797668457	2.5086679458618164
18	119.38576197624207	pulse	1	t		16.0	2.5	/experiments/knapen_AOT/AOT_stimuli/rescaled_final/1260_rv.mp4	0.0	150.36991000175476	
18	120.30111789703369	fix_post	2		12	16.0	2.5	/experiments/knapen_AOT/AOT_stimuli/rescaled_final/1260_rv.mp4	0.0	151.2852659225464	0.10000205039978027
19	120.40111994743347	fix_pre	0		120	17.0	2.5	/experiments/knapen_AOT/AOT_stimuli/rescaled_final/1404_rv.mp4	0.0	151.38526797294617	1.0001518726348877
19	120.97716999053955	pulse	0	t		17.0	2.5	/experiments/knapen_AOT/AOT_stimuli/rescaled_final/1404_rv.mp4	0.0	151.96131801605225	
19	121.40127182006836	movie	1		245	17.0	2.5	/experiments/knapen_AOT/AOT_stimuli/rescaled_final/1404_rv.mp4	0.0	152.38541984558105	2.500364065170288
19	122.57790684700012	pulse	1	t		17.0	2.5	/experiments/knapen_AOT/AOT_stimuli/rescaled_final/1404_rv.mp4	0.0	153.56205487251282	
19	123.90163588523865	fix_post	2		12	17.0	2.5	/experiments/knapen_AOT/AOT_stimuli/rescaled_final/1404_rv.mp4	0.0	154.88578391075134	0.10003495216369629
20	124.00167083740234	fix_pre	0		120	18.0	2.5	/experiments/knapen_AOT/AOT_stimuli/rescaled_final/1778_fw.mp4	0.0	154.98581886291504	1.000171184539795
20	124.17685794830322	pulse	0	t		18.0	2.5	/experiments/knapen_AOT/AOT_stimuli/rescaled_final/1778_fw.mp4	0.0	155.16100597381592	
20	125.00184202194214	movie	1		244	18.0	2.5	/experiments/knapen_AOT/AOT_stimuli/rescaled_final/1778_fw.mp4	0.0	155.98599004745483	2.500316858291626
20	125.77706098556519	pulse	1	t		18.0	2.5	/experiments/knapen_AOT/AOT_stimuli/rescaled_final/1778_fw.mp4	0.0	156.76120901107788	
20	127.37732100486755	pulse	1	t		18.0	2.5	/experiments/knapen_AOT/AOT_stimuli/rescaled_final/1778_fw.mp4	0.0	158.36146903038025	
20	127.50215888023376	fix_post	2		11	18.0	2.5	/experiments/knapen_AOT/AOT_stimuli/rescaled_final/1778_fw.mp4	0.0	158.48630690574646	0.09173297882080078
21	127.59389185905457	fix_pre	0		120	19.0	2.5	/experiments/knapen_AOT/AOT_stimuli/rescaled_final/2041_fw.mp4	0.0	158.57803988456726	1.0001029968261719
21	128.59399485588074	movie	1		243	19.0	2.5	/experiments/knapen_AOT/AOT_stimuli/rescaled_final/2041_fw.mp4	0.0	159.57814288139343	2.5003740787506104
21	128.9782338142395	pulse	1	t		19.0	2.5	/experiments/knapen_AOT/AOT_stimuli/rescaled_final/2041_fw.mp4	0.0	159.9623818397522	
21	130.5779058933258	pulse	1	t		19.0	2.5	/experiments/knapen_AOT/AOT_stimuli/rescaled_final/2041_fw.mp4	0.0	161.5620539188385	
21	131.09436893463135	fix_post	2		12	19.0	2.5	/experiments/knapen_AOT/AOT_stimuli/rescaled_final/2041_fw.mp4	0.0	162.07851696014404	0.10004806518554688
22	131.1944169998169	fix_pre	0		119	20.0	2.5	blank	1.0	162.1785650253296	0.9917848110198975
22	132.17808389663696	pulse	0	t		20.0	2.5	blank	1.0	163.16223192214966	
22	132.1862018108368	movie	1		301	20.0	2.5	blank	1.0	163.1703498363495	2.5087220668792725
22	133.77825593948364	pulse	1	t		20.0	2.5	blank	1.0	164.76240396499634	
22	134.69492387771606	fix_post	2		12	20.0	2.5	blank	1.0	165.67907190322876	0.10000801086425781
23	134.79493188858032	fix_pre	0		120	21.0	2.5	/experiments/knapen_AOT/AOT_stimuli/rescaled_final/2024_rv.mp4	0.0	165.77907991409302	1.0001320838928223
23	135.37864685058594	pulse	0	t		21.0	2.5	/experiments/knapen_AOT/AOT_stimuli/rescaled_final/2024_rv.mp4	0.0	166.36279487609863	
23	135.79506397247314	movie	1		245	21.0	2.5	/experiments/knapen_AOT/AOT_stimuli/rescaled_final/2024_rv.mp4	0.0	166.77921199798584	2.5004160404205322
23	136.97898888587952	pulse	1	t		21.0	2.5	/experiments/knapen_AOT/AOT_stimuli/rescaled_final/2024_rv.mp4	0.0	167.9631369113922	
23	138.29548001289368	fix_post	2		12	21.0	2.5	/experiments/knapen_AOT/AOT_stimuli/rescaled_final/2024_rv.mp4	0.0	169.27962803840637	0.09996581077575684
24	138.39544582366943	fix_pre	0		120	22.0	2.5	/experiments/knapen_AOT/AOT_stimuli/rescaled_final/1133_rv.mp4	0.0	169.37959384918213	1.000171184539795
24	138.5790820121765	pulse	0	t		22.0	2.5	/experiments/knapen_AOT/AOT_stimuli/rescaled_final/1133_rv.mp4	0.0	169.5632300376892	
24	139.39561700820923	movie	1		244	22.0	2.5	/experiments/knapen_AOT/AOT_stimuli/rescaled_final/1133_rv.mp4	0.0	170.37976503372192	2.5003628730773926
24	140.1792049407959	pulse	1	t		22.0	2.5	/experiments/knapen_AOT/AOT_stimuli/rescaled_final/1133_rv.mp4	0.0	171.1633529663086	
24	141.78297996520996	pulse	1	t		22.0	2.5	/experiments/knapen_AOT/AOT_stimuli/rescaled_final/1133_rv.mp4	0.0	172.76712799072266	
24	141.89597988128662	fix_post	2		12	22.0	2.5	/experiments/knapen_AOT/AOT_stimuli/rescaled_final/1133_rv.mp4	0.0	172.88012790679932	0.1000509262084961
25	141.99603080749512	fix_pre	0		119	23.0	2.5	/experiments/knapen_AOT/AOT_stimuli/rescaled_final/1133_fw.mp4	0.0	172.9801788330078	0.9917740821838379
25	142.98780488967896	movie	1		244	23.0	2.5	/experiments/knapen_AOT/AOT_stimuli/rescaled_final/1133_fw.mp4	0.0	173.97195291519165	2.500399112701416
25	143.37993788719177	pulse	1	t		23.0	2.5	/experiments/knapen_AOT/AOT_stimuli/rescaled_final/1133_fw.mp4	0.0	174.36408591270447	
25	144.98014092445374	pulse	1	t		23.0	2.5	/experiments/knapen_AOT/AOT_stimuli/rescaled_final/1133_fw.mp4	0.0	175.96428894996643	
25	145.48820400238037	fix_post	2		12	23.0	2.5	/experiments/knapen_AOT/AOT_stimuli/rescaled_final/1133_fw.mp4	0.0	176.47235202789307	0.09998893737792969
26	145.5881929397583	fix_pre	0		120	24.0	2.5	/experiments/knapen_AOT/AOT_stimuli/rescaled_final/0230_fw.mp4	0.0	176.572340965271	1.000190019607544
26	146.58022379875183	pulse	0	t		24.0	2.5	/experiments/knapen_AOT/AOT_stimuli/rescaled_final/0230_fw.mp4	0.0	177.56437182426453	
26	146.58838295936584	movie	1		244	24.0	2.5	/experiments/knapen_AOT/AOT_stimuli/rescaled_final/0230_fw.mp4	0.0	177.57253098487854	2.5086989402770996
26	148.18095588684082	pulse	1	t		24.0	2.5	/experiments/knapen_AOT/AOT_stimuli/rescaled_final/0230_fw.mp4	0.0	179.16510391235352	
26	149.09708189964294	fix_post	2		12	24.0	2.5	/experiments/knapen_AOT/AOT_stimuli/rescaled_final/0230_fw.mp4	0.0	180.08122992515564	0.09999799728393555
27	149.19707989692688	fix_pre	0		120	25.0	2.5	/experiments/knapen_AOT/AOT_stimuli/rescaled_final/1951_fw.mp4	0.0	180.18122792243958	1.0001349449157715
27	149.78080201148987	pulse	0	t		25.0	2.5	/experiments/knapen_AOT/AOT_stimuli/rescaled_final/1951_fw.mp4	0.0	180.76495003700256	
27	150.19721484184265	movie	1		243	25.0	2.5	/experiments/knapen_AOT/AOT_stimuli/rescaled_final/1951_fw.mp4	0.0	181.18136286735535	2.5003890991210938
27	151.38111996650696	pulse	1	t		25.0	2.5	/experiments/knapen_AOT/AOT_stimuli/rescaled_final/1951_fw.mp4	0.0	182.36526799201965	
27	152.69760394096375	fix_post	2		12	25.0	2.5	/experiments/knapen_AOT/AOT_stimuli/rescaled_final/1951_fw.mp4	0.0	183.68175196647644	0.10003089904785156
28	152.7976348400116	fix_pre	0		117	26.0	2.5	blank	1.0	183.7817828655243	1.0001039505004883
28	152.98125290870667	pulse	0	t		26.0	2.5	blank	1.0	183.96540093421936	
28	153.79773879051208	movie	1		300	26.0	2.5	blank	1.0	184.78188681602478	2.500418186187744
28	154.5813729763031	pulse	1	t		26.0	2.5	blank	1.0	185.5655210018158	
28	156.1816098690033	pulse	1	t		26.0	2.5	blank	1.0	187.165757894516	
28	156.29815697669983	fix_post	2		12	26.0	2.5	blank	1.0	187.28230500221252	0.10000991821289062
29	156.39816689491272	fix_pre	0		119	27.0	2.5	/experiments/knapen_AOT/AOT_stimuli/rescaled_final/0864_rv.mp4	0.0	187.38231492042542	0.9917919635772705
29	157.38995885849	movie	1		244	27.0	2.5	/experiments/knapen_AOT/AOT_stimuli/rescaled_final/0864_rv.mp4	0.0	188.37410688400269	2.5003910064697266
29	157.78200697898865	pulse	1	t		27.0	2.5	/experiments/knapen_AOT/AOT_stimuli/rescaled_final/0864_rv.mp4	0.0	188.76615500450134	
29	159.3822147846222	pulse	1	t		27.0	2.5	/experiments/knapen_AOT/AOT_stimuli/rescaled_final/0864_rv.mp4	0.0	190.3663628101349	
29	159.89034986495972	fix_post	2		12	27.0	2.5	/experiments/knapen_AOT/AOT_stimuli/rescaled_final/0864_rv.mp4	0.0	190.8744978904724	0.09998202323913574
30	159.99033188819885	fix_pre	0		120	28.0	2.5	/experiments/knapen_AOT/AOT_stimuli/rescaled_final/0633_rv.mp4	0.0	190.97447991371155	1.0001749992370605
30	160.98232793807983	pulse	0	t		28.0	2.5	/experiments/knapen_AOT/AOT_stimuli/rescaled_final/0633_rv.mp4	0.0	191.96647596359253	
30	160.9905068874359	movie	1		244	28.0	2.5	/experiments/knapen_AOT/AOT_stimuli/rescaled_final/0633_rv.mp4	0.0	191.9746549129486	2.508681058883667
30	162.5873248577118	pulse	1	t		28.0	2.5	/experiments/knapen_AOT/AOT_stimuli/rescaled_final/0633_rv.mp4	0.0	193.5714728832245	
30	163.49918794631958	fix_post	2		12	28.0	2.5	/experiments/knapen_AOT/AOT_stimuli/rescaled_final/0633_rv.mp4	0.0	194.48333597183228	0.10008001327514648
31	163.59926795959473	fix_pre	0		120	29.0	2.5	/experiments/knapen_AOT/AOT_stimuli/rescaled_final/1119_fw.mp4	0.0	194.58341598510742	1.0000970363616943
31	164.18295693397522	pulse	0	t		29.0	2.5	/experiments/knapen_AOT/AOT_stimuli/rescaled_final/1119_fw.mp4	0.0	195.16710495948792	
31	164.59936499595642	movie	1		244	29.0	2.5	/experiments/knapen_AOT/AOT_stimuli/rescaled_final/1119_fw.mp4	0.0	195.58351302146912	2.500393867492676
31	165.77855491638184	pulse	1	t		29.0	2.5	/experiments/knapen_AOT/AOT_stimuli/rescaled_final/1119_fw.mp4	0.0	196.76270294189453	
31	167.0997588634491	fix_post	2		12	29.0	2.5	/experiments/knapen_AOT/AOT_stimuli/rescaled_final/1119_fw.mp4	0.0	198.0839068889618	0.10004806518554688
32	167.19980692863464	fix_pre	0		120	30.0	2.5	/experiments/knapen_AOT/AOT_stimuli/rescaled_final/1956_rv.mp4	0.0	198.18395495414734	1.0001299381256104
32	167.38339185714722	pulse	0	t		30.0	2.5	/experiments/knapen_AOT/AOT_stimuli/rescaled_final/1956_rv.mp4	0.0	198.3675398826599	
32	168.19993686676025	movie	1		243	30.0	2.5	/experiments/knapen_AOT/AOT_stimuli/rescaled_final/1956_rv.mp4	0.0	199.18408489227295	2.5003321170806885
32	168.97613787651062	pulse	1	t		30.0	2.5	/experiments/knapen_AOT/AOT_stimuli/rescaled_final/1956_rv.mp4	0.0	199.96028590202332	
32	170.58374094963074	pulse	1	t		30.0	2.5	/experiments/knapen_AOT/AOT_stimuli/rescaled_final/1956_rv.mp4	0.0	201.56788897514343	
32	170.70026898384094	fix_post	2		12	30.0	2.5	/experiments/knapen_AOT/AOT_stimuli/rescaled_final/1956_rv.mp4	0.0	201.68441700935364	0.10002493858337402
33	170.80029392242432	fix_pre	0		119	31.0	2.5	/experiments/knapen_AOT/AOT_stimuli/rescaled_final/0836_rv.mp4	0.0	201.784441947937	0.9918510913848877
33	171.7921450138092	movie	1		244	31.0	2.5	/experiments/knapen_AOT/AOT_stimuli/rescaled_final/0836_rv.mp4	0.0	202.7762930393219	2.5003628730773926
33	172.17633080482483	pulse	1	t		31.0	2.5	/experiments/knapen_AOT/AOT_stimuli/rescaled_final/0836_rv.mp4	0.0	203.16047883033752	
33	173.7769479751587	pulse	1	t		31.0	2.5	/experiments/knapen_AOT/AOT_stimuli/rescaled_final/0836_rv.mp4	0.0	204.7610960006714	
33	174.2925078868866	fix_post	2		12	31.0	2.5	/experiments/knapen_AOT/AOT_stimuli/rescaled_final/0836_rv.mp4	0.0	205.2766559123993	0.09999394416809082
34	174.3925018310547	fix_pre	0		120	32.0	2.5	/experiments/knapen_AOT/AOT_stimuli/rescaled_final/0644_fw.mp4	0.0	205.37664985656738	1.0001940727233887
34	175.37694382667542	pulse	0	t		32.0	2.5	/experiments/knapen_AOT/AOT_stimuli/rescaled_final/0644_fw.mp4	0.0	206.3610918521881	
34	175.39269590377808	movie	1		244	32.0	2.5	/experiments/knapen_AOT/AOT_stimuli/rescaled_final/0644_fw.mp4	0.0	206.37684392929077	2.5086829662323
34	176.97640299797058	pulse	1	t		32.0	2.5	/experiments/knapen_AOT/AOT_stimuli/rescaled_final/0644_fw.mp4	0.0	207.96055102348328	
34	177.90137887001038	fix_post	2		12	32.0	2.5	/experiments/knapen_AOT/AOT_stimuli/rescaled_final/0644_fw.mp4	0.0	208.88552689552307	0.10000395774841309
35	178.0013828277588	fix_pre	0		120	33.0	2.5	blank	1.0	208.98553085327148	1.0001640319824219
35	178.57661390304565	pulse	0	t		33.0	2.5	blank	1.0	209.56076192855835	
35	179.0015468597412	movie	1		300	33.0	2.5	blank	1.0	209.9856948852539	2.5003769397735596
35	180.17686700820923	pulse	1	t		33.0	2.5	blank	1.0	211.16101503372192	
35	181.50192379951477	fix_post	2		12	33.0	2.5	blank	1.0	212.48607182502747	0.09998703002929688
36	181.60191082954407	fix_pre	0		120	34.0	2.5	/experiments/knapen_AOT/AOT_stimuli/rescaled_final/2142_fw.mp4	0.0	212.58605885505676	1.0001790523529053
36	181.7770698070526	pulse	0	t		34.0	2.5	/experiments/knapen_AOT/AOT_stimuli/rescaled_final/2142_fw.mp4	0.0	212.7612178325653	
36	182.60208988189697	movie	1		244	34.0	2.5	/experiments/knapen_AOT/AOT_stimuli/rescaled_final/2142_fw.mp4	0.0	213.58623790740967	2.5003650188446045
36	183.3773558139801	pulse	1	t		34.0	2.5	/experiments/knapen_AOT/AOT_stimuli/rescaled_final/2142_fw.mp4	0.0	214.3615038394928	
36	184.97763586044312	pulse	1	t		34.0	2.5	/experiments/knapen_AOT/AOT_stimuli/rescaled_final/2142_fw.mp4	0.0	215.9617838859558	
36	185.10245490074158	fix_post	2		12	34.0	2.5	/experiments/knapen_AOT/AOT_stimuli/rescaled_final/2142_fw.mp4	0.0	216.08660292625427	0.09999394416809082
37	185.20244884490967	fix_pre	0		119	35.0	2.5	/experiments/knapen_AOT/AOT_stimuli/rescaled_final/0600_fw.mp4	0.0	216.18659687042236	0.9918229579925537
37	186.19427180290222	movie	1		245	35.0	2.5	/experiments/knapen_AOT/AOT_stimuli/rescaled_final/0600_fw.mp4	0.0	217.17841982841492	2.5003821849823
37	186.57848501205444	pulse	1	t		35.0	2.5	/experiments/knapen_AOT/AOT_stimuli/rescaled_final/0600_fw.mp4	0.0	217.56263303756714	
37	188.17811489105225	pulse	1	t		35.0	2.5	/experiments/knapen_AOT/AOT_stimuli/rescaled_final/0600_fw.mp4	0.0	219.16226291656494	
37	188.69465398788452	fix_post	2		12	35.0	2.5	/experiments/knapen_AOT/AOT_stimuli/rescaled_final/0600_fw.mp4	0.0	219.67880201339722	0.0999908447265625
38	188.79464483261108	fix_pre	0		119	36.0	2.5	/experiments/knapen_AOT/AOT_stimuli/rescaled_final/0639_rv.mp4	0.0	219.77879285812378	0.9918081760406494
38	189.77827382087708	pulse	0	t		36.0	2.5	/experiments/knapen_AOT/AOT_stimuli/rescaled_final/0639_rv.mp4	0.0	220.76242184638977	
38	189.78645300865173	movie	1		245	36.0	2.5	/experiments/knapen_AOT/AOT_stimuli/rescaled_final/0639_rv.mp4	0.0	220.77060103416443	2.5087099075317383
38	191.37988591194153	pulse	1	t		36.0	2.5	/experiments/knapen_AOT/AOT_stimuli/rescaled_final/0639_rv.mp4	0.0	222.36403393745422	
38	192.29516291618347	fix_post	2		12	36.0	2.5	/experiments/knapen_AOT/AOT_stimuli/rescaled_final/0639_rv.mp4	0.0	223.27931094169617	0.10002303123474121
39	192.3951859474182	fix_pre	0		120	37.0	2.5	/experiments/knapen_AOT/AOT_stimuli/rescaled_final/2123_rv.mp4	0.0	223.3793339729309	1.0001959800720215
39	192.97878289222717	pulse	0	t		37.0	2.5	/experiments/knapen_AOT/AOT_stimuli/rescaled_final/2123_rv.mp4	0.0	223.96293091773987	
39	193.39538192749023	movie	1		243	37.0	2.5	/experiments/knapen_AOT/AOT_stimuli/rescaled_final/2123_rv.mp4	0.0	224.37952995300293	2.5003349781036377
39	194.57918190956116	pulse	1	t		37.0	2.5	/experiments/knapen_AOT/AOT_stimuli/rescaled_final/2123_rv.mp4	0.0	225.56332993507385	
39	195.89571690559387	fix_post	2		12	37.0	2.5	/experiments/knapen_AOT/AOT_stimuli/rescaled_final/2123_rv.mp4	0.0	226.87986493110657	0.09998798370361328
40	195.99570488929749	fix_pre	0		120	38.0	2.5	/experiments/knapen_AOT/AOT_stimuli/rescaled_final/2041_rv.mp4	0.0	226.97985291481018	1.0002119541168213
40	196.1792368888855	pulse	0	t		38.0	2.5	/experiments/knapen_AOT/AOT_stimuli/rescaled_final/2041_rv.mp4	0.0	227.1633849143982	
40	196.9959168434143	movie	1		244	38.0	2.5	/experiments/knapen_AOT/AOT_stimuli/rescaled_final/2041_rv.mp4	0.0	227.980064868927	2.500336170196533
40	197.77960300445557	pulse	1	t		38.0	2.5	/experiments/knapen_AOT/AOT_stimuli/rescaled_final/2041_rv.mp4	0.0	228.76375102996826	
40	199.37977600097656	pulse	1	t		38.0	2.5	/experiments/knapen_AOT/AOT_stimuli/rescaled_final/2041_rv.mp4	0.0	230.36392402648926	
40	199.49625301361084	fix_post	2		12	38.0	2.5	/experiments/knapen_AOT/AOT_stimuli/rescaled_final/2041_rv.mp4	0.0	230.48040103912354	0.1000969409942627
41	199.5963499546051	fix_pre	0		120	39.0	2.5	/experiments/knapen_AOT/AOT_stimuli/rescaled_final/1971_rv.mp4	0.0	230.5804979801178	1.000053882598877
41	200.59640383720398	movie	1		243	39.0	2.5	/experiments/knapen_AOT/AOT_stimuli/rescaled_final/1971_rv.mp4	0.0	231.58055186271667	2.492043972015381
41	200.98069787025452	pulse	1	t		39.0	2.5	/experiments/knapen_AOT/AOT_stimuli/rescaled_final/1971_rv.mp4	0.0	231.9648458957672	
41	202.58024501800537	pulse	1	t		39.0	2.5	/experiments/knapen_AOT/AOT_stimuli/rescaled_final/1971_rv.mp4	0.0	233.56439304351807	
41	203.08844780921936	fix_post	2		12	39.0	2.5	/experiments/knapen_AOT/AOT_stimuli/rescaled_final/1971_rv.mp4	0.0	234.07259583473206	0.10001897811889648
42	203.18846678733826	fix_pre	0		120	40.0	2.5	/experiments/knapen_AOT/AOT_stimuli/rescaled_final/0392_rv.mp4	0.0	234.17261481285095	1.0001471042633057
42	204.18058490753174	pulse	0	t		40.0	2.5	/experiments/knapen_AOT/AOT_stimuli/rescaled_final/0392_rv.mp4	0.0	235.16473293304443	
42	204.18861389160156	movie	1		244	40.0	2.5	/experiments/knapen_AOT/AOT_stimuli/rescaled_final/0392_rv.mp4	0.0	235.17276191711426	2.508768081665039
42	205.78132390975952	pulse	1	t		40.0	2.5	/experiments/knapen_AOT/AOT_stimuli/rescaled_final/0392_rv.mp4	0.0	236.76547193527222	
42	206.6973819732666	fix_post	2		12	40.0	2.5	/experiments/knapen_AOT/AOT_stimuli/rescaled_final/0392_rv.mp4	0.0	237.6815299987793	0.09994387626647949
43	206.79732584953308	fix_pre	0		120	41.0	2.5	blank	1.0	237.78147387504578	1.0002150535583496
43	207.38098788261414	pulse	0	t		41.0	2.5	blank	1.0	238.36513590812683	
43	207.79754090309143	movie	1		300	41.0	2.5	blank	1.0	238.78168892860413	2.5003530979156494
43	208.98115992546082	pulse	1	t		41.0	2.5	blank	1.0	239.9653079509735	
43	210.29789400100708	fix_post	2		12	41.0	2.5	blank	1.0	241.28204202651978	0.0999898910522461
44	210.39788389205933	fix_pre	0		120	42.0	2.5	/experiments/knapen_AOT/AOT_stimuli/rescaled_final/1089_rv.mp4	0.0	241.38203191757202	1.0001769065856934
44	210.58144688606262	pulse	0	t		42.0	2.5	/experiments/knapen_AOT/AOT_stimuli/rescaled_final/1089_rv.mp4	0.0	241.56559491157532	
44	211.39806079864502	movie	1		245	42.0	2.5	/experiments/knapen_AOT/AOT_stimuli/rescaled_final/1089_rv.mp4	0.0	242.38220882415771	2.5003280639648438
44	212.18177580833435	pulse	1	t		42.0	2.5	/experiments/knapen_AOT/AOT_stimuli/rescaled_final/1089_rv.mp4	0.0	243.16592383384705	
44	213.77951288223267	pulse	1	t		42.0	2.5	/experiments/knapen_AOT/AOT_stimuli/rescaled_final/1089_rv.mp4	0.0	244.76366090774536	
44	213.89838886260986	fix_post	2		9	42.0	2.5	/experiments/knapen_AOT/AOT_stimuli/rescaled_final/1089_rv.mp4	0.0	244.88253688812256	0.10003399848937988
45	213.99842286109924	fix_pre	0		120	43.0	2.5	/experiments/knapen_AOT/AOT_stimuli/rescaled_final/0919_fw.mp4	0.0	244.98257088661194	1.0001349449157715
45	214.99855780601501	movie	1		242	43.0	2.5	/experiments/knapen_AOT/AOT_stimuli/rescaled_final/0919_fw.mp4	0.0	245.9827058315277	2.49202299118042
45	215.38256788253784	pulse	1	t		43.0	2.5	/experiments/knapen_AOT/AOT_stimuli/rescaled_final/0919_fw.mp4	0.0	246.36671590805054	
45	216.98243379592896	pulse	1	t		43.0	2.5	/experiments/knapen_AOT/AOT_stimuli/rescaled_final/0919_fw.mp4	0.0	247.96658182144165	
45	217.49058079719543	fix_post	2		12	43.0	2.5	/experiments/knapen_AOT/AOT_stimuli/rescaled_final/0919_fw.mp4	0.0	248.47472882270813	0.10021018981933594
46	217.59079098701477	fix_pre	0		120	44.0	2.5	/experiments/knapen_AOT/AOT_stimuli/rescaled_final/0417_fw.mp4	0.0	248.57493901252747	0.9999890327453613
46	218.58268880844116	pulse	0	t		44.0	2.5	/experiments/knapen_AOT/AOT_stimuli/rescaled_final/0417_fw.mp4	0.0	249.56683683395386	
46	218.59078001976013	movie	1		245	44.0	2.5	/experiments/knapen_AOT/AOT_stimuli/rescaled_final/0417_fw.mp4	0.0	249.57492804527283	2.5086989402770996
46	220.18753695487976	pulse	1	t		44.0	2.5	/experiments/knapen_AOT/AOT_stimuli/rescaled_final/0417_fw.mp4	0.0	251.17168498039246	
46	221.09947896003723	fix_post	2		12	44.0	2.5	/experiments/knapen_AOT/AOT_stimuli/rescaled_final/0417_fw.mp4	0.0	252.08362698554993	0.1000528335571289
47	221.19953179359436	fix_pre	0		120	45.0	2.5	/experiments/knapen_AOT/AOT_stimuli/rescaled_final/1668_fw.mp4	0.0	252.18367981910706	1.0001661777496338
47	221.78310799598694	pulse	0	t		45.0	2.5	/experiments/knapen_AOT/AOT_stimuli/rescaled_final/1668_fw.mp4	0.0	252.76725602149963	
47	222.199697971344	movie	1		243	45.0	2.5	/experiments/knapen_AOT/AOT_stimuli/rescaled_final/1668_fw.mp4	0.0	253.1838459968567	2.5003159046173096
47	223.38341283798218	pulse	1	t		45.0	2.5	/experiments/knapen_AOT/AOT_stimuli/rescaled_final/1668_fw.mp4	0.0	254.36756086349487	
47	224.7000138759613	fix_post	2		12	45.0	2.5	/experiments/knapen_AOT/AOT_stimuli/rescaled_final/1668_fw.mp4	0.0	255.684161901474	0.09999704360961914
48	224.80001091957092	fix_pre	0		120	46.0	2.5	/experiments/knapen_AOT/AOT_stimuli/rescaled_final/1404_rv.mp4	0.0	255.78415894508362	1.0001420974731445
48	224.9836869239807	pulse	0	t		46.0	2.5	/experiments/knapen_AOT/AOT_stimuli/rescaled_final/1404_rv.mp4	0.0	255.9678349494934	
48	225.80015301704407	movie	1		245	46.0	2.5	/experiments/knapen_AOT/AOT_stimuli/rescaled_final/1404_rv.mp4	0.0	256.78430104255676	2.5004138946533203
48	226.58391690254211	pulse	1	t		46.0	2.5	/experiments/knapen_AOT/AOT_stimuli/rescaled_final/1404_rv.mp4	0.0	257.5680649280548	
48	228.1814730167389	pulse	1	t		46.0	2.5	/experiments/knapen_AOT/AOT_stimuli/rescaled_final/1404_rv.mp4	0.0	259.1656210422516	
48	228.3005669116974	fix_post	2		12	46.0	2.5	/experiments/knapen_AOT/AOT_stimuli/rescaled_final/1404_rv.mp4	0.0	259.2847149372101	0.10001111030578613
49	228.40057802200317	fix_pre	0		120	47.0	2.5	/experiments/knapen_AOT/AOT_stimuli/rescaled_final/1354_rv.mp4	0.0	259.38472604751587	1.000133991241455
49	229.40071201324463	movie	1		242	47.0	2.5	/experiments/knapen_AOT/AOT_stimuli/rescaled_final/1354_rv.mp4	0.0	260.3848600387573	2.4920918941497803
49	229.78861784934998	pulse	1	t		47.0	2.5	/experiments/knapen_AOT/AOT_stimuli/rescaled_final/1354_rv.mp4	0.0	260.77276587486267	
49	231.37713384628296	pulse	1	t		47.0	2.5	/experiments/knapen_AOT/AOT_stimuli/rescaled_final/1354_rv.mp4	0.0	262.36128187179565	
49	231.8928039073944	fix_post	2		12	47.0	2.5	/experiments/knapen_AOT/AOT_stimuli/rescaled_final/1354_rv.mp4	0.0	262.8769519329071	0.09998488426208496
50	231.9927887916565	fix_pre	0		120	48.0	2.5	blank	1.0	262.9769368171692	1.0001530647277832
50	232.97721791267395	pulse	0	t		48.0	2.5	blank	1.0	263.96136593818665	
50	232.99294185638428	movie	1		301	48.0	2.5	blank	1.0	263.977089881897	2.508700132369995
50	234.57753682136536	pulse	1	t		48.0	2.5	blank	1.0	265.56168484687805	
50	235.50164198875427	fix_post	2		12	48.0	2.5	blank	1.0	266.48579001426697	0.10005497932434082
51	235.6016969680786	fix_pre	0		120	49.0	2.5	/experiments/knapen_AOT/AOT_stimuli/rescaled_final/0451_rv.mp4	0.0	266.5858449935913	1.0001070499420166
51	236.1770679950714	pulse	0	t		49.0	2.5	/experiments/knapen_AOT/AOT_stimuli/rescaled_final/0451_rv.mp4	0.0	267.1612160205841	
51	236.60180401802063	movie	1		243	49.0	2.5	/experiments/knapen_AOT/AOT_stimuli/rescaled_final/0451_rv.mp4	0.0	267.5859520435333	2.500337839126587
51	237.77775382995605	pulse	1	t		49.0	2.5	/experiments/knapen_AOT/AOT_stimuli/rescaled_final/0451_rv.mp4	0.0	268.76190185546875	
51	239.10214185714722	fix_post	2		12	49.0	2.5	/experiments/knapen_AOT/AOT_stimuli/rescaled_final/0451_rv.mp4	0.0	270.0862898826599	0.10002493858337402
52	239.2021667957306	fix_pre	0		120	50.0	2.5	/experiments/knapen_AOT/AOT_stimuli/rescaled_final/0684_fw.mp4	0.0	270.1863148212433	1.0001521110534668
52	239.3773069381714	pulse	0	t		50.0	2.5	/experiments/knapen_AOT/AOT_stimuli/rescaled_final/0684_fw.mp4	0.0	270.3614549636841	
52	240.20231890678406	movie	1		243	50.0	2.5	/experiments/knapen_AOT/AOT_stimuli/rescaled_final/0684_fw.mp4	0.0	271.18646693229675	2.500369071960449
52	240.97771286964417	pulse	1	t		50.0	2.5	/experiments/knapen_AOT/AOT_stimuli/rescaled_final/0684_fw.mp4	0.0	271.96186089515686	
52	242.57802391052246	pulse	1	t		50.0	2.5	/experiments/knapen_AOT/AOT_stimuli/rescaled_final/0684_fw.mp4	0.0	273.56217193603516	
52	242.7026879787445	fix_post	2		12	50.0	2.5	/experiments/knapen_AOT/AOT_stimuli/rescaled_final/0684_fw.mp4	0.0	273.6868360042572	0.10001492500305176
53	242.80270290374756	fix_pre	0		120	51.0	2.5	/experiments/knapen_AOT/AOT_stimuli/rescaled_final/0899_rv.mp4	0.0	273.78685092926025	1.000154972076416
53	243.80285787582397	movie	1		242	51.0	2.5	/experiments/knapen_AOT/AOT_stimuli/rescaled_final/0899_rv.mp4	0.0	274.78700590133667	2.4920449256896973
53	244.17813992500305	pulse	1	t		51.0	2.5	/experiments/knapen_AOT/AOT_stimuli/rescaled_final/0899_rv.mp4	0.0	275.16228795051575	
53	245.77837896347046	pulse	1	t		51.0	2.5	/experiments/knapen_AOT/AOT_stimuli/rescaled_final/0899_rv.mp4	0.0	276.76252698898315	
53	246.29490280151367	fix_post	2		12	51.0	2.5	/experiments/knapen_AOT/AOT_stimuli/rescaled_final/0899_rv.mp4	0.0	277.27905082702637	0.10004305839538574
54	246.39494585990906	fix_pre	0		119	52.0	2.5	/experiments/knapen_AOT/AOT_stimuli/rescaled_final/0841_fw.mp4	0.0	277.37909388542175	0.9917609691619873
54	247.37856888771057	pulse	0	t		52.0	2.5	/experiments/knapen_AOT/AOT_stimuli/rescaled_final/0841_fw.mp4	0.0	278.36271691322327	
54	247.38670682907104	movie	1		248	52.0	2.5	/experiments/knapen_AOT/AOT_stimuli/rescaled_final/0841_fw.mp4	0.0	278.37085485458374	2.5087320804595947
54	248.97999596595764	pulse	1	t		52.0	2.5	/experiments/knapen_AOT/AOT_stimuli/rescaled_final/0841_fw.mp4	0.0	279.96414399147034	
54	249.89543890953064	fix_post	2		12	52.0	2.5	/experiments/knapen_AOT/AOT_stimuli/rescaled_final/0841_fw.mp4	0.0	280.87958693504333	0.10001206398010254
55	249.99545097351074	fix_pre	0		120	53.0	2.5	/experiments/knapen_AOT/AOT_stimuli/rescaled_final/0409_fw.mp4	0.0	280.97959899902344	1.0001559257507324
55	250.5791540145874	pulse	0	t		53.0	2.5	/experiments/knapen_AOT/AOT_stimuli/rescaled_final/0409_fw.mp4	0.0	281.5633020401001	
55	250.99560689926147	movie	1		245	53.0	2.5	/experiments/knapen_AOT/AOT_stimuli/rescaled_final/0409_fw.mp4	0.0	281.97975492477417	2.500359058380127
55	252.179349899292	pulse	1	t		53.0	2.5	/experiments/knapen_AOT/AOT_stimuli/rescaled_final/0409_fw.mp4	0.0	283.1634979248047	
55	253.4959659576416	fix_post	2		12	53.0	2.5	/experiments/knapen_AOT/AOT_stimuli/rescaled_final/0409_fw.mp4	0.0	284.4801139831543	0.1000368595123291
56	253.59600281715393	fix_pre	0		120	54.0	2.5	/experiments/knapen_AOT/AOT_stimuli/rescaled_final/2142_fw.mp4	0.0	284.5801508426666	1.000157117843628
56	253.77953100204468	pulse	0	t		54.0	2.5	/experiments/knapen_AOT/AOT_stimuli/rescaled_final/2142_fw.mp4	0.0	284.7636790275574	
56	254.59615993499756	movie	1		244	54.0	2.5	/experiments/knapen_AOT/AOT_stimuli/rescaled_final/2142_fw.mp4	0.0	285.58030796051025	2.5003809928894043
56	255.3799169063568	pulse	1	t		54.0	2.5	/experiments/knapen_AOT/AOT_stimuli/rescaled_final/2142_fw.mp4	0.0	286.3640649318695	
56	256.9801678657532	pulse	1	t		54.0	2.5	/experiments/knapen_AOT/AOT_stimuli/rescaled_final/2142_fw.mp4	0.0	287.96431589126587	
56	257.09654092788696	fix_post	2		12	54.0	2.5	/experiments/knapen_AOT/AOT_stimuli/rescaled_final/2142_fw.mp4	0.0	288.08068895339966	0.10001087188720703
57	257.19655179977417	fix_pre	0		120	55.0	2.5	blank	1.0	288.18069982528687	1.0001401901245117
57	258.1966919898987	movie	1		299	55.0	2.5	blank	1.0	289.1808400154114	2.492027997970581
57	258.58020186424255	pulse	1	t		55.0	2.5	blank	1.0	289.56434988975525	
57	260.18049693107605	pulse	1	t		55.0	2.5	blank	1.0	291.16464495658875	
57	260.68871998786926	fix_post	2		12	55.0	2.5	blank	1.0	291.67286801338196	0.10000300407409668
58	260.78872299194336	fix_pre	0		120	56.0	2.5	/experiments/knapen_AOT/AOT_stimuli/rescaled_final/0557_fw.mp4	0.0	291.77287101745605	1.0001499652862549
58	261.78083395957947	pulse	0	t		56.0	2.5	/experiments/knapen_AOT/AOT_stimuli/rescaled_final/0557_fw.mp4	0.0	292.76498198509216	
58	261.7888729572296	movie	1		245	56.0	2.5	/experiments/knapen_AOT/AOT_stimuli/rescaled_final/0557_fw.mp4	0.0	292.7730209827423	2.508707046508789
58	263.3817718029022	pulse	1	t		56.0	2.5	/experiments/knapen_AOT/AOT_stimuli/rescaled_final/0557_fw.mp4	0.0	294.3659198284149	
58	264.2975800037384	fix_post	2		12	56.0	2.5	/experiments/knapen_AOT/AOT_stimuli/rescaled_final/0557_fw.mp4	0.0	295.2817280292511	0.10002493858337402
59	264.3976049423218	fix_pre	0		120	57.0	2.5	/experiments/knapen_AOT/AOT_stimuli/rescaled_final/1236_rv.mp4	0.0	295.3817529678345	1.000143051147461
59	264.9812169075012	pulse	0	t		57.0	2.5	/experiments/knapen_AOT/AOT_stimuli/rescaled_final/1236_rv.mp4	0.0	295.9653649330139	
59	265.39774799346924	movie	1		244	57.0	2.5	/experiments/knapen_AOT/AOT_stimuli/rescaled_final/1236_rv.mp4	0.0	296.38189601898193	2.5003998279571533
59	266.5772738456726	pulse	1	t		57.0	2.5	/experiments/knapen_AOT/AOT_stimuli/rescaled_final/1236_rv.mp4	0.0	297.5614218711853	
59	267.8981478214264	fix_post	2		12	57.0	2.5	/experiments/knapen_AOT/AOT_stimuli/rescaled_final/1236_rv.mp4	0.0	298.8822958469391	0.10000300407409668
60	267.9981508255005	fix_pre	0		120	58.0	2.5	/experiments/knapen_AOT/AOT_stimuli/rescaled_final/0836_fw.mp4	0.0	298.9822988510132	1.0001251697540283
60	268.1816849708557	pulse	0	t		58.0	2.5	/experiments/knapen_AOT/AOT_stimuli/rescaled_final/0836_fw.mp4	0.0	299.1658329963684	
60	268.9982759952545	movie	1		244	58.0	2.5	/experiments/knapen_AOT/AOT_stimuli/rescaled_final/0836_fw.mp4	0.0	299.9824240207672	2.5004358291625977
60	269.7819468975067	pulse	1	t		58.0	2.5	/experiments/knapen_AOT/AOT_stimuli/rescaled_final/0836_fw.mp4	0.0	300.7660949230194	
60	271.3823709487915	pulse	1	t		58.0	2.5	/experiments/knapen_AOT/AOT_stimuli/rescaled_final/0836_fw.mp4	0.0	302.3665189743042	
60	271.4987118244171	fix_post	2		12	58.0	2.5	/experiments/knapen_AOT/AOT_stimuli/rescaled_final/0836_fw.mp4	0.0	302.4828598499298	0.0999910831451416
61	271.59870290756226	fix_pre	0		118	59.0	2.5	/experiments/knapen_AOT/AOT_stimuli/rescaled_final/0873_fw.mp4	0.0	302.58285093307495	1.000148057937622
61	272.5988509654999	movie	1		242	59.0	2.5	/experiments/knapen_AOT/AOT_stimuli/rescaled_final/0873_fw.mp4	0.0	303.5829989910126	2.4920108318328857
61	272.98304295539856	pulse	1	t		59.0	2.5	/experiments/knapen_AOT/AOT_stimuli/rescaled_final/0873_fw.mp4	0.0	303.96719098091125	
61	274.5826590061188	pulse	1	t		59.0	2.5	/experiments/knapen_AOT/AOT_stimuli/rescaled_final/0873_fw.mp4	0.0	305.56680703163147	
61	275.09086179733276	fix_post	2		12	59.0	2.5	/experiments/knapen_AOT/AOT_stimuli/rescaled_final/0873_fw.mp4	0.0	306.07500982284546	0.10003018379211426
62	275.1908919811249	fix_pre	0		120	60.0	2.5	/experiments/knapen_AOT/AOT_stimuli/rescaled_final/1591_rv.mp4	0.0	306.1750400066376	1.000121831893921
62	276.1828918457031	pulse	0	t		60.0	2.5	/experiments/knapen_AOT/AOT_stimuli/rescaled_final/1591_rv.mp4	0.0	307.1670398712158	
62	276.1910138130188	movie	1		245	60.0	2.5	/experiments/knapen_AOT/AOT_stimuli/rescaled_final/1591_rv.mp4	0.0	307.1751618385315	2.508780002593994
62	277.7836899757385	pulse	1	t		60.0	2.5	/experiments/knapen_AOT/AOT_stimuli/rescaled_final/1591_rv.mp4	0.0	308.7678380012512	
62	278.6997938156128	fix_post	2		12	60.0	2.5	/experiments/knapen_AOT/AOT_stimuli/rescaled_final/1591_rv.mp4	0.0	309.6839418411255	0.10000419616699219
63	278.7997980117798	fix_pre	0		120	61.0	2.5	/experiments/knapen_AOT/AOT_stimuli/rescaled_final/1826_rv.mp4	0.0	309.7839460372925	1.0001277923583984
63	279.38334488868713	pulse	0	t		61.0	2.5	/experiments/knapen_AOT/AOT_stimuli/rescaled_final/1826_rv.mp4	0.0	310.36749291419983	
63	279.7999258041382	movie	1		245	61.0	2.5	/experiments/knapen_AOT/AOT_stimuli/rescaled_final/1826_rv.mp4	0.0	310.7840738296509	2.500439167022705
63	280.9800708293915	pulse	1	t		61.0	2.5	/experiments/knapen_AOT/AOT_stimuli/rescaled_final/1826_rv.mp4	0.0	311.9642188549042	
63	282.3003649711609	fix_post	2		12	61.0	2.5	/experiments/knapen_AOT/AOT_stimuli/rescaled_final/1826_rv.mp4	0.0	313.2845129966736	0.09996795654296875
64	282.40033292770386	fix_pre	0		120	62.0	2.5	/experiments/knapen_AOT/AOT_stimuli/rescaled_final/0429_fw.mp4	0.0	313.38448095321655	1.0001139640808105
64	282.5838088989258	pulse	0	t		62.0	2.5	/experiments/knapen_AOT/AOT_stimuli/rescaled_final/0429_fw.mp4	0.0	313.5679569244385	
64	283.40044689178467	movie	1		243	62.0	2.5	/experiments/knapen_AOT/AOT_stimuli/rescaled_final/0429_fw.mp4	0.0	314.38459491729736	2.5003769397735596
64	284.1766519546509	pulse	1	t		62.0	2.5	/experiments/knapen_AOT/AOT_stimuli/rescaled_final/0429_fw.mp4	0.0	315.1607999801636	
64	285.78448581695557	pulse	1	t		62.0	2.5	/experiments/knapen_AOT/AOT_stimuli/rescaled_final/0429_fw.mp4	0.0	316.76863384246826	
64	285.9008238315582	fix_post	2		12	62.0	2.5	/experiments/knapen_AOT/AOT_stimuli/rescaled_final/0429_fw.mp4	0.0	316.8849718570709	0.10003209114074707
65	286.000855922699	fix_pre	0		120	63.0	2.5	blank	1.0	316.98500394821167	1.0001659393310547
65	287.00102186203003	movie	1		299	63.0	2.5	blank	1.0	317.9851698875427	2.4919910430908203
65	287.377103805542	pulse	1	t		63.0	2.5	blank	1.0	318.3612518310547	
65	288.97720289230347	pulse	1	t		63.0	2.5	blank	1.0	319.96135091781616	
65	289.49301290512085	fix_post	2		12	63.0	2.5	blank	1.0	320.47716093063354	0.09999299049377441
66	289.5930058956146	fix_pre	0		119	64.0	2.5	/experiments/knapen_AOT/AOT_stimuli/rescaled_final/2118_fw.mp4	0.0	320.5771539211273	0.9918229579925537
66	290.5766689777374	pulse	0	t		64.0	2.5	/experiments/knapen_AOT/AOT_stimuli/rescaled_final/2118_fw.mp4	0.0	321.5608170032501	
66	290.5848288536072	movie	1		246	64.0	2.5	/experiments/knapen_AOT/AOT_stimuli/rescaled_final/2118_fw.mp4	0.0	321.5689768791199	2.508721113204956
66	292.1817009449005	pulse	1	t		64.0	2.5	/experiments/knapen_AOT/AOT_stimuli/rescaled_final/2118_fw.mp4	0.0	323.1658489704132	
66	293.09354996681213	fix_post	2		12	64.0	2.5	/experiments/knapen_AOT/AOT_stimuli/rescaled_final/2118_fw.mp4	0.0	324.07769799232483	0.10001897811889648
67	293.19356894493103	fix_pre	0		120	65.0	2.5	/experiments/knapen_AOT/AOT_stimuli/rescaled_final/1478_rv.mp4	0.0	324.1777169704437	1.0001180171966553
67	293.7771189212799	pulse	0	t		65.0	2.5	/experiments/knapen_AOT/AOT_stimuli/rescaled_final/1478_rv.mp4	0.0	324.7612669467926	
67	294.1936869621277	movie	1		245	65.0	2.5	/experiments/knapen_AOT/AOT_stimuli/rescaled_final/1478_rv.mp4	0.0	325.1778349876404	2.5003888607025146
67	295.37753796577454	pulse	1	t		65.0	2.5	/experiments/knapen_AOT/AOT_stimuli/rescaled_final/1478_rv.mp4	0.0	326.36168599128723	
67	296.6940758228302	fix_post	2		12	65.0	2.5	/experiments/knapen_AOT/AOT_stimuli/rescaled_final/1478_rv.mp4	0.0	327.6782238483429	0.10004401206970215
68	296.7941198348999	fix_pre	0		120	66.0	2.5	/experiments/knapen_AOT/AOT_stimuli/rescaled_final/0270_rv.mp4	0.0	327.7782678604126	1.0001471042633057
68	296.9777808189392	pulse	0	t		66.0	2.5	/experiments/knapen_AOT/AOT_stimuli/rescaled_final/0270_rv.mp4	0.0	327.9619288444519	
68	297.7942669391632	movie	1		244	66.0	2.5	/experiments/knapen_AOT/AOT_stimuli/rescaled_final/0270_rv.mp4	0.0	328.7784149646759	2.5003859996795654
68	298.5779218673706	pulse	1	t		66.0	2.5	/experiments/knapen_AOT/AOT_stimuli/rescaled_final/0270_rv.mp4	0.0	329.5620698928833	
68	300.17799496650696	pulse	1	t		66.0	2.5	/experiments/knapen_AOT/AOT_stimuli/rescaled_final/0270_rv.mp4	0.0	331.16214299201965	
68	300.2946529388428	fix_post	2		12	66.0	2.5	/experiments/knapen_AOT/AOT_stimuli/rescaled_final/0270_rv.mp4	0.0	331.27880096435547	0.0999898910522461
69	300.394642829895	fix_pre	0		120	67.0	2.5	/experiments/knapen_AOT/AOT_stimuli/rescaled_final/1241_fw.mp4	0.0	331.3787908554077	1.0001540184020996
69	301.3947968482971	movie	1		243	67.0	2.5	/experiments/knapen_AOT/AOT_stimuli/rescaled_final/1241_fw.mp4	0.0	332.3789448738098	2.492069959640503
69	301.7794358730316	pulse	1	t		67.0	2.5	/experiments/knapen_AOT/AOT_stimuli/rescaled_final/1241_fw.mp4	0.0	332.7635838985443	
69	303.3787169456482	pulse	1	t		67.0	2.5	/experiments/knapen_AOT/AOT_stimuli/rescaled_final/1241_fw.mp4	0.0	334.3628649711609	
69	303.8868668079376	fix_post	2		12	67.0	2.5	/experiments/knapen_AOT/AOT_stimuli/rescaled_final/1241_fw.mp4	0.0	334.8710148334503	0.1000051498413086
70	303.98687195777893	fix_pre	0		120	68.0	2.5	blank	1.0	334.9710199832916	1.000135898590088
70	304.9789810180664	pulse	0	t		68.0	2.5	blank	1.0	335.9631290435791	
70	304.987007856369	movie	1		301	68.0	2.5	blank	1.0	335.9711558818817	2.50871205329895
70	306.57913088798523	pulse	1	t		68.0	2.5	blank	1.0	337.5632789134979	
70	307.49571990966797	fix_post	2		12	68.0	2.5	blank	1.0	338.47986793518066	0.10001802444458008
71	307.59573793411255	fix_pre	0		120	69.0	2.5	/experiments/knapen_AOT/AOT_stimuli/rescaled_final/0577_fw.mp4	0.0	338.57988595962524	1.000140905380249
71	308.17937183380127	pulse	0	t		69.0	2.5	/experiments/knapen_AOT/AOT_stimuli/rescaled_final/0577_fw.mp4	0.0	339.16351985931396	
71	308.5958788394928	movie	1		243	69.0	2.5	/experiments/knapen_AOT/AOT_stimuli/rescaled_final/0577_fw.mp4	0.0	339.5800268650055	2.500370979309082
71	309.77967286109924	pulse	1	t		69.0	2.5	/experiments/knapen_AOT/AOT_stimuli/rescaled_final/0577_fw.mp4	0.0	340.76382088661194	
71	311.0962498188019	fix_post	2		12	69.0	2.5	/experiments/knapen_AOT/AOT_stimuli/rescaled_final/0577_fw.mp4	0.0	342.0803978443146	0.10008811950683594
72	311.1963379383087	fix_pre	0		120	70.0	2.5	/experiments/knapen_AOT/AOT_stimuli/rescaled_final/1287_rv.mp4	0.0	342.1804859638214	1.0000889301300049
72	311.3799729347229	pulse	0	t		70.0	2.5	/experiments/knapen_AOT/AOT_stimuli/rescaled_final/1287_rv.mp4	0.0	342.3641209602356	
72	312.1964268684387	movie	1		244	70.0	2.5	/experiments/knapen_AOT/AOT_stimuli/rescaled_final/1287_rv.mp4	0.0	343.1805748939514	2.5003559589385986
72	312.9800989627838	pulse	1	t		70.0	2.5	/experiments/knapen_AOT/AOT_stimuli/rescaled_final/1287_rv.mp4	0.0	343.9642469882965	
72	314.580561876297	pulse	1	t		70.0	2.5	/experiments/knapen_AOT/AOT_stimuli/rescaled_final/1287_rv.mp4	0.0	345.5647099018097	
72	314.6967828273773	fix_post	2		12	70.0	2.5	/experiments/knapen_AOT/AOT_stimuli/rescaled_final/1287_rv.mp4	0.0	345.68093085289	0.1000051498413086
73	314.7967879772186	fix_pre	0		120	71.0	2.5	/experiments/knapen_AOT/AOT_stimuli/rescaled_final/0563_fw.mp4	0.0	345.7809360027313	1.0001499652862549
73	315.7969379425049	movie	1		243	71.0	2.5	/experiments/knapen_AOT/AOT_stimuli/rescaled_final/0563_fw.mp4	0.0	346.7810859680176	2.492016077041626
73	316.1809079647064	pulse	1	t		71.0	2.5	/experiments/knapen_AOT/AOT_stimuli/rescaled_final/0563_fw.mp4	0.0	347.1650559902191	
73	317.78085684776306	pulse	1	t		71.0	2.5	/experiments/knapen_AOT/AOT_stimuli/rescaled_final/0563_fw.mp4	0.0	348.76500487327576	
73	318.2889540195465	fix_post	2		12	71.0	2.5	/experiments/knapen_AOT/AOT_stimuli/rescaled_final/0563_fw.mp4	0.0	349.2731020450592	0.10004091262817383
74	318.3889949321747	fix_pre	0		120	72.0	2.5	/experiments/knapen_AOT/AOT_stimuli/rescaled_final/1195_rv.mp4	0.0	349.3731429576874	1.000140905380249
74	319.3810679912567	pulse	0	t		72.0	2.5	/experiments/knapen_AOT/AOT_stimuli/rescaled_final/1195_rv.mp4	0.0	350.3652160167694	
74	319.38913583755493	movie	1		245	72.0	2.5	/experiments/knapen_AOT/AOT_stimuli/rescaled_final/1195_rv.mp4	0.0	350.3732838630676	2.508711099624634
74	320.98192286491394	pulse	1	t		72.0	2.5	/experiments/knapen_AOT/AOT_stimuli/rescaled_final/1195_rv.mp4	0.0	351.96607089042664	
74	321.89784693717957	fix_post	2		12	72.0	2.5	/experiments/knapen_AOT/AOT_stimuli/rescaled_final/1195_rv.mp4	0.0	352.88199496269226	0.10002398490905762
75	321.9978709220886	fix_pre	0		120	73.0	2.5	/experiments/knapen_AOT/AOT_stimuli/rescaled_final/2021_rv.mp4	0.0	352.9820189476013	1.0001518726348877
75	322.58156180381775	pulse	0	t		73.0	2.5	/experiments/knapen_AOT/AOT_stimuli/rescaled_final/2021_rv.mp4	0.0	353.56570982933044	
75	322.9980227947235	movie	1		244	73.0	2.5	/experiments/knapen_AOT/AOT_stimuli/rescaled_final/2021_rv.mp4	0.0	353.9821708202362	2.500378131866455
75	324.181932926178	pulse	1	t		73.0	2.5	/experiments/knapen_AOT/AOT_stimuli/rescaled_final/2021_rv.mp4	0.0	355.1660809516907	
75	325.49840092658997	fix_post	2		12	73.0	2.5	/experiments/knapen_AOT/AOT_stimuli/rescaled_final/2021_rv.mp4	0.0	356.48254895210266	0.10002589225769043
76	325.59842681884766	fix_pre	0		120	74.0	2.5	/experiments/knapen_AOT/AOT_stimuli/rescaled_final/2045_fw.mp4	0.0	356.58257484436035	1.0001540184020996
76	325.7820529937744	pulse	0	t		74.0	2.5	/experiments/knapen_AOT/AOT_stimuli/rescaled_final/2045_fw.mp4	0.0	356.7662010192871	
76	326.59858083724976	movie	1		243	74.0	2.5	/experiments/knapen_AOT/AOT_stimuli/rescaled_final/2045_fw.mp4	0.0	357.58272886276245	2.5003509521484375
76	327.38217997550964	pulse	1	t		74.0	2.5	/experiments/knapen_AOT/AOT_stimuli/rescaled_final/2045_fw.mp4	0.0	358.36632800102234	
76	328.98222279548645	pulse	1	t		74.0	2.5	/experiments/knapen_AOT/AOT_stimuli/rescaled_final/2045_fw.mp4	0.0	359.96637082099915	
76	329.0989317893982	fix_post	2		12	74.0	2.5	/experiments/knapen_AOT/AOT_stimuli/rescaled_final/2045_fw.mp4	0.0	360.0830798149109	0.10000109672546387
77	329.19893288612366	fix_pre	0		119	75.0	2.5	blank	1.0	360.18308091163635	0.9918069839477539
77	330.1907398700714	movie	1		300	75.0	2.5	blank	1.0	361.1748878955841	2.5012340545654297
77	330.58277201652527	pulse	1	t		75.0	2.5	blank	1.0	361.56692004203796	
77	332.183002948761	pulse	1	t		75.0	2.5	blank	1.0	363.1671509742737	
77	332.69197392463684	fix_post	2		11	75.0	2.5	blank	1.0	363.67612195014954	0.09919095039367676
78	332.7911648750305	fix_pre	0		120	76.0	2.5	/experiments/knapen_AOT/AOT_stimuli/rescaled_final/2164_rv.mp4	0.0	363.7753129005432	1.0001859664916992
78	333.7831208705902	pulse	0	t		76.0	2.5	/experiments/knapen_AOT/AOT_stimuli/rescaled_final/2164_rv.mp4	0.0	364.7672688961029	
78	333.7913508415222	movie	1		244	76.0	2.5	/experiments/knapen_AOT/AOT_stimuli/rescaled_final/2164_rv.mp4	0.0	364.7754988670349	2.5086441040039062
78	335.38387393951416	pulse	1	t		76.0	2.5	/experiments/knapen_AOT/AOT_stimuli/rescaled_final/2164_rv.mp4	0.0	366.36802196502686	
78	336.2999949455261	fix_post	2		12	76.0	2.5	/experiments/knapen_AOT/AOT_stimuli/rescaled_final/2164_rv.mp4	0.0	367.2841429710388	0.10001397132873535
79	336.40000891685486	fix_pre	0		120	77.0	2.5	/experiments/knapen_AOT/AOT_stimuli/rescaled_final/0004_fw.mp4	0.0	367.38415694236755	1.000140905380249
79	336.98371386528015	pulse	0	t		77.0	2.5	/experiments/knapen_AOT/AOT_stimuli/rescaled_final/0004_fw.mp4	0.0	367.96786189079285	
79	337.4001498222351	movie	1		244	77.0	2.5	/experiments/knapen_AOT/AOT_stimuli/rescaled_final/0004_fw.mp4	0.0	368.3842978477478	2.5004069805145264
79	338.5839228630066	pulse	1	t		77.0	2.5	/experiments/knapen_AOT/AOT_stimuli/rescaled_final/0004_fw.mp4	0.0	369.5680708885193	
79	339.90055680274963	fix_post	2		12	77.0	2.5	/experiments/knapen_AOT/AOT_stimuli/rescaled_final/0004_fw.mp4	0.0	370.88470482826233	0.09998416900634766
80	340.000540971756	fix_pre	0		120	78.0	2.5	/experiments/knapen_AOT/AOT_stimuli/rescaled_final/0941_fw.mp4	0.0	370.9846889972687	1.000166893005371
80	340.18414187431335	pulse	0	t		78.0	2.5	/experiments/knapen_AOT/AOT_stimuli/rescaled_final/0941_fw.mp4	0.0	371.16828989982605	
80	341.00070786476135	movie	1		245	78.0	2.5	/experiments/knapen_AOT/AOT_stimuli/rescaled_final/0941_fw.mp4	0.0	371.98485589027405	2.500383138656616
80	341.7842929363251	pulse	1	t		78.0	2.5	/experiments/knapen_AOT/AOT_stimuli/rescaled_final/0941_fw.mp4	0.0	372.76844096183777	
80	343.38463592529297	pulse	1	t		78.0	2.5	/experiments/knapen_AOT/AOT_stimuli/rescaled_final/0941_fw.mp4	0.0	374.36878395080566	
80	343.50109100341797	fix_post	2		12	78.0	2.5	/experiments/knapen_AOT/AOT_stimuli/rescaled_final/0941_fw.mp4	0.0	374.48523902893066	0.09999299049377441
81	343.60108399391174	fix_pre	0		119	79.0	2.5	/experiments/knapen_AOT/AOT_stimuli/rescaled_final/0768_fw.mp4	0.0	374.58523201942444	0.9918069839477539
81	344.5928909778595	movie	1		245	79.0	2.5	/experiments/knapen_AOT/AOT_stimuli/rescaled_final/0768_fw.mp4	0.0	375.5770390033722	2.5004289150238037
81	344.9849169254303	pulse	1	t		79.0	2.5	/experiments/knapen_AOT/AOT_stimuli/rescaled_final/0768_fw.mp4	0.0	375.969064950943	
81	346.57774782180786	pulse	1	t		79.0	2.5	/experiments/knapen_AOT/AOT_stimuli/rescaled_final/0768_fw.mp4	0.0	377.56189584732056	
81	347.0933198928833	fix_post	2		12	79.0	2.5	/experiments/knapen_AOT/AOT_stimuli/rescaled_final/0768_fw.mp4	0.0	378.077467918396	0.0999610424041748
82	347.1932809352875	fix_pre	0		120	80.0	2.5	/experiments/knapen_AOT/AOT_stimuli/rescaled_final/1115_rv.mp4	0.0	378.17742896080017	1.0001890659332275
82	348.177973985672	pulse	0	t		80.0	2.5	/experiments/knapen_AOT/AOT_stimuli/rescaled_final/1115_rv.mp4	0.0	379.1621220111847	
82	348.1934700012207	movie	1		244	80.0	2.5	/experiments/knapen_AOT/AOT_stimuli/rescaled_final/1115_rv.mp4	0.0	379.1776180267334	2.5086607933044434
82	349.77720379829407	pulse	1	t		80.0	2.5	/experiments/knapen_AOT/AOT_stimuli/rescaled_final/1115_rv.mp4	0.0	380.76135182380676	
82	350.70213079452515	fix_post	2		12	80.0	2.5	/experiments/knapen_AOT/AOT_stimuli/rescaled_final/1115_rv.mp4	0.0	381.68627882003784	0.10004115104675293
83	350.8021719455719	fix_pre	0		120	81.0	2.5	/experiments/knapen_AOT/AOT_stimuli/rescaled_final/0985_fw.mp4	0.0	381.7863199710846	1.0002238750457764
83	351.37742495536804	pulse	0	t		81.0	2.5	/experiments/knapen_AOT/AOT_stimuli/rescaled_final/0985_fw.mp4	0.0	382.36157298088074	
83	351.8023958206177	movie	1		244	81.0	2.5	/experiments/knapen_AOT/AOT_stimuli/rescaled_final/0985_fw.mp4	0.0	382.78654384613037	2.500312089920044
83	352.9784619808197	pulse	1	t		81.0	2.5	/experiments/knapen_AOT/AOT_stimuli/rescaled_final/0985_fw.mp4	0.0	383.9626100063324	
83	354.3027079105377	fix_post	2		12	81.0	2.5	/experiments/knapen_AOT/AOT_stimuli/rescaled_final/0985_fw.mp4	0.0	385.2868559360504	0.09997010231018066
84	354.4026780128479	fix_pre	0		120	82.0	2.5	/experiments/knapen_AOT/AOT_stimuli/rescaled_final/1971_fw.mp4	0.0	385.3868260383606	1.000199794769287
84	354.57794094085693	pulse	0	t		82.0	2.5	/experiments/knapen_AOT/AOT_stimuli/rescaled_final/1971_fw.mp4	0.0	385.56208896636963	
84	355.4028778076172	movie	1		243	82.0	2.5	/experiments/knapen_AOT/AOT_stimuli/rescaled_final/1971_fw.mp4	0.0	386.3870258331299	2.492047071456909
84	356.1781039237976	pulse	1	t		82.0	2.5	/experiments/knapen_AOT/AOT_stimuli/rescaled_final/1971_fw.mp4	0.0	387.1622519493103	
84	357.7784538269043	pulse	1	t		82.0	2.5	/experiments/knapen_AOT/AOT_stimuli/rescaled_final/1971_fw.mp4	0.0	388.762601852417	
84	357.8949248790741	fix_post	2		13	82.0	2.5	/experiments/knapen_AOT/AOT_stimuli/rescaled_final/1971_fw.mp4	0.0	388.8790729045868	0.10832500457763672
85	358.00324988365173	fix_pre	0		119	83.0	2.5	blank	1.0	388.98739790916443	0.99180006980896
85	358.9950499534607	movie	1		300	83.0	2.5	blank	1.0	389.9791979789734	2.50040602684021
85	359.3786618709564	pulse	1	t		83.0	2.5	blank	1.0	390.3628098964691	
85	360.9788467884064	pulse	1	t		83.0	2.5	blank	1.0	391.96299481391907	
85	361.4954559803009	fix_post	2		12	83.0	2.5	blank	1.0	392.4796040058136	0.10000491142272949
87	361.59546089172363	stim	0		1716					392.5796089172363	14.302175998687744
87	362.57914781570435	pulse	0	t						393.56329584121704	
87	364.1793007850647	pulse	0	t						395.1634488105774	
87	365.77964997291565	pulse	0	t						396.76379799842834	
87	367.37993597984314	pulse	0	t						398.36408400535583	
87	368.98006200790405	pulse	0	t						399.96421003341675	
87	370.5802547931671	pulse	0	t						401.5644028186798	
87	372.18056893348694	pulse	0	t						403.16471695899963	
87	373.78079891204834	pulse	0	t						404.76494693756104	
87	375.3810329437256	pulse	0	t						406.3651809692383	
