trial_nr	onset	event_type	phase	response	nr_frames	movie_index	movie_duration	movie_file	blank	onset_abs	duration
0	0.19978713989257812	stim	0		133					97.94808411598206	1.108583927154541
0	1.3001930713653564	response	0	space						99.04849004745483	
1	1.3083710670471191	stim	0		4126					99.0566680431366	34.397773027420044
1	35.696202993392944	pulse	0	t						133.44449996948242	
1	35.70614409446716	stim	1		1716					133.45444107055664	14.301115036010742
1	37.288992166519165	pulse	1	t						135.03728914260864	
1	38.88909912109375	pulse	1	t						136.63739609718323	
1	40.48935604095459	pulse	1	t						138.23765301704407	
1	42.08972215652466	pulse	1	t						139.83801913261414	
1	43.689892053604126	pulse	1	t						141.4381890296936	
1	45.289994955062866	pulse	1	t						143.03829193115234	
1	46.890331983566284	pulse	1	t						144.63862895965576	
1	48.490504026412964	pulse	1	t						146.23880100250244	
2	50.007259130477905	fix_pre	0		11	0.0	2.5	/experiments/knapen_AOT/AOT_stimuli/rescaled_final/2009_fw.mp4	0.0	147.75555610656738	0.09167003631591797
2	50.09090209007263	pulse	0	t		0.0	2.5	/experiments/knapen_AOT/AOT_stimuli/rescaled_final/2009_fw.mp4	0.0	147.8391990661621	
2	50.09892916679382	movie	1		245	0.0	2.5	/experiments/knapen_AOT/AOT_stimuli/rescaled_final/2009_fw.mp4	0.0	147.8472261428833	2.5087339878082275
2	51.69253396987915	pulse	1	t		0.0	2.5	/experiments/knapen_AOT/AOT_stimuli/rescaled_final/2009_fw.mp4	0.0	149.44083094596863	
2	52.60766315460205	fix_post	2		12	0.0	2.5	/experiments/knapen_AOT/AOT_stimuli/rescaled_final/2009_fw.mp4	0.0	150.35596013069153	0.1004018783569336
3	52.708065032958984	fix_pre	0		120	1.0	2.5	/experiments/knapen_AOT/AOT_stimuli/rescaled_final/2130_fw.mp4	0.0	150.45636200904846	0.99977707862854
3	53.29133605957031	pulse	0	t		1.0	2.5	/experiments/knapen_AOT/AOT_stimuli/rescaled_final/2130_fw.mp4	0.0	151.0396330356598	
3	53.707842111587524	movie	1		246	1.0	2.5	/experiments/knapen_AOT/AOT_stimuli/rescaled_final/2130_fw.mp4	0.0	151.456139087677	2.50036883354187
3	54.8915650844574	pulse	1	t		1.0	2.5	/experiments/knapen_AOT/AOT_stimuli/rescaled_final/2130_fw.mp4	0.0	152.63986206054688	
3	56.208210945129395	fix_post	2		12	1.0	2.5	/experiments/knapen_AOT/AOT_stimuli/rescaled_final/2130_fw.mp4	0.0	153.95650792121887	0.10004806518554688
4	56.30825901031494	fix_pre	0		120	2.0	2.5	/experiments/knapen_AOT/AOT_stimuli/rescaled_final/1152_rv.mp4	0.0	154.05655598640442	1.0001161098480225
4	56.49176096916199	pulse	0	t		2.0	2.5	/experiments/knapen_AOT/AOT_stimuli/rescaled_final/1152_rv.mp4	0.0	154.24005794525146	
4	57.308375120162964	movie	1		244	2.0	2.5	/experiments/knapen_AOT/AOT_stimuli/rescaled_final/1152_rv.mp4	0.0	155.05667209625244	2.5003809928894043
4	58.09202194213867	pulse	1	t		2.0	2.5	/experiments/knapen_AOT/AOT_stimuli/rescaled_final/1152_rv.mp4	0.0	155.84031891822815	
4	59.69236207008362	pulse	1	t		2.0	2.5	/experiments/knapen_AOT/AOT_stimuli/rescaled_final/1152_rv.mp4	0.0	157.4406590461731	
4	59.80875611305237	fix_post	2		12	2.0	2.5	/experiments/knapen_AOT/AOT_stimuli/rescaled_final/1152_rv.mp4	0.0	157.55705308914185	0.09999489784240723
5	59.908751010894775	fix_pre	0		120	3.0	2.5	/experiments/knapen_AOT/AOT_stimuli/rescaled_final/1525_fw.mp4	0.0	157.65704798698425	1.000175952911377
5	60.90892696380615	movie	1		245	3.0	2.5	/experiments/knapen_AOT/AOT_stimuli/rescaled_final/1525_fw.mp4	0.0	158.65722393989563	2.4920032024383545
5	61.293156147003174	pulse	1	t		3.0	2.5	/experiments/knapen_AOT/AOT_stimuli/rescaled_final/1525_fw.mp4	0.0	159.04145312309265	
5	62.892752170562744	pulse	1	t		3.0	2.5	/experiments/knapen_AOT/AOT_stimuli/rescaled_final/1525_fw.mp4	0.0	160.64104914665222	
5	63.40093016624451	fix_post	2		12	3.0	2.5	/experiments/knapen_AOT/AOT_stimuli/rescaled_final/1525_fw.mp4	0.0	161.14922714233398	0.10001897811889648
6	63.5009491443634	fix_pre	0		120	4.0	2.5	/experiments/knapen_AOT/AOT_stimuli/rescaled_final/1417_fw.mp4	0.0	161.24924612045288	1.0002048015594482
6	64.49289894104004	pulse	0	t		4.0	2.5	/experiments/knapen_AOT/AOT_stimuli/rescaled_final/1417_fw.mp4	0.0	162.24119591712952	
6	64.50115394592285	movie	1		245	4.0	2.5	/experiments/knapen_AOT/AOT_stimuli/rescaled_final/1417_fw.mp4	0.0	162.24945092201233	2.5086631774902344
6	66.09464502334595	pulse	1	t		4.0	2.5	/experiments/knapen_AOT/AOT_stimuli/rescaled_final/1417_fw.mp4	0.0	163.84294199943542	
6	67.00981712341309	fix_post	2		12	4.0	2.5	/experiments/knapen_AOT/AOT_stimuli/rescaled_final/1417_fw.mp4	0.0	164.75811409950256	0.10004591941833496
7	67.10986304283142	fix_pre	0		120	5.0	2.5	blank	1.0	164.8581600189209	1.0001261234283447
7	67.68601512908936	pulse	0	t		5.0	2.5	blank	1.0	165.43431210517883	
7	68.10998916625977	movie	1		300	5.0	2.5	blank	1.0	165.85828614234924	2.5003597736358643
7	69.28622794151306	pulse	1	t		5.0	2.5	blank	1.0	167.03452491760254	
7	70.61034893989563	fix_post	2		12	5.0	2.5	blank	1.0	168.3586459159851	0.100006103515625
8	70.71035504341125	fix_pre	0		120	6.0	2.5	/experiments/knapen_AOT/AOT_stimuli/rescaled_final/0366_fw.mp4	0.0	168.45865201950073	1.0001609325408936
8	70.88655304908752	pulse	0	t		6.0	2.5	/experiments/knapen_AOT/AOT_stimuli/rescaled_final/0366_fw.mp4	0.0	168.634850025177	
8	71.71051597595215	movie	1		244	6.0	2.5	/experiments/knapen_AOT/AOT_stimuli/rescaled_final/0366_fw.mp4	0.0	169.45881295204163	2.5003740787506104
8	72.48603105545044	pulse	1	t		6.0	2.5	/experiments/knapen_AOT/AOT_stimuli/rescaled_final/0366_fw.mp4	0.0	170.23432803153992	
8	74.08606004714966	pulse	1	t		6.0	2.5	/experiments/knapen_AOT/AOT_stimuli/rescaled_final/0366_fw.mp4	0.0	171.83435702323914	
8	74.21089005470276	fix_post	2		12	6.0	2.5	/experiments/knapen_AOT/AOT_stimuli/rescaled_final/0366_fw.mp4	0.0	171.95918703079224	0.1000070571899414
9	74.3108971118927	fix_pre	0		116	7.0	2.5	/experiments/knapen_AOT/AOT_stimuli/rescaled_final/0069_rv.mp4	0.0	172.05919408798218	0.9918398857116699
9	75.30273699760437	movie	1		245	7.0	2.5	/experiments/knapen_AOT/AOT_stimuli/rescaled_final/0069_rv.mp4	0.0	173.05103397369385	2.5003180503845215
9	75.68677115440369	pulse	1	t		7.0	2.5	/experiments/knapen_AOT/AOT_stimuli/rescaled_final/0069_rv.mp4	0.0	173.43506813049316	
9	77.28662300109863	pulse	1	t		7.0	2.5	/experiments/knapen_AOT/AOT_stimuli/rescaled_final/0069_rv.mp4	0.0	175.0349199771881	
9	77.80305504798889	fix_post	2		12	7.0	2.5	/experiments/knapen_AOT/AOT_stimuli/rescaled_final/0069_rv.mp4	0.0	175.55135202407837	0.10003900527954102
10	77.90309405326843	fix_pre	0		119	8.0	2.5	/experiments/knapen_AOT/AOT_stimuli/rescaled_final/1303_fw.mp4	0.0	175.6513910293579	0.9918839931488037
10	78.88682699203491	pulse	0	t		8.0	2.5	/experiments/knapen_AOT/AOT_stimuli/rescaled_final/1303_fw.mp4	0.0	176.6351239681244	
10	78.89497804641724	movie	1		244	8.0	2.5	/experiments/knapen_AOT/AOT_stimuli/rescaled_final/1303_fw.mp4	0.0	176.6432750225067	2.5086560249328613
10	80.487722158432	pulse	1	t		8.0	2.5	/experiments/knapen_AOT/AOT_stimuli/rescaled_final/1303_fw.mp4	0.0	178.23601913452148	
10	81.4036340713501	fix_post	2		12	8.0	2.5	/experiments/knapen_AOT/AOT_stimuli/rescaled_final/1303_fw.mp4	0.0	179.15193104743958	0.10002589225769043
11	81.50365996360779	fix_pre	0		120	9.0	2.5	/experiments/knapen_AOT/AOT_stimuli/rescaled_final/0386_fw.mp4	0.0	179.25195693969727	1.0001561641693115
11	82.08733797073364	pulse	0	t		9.0	2.5	/experiments/knapen_AOT/AOT_stimuli/rescaled_final/0386_fw.mp4	0.0	179.83563494682312	
11	82.5038161277771	movie	1		245	9.0	2.5	/experiments/knapen_AOT/AOT_stimuli/rescaled_final/0386_fw.mp4	0.0	180.25211310386658	2.500347852706909
11	83.68762111663818	pulse	1	t		9.0	2.5	/experiments/knapen_AOT/AOT_stimuli/rescaled_final/0386_fw.mp4	0.0	181.43591809272766	
11	85.00416398048401	fix_post	2		12	9.0	2.5	/experiments/knapen_AOT/AOT_stimuli/rescaled_final/0386_fw.mp4	0.0	182.7524609565735	0.10004115104675293
12	85.10420513153076	fix_pre	0		120	10.0	2.5	/experiments/knapen_AOT/AOT_stimuli/rescaled_final/0672_rv.mp4	0.0	182.85250210762024	1.0001490116119385
12	85.2877881526947	pulse	0	t		10.0	2.5	/experiments/knapen_AOT/AOT_stimuli/rescaled_final/0672_rv.mp4	0.0	183.03608512878418	
12	86.1043541431427	movie	1		243	10.0	2.5	/experiments/knapen_AOT/AOT_stimuli/rescaled_final/0672_rv.mp4	0.0	183.85265111923218	2.5003409385681152
12	86.88796997070312	pulse	1	t		10.0	2.5	/experiments/knapen_AOT/AOT_stimuli/rescaled_final/0672_rv.mp4	0.0	184.6362669467926	
12	88.48808908462524	pulse	1	t		10.0	2.5	/experiments/knapen_AOT/AOT_stimuli/rescaled_final/0672_rv.mp4	0.0	186.23638606071472	
12	88.60469508171082	fix_post	2		12	10.0	2.5	/experiments/knapen_AOT/AOT_stimuli/rescaled_final/0672_rv.mp4	0.0	186.3529920578003	0.10004997253417969
13	88.704745054245	fix_pre	0		120	11.0	2.5	/experiments/knapen_AOT/AOT_stimuli/rescaled_final/1179_fw.mp4	0.0	186.45304203033447	1.0001709461212158
13	89.70491600036621	movie	1		243	11.0	2.5	/experiments/knapen_AOT/AOT_stimuli/rescaled_final/1179_fw.mp4	0.0	187.4532129764557	2.4919960498809814
13	90.08894515037537	pulse	1	t		11.0	2.5	/experiments/knapen_AOT/AOT_stimuli/rescaled_final/1179_fw.mp4	0.0	187.83724212646484	
13	91.68869805335999	pulse	1	t		11.0	2.5	/experiments/knapen_AOT/AOT_stimuli/rescaled_final/1179_fw.mp4	0.0	189.43699502944946	
13	92.19691205024719	fix_post	2		12	11.0	2.5	/experiments/knapen_AOT/AOT_stimuli/rescaled_final/1179_fw.mp4	0.0	189.94520902633667	0.10001111030578613
14	92.29692316055298	fix_pre	0		120	12.0	2.5	blank	1.0	190.04522013664246	1.0002148151397705
14	93.28892397880554	pulse	0	t		12.0	2.5	blank	1.0	191.03722095489502	
14	93.29713797569275	movie	1		301	12.0	2.5	blank	1.0	191.04543495178223	2.508653163909912
14	94.88912510871887	pulse	1	t		12.0	2.5	blank	1.0	192.63742208480835	
14	95.80579113960266	fix_post	2		12	12.0	2.5	blank	1.0	193.55408811569214	0.1000068187713623
15	95.90579795837402	fix_pre	0		120	13.0	2.5	/experiments/knapen_AOT/AOT_stimuli/rescaled_final/0508_rv.mp4	0.0	193.6540949344635	1.0001730918884277
15	96.48959994316101	pulse	0	t		13.0	2.5	/experiments/knapen_AOT/AOT_stimuli/rescaled_final/0508_rv.mp4	0.0	194.2378969192505	
15	96.90597105026245	movie	1		245	13.0	2.5	/experiments/knapen_AOT/AOT_stimuli/rescaled_final/0508_rv.mp4	0.0	194.65426802635193	2.5003299713134766
15	98.08984804153442	pulse	1	t		13.0	2.5	/experiments/knapen_AOT/AOT_stimuli/rescaled_final/0508_rv.mp4	0.0	195.8381450176239	
15	99.40630102157593	fix_post	2		12	13.0	2.5	/experiments/knapen_AOT/AOT_stimuli/rescaled_final/0508_rv.mp4	0.0	197.1545979976654	0.10008502006530762
16	99.50638604164124	fix_pre	0		120	14.0	2.5	/experiments/knapen_AOT/AOT_stimuli/rescaled_final/1220_rv.mp4	0.0	197.2546830177307	1.0001680850982666
16	99.68992400169373	pulse	0	t		14.0	2.5	/experiments/knapen_AOT/AOT_stimuli/rescaled_final/1220_rv.mp4	0.0	197.4382209777832	
16	100.5065541267395	movie	1		244	14.0	2.5	/experiments/knapen_AOT/AOT_stimuli/rescaled_final/1220_rv.mp4	0.0	198.25485110282898	2.500288963317871
16	101.29014301300049	pulse	1	t		14.0	2.5	/experiments/knapen_AOT/AOT_stimuli/rescaled_final/1220_rv.mp4	0.0	199.03843998908997	
16	102.8904550075531	pulse	1	t		14.0	2.5	/experiments/knapen_AOT/AOT_stimuli/rescaled_final/1220_rv.mp4	0.0	200.63875198364258	
16	103.00684309005737	fix_post	2		12	14.0	2.5	/experiments/knapen_AOT/AOT_stimuli/rescaled_final/1220_rv.mp4	0.0	200.75514006614685	0.1000359058380127
17	103.10687899589539	fix_pre	0		119	15.0	2.5	/experiments/knapen_AOT/AOT_stimuli/rescaled_final/0657_rv.mp4	0.0	200.85517597198486	0.9918370246887207
17	104.0987160205841	movie	1		243	15.0	2.5	/experiments/knapen_AOT/AOT_stimuli/rescaled_final/0657_rv.mp4	0.0	201.84701299667358	2.5003790855407715
17	104.490797996521	pulse	1	t		15.0	2.5	/experiments/knapen_AOT/AOT_stimuli/rescaled_final/0657_rv.mp4	0.0	202.23909497261047	
17	106.09083008766174	pulse	1	t		15.0	2.5	/experiments/knapen_AOT/AOT_stimuli/rescaled_final/0657_rv.mp4	0.0	203.83912706375122	
17	106.59909510612488	fix_post	2		12	15.0	2.5	/experiments/knapen_AOT/AOT_stimuli/rescaled_final/0657_rv.mp4	0.0	204.34739208221436	0.09998297691345215
18	106.69907808303833	fix_pre	0		120	16.0	2.5	/experiments/knapen_AOT/AOT_stimuli/rescaled_final/2075_rv.mp4	0.0	204.4473750591278	1.0002520084381104
18	107.69109201431274	pulse	0	t		16.0	2.5	/experiments/knapen_AOT/AOT_stimuli/rescaled_final/2075_rv.mp4	0.0	205.43938899040222	
18	107.69933009147644	movie	1		245	16.0	2.5	/experiments/knapen_AOT/AOT_stimuli/rescaled_final/2075_rv.mp4	0.0	205.44762706756592	2.508622884750366
18	109.29240393638611	pulse	1	t		16.0	2.5	/experiments/knapen_AOT/AOT_stimuli/rescaled_final/2075_rv.mp4	0.0	207.0407009124756	
18	110.2079529762268	fix_post	2		12	16.0	2.5	/experiments/knapen_AOT/AOT_stimuli/rescaled_final/2075_rv.mp4	0.0	207.95624995231628	0.10002517700195312
19	110.30797815322876	fix_pre	0		120	17.0	2.5	/experiments/knapen_AOT/AOT_stimuli/rescaled_final/1522_rv.mp4	0.0	208.05627512931824	1.0001499652862549
19	110.89163708686829	pulse	0	t		17.0	2.5	/experiments/knapen_AOT/AOT_stimuli/rescaled_final/1522_rv.mp4	0.0	208.63993406295776	
19	111.30812811851501	movie	1		244	17.0	2.5	/experiments/knapen_AOT/AOT_stimuli/rescaled_final/1522_rv.mp4	0.0	209.0564250946045	2.500354051589966
19	112.49196815490723	pulse	1	t		17.0	2.5	/experiments/knapen_AOT/AOT_stimuli/rescaled_final/1522_rv.mp4	0.0	210.2402651309967	
19	113.80848217010498	fix_post	2		12	17.0	2.5	/experiments/knapen_AOT/AOT_stimuli/rescaled_final/1522_rv.mp4	0.0	211.55677914619446	0.10004591941833496
20	113.90852808952332	fix_pre	0		120	18.0	2.5	/experiments/knapen_AOT/AOT_stimuli/rescaled_final/1618_fw.mp4	0.0	211.6568250656128	1.000128984451294
20	114.092031955719	pulse	0	t		18.0	2.5	/experiments/knapen_AOT/AOT_stimuli/rescaled_final/1618_fw.mp4	0.0	211.84032893180847	
20	114.90865707397461	movie	1		247	18.0	2.5	/experiments/knapen_AOT/AOT_stimuli/rescaled_final/1618_fw.mp4	0.0	212.6569540500641	2.5003609657287598
20	115.6922869682312	pulse	1	t		18.0	2.5	/experiments/knapen_AOT/AOT_stimuli/rescaled_final/1618_fw.mp4	0.0	213.44058394432068	
20	117.29262495040894	pulse	1	t		18.0	2.5	/experiments/knapen_AOT/AOT_stimuli/rescaled_final/1618_fw.mp4	0.0	215.0409219264984	
20	117.40901803970337	fix_post	2		12	18.0	2.5	/experiments/knapen_AOT/AOT_stimuli/rescaled_final/1618_fw.mp4	0.0	215.15731501579285	0.10001397132873535
21	117.5090320110321	fix_pre	0		119	19.0	2.5	/experiments/knapen_AOT/AOT_stimuli/rescaled_final/1132_rv.mp4	0.0	215.25732898712158	0.991847038269043
21	118.50087904930115	movie	1		245	19.0	2.5	/experiments/knapen_AOT/AOT_stimuli/rescaled_final/1132_rv.mp4	0.0	216.24917602539062	2.5003490447998047
21	118.88918209075928	pulse	1	t		19.0	2.5	/experiments/knapen_AOT/AOT_stimuli/rescaled_final/1132_rv.mp4	0.0	216.63747906684875	
21	120.48559904098511	pulse	1	t		19.0	2.5	/experiments/knapen_AOT/AOT_stimuli/rescaled_final/1132_rv.mp4	0.0	218.23389601707458	
21	121.00122809410095	fix_post	2		12	19.0	2.5	/experiments/knapen_AOT/AOT_stimuli/rescaled_final/1132_rv.mp4	0.0	218.74952507019043	0.10001707077026367
22	121.10124516487122	fix_pre	0		120	20.0	2.5	/experiments/knapen_AOT/AOT_stimuli/rescaled_final/1962_rv.mp4	0.0	218.8495421409607	1.0001509189605713
22	122.08571696281433	pulse	0	t		20.0	2.5	/experiments/knapen_AOT/AOT_stimuli/rescaled_final/1962_rv.mp4	0.0	219.8340139389038	
22	122.10139608383179	movie	1		246	20.0	2.5	/experiments/knapen_AOT/AOT_stimuli/rescaled_final/1962_rv.mp4	0.0	219.84969305992126	2.5086729526519775
22	123.694020986557	pulse	1	t		20.0	2.5	/experiments/knapen_AOT/AOT_stimuli/rescaled_final/1962_rv.mp4	0.0	221.44231796264648	
22	124.61006903648376	fix_post	2		12	20.0	2.5	/experiments/knapen_AOT/AOT_stimuli/rescaled_final/1962_rv.mp4	0.0	222.35836601257324	0.1000359058380127
23	124.71010494232178	fix_pre	0		120	21.0	2.5	blank	1.0	222.45840191841125	1.0001561641693115
23	125.28618311882019	pulse	0	t		21.0	2.5	blank	1.0	223.03448009490967	
23	125.71026110649109	movie	1		300	21.0	2.5	blank	1.0	223.45855808258057	2.50042986869812
23	126.88572597503662	pulse	1	t		21.0	2.5	blank	1.0	224.6340229511261	
23	128.2106909751892	fix_post	2		12	21.0	2.5	blank	1.0	225.9589879512787	0.09997296333312988
24	128.31066393852234	fix_pre	0		120	22.0	2.5	/experiments/knapen_AOT/AOT_stimuli/rescaled_final/1515_rv.mp4	0.0	226.05896091461182	1.000176191329956
24	128.48590803146362	pulse	0	t		22.0	2.5	/experiments/knapen_AOT/AOT_stimuli/rescaled_final/1515_rv.mp4	0.0	226.2342050075531	
24	129.3108401298523	movie	1		244	22.0	2.5	/experiments/knapen_AOT/AOT_stimuli/rescaled_final/1515_rv.mp4	0.0	227.05913710594177	2.5003089904785156
24	130.0860891342163	pulse	1	t		22.0	2.5	/experiments/knapen_AOT/AOT_stimuli/rescaled_final/1515_rv.mp4	0.0	227.8343861103058	
24	131.6864140033722	pulse	1	t		22.0	2.5	/experiments/knapen_AOT/AOT_stimuli/rescaled_final/1515_rv.mp4	0.0	229.43471097946167	
24	131.8111491203308	fix_post	2		12	22.0	2.5	/experiments/knapen_AOT/AOT_stimuli/rescaled_final/1515_rv.mp4	0.0	229.5594460964203	0.10008096694946289
25	131.91123008728027	fix_pre	0		120	23.0	2.5	/experiments/knapen_AOT/AOT_stimuli/rescaled_final/0827_fw.mp4	0.0	229.65952706336975	1.0001230239868164
25	132.9113531112671	movie	1		241	23.0	2.5	/experiments/knapen_AOT/AOT_stimuli/rescaled_final/0827_fw.mp4	0.0	230.65965008735657	2.4920599460601807
25	133.28658294677734	pulse	1	t		23.0	2.5	/experiments/knapen_AOT/AOT_stimuli/rescaled_final/0827_fw.mp4	0.0	231.03487992286682	
25	134.88706398010254	pulse	1	t		23.0	2.5	/experiments/knapen_AOT/AOT_stimuli/rescaled_final/0827_fw.mp4	0.0	232.63536095619202	
25	135.40341305732727	fix_post	2		12	23.0	2.5	/experiments/knapen_AOT/AOT_stimuli/rescaled_final/0827_fw.mp4	0.0	233.15171003341675	0.10004711151123047
26	135.5034601688385	fix_pre	0		119	24.0	2.5	/experiments/knapen_AOT/AOT_stimuli/rescaled_final/1912_rv.mp4	0.0	233.25175714492798	0.9918379783630371
26	136.4870250225067	pulse	0	t		24.0	2.5	/experiments/knapen_AOT/AOT_stimuli/rescaled_final/1912_rv.mp4	0.0	234.2353219985962	
26	136.49529814720154	movie	1		247	24.0	2.5	/experiments/knapen_AOT/AOT_stimuli/rescaled_final/1912_rv.mp4	0.0	234.24359512329102	2.5086519718170166
26	138.08800315856934	pulse	1	t		24.0	2.5	/experiments/knapen_AOT/AOT_stimuli/rescaled_final/1912_rv.mp4	0.0	235.8363001346588	
26	139.00395011901855	fix_post	2		12	24.0	2.5	/experiments/knapen_AOT/AOT_stimuli/rescaled_final/1912_rv.mp4	0.0	236.75224709510803	0.09998703002929688
27	139.10393714904785	fix_pre	0		120	25.0	2.5	/experiments/knapen_AOT/AOT_stimuli/rescaled_final/0116_rv.mp4	0.0	236.85223412513733	1.00016188621521
27	139.68756103515625	pulse	0	t		25.0	2.5	/experiments/knapen_AOT/AOT_stimuli/rescaled_final/0116_rv.mp4	0.0	237.43585801124573	
27	140.10409903526306	movie	1		243	25.0	2.5	/experiments/knapen_AOT/AOT_stimuli/rescaled_final/0116_rv.mp4	0.0	237.85239601135254	2.5003879070281982
27	141.2878861427307	pulse	1	t		25.0	2.5	/experiments/knapen_AOT/AOT_stimuli/rescaled_final/0116_rv.mp4	0.0	239.0361831188202	
27	142.60448694229126	fix_post	2		12	25.0	2.5	/experiments/knapen_AOT/AOT_stimuli/rescaled_final/0116_rv.mp4	0.0	240.35278391838074	0.1000211238861084
28	142.70450806617737	fix_pre	0		120	26.0	2.5	/experiments/knapen_AOT/AOT_stimuli/rescaled_final/0637_rv.mp4	0.0	240.45280504226685	1.0001370906829834
28	142.88804411888123	pulse	0	t		26.0	2.5	/experiments/knapen_AOT/AOT_stimuli/rescaled_final/0637_rv.mp4	0.0	240.6363410949707	
28	143.70464515686035	movie	1		244	26.0	2.5	/experiments/knapen_AOT/AOT_stimuli/rescaled_final/0637_rv.mp4	0.0	241.45294213294983	2.5003437995910645
28	144.48836708068848	pulse	1	t		26.0	2.5	/experiments/knapen_AOT/AOT_stimuli/rescaled_final/0637_rv.mp4	0.0	242.23666405677795	
28	146.08887910842896	pulse	1	t		26.0	2.5	/experiments/knapen_AOT/AOT_stimuli/rescaled_final/0637_rv.mp4	0.0	243.83717608451843	
28	146.20498895645142	fix_post	2		12	26.0	2.5	/experiments/knapen_AOT/AOT_stimuli/rescaled_final/0637_rv.mp4	0.0	243.9532859325409	0.10004401206970215
29	146.30503296852112	fix_pre	0		120	27.0	2.5	/experiments/knapen_AOT/AOT_stimuli/rescaled_final/1207_fw.mp4	0.0	244.0533299446106	1.0001401901245117
29	147.30517315864563	movie	1		243	27.0	2.5	/experiments/knapen_AOT/AOT_stimuli/rescaled_final/1207_fw.mp4	0.0	245.0534701347351	2.4920740127563477
29	147.68932700157166	pulse	1	t		27.0	2.5	/experiments/knapen_AOT/AOT_stimuli/rescaled_final/1207_fw.mp4	0.0	245.43762397766113	
29	149.288959980011	pulse	1	t		27.0	2.5	/experiments/knapen_AOT/AOT_stimuli/rescaled_final/1207_fw.mp4	0.0	247.03725695610046	
29	149.79724717140198	fix_post	2		12	27.0	2.5	/experiments/knapen_AOT/AOT_stimuli/rescaled_final/1207_fw.mp4	0.0	247.54554414749146	0.09997987747192383
30	149.8972270488739	fix_pre	0		120	28.0	2.5	blank	1.0	247.64552402496338	1.0002140998840332
30	150.88927102088928	pulse	0	t		28.0	2.5	blank	1.0	248.63756799697876	
30	150.89744114875793	movie	1		301	28.0	2.5	blank	1.0	248.6457381248474	2.5086488723754883
30	152.4895839691162	pulse	1	t		28.0	2.5	blank	1.0	250.2378809452057	
30	153.40609002113342	fix_post	2		12	28.0	2.5	blank	1.0	251.1543869972229	0.1000509262084961
31	153.50614094734192	fix_pre	0		120	29.0	2.5	/experiments/knapen_AOT/AOT_stimuli/rescaled_final/1004_fw.mp4	0.0	251.2544379234314	1.0001881122589111
31	154.08970713615417	pulse	0	t		29.0	2.5	/experiments/knapen_AOT/AOT_stimuli/rescaled_final/1004_fw.mp4	0.0	251.83800411224365	
31	154.50632905960083	movie	1		245	29.0	2.5	/experiments/knapen_AOT/AOT_stimuli/rescaled_final/1004_fw.mp4	0.0	252.2546260356903	2.5002670288085938
31	155.68999314308167	pulse	1	t		29.0	2.5	/experiments/knapen_AOT/AOT_stimuli/rescaled_final/1004_fw.mp4	0.0	253.43829011917114	
31	157.00659608840942	fix_post	2		12	29.0	2.5	/experiments/knapen_AOT/AOT_stimuli/rescaled_final/1004_fw.mp4	0.0	254.7548930644989	0.10004806518554688
32	157.10664415359497	fix_pre	0		120	30.0	2.5	/experiments/knapen_AOT/AOT_stimuli/rescaled_final/1152_fw.mp4	0.0	254.85494112968445	1.000147819519043
32	157.29022312164307	pulse	0	t		30.0	2.5	/experiments/knapen_AOT/AOT_stimuli/rescaled_final/1152_fw.mp4	0.0	255.03852009773254	
32	158.106791973114	movie	1		244	30.0	2.5	/experiments/knapen_AOT/AOT_stimuli/rescaled_final/1152_fw.mp4	0.0	255.8550889492035	2.5003600120544434
32	158.89054203033447	pulse	1	t		30.0	2.5	/experiments/knapen_AOT/AOT_stimuli/rescaled_final/1152_fw.mp4	0.0	256.63883900642395	
32	160.49077701568604	pulse	1	t		30.0	2.5	/experiments/knapen_AOT/AOT_stimuli/rescaled_final/1152_fw.mp4	0.0	258.2390739917755	
32	160.60715198516846	fix_post	2		12	30.0	2.5	/experiments/knapen_AOT/AOT_stimuli/rescaled_final/1152_fw.mp4	0.0	258.35544896125793	0.10008716583251953
33	160.70723915100098	fix_pre	0		120	31.0	2.5	/experiments/knapen_AOT/AOT_stimuli/rescaled_final/1568_fw.mp4	0.0	258.45553612709045	1.000079870223999
33	161.70731902122498	movie	1		243	31.0	2.5	/experiments/knapen_AOT/AOT_stimuli/rescaled_final/1568_fw.mp4	0.0	259.45561599731445	2.4920201301574707
33	162.0914180278778	pulse	1	t		31.0	2.5	/experiments/knapen_AOT/AOT_stimuli/rescaled_final/1568_fw.mp4	0.0	259.8397150039673	
33	163.69124794006348	pulse	1	t		31.0	2.5	/experiments/knapen_AOT/AOT_stimuli/rescaled_final/1568_fw.mp4	0.0	261.43954491615295	
33	164.19933915138245	fix_post	2		12	31.0	2.5	/experiments/knapen_AOT/AOT_stimuli/rescaled_final/1568_fw.mp4	0.0	261.9476361274719	0.10004591941833496
34	164.29938507080078	fix_pre	0		120	32.0	2.5	/experiments/knapen_AOT/AOT_stimuli/rescaled_final/0432_rv.mp4	0.0	262.04768204689026	1.000187873840332
34	165.2913680076599	pulse	0	t		32.0	2.5	/experiments/knapen_AOT/AOT_stimuli/rescaled_final/0432_rv.mp4	0.0	263.0396649837494	
34	165.2995729446411	movie	1		245	32.0	2.5	/experiments/knapen_AOT/AOT_stimuli/rescaled_final/0432_rv.mp4	0.0	263.0478699207306	2.5086541175842285
34	166.89217400550842	pulse	1	t		32.0	2.5	/experiments/knapen_AOT/AOT_stimuli/rescaled_final/0432_rv.mp4	0.0	264.6404709815979	
34	167.80822706222534	fix_post	2		12	32.0	2.5	/experiments/knapen_AOT/AOT_stimuli/rescaled_final/0432_rv.mp4	0.0	265.5565240383148	0.10005903244018555
35	167.90828609466553	fix_pre	0		120	33.0	2.5	/experiments/knapen_AOT/AOT_stimuli/rescaled_final/0356_fw.mp4	0.0	265.656583070755	1.0001070499420166
35	168.4918611049652	pulse	0	t		33.0	2.5	/experiments/knapen_AOT/AOT_stimuli/rescaled_final/0356_fw.mp4	0.0	266.2401580810547	
35	168.90839314460754	movie	1		244	33.0	2.5	/experiments/knapen_AOT/AOT_stimuli/rescaled_final/0356_fw.mp4	0.0	266.656690120697	2.500379800796509
35	170.09215712547302	pulse	1	t		33.0	2.5	/experiments/knapen_AOT/AOT_stimuli/rescaled_final/0356_fw.mp4	0.0	267.8404541015625	
35	171.40877294540405	fix_post	2		12	33.0	2.5	/experiments/knapen_AOT/AOT_stimuli/rescaled_final/0356_fw.mp4	0.0	269.15706992149353	0.10000920295715332
36	171.5087821483612	fix_pre	0		120	34.0	2.5	/experiments/knapen_AOT/AOT_stimuli/rescaled_final/0475_fw.mp4	0.0	269.2570791244507	1.000147819519043
36	171.69248509407043	pulse	0	t		34.0	2.5	/experiments/knapen_AOT/AOT_stimuli/rescaled_final/0475_fw.mp4	0.0	269.4407820701599	
36	172.50892996788025	movie	1		244	34.0	2.5	/experiments/knapen_AOT/AOT_stimuli/rescaled_final/0475_fw.mp4	0.0	270.2572269439697	2.5003700256347656
36	173.29269313812256	pulse	1	t		34.0	2.5	/experiments/knapen_AOT/AOT_stimuli/rescaled_final/0475_fw.mp4	0.0	271.04099011421204	
36	174.89289903640747	pulse	1	t		34.0	2.5	/experiments/knapen_AOT/AOT_stimuli/rescaled_final/0475_fw.mp4	0.0	272.64119601249695	
36	175.00929999351501	fix_post	2		12	34.0	2.5	/experiments/knapen_AOT/AOT_stimuli/rescaled_final/0475_fw.mp4	0.0	272.7575969696045	0.1000370979309082
37	175.10933709144592	fix_pre	0		120	35.0	2.5	blank	1.0	272.8576340675354	1.0001308917999268
37	176.10946798324585	movie	1		299	35.0	2.5	blank	1.0	273.8577649593353	2.4920661449432373
37	176.49301505088806	pulse	1	t		35.0	2.5	blank	1.0	274.24131202697754	
37	178.09339809417725	pulse	1	t		35.0	2.5	blank	1.0	275.8416950702667	
37	178.6015341281891	fix_post	2		12	35.0	2.5	blank	1.0	276.34983110427856	0.09998202323913574
38	178.70151615142822	fix_pre	0		120	36.0	2.5	/experiments/knapen_AOT/AOT_stimuli/rescaled_final/0213_rv.mp4	0.0	276.4498131275177	1.000166893005371
38	179.69365811347961	pulse	0	t		36.0	2.5	/experiments/knapen_AOT/AOT_stimuli/rescaled_final/0213_rv.mp4	0.0	277.4419550895691	
38	179.7016830444336	movie	1		246	36.0	2.5	/experiments/knapen_AOT/AOT_stimuli/rescaled_final/0213_rv.mp4	0.0	277.44998002052307	2.508723020553589
38	181.29425311088562	pulse	1	t		36.0	2.5	/experiments/knapen_AOT/AOT_stimuli/rescaled_final/0213_rv.mp4	0.0	279.0425500869751	
38	182.21040606498718	fix_post	2		12	36.0	2.5	/experiments/knapen_AOT/AOT_stimuli/rescaled_final/0213_rv.mp4	0.0	279.95870304107666	0.10005807876586914
39	182.31046414375305	fix_pre	0		120	37.0	2.5	/experiments/knapen_AOT/AOT_stimuli/rescaled_final/0587_rv.mp4	0.0	280.05876111984253	1.000126838684082
39	182.88652205467224	pulse	0	t		37.0	2.5	/experiments/knapen_AOT/AOT_stimuli/rescaled_final/0587_rv.mp4	0.0	280.6348190307617	
39	183.31059098243713	movie	1		245	37.0	2.5	/experiments/knapen_AOT/AOT_stimuli/rescaled_final/0587_rv.mp4	0.0	281.0588879585266	2.5003271102905273
39	184.48655700683594	pulse	1	t		37.0	2.5	/experiments/knapen_AOT/AOT_stimuli/rescaled_final/0587_rv.mp4	0.0	282.2348539829254	
39	185.81091809272766	fix_post	2		12	37.0	2.5	/experiments/knapen_AOT/AOT_stimuli/rescaled_final/0587_rv.mp4	0.0	283.55921506881714	0.10001802444458008
40	185.91093611717224	fix_pre	0		120	38.0	2.5	/experiments/knapen_AOT/AOT_stimuli/rescaled_final/0146_rv.mp4	0.0	283.6592330932617	1.0001678466796875
40	186.0869059562683	pulse	0	t		38.0	2.5	/experiments/knapen_AOT/AOT_stimuli/rescaled_final/0146_rv.mp4	0.0	283.8352029323578	
40	186.91110396385193	movie	1		244	38.0	2.5	/experiments/knapen_AOT/AOT_stimuli/rescaled_final/0146_rv.mp4	0.0	284.6594009399414	2.500373125076294
40	187.68643712997437	pulse	1	t		38.0	2.5	/experiments/knapen_AOT/AOT_stimuli/rescaled_final/0146_rv.mp4	0.0	285.43473410606384	
40	189.2866530418396	pulse	1	t		38.0	2.5	/experiments/knapen_AOT/AOT_stimuli/rescaled_final/0146_rv.mp4	0.0	287.0349500179291	
40	189.41147708892822	fix_post	2		12	38.0	2.5	/experiments/knapen_AOT/AOT_stimuli/rescaled_final/0146_rv.mp4	0.0	287.1597740650177	0.09996485710144043
41	189.51144194602966	fix_pre	0		120	39.0	2.5	/experiments/knapen_AOT/AOT_stimuli/rescaled_final/1360_rv.mp4	0.0	287.25973892211914	1.0002191066741943
41	190.51166105270386	movie	1		239	39.0	2.5	/experiments/knapen_AOT/AOT_stimuli/rescaled_final/1360_rv.mp4	0.0	288.25995802879333	2.4923179149627686
41	190.88690209388733	pulse	1	t		39.0	2.5	/experiments/knapen_AOT/AOT_stimuli/rescaled_final/1360_rv.mp4	0.0	288.6351990699768	
41	192.48714900016785	pulse	1	t		39.0	2.5	/experiments/knapen_AOT/AOT_stimuli/rescaled_final/1360_rv.mp4	0.0	290.2354459762573	
41	193.00397896766663	fix_post	2		12	39.0	2.5	/experiments/knapen_AOT/AOT_stimuli/rescaled_final/1360_rv.mp4	0.0	290.7522759437561	0.09976506233215332
42	193.10374402999878	fix_pre	0		119	40.0	2.5	blank	1.0	290.85204100608826	0.9918389320373535
42	194.08744502067566	pulse	0	t		40.0	2.5	blank	1.0	291.83574199676514	
42	194.09558296203613	movie	1		301	40.0	2.5	blank	1.0	291.8438799381256	2.5086350440979004
42	195.68770694732666	pulse	1	t		40.0	2.5	blank	1.0	293.43600392341614	
42	196.60421800613403	fix_post	2		12	40.0	2.5	blank	1.0	294.3525149822235	0.09999895095825195
43	196.70421695709229	fix_pre	0		120	41.0	2.5	/experiments/knapen_AOT/AOT_stimuli/rescaled_final/1812_fw.mp4	0.0	294.45251393318176	1.0001490116119385
43	197.2878770828247	pulse	0	t		41.0	2.5	/experiments/knapen_AOT/AOT_stimuli/rescaled_final/1812_fw.mp4	0.0	295.0361740589142	
43	197.70436596870422	movie	1		244	41.0	2.5	/experiments/knapen_AOT/AOT_stimuli/rescaled_final/1812_fw.mp4	0.0	295.4526629447937	2.5004050731658936
43	198.88815999031067	pulse	1	t		41.0	2.5	/experiments/knapen_AOT/AOT_stimuli/rescaled_final/1812_fw.mp4	0.0	296.63645696640015	
43	200.20477104187012	fix_post	2		12	41.0	2.5	/experiments/knapen_AOT/AOT_stimuli/rescaled_final/1812_fw.mp4	0.0	297.9530680179596	0.10000395774841309
44	200.30477499961853	fix_pre	0		120	42.0	2.5	/experiments/knapen_AOT/AOT_stimuli/rescaled_final/1762_rv.mp4	0.0	298.053071975708	1.000169038772583
44	200.48827505111694	pulse	0	t		42.0	2.5	/experiments/knapen_AOT/AOT_stimuli/rescaled_final/1762_rv.mp4	0.0	298.2365720272064	
44	201.3049440383911	movie	1		243	42.0	2.5	/experiments/knapen_AOT/AOT_stimuli/rescaled_final/1762_rv.mp4	0.0	299.0532410144806	2.5003669261932373
44	202.08874201774597	pulse	1	t		42.0	2.5	/experiments/knapen_AOT/AOT_stimuli/rescaled_final/1762_rv.mp4	0.0	299.83703899383545	
44	203.68865394592285	pulse	1	t		42.0	2.5	/experiments/knapen_AOT/AOT_stimuli/rescaled_final/1762_rv.mp4	0.0	301.43695092201233	
44	203.80531096458435	fix_post	2		12	42.0	2.5	/experiments/knapen_AOT/AOT_stimuli/rescaled_final/1762_rv.mp4	0.0	301.5536079406738	0.10001111030578613
45	203.90532207489014	fix_pre	0		120	43.0	2.5	/experiments/knapen_AOT/AOT_stimuli/rescaled_final/0732_rv.mp4	0.0	301.6536190509796	1.0001699924468994
45	204.90549206733704	movie	1		244	43.0	2.5	/experiments/knapen_AOT/AOT_stimuli/rescaled_final/0732_rv.mp4	0.0	302.6537890434265	2.4919979572296143
45	205.2934980392456	pulse	1	t		43.0	2.5	/experiments/knapen_AOT/AOT_stimuli/rescaled_final/0732_rv.mp4	0.0	303.0417950153351	
45	206.88928604125977	pulse	1	t		43.0	2.5	/experiments/knapen_AOT/AOT_stimuli/rescaled_final/0732_rv.mp4	0.0	304.63758301734924	
45	207.39749002456665	fix_post	2		12	43.0	2.5	/experiments/knapen_AOT/AOT_stimuli/rescaled_final/0732_rv.mp4	0.0	305.1457870006561	0.10004997253417969
46	207.49753999710083	fix_pre	0		120	44.0	2.5	/experiments/knapen_AOT/AOT_stimuli/rescaled_final/2061_rv.mp4	0.0	305.2458369731903	1.0001599788665771
46	208.48965501785278	pulse	0	t		44.0	2.5	/experiments/knapen_AOT/AOT_stimuli/rescaled_final/2061_rv.mp4	0.0	306.23795199394226	
46	208.4976999759674	movie	1		244	44.0	2.5	/experiments/knapen_AOT/AOT_stimuli/rescaled_final/2061_rv.mp4	0.0	306.2459969520569	2.5087530612945557
46	210.0902440547943	pulse	1	t		44.0	2.5	/experiments/knapen_AOT/AOT_stimuli/rescaled_final/2061_rv.mp4	0.0	307.8385410308838	
46	211.00645303726196	fix_post	2		12	44.0	2.5	/experiments/knapen_AOT/AOT_stimuli/rescaled_final/2061_rv.mp4	0.0	308.75475001335144	0.09993696212768555
47	211.10638999938965	fix_pre	0		120	45.0	2.5	/experiments/knapen_AOT/AOT_stimuli/rescaled_final/1933_rv.mp4	0.0	308.8546869754791	1.000169038772583
47	211.69000101089478	pulse	0	t		45.0	2.5	/experiments/knapen_AOT/AOT_stimuli/rescaled_final/1933_rv.mp4	0.0	309.43829798698425	
47	212.10655903816223	movie	1		244	45.0	2.5	/experiments/knapen_AOT/AOT_stimuli/rescaled_final/1933_rv.mp4	0.0	309.8548560142517	2.5003349781036377
47	213.29030299186707	pulse	1	t		45.0	2.5	/experiments/knapen_AOT/AOT_stimuli/rescaled_final/1933_rv.mp4	0.0	311.03859996795654	
47	214.60689401626587	fix_post	2		12	45.0	2.5	/experiments/knapen_AOT/AOT_stimuli/rescaled_final/1933_rv.mp4	0.0	312.35519099235535	0.10004711151123047
48	214.7069411277771	fix_pre	0		120	46.0	2.5	/experiments/knapen_AOT/AOT_stimuli/rescaled_final/0397_rv.mp4	0.0	312.4552381038666	1.0001568794250488
48	214.89047193527222	pulse	0	t		46.0	2.5	/experiments/knapen_AOT/AOT_stimuli/rescaled_final/0397_rv.mp4	0.0	312.6387689113617	
48	215.70709800720215	movie	1		245	46.0	2.5	/experiments/knapen_AOT/AOT_stimuli/rescaled_final/0397_rv.mp4	0.0	313.4553949832916	2.5003559589385986
48	216.49082899093628	pulse	1	t		46.0	2.5	/experiments/knapen_AOT/AOT_stimuli/rescaled_final/0397_rv.mp4	0.0	314.23912596702576	
48	218.08856201171875	pulse	1	t		46.0	2.5	/experiments/knapen_AOT/AOT_stimuli/rescaled_final/0397_rv.mp4	0.0	315.8368589878082	
48	218.20745396614075	fix_post	2		12	46.0	2.5	/experiments/knapen_AOT/AOT_stimuli/rescaled_final/0397_rv.mp4	0.0	315.9557509422302	0.10002398490905762
49	218.3074779510498	fix_pre	0		120	47.0	2.5	/experiments/knapen_AOT/AOT_stimuli/rescaled_final/0379_fw.mp4	0.0	316.0557749271393	1.000133991241455
49	219.30761194229126	movie	1		243	47.0	2.5	/experiments/knapen_AOT/AOT_stimuli/rescaled_final/0379_fw.mp4	0.0	317.05590891838074	2.492140054702759
49	219.69190502166748	pulse	1	t		47.0	2.5	/experiments/knapen_AOT/AOT_stimuli/rescaled_final/0379_fw.mp4	0.0	317.44020199775696	
49	221.29148602485657	pulse	1	t		47.0	2.5	/experiments/knapen_AOT/AOT_stimuli/rescaled_final/0379_fw.mp4	0.0	319.03978300094604	
49	221.79975199699402	fix_post	2		12	47.0	2.5	/experiments/knapen_AOT/AOT_stimuli/rescaled_final/0379_fw.mp4	0.0	319.5480489730835	0.09991812705993652
50	221.89967012405396	fix_pre	0		120	48.0	2.5	/experiments/knapen_AOT/AOT_stimuli/rescaled_final/0672_fw.mp4	0.0	319.64796710014343	1.0001330375671387
50	222.89174795150757	pulse	0	t		48.0	2.5	/experiments/knapen_AOT/AOT_stimuli/rescaled_final/0672_fw.mp4	0.0	320.64004492759705	
50	222.8998031616211	movie	1		244	48.0	2.5	/experiments/knapen_AOT/AOT_stimuli/rescaled_final/0672_fw.mp4	0.0	320.64810013771057	2.508713960647583
50	224.4924340248108	pulse	1	t		48.0	2.5	/experiments/knapen_AOT/AOT_stimuli/rescaled_final/0672_fw.mp4	0.0	322.24073100090027	
50	225.40851712226868	fix_post	2		12	48.0	2.5	/experiments/knapen_AOT/AOT_stimuli/rescaled_final/0672_fw.mp4	0.0	323.15681409835815	0.10003495216369629
51	225.50855207443237	fix_pre	0		120	49.0	2.5	blank	1.0	323.25684905052185	1.0001659393310547
51	226.0921139717102	pulse	0	t		49.0	2.5	blank	1.0	323.8404109477997	
51	226.50871801376343	movie	1		300	49.0	2.5	blank	1.0	324.2570149898529	2.500359058380127
51	227.6924171447754	pulse	1	t		49.0	2.5	blank	1.0	325.44071412086487	
51	229.00907707214355	fix_post	2		12	49.0	2.5	blank	1.0	326.75737404823303	0.09999203681945801
52	229.109069108963	fix_pre	0		120	50.0	2.5	/experiments/knapen_AOT/AOT_stimuli/rescaled_final/2012_fw.mp4	0.0	326.8573660850525	1.000169038772583
52	229.29261803627014	pulse	0	t		50.0	2.5	/experiments/knapen_AOT/AOT_stimuli/rescaled_final/2012_fw.mp4	0.0	327.0409150123596	
52	230.1092381477356	movie	1		244	50.0	2.5	/experiments/knapen_AOT/AOT_stimuli/rescaled_final/2012_fw.mp4	0.0	327.8575351238251	2.500363826751709
52	230.892884016037	pulse	1	t		50.0	2.5	/experiments/knapen_AOT/AOT_stimuli/rescaled_final/2012_fw.mp4	0.0	328.64118099212646	
52	232.49310898780823	pulse	1	t		50.0	2.5	/experiments/knapen_AOT/AOT_stimuli/rescaled_final/2012_fw.mp4	0.0	330.2414059638977	
52	232.6096019744873	fix_post	2		12	50.0	2.5	/experiments/knapen_AOT/AOT_stimuli/rescaled_final/2012_fw.mp4	0.0	330.3578989505768	0.10004115104675293
53	232.70964312553406	fix_pre	0		120	51.0	2.5	/experiments/knapen_AOT/AOT_stimuli/rescaled_final/1930_fw.mp4	0.0	330.45794010162354	1.0001590251922607
53	233.70980215072632	movie	1		244	51.0	2.5	/experiments/knapen_AOT/AOT_stimuli/rescaled_final/1930_fw.mp4	0.0	331.4580991268158	2.4919819831848145
53	234.09415817260742	pulse	1	t		51.0	2.5	/experiments/knapen_AOT/AOT_stimuli/rescaled_final/1930_fw.mp4	0.0	331.8424551486969	
53	235.68631410598755	pulse	1	t		51.0	2.5	/experiments/knapen_AOT/AOT_stimuli/rescaled_final/1930_fw.mp4	0.0	333.434611082077	
53	236.20178413391113	fix_post	2		12	51.0	2.5	/experiments/knapen_AOT/AOT_stimuli/rescaled_final/1930_fw.mp4	0.0	333.9500811100006	0.10001683235168457
54	236.30180096626282	fix_pre	0		120	52.0	2.5	/experiments/knapen_AOT/AOT_stimuli/rescaled_final/1695_rv.mp4	0.0	334.0500979423523	1.0002729892730713
54	237.28633904457092	pulse	0	t		52.0	2.5	/experiments/knapen_AOT/AOT_stimuli/rescaled_final/1695_rv.mp4	0.0	335.0346360206604	
54	237.3020739555359	movie	1		244	52.0	2.5	/experiments/knapen_AOT/AOT_stimuli/rescaled_final/1695_rv.mp4	0.0	335.05037093162537	2.5086472034454346
54	238.89464616775513	pulse	1	t		52.0	2.5	/experiments/knapen_AOT/AOT_stimuli/rescaled_final/1695_rv.mp4	0.0	336.6429431438446	
54	239.81072115898132	fix_post	2		12	52.0	2.5	/experiments/knapen_AOT/AOT_stimuli/rescaled_final/1695_rv.mp4	0.0	337.5590181350708	0.09997391700744629
55	239.91069507598877	fix_pre	0		120	53.0	2.5	/experiments/knapen_AOT/AOT_stimuli/rescaled_final/0434_fw.mp4	0.0	337.65899205207825	1.0001580715179443
55	240.48604607582092	pulse	0	t		53.0	2.5	/experiments/knapen_AOT/AOT_stimuli/rescaled_final/0434_fw.mp4	0.0	338.2343430519104	
55	240.9108531475067	movie	1		243	53.0	2.5	/experiments/knapen_AOT/AOT_stimuli/rescaled_final/0434_fw.mp4	0.0	338.6591501235962	2.500417947769165
55	242.08677411079407	pulse	1	t		53.0	2.5	/experiments/knapen_AOT/AOT_stimuli/rescaled_final/0434_fw.mp4	0.0	339.83507108688354	
55	243.41127109527588	fix_post	2		12	53.0	2.5	/experiments/knapen_AOT/AOT_stimuli/rescaled_final/0434_fw.mp4	0.0	341.15956807136536	0.10000896453857422
56	243.51128005981445	fix_pre	0		120	54.0	2.5	/experiments/knapen_AOT/AOT_stimuli/rescaled_final/0608_fw.mp4	0.0	341.25957703590393	1.0001180171966553
56	243.68649101257324	pulse	0	t		54.0	2.5	/experiments/knapen_AOT/AOT_stimuli/rescaled_final/0608_fw.mp4	0.0	341.4347879886627	
56	244.5113980770111	movie	1		244	54.0	2.5	/experiments/knapen_AOT/AOT_stimuli/rescaled_final/0608_fw.mp4	0.0	342.2596950531006	2.500380039215088
56	245.2867410182953	pulse	1	t		54.0	2.5	/experiments/knapen_AOT/AOT_stimuli/rescaled_final/0608_fw.mp4	0.0	343.03503799438477	
56	246.88706016540527	pulse	1	t		54.0	2.5	/experiments/knapen_AOT/AOT_stimuli/rescaled_final/0608_fw.mp4	0.0	344.63535714149475	
56	247.0117781162262	fix_post	2		12	54.0	2.5	/experiments/knapen_AOT/AOT_stimuli/rescaled_final/0608_fw.mp4	0.0	344.7600750923157	0.10000991821289062
57	247.1117880344391	fix_pre	0		119	55.0	2.5	/experiments/knapen_AOT/AOT_stimuli/rescaled_final/1242_fw.mp4	0.0	344.86008501052856	0.9917709827423096
57	248.1035590171814	movie	1		244	55.0	2.5	/experiments/knapen_AOT/AOT_stimuli/rescaled_final/1242_fw.mp4	0.0	345.8518559932709	2.500385046005249
57	248.48791408538818	pulse	1	t		55.0	2.5	/experiments/knapen_AOT/AOT_stimuli/rescaled_final/1242_fw.mp4	0.0	346.23621106147766	
57	250.08745312690735	pulse	1	t		55.0	2.5	/experiments/knapen_AOT/AOT_stimuli/rescaled_final/1242_fw.mp4	0.0	347.8357501029968	
57	250.60394406318665	fix_post	2		12	55.0	2.5	/experiments/knapen_AOT/AOT_stimuli/rescaled_final/1242_fw.mp4	0.0	348.3522410392761	0.10002803802490234
58	250.70397210121155	fix_pre	0		116	56.0	2.5	blank	1.0	348.452269077301	0.9918439388275146
58	251.68762707710266	pulse	0	t		56.0	2.5	blank	1.0	349.43592405319214	
58	251.69581604003906	movie	1		301	56.0	2.5	blank	1.0	349.44411301612854	2.508646011352539
58	253.2878701686859	pulse	1	t		56.0	2.5	blank	1.0	351.0361671447754	
58	254.2044620513916	fix_post	2		12	56.0	2.5	blank	1.0	351.9527590274811	0.10004496574401855
59	254.30450701713562	fix_pre	0		120	57.0	2.5	/experiments/knapen_AOT/AOT_stimuli/rescaled_final/0244_rv.mp4	0.0	352.0528039932251	1.000180959701538
59	254.8880889415741	pulse	0	t		57.0	2.5	/experiments/knapen_AOT/AOT_stimuli/rescaled_final/0244_rv.mp4	0.0	352.6363859176636	
59	255.30468797683716	movie	1		245	57.0	2.5	/experiments/knapen_AOT/AOT_stimuli/rescaled_final/0244_rv.mp4	0.0	353.05298495292664	2.500319004058838
59	256.4886519908905	pulse	1	t		57.0	2.5	/experiments/knapen_AOT/AOT_stimuli/rescaled_final/0244_rv.mp4	0.0	354.23694896698	
59	257.805006980896	fix_post	2		12	57.0	2.5	/experiments/knapen_AOT/AOT_stimuli/rescaled_final/0244_rv.mp4	0.0	355.5533039569855	0.1000661849975586
60	257.90507316589355	fix_pre	0		120	58.0	2.5	/experiments/knapen_AOT/AOT_stimuli/rescaled_final/1073_fw.mp4	0.0	355.65337014198303	1.000213861465454
60	258.0886161327362	pulse	0	t		58.0	2.5	/experiments/knapen_AOT/AOT_stimuli/rescaled_final/1073_fw.mp4	0.0	355.8369131088257	
60	258.905287027359	movie	1		243	58.0	2.5	/experiments/knapen_AOT/AOT_stimuli/rescaled_final/1073_fw.mp4	0.0	356.6535840034485	2.500286102294922
60	259.68883299827576	pulse	1	t		58.0	2.5	/experiments/knapen_AOT/AOT_stimuli/rescaled_final/1073_fw.mp4	0.0	357.43712997436523	
60	261.28900504112244	pulse	1	t		58.0	2.5	/experiments/knapen_AOT/AOT_stimuli/rescaled_final/1073_fw.mp4	0.0	359.0373020172119	
60	261.40557312965393	fix_post	2		12	58.0	2.5	/experiments/knapen_AOT/AOT_stimuli/rescaled_final/1073_fw.mp4	0.0	359.1538701057434	0.10006189346313477
61	261.50563502311707	fix_pre	0		119	59.0	2.5	/experiments/knapen_AOT/AOT_stimuli/rescaled_final/0657_rv.mp4	0.0	359.25393199920654	0.9917731285095215
61	262.4974081516266	movie	1		243	59.0	2.5	/experiments/knapen_AOT/AOT_stimuli/rescaled_final/0657_rv.mp4	0.0	360.24570512771606	2.5003538131713867
61	262.88953614234924	pulse	1	t		59.0	2.5	/experiments/knapen_AOT/AOT_stimuli/rescaled_final/0657_rv.mp4	0.0	360.6378331184387	
61	264.4896819591522	pulse	1	t		59.0	2.5	/experiments/knapen_AOT/AOT_stimuli/rescaled_final/0657_rv.mp4	0.0	362.2379789352417	
61	264.997761964798	fix_post	2		12	59.0	2.5	/experiments/knapen_AOT/AOT_stimuli/rescaled_final/0657_rv.mp4	0.0	362.74605894088745	0.10003113746643066
62	265.0977931022644	fix_pre	0		120	60.0	2.5	/experiments/knapen_AOT/AOT_stimuli/rescaled_final/1353_fw.mp4	0.0	362.8460900783539	1.0001659393310547
62	266.0898001194	pulse	0	t		60.0	2.5	/experiments/knapen_AOT/AOT_stimuli/rescaled_final/1353_fw.mp4	0.0	363.8380970954895	
62	266.09795904159546	movie	1		245	60.0	2.5	/experiments/knapen_AOT/AOT_stimuli/rescaled_final/1353_fw.mp4	0.0	363.84625601768494	2.508687973022461
62	267.6904580593109	pulse	1	t		60.0	2.5	/experiments/knapen_AOT/AOT_stimuli/rescaled_final/1353_fw.mp4	0.0	365.4387550354004	
62	268.6066470146179	fix_post	2		12	60.0	2.5	/experiments/knapen_AOT/AOT_stimuli/rescaled_final/1353_fw.mp4	0.0	366.3549439907074	0.10002994537353516
63	268.70667695999146	fix_pre	0		120	61.0	2.5	/experiments/knapen_AOT/AOT_stimuli/rescaled_final/0776_rv.mp4	0.0	366.45497393608093	1.0001380443572998
63	269.29034996032715	pulse	0	t		61.0	2.5	/experiments/knapen_AOT/AOT_stimuli/rescaled_final/0776_rv.mp4	0.0	367.0386469364166	
63	269.70681500434875	movie	1		244	61.0	2.5	/experiments/knapen_AOT/AOT_stimuli/rescaled_final/0776_rv.mp4	0.0	367.45511198043823	2.500439167022705
63	270.89079308509827	pulse	1	t		61.0	2.5	/experiments/knapen_AOT/AOT_stimuli/rescaled_final/0776_rv.mp4	0.0	368.63909006118774	
63	272.20725417137146	fix_post	2		12	61.0	2.5	/experiments/knapen_AOT/AOT_stimuli/rescaled_final/0776_rv.mp4	0.0	369.95555114746094	0.10002398490905762
64	272.3072781562805	fix_pre	0		120	62.0	2.5	/experiments/knapen_AOT/AOT_stimuli/rescaled_final/2150_rv.mp4	0.0	370.05557513237	1.000108003616333
64	272.4908549785614	pulse	0	t		62.0	2.5	/experiments/knapen_AOT/AOT_stimuli/rescaled_final/2150_rv.mp4	0.0	370.2391519546509	
64	273.30738615989685	movie	1		243	62.0	2.5	/experiments/knapen_AOT/AOT_stimuli/rescaled_final/2150_rv.mp4	0.0	371.0556831359863	2.500314950942993
64	274.0909790992737	pulse	1	t		62.0	2.5	/experiments/knapen_AOT/AOT_stimuli/rescaled_final/2150_rv.mp4	0.0	371.83927607536316	
64	275.6911690235138	pulse	1	t		62.0	2.5	/experiments/knapen_AOT/AOT_stimuli/rescaled_final/2150_rv.mp4	0.0	373.43946599960327	
64	275.80770111083984	fix_post	2		12	62.0	2.5	/experiments/knapen_AOT/AOT_stimuli/rescaled_final/2150_rv.mp4	0.0	373.5559980869293	0.1000528335571289
65	275.907753944397	fix_pre	0		119	63.0	2.5	blank	1.0	373.65605092048645	0.9918441772460938
65	276.89959812164307	movie	1		300	63.0	2.5	blank	1.0	374.64789509773254	2.5003650188446045
65	277.29157996177673	pulse	1	t		63.0	2.5	blank	1.0	375.0398769378662	
65	278.89177894592285	pulse	1	t		63.0	2.5	blank	1.0	376.64007592201233	
65	279.39996314048767	fix_post	2		12	63.0	2.5	blank	1.0	377.14826011657715	0.09998798370361328
66	279.4999511241913	fix_pre	0		120	64.0	2.5	/experiments/knapen_AOT/AOT_stimuli/rescaled_final/1657_rv.mp4	0.0	377.24824810028076	1.0002319812774658
66	280.49204897880554	pulse	0	t		64.0	2.5	/experiments/knapen_AOT/AOT_stimuli/rescaled_final/1657_rv.mp4	0.0	378.240345954895	
66	280.50018310546875	movie	1		245	64.0	2.5	/experiments/knapen_AOT/AOT_stimuli/rescaled_final/1657_rv.mp4	0.0	378.2484800815582	2.508617877960205
66	282.0929329395294	pulse	1	t		64.0	2.5	/experiments/knapen_AOT/AOT_stimuli/rescaled_final/1657_rv.mp4	0.0	379.8412299156189	
66	283.00880098342896	fix_post	2		12	64.0	2.5	/experiments/knapen_AOT/AOT_stimuli/rescaled_final/1657_rv.mp4	0.0	380.75709795951843	0.10002803802490234
67	283.10882902145386	fix_pre	0		120	65.0	2.5	/experiments/knapen_AOT/AOT_stimuli/rescaled_final/0116_fw.mp4	0.0	380.85712599754333	1.0001440048217773
67	283.69245505332947	pulse	0	t		65.0	2.5	/experiments/knapen_AOT/AOT_stimuli/rescaled_final/0116_fw.mp4	0.0	381.44075202941895	
67	284.10897302627563	movie	1		246	65.0	2.5	/experiments/knapen_AOT/AOT_stimuli/rescaled_final/0116_fw.mp4	0.0	381.8572700023651	2.5003490447998047
67	285.2929120063782	pulse	1	t		65.0	2.5	/experiments/knapen_AOT/AOT_stimuli/rescaled_final/0116_fw.mp4	0.0	383.04120898246765	
67	286.60932207107544	fix_post	2		12	65.0	2.5	/experiments/knapen_AOT/AOT_stimuli/rescaled_final/0116_fw.mp4	0.0	384.3576190471649	0.10004496574401855
68	286.70936703681946	fix_pre	0		120	66.0	2.5	/experiments/knapen_AOT/AOT_stimuli/rescaled_final/0111_fw.mp4	0.0	384.45766401290894	1.0001530647277832
68	286.89295506477356	pulse	0	t		66.0	2.5	/experiments/knapen_AOT/AOT_stimuli/rescaled_final/0111_fw.mp4	0.0	384.64125204086304	
68	287.70952010154724	movie	1		245	66.0	2.5	/experiments/knapen_AOT/AOT_stimuli/rescaled_final/0111_fw.mp4	0.0	385.4578170776367	2.5003650188446045
68	288.49317812919617	pulse	1	t		66.0	2.5	/experiments/knapen_AOT/AOT_stimuli/rescaled_final/0111_fw.mp4	0.0	386.24147510528564	
68	290.09354400634766	pulse	1	t		66.0	2.5	/experiments/knapen_AOT/AOT_stimuli/rescaled_final/0111_fw.mp4	0.0	387.84184098243713	
68	290.20988512039185	fix_post	2		12	66.0	2.5	/experiments/knapen_AOT/AOT_stimuli/rescaled_final/0111_fw.mp4	0.0	387.9581820964813	0.10001683235168457
69	290.30990195274353	fix_pre	0		119	67.0	2.5	/experiments/knapen_AOT/AOT_stimuli/rescaled_final/1568_rv.mp4	0.0	388.058198928833	0.991826057434082
69	291.3017280101776	movie	1		244	67.0	2.5	/experiments/knapen_AOT/AOT_stimuli/rescaled_final/1568_rv.mp4	0.0	389.0500249862671	2.5003230571746826
69	291.6938841342926	pulse	1	t		67.0	2.5	/experiments/knapen_AOT/AOT_stimuli/rescaled_final/1568_rv.mp4	0.0	389.4421811103821	
69	293.28666710853577	pulse	1	t		67.0	2.5	/experiments/knapen_AOT/AOT_stimuli/rescaled_final/1568_rv.mp4	0.0	391.03496408462524	
69	293.8020510673523	fix_post	2		12	67.0	2.5	/experiments/knapen_AOT/AOT_stimuli/rescaled_final/1568_rv.mp4	0.0	391.5503480434418	0.10004210472106934
70	293.90209317207336	fix_pre	0		120	68.0	2.5	/experiments/knapen_AOT/AOT_stimuli/rescaled_final/1776_rv.mp4	0.0	391.65039014816284	1.0002357959747314
70	294.8866491317749	pulse	0	t		68.0	2.5	/experiments/knapen_AOT/AOT_stimuli/rescaled_final/1776_rv.mp4	0.0	392.6349461078644	
70	294.9023289680481	movie	1		245	68.0	2.5	/experiments/knapen_AOT/AOT_stimuli/rescaled_final/1776_rv.mp4	0.0	392.6506259441376	2.5086259841918945
70	296.4859731197357	pulse	1	t		68.0	2.5	/experiments/knapen_AOT/AOT_stimuli/rescaled_final/1776_rv.mp4	0.0	394.2342700958252	
70	297.41095495224	fix_post	2		12	68.0	2.5	/experiments/knapen_AOT/AOT_stimuli/rescaled_final/1776_rv.mp4	0.0	395.15925192832947	0.10002017021179199
71	297.5109751224518	fix_pre	0		120	69.0	2.5	/experiments/knapen_AOT/AOT_stimuli/rescaled_final/1658_rv.mp4	0.0	395.25927209854126	1.0001749992370605
71	298.0862319469452	pulse	0	t		69.0	2.5	/experiments/knapen_AOT/AOT_stimuli/rescaled_final/1658_rv.mp4	0.0	395.83452892303467	
71	298.51115012168884	movie	1		245	69.0	2.5	/experiments/knapen_AOT/AOT_stimuli/rescaled_final/1658_rv.mp4	0.0	396.2594470977783	2.5004289150238037
71	299.68774008750916	pulse	1	t		69.0	2.5	/experiments/knapen_AOT/AOT_stimuli/rescaled_final/1658_rv.mp4	0.0	397.43603706359863	
71	301.01157903671265	fix_post	2		12	69.0	2.5	/experiments/knapen_AOT/AOT_stimuli/rescaled_final/1658_rv.mp4	0.0	398.7598760128021	0.09995198249816895
72	301.1115310192108	fix_pre	0		120	70.0	2.5	blank	1.0	398.8598279953003	1.0002050399780273
72	301.2867741584778	pulse	0	t		70.0	2.5	blank	1.0	399.03507113456726	
72	302.11173605918884	movie	1		299	70.0	2.5	blank	1.0	399.8600330352783	2.4920051097869873
72	302.8869881629944	pulse	1	t		70.0	2.5	blank	1.0	400.63528513908386	
72	304.4872090816498	pulse	1	t		70.0	2.5	blank	1.0	402.23550605773926	
72	304.60374116897583	fix_post	2		13	70.0	2.5	blank	1.0	402.3520381450653	0.10831999778747559
73	304.7120611667633	fix_pre	0		119	71.0	2.5	/experiments/knapen_AOT/AOT_stimuli/rescaled_final/1762_rv.mp4	0.0	402.4603581428528	0.9917998313903809
73	305.7038609981537	movie	1		243	71.0	2.5	/experiments/knapen_AOT/AOT_stimuli/rescaled_final/1762_rv.mp4	0.0	403.45215797424316	2.5004019737243652
73	306.08802700042725	pulse	1	t		71.0	2.5	/experiments/knapen_AOT/AOT_stimuli/rescaled_final/1762_rv.mp4	0.0	403.8363239765167	
73	307.68782210350037	pulse	1	t		71.0	2.5	/experiments/knapen_AOT/AOT_stimuli/rescaled_final/1762_rv.mp4	0.0	405.43611907958984	
73	308.20426297187805	fix_post	2		12	71.0	2.5	/experiments/knapen_AOT/AOT_stimuli/rescaled_final/1762_rv.mp4	0.0	405.95255994796753	0.0999910831451416
74	308.3042540550232	fix_pre	0		119	72.0	2.5	/experiments/knapen_AOT/AOT_stimuli/rescaled_final/1131_fw.mp4	0.0	406.05255103111267	0.9918959140777588
74	309.2879681587219	pulse	0	t		72.0	2.5	/experiments/knapen_AOT/AOT_stimuli/rescaled_final/1131_fw.mp4	0.0	407.0362651348114	
74	309.29614996910095	movie	1		246	72.0	2.5	/experiments/knapen_AOT/AOT_stimuli/rescaled_final/1131_fw.mp4	0.0	407.04444694519043	2.508664131164551
74	310.8929920196533	pulse	1	t		72.0	2.5	/experiments/knapen_AOT/AOT_stimuli/rescaled_final/1131_fw.mp4	0.0	408.6412889957428	
74	311.8048141002655	fix_post	2		12	72.0	2.5	/experiments/knapen_AOT/AOT_stimuli/rescaled_final/1131_fw.mp4	0.0	409.553111076355	0.10001397132873535
75	311.90482807159424	fix_pre	0		117	73.0	2.5	/experiments/knapen_AOT/AOT_stimuli/rescaled_final/0642_fw.mp4	0.0	409.6531250476837	1.000128984451294
75	312.48846912384033	pulse	0	t		73.0	2.5	/experiments/knapen_AOT/AOT_stimuli/rescaled_final/0642_fw.mp4	0.0	410.2367660999298	
75	312.90495705604553	movie	1		243	73.0	2.5	/experiments/knapen_AOT/AOT_stimuli/rescaled_final/0642_fw.mp4	0.0	410.653254032135	2.500359058380127
75	314.08872509002686	pulse	1	t		73.0	2.5	/experiments/knapen_AOT/AOT_stimuli/rescaled_final/0642_fw.mp4	0.0	411.83702206611633	
75	315.40531611442566	fix_post	2		12	73.0	2.5	/experiments/knapen_AOT/AOT_stimuli/rescaled_final/0642_fw.mp4	0.0	413.15361309051514	0.10003900527954102
76	315.5053551197052	fix_pre	0		120	74.0	2.5	/experiments/knapen_AOT/AOT_stimuli/rescaled_final/1630_rv.mp4	0.0	413.2536520957947	1.000135898590088
76	315.68895196914673	pulse	0	t		74.0	2.5	/experiments/knapen_AOT/AOT_stimuli/rescaled_final/1630_rv.mp4	0.0	413.4372489452362	
76	316.5054910182953	movie	1		243	74.0	2.5	/experiments/knapen_AOT/AOT_stimuli/rescaled_final/1630_rv.mp4	0.0	414.25378799438477	2.5003910064697266
76	317.2891311645508	pulse	1	t		74.0	2.5	/experiments/knapen_AOT/AOT_stimuli/rescaled_final/1630_rv.mp4	0.0	415.03742814064026	
76	318.8915059566498	pulse	1	t		74.0	2.5	/experiments/knapen_AOT/AOT_stimuli/rescaled_final/1630_rv.mp4	0.0	416.63980293273926	
76	319.005882024765	fix_post	2		12	74.0	2.5	/experiments/knapen_AOT/AOT_stimuli/rescaled_final/1630_rv.mp4	0.0	416.7541790008545	0.10012412071228027
77	319.1060061454773	fix_pre	0		120	75.0	2.5	/experiments/knapen_AOT/AOT_stimuli/rescaled_final/0789_rv.mp4	0.0	416.8543031215668	1.0000848770141602
77	320.10609102249146	movie	1		244	75.0	2.5	/experiments/knapen_AOT/AOT_stimuli/rescaled_final/0789_rv.mp4	0.0	417.85438799858093	2.4919469356536865
77	320.49074506759644	pulse	1	t		75.0	2.5	/experiments/knapen_AOT/AOT_stimuli/rescaled_final/0789_rv.mp4	0.0	418.2390420436859	
77	322.0899109840393	pulse	1	t		75.0	2.5	/experiments/knapen_AOT/AOT_stimuli/rescaled_final/0789_rv.mp4	0.0	419.8382079601288	
77	322.59803795814514	fix_post	2		12	75.0	2.5	/experiments/knapen_AOT/AOT_stimuli/rescaled_final/0789_rv.mp4	0.0	420.3463349342346	0.10004305839538574
78	322.6980810165405	fix_pre	0		120	76.0	2.5	blank	1.0	420.44637799263	1.0002219676971436
78	323.69011402130127	pulse	0	t		76.0	2.5	blank	1.0	421.43841099739075	
78	323.69830298423767	movie	1		301	76.0	2.5	blank	1.0	421.44659996032715	2.5086350440979004
78	325.29045510292053	pulse	1	t		76.0	2.5	blank	1.0	423.03875207901	
78	326.20693802833557	fix_post	2		12	76.0	2.5	blank	1.0	423.95523500442505	0.10002398490905762
79	326.30696201324463	fix_pre	0		120	77.0	2.5	/experiments/knapen_AOT/AOT_stimuli/rescaled_final/1417_rv.mp4	0.0	424.0552589893341	1.000162124633789
79	326.8906650543213	pulse	0	t		77.0	2.5	/experiments/knapen_AOT/AOT_stimuli/rescaled_final/1417_rv.mp4	0.0	424.63896203041077	
79	327.3071241378784	movie	1		245	77.0	2.5	/experiments/knapen_AOT/AOT_stimuli/rescaled_final/1417_rv.mp4	0.0	425.0554211139679	2.5003628730773926
79	328.4908981323242	pulse	1	t		77.0	2.5	/experiments/knapen_AOT/AOT_stimuli/rescaled_final/1417_rv.mp4	0.0	426.2391951084137	
79	329.8074870109558	fix_post	2		12	77.0	2.5	/experiments/knapen_AOT/AOT_stimuli/rescaled_final/1417_rv.mp4	0.0	427.5557839870453	0.10003900527954102
80	329.90752601623535	fix_pre	0		120	78.0	2.5	/experiments/knapen_AOT/AOT_stimuli/rescaled_final/0356_rv.mp4	0.0	427.65582299232483	1.0002200603485107
80	330.0910370349884	pulse	0	t		78.0	2.5	/experiments/knapen_AOT/AOT_stimuli/rescaled_final/0356_rv.mp4	0.0	427.8393340110779	
80	330.90774607658386	movie	1		244	78.0	2.5	/experiments/knapen_AOT/AOT_stimuli/rescaled_final/0356_rv.mp4	0.0	428.65604305267334	2.5002810955047607
80	331.69141602516174	pulse	1	t		78.0	2.5	/experiments/knapen_AOT/AOT_stimuli/rescaled_final/0356_rv.mp4	0.0	429.4397130012512	
80	333.29172706604004	pulse	1	t		78.0	2.5	/experiments/knapen_AOT/AOT_stimuli/rescaled_final/0356_rv.mp4	0.0	431.0400240421295	
80	333.4080271720886	fix_post	2		12	78.0	2.5	/experiments/knapen_AOT/AOT_stimuli/rescaled_final/0356_rv.mp4	0.0	431.1563241481781	0.10004186630249023
81	333.5080690383911	fix_pre	0		120	79.0	2.5	/experiments/knapen_AOT/AOT_stimuli/rescaled_final/1702_rv.mp4	0.0	431.2563660144806	1.0001239776611328
81	334.50819301605225	movie	1		243	79.0	2.5	/experiments/knapen_AOT/AOT_stimuli/rescaled_final/1702_rv.mp4	0.0	432.2564899921417	2.4920051097869873
81	334.89284896850586	pulse	1	t		79.0	2.5	/experiments/knapen_AOT/AOT_stimuli/rescaled_final/1702_rv.mp4	0.0	432.64114594459534	
81	336.4919641017914	pulse	1	t		79.0	2.5	/experiments/knapen_AOT/AOT_stimuli/rescaled_final/1702_rv.mp4	0.0	434.24026107788086	
81	337.00019812583923	fix_post	2		12	79.0	2.5	/experiments/knapen_AOT/AOT_stimuli/rescaled_final/1702_rv.mp4	0.0	434.7484951019287	0.10006904602050781
82	337.10026717185974	fix_pre	0		120	80.0	2.5	/experiments/knapen_AOT/AOT_stimuli/rescaled_final/1182_rv.mp4	0.0	434.8485641479492	1.000126838684082
82	338.0923750400543	pulse	0	t		80.0	2.5	/experiments/knapen_AOT/AOT_stimuli/rescaled_final/1182_rv.mp4	0.0	435.8406720161438	
82	338.1003940105438	movie	1		244	80.0	2.5	/experiments/knapen_AOT/AOT_stimuli/rescaled_final/1182_rv.mp4	0.0	435.8486909866333	2.508692979812622
82	339.69378304481506	pulse	1	t		80.0	2.5	/experiments/knapen_AOT/AOT_stimuli/rescaled_final/1182_rv.mp4	0.0	437.44208002090454	
82	340.60908699035645	fix_post	2		12	80.0	2.5	/experiments/knapen_AOT/AOT_stimuli/rescaled_final/1182_rv.mp4	0.0	438.3573839664459	0.10004115104675293
83	340.7091281414032	fix_pre	0		120	81.0	2.5	/experiments/knapen_AOT/AOT_stimuli/rescaled_final/0596_fw.mp4	0.0	438.4574251174927	1.0001418590545654
83	341.2928490638733	pulse	0	t		81.0	2.5	/experiments/knapen_AOT/AOT_stimuli/rescaled_final/0596_fw.mp4	0.0	439.04114603996277	
83	341.70927000045776	movie	1		245	81.0	2.5	/experiments/knapen_AOT/AOT_stimuli/rescaled_final/0596_fw.mp4	0.0	439.45756697654724	2.50039005279541
83	342.89301896095276	pulse	1	t		81.0	2.5	/experiments/knapen_AOT/AOT_stimuli/rescaled_final/0596_fw.mp4	0.0	440.64131593704224	
83	344.2096600532532	fix_post	2		12	81.0	2.5	/experiments/knapen_AOT/AOT_stimuli/rescaled_final/0596_fw.mp4	0.0	441.95795702934265	0.09999203681945801
84	344.30965209007263	fix_pre	0		120	82.0	2.5	/experiments/knapen_AOT/AOT_stimuli/rescaled_final/1217_fw.mp4	0.0	442.0579490661621	1.0001499652862549
84	344.4932670593262	pulse	0	t		82.0	2.5	/experiments/knapen_AOT/AOT_stimuli/rescaled_final/1217_fw.mp4	0.0	442.24156403541565	
84	345.3098020553589	movie	1		245	82.0	2.5	/experiments/knapen_AOT/AOT_stimuli/rescaled_final/1217_fw.mp4	0.0	443.05809903144836	2.5003879070281982
84	346.0934121608734	pulse	1	t		82.0	2.5	/experiments/knapen_AOT/AOT_stimuli/rescaled_final/1217_fw.mp4	0.0	443.8417091369629	
84	347.6864261627197	pulse	1	t		82.0	2.5	/experiments/knapen_AOT/AOT_stimuli/rescaled_final/1217_fw.mp4	0.0	445.4347231388092	
84	347.8101899623871	fix_post	2		12	82.0	2.5	/experiments/knapen_AOT/AOT_stimuli/rescaled_final/1217_fw.mp4	0.0	445.55848693847656	0.10001611709594727
85	347.91020607948303	fix_pre	0		120	83.0	2.5	blank	1.0	445.6585030555725	1.0001769065856934
85	348.9103829860687	movie	1		299	83.0	2.5	blank	1.0	446.6586799621582	2.492047071456909
85	349.2866690158844	pulse	1	t		83.0	2.5	blank	1.0	447.0349659919739	
85	350.88681411743164	pulse	1	t		83.0	2.5	blank	1.0	448.6351110935211	
85	351.40243005752563	fix_post	2		12	83.0	2.5	blank	1.0	449.1507270336151	0.09997987747192383
87	351.50240993499756	stim	0		1716					449.25070691108704	14.302269220352173
87	352.48710203170776	pulse	0	t						450.23539900779724	
87	354.08643198013306	pulse	0	t						451.83472895622253	
87	355.6865019798279	pulse	0	t						453.43479895591736	
87	357.2867350578308	pulse	0	t						455.0350320339203	
87	358.8869140148163	pulse	0	t						456.63521099090576	
87	360.4872260093689	pulse	0	t						458.2355229854584	
87	362.08754205703735	pulse	0	t						459.83583903312683	
87	363.687726020813	pulse	0	t						461.43602299690247	
87	365.287917137146	pulse	0	t						463.0362141132355	
