trial_nr	onset	event_type	phase	response	nr_frames	movie_index	movie_duration	movie_file	blank	onset_abs	duration
0	0.1999969482421875	stim	0		55					18.741719961166382	0.45832109451293945
0	0.6502928733825684	response	0	space						19.192015886306763	
1	0.658318042755127	stim	0		4249					19.20004105567932	35.42472696304321
1	36.07352685928345	pulse	0	t						54.61524987220764	
1	36.08304500579834	stim	1		1716					54.624768018722534	14.30767297744751
1	37.6639838218689	pulse	1	t						56.20570683479309	
1	39.26426982879639	pulse	1	t						57.80599284172058	
1	40.864415884017944	pulse	1	t						59.40613889694214	
1	42.4646999835968	pulse	1	t						61.006422996520996	
1	44.0649209022522	pulse	1	t						62.60664391517639	
1	45.66520690917969	pulse	1	t						64.20692992210388	
1	47.26532697677612	pulse	1	t						65.80704998970032	
1	48.8656280040741	pulse	1	t						67.40735101699829	
2	50.39071798324585	fix_pre	0		10	0.0	2.5	/experiments/knapen_AOT/AOT_stimuli/rescaled_final/0517_rv.mp4	0.0	68.93244099617004	0.08333396911621094
2	50.46590495109558	pulse	0	t		0.0	2.5	/experiments/knapen_AOT/AOT_stimuli/rescaled_final/0517_rv.mp4	0.0	69.00762796401978	
2	50.47405195236206	movie	1		243	0.0	2.5	/experiments/knapen_AOT/AOT_stimuli/rescaled_final/0517_rv.mp4	0.0	69.01577496528625	2.508686065673828
2	52.06761884689331	pulse	1	t		0.0	2.5	/experiments/knapen_AOT/AOT_stimuli/rescaled_final/0517_rv.mp4	0.0	70.6093418598175	
2	52.98273801803589	fix_post	2		12	0.0	2.5	/experiments/knapen_AOT/AOT_stimuli/rescaled_final/0517_rv.mp4	0.0	71.52446103096008	0.10003185272216797
3	53.08276987075806	fix_pre	0		120	1.0	2.5	/experiments/knapen_AOT/AOT_stimuli/rescaled_final/1630_rv.mp4	0.0	71.62449288368225	1.0002460479736328
3	53.666465044021606	pulse	0	t		1.0	2.5	/experiments/knapen_AOT/AOT_stimuli/rescaled_final/1630_rv.mp4	0.0	72.2081880569458	
3	54.08301591873169	movie	1		242	1.0	2.5	/experiments/knapen_AOT/AOT_stimuli/rescaled_final/1630_rv.mp4	0.0	72.62473893165588	2.500378131866455
3	55.26682782173157	pulse	1	t		1.0	2.5	/experiments/knapen_AOT/AOT_stimuli/rescaled_final/1630_rv.mp4	0.0	73.80855083465576	
3	56.583394050598145	fix_post	2		12	1.0	2.5	/experiments/knapen_AOT/AOT_stimuli/rescaled_final/1630_rv.mp4	0.0	75.12511706352234	0.09992098808288574
4	56.68331503868103	fix_pre	0		120	2.0	2.5	/experiments/knapen_AOT/AOT_stimuli/rescaled_final/1868_fw.mp4	0.0	75.22503805160522	1.0001850128173828
4	56.866848945617676	pulse	0	t		2.0	2.5	/experiments/knapen_AOT/AOT_stimuli/rescaled_final/1868_fw.mp4	0.0	75.40857195854187	
4	57.68350005149841	movie	1		243	2.0	2.5	/experiments/knapen_AOT/AOT_stimuli/rescaled_final/1868_fw.mp4	0.0	76.22522306442261	2.5004749298095703
4	58.46718692779541	pulse	1	t		2.0	2.5	/experiments/knapen_AOT/AOT_stimuli/rescaled_final/1868_fw.mp4	0.0	77.0089099407196	
4	60.0671648979187	pulse	1	t		2.0	2.5	/experiments/knapen_AOT/AOT_stimuli/rescaled_final/1868_fw.mp4	0.0	78.6088879108429	
4	60.18397498130798	fix_post	2		12	2.0	2.5	/experiments/knapen_AOT/AOT_stimuli/rescaled_final/1868_fw.mp4	0.0	78.72569799423218	0.09986186027526855
5	60.28383684158325	fix_pre	0		120	3.0	2.5	/experiments/knapen_AOT/AOT_stimuli/rescaled_final/1759_fw.mp4	0.0	78.82555985450745	1.0001862049102783
5	61.28402304649353	movie	1		242	3.0	2.5	/experiments/knapen_AOT/AOT_stimuli/rescaled_final/1759_fw.mp4	0.0	79.82574605941772	2.4920339584350586
5	61.66826796531677	pulse	1	t		3.0	2.5	/experiments/knapen_AOT/AOT_stimuli/rescaled_final/1759_fw.mp4	0.0	80.20999097824097	
5	63.267799854278564	pulse	1	t		3.0	2.5	/experiments/knapen_AOT/AOT_stimuli/rescaled_final/1759_fw.mp4	0.0	81.80952286720276	
5	63.77605700492859	fix_post	2		12	3.0	2.5	/experiments/knapen_AOT/AOT_stimuli/rescaled_final/1759_fw.mp4	0.0	82.31778001785278	0.10001492500305176
6	63.87607192993164	fix_pre	0		120	4.0	2.5	/experiments/knapen_AOT/AOT_stimuli/rescaled_final/0336_fw.mp4	0.0	82.41779494285583	1.0002210140228271
6	64.86815786361694	pulse	0	t		4.0	2.5	/experiments/knapen_AOT/AOT_stimuli/rescaled_final/0336_fw.mp4	0.0	83.40988087654114	
6	64.87629294395447	movie	1		243	4.0	2.5	/experiments/knapen_AOT/AOT_stimuli/rescaled_final/0336_fw.mp4	0.0	83.41801595687866	2.508626937866211
6	66.46886086463928	pulse	1	t		4.0	2.5	/experiments/knapen_AOT/AOT_stimuli/rescaled_final/0336_fw.mp4	0.0	85.01058387756348	
6	67.38491988182068	fix_post	2		12	4.0	2.5	/experiments/knapen_AOT/AOT_stimuli/rescaled_final/0336_fw.mp4	0.0	85.92664289474487	0.10005497932434082
7	67.48497486114502	fix_pre	0		120	5.0	2.5	blank	1.0	86.02669787406921	1.0001521110534668
7	68.06860589981079	pulse	0	t		5.0	2.5	blank	1.0	86.61032891273499	
7	68.48512697219849	movie	1		300	5.0	2.5	blank	1.0	87.02684998512268	2.500333070755005
7	69.66881799697876	pulse	1	t		5.0	2.5	blank	1.0	88.21054100990295	
7	70.98546004295349	fix_post	2		12	5.0	2.5	blank	1.0	89.52718305587769	0.10003399848937988
8	71.08549404144287	fix_pre	0		120	6.0	2.5	/experiments/knapen_AOT/AOT_stimuli/rescaled_final/1966_rv.mp4	0.0	89.62721705436707	1.0001189708709717
8	71.26906085014343	pulse	0	t		6.0	2.5	/experiments/knapen_AOT/AOT_stimuli/rescaled_final/1966_rv.mp4	0.0	89.81078386306763	
8	72.08561301231384	movie	1		242	6.0	2.5	/experiments/knapen_AOT/AOT_stimuli/rescaled_final/1966_rv.mp4	0.0	90.62733602523804	2.5005059242248535
8	72.86926603317261	pulse	1	t		6.0	2.5	/experiments/knapen_AOT/AOT_stimuli/rescaled_final/1966_rv.mp4	0.0	91.4109890460968	
8	74.46958899497986	pulse	1	t		6.0	2.5	/experiments/knapen_AOT/AOT_stimuli/rescaled_final/1966_rv.mp4	0.0	93.01131200790405	
8	74.5861189365387	fix_post	2		12	6.0	2.5	/experiments/knapen_AOT/AOT_stimuli/rescaled_final/1966_rv.mp4	0.0	93.12784194946289	0.09997391700744629
9	74.68609285354614	fix_pre	0		120	7.0	2.5	/experiments/knapen_AOT/AOT_stimuli/rescaled_final/0472_rv.mp4	0.0	93.22781586647034	1.000089168548584
9	75.68618202209473	movie	1		242	7.0	2.5	/experiments/knapen_AOT/AOT_stimuli/rescaled_final/0472_rv.mp4	0.0	94.22790503501892	2.4921388626098633
9	76.07044982910156	pulse	1	t		7.0	2.5	/experiments/knapen_AOT/AOT_stimuli/rescaled_final/0472_rv.mp4	0.0	94.61217284202576	
9	77.67003297805786	pulse	1	t		7.0	2.5	/experiments/knapen_AOT/AOT_stimuli/rescaled_final/0472_rv.mp4	0.0	96.21175599098206	
9	78.17832088470459	fix_post	2		12	7.0	2.5	/experiments/knapen_AOT/AOT_stimuli/rescaled_final/0472_rv.mp4	0.0	96.72004389762878	0.09988093376159668
10	78.27820181846619	fix_pre	0		120	8.0	2.5	/experiments/knapen_AOT/AOT_stimuli/rescaled_final/0813_rv.mp4	0.0	96.81992483139038	1.0001490116119385
10	79.27030396461487	pulse	0	t		8.0	2.5	/experiments/knapen_AOT/AOT_stimuli/rescaled_final/0813_rv.mp4	0.0	97.81202697753906	
10	79.27835083007812	movie	1		243	8.0	2.5	/experiments/knapen_AOT/AOT_stimuli/rescaled_final/0813_rv.mp4	0.0	97.82007384300232	2.508721113204956
10	80.87115597724915	pulse	1	t		8.0	2.5	/experiments/knapen_AOT/AOT_stimuli/rescaled_final/0813_rv.mp4	0.0	99.41287899017334	
10	81.78707194328308	fix_post	2		12	8.0	2.5	/experiments/knapen_AOT/AOT_stimuli/rescaled_final/0813_rv.mp4	0.0	100.32879495620728	0.10000896453857422
11	81.88708090782166	fix_pre	0		120	9.0	2.5	/experiments/knapen_AOT/AOT_stimuli/rescaled_final/1723_fw.mp4	0.0	100.42880392074585	1.0002310276031494
11	82.46332287788391	pulse	0	t		9.0	2.5	/experiments/knapen_AOT/AOT_stimuli/rescaled_final/1723_fw.mp4	0.0	101.0050458908081	
11	82.8873119354248	movie	1		242	9.0	2.5	/experiments/knapen_AOT/AOT_stimuli/rescaled_final/1723_fw.mp4	0.0	101.429034948349	2.5003490447998047
11	84.06701493263245	pulse	1	t		9.0	2.5	/experiments/knapen_AOT/AOT_stimuli/rescaled_final/1723_fw.mp4	0.0	102.60873794555664	
11	85.38766098022461	fix_post	2		12	9.0	2.5	/experiments/knapen_AOT/AOT_stimuli/rescaled_final/1723_fw.mp4	0.0	103.9293839931488	0.0999460220336914
12	85.4876070022583	fix_pre	0		120	10.0	2.5	/experiments/knapen_AOT/AOT_stimuli/rescaled_final/0907_fw.mp4	0.0	104.0293300151825	1.0001389980316162
12	85.6636118888855	pulse	0	t		10.0	2.5	/experiments/knapen_AOT/AOT_stimuli/rescaled_final/0907_fw.mp4	0.0	104.20533490180969	
12	86.48774600028992	movie	1		243	10.0	2.5	/experiments/knapen_AOT/AOT_stimuli/rescaled_final/0907_fw.mp4	0.0	105.02946901321411	2.500370979309082
12	87.26399803161621	pulse	1	t		10.0	2.5	/experiments/knapen_AOT/AOT_stimuli/rescaled_final/0907_fw.mp4	0.0	105.8057210445404	
12	88.8714988231659	pulse	1	t		10.0	2.5	/experiments/knapen_AOT/AOT_stimuli/rescaled_final/0907_fw.mp4	0.0	107.41322183609009	
12	88.988116979599	fix_post	2		12	10.0	2.5	/experiments/knapen_AOT/AOT_stimuli/rescaled_final/0907_fw.mp4	0.0	107.5298399925232	0.10004687309265137
13	89.08816385269165	fix_pre	0		120	11.0	2.5	/experiments/knapen_AOT/AOT_stimuli/rescaled_final/0206_rv.mp4	0.0	107.62988686561584	1.0001640319824219
13	90.08832788467407	movie	1		241	11.0	2.5	/experiments/knapen_AOT/AOT_stimuli/rescaled_final/0206_rv.mp4	0.0	108.63005089759827	2.492172956466675
13	90.4635899066925	pulse	1	t		11.0	2.5	/experiments/knapen_AOT/AOT_stimuli/rescaled_final/0206_rv.mp4	0.0	109.0053129196167	
13	92.0638039112091	pulse	1	t		11.0	2.5	/experiments/knapen_AOT/AOT_stimuli/rescaled_final/0206_rv.mp4	0.0	110.6055269241333	
13	92.58050084114075	fix_post	2		12	11.0	2.5	/experiments/knapen_AOT/AOT_stimuli/rescaled_final/0206_rv.mp4	0.0	111.12222385406494	0.09984707832336426
14	92.68034791946411	fix_pre	0		119	12.0	2.5	blank	1.0	111.2220709323883	0.9918739795684814
14	93.66399097442627	pulse	0	t		12.0	2.5	blank	1.0	112.20571398735046	
14	93.67222189903259	movie	1		301	12.0	2.5	blank	1.0	112.21394491195679	2.5086510181427
14	95.26431393623352	pulse	1	t		12.0	2.5	blank	1.0	113.80603694915771	
14	96.1808729171753	fix_post	2		12	12.0	2.5	blank	1.0	114.72259593009949	0.10003805160522461
15	96.28091096878052	fix_pre	0		120	13.0	2.5	/experiments/knapen_AOT/AOT_stimuli/rescaled_final/0472_rv.mp4	0.0	114.82263398170471	1.0001749992370605
15	96.86460995674133	pulse	0	t		13.0	2.5	/experiments/knapen_AOT/AOT_stimuli/rescaled_final/0472_rv.mp4	0.0	115.40633296966553	
15	97.28108596801758	movie	1		243	13.0	2.5	/experiments/knapen_AOT/AOT_stimuli/rescaled_final/0472_rv.mp4	0.0	115.82280898094177	2.5003888607025146
15	98.46482491493225	pulse	1	t		13.0	2.5	/experiments/knapen_AOT/AOT_stimuli/rescaled_final/0472_rv.mp4	0.0	117.00654792785645	
15	99.78147482872009	fix_post	2		12	13.0	2.5	/experiments/knapen_AOT/AOT_stimuli/rescaled_final/0472_rv.mp4	0.0	118.32319784164429	0.099945068359375
16	99.88141989707947	fix_pre	0		120	14.0	2.5	/experiments/knapen_AOT/AOT_stimuli/rescaled_final/1312_fw.mp4	0.0	118.42314291000366	1.000143051147461
16	100.06493592262268	pulse	0	t		14.0	2.5	/experiments/knapen_AOT/AOT_stimuli/rescaled_final/1312_fw.mp4	0.0	118.60665893554688	
16	100.88156294822693	movie	1		243	14.0	2.5	/experiments/knapen_AOT/AOT_stimuli/rescaled_final/1312_fw.mp4	0.0	119.42328596115112	2.5005550384521484
16	101.66522693634033	pulse	1	t		14.0	2.5	/experiments/knapen_AOT/AOT_stimuli/rescaled_final/1312_fw.mp4	0.0	120.20694994926453	
16	103.26527094841003	pulse	1	t		14.0	2.5	/experiments/knapen_AOT/AOT_stimuli/rescaled_final/1312_fw.mp4	0.0	121.80699396133423	
16	103.38211798667908	fix_post	2		12	14.0	2.5	/experiments/knapen_AOT/AOT_stimuli/rescaled_final/1312_fw.mp4	0.0	121.92384099960327	0.09984397888183594
17	103.48196196556091	fix_pre	0		119	15.0	2.5	/experiments/knapen_AOT/AOT_stimuli/rescaled_final/1886_rv.mp4	0.0	122.02368497848511	0.9917919635772705
17	104.47375392913818	movie	1		240	15.0	2.5	/experiments/knapen_AOT/AOT_stimuli/rescaled_final/1886_rv.mp4	0.0	123.01547694206238	2.500533103942871
17	104.86579489707947	pulse	1	t		15.0	2.5	/experiments/knapen_AOT/AOT_stimuli/rescaled_final/1886_rv.mp4	0.0	123.40751791000366	
17	106.46591997146606	pulse	1	t		15.0	2.5	/experiments/knapen_AOT/AOT_stimuli/rescaled_final/1886_rv.mp4	0.0	125.00764298439026	
17	106.97428703308105	fix_post	2		12	15.0	2.5	/experiments/knapen_AOT/AOT_stimuli/rescaled_final/1886_rv.mp4	0.0	125.51601004600525	0.09988689422607422
18	107.07417392730713	fix_pre	0		120	16.0	2.5	/experiments/knapen_AOT/AOT_stimuli/rescaled_final/1814_rv.mp4	0.0	125.61589694023132	1.0001459121704102
18	108.06614589691162	pulse	0	t		16.0	2.5	/experiments/knapen_AOT/AOT_stimuli/rescaled_final/1814_rv.mp4	0.0	126.60786890983582	
18	108.07431983947754	movie	1		244	16.0	2.5	/experiments/knapen_AOT/AOT_stimuli/rescaled_final/1814_rv.mp4	0.0	126.61604285240173	2.508702039718628
18	109.66696095466614	pulse	1	t		16.0	2.5	/experiments/knapen_AOT/AOT_stimuli/rescaled_final/1814_rv.mp4	0.0	128.20868396759033	
18	110.58302187919617	fix_post	2		12	16.0	2.5	/experiments/knapen_AOT/AOT_stimuli/rescaled_final/1814_rv.mp4	0.0	129.12474489212036	0.10005307197570801
19	110.68307495117188	fix_pre	0		120	17.0	2.5	/experiments/knapen_AOT/AOT_stimuli/rescaled_final/1757_fw.mp4	0.0	129.22479796409607	1.000169038772583
19	111.26671099662781	pulse	0	t		17.0	2.5	/experiments/knapen_AOT/AOT_stimuli/rescaled_final/1757_fw.mp4	0.0	129.808434009552	
19	111.68324398994446	movie	1		242	17.0	2.5	/experiments/knapen_AOT/AOT_stimuli/rescaled_final/1757_fw.mp4	0.0	130.22496700286865	2.500432014465332
19	112.86694192886353	pulse	1	t		17.0	2.5	/experiments/knapen_AOT/AOT_stimuli/rescaled_final/1757_fw.mp4	0.0	131.40866494178772	
19	114.18367600440979	fix_post	2		12	17.0	2.5	/experiments/knapen_AOT/AOT_stimuli/rescaled_final/1757_fw.mp4	0.0	132.72539901733398	0.09993600845336914
20	114.28361201286316	fix_pre	0		120	18.0	2.5	/experiments/knapen_AOT/AOT_stimuli/rescaled_final/1763_fw.mp4	0.0	132.82533502578735	1.0001099109649658
20	114.46714496612549	pulse	0	t		18.0	2.5	/experiments/knapen_AOT/AOT_stimuli/rescaled_final/1763_fw.mp4	0.0	133.00886797904968	
20	115.28372192382812	movie	1		242	18.0	2.5	/experiments/knapen_AOT/AOT_stimuli/rescaled_final/1763_fw.mp4	0.0	133.82544493675232	2.5004711151123047
20	116.06734585762024	pulse	1	t		18.0	2.5	/experiments/knapen_AOT/AOT_stimuli/rescaled_final/1763_fw.mp4	0.0	134.60906887054443	
20	117.66813087463379	pulse	1	t		18.0	2.5	/experiments/knapen_AOT/AOT_stimuli/rescaled_final/1763_fw.mp4	0.0	136.20985388755798	
20	117.78419303894043	fix_post	2		12	18.0	2.5	/experiments/knapen_AOT/AOT_stimuli/rescaled_final/1763_fw.mp4	0.0	136.32591605186462	0.09988999366760254
21	117.88408303260803	fix_pre	0		120	19.0	2.5	/experiments/knapen_AOT/AOT_stimuli/rescaled_final/1094_rv.mp4	0.0	136.42580604553223	1.0001659393310547
21	118.88424897193909	movie	1		241	19.0	2.5	/experiments/knapen_AOT/AOT_stimuli/rescaled_final/1094_rv.mp4	0.0	137.42597198486328	2.492121934890747
21	119.27248787879944	pulse	1	t		19.0	2.5	/experiments/knapen_AOT/AOT_stimuli/rescaled_final/1094_rv.mp4	0.0	137.81421089172363	
21	120.86825704574585	pulse	1	t		19.0	2.5	/experiments/knapen_AOT/AOT_stimuli/rescaled_final/1094_rv.mp4	0.0	139.40998005867004	
21	121.37637090682983	fix_post	2		12	19.0	2.5	/experiments/knapen_AOT/AOT_stimuli/rescaled_final/1094_rv.mp4	0.0	139.91809391975403	0.09996294975280762
22	121.47633385658264	fix_pre	0		120	20.0	2.5	/experiments/knapen_AOT/AOT_stimuli/rescaled_final/2001_fw.mp4	0.0	140.01805686950684	1.0001811981201172
22	122.4682788848877	pulse	0	t		20.0	2.5	/experiments/knapen_AOT/AOT_stimuli/rescaled_final/2001_fw.mp4	0.0	141.0100018978119	
22	122.47651505470276	movie	1		244	20.0	2.5	/experiments/knapen_AOT/AOT_stimuli/rescaled_final/2001_fw.mp4	0.0	141.01823806762695	2.5086119174957275
22	124.06910300254822	pulse	1	t		20.0	2.5	/experiments/knapen_AOT/AOT_stimuli/rescaled_final/2001_fw.mp4	0.0	142.6108260154724	
22	124.98512697219849	fix_post	2		12	20.0	2.5	/experiments/knapen_AOT/AOT_stimuli/rescaled_final/2001_fw.mp4	0.0	143.52684998512268	0.1000518798828125
23	125.0851788520813	fix_pre	0		120	21.0	2.5	blank	1.0	143.6269018650055	1.000133991241455
23	125.66887998580933	pulse	0	t		21.0	2.5	blank	1.0	144.21060299873352	
23	126.08531284332275	movie	1		300	21.0	2.5	blank	1.0	144.62703585624695	2.5003960132598877
23	127.26906704902649	pulse	1	t		21.0	2.5	blank	1.0	145.81079006195068	
23	128.58570885658264	fix_post	2		12	21.0	2.5	blank	1.0	147.12743186950684	0.10005307197570801
24	128.68576192855835	fix_pre	0		120	22.0	2.5	/experiments/knapen_AOT/AOT_stimuli/rescaled_final/1216_rv.mp4	0.0	147.22748494148254	1.0001089572906494
24	128.8692970275879	pulse	0	t		22.0	2.5	/experiments/knapen_AOT/AOT_stimuli/rescaled_final/1216_rv.mp4	0.0	147.41102004051208	
24	129.685870885849	movie	1		242	22.0	2.5	/experiments/knapen_AOT/AOT_stimuli/rescaled_final/1216_rv.mp4	0.0	148.2275938987732	2.5004730224609375
24	130.46953988075256	pulse	1	t		22.0	2.5	/experiments/knapen_AOT/AOT_stimuli/rescaled_final/1216_rv.mp4	0.0	149.01126289367676	
24	132.06979298591614	pulse	1	t		22.0	2.5	/experiments/knapen_AOT/AOT_stimuli/rescaled_final/1216_rv.mp4	0.0	150.61151599884033	
24	132.18634390830994	fix_post	2		12	22.0	2.5	/experiments/knapen_AOT/AOT_stimuli/rescaled_final/1216_rv.mp4	0.0	150.72806692123413	0.09989500045776367
25	132.2862389087677	fix_pre	0		119	23.0	2.5	/experiments/knapen_AOT/AOT_stimuli/rescaled_final/0529_fw.mp4	0.0	150.8279619216919	0.9918570518493652
25	133.27809596061707	movie	1		242	23.0	2.5	/experiments/knapen_AOT/AOT_stimuli/rescaled_final/0529_fw.mp4	0.0	151.81981897354126	2.50046706199646
25	133.67004489898682	pulse	1	t		23.0	2.5	/experiments/knapen_AOT/AOT_stimuli/rescaled_final/0529_fw.mp4	0.0	152.211767911911	
25	135.27032685279846	pulse	1	t		23.0	2.5	/experiments/knapen_AOT/AOT_stimuli/rescaled_final/0529_fw.mp4	0.0	153.81204986572266	
25	135.77856302261353	fix_post	2		12	23.0	2.5	/experiments/knapen_AOT/AOT_stimuli/rescaled_final/0529_fw.mp4	0.0	154.32028603553772	0.09991097450256348
26	135.8784739971161	fix_pre	0		120	24.0	2.5	/experiments/knapen_AOT/AOT_stimuli/rescaled_final/0545_fw.mp4	0.0	154.42019701004028	1.0001938343048096
26	136.86311197280884	pulse	0	t		24.0	2.5	/experiments/knapen_AOT/AOT_stimuli/rescaled_final/0545_fw.mp4	0.0	155.40483498573303	
26	136.8786678314209	movie	1		244	24.0	2.5	/experiments/knapen_AOT/AOT_stimuli/rescaled_final/0545_fw.mp4	0.0	155.4203908443451	2.5086262226104736
26	138.47138285636902	pulse	1	t		24.0	2.5	/experiments/knapen_AOT/AOT_stimuli/rescaled_final/0545_fw.mp4	0.0	157.0131058692932	
26	139.38729405403137	fix_post	2		12	24.0	2.5	/experiments/knapen_AOT/AOT_stimuli/rescaled_final/0545_fw.mp4	0.0	157.92901706695557	0.10002279281616211
27	139.48731684684753	fix_pre	0		120	25.0	2.5	/experiments/knapen_AOT/AOT_stimuli/rescaled_final/0136_rv.mp4	0.0	158.02903985977173	1.0001931190490723
27	140.06340098381042	pulse	0	t		25.0	2.5	/experiments/knapen_AOT/AOT_stimuli/rescaled_final/0136_rv.mp4	0.0	158.60512399673462	
27	140.4875099658966	movie	1		242	25.0	2.5	/experiments/knapen_AOT/AOT_stimuli/rescaled_final/0136_rv.mp4	0.0	159.0292329788208	2.500558853149414
27	141.6635458469391	pulse	1	t		25.0	2.5	/experiments/knapen_AOT/AOT_stimuli/rescaled_final/0136_rv.mp4	0.0	160.20526885986328	
27	142.98806881904602	fix_post	2		12	25.0	2.5	/experiments/knapen_AOT/AOT_stimuli/rescaled_final/0136_rv.mp4	0.0	161.52979183197021	0.09980511665344238
28	143.08787393569946	fix_pre	0		120	26.0	2.5	/experiments/knapen_AOT/AOT_stimuli/rescaled_final/0934_fw.mp4	0.0	161.62959694862366	1.0001420974731445
28	143.2631390094757	pulse	0	t		26.0	2.5	/experiments/knapen_AOT/AOT_stimuli/rescaled_final/0934_fw.mp4	0.0	161.8048620223999	
28	144.0880160331726	movie	1		242	26.0	2.5	/experiments/knapen_AOT/AOT_stimuli/rescaled_final/0934_fw.mp4	0.0	162.6297390460968	2.500513792037964
28	144.8632709980011	pulse	1	t		26.0	2.5	/experiments/knapen_AOT/AOT_stimuli/rescaled_final/0934_fw.mp4	0.0	163.4049940109253	
28	146.46355891227722	pulse	1	t		26.0	2.5	/experiments/knapen_AOT/AOT_stimuli/rescaled_final/0934_fw.mp4	0.0	165.00528192520142	
28	146.58852982521057	fix_post	2		11	26.0	2.5	/experiments/knapen_AOT/AOT_stimuli/rescaled_final/0934_fw.mp4	0.0	165.13025283813477	0.09163212776184082
29	146.6801619529724	fix_pre	0		120	27.0	2.5	/experiments/knapen_AOT/AOT_stimuli/rescaled_final/0764_fw.mp4	0.0	165.2218849658966	1.0000720024108887
29	147.6802339553833	movie	1		244	27.0	2.5	/experiments/knapen_AOT/AOT_stimuli/rescaled_final/0764_fw.mp4	0.0	166.2219569683075	2.5003509521484375
29	148.06527495384216	pulse	1	t		27.0	2.5	/experiments/knapen_AOT/AOT_stimuli/rescaled_final/0764_fw.mp4	0.0	166.60699796676636	
29	149.6640989780426	pulse	1	t		27.0	2.5	/experiments/knapen_AOT/AOT_stimuli/rescaled_final/0764_fw.mp4	0.0	168.2058219909668	
29	150.18058490753174	fix_post	2		12	27.0	2.5	/experiments/knapen_AOT/AOT_stimuli/rescaled_final/0764_fw.mp4	0.0	168.72230792045593	0.10003995895385742
30	150.2806248664856	fix_pre	0		119	28.0	2.5	blank	1.0	168.8223478794098	0.9917981624603271
30	151.26439785957336	pulse	0	t		28.0	2.5	blank	1.0	169.80612087249756	
30	151.27242302894592	movie	1		301	28.0	2.5	blank	1.0	169.81414604187012	2.5087039470672607
30	152.86449790000916	pulse	1	t		28.0	2.5	blank	1.0	171.40622091293335	
30	153.78112697601318	fix_post	2		12	28.0	2.5	blank	1.0	172.32284998893738	0.10006594657897949
31	153.88119292259216	fix_pre	0		120	29.0	2.5	/experiments/knapen_AOT/AOT_stimuli/rescaled_final/1701_fw.mp4	0.0	172.42291593551636	1.0000979900360107
31	154.46473789215088	pulse	0	t		29.0	2.5	/experiments/knapen_AOT/AOT_stimuli/rescaled_final/1701_fw.mp4	0.0	173.00646090507507	
31	154.88129091262817	movie	1		243	29.0	2.5	/experiments/knapen_AOT/AOT_stimuli/rescaled_final/1701_fw.mp4	0.0	173.42301392555237	2.5004279613494873
31	156.0650599002838	pulse	1	t		29.0	2.5	/experiments/knapen_AOT/AOT_stimuli/rescaled_final/1701_fw.mp4	0.0	174.606782913208	
31	157.38171887397766	fix_post	2		12	29.0	2.5	/experiments/knapen_AOT/AOT_stimuli/rescaled_final/1701_fw.mp4	0.0	175.92344188690186	0.09998416900634766
32	157.481703042984	fix_pre	0		120	30.0	2.5	/experiments/knapen_AOT/AOT_stimuli/rescaled_final/1538_rv.mp4	0.0	176.0234260559082	1.0001277923583984
32	157.66535091400146	pulse	0	t		30.0	2.5	/experiments/knapen_AOT/AOT_stimuli/rescaled_final/1538_rv.mp4	0.0	176.20707392692566	
32	158.4818308353424	movie	1		242	30.0	2.5	/experiments/knapen_AOT/AOT_stimuli/rescaled_final/1538_rv.mp4	0.0	177.0235538482666	2.500502109527588
32	159.26554894447327	pulse	1	t		30.0	2.5	/experiments/knapen_AOT/AOT_stimuli/rescaled_final/1538_rv.mp4	0.0	177.80727195739746	
32	160.8657820224762	pulse	1	t		30.0	2.5	/experiments/knapen_AOT/AOT_stimuli/rescaled_final/1538_rv.mp4	0.0	179.4075050354004	
32	160.98233294487	fix_post	2		12	30.0	2.5	/experiments/knapen_AOT/AOT_stimuli/rescaled_final/1538_rv.mp4	0.0	179.5240559577942	0.09989309310913086
33	161.08222603797913	fix_pre	0		120	31.0	2.5	/experiments/knapen_AOT/AOT_stimuli/rescaled_final/1783_rv.mp4	0.0	179.62394905090332	1.0001838207244873
33	162.0824098587036	movie	1		241	31.0	2.5	/experiments/knapen_AOT/AOT_stimuli/rescaled_final/1783_rv.mp4	0.0	180.6241328716278	2.4921071529388428
33	162.47068691253662	pulse	1	t		31.0	2.5	/experiments/knapen_AOT/AOT_stimuli/rescaled_final/1783_rv.mp4	0.0	181.01240992546082	
33	164.06631994247437	pulse	1	t		31.0	2.5	/experiments/knapen_AOT/AOT_stimuli/rescaled_final/1783_rv.mp4	0.0	182.60804295539856	
33	164.57451701164246	fix_post	2		12	31.0	2.5	/experiments/knapen_AOT/AOT_stimuli/rescaled_final/1783_rv.mp4	0.0	183.11624002456665	0.09993886947631836
34	164.67445588111877	fix_pre	0		120	32.0	2.5	/experiments/knapen_AOT/AOT_stimuli/rescaled_final/1083_rv.mp4	0.0	183.21617889404297	1.0001230239868164
34	165.66653394699097	pulse	0	t		32.0	2.5	/experiments/knapen_AOT/AOT_stimuli/rescaled_final/1083_rv.mp4	0.0	184.20825695991516	
34	165.6745789051056	movie	1		244	32.0	2.5	/experiments/knapen_AOT/AOT_stimuli/rescaled_final/1083_rv.mp4	0.0	184.21630191802979	2.508707046508789
34	167.26799988746643	pulse	1	t		32.0	2.5	/experiments/knapen_AOT/AOT_stimuli/rescaled_final/1083_rv.mp4	0.0	185.80972290039062	
34	168.18328595161438	fix_post	2		12	32.0	2.5	/experiments/knapen_AOT/AOT_stimuli/rescaled_final/1083_rv.mp4	0.0	186.72500896453857	0.09999895095825195
35	168.28328490257263	fix_pre	0		117	33.0	2.5	blank	1.0	186.82500791549683	1.0002000331878662
35	168.86687397956848	pulse	0	t		33.0	2.5	blank	1.0	187.40859699249268	
35	169.2834849357605	movie	1		300	33.0	2.5	blank	1.0	187.8252079486847	2.5003559589385986
35	170.46722888946533	pulse	1	t		33.0	2.5	blank	1.0	189.00895190238953	
35	171.7838408946991	fix_post	2		12	33.0	2.5	blank	1.0	190.3255639076233	0.10001707077026367
36	171.88385796546936	fix_pre	0		120	34.0	2.5	/experiments/knapen_AOT/AOT_stimuli/rescaled_final/2167_fw.mp4	0.0	190.42558097839355	1.0001239776611328
36	172.06746888160706	pulse	0	t		34.0	2.5	/experiments/knapen_AOT/AOT_stimuli/rescaled_final/2167_fw.mp4	0.0	190.60919189453125	
36	172.8839819431305	movie	1		242	34.0	2.5	/experiments/knapen_AOT/AOT_stimuli/rescaled_final/2167_fw.mp4	0.0	191.4257049560547	2.500580072402954
36	173.6677279472351	pulse	1	t		34.0	2.5	/experiments/knapen_AOT/AOT_stimuli/rescaled_final/2167_fw.mp4	0.0	192.2094509601593	
36	175.26797699928284	pulse	1	t		34.0	2.5	/experiments/knapen_AOT/AOT_stimuli/rescaled_final/2167_fw.mp4	0.0	193.80970001220703	
36	175.38456201553345	fix_post	2		12	34.0	2.5	/experiments/knapen_AOT/AOT_stimuli/rescaled_final/2167_fw.mp4	0.0	193.92628502845764	0.09987282752990723
37	175.48443484306335	fix_pre	0		120	35.0	2.5	/experiments/knapen_AOT/AOT_stimuli/rescaled_final/1924_rv.mp4	0.0	194.02615785598755	1.0000910758972168
37	176.48452591896057	movie	1		242	35.0	2.5	/experiments/knapen_AOT/AOT_stimuli/rescaled_final/1924_rv.mp4	0.0	195.02624893188477	2.492094039916992
37	176.86861896514893	pulse	1	t		35.0	2.5	/experiments/knapen_AOT/AOT_stimuli/rescaled_final/1924_rv.mp4	0.0	195.41034197807312	
37	178.46849083900452	pulse	1	t		35.0	2.5	/experiments/knapen_AOT/AOT_stimuli/rescaled_final/1924_rv.mp4	0.0	197.0102138519287	
37	178.97661995887756	fix_post	2		12	35.0	2.5	/experiments/knapen_AOT/AOT_stimuli/rescaled_final/1924_rv.mp4	0.0	197.51834297180176	0.09995198249816895
38	179.07657194137573	fix_pre	0		120	36.0	2.5	/experiments/knapen_AOT/AOT_stimuli/rescaled_final/1744_fw.mp4	0.0	197.61829495429993	1.0001590251922607
38	180.0686650276184	pulse	0	t		36.0	2.5	/experiments/knapen_AOT/AOT_stimuli/rescaled_final/1744_fw.mp4	0.0	198.6103880405426	
38	180.076730966568	movie	1		243	36.0	2.5	/experiments/knapen_AOT/AOT_stimuli/rescaled_final/1744_fw.mp4	0.0	198.6184539794922	2.5087220668792725
38	181.67011189460754	pulse	1	t		36.0	2.5	/experiments/knapen_AOT/AOT_stimuli/rescaled_final/1744_fw.mp4	0.0	200.21183490753174	
38	182.58545303344727	fix_post	2		12	36.0	2.5	/experiments/knapen_AOT/AOT_stimuli/rescaled_final/1744_fw.mp4	0.0	201.12717604637146	0.10001587867736816
39	182.68546891212463	fix_pre	0		120	37.0	2.5	/experiments/knapen_AOT/AOT_stimuli/rescaled_final/2050_fw.mp4	0.0	201.22719192504883	1.0001420974731445
39	183.26905798912048	pulse	0	t		37.0	2.5	/experiments/knapen_AOT/AOT_stimuli/rescaled_final/2050_fw.mp4	0.0	201.81078100204468	
39	183.68561100959778	movie	1		242	37.0	2.5	/experiments/knapen_AOT/AOT_stimuli/rescaled_final/2050_fw.mp4	0.0	202.22733402252197	2.5005040168762207
39	184.86943984031677	pulse	1	t		37.0	2.5	/experiments/knapen_AOT/AOT_stimuli/rescaled_final/2050_fw.mp4	0.0	203.41116285324097	
39	186.186115026474	fix_post	2		12	37.0	2.5	/experiments/knapen_AOT/AOT_stimuli/rescaled_final/2050_fw.mp4	0.0	204.7278380393982	0.09986495971679688
40	186.2859799861908	fix_pre	0		120	38.0	2.5	/experiments/knapen_AOT/AOT_stimuli/rescaled_final/0165_rv.mp4	0.0	204.827702999115	1.0001628398895264
40	186.46955704689026	pulse	0	t		38.0	2.5	/experiments/knapen_AOT/AOT_stimuli/rescaled_final/0165_rv.mp4	0.0	205.01128005981445	
40	187.28614282608032	movie	1		242	38.0	2.5	/experiments/knapen_AOT/AOT_stimuli/rescaled_final/0165_rv.mp4	0.0	205.82786583900452	2.5005111694335938
40	188.06983494758606	pulse	1	t		38.0	2.5	/experiments/knapen_AOT/AOT_stimuli/rescaled_final/0165_rv.mp4	0.0	206.61155796051025	
40	189.67051696777344	pulse	1	t		38.0	2.5	/experiments/knapen_AOT/AOT_stimuli/rescaled_final/0165_rv.mp4	0.0	208.21223998069763	
40	189.78665399551392	fix_post	2		12	38.0	2.5	/experiments/knapen_AOT/AOT_stimuli/rescaled_final/0165_rv.mp4	0.0	208.3283770084381	0.0998530387878418
41	189.88650703430176	fix_pre	0		120	39.0	2.5	/experiments/knapen_AOT/AOT_stimuli/rescaled_final/1788_fw.mp4	0.0	208.42823004722595	1.0001578330993652
41	190.88666486740112	movie	1		241	39.0	2.5	/experiments/knapen_AOT/AOT_stimuli/rescaled_final/1788_fw.mp4	0.0	209.42838788032532	2.4921021461486816
41	191.2708568572998	pulse	1	t		39.0	2.5	/experiments/knapen_AOT/AOT_stimuli/rescaled_final/1788_fw.mp4	0.0	209.812579870224	
41	192.87055802345276	pulse	1	t		39.0	2.5	/experiments/knapen_AOT/AOT_stimuli/rescaled_final/1788_fw.mp4	0.0	211.41228103637695	
41	193.3787670135498	fix_post	2		12	39.0	2.5	/experiments/knapen_AOT/AOT_stimuli/rescaled_final/1788_fw.mp4	0.0	211.920490026474	0.0999748706817627
42	193.47874188423157	fix_pre	0		120	40.0	2.5	/experiments/knapen_AOT/AOT_stimuli/rescaled_final/1848_fw.mp4	0.0	212.02046489715576	1.0001280307769775
42	194.47075605392456	pulse	0	t		40.0	2.5	/experiments/knapen_AOT/AOT_stimuli/rescaled_final/1848_fw.mp4	0.0	213.01247906684875	
42	194.47886991500854	movie	1		243	40.0	2.5	/experiments/knapen_AOT/AOT_stimuli/rescaled_final/1848_fw.mp4	0.0	213.02059292793274	2.508692979812622
42	196.0715138912201	pulse	1	t		40.0	2.5	/experiments/knapen_AOT/AOT_stimuli/rescaled_final/1848_fw.mp4	0.0	214.6132369041443	
42	196.98756289482117	fix_post	2		12	40.0	2.5	/experiments/knapen_AOT/AOT_stimuli/rescaled_final/1848_fw.mp4	0.0	215.52928590774536	0.10004997253417969
43	197.08761286735535	fix_pre	0		120	41.0	2.5	blank	1.0	215.62933588027954	1.000136137008667
43	197.6629400253296	pulse	0	t		41.0	2.5	blank	1.0	216.20466303825378	
43	198.087749004364	movie	1		300	41.0	2.5	blank	1.0	216.6294720172882	2.500380039215088
43	199.26304697990417	pulse	1	t		41.0	2.5	blank	1.0	217.80476999282837	
43	200.5881290435791	fix_post	2		12	41.0	2.5	blank	1.0	219.1298520565033	0.10008597373962402
44	200.68821501731873	fix_pre	0		120	42.0	2.5	/experiments/knapen_AOT/AOT_stimuli/rescaled_final/1020_fw.mp4	0.0	219.22993803024292	1.000128984451294
44	200.86335682868958	pulse	0	t		42.0	2.5	/experiments/knapen_AOT/AOT_stimuli/rescaled_final/1020_fw.mp4	0.0	219.40507984161377	
44	201.68834400177002	movie	1		244	42.0	2.5	/experiments/knapen_AOT/AOT_stimuli/rescaled_final/1020_fw.mp4	0.0	220.2300670146942	2.5003039836883545
44	202.46360802650452	pulse	1	t		42.0	2.5	/experiments/knapen_AOT/AOT_stimuli/rescaled_final/1020_fw.mp4	0.0	221.0053310394287	
44	204.06380200386047	pulse	1	t		42.0	2.5	/experiments/knapen_AOT/AOT_stimuli/rescaled_final/1020_fw.mp4	0.0	222.60552501678467	
44	204.18864798545837	fix_post	2		12	42.0	2.5	/experiments/knapen_AOT/AOT_stimuli/rescaled_final/1020_fw.mp4	0.0	222.73037099838257	0.10001897811889648
45	204.28866696357727	fix_pre	0		120	43.0	2.5	/experiments/knapen_AOT/AOT_stimuli/rescaled_final/2068_rv.mp4	0.0	222.83038997650146	1.0001330375671387
45	205.2888000011444	movie	1		242	43.0	2.5	/experiments/knapen_AOT/AOT_stimuli/rescaled_final/2068_rv.mp4	0.0	223.8305230140686	2.4920480251312256
45	205.66405582427979	pulse	1	t		43.0	2.5	/experiments/knapen_AOT/AOT_stimuli/rescaled_final/2068_rv.mp4	0.0	224.20577883720398	
45	207.26433396339417	pulse	1	t		43.0	2.5	/experiments/knapen_AOT/AOT_stimuli/rescaled_final/2068_rv.mp4	0.0	225.80605697631836	
45	207.78084802627563	fix_post	2		12	43.0	2.5	/experiments/knapen_AOT/AOT_stimuli/rescaled_final/2068_rv.mp4	0.0	226.32257103919983	0.10010886192321777
46	207.88095688819885	fix_pre	0		119	44.0	2.5	/experiments/knapen_AOT/AOT_stimuli/rescaled_final/1763_rv.mp4	0.0	226.42267990112305	0.9917221069335938
46	208.86457300186157	pulse	0	t		44.0	2.5	/experiments/knapen_AOT/AOT_stimuli/rescaled_final/1763_rv.mp4	0.0	227.40629601478577	
46	208.87267899513245	movie	1		243	44.0	2.5	/experiments/knapen_AOT/AOT_stimuli/rescaled_final/1763_rv.mp4	0.0	227.41440200805664	2.5087149143218994
46	210.4653549194336	pulse	1	t		44.0	2.5	/experiments/knapen_AOT/AOT_stimuli/rescaled_final/1763_rv.mp4	0.0	229.0070779323578	
46	211.38139390945435	fix_post	2		12	44.0	2.5	/experiments/knapen_AOT/AOT_stimuli/rescaled_final/1763_rv.mp4	0.0	229.92311692237854	0.10007691383361816
47	211.48147082328796	fix_pre	0		120	45.0	2.5	/experiments/knapen_AOT/AOT_stimuli/rescaled_final/1964_rv.mp4	0.0	230.02319383621216	1.0001389980316162
47	212.06497287750244	pulse	0	t		45.0	2.5	/experiments/knapen_AOT/AOT_stimuli/rescaled_final/1964_rv.mp4	0.0	230.60669589042664	
47	212.48160982131958	movie	1		243	45.0	2.5	/experiments/knapen_AOT/AOT_stimuli/rescaled_final/1964_rv.mp4	0.0	231.02333283424377	2.500425100326538
47	213.66526889801025	pulse	1	t		45.0	2.5	/experiments/knapen_AOT/AOT_stimuli/rescaled_final/1964_rv.mp4	0.0	232.20699191093445	
47	214.98203492164612	fix_post	2		12	45.0	2.5	/experiments/knapen_AOT/AOT_stimuli/rescaled_final/1964_rv.mp4	0.0	233.5237579345703	0.10001897811889648
48	215.08205389976501	fix_pre	0		120	46.0	2.5	/experiments/knapen_AOT/AOT_stimuli/rescaled_final/0569_fw.mp4	0.0	233.6237769126892	1.0000720024108887
48	215.2655370235443	pulse	0	t		46.0	2.5	/experiments/knapen_AOT/AOT_stimuli/rescaled_final/0569_fw.mp4	0.0	233.8072600364685	
48	216.0821259021759	movie	1		243	46.0	2.5	/experiments/knapen_AOT/AOT_stimuli/rescaled_final/0569_fw.mp4	0.0	234.6238489151001	2.500352144241333
48	216.8657510280609	pulse	1	t		46.0	2.5	/experiments/knapen_AOT/AOT_stimuli/rescaled_final/0569_fw.mp4	0.0	235.4074740409851	
48	218.46608901023865	pulse	1	t		46.0	2.5	/experiments/knapen_AOT/AOT_stimuli/rescaled_final/0569_fw.mp4	0.0	237.00781202316284	
48	218.58247804641724	fix_post	2		12	46.0	2.5	/experiments/knapen_AOT/AOT_stimuli/rescaled_final/0569_fw.mp4	0.0	237.12420105934143	0.10002493858337402
49	218.6825029850006	fix_pre	0		120	47.0	2.5	/experiments/knapen_AOT/AOT_stimuli/rescaled_final/1094_fw.mp4	0.0	237.2242259979248	1.0001318454742432
49	219.68263483047485	movie	1		241	47.0	2.5	/experiments/knapen_AOT/AOT_stimuli/rescaled_final/1094_fw.mp4	0.0	238.22435784339905	2.4920852184295654
49	220.06736302375793	pulse	1	t		47.0	2.5	/experiments/knapen_AOT/AOT_stimuli/rescaled_final/1094_fw.mp4	0.0	238.60908603668213	
49	221.6664319038391	pulse	1	t		47.0	2.5	/experiments/knapen_AOT/AOT_stimuli/rescaled_final/1094_fw.mp4	0.0	240.2081549167633	
49	222.17472004890442	fix_post	2		12	47.0	2.5	/experiments/knapen_AOT/AOT_stimuli/rescaled_final/1094_fw.mp4	0.0	240.7164430618286	0.09996986389160156
50	222.27468991279602	fix_pre	0		120	48.0	2.5	/experiments/knapen_AOT/AOT_stimuli/rescaled_final/1829_fw.mp4	0.0	240.81641292572021	1.0001840591430664
50	223.2666609287262	pulse	0	t		48.0	2.5	/experiments/knapen_AOT/AOT_stimuli/rescaled_final/1829_fw.mp4	0.0	241.8083839416504	
50	223.2748739719391	movie	1		245	48.0	2.5	/experiments/knapen_AOT/AOT_stimuli/rescaled_final/1829_fw.mp4	0.0	241.81659698486328	2.5086569786071777
50	224.86751699447632	pulse	1	t		48.0	2.5	/experiments/knapen_AOT/AOT_stimuli/rescaled_final/1829_fw.mp4	0.0	243.4092400074005	
50	225.78353095054626	fix_post	2		12	48.0	2.5	/experiments/knapen_AOT/AOT_stimuli/rescaled_final/1829_fw.mp4	0.0	244.32525396347046	0.10004901885986328
51	225.88357996940613	fix_pre	0		120	49.0	2.5	blank	1.0	244.42530298233032	1.0001258850097656
51	226.4671778678894	pulse	0	t		49.0	2.5	blank	1.0	245.0089008808136	
51	226.8837058544159	movie	1		300	49.0	2.5	blank	1.0	245.4254288673401	2.50040602684021
51	228.0674159526825	pulse	1	t		49.0	2.5	blank	1.0	246.6091389656067	
51	229.3841118812561	fix_post	2		12	49.0	2.5	blank	1.0	247.9258348941803	0.09999608993530273
52	229.4841079711914	fix_pre	0		120	50.0	2.5	/experiments/knapen_AOT/AOT_stimuli/rescaled_final/1256_rv.mp4	0.0	248.0258309841156	1.0001049041748047
52	229.66769003868103	pulse	0	t		50.0	2.5	/experiments/knapen_AOT/AOT_stimuli/rescaled_final/1256_rv.mp4	0.0	248.20941305160522	
52	230.4842128753662	movie	1		240	50.0	2.5	/experiments/knapen_AOT/AOT_stimuli/rescaled_final/1256_rv.mp4	0.0	249.0259358882904	2.500396966934204
52	231.2678828239441	pulse	1	t		50.0	2.5	/experiments/knapen_AOT/AOT_stimuli/rescaled_final/1256_rv.mp4	0.0	249.8096058368683	
52	232.8680670261383	pulse	1	t		50.0	2.5	/experiments/knapen_AOT/AOT_stimuli/rescaled_final/1256_rv.mp4	0.0	251.4097900390625	
52	232.98460984230042	fix_post	2		12	50.0	2.5	/experiments/knapen_AOT/AOT_stimuli/rescaled_final/1256_rv.mp4	0.0	251.5263328552246	0.10001897811889648
53	233.0846288204193	fix_pre	0		120	51.0	2.5	/experiments/knapen_AOT/AOT_stimuli/rescaled_final/1972_fw.mp4	0.0	251.6263518333435	1.0001680850982666
53	234.08479690551758	movie	1		243	51.0	2.5	/experiments/knapen_AOT/AOT_stimuli/rescaled_final/1972_fw.mp4	0.0	252.62651991844177	2.4920201301574707
53	234.46911001205444	pulse	1	t		51.0	2.5	/experiments/knapen_AOT/AOT_stimuli/rescaled_final/1972_fw.mp4	0.0	253.01083302497864	
53	236.06861686706543	pulse	1	t		51.0	2.5	/experiments/knapen_AOT/AOT_stimuli/rescaled_final/1972_fw.mp4	0.0	254.61033987998962	
53	236.57681703567505	fix_post	2		12	51.0	2.5	/experiments/knapen_AOT/AOT_stimuli/rescaled_final/1972_fw.mp4	0.0	255.11854004859924	0.10008502006530762
54	236.67690205574036	fix_pre	0		120	52.0	2.5	/experiments/knapen_AOT/AOT_stimuli/rescaled_final/0271_fw.mp4	0.0	255.21862506866455	1.0000908374786377
54	237.66880893707275	pulse	0	t		52.0	2.5	/experiments/knapen_AOT/AOT_stimuli/rescaled_final/0271_fw.mp4	0.0	256.21053194999695	
54	237.676992893219	movie	1		245	52.0	2.5	/experiments/knapen_AOT/AOT_stimuli/rescaled_final/0271_fw.mp4	0.0	256.2187159061432	2.5086779594421387
54	239.2695348262787	pulse	1	t		52.0	2.5	/experiments/knapen_AOT/AOT_stimuli/rescaled_final/0271_fw.mp4	0.0	257.8112578392029	
54	240.18567085266113	fix_post	2		12	52.0	2.5	/experiments/knapen_AOT/AOT_stimuli/rescaled_final/0271_fw.mp4	0.0	258.7273938655853	0.0999901294708252
55	240.28566098213196	fix_pre	0		120	53.0	2.5	/experiments/knapen_AOT/AOT_stimuli/rescaled_final/1057_rv.mp4	0.0	258.82738399505615	1.0001728534698486
55	240.86932492256165	pulse	0	t		53.0	2.5	/experiments/knapen_AOT/AOT_stimuli/rescaled_final/1057_rv.mp4	0.0	259.41104793548584	
55	241.2858338356018	movie	1		242	53.0	2.5	/experiments/knapen_AOT/AOT_stimuli/rescaled_final/1057_rv.mp4	0.0	259.827556848526	2.50058913230896
55	242.46959805488586	pulse	1	t		53.0	2.5	/experiments/knapen_AOT/AOT_stimuli/rescaled_final/1057_rv.mp4	0.0	261.01132106781006	
55	243.78642296791077	fix_post	2		12	53.0	2.5	/experiments/knapen_AOT/AOT_stimuli/rescaled_final/1057_rv.mp4	0.0	262.32814598083496	0.0998530387878418
56	243.8862760066986	fix_pre	0		120	54.0	2.5	blank	1.0	262.4279990196228	1.0000689029693604
56	244.0698139667511	pulse	0	t		54.0	2.5	blank	1.0	262.6115369796753	
56	244.88634490966797	movie	1		300	54.0	2.5	blank	1.0	263.42806792259216	2.5004279613494873
56	245.67004299163818	pulse	1	t		54.0	2.5	blank	1.0	264.2117660045624	
56	247.2703378200531	pulse	1	t		54.0	2.5	blank	1.0	265.8120608329773	
56	247.38677287101746	fix_post	2		12	54.0	2.5	blank	1.0	265.92849588394165	0.10004305839538574
57	247.48681592941284	fix_pre	0		120	55.0	2.5	/experiments/knapen_AOT/AOT_stimuli/rescaled_final/1129_fw.mp4	0.0	266.02853894233704	1.0001211166381836
57	248.48693704605103	movie	1		241	55.0	2.5	/experiments/knapen_AOT/AOT_stimuli/rescaled_final/1129_fw.mp4	0.0	267.0286600589752	2.4921298027038574
57	248.87538599967957	pulse	1	t		55.0	2.5	/experiments/knapen_AOT/AOT_stimuli/rescaled_final/1129_fw.mp4	0.0	267.41710901260376	
57	250.46348094940186	pulse	1	t		55.0	2.5	/experiments/knapen_AOT/AOT_stimuli/rescaled_final/1129_fw.mp4	0.0	269.00520396232605	
57	250.97906684875488	fix_post	2		12	55.0	2.5	/experiments/knapen_AOT/AOT_stimuli/rescaled_final/1129_fw.mp4	0.0	269.5207898616791	0.09991717338562012
58	251.0789840221405	fix_pre	0		120	56.0	2.5	/experiments/knapen_AOT/AOT_stimuli/rescaled_final/1101_fw.mp4	0.0	269.6207070350647	1.0002779960632324
58	252.0634388923645	pulse	0	t		56.0	2.5	/experiments/knapen_AOT/AOT_stimuli/rescaled_final/1101_fw.mp4	0.0	270.6051619052887	
58	252.07926201820374	movie	1		243	56.0	2.5	/experiments/knapen_AOT/AOT_stimuli/rescaled_final/1101_fw.mp4	0.0	270.62098503112793	2.5085809230804443
58	253.67235803604126	pulse	1	t		56.0	2.5	/experiments/knapen_AOT/AOT_stimuli/rescaled_final/1101_fw.mp4	0.0	272.21408104896545	
58	254.58784294128418	fix_post	2		12	56.0	2.5	/experiments/knapen_AOT/AOT_stimuli/rescaled_final/1101_fw.mp4	0.0	273.1295659542084	0.10001897811889648
59	254.68786191940308	fix_pre	0		120	57.0	2.5	/experiments/knapen_AOT/AOT_stimuli/rescaled_final/1876_rv.mp4	0.0	273.22958493232727	1.0001311302185059
59	255.2640860080719	pulse	0	t		57.0	2.5	/experiments/knapen_AOT/AOT_stimuli/rescaled_final/1876_rv.mp4	0.0	273.8058090209961	
59	255.68799304962158	movie	1		243	57.0	2.5	/experiments/knapen_AOT/AOT_stimuli/rescaled_final/1876_rv.mp4	0.0	274.2297160625458	2.500570774078369
59	256.8637800216675	pulse	1	t		57.0	2.5	/experiments/knapen_AOT/AOT_stimuli/rescaled_final/1876_rv.mp4	0.0	275.4055030345917	
59	258.18856382369995	fix_post	2		12	57.0	2.5	/experiments/knapen_AOT/AOT_stimuli/rescaled_final/1876_rv.mp4	0.0	276.73028683662415	0.09981918334960938
60	258.28838300704956	fix_pre	0		120	58.0	2.5	/experiments/knapen_AOT/AOT_stimuli/rescaled_final/0196_rv.mp4	0.0	276.83010601997375	1.0001819133758545
60	258.4636218547821	pulse	0	t		58.0	2.5	/experiments/knapen_AOT/AOT_stimuli/rescaled_final/0196_rv.mp4	0.0	277.0053448677063	
60	259.2885649204254	movie	1		242	58.0	2.5	/experiments/knapen_AOT/AOT_stimuli/rescaled_final/0196_rv.mp4	0.0	277.8302879333496	2.5005009174346924
60	260.06377482414246	pulse	1	t		58.0	2.5	/experiments/knapen_AOT/AOT_stimuli/rescaled_final/0196_rv.mp4	0.0	278.60549783706665	
60	261.6641249656677	pulse	1	t		58.0	2.5	/experiments/knapen_AOT/AOT_stimuli/rescaled_final/0196_rv.mp4	0.0	280.2058479785919	
60	261.7890658378601	fix_post	2		11	58.0	2.5	/experiments/knapen_AOT/AOT_stimuli/rescaled_final/0196_rv.mp4	0.0	280.3307888507843	0.09152698516845703
61	261.88059282302856	fix_pre	0		120	59.0	2.5	/experiments/knapen_AOT/AOT_stimuli/rescaled_final/1780_fw.mp4	0.0	280.42231583595276	1.0001771450042725
61	262.88076996803284	movie	1		244	59.0	2.5	/experiments/knapen_AOT/AOT_stimuli/rescaled_final/1780_fw.mp4	0.0	281.42249298095703	2.5004448890686035
61	263.264732837677	pulse	1	t		59.0	2.5	/experiments/knapen_AOT/AOT_stimuli/rescaled_final/1780_fw.mp4	0.0	281.8064558506012	
61	264.8646500110626	pulse	1	t		59.0	2.5	/experiments/knapen_AOT/AOT_stimuli/rescaled_final/1780_fw.mp4	0.0	283.4063730239868	
61	265.38121485710144	fix_post	2		12	59.0	2.5	/experiments/knapen_AOT/AOT_stimuli/rescaled_final/1780_fw.mp4	0.0	283.92293787002563	0.09995412826538086
62	265.4811689853668	fix_pre	0		119	60.0	2.5	/experiments/knapen_AOT/AOT_stimuli/rescaled_final/2037_fw.mp4	0.0	284.022891998291	0.99180006980896
62	266.4647219181061	pulse	0	t		60.0	2.5	/experiments/knapen_AOT/AOT_stimuli/rescaled_final/2037_fw.mp4	0.0	285.0064449310303	
62	266.4729690551758	movie	1		244	60.0	2.5	/experiments/knapen_AOT/AOT_stimuli/rescaled_final/2037_fw.mp4	0.0	285.0146920681	2.5086729526519775
62	268.0656249523163	pulse	1	t		60.0	2.5	/experiments/knapen_AOT/AOT_stimuli/rescaled_final/2037_fw.mp4	0.0	286.6073479652405	
62	268.98164200782776	fix_post	2		12	60.0	2.5	/experiments/knapen_AOT/AOT_stimuli/rescaled_final/2037_fw.mp4	0.0	287.52336502075195	0.10003304481506348
63	269.0816750526428	fix_pre	0		120	61.0	2.5	blank	1.0	287.623398065567	1.0001227855682373
63	269.66533398628235	pulse	0	t		61.0	2.5	blank	1.0	288.20705699920654	
63	270.08179783821106	movie	1		300	61.0	2.5	blank	1.0	288.62352085113525	2.5004069805145264
63	271.26559686660767	pulse	1	t		61.0	2.5	blank	1.0	289.80731987953186	
63	272.5822048187256	fix_post	2		12	61.0	2.5	blank	1.0	291.1239278316498	0.10001206398010254
64	272.6822168827057	fix_pre	0		120	62.0	2.5	/experiments/knapen_AOT/AOT_stimuli/rescaled_final/0415_fw.mp4	0.0	291.2239398956299	1.0001130104064941
64	272.8657808303833	pulse	0	t		62.0	2.5	/experiments/knapen_AOT/AOT_stimuli/rescaled_final/0415_fw.mp4	0.0	291.4075038433075	
64	273.6823298931122	movie	1		243	62.0	2.5	/experiments/knapen_AOT/AOT_stimuli/rescaled_final/0415_fw.mp4	0.0	292.2240529060364	2.5004401206970215
64	274.46597695350647	pulse	1	t		62.0	2.5	/experiments/knapen_AOT/AOT_stimuli/rescaled_final/0415_fw.mp4	0.0	293.00769996643066	
64	276.0659899711609	pulse	1	t		62.0	2.5	/experiments/knapen_AOT/AOT_stimuli/rescaled_final/0415_fw.mp4	0.0	294.6077129840851	
64	276.1827700138092	fix_post	2		12	62.0	2.5	/experiments/knapen_AOT/AOT_stimuli/rescaled_final/0415_fw.mp4	0.0	294.7244930267334	0.0999758243560791
65	276.2827458381653	fix_pre	0		119	63.0	2.5	/experiments/knapen_AOT/AOT_stimuli/rescaled_final/1021_fw.mp4	0.0	294.8244688510895	0.9918460845947266
65	277.27459192276	movie	1		243	63.0	2.5	/experiments/knapen_AOT/AOT_stimuli/rescaled_final/1021_fw.mp4	0.0	295.8163149356842	2.5003271102905273
65	277.6665608882904	pulse	1	t		63.0	2.5	/experiments/knapen_AOT/AOT_stimuli/rescaled_final/1021_fw.mp4	0.0	296.2082839012146	
65	279.2667968273163	pulse	1	t		63.0	2.5	/experiments/knapen_AOT/AOT_stimuli/rescaled_final/1021_fw.mp4	0.0	297.8085198402405	
65	279.77491903305054	fix_post	2		12	63.0	2.5	/experiments/knapen_AOT/AOT_stimuli/rescaled_final/1021_fw.mp4	0.0	298.31664204597473	0.10001492500305176
66	279.8749339580536	fix_pre	0		120	64.0	2.5	/experiments/knapen_AOT/AOT_stimuli/rescaled_final/0052_fw.mp4	0.0	298.4166569709778	1.000195026397705
66	280.86687302589417	pulse	0	t		64.0	2.5	/experiments/knapen_AOT/AOT_stimuli/rescaled_final/0052_fw.mp4	0.0	299.40859603881836	
66	280.8751289844513	movie	1		245	64.0	2.5	/experiments/knapen_AOT/AOT_stimuli/rescaled_final/0052_fw.mp4	0.0	299.4168519973755	2.508664846420288
66	282.468318939209	pulse	1	t		64.0	2.5	/experiments/knapen_AOT/AOT_stimuli/rescaled_final/0052_fw.mp4	0.0	301.0100419521332	
66	283.3837938308716	fix_post	2		12	64.0	2.5	/experiments/knapen_AOT/AOT_stimuli/rescaled_final/0052_fw.mp4	0.0	301.9255168437958	0.1000361442565918
67	283.4838299751282	fix_pre	0		120	65.0	2.5	/experiments/knapen_AOT/AOT_stimuli/rescaled_final/0813_rv.mp4	0.0	302.02555298805237	1.0001590251922607
67	284.0675468444824	pulse	0	t		65.0	2.5	/experiments/knapen_AOT/AOT_stimuli/rescaled_final/0813_rv.mp4	0.0	302.6092698574066	
67	284.48398900032043	movie	1		242	65.0	2.5	/experiments/knapen_AOT/AOT_stimuli/rescaled_final/0813_rv.mp4	0.0	303.02571201324463	2.5003859996795654
67	285.6677930355072	pulse	1	t		65.0	2.5	/experiments/knapen_AOT/AOT_stimuli/rescaled_final/0813_rv.mp4	0.0	304.2095160484314	
67	286.984375	fix_post	2		12	65.0	2.5	/experiments/knapen_AOT/AOT_stimuli/rescaled_final/0813_rv.mp4	0.0	305.5260980129242	0.10001802444458008
68	287.0843930244446	fix_pre	0		120	66.0	2.5	/experiments/knapen_AOT/AOT_stimuli/rescaled_final/2085_rv.mp4	0.0	305.6261160373688	1.0001189708709717
68	287.2678780555725	pulse	0	t		66.0	2.5	/experiments/knapen_AOT/AOT_stimuli/rescaled_final/2085_rv.mp4	0.0	305.8096010684967	
68	288.08451199531555	movie	1		242	66.0	2.5	/experiments/knapen_AOT/AOT_stimuli/rescaled_final/2085_rv.mp4	0.0	306.62623500823975	2.492094039916992
68	288.86810398101807	pulse	1	t		66.0	2.5	/experiments/knapen_AOT/AOT_stimuli/rescaled_final/2085_rv.mp4	0.0	307.40982699394226	
68	290.46817684173584	pulse	1	t		66.0	2.5	/experiments/knapen_AOT/AOT_stimuli/rescaled_final/2085_rv.mp4	0.0	309.00989985466003	
68	290.57660603523254	fix_post	2		13	66.0	2.5	/experiments/knapen_AOT/AOT_stimuli/rescaled_final/2085_rv.mp4	0.0	309.11832904815674	0.10826897621154785
69	290.6848750114441	fix_pre	0		119	67.0	2.5	/experiments/knapen_AOT/AOT_stimuli/rescaled_final/0502_fw.mp4	0.0	309.2265980243683	0.9918220043182373
69	291.67669701576233	movie	1		242	67.0	2.5	/experiments/knapen_AOT/AOT_stimuli/rescaled_final/0502_fw.mp4	0.0	310.2184200286865	2.5255589485168457
69	292.0688190460205	pulse	1	t		67.0	2.5	/experiments/knapen_AOT/AOT_stimuli/rescaled_final/0502_fw.mp4	0.0	310.6105420589447	
69	293.66883397102356	pulse	1	t		67.0	2.5	/experiments/knapen_AOT/AOT_stimuli/rescaled_final/0502_fw.mp4	0.0	312.21055698394775	
69	294.2022559642792	fix_post	2		9	67.0	2.5	/experiments/knapen_AOT/AOT_stimuli/rescaled_final/0502_fw.mp4	0.0	312.74397897720337	0.07485508918762207
70	294.2771110534668	fix_pre	0		120	68.0	2.5	/experiments/knapen_AOT/AOT_stimuli/rescaled_final/2008_rv.mp4	0.0	312.818834066391	1.0001928806304932
70	295.2690649032593	pulse	0	t		68.0	2.5	/experiments/knapen_AOT/AOT_stimuli/rescaled_final/2008_rv.mp4	0.0	313.8107879161835	
70	295.2773039340973	movie	1		244	68.0	2.5	/experiments/knapen_AOT/AOT_stimuli/rescaled_final/2008_rv.mp4	0.0	313.8190269470215	2.508683919906616
70	296.8700749874115	pulse	1	t		68.0	2.5	/experiments/knapen_AOT/AOT_stimuli/rescaled_final/2008_rv.mp4	0.0	315.4117980003357	
70	297.7859878540039	fix_post	2		12	68.0	2.5	/experiments/knapen_AOT/AOT_stimuli/rescaled_final/2008_rv.mp4	0.0	316.3277108669281	0.09999704360961914
71	297.8859848976135	fix_pre	0		120	69.0	2.5	blank	1.0	316.4277079105377	1.0001311302185059
71	298.4697389602661	pulse	0	t		69.0	2.5	blank	1.0	317.0114619731903	
71	298.88611602783203	movie	1		300	69.0	2.5	blank	1.0	317.4278390407562	2.5003578662872314
71	300.06982803344727	pulse	1	t		69.0	2.5	blank	1.0	318.61155104637146	
71	301.38647389411926	fix_post	2		12	69.0	2.5	blank	1.0	319.92819690704346	0.10007405281066895
72	301.48654794692993	fix_pre	0		120	70.0	2.5	/experiments/knapen_AOT/AOT_stimuli/rescaled_final/2144_rv.mp4	0.0	320.0282709598541	1.0001280307769775
72	301.6700839996338	pulse	0	t		70.0	2.5	/experiments/knapen_AOT/AOT_stimuli/rescaled_final/2144_rv.mp4	0.0	320.211807012558	
72	302.4866759777069	movie	1		243	70.0	2.5	/experiments/knapen_AOT/AOT_stimuli/rescaled_final/2144_rv.mp4	0.0	321.0283989906311	2.5005218982696533
72	303.27033495903015	pulse	1	t		70.0	2.5	/experiments/knapen_AOT/AOT_stimuli/rescaled_final/2144_rv.mp4	0.0	321.81205797195435	
72	304.8705940246582	pulse	1	t		70.0	2.5	/experiments/knapen_AOT/AOT_stimuli/rescaled_final/2144_rv.mp4	0.0	323.4123170375824	
72	304.98719787597656	fix_post	2		12	70.0	2.5	/experiments/knapen_AOT/AOT_stimuli/rescaled_final/2144_rv.mp4	0.0	323.52892088890076	0.0997769832611084
73	305.08697485923767	fix_pre	0		119	71.0	2.5	/experiments/knapen_AOT/AOT_stimuli/rescaled_final/1256_fw.mp4	0.0	323.62869787216187	0.9918990135192871
73	306.07887387275696	movie	1		245	71.0	2.5	/experiments/knapen_AOT/AOT_stimuli/rescaled_final/1256_fw.mp4	0.0	324.62059688568115	2.5003509521484375
73	306.4708378314972	pulse	1	t		71.0	2.5	/experiments/knapen_AOT/AOT_stimuli/rescaled_final/1256_fw.mp4	0.0	325.0125608444214	
73	308.06370282173157	pulse	1	t		71.0	2.5	/experiments/knapen_AOT/AOT_stimuli/rescaled_final/1256_fw.mp4	0.0	326.60542583465576	
73	308.5792248249054	fix_post	2		12	71.0	2.5	/experiments/knapen_AOT/AOT_stimuli/rescaled_final/1256_fw.mp4	0.0	327.1209478378296	0.10001802444458008
74	308.67924284935	fix_pre	0		120	72.0	2.5	/experiments/knapen_AOT/AOT_stimuli/rescaled_final/0635_rv.mp4	0.0	327.22096586227417	1.000197172164917
74	309.6636469364166	pulse	0	t		72.0	2.5	/experiments/knapen_AOT/AOT_stimuli/rescaled_final/0635_rv.mp4	0.0	328.2053699493408	
74	309.6794400215149	movie	1		244	72.0	2.5	/experiments/knapen_AOT/AOT_stimuli/rescaled_final/0635_rv.mp4	0.0	328.2211630344391	2.5086560249328613
74	311.2631628513336	pulse	1	t		72.0	2.5	/experiments/knapen_AOT/AOT_stimuli/rescaled_final/0635_rv.mp4	0.0	329.8048858642578	
74	312.18809604644775	fix_post	2		12	72.0	2.5	/experiments/knapen_AOT/AOT_stimuli/rescaled_final/0635_rv.mp4	0.0	330.72981905937195	0.10010981559753418
75	312.2882058620453	fix_pre	0		120	73.0	2.5	/experiments/knapen_AOT/AOT_stimuli/rescaled_final/0485_rv.mp4	0.0	330.8299288749695	1.0000720024108887
75	312.86330699920654	pulse	0	t		73.0	2.5	/experiments/knapen_AOT/AOT_stimuli/rescaled_final/0485_rv.mp4	0.0	331.40503001213074	
75	313.2882778644562	movie	1		243	73.0	2.5	/experiments/knapen_AOT/AOT_stimuli/rescaled_final/0485_rv.mp4	0.0	331.83000087738037	2.5004100799560547
75	314.4643568992615	pulse	1	t		73.0	2.5	/experiments/knapen_AOT/AOT_stimuli/rescaled_final/0485_rv.mp4	0.0	333.00607991218567	
75	315.78868794441223	fix_post	2		12	73.0	2.5	/experiments/knapen_AOT/AOT_stimuli/rescaled_final/0485_rv.mp4	0.0	334.3304109573364	0.09998106956481934
76	315.88866901397705	fix_pre	0		120	74.0	2.5	/experiments/knapen_AOT/AOT_stimuli/rescaled_final/1600_fw.mp4	0.0	334.43039202690125	1.0002069473266602
76	316.06388092041016	pulse	0	t		74.0	2.5	/experiments/knapen_AOT/AOT_stimuli/rescaled_final/1600_fw.mp4	0.0	334.60560393333435	
76	316.8888759613037	movie	1		243	74.0	2.5	/experiments/knapen_AOT/AOT_stimuli/rescaled_final/1600_fw.mp4	0.0	335.4305989742279	2.500452995300293
76	317.6641478538513	pulse	1	t		74.0	2.5	/experiments/knapen_AOT/AOT_stimuli/rescaled_final/1600_fw.mp4	0.0	336.2058708667755	
76	319.26439690589905	pulse	1	t		74.0	2.5	/experiments/knapen_AOT/AOT_stimuli/rescaled_final/1600_fw.mp4	0.0	337.80611991882324	
76	319.389328956604	fix_post	2		12	74.0	2.5	/experiments/knapen_AOT/AOT_stimuli/rescaled_final/1600_fw.mp4	0.0	337.9310519695282	0.0998539924621582
77	319.48918294906616	fix_pre	0		119	75.0	2.5	/experiments/knapen_AOT/AOT_stimuli/rescaled_final/0023_rv.mp4	0.0	338.03090596199036	0.9918019771575928
77	320.48098492622375	movie	1		243	75.0	2.5	/experiments/knapen_AOT/AOT_stimuli/rescaled_final/0023_rv.mp4	0.0	339.02270793914795	2.500364065170288
77	320.8693468570709	pulse	1	t		75.0	2.5	/experiments/knapen_AOT/AOT_stimuli/rescaled_final/0023_rv.mp4	0.0	339.4110698699951	
77	322.4647660255432	pulse	1	t		75.0	2.5	/experiments/knapen_AOT/AOT_stimuli/rescaled_final/0023_rv.mp4	0.0	341.0064890384674	
77	322.98134899139404	fix_post	2		12	75.0	2.5	/experiments/knapen_AOT/AOT_stimuli/rescaled_final/0023_rv.mp4	0.0	341.52307200431824	0.10003495216369629
78	323.08138394355774	fix_pre	0		119	76.0	2.5	/experiments/knapen_AOT/AOT_stimuli/rescaled_final/0921_fw.mp4	0.0	341.62310695648193	0.9918689727783203
78	324.0651309490204	pulse	0	t		76.0	2.5	/experiments/knapen_AOT/AOT_stimuli/rescaled_final/0921_fw.mp4	0.0	342.6068539619446	
78	324.07325291633606	movie	1		244	76.0	2.5	/experiments/knapen_AOT/AOT_stimuli/rescaled_final/0921_fw.mp4	0.0	342.61497592926025	2.508671998977661
78	325.6660089492798	pulse	1	t		76.0	2.5	/experiments/knapen_AOT/AOT_stimuli/rescaled_final/0921_fw.mp4	0.0	344.207731962204	
78	326.5819249153137	fix_post	2		12	76.0	2.5	/experiments/knapen_AOT/AOT_stimuli/rescaled_final/0921_fw.mp4	0.0	345.1236479282379	0.10012292861938477
79	326.6820478439331	fix_pre	0		120	77.0	2.5	blank	1.0	345.2237708568573	1.0000321865081787
79	327.26554584503174	pulse	0	t		77.0	2.5	blank	1.0	345.80726885795593	
79	327.6820800304413	movie	1		300	77.0	2.5	blank	1.0	346.2238030433655	2.500386953353882
79	328.86571502685547	pulse	1	t		77.0	2.5	blank	1.0	347.40743803977966	
79	330.18246698379517	fix_post	2		12	77.0	2.5	blank	1.0	348.72418999671936	0.09999799728393555
80	330.2824649810791	fix_pre	0		120	78.0	2.5	/experiments/knapen_AOT/AOT_stimuli/rescaled_final/0258_rv.mp4	0.0	348.8241879940033	1.000148057937622
80	330.46602487564087	pulse	0	t		78.0	2.5	/experiments/knapen_AOT/AOT_stimuli/rescaled_final/0258_rv.mp4	0.0	349.00774788856506	
80	331.2826130390167	movie	1		244	78.0	2.5	/experiments/knapen_AOT/AOT_stimuli/rescaled_final/0258_rv.mp4	0.0	349.8243360519409	2.5003859996795654
80	332.0663950443268	pulse	1	t		78.0	2.5	/experiments/knapen_AOT/AOT_stimuli/rescaled_final/0258_rv.mp4	0.0	350.608118057251	
80	333.6665508747101	pulse	1	t		78.0	2.5	/experiments/knapen_AOT/AOT_stimuli/rescaled_final/0258_rv.mp4	0.0	352.2082738876343	
80	333.7829990386963	fix_post	2		12	78.0	2.5	/experiments/knapen_AOT/AOT_stimuli/rescaled_final/0258_rv.mp4	0.0	352.3247220516205	0.10001182556152344
81	333.8830108642578	fix_pre	0		120	79.0	2.5	/experiments/knapen_AOT/AOT_stimuli/rescaled_final/0273_rv.mp4	0.0	352.424733877182	1.0001850128173828
81	334.8831958770752	movie	1		242	79.0	2.5	/experiments/knapen_AOT/AOT_stimuli/rescaled_final/0273_rv.mp4	0.0	353.4249188899994	2.492002010345459
81	335.2672920227051	pulse	1	t		79.0	2.5	/experiments/knapen_AOT/AOT_stimuli/rescaled_final/0273_rv.mp4	0.0	353.8090150356293	
81	336.86709904670715	pulse	1	t		79.0	2.5	/experiments/knapen_AOT/AOT_stimuli/rescaled_final/0273_rv.mp4	0.0	355.40882205963135	
81	337.37519788742065	fix_post	2		12	79.0	2.5	/experiments/knapen_AOT/AOT_stimuli/rescaled_final/0273_rv.mp4	0.0	355.91692090034485	0.09999799728393555
82	337.4751958847046	fix_pre	0		120	80.0	2.5	/experiments/knapen_AOT/AOT_stimuli/rescaled_final/0236_rv.mp4	0.0	356.0169188976288	1.0001511573791504
82	338.4673240184784	pulse	0	t		80.0	2.5	/experiments/knapen_AOT/AOT_stimuli/rescaled_final/0236_rv.mp4	0.0	357.0090470314026	
82	338.47534704208374	movie	1		245	80.0	2.5	/experiments/knapen_AOT/AOT_stimuli/rescaled_final/0236_rv.mp4	0.0	357.01707005500793	2.50875186920166
82	340.0681149959564	pulse	1	t		80.0	2.5	/experiments/knapen_AOT/AOT_stimuli/rescaled_final/0236_rv.mp4	0.0	358.6098380088806	
82	340.9840989112854	fix_post	2		12	80.0	2.5	/experiments/knapen_AOT/AOT_stimuli/rescaled_final/0236_rv.mp4	0.0	359.5258219242096	0.09999704360961914
83	341.084095954895	fix_pre	0		120	81.0	2.5	/experiments/knapen_AOT/AOT_stimuli/rescaled_final/0278_rv.mp4	0.0	359.6258189678192	1.0002009868621826
83	341.66770195961	pulse	0	t		81.0	2.5	/experiments/knapen_AOT/AOT_stimuli/rescaled_final/0278_rv.mp4	0.0	360.2094249725342	
83	342.0842969417572	movie	1		244	81.0	2.5	/experiments/knapen_AOT/AOT_stimuli/rescaled_final/0278_rv.mp4	0.0	360.6260199546814	2.5002799034118652
83	343.26391100883484	pulse	1	t		81.0	2.5	/experiments/knapen_AOT/AOT_stimuli/rescaled_final/0278_rv.mp4	0.0	361.80563402175903	
83	344.58457684516907	fix_post	2		12	81.0	2.5	/experiments/knapen_AOT/AOT_stimuli/rescaled_final/0278_rv.mp4	0.0	363.12629985809326	0.10004711151123047
84	344.6846239566803	fix_pre	0		120	82.0	2.5	/experiments/knapen_AOT/AOT_stimuli/rescaled_final/0690_rv.mp4	0.0	363.2263469696045	1.0001299381256104
84	344.8681869506836	pulse	0	t		82.0	2.5	/experiments/knapen_AOT/AOT_stimuli/rescaled_final/0690_rv.mp4	0.0	363.4099099636078	
84	345.6847538948059	movie	1		243	82.0	2.5	/experiments/knapen_AOT/AOT_stimuli/rescaled_final/0690_rv.mp4	0.0	364.2264769077301	2.5005459785461426
84	346.46841502189636	pulse	1	t		82.0	2.5	/experiments/knapen_AOT/AOT_stimuli/rescaled_final/0690_rv.mp4	0.0	365.01013803482056	
84	348.06914496421814	pulse	1	t		82.0	2.5	/experiments/knapen_AOT/AOT_stimuli/rescaled_final/0690_rv.mp4	0.0	366.61086797714233	
84	348.18529987335205	fix_post	2		12	82.0	2.5	/experiments/knapen_AOT/AOT_stimuli/rescaled_final/0690_rv.mp4	0.0	366.72702288627625	0.09984016418457031
85	348.2851400375366	fix_pre	0		120	83.0	2.5	blank	1.0	366.8268630504608	1.0001368522644043
85	349.285276889801	movie	1		299	83.0	2.5	blank	1.0	367.8269999027252	2.4921209812164307
85	349.6688458919525	pulse	1	t		83.0	2.5	blank	1.0	368.2105689048767	
85	351.2692029476166	pulse	1	t		83.0	2.5	blank	1.0	369.81092596054077	
85	351.77739787101746	fix_post	2		12	83.0	2.5	blank	1.0	370.31912088394165	0.09995412826538086
87	351.87735199928284	stim	0		1713					370.41907501220703	14.302209854125977
87	352.86939692497253	pulse	0	t						371.41111993789673	
87	354.4695749282837	pulse	0	t						373.0112979412079	
87	356.069846868515	pulse	0	t						374.6115698814392	
87	357.67008090019226	pulse	0	t						376.21180391311646	
87	359.27035689353943	pulse	0	t						377.8120799064636	
87	360.87057185173035	pulse	0	t						379.41229486465454	
87	362.4707510471344	pulse	0	t						381.0124740600586	
87	364.06367802619934	pulse	0	t						382.60540103912354	
87	365.66394305229187	pulse	0	t						384.20566606521606	
