trial_nr	onset	event_type	phase	response	nr_frames	movie_index	movie_duration	movie_file	blank	onset_abs	duration
0	0.15784096717834473	stim	0		126					22.42997097969055	1.0503690242767334
0	1.2001569271087646	response	0	space						23.47228693962097	
1	1.2082099914550781	stim	0		12379					23.480340003967285	103.15784978866577
1	104.36070489883423	pulse	0	t						126.63283491134644	
1	104.36605978012085	stim	1		1717					126.63818979263306	14.30836009979248
1	105.9578948020935	pulse	1	t						128.2300248146057	
1	107.55792284011841	pulse	1	t						129.83005285263062	
1	109.15790700912476	pulse	1	t						131.43003702163696	
1	110.7578649520874	pulse	1	t						133.0299949645996	
1	112.35785484313965	pulse	1	t						134.62998485565186	
1	113.95790696144104	pulse	1	t						136.23003697395325	
1	115.55791282653809	pulse	1	t						137.8300428390503	
1	117.15783882141113	pulse	1	t						139.42996883392334	
2	118.67441987991333	fix_pre	0		11	0.0	2.5	/experiments/AOT/AOT_stimuli/rescaled_final/1593_rv.mp4	0.0	140.94654989242554	0.09153890609741211
2	118.7578809261322	pulse	0	t		0.0	2.5	/experiments/AOT/AOT_stimuli/rescaled_final/1593_rv.mp4	0.0	141.0300109386444	
2	118.76595878601074	movie	1		241	0.0	2.5	/experiments/AOT/AOT_stimuli/rescaled_final/1593_rv.mp4	0.0	141.03808879852295	2.508352041244507
2	120.35788178443909	pulse	1	t		0.0	2.5	/experiments/AOT/AOT_stimuli/rescaled_final/1593_rv.mp4	0.0	142.6300117969513	
2	121.27431082725525	fix_post	2		12	0.0	2.5	/experiments/AOT/AOT_stimuli/rescaled_final/1593_rv.mp4	0.0	143.54644083976746	0.10003304481506348
3	121.37434387207031	fix_pre	0		120	1.0	2.5	/experiments/AOT/AOT_stimuli/rescaled_final/1638_fw.mp4	0.0	143.64647388458252	0.999535083770752
3	121.9578127861023	pulse	0	t		1.0	2.5	/experiments/AOT/AOT_stimuli/rescaled_final/1638_fw.mp4	0.0	144.2299427986145	
3	122.37387895584106	movie	1		245	1.0	2.5	/experiments/AOT/AOT_stimuli/rescaled_final/1638_fw.mp4	0.0	144.64600896835327	2.500488042831421
3	123.55792498588562	pulse	1	t		1.0	2.5	/experiments/AOT/AOT_stimuli/rescaled_final/1638_fw.mp4	0.0	145.83005499839783	
3	124.87436699867249	fix_post	2		12	1.0	2.5	/experiments/AOT/AOT_stimuli/rescaled_final/1638_fw.mp4	0.0	147.1464970111847	0.09997797012329102
4	124.97434496879578	fix_pre	0		120	2.0	2.5	/experiments/AOT/AOT_stimuli/rescaled_final/0488_rv.mp4	0.0	147.24647498130798	1.0000708103179932
4	125.15783381462097	pulse	0	t		2.0	2.5	/experiments/AOT/AOT_stimuli/rescaled_final/0488_rv.mp4	0.0	147.42996382713318	
4	125.97441577911377	movie	1		244	2.0	2.5	/experiments/AOT/AOT_stimuli/rescaled_final/0488_rv.mp4	0.0	148.24654579162598	2.499908208847046
4	126.75787281990051	pulse	1	t		2.0	2.5	/experiments/AOT/AOT_stimuli/rescaled_final/0488_rv.mp4	0.0	149.03000283241272	
4	128.35659098625183	pulse	1	t		2.0	2.5	/experiments/AOT/AOT_stimuli/rescaled_final/0488_rv.mp4	0.0	150.62872099876404	
4	128.47432398796082	fix_post	2		12	2.0	2.5	/experiments/AOT/AOT_stimuli/rescaled_final/0488_rv.mp4	0.0	150.74645400047302	0.09992599487304688
5	128.57424998283386	fix_pre	0		120	3.0	2.5	/experiments/AOT/AOT_stimuli/rescaled_final/0960_fw.mp4	0.0	150.84637999534607	1.0000770092010498
5	129.5743269920349	movie	1		244	3.0	2.5	/experiments/AOT/AOT_stimuli/rescaled_final/0960_fw.mp4	0.0	151.84645700454712	2.5000429153442383
5	129.9575560092926	pulse	1	t		3.0	2.5	/experiments/AOT/AOT_stimuli/rescaled_final/0960_fw.mp4	0.0	152.2296860218048	
5	131.55779790878296	pulse	1	t		3.0	2.5	/experiments/AOT/AOT_stimuli/rescaled_final/0960_fw.mp4	0.0	153.82992792129517	
5	132.07436990737915	fix_post	2		12	3.0	2.5	/experiments/AOT/AOT_stimuli/rescaled_final/0960_fw.mp4	0.0	154.34649991989136	0.09992504119873047
6	132.17429494857788	fix_pre	0		119	4.0	2.5	/experiments/AOT/AOT_stimuli/rescaled_final/0597_fw.mp4	0.0	154.4464249610901	0.9917349815368652
6	133.1577548980713	pulse	0	t		4.0	2.5	/experiments/AOT/AOT_stimuli/rescaled_final/0597_fw.mp4	0.0	155.4298849105835	
6	133.16602993011475	movie	1		245	4.0	2.5	/experiments/AOT/AOT_stimuli/rescaled_final/0597_fw.mp4	0.0	155.43815994262695	2.507878065109253
6	134.75808191299438	pulse	1	t		4.0	2.5	/experiments/AOT/AOT_stimuli/rescaled_final/0597_fw.mp4	0.0	157.0302119255066	
6	135.673907995224	fix_post	2		12	4.0	2.5	/experiments/AOT/AOT_stimuli/rescaled_final/0597_fw.mp4	0.0	157.9460380077362	0.10038185119628906
7	135.7742898464203	fix_pre	0		120	5.0	2.5	blank	1.0	158.0464198589325	1.000067949295044
7	136.35781693458557	pulse	0	t		5.0	2.5	blank	1.0	158.62994694709778	
7	136.77435779571533	movie	1		300	5.0	2.5	blank	1.0	159.04648780822754	2.499951124191284
7	137.95775389671326	pulse	1	t		5.0	2.5	blank	1.0	160.22988390922546	
7	139.27430891990662	fix_post	2		12	5.0	2.5	blank	1.0	161.54643893241882	0.09997296333312988
8	139.37428188323975	fix_pre	0		120	6.0	2.5	/experiments/AOT/AOT_stimuli/rescaled_final/0561_rv.mp4	0.0	161.64641189575195	1.0000369548797607
8	139.55778980255127	pulse	0	t		6.0	2.5	/experiments/AOT/AOT_stimuli/rescaled_final/0561_rv.mp4	0.0	161.82991981506348	
8	140.3743188381195	movie	1		243	6.0	2.5	/experiments/AOT/AOT_stimuli/rescaled_final/0561_rv.mp4	0.0	162.6464488506317	2.4999730587005615
8	141.1577489376068	pulse	1	t		6.0	2.5	/experiments/AOT/AOT_stimuli/rescaled_final/0561_rv.mp4	0.0	163.42987895011902	
8	142.75604486465454	pulse	1	t		6.0	2.5	/experiments/AOT/AOT_stimuli/rescaled_final/0561_rv.mp4	0.0	165.02817487716675	
8	142.87429189682007	fix_post	2		12	6.0	2.5	/experiments/AOT/AOT_stimuli/rescaled_final/0561_rv.mp4	0.0	165.14642190933228	0.10002589225769043
9	142.97431778907776	fix_pre	0		120	7.0	2.5	/experiments/AOT/AOT_stimuli/rescaled_final/0159_fw.mp4	0.0	165.24644780158997	0.9999620914459229
9	143.97427988052368	movie	1		244	7.0	2.5	/experiments/AOT/AOT_stimuli/rescaled_final/0159_fw.mp4	0.0	166.2464098930359	2.500020980834961
9	144.35739398002625	pulse	1	t		7.0	2.5	/experiments/AOT/AOT_stimuli/rescaled_final/0159_fw.mp4	0.0	166.62952399253845	
9	145.95788192749023	pulse	1	t		7.0	2.5	/experiments/AOT/AOT_stimuli/rescaled_final/0159_fw.mp4	0.0	168.23001194000244	
9	146.47430086135864	fix_post	2		12	7.0	2.5	/experiments/AOT/AOT_stimuli/rescaled_final/0159_fw.mp4	0.0	168.74643087387085	0.09994912147521973
10	146.57424998283386	fix_pre	0		119	8.0	2.5	/experiments/AOT/AOT_stimuli/rescaled_final/0205_rv.mp4	0.0	168.84637999534607	0.9913218021392822
10	147.5573878288269	pulse	0	t		8.0	2.5	/experiments/AOT/AOT_stimuli/rescaled_final/0205_rv.mp4	0.0	169.8295178413391	
10	147.56557178497314	movie	1		248	8.0	2.5	/experiments/AOT/AOT_stimuli/rescaled_final/0205_rv.mp4	0.0	169.83770179748535	2.508233070373535
10	149.15712594985962	pulse	1	t		8.0	2.5	/experiments/AOT/AOT_stimuli/rescaled_final/0205_rv.mp4	0.0	171.42925596237183	
10	150.07380485534668	fix_post	2		12	8.0	2.5	/experiments/AOT/AOT_stimuli/rescaled_final/0205_rv.mp4	0.0	172.3459348678589	0.10047507286071777
11	150.1742799282074	fix_pre	0		120	9.0	2.5	/experiments/AOT/AOT_stimuli/rescaled_final/1364_rv.mp4	0.0	172.4464099407196	0.9999270439147949
11	150.757798910141	pulse	0	t		9.0	2.5	/experiments/AOT/AOT_stimuli/rescaled_final/1364_rv.mp4	0.0	173.0299289226532	
11	151.1742069721222	movie	1		245	9.0	2.5	/experiments/AOT/AOT_stimuli/rescaled_final/1364_rv.mp4	0.0	173.4463369846344	2.4999940395355225
11	152.35772681236267	pulse	1	t		9.0	2.5	/experiments/AOT/AOT_stimuli/rescaled_final/1364_rv.mp4	0.0	174.62985682487488	
11	153.67420101165771	fix_post	2		12	9.0	2.5	/experiments/AOT/AOT_stimuli/rescaled_final/1364_rv.mp4	0.0	175.94633102416992	0.09999394416809082
12	153.7741949558258	fix_pre	0		120	10.0	2.5	/experiments/AOT/AOT_stimuli/rescaled_final/2126_rv.mp4	0.0	176.046324968338	0.999932050704956
12	153.957692861557	pulse	0	t		10.0	2.5	/experiments/AOT/AOT_stimuli/rescaled_final/2126_rv.mp4	0.0	176.2298228740692	
12	154.77412700653076	movie	1		244	10.0	2.5	/experiments/AOT/AOT_stimuli/rescaled_final/2126_rv.mp4	0.0	177.04625701904297	2.5000178813934326
12	155.55762195587158	pulse	1	t		10.0	2.5	/experiments/AOT/AOT_stimuli/rescaled_final/2126_rv.mp4	0.0	177.8297519683838	
12	157.15597891807556	pulse	1	t		10.0	2.5	/experiments/AOT/AOT_stimuli/rescaled_final/2126_rv.mp4	0.0	179.42810893058777	
12	157.2741448879242	fix_post	2		12	10.0	2.5	/experiments/AOT/AOT_stimuli/rescaled_final/2126_rv.mp4	0.0	179.5462749004364	0.09996891021728516
13	157.37411379814148	fix_pre	0		120	11.0	2.5	/experiments/AOT/AOT_stimuli/rescaled_final/1172_rv.mp4	0.0	179.6462438106537	1.0000391006469727
13	158.37415289878845	movie	1		243	11.0	2.5	/experiments/AOT/AOT_stimuli/rescaled_final/1172_rv.mp4	0.0	180.64628291130066	2.4999239444732666
13	158.75683283805847	pulse	1	t		11.0	2.5	/experiments/AOT/AOT_stimuli/rescaled_final/1172_rv.mp4	0.0	181.02896285057068	
13	160.35773491859436	pulse	1	t		11.0	2.5	/experiments/AOT/AOT_stimuli/rescaled_final/1172_rv.mp4	0.0	182.62986493110657	
13	160.87407684326172	fix_post	2		12	11.0	2.5	/experiments/AOT/AOT_stimuli/rescaled_final/1172_rv.mp4	0.0	183.14620685577393	0.10005402565002441
14	160.97413086891174	fix_pre	0		119	12.0	2.5	/experiments/AOT/AOT_stimuli/rescaled_final/1297_rv.mp4	0.0	183.24626088142395	0.9916510581970215
14	161.95764684677124	pulse	0	t		12.0	2.5	/experiments/AOT/AOT_stimuli/rescaled_final/1297_rv.mp4	0.0	184.22977685928345	
14	161.96578192710876	movie	1		244	12.0	2.5	/experiments/AOT/AOT_stimuli/rescaled_final/1297_rv.mp4	0.0	184.23791193962097	2.5084080696105957
14	163.55759286880493	pulse	1	t		12.0	2.5	/experiments/AOT/AOT_stimuli/rescaled_final/1297_rv.mp4	0.0	185.82972288131714	
14	164.47418999671936	fix_post	2		12	12.0	2.5	/experiments/AOT/AOT_stimuli/rescaled_final/1297_rv.mp4	0.0	186.74632000923157	0.09988784790039062
15	164.57407784461975	fix_pre	0		120	13.0	2.5	blank	1.0	186.84620785713196	1.00006103515625
15	165.15760588645935	pulse	0	t		13.0	2.5	blank	1.0	187.42973589897156	
15	165.574138879776	movie	1		300	13.0	2.5	blank	1.0	187.8462688922882	2.499943971633911
15	166.75764679908752	pulse	1	t		13.0	2.5	blank	1.0	189.02977681159973	
15	168.0740828514099	fix_post	2		12	13.0	2.5	blank	1.0	190.34621286392212	0.09998297691345215
16	168.17406582832336	fix_pre	0		120	14.0	2.5	/experiments/AOT/AOT_stimuli/rescaled_final/1124_rv.mp4	0.0	190.44619584083557	0.9999411106109619
16	168.3576009273529	pulse	0	t		14.0	2.5	/experiments/AOT/AOT_stimuli/rescaled_final/1124_rv.mp4	0.0	190.6297309398651	
16	169.17400693893433	movie	1		245	14.0	2.5	/experiments/AOT/AOT_stimuli/rescaled_final/1124_rv.mp4	0.0	191.44613695144653	2.500074863433838
16	169.95762395858765	pulse	1	t		14.0	2.5	/experiments/AOT/AOT_stimuli/rescaled_final/1124_rv.mp4	0.0	192.22975397109985	
16	171.5576319694519	pulse	1	t		14.0	2.5	/experiments/AOT/AOT_stimuli/rescaled_final/1124_rv.mp4	0.0	193.8297619819641	
16	171.67408180236816	fix_post	2		12	14.0	2.5	/experiments/AOT/AOT_stimuli/rescaled_final/1124_rv.mp4	0.0	193.94621181488037	0.10005497932434082
17	171.7741367816925	fix_pre	0		120	15.0	2.5	/experiments/AOT/AOT_stimuli/rescaled_final/0774_rv.mp4	0.0	194.0462667942047	0.9999980926513672
17	172.77413487434387	movie	1		247	15.0	2.5	/experiments/AOT/AOT_stimuli/rescaled_final/0774_rv.mp4	0.0	195.04626488685608	2.499936103820801
17	173.15780687332153	pulse	1	t		15.0	2.5	/experiments/AOT/AOT_stimuli/rescaled_final/0774_rv.mp4	0.0	195.42993688583374	
17	174.7575569152832	pulse	1	t		15.0	2.5	/experiments/AOT/AOT_stimuli/rescaled_final/0774_rv.mp4	0.0	197.0296869277954	
17	175.27407097816467	fix_post	2		12	15.0	2.5	/experiments/AOT/AOT_stimuli/rescaled_final/0774_rv.mp4	0.0	197.54620099067688	0.09996891021728516
18	175.37403988838196	fix_pre	0		119	16.0	2.5	/experiments/AOT/AOT_stimuli/rescaled_final/1993_fw.mp4	0.0	197.64616990089417	0.9916770458221436
18	176.3574948310852	pulse	0	t		16.0	2.5	/experiments/AOT/AOT_stimuli/rescaled_final/1993_fw.mp4	0.0	198.6296248435974	
18	176.3657169342041	movie	1		245	16.0	2.5	/experiments/AOT/AOT_stimuli/rescaled_final/1993_fw.mp4	0.0	198.6378469467163	2.508341073989868
18	177.9574258327484	pulse	1	t		16.0	2.5	/experiments/AOT/AOT_stimuli/rescaled_final/1993_fw.mp4	0.0	200.22955584526062	
18	178.87405800819397	fix_post	2		12	16.0	2.5	/experiments/AOT/AOT_stimuli/rescaled_final/1993_fw.mp4	0.0	201.14618802070618	0.10004591941833496
19	178.9741039276123	fix_pre	0		120	17.0	2.5	/experiments/AOT/AOT_stimuli/rescaled_final/1768_rv.mp4	0.0	201.2462339401245	1.0000028610229492
19	179.5576298236847	pulse	0	t		17.0	2.5	/experiments/AOT/AOT_stimuli/rescaled_final/1768_rv.mp4	0.0	201.8297598361969	
19	179.97410678863525	movie	1		243	17.0	2.5	/experiments/AOT/AOT_stimuli/rescaled_final/1768_rv.mp4	0.0	202.24623680114746	2.5000040531158447
19	181.15779089927673	pulse	1	t		17.0	2.5	/experiments/AOT/AOT_stimuli/rescaled_final/1768_rv.mp4	0.0	203.42992091178894	
19	182.4741108417511	fix_post	2		12	17.0	2.5	/experiments/AOT/AOT_stimuli/rescaled_final/1768_rv.mp4	0.0	204.7462408542633	0.09987497329711914
20	182.57398581504822	fix_pre	0		120	18.0	2.5	/experiments/AOT/AOT_stimuli/rescaled_final/0757_fw.mp4	0.0	204.84611582756042	1.0000121593475342
20	182.75747680664062	pulse	0	t		18.0	2.5	/experiments/AOT/AOT_stimuli/rescaled_final/0757_fw.mp4	0.0	205.02960681915283	
20	183.57399797439575	movie	1		244	18.0	2.5	/experiments/AOT/AOT_stimuli/rescaled_final/0757_fw.mp4	0.0	205.84612798690796	2.50003981590271
20	184.35758090019226	pulse	1	t		18.0	2.5	/experiments/AOT/AOT_stimuli/rescaled_final/0757_fw.mp4	0.0	206.62971091270447	
20	185.95760083198547	pulse	1	t		18.0	2.5	/experiments/AOT/AOT_stimuli/rescaled_final/0757_fw.mp4	0.0	208.22973084449768	
20	186.07403779029846	fix_post	2		12	18.0	2.5	/experiments/AOT/AOT_stimuli/rescaled_final/0757_fw.mp4	0.0	208.34616780281067	0.10003519058227539
21	186.17407298088074	fix_pre	0		120	19.0	2.5	/experiments/AOT/AOT_stimuli/rescaled_final/1958_fw.mp4	0.0	208.44620299339294	1.0000019073486328
21	187.17407488822937	movie	1		243	19.0	2.5	/experiments/AOT/AOT_stimuli/rescaled_final/1958_fw.mp4	0.0	209.44620490074158	2.4999639987945557
21	187.55708599090576	pulse	1	t		19.0	2.5	/experiments/AOT/AOT_stimuli/rescaled_final/1958_fw.mp4	0.0	209.82921600341797	
21	189.1575779914856	pulse	1	t		19.0	2.5	/experiments/AOT/AOT_stimuli/rescaled_final/1958_fw.mp4	0.0	211.4297080039978	
21	189.67403888702393	fix_post	2		12	19.0	2.5	/experiments/AOT/AOT_stimuli/rescaled_final/1958_fw.mp4	0.0	211.94616889953613	0.09989595413208008
22	189.773934841156	fix_pre	0		119	20.0	2.5	blank	1.0	212.0460648536682	0.9917831420898438
22	190.75762486457825	pulse	0	t		20.0	2.5	blank	1.0	213.02975487709045	
22	190.76571798324585	movie	1		301	20.0	2.5	blank	1.0	213.03784799575806	2.5082638263702393
22	192.35751581192017	pulse	1	t		20.0	2.5	blank	1.0	214.62964582443237	
22	193.2739818096161	fix_post	2		12	20.0	2.5	blank	1.0	215.5461118221283	0.1000070571899414
23	193.37398886680603	fix_pre	0		120	21.0	2.5	/experiments/AOT/AOT_stimuli/rescaled_final/0488_fw.mp4	0.0	215.64611887931824	0.9999959468841553
23	193.95758295059204	pulse	0	t		21.0	2.5	/experiments/AOT/AOT_stimuli/rescaled_final/0488_fw.mp4	0.0	216.22971296310425	
23	194.37398481369019	movie	1		245	21.0	2.5	/experiments/AOT/AOT_stimuli/rescaled_final/0488_fw.mp4	0.0	216.6461148262024	2.4999451637268066
23	195.5575978755951	pulse	1	t		21.0	2.5	/experiments/AOT/AOT_stimuli/rescaled_final/0488_fw.mp4	0.0	217.8297278881073	
23	196.873929977417	fix_post	2		12	21.0	2.5	/experiments/AOT/AOT_stimuli/rescaled_final/0488_fw.mp4	0.0	219.1460599899292	0.10004496574401855
24	196.973974943161	fix_pre	0		120	22.0	2.5	/experiments/AOT/AOT_stimuli/rescaled_final/0934_rv.mp4	0.0	219.24610495567322	0.9999878406524658
24	197.1574718952179	pulse	0	t		22.0	2.5	/experiments/AOT/AOT_stimuli/rescaled_final/0934_rv.mp4	0.0	219.4296019077301	
24	197.97396278381348	movie	1		243	22.0	2.5	/experiments/AOT/AOT_stimuli/rescaled_final/0934_rv.mp4	0.0	220.24609279632568	2.5000810623168945
24	198.75742983818054	pulse	1	t		22.0	2.5	/experiments/AOT/AOT_stimuli/rescaled_final/0934_rv.mp4	0.0	221.02955985069275	
24	200.35566997528076	pulse	1	t		22.0	2.5	/experiments/AOT/AOT_stimuli/rescaled_final/0934_rv.mp4	0.0	222.62779998779297	
24	200.47404384613037	fix_post	2		12	22.0	2.5	/experiments/AOT/AOT_stimuli/rescaled_final/0934_rv.mp4	0.0	222.74617385864258	0.09996700286865234
25	200.57401084899902	fix_pre	0		120	23.0	2.5	/experiments/AOT/AOT_stimuli/rescaled_final/2087_rv.mp4	0.0	222.84614086151123	0.9998829364776611
25	201.57389378547668	movie	1		243	23.0	2.5	/experiments/AOT/AOT_stimuli/rescaled_final/2087_rv.mp4	0.0	223.8460237979889	2.5002520084381104
25	201.95709586143494	pulse	1	t		23.0	2.5	/experiments/AOT/AOT_stimuli/rescaled_final/2087_rv.mp4	0.0	224.22922587394714	
25	203.55756187438965	pulse	1	t		23.0	2.5	/experiments/AOT/AOT_stimuli/rescaled_final/2087_rv.mp4	0.0	225.82969188690186	
25	204.0741457939148	fix_post	2		12	23.0	2.5	/experiments/AOT/AOT_stimuli/rescaled_final/2087_rv.mp4	0.0	226.346275806427	0.1000831127166748
26	204.17422890663147	fix_pre	0		119	24.0	2.5	/experiments/AOT/AOT_stimuli/rescaled_final/1588_fw.mp4	0.0	226.44635891914368	0.9912939071655273
26	205.1573498249054	pulse	0	t		24.0	2.5	/experiments/AOT/AOT_stimuli/rescaled_final/1588_fw.mp4	0.0	227.4294798374176	
26	205.165522813797	movie	1		247	24.0	2.5	/experiments/AOT/AOT_stimuli/rescaled_final/1588_fw.mp4	0.0	227.4376528263092	2.5083770751953125
26	206.75681281089783	pulse	1	t		24.0	2.5	/experiments/AOT/AOT_stimuli/rescaled_final/1588_fw.mp4	0.0	229.02894282341003	
26	207.6738998889923	fix_post	2		12	24.0	2.5	/experiments/AOT/AOT_stimuli/rescaled_final/1588_fw.mp4	0.0	229.94602990150452	0.10010910034179688
27	207.7740089893341	fix_pre	0		120	25.0	2.5	/experiments/AOT/AOT_stimuli/rescaled_final/1886_rv.mp4	0.0	230.0461390018463	0.9999089241027832
27	208.35865378379822	pulse	0	t		25.0	2.5	/experiments/AOT/AOT_stimuli/rescaled_final/1886_rv.mp4	0.0	230.63078379631042	
27	208.7739179134369	movie	1		243	25.0	2.5	/experiments/AOT/AOT_stimuli/rescaled_final/1886_rv.mp4	0.0	231.0460479259491	2.5000128746032715
27	209.9573998451233	pulse	1	t		25.0	2.5	/experiments/AOT/AOT_stimuli/rescaled_final/1886_rv.mp4	0.0	232.2295298576355	
27	211.27393078804016	fix_post	2		12	25.0	2.5	/experiments/AOT/AOT_stimuli/rescaled_final/1886_rv.mp4	0.0	233.54606080055237	0.100006103515625
28	211.3739368915558	fix_pre	0		120	26.0	2.5	/experiments/AOT/AOT_stimuli/rescaled_final/1698_rv.mp4	0.0	233.646066904068	0.9999868869781494
28	211.55738401412964	pulse	0	t		26.0	2.5	/experiments/AOT/AOT_stimuli/rescaled_final/1698_rv.mp4	0.0	233.82951402664185	
28	212.37392377853394	movie	1		245	26.0	2.5	/experiments/AOT/AOT_stimuli/rescaled_final/1698_rv.mp4	0.0	234.64605379104614	2.4996161460876465
28	213.15732383728027	pulse	1	t		26.0	2.5	/experiments/AOT/AOT_stimuli/rescaled_final/1698_rv.mp4	0.0	235.42945384979248	
28	214.75633478164673	pulse	1	t		26.0	2.5	/experiments/AOT/AOT_stimuli/rescaled_final/1698_rv.mp4	0.0	237.02846479415894	
28	214.87353992462158	fix_post	2		12	26.0	2.5	/experiments/AOT/AOT_stimuli/rescaled_final/1698_rv.mp4	0.0	237.1456699371338	0.10031795501708984
29	214.97385787963867	fix_pre	0		120	27.0	2.5	/experiments/AOT/AOT_stimuli/rescaled_final/1341_fw.mp4	0.0	237.24598789215088	1.0000081062316895
29	215.97386598587036	movie	1		247	27.0	2.5	/experiments/AOT/AOT_stimuli/rescaled_final/1341_fw.mp4	0.0	238.24599599838257	2.4999678134918213
29	216.35706901550293	pulse	1	t		27.0	2.5	/experiments/AOT/AOT_stimuli/rescaled_final/1341_fw.mp4	0.0	238.62919902801514	
29	217.9573278427124	pulse	1	t		27.0	2.5	/experiments/AOT/AOT_stimuli/rescaled_final/1341_fw.mp4	0.0	240.2294578552246	
29	218.47383379936218	fix_post	2		12	27.0	2.5	/experiments/AOT/AOT_stimuli/rescaled_final/1341_fw.mp4	0.0	240.7459638118744	0.10001015663146973
30	218.57384395599365	fix_pre	0		119	28.0	2.5	blank	1.0	240.84597396850586	0.9916510581970215
30	219.55734086036682	pulse	0	t		28.0	2.5	blank	1.0	241.82947087287903	
30	219.56549501419067	movie	1		301	28.0	2.5	blank	1.0	241.83762502670288	2.5083727836608887
30	221.15734601020813	pulse	1	t		28.0	2.5	blank	1.0	243.42947602272034	
30	222.07386779785156	fix_post	2		12	28.0	2.5	blank	1.0	244.34599781036377	0.09993219375610352
31	222.17379999160767	fix_pre	0		120	29.0	2.5	/experiments/AOT/AOT_stimuli/rescaled_final/0777_fw.mp4	0.0	244.44593000411987	1.0000388622283936
31	222.7572739124298	pulse	0	t		29.0	2.5	/experiments/AOT/AOT_stimuli/rescaled_final/0777_fw.mp4	0.0	245.02940392494202	
31	223.17383885383606	movie	1		244	29.0	2.5	/experiments/AOT/AOT_stimuli/rescaled_final/0777_fw.mp4	0.0	245.44596886634827	2.4999401569366455
31	224.35735297203064	pulse	1	t		29.0	2.5	/experiments/AOT/AOT_stimuli/rescaled_final/0777_fw.mp4	0.0	246.62948298454285	
31	225.6737790107727	fix_post	2		12	29.0	2.5	/experiments/AOT/AOT_stimuli/rescaled_final/0777_fw.mp4	0.0	247.9459090232849	0.1001439094543457
32	225.77392292022705	fix_pre	0		120	30.0	2.5	/experiments/AOT/AOT_stimuli/rescaled_final/1298_fw.mp4	0.0	248.04605293273926	0.9999148845672607
32	225.95735883712769	pulse	0	t		30.0	2.5	/experiments/AOT/AOT_stimuli/rescaled_final/1298_fw.mp4	0.0	248.2294888496399	
32	226.7738378047943	movie	1		243	30.0	2.5	/experiments/AOT/AOT_stimuli/rescaled_final/1298_fw.mp4	0.0	249.04596781730652	2.4999911785125732
32	227.55739283561707	pulse	1	t		30.0	2.5	/experiments/AOT/AOT_stimuli/rescaled_final/1298_fw.mp4	0.0	249.82952284812927	
32	229.15552282333374	pulse	1	t		30.0	2.5	/experiments/AOT/AOT_stimuli/rescaled_final/1298_fw.mp4	0.0	251.42765283584595	
32	229.27382898330688	fix_post	2		12	30.0	2.5	/experiments/AOT/AOT_stimuli/rescaled_final/1298_fw.mp4	0.0	251.5459589958191	0.1000218391418457
33	229.37385082244873	fix_pre	0		120	31.0	2.5	/experiments/AOT/AOT_stimuli/rescaled_final/1554_fw.mp4	0.0	251.64598083496094	1.000002145767212
33	230.37385296821594	movie	1		244	31.0	2.5	/experiments/AOT/AOT_stimuli/rescaled_final/1554_fw.mp4	0.0	252.64598298072815	2.4999749660491943
33	230.75837087631226	pulse	1	t		31.0	2.5	/experiments/AOT/AOT_stimuli/rescaled_final/1554_fw.mp4	0.0	253.03050088882446	
33	232.35726499557495	pulse	1	t		31.0	2.5	/experiments/AOT/AOT_stimuli/rescaled_final/1554_fw.mp4	0.0	254.62939500808716	
33	232.87382793426514	fix_post	2		12	31.0	2.5	/experiments/AOT/AOT_stimuli/rescaled_final/1554_fw.mp4	0.0	255.14595794677734	0.09990501403808594
34	232.97373294830322	fix_pre	0		119	32.0	2.5	/experiments/AOT/AOT_stimuli/rescaled_final/1083_fw.mp4	0.0	255.24586296081543	0.991675853729248
34	233.95725679397583	pulse	0	t		32.0	2.5	/experiments/AOT/AOT_stimuli/rescaled_final/1083_fw.mp4	0.0	256.22938680648804	
34	233.96540880203247	movie	1		246	32.0	2.5	/experiments/AOT/AOT_stimuli/rescaled_final/1083_fw.mp4	0.0	256.2375388145447	2.5083730220794678
34	235.55849885940552	pulse	1	t		32.0	2.5	/experiments/AOT/AOT_stimuli/rescaled_final/1083_fw.mp4	0.0	257.8306288719177	
34	236.47378182411194	fix_post	2		12	32.0	2.5	/experiments/AOT/AOT_stimuli/rescaled_final/1083_fw.mp4	0.0	258.74591183662415	0.0999901294708252
35	236.57377195358276	fix_pre	0		120	33.0	2.5	/experiments/AOT/AOT_stimuli/rescaled_final/2151_rv.mp4	0.0	258.84590196609497	1.0000689029693604
35	237.15731191635132	pulse	0	t		33.0	2.5	/experiments/AOT/AOT_stimuli/rescaled_final/2151_rv.mp4	0.0	259.4294419288635	
35	237.57384085655212	movie	1		246	33.0	2.5	/experiments/AOT/AOT_stimuli/rescaled_final/2151_rv.mp4	0.0	259.84597086906433	2.4999780654907227
35	238.75738191604614	pulse	1	t		33.0	2.5	/experiments/AOT/AOT_stimuli/rescaled_final/2151_rv.mp4	0.0	261.02951192855835	
35	240.07381892204285	fix_post	2		12	33.0	2.5	/experiments/AOT/AOT_stimuli/rescaled_final/2151_rv.mp4	0.0	262.34594893455505	0.099578857421875
36	240.17339777946472	fix_pre	0		120	34.0	2.5	blank	1.0	262.44552779197693	1.0004332065582275
36	240.3573019504547	pulse	0	t		34.0	2.5	blank	1.0	262.6294319629669	
36	241.17383098602295	movie	1		300	34.0	2.5	blank	1.0	263.44596099853516	2.4999399185180664
36	241.95729279518127	pulse	1	t		34.0	2.5	blank	1.0	264.2294228076935	
36	243.5572738647461	pulse	1	t		34.0	2.5	blank	1.0	265.8294038772583	
36	243.67377090454102	fix_post	2		12	34.0	2.5	blank	1.0	265.9459009170532	0.0999898910522461
37	243.77376079559326	fix_pre	0		120	35.0	2.5	/experiments/AOT/AOT_stimuli/rescaled_final/1272_fw.mp4	0.0	266.04589080810547	1.0000309944152832
37	244.77379179000854	movie	1		245	35.0	2.5	/experiments/AOT/AOT_stimuli/rescaled_final/1272_fw.mp4	0.0	267.04592180252075	2.499886989593506
37	245.15739393234253	pulse	1	t		35.0	2.5	/experiments/AOT/AOT_stimuli/rescaled_final/1272_fw.mp4	0.0	267.42952394485474	
37	246.7572638988495	pulse	1	t		35.0	2.5	/experiments/AOT/AOT_stimuli/rescaled_final/1272_fw.mp4	0.0	269.0293939113617	
37	247.27367877960205	fix_post	2		12	35.0	2.5	/experiments/AOT/AOT_stimuli/rescaled_final/1272_fw.mp4	0.0	269.54580879211426	0.1000831127166748
38	247.37376189231873	fix_pre	0		119	36.0	2.5	/experiments/AOT/AOT_stimuli/rescaled_final/0448_fw.mp4	0.0	269.64589190483093	0.9916620254516602
38	248.35727381706238	pulse	0	t		36.0	2.5	/experiments/AOT/AOT_stimuli/rescaled_final/0448_fw.mp4	0.0	270.6294038295746	
38	248.36542391777039	movie	1		244	36.0	2.5	/experiments/AOT/AOT_stimuli/rescaled_final/0448_fw.mp4	0.0	270.6375539302826	2.5083608627319336
38	249.9566810131073	pulse	1	t		36.0	2.5	/experiments/AOT/AOT_stimuli/rescaled_final/0448_fw.mp4	0.0	272.2288110256195	
38	250.87378478050232	fix_post	2		12	36.0	2.5	/experiments/AOT/AOT_stimuli/rescaled_final/0448_fw.mp4	0.0	273.1459147930145	0.09995007514953613
39	250.97373485565186	fix_pre	0		120	37.0	2.5	/experiments/AOT/AOT_stimuli/rescaled_final/0385_rv.mp4	0.0	273.24586486816406	1.0000600814819336
39	251.55730295181274	pulse	0	t		37.0	2.5	/experiments/AOT/AOT_stimuli/rescaled_final/0385_rv.mp4	0.0	273.82943296432495	
39	251.9737949371338	movie	1		243	37.0	2.5	/experiments/AOT/AOT_stimuli/rescaled_final/0385_rv.mp4	0.0	274.245924949646	2.499903917312622
39	253.15725898742676	pulse	1	t		37.0	2.5	/experiments/AOT/AOT_stimuli/rescaled_final/0385_rv.mp4	0.0	275.42938899993896	
39	254.4736988544464	fix_post	2		12	37.0	2.5	/experiments/AOT/AOT_stimuli/rescaled_final/0385_rv.mp4	0.0	276.7458288669586	0.10003399848937988
40	254.5737328529358	fix_pre	0		120	38.0	2.5	/experiments/AOT/AOT_stimuli/rescaled_final/0599_fw.mp4	0.0	276.845862865448	0.9999840259552002
40	254.75722289085388	pulse	0	t		38.0	2.5	/experiments/AOT/AOT_stimuli/rescaled_final/0599_fw.mp4	0.0	277.0293529033661	
40	255.573716878891	movie	1		246	38.0	2.5	/experiments/AOT/AOT_stimuli/rescaled_final/0599_fw.mp4	0.0	277.8458468914032	2.500188112258911
40	256.3571238517761	pulse	1	t		38.0	2.5	/experiments/AOT/AOT_stimuli/rescaled_final/0599_fw.mp4	0.0	278.62925386428833	
40	257.9568519592285	pulse	1	t		38.0	2.5	/experiments/AOT/AOT_stimuli/rescaled_final/0599_fw.mp4	0.0	280.2289819717407	
40	258.0739049911499	fix_post	2		12	38.0	2.5	/experiments/AOT/AOT_stimuli/rescaled_final/0599_fw.mp4	0.0	280.3460350036621	0.09977483749389648
41	258.1736798286438	fix_pre	0		120	39.0	2.5	/experiments/AOT/AOT_stimuli/rescaled_final/1020_rv.mp4	0.0	280.445809841156	0.9997131824493408
41	259.17339301109314	movie	1		246	39.0	2.5	/experiments/AOT/AOT_stimuli/rescaled_final/1020_rv.mp4	0.0	281.44552302360535	2.5002939701080322
41	259.5586438179016	pulse	1	t		39.0	2.5	/experiments/AOT/AOT_stimuli/rescaled_final/1020_rv.mp4	0.0	281.8307738304138	
41	261.1571319103241	pulse	1	t		39.0	2.5	/experiments/AOT/AOT_stimuli/rescaled_final/1020_rv.mp4	0.0	283.4292619228363	
41	261.6736869812012	fix_post	2		12	39.0	2.5	/experiments/AOT/AOT_stimuli/rescaled_final/1020_rv.mp4	0.0	283.9458169937134	0.10004186630249023
42	261.77372884750366	fix_pre	0		119	40.0	2.5	/experiments/AOT/AOT_stimuli/rescaled_final/0815_rv.mp4	0.0	284.04585886001587	0.9917070865631104
42	262.7571759223938	pulse	0	t		40.0	2.5	/experiments/AOT/AOT_stimuli/rescaled_final/0815_rv.mp4	0.0	285.029305934906	
42	262.7654359340668	movie	1		245	40.0	2.5	/experiments/AOT/AOT_stimuli/rescaled_final/0815_rv.mp4	0.0	285.037565946579	2.5082039833068848
42	264.3567819595337	pulse	1	t		40.0	2.5	/experiments/AOT/AOT_stimuli/rescaled_final/0815_rv.mp4	0.0	286.6289119720459	
42	265.27363991737366	fix_post	2		12	40.0	2.5	/experiments/AOT/AOT_stimuli/rescaled_final/0815_rv.mp4	0.0	287.54576992988586	0.1000208854675293
43	265.3736608028412	fix_pre	0		120	41.0	2.5	blank	1.0	287.6457908153534	0.9999380111694336
43	265.95704889297485	pulse	0	t		41.0	2.5	blank	1.0	288.22917890548706	
43	266.3735988140106	movie	1		300	41.0	2.5	blank	1.0	288.6457288265228	2.500014066696167
43	267.5571129322052	pulse	1	t		41.0	2.5	blank	1.0	289.8292429447174	
43	268.8736128807068	fix_post	2		12	41.0	2.5	blank	1.0	291.145742893219	0.09999990463256836
44	268.97361278533936	fix_pre	0		120	42.0	2.5	/experiments/AOT/AOT_stimuli/rescaled_final/1865_rv.mp4	0.0	291.24574279785156	1.0000371932983398
44	269.15712881088257	pulse	0	t		42.0	2.5	/experiments/AOT/AOT_stimuli/rescaled_final/1865_rv.mp4	0.0	291.4292588233948	
44	269.9736499786377	movie	1		243	42.0	2.5	/experiments/AOT/AOT_stimuli/rescaled_final/1865_rv.mp4	0.0	292.2457799911499	2.499567985534668
44	270.7570538520813	pulse	1	t		42.0	2.5	/experiments/AOT/AOT_stimuli/rescaled_final/1865_rv.mp4	0.0	293.0291838645935	
44	272.3654909133911	pulse	1	t		42.0	2.5	/experiments/AOT/AOT_stimuli/rescaled_final/1865_rv.mp4	0.0	294.6376209259033	
44	272.47321796417236	fix_post	2		12	42.0	2.5	/experiments/AOT/AOT_stimuli/rescaled_final/1865_rv.mp4	0.0	294.74534797668457	0.1003880500793457
45	272.5736060142517	fix_pre	0		120	43.0	2.5	/experiments/AOT/AOT_stimuli/rescaled_final/0687_rv.mp4	0.0	294.8457360267639	0.9999918937683105
45	273.57359790802	movie	1		244	43.0	2.5	/experiments/AOT/AOT_stimuli/rescaled_final/0687_rv.mp4	0.0	295.8457279205322	2.5000128746032715
45	273.95726799964905	pulse	1	t		43.0	2.5	/experiments/AOT/AOT_stimuli/rescaled_final/0687_rv.mp4	0.0	296.22939801216125	
45	275.5570340156555	pulse	1	t		43.0	2.5	/experiments/AOT/AOT_stimuli/rescaled_final/0687_rv.mp4	0.0	297.8291640281677	
45	276.0736107826233	fix_post	2		12	43.0	2.5	/experiments/AOT/AOT_stimuli/rescaled_final/0687_rv.mp4	0.0	298.3457407951355	0.09998512268066406
46	276.17359590530396	fix_pre	0		119	44.0	2.5	/experiments/AOT/AOT_stimuli/rescaled_final/0872_fw.mp4	0.0	298.44572591781616	0.9916520118713379
46	277.1571388244629	pulse	0	t		44.0	2.5	/experiments/AOT/AOT_stimuli/rescaled_final/0872_fw.mp4	0.0	299.4292688369751	
46	277.1652479171753	movie	1		246	44.0	2.5	/experiments/AOT/AOT_stimuli/rescaled_final/0872_fw.mp4	0.0	299.4373779296875	2.508275032043457
46	278.7570698261261	pulse	1	t		44.0	2.5	/experiments/AOT/AOT_stimuli/rescaled_final/0872_fw.mp4	0.0	301.0291998386383	
46	279.67352294921875	fix_post	2		12	44.0	2.5	/experiments/AOT/AOT_stimuli/rescaled_final/0872_fw.mp4	0.0	301.94565296173096	0.10007405281066895
47	279.7735970020294	fix_pre	0		120	45.0	2.5	/experiments/AOT/AOT_stimuli/rescaled_final/1563_rv.mp4	0.0	302.0457270145416	0.9999089241027832
47	280.3571538925171	pulse	0	t		45.0	2.5	/experiments/AOT/AOT_stimuli/rescaled_final/1563_rv.mp4	0.0	302.6292839050293	
47	280.7735059261322	movie	1		245	45.0	2.5	/experiments/AOT/AOT_stimuli/rescaled_final/1563_rv.mp4	0.0	303.0456359386444	2.4996230602264404
47	281.95722699165344	pulse	1	t		45.0	2.5	/experiments/AOT/AOT_stimuli/rescaled_final/1563_rv.mp4	0.0	304.22935700416565	
47	283.27312898635864	fix_post	2		12	45.0	2.5	/experiments/AOT/AOT_stimuli/rescaled_final/1563_rv.mp4	0.0	305.54525899887085	0.10049796104431152
48	283.37362694740295	fix_pre	0		120	46.0	2.5	/experiments/AOT/AOT_stimuli/rescaled_final/0488_fw.mp4	0.0	305.64575695991516	0.9999308586120605
48	283.5570888519287	pulse	0	t		46.0	2.5	/experiments/AOT/AOT_stimuli/rescaled_final/0488_fw.mp4	0.0	305.8292188644409	
48	284.373557806015	movie	1		246	46.0	2.5	/experiments/AOT/AOT_stimuli/rescaled_final/0488_fw.mp4	0.0	306.6456878185272	2.500089168548584
48	285.157114982605	pulse	1	t		46.0	2.5	/experiments/AOT/AOT_stimuli/rescaled_final/0488_fw.mp4	0.0	307.4292449951172	
48	286.7557179927826	pulse	1	t		46.0	2.5	/experiments/AOT/AOT_stimuli/rescaled_final/0488_fw.mp4	0.0	309.0278480052948	
48	286.8736469745636	fix_post	2		12	46.0	2.5	/experiments/AOT/AOT_stimuli/rescaled_final/0488_fw.mp4	0.0	309.1457769870758	0.0998849868774414
49	286.97353196144104	fix_pre	0		120	47.0	2.5	blank	1.0	309.24566197395325	1.0002498626708984
49	287.97378182411194	movie	1		300	47.0	2.5	blank	1.0	310.24591183662415	2.4997191429138184
49	288.35701394081116	pulse	1	t		47.0	2.5	blank	1.0	310.62914395332336	
49	289.9569818973541	pulse	1	t		47.0	2.5	blank	1.0	312.22911190986633	
49	290.47350096702576	fix_post	2		12	47.0	2.5	blank	1.0	312.74563097953796	0.10002303123474121
50	290.5735239982605	fix_pre	0		119	48.0	2.5	/experiments/AOT/AOT_stimuli/rescaled_final/0893_rv.mp4	0.0	312.8456540107727	0.9916818141937256
50	291.55699586868286	pulse	0	t		48.0	2.5	/experiments/AOT/AOT_stimuli/rescaled_final/0893_rv.mp4	0.0	313.82912588119507	
50	291.5652058124542	movie	1		244	48.0	2.5	/experiments/AOT/AOT_stimuli/rescaled_final/0893_rv.mp4	0.0	313.83733582496643	2.50828218460083
50	293.1570019721985	pulse	1	t		48.0	2.5	/experiments/AOT/AOT_stimuli/rescaled_final/0893_rv.mp4	0.0	315.4291319847107	
50	294.07348799705505	fix_post	2		12	48.0	2.5	/experiments/AOT/AOT_stimuli/rescaled_final/0893_rv.mp4	0.0	316.34561800956726	0.09957599639892578
51	294.173063993454	fix_pre	0		120	49.0	2.5	/experiments/AOT/AOT_stimuli/rescaled_final/0873_rv.mp4	0.0	316.4451940059662	1.0004417896270752
51	294.75696778297424	pulse	0	t		49.0	2.5	/experiments/AOT/AOT_stimuli/rescaled_final/0873_rv.mp4	0.0	317.02909779548645	
51	295.17350578308105	movie	1		243	49.0	2.5	/experiments/AOT/AOT_stimuli/rescaled_final/0873_rv.mp4	0.0	317.44563579559326	2.5000271797180176
51	296.3570659160614	pulse	1	t		49.0	2.5	/experiments/AOT/AOT_stimuli/rescaled_final/0873_rv.mp4	0.0	318.6291959285736	
51	297.6735329627991	fix_post	2		12	49.0	2.5	/experiments/AOT/AOT_stimuli/rescaled_final/0873_rv.mp4	0.0	319.9456629753113	0.09992289543151855
52	297.7734558582306	fix_pre	0		120	50.0	2.5	/experiments/AOT/AOT_stimuli/rescaled_final/1993_fw.mp4	0.0	320.0455858707428	1.000196933746338
52	297.9569900035858	pulse	0	t		50.0	2.5	/experiments/AOT/AOT_stimuli/rescaled_final/1993_fw.mp4	0.0	320.229120016098	
52	298.77365279197693	movie	1		246	50.0	2.5	/experiments/AOT/AOT_stimuli/rescaled_final/1993_fw.mp4	0.0	321.04578280448914	2.499878168106079
52	299.55702686309814	pulse	1	t		50.0	2.5	/experiments/AOT/AOT_stimuli/rescaled_final/1993_fw.mp4	0.0	321.82915687561035	
52	301.1554608345032	pulse	1	t		50.0	2.5	/experiments/AOT/AOT_stimuli/rescaled_final/1993_fw.mp4	0.0	323.4275908470154	
52	301.273530960083	fix_post	2		12	50.0	2.5	/experiments/AOT/AOT_stimuli/rescaled_final/1993_fw.mp4	0.0	323.5456609725952	0.0995478630065918
53	301.3730788230896	fix_pre	0		120	51.0	2.5	/experiments/AOT/AOT_stimuli/rescaled_final/1093_rv.mp4	0.0	323.6452088356018	1.0003430843353271
53	302.3734219074249	movie	1		245	51.0	2.5	/experiments/AOT/AOT_stimuli/rescaled_final/1093_rv.mp4	0.0	324.64555191993713	2.500019073486328
53	302.7580659389496	pulse	1	t		51.0	2.5	/experiments/AOT/AOT_stimuli/rescaled_final/1093_rv.mp4	0.0	325.0301959514618	
53	304.3569178581238	pulse	1	t		51.0	2.5	/experiments/AOT/AOT_stimuli/rescaled_final/1093_rv.mp4	0.0	326.629047870636	
53	304.87344098091125	fix_post	2		12	51.0	2.5	/experiments/AOT/AOT_stimuli/rescaled_final/1093_rv.mp4	0.0	327.14557099342346	0.0999908447265625
54	304.9734318256378	fix_pre	0		119	52.0	2.5	/experiments/AOT/AOT_stimuli/rescaled_final/0599_fw.mp4	0.0	327.24556183815	0.9917221069335938
54	305.95708298683167	pulse	0	t		52.0	2.5	/experiments/AOT/AOT_stimuli/rescaled_final/0599_fw.mp4	0.0	328.2292129993439	
54	305.9651539325714	movie	1		246	52.0	2.5	/experiments/AOT/AOT_stimuli/rescaled_final/0599_fw.mp4	0.0	328.2372839450836	2.5082430839538574
54	307.5567247867584	pulse	1	t		52.0	2.5	/experiments/AOT/AOT_stimuli/rescaled_final/0599_fw.mp4	0.0	329.82885479927063	
54	308.47339701652527	fix_post	2		12	52.0	2.5	/experiments/AOT/AOT_stimuli/rescaled_final/0599_fw.mp4	0.0	330.7455270290375	0.10003781318664551
55	308.5734348297119	fix_pre	0		120	53.0	2.5	/experiments/AOT/AOT_stimuli/rescaled_final/1428_fw.mp4	0.0	330.8455648422241	0.9999740123748779
55	309.1568238735199	pulse	0	t		53.0	2.5	/experiments/AOT/AOT_stimuli/rescaled_final/1428_fw.mp4	0.0	331.4289538860321	
55	309.5734088420868	movie	1		248	53.0	2.5	/experiments/AOT/AOT_stimuli/rescaled_final/1428_fw.mp4	0.0	331.845538854599	2.500185012817383
55	310.75685691833496	pulse	1	t		53.0	2.5	/experiments/AOT/AOT_stimuli/rescaled_final/1428_fw.mp4	0.0	333.02898693084717	
55	312.0735938549042	fix_post	2		12	53.0	2.5	/experiments/AOT/AOT_stimuli/rescaled_final/1428_fw.mp4	0.0	334.3457238674164	0.0999000072479248
56	312.1734938621521	fix_pre	0		120	54.0	2.5	/experiments/AOT/AOT_stimuli/rescaled_final/0762_fw.mp4	0.0	334.4456238746643	1.000007152557373
56	312.3570439815521	pulse	0	t		54.0	2.5	/experiments/AOT/AOT_stimuli/rescaled_final/0762_fw.mp4	0.0	334.62917399406433	
56	313.1735010147095	movie	1		245	54.0	2.5	/experiments/AOT/AOT_stimuli/rescaled_final/0762_fw.mp4	0.0	335.4456310272217	2.500159978866577
56	313.95640087127686	pulse	1	t		54.0	2.5	/experiments/AOT/AOT_stimuli/rescaled_final/0762_fw.mp4	0.0	336.22853088378906	
56	315.55663084983826	pulse	1	t		54.0	2.5	/experiments/AOT/AOT_stimuli/rescaled_final/0762_fw.mp4	0.0	337.82876086235046	
56	315.67366099357605	fix_post	2		12	54.0	2.5	/experiments/AOT/AOT_stimuli/rescaled_final/0762_fw.mp4	0.0	337.94579100608826	0.09954094886779785
57	315.77320194244385	fix_pre	0		120	55.0	2.5	/experiments/AOT/AOT_stimuli/rescaled_final/0612_fw.mp4	0.0	338.04533195495605	1.0005149841308594
57	316.7737169265747	movie	1		244	55.0	2.5	/experiments/AOT/AOT_stimuli/rescaled_final/0612_fw.mp4	0.0	339.0458469390869	2.499711036682129
57	317.15629982948303	pulse	1	t		55.0	2.5	/experiments/AOT/AOT_stimuli/rescaled_final/0612_fw.mp4	0.0	339.42842984199524	
57	318.75680589675903	pulse	1	t		55.0	2.5	/experiments/AOT/AOT_stimuli/rescaled_final/0612_fw.mp4	0.0	341.02893590927124	
57	319.27342796325684	fix_post	2		12	55.0	2.5	/experiments/AOT/AOT_stimuli/rescaled_final/0612_fw.mp4	0.0	341.54555797576904	0.09996485710144043
58	319.3733928203583	fix_pre	0		119	56.0	2.5	blank	1.0	341.6455228328705	0.9916431903839111
58	320.356880903244	pulse	0	t		56.0	2.5	blank	1.0	342.6290109157562	
58	320.3650360107422	movie	1		301	56.0	2.5	blank	1.0	342.6371660232544	2.508314847946167
58	321.9567668437958	pulse	1	t		56.0	2.5	blank	1.0	344.228896856308	
58	322.87335085868835	fix_post	2		12	56.0	2.5	blank	1.0	345.14548087120056	0.10002303123474121
59	322.9733738899231	fix_pre	0		120	57.0	2.5	/experiments/AOT/AOT_stimuli/rescaled_final/0042_rv.mp4	0.0	345.2455039024353	0.9999270439147949
59	323.55680894851685	pulse	0	t		57.0	2.5	/experiments/AOT/AOT_stimuli/rescaled_final/0042_rv.mp4	0.0	345.82893896102905	
59	323.9733009338379	movie	1		247	57.0	2.5	/experiments/AOT/AOT_stimuli/rescaled_final/0042_rv.mp4	0.0	346.2454309463501	2.500123977661133
59	325.15678095817566	pulse	1	t		57.0	2.5	/experiments/AOT/AOT_stimuli/rescaled_final/0042_rv.mp4	0.0	347.42891097068787	
59	326.473424911499	fix_post	2		12	57.0	2.5	/experiments/AOT/AOT_stimuli/rescaled_final/0042_rv.mp4	0.0	348.74555492401123	0.09989309310913086
60	326.57331800460815	fix_pre	0		120	58.0	2.5	/experiments/AOT/AOT_stimuli/rescaled_final/0205_rv.mp4	0.0	348.84544801712036	0.9999527931213379
60	326.75679779052734	pulse	0	t		58.0	2.5	/experiments/AOT/AOT_stimuli/rescaled_final/0205_rv.mp4	0.0	349.02892780303955	
60	327.5732707977295	movie	1		246	58.0	2.5	/experiments/AOT/AOT_stimuli/rescaled_final/0205_rv.mp4	0.0	349.8454008102417	2.5000710487365723
60	328.3567228317261	pulse	1	t		58.0	2.5	/experiments/AOT/AOT_stimuli/rescaled_final/0205_rv.mp4	0.0	350.6288528442383	
60	329.95675587654114	pulse	1	t		58.0	2.5	/experiments/AOT/AOT_stimuli/rescaled_final/0205_rv.mp4	0.0	352.22888588905334	
60	330.07334184646606	fix_post	2		12	58.0	2.5	/experiments/AOT/AOT_stimuli/rescaled_final/0205_rv.mp4	0.0	352.34547185897827	0.0999910831451416
61	330.1733329296112	fix_pre	0		120	59.0	2.5	/experiments/AOT/AOT_stimuli/rescaled_final/0392_fw.mp4	0.0	352.4454629421234	0.9999740123748779
61	331.1733069419861	movie	1		245	59.0	2.5	/experiments/AOT/AOT_stimuli/rescaled_final/0392_fw.mp4	0.0	353.4454369544983	2.500011920928955
61	331.55790996551514	pulse	1	t		59.0	2.5	/experiments/AOT/AOT_stimuli/rescaled_final/0392_fw.mp4	0.0	353.83003997802734	
61	333.15674781799316	pulse	1	t		59.0	2.5	/experiments/AOT/AOT_stimuli/rescaled_final/0392_fw.mp4	0.0	355.42887783050537	
61	333.67331886291504	fix_post	2		12	59.0	2.5	/experiments/AOT/AOT_stimuli/rescaled_final/0392_fw.mp4	0.0	355.94544887542725	0.09998512268066406
62	333.7733039855957	fix_pre	0		119	60.0	2.5	/experiments/AOT/AOT_stimuli/rescaled_final/0872_rv.mp4	0.0	356.0454339981079	0.9916739463806152
62	334.7568938732147	pulse	0	t		60.0	2.5	/experiments/AOT/AOT_stimuli/rescaled_final/0872_rv.mp4	0.0	357.02902388572693	
62	334.7649779319763	movie	1		246	60.0	2.5	/experiments/AOT/AOT_stimuli/rescaled_final/0872_rv.mp4	0.0	357.0371079444885	2.5082828998565674
62	336.3563268184662	pulse	1	t		60.0	2.5	/experiments/AOT/AOT_stimuli/rescaled_final/0872_rv.mp4	0.0	358.6284568309784	
62	337.2732608318329	fix_post	2		12	60.0	2.5	/experiments/AOT/AOT_stimuli/rescaled_final/0872_rv.mp4	0.0	359.5453908443451	0.09993410110473633
63	337.3731949329376	fix_pre	0		120	61.0	2.5	/experiments/AOT/AOT_stimuli/rescaled_final/1797_rv.mp4	0.0	359.64532494544983	1.0000519752502441
63	337.9566659927368	pulse	0	t		61.0	2.5	/experiments/AOT/AOT_stimuli/rescaled_final/1797_rv.mp4	0.0	360.228796005249	
63	338.37324690818787	movie	1		244	61.0	2.5	/experiments/AOT/AOT_stimuli/rescaled_final/1797_rv.mp4	0.0	360.6453769207001	2.4999630451202393
63	339.55685687065125	pulse	1	t		61.0	2.5	/experiments/AOT/AOT_stimuli/rescaled_final/1797_rv.mp4	0.0	361.82898688316345	
63	340.8732099533081	fix_post	2		12	61.0	2.5	/experiments/AOT/AOT_stimuli/rescaled_final/1797_rv.mp4	0.0	363.1453399658203	0.10002398490905762
64	340.97323393821716	fix_pre	0		120	62.0	2.5	blank	1.0	363.24536395072937	0.9999358654022217
64	341.1567769050598	pulse	0	t		62.0	2.5	blank	1.0	363.428906917572	
64	341.9731698036194	movie	1		300	62.0	2.5	blank	1.0	364.2452998161316	2.500101089477539
64	342.75675892829895	pulse	1	t		62.0	2.5	blank	1.0	365.02888894081116	
64	344.356645822525	pulse	1	t		62.0	2.5	blank	1.0	366.62877583503723	
64	344.4732708930969	fix_post	2		12	62.0	2.5	blank	1.0	366.74540090560913	0.09999704360961914
65	344.57326793670654	fix_pre	0		120	63.0	2.5	/experiments/AOT/AOT_stimuli/rescaled_final/0669_fw.mp4	0.0	366.84539794921875	0.9999940395355225
65	345.57326197624207	movie	1		247	63.0	2.5	/experiments/AOT/AOT_stimuli/rescaled_final/0669_fw.mp4	0.0	367.8453919887543	2.5000648498535156
65	345.9563698768616	pulse	1	t		63.0	2.5	/experiments/AOT/AOT_stimuli/rescaled_final/0669_fw.mp4	0.0	368.2284998893738	
65	347.55665493011475	pulse	1	t		63.0	2.5	/experiments/AOT/AOT_stimuli/rescaled_final/0669_fw.mp4	0.0	369.82878494262695	
65	348.0733268260956	fix_post	2		12	63.0	2.5	/experiments/AOT/AOT_stimuli/rescaled_final/0669_fw.mp4	0.0	370.3454568386078	0.09990096092224121
66	348.1732277870178	fix_pre	0		119	64.0	2.5	/experiments/AOT/AOT_stimuli/rescaled_final/2087_fw.mp4	0.0	370.44535779953003	0.9916610717773438
66	349.1566917896271	pulse	0	t		64.0	2.5	/experiments/AOT/AOT_stimuli/rescaled_final/2087_fw.mp4	0.0	371.4288218021393	
66	349.16488885879517	movie	1		245	64.0	2.5	/experiments/AOT/AOT_stimuli/rescaled_final/2087_fw.mp4	0.0	371.4370188713074	2.5079410076141357
66	350.7580029964447	pulse	1	t		64.0	2.5	/experiments/AOT/AOT_stimuli/rescaled_final/2087_fw.mp4	0.0	373.0301330089569	
66	351.6728298664093	fix_post	2		12	64.0	2.5	/experiments/AOT/AOT_stimuli/rescaled_final/2087_fw.mp4	0.0	373.9449598789215	0.10039806365966797
67	351.77322793006897	fix_pre	0		120	65.0	2.5	/experiments/AOT/AOT_stimuli/rescaled_final/2143_fw.mp4	0.0	374.0453579425812	0.9999818801879883
67	352.3566839694977	pulse	0	t		65.0	2.5	/experiments/AOT/AOT_stimuli/rescaled_final/2143_fw.mp4	0.0	374.6288139820099	
67	352.77320981025696	movie	1		242	65.0	2.5	/experiments/AOT/AOT_stimuli/rescaled_final/2143_fw.mp4	0.0	375.04533982276917	2.5000720024108887
67	353.9567937850952	pulse	1	t		65.0	2.5	/experiments/AOT/AOT_stimuli/rescaled_final/2143_fw.mp4	0.0	376.2289237976074	
67	355.27328181266785	fix_post	2		12	65.0	2.5	/experiments/AOT/AOT_stimuli/rescaled_final/2143_fw.mp4	0.0	377.54541182518005	0.09993720054626465
68	355.3732190132141	fix_pre	0		120	66.0	2.5	/experiments/AOT/AOT_stimuli/rescaled_final/1083_fw.mp4	0.0	377.6453490257263	0.999992847442627
68	355.556688785553	pulse	0	t		66.0	2.5	/experiments/AOT/AOT_stimuli/rescaled_final/1083_fw.mp4	0.0	377.8288187980652	
68	356.37321186065674	movie	1		245	66.0	2.5	/experiments/AOT/AOT_stimuli/rescaled_final/1083_fw.mp4	0.0	378.64534187316895	2.4999170303344727
68	357.15668296813965	pulse	1	t		66.0	2.5	/experiments/AOT/AOT_stimuli/rescaled_final/1083_fw.mp4	0.0	379.42881298065186	
68	358.76504778862	pulse	1	t		66.0	2.5	/experiments/AOT/AOT_stimuli/rescaled_final/1083_fw.mp4	0.0	381.0371778011322	
68	358.8731288909912	fix_post	2		12	66.0	2.5	/experiments/AOT/AOT_stimuli/rescaled_final/1083_fw.mp4	0.0	381.1452589035034	0.10010790824890137
69	358.9732367992401	fix_pre	0		120	67.0	2.5	/experiments/AOT/AOT_stimuli/rescaled_final/0732_fw.mp4	0.0	381.2453668117523	0.9999101161956787
69	359.9731469154358	movie	1		245	67.0	2.5	/experiments/AOT/AOT_stimuli/rescaled_final/0732_fw.mp4	0.0	382.245276927948	2.500070095062256
69	360.35696482658386	pulse	1	t		67.0	2.5	/experiments/AOT/AOT_stimuli/rescaled_final/0732_fw.mp4	0.0	382.62909483909607	
69	361.9565198421478	pulse	1	t		67.0	2.5	/experiments/AOT/AOT_stimuli/rescaled_final/0732_fw.mp4	0.0	384.22864985466003	
69	362.47321701049805	fix_post	2		12	67.0	2.5	/experiments/AOT/AOT_stimuli/rescaled_final/0732_fw.mp4	0.0	384.74534702301025	0.09993100166320801
70	362.57314801216125	fix_pre	0		119	68.0	2.5	/experiments/AOT/AOT_stimuli/rescaled_final/1268_fw.mp4	0.0	384.84527802467346	0.9916079044342041
70	363.5566008090973	pulse	0	t		68.0	2.5	/experiments/AOT/AOT_stimuli/rescaled_final/1268_fw.mp4	0.0	385.8287308216095	
70	363.56475591659546	movie	1		246	68.0	2.5	/experiments/AOT/AOT_stimuli/rescaled_final/1268_fw.mp4	0.0	385.83688592910767	2.5084290504455566
70	365.1570818424225	pulse	1	t		68.0	2.5	/experiments/AOT/AOT_stimuli/rescaled_final/1268_fw.mp4	0.0	387.4292118549347	
70	366.073184967041	fix_post	2		12	68.0	2.5	/experiments/AOT/AOT_stimuli/rescaled_final/1268_fw.mp4	0.0	388.3453149795532	0.09991788864135742
71	366.1731028556824	fix_pre	0		120	69.0	2.5	blank	1.0	388.4452328681946	1.0000591278076172
71	366.7566409111023	pulse	0	t		69.0	2.5	blank	1.0	389.0287709236145	
71	367.17316198349	movie	1		300	69.0	2.5	blank	1.0	389.4452919960022	2.4999828338623047
71	368.35660195350647	pulse	1	t		69.0	2.5	blank	1.0	390.6287319660187	
71	369.6731448173523	fix_post	2		12	69.0	2.5	blank	1.0	391.9452748298645	0.10000801086425781
72	369.77315282821655	fix_pre	0		120	70.0	2.5	/experiments/AOT/AOT_stimuli/rescaled_final/2151_fw.mp4	0.0	392.04528284072876	1.0000369548797607
72	369.95619797706604	pulse	0	t		70.0	2.5	/experiments/AOT/AOT_stimuli/rescaled_final/2151_fw.mp4	0.0	392.22832798957825	
72	370.7731897830963	movie	1		246	70.0	2.5	/experiments/AOT/AOT_stimuli/rescaled_final/2151_fw.mp4	0.0	393.0453197956085	2.500040054321289
72	371.5562620162964	pulse	1	t		70.0	2.5	/experiments/AOT/AOT_stimuli/rescaled_final/2151_fw.mp4	0.0	393.8283920288086	
72	373.1566119194031	pulse	1	t		70.0	2.5	/experiments/AOT/AOT_stimuli/rescaled_final/2151_fw.mp4	0.0	395.4287419319153	
72	373.2732298374176	fix_post	2		12	70.0	2.5	/experiments/AOT/AOT_stimuli/rescaled_final/2151_fw.mp4	0.0	395.5453598499298	0.09993696212768555
73	373.3731667995453	fix_pre	0		120	71.0	2.5	/experiments/AOT/AOT_stimuli/rescaled_final/2065_rv.mp4	0.0	395.6452968120575	0.9999351501464844
73	374.3731019496918	movie	1		244	71.0	2.5	/experiments/AOT/AOT_stimuli/rescaled_final/2065_rv.mp4	0.0	396.645231962204	2.500002861022949
73	374.75636887550354	pulse	1	t		71.0	2.5	/experiments/AOT/AOT_stimuli/rescaled_final/2065_rv.mp4	0.0	397.02849888801575	
73	376.35654497146606	pulse	1	t		71.0	2.5	/experiments/AOT/AOT_stimuli/rescaled_final/2065_rv.mp4	0.0	398.62867498397827	
73	376.8731048107147	fix_post	2		12	71.0	2.5	/experiments/AOT/AOT_stimuli/rescaled_final/2065_rv.mp4	0.0	399.14523482322693	0.10001111030578613
74	376.9731159210205	fix_pre	0		119	72.0	2.5	/experiments/AOT/AOT_stimuli/rescaled_final/1136_fw.mp4	0.0	399.2452459335327	0.9915778636932373
74	377.9564778804779	pulse	0	t		72.0	2.5	/experiments/AOT/AOT_stimuli/rescaled_final/1136_fw.mp4	0.0	400.2286078929901	
74	377.96469378471375	movie	1		246	72.0	2.5	/experiments/AOT/AOT_stimuli/rescaled_final/1136_fw.mp4	0.0	400.23682379722595	2.5083961486816406
74	379.55772280693054	pulse	1	t		72.0	2.5	/experiments/AOT/AOT_stimuli/rescaled_final/1136_fw.mp4	0.0	401.82985281944275	
74	380.4730899333954	fix_post	2		12	72.0	2.5	/experiments/AOT/AOT_stimuli/rescaled_final/1136_fw.mp4	0.0	402.7452199459076	0.10003805160522461
75	380.5731279850006	fix_pre	0		120	73.0	2.5	/experiments/AOT/AOT_stimuli/rescaled_final/0873_rv.mp4	0.0	402.8452579975128	0.9999148845672607
75	381.1564610004425	pulse	0	t		73.0	2.5	/experiments/AOT/AOT_stimuli/rescaled_final/0873_rv.mp4	0.0	403.4285910129547	
75	381.57304286956787	movie	1		243	73.0	2.5	/experiments/AOT/AOT_stimuli/rescaled_final/0873_rv.mp4	0.0	403.8451728820801	2.5000360012054443
75	382.75663590431213	pulse	1	t		73.0	2.5	/experiments/AOT/AOT_stimuli/rescaled_final/0873_rv.mp4	0.0	405.02876591682434	
75	384.0730788707733	fix_post	2		12	73.0	2.5	/experiments/AOT/AOT_stimuli/rescaled_final/0873_rv.mp4	0.0	406.3452088832855	0.09998106956481934
76	384.17305994033813	fix_pre	0		120	74.0	2.5	/experiments/AOT/AOT_stimuli/rescaled_final/0774_fw.mp4	0.0	406.44518995285034	1.0000550746917725
76	384.3564748764038	pulse	0	t		74.0	2.5	/experiments/AOT/AOT_stimuli/rescaled_final/0774_fw.mp4	0.0	406.628604888916	
76	385.1731150150299	movie	1		244	74.0	2.5	/experiments/AOT/AOT_stimuli/rescaled_final/0774_fw.mp4	0.0	407.4452450275421	2.4998369216918945
76	385.9564847946167	pulse	1	t		74.0	2.5	/experiments/AOT/AOT_stimuli/rescaled_final/0774_fw.mp4	0.0	408.2286148071289	
76	387.55665588378906	pulse	1	t		74.0	2.5	/experiments/AOT/AOT_stimuli/rescaled_final/0774_fw.mp4	0.0	409.82878589630127	
76	387.6729519367218	fix_post	2		12	74.0	2.5	/experiments/AOT/AOT_stimuli/rescaled_final/0774_fw.mp4	0.0	409.945081949234	0.10005497932434082
77	387.77300691604614	fix_pre	0		120	75.0	2.5	/experiments/AOT/AOT_stimuli/rescaled_final/1312_rv.mp4	0.0	410.04513692855835	1.0000488758087158
77	388.77305579185486	movie	1		244	75.0	2.5	/experiments/AOT/AOT_stimuli/rescaled_final/1312_rv.mp4	0.0	411.04518580436707	2.5000131130218506
77	389.15632581710815	pulse	1	t		75.0	2.5	/experiments/AOT/AOT_stimuli/rescaled_final/1312_rv.mp4	0.0	411.42845582962036	
77	390.75640082359314	pulse	1	t		75.0	2.5	/experiments/AOT/AOT_stimuli/rescaled_final/1312_rv.mp4	0.0	413.02853083610535	
77	391.2730689048767	fix_post	2		12	75.0	2.5	/experiments/AOT/AOT_stimuli/rescaled_final/1312_rv.mp4	0.0	413.5451989173889	0.0999460220336914
78	391.3730149269104	fix_pre	0		119	76.0	2.5	/experiments/AOT/AOT_stimuli/rescaled_final/1107_rv.mp4	0.0	413.6451449394226	0.9916319847106934
78	392.3564519882202	pulse	0	t		76.0	2.5	/experiments/AOT/AOT_stimuli/rescaled_final/1107_rv.mp4	0.0	414.6285820007324	
78	392.3646469116211	movie	1		244	76.0	2.5	/experiments/AOT/AOT_stimuli/rescaled_final/1107_rv.mp4	0.0	414.6367769241333	2.5083560943603516
78	393.9566857814789	pulse	1	t		76.0	2.5	/experiments/AOT/AOT_stimuli/rescaled_final/1107_rv.mp4	0.0	416.2288157939911	
78	394.87300300598145	fix_post	2		12	76.0	2.5	/experiments/AOT/AOT_stimuli/rescaled_final/1107_rv.mp4	0.0	417.14513301849365	0.10004782676696777
79	394.9730508327484	fix_pre	0		120	77.0	2.5	blank	1.0	417.2451808452606	0.9994959831237793
79	395.556391954422	pulse	0	t		77.0	2.5	blank	1.0	417.8285219669342	
79	395.9725468158722	movie	1		300	77.0	2.5	blank	1.0	418.2446768283844	2.5004701614379883
79	397.15639901161194	pulse	1	t		77.0	2.5	blank	1.0	419.42852902412415	
79	398.4730169773102	fix_post	2		12	77.0	2.5	blank	1.0	420.7451469898224	0.09997296333312988
80	398.5729899406433	fix_pre	0		120	78.0	2.5	/experiments/AOT/AOT_stimuli/rescaled_final/0762_fw.mp4	0.0	420.8451199531555	0.9999849796295166
80	398.75642800331116	pulse	0	t		78.0	2.5	/experiments/AOT/AOT_stimuli/rescaled_final/0762_fw.mp4	0.0	421.02855801582336	
80	399.5729749202728	movie	1		245	78.0	2.5	/experiments/AOT/AOT_stimuli/rescaled_final/0762_fw.mp4	0.0	421.84510493278503	2.4999520778656006
80	400.35640692710876	pulse	1	t		78.0	2.5	/experiments/AOT/AOT_stimuli/rescaled_final/0762_fw.mp4	0.0	422.628536939621	
80	401.95648193359375	pulse	1	t		78.0	2.5	/experiments/AOT/AOT_stimuli/rescaled_final/0762_fw.mp4	0.0	424.22861194610596	
80	402.0729269981384	fix_post	2		12	78.0	2.5	/experiments/AOT/AOT_stimuli/rescaled_final/0762_fw.mp4	0.0	424.34505701065063	0.10002994537353516
81	402.17295694351196	fix_pre	0		120	79.0	2.5	/experiments/AOT/AOT_stimuli/rescaled_final/2011_fw.mp4	0.0	424.44508695602417	1.000135898590088
81	403.17309284210205	movie	1		245	79.0	2.5	/experiments/AOT/AOT_stimuli/rescaled_final/2011_fw.mp4	0.0	425.44522285461426	2.499864101409912
81	403.5562868118286	pulse	1	t		79.0	2.5	/experiments/AOT/AOT_stimuli/rescaled_final/2011_fw.mp4	0.0	425.8284168243408	
81	405.1564118862152	pulse	1	t		79.0	2.5	/experiments/AOT/AOT_stimuli/rescaled_final/2011_fw.mp4	0.0	427.4285418987274	
81	405.67295694351196	fix_post	2		12	79.0	2.5	/experiments/AOT/AOT_stimuli/rescaled_final/2011_fw.mp4	0.0	427.94508695602417	0.10005307197570801
82	405.77301001548767	fix_pre	0		119	80.0	2.5	/experiments/AOT/AOT_stimuli/rescaled_final/1580_fw.mp4	0.0	428.0451400279999	0.9915769100189209
82	406.75637793540955	pulse	0	t		80.0	2.5	/experiments/AOT/AOT_stimuli/rescaled_final/1580_fw.mp4	0.0	429.02850794792175	
82	406.7645869255066	movie	1		245	80.0	2.5	/experiments/AOT/AOT_stimuli/rescaled_final/1580_fw.mp4	0.0	429.0367169380188	2.508323907852173
82	408.3561749458313	pulse	1	t		80.0	2.5	/experiments/AOT/AOT_stimuli/rescaled_final/1580_fw.mp4	0.0	430.6283049583435	
82	409.27291083335876	fix_post	2		12	80.0	2.5	/experiments/AOT/AOT_stimuli/rescaled_final/1580_fw.mp4	0.0	431.545040845871	0.10000109672546387
83	409.37291193008423	fix_pre	0		120	81.0	2.5	/experiments/AOT/AOT_stimuli/rescaled_final/1173_rv.mp4	0.0	431.64504194259644	1.000040054321289
83	409.95635199546814	pulse	0	t		81.0	2.5	/experiments/AOT/AOT_stimuli/rescaled_final/1173_rv.mp4	0.0	432.22848200798035	
83	410.3729519844055	movie	1		244	81.0	2.5	/experiments/AOT/AOT_stimuli/rescaled_final/1173_rv.mp4	0.0	432.6450819969177	2.5000898838043213
83	411.55642080307007	pulse	1	t		81.0	2.5	/experiments/AOT/AOT_stimuli/rescaled_final/1173_rv.mp4	0.0	433.8285508155823	
83	412.87304186820984	fix_post	2		12	81.0	2.5	/experiments/AOT/AOT_stimuli/rescaled_final/1173_rv.mp4	0.0	435.14517188072205	0.0998680591583252
84	412.97290992736816	fix_pre	0		120	82.0	2.5	blank	1.0	435.24503993988037	1.0000178813934326
84	413.1563320159912	pulse	0	t		82.0	2.5	blank	1.0	435.4284620285034	
84	413.9729278087616	movie	1		300	82.0	2.5	blank	1.0	436.2450578212738	2.4999940395355225
84	414.756276845932	pulse	1	t		82.0	2.5	blank	1.0	437.0284068584442	
84	416.3564119338989	pulse	1	t		82.0	2.5	blank	1.0	438.62854194641113	
84	416.4729218482971	fix_post	2		12	82.0	2.5	blank	1.0	438.7450518608093	0.10001015663146973
85	416.5729320049286	fix_pre	0		120	83.0	2.5	/experiments/AOT/AOT_stimuli/rescaled_final/1656_rv.mp4	0.0	438.8450620174408	0.9999949932098389
85	417.5729269981384	movie	1		243	83.0	2.5	/experiments/AOT/AOT_stimuli/rescaled_final/1656_rv.mp4	0.0	439.84505701065063	2.5000247955322266
85	417.95640897750854	pulse	1	t		83.0	2.5	/experiments/AOT/AOT_stimuli/rescaled_final/1656_rv.mp4	0.0	440.22853899002075	
85	419.55629086494446	pulse	1	t		83.0	2.5	/experiments/AOT/AOT_stimuli/rescaled_final/1656_rv.mp4	0.0	441.82842087745667	
85	420.07295179367065	fix_post	2		12	83.0	2.5	/experiments/AOT/AOT_stimuli/rescaled_final/1656_rv.mp4	0.0	442.34508180618286	0.09995317459106445
87	420.1729049682617	stim	0		1716					442.4450349807739	14.299855947494507
87	421.1563489437103	pulse	0	t						443.42847895622253	
87	422.75629591941833	pulse	0	t						445.02842593193054	
87	424.35637378692627	pulse	0	t						446.6285037994385	
87	425.9563829898834	pulse	0	t						448.22851300239563	
87	427.55648279190063	pulse	0	t						449.82861280441284	
87	429.15630078315735	pulse	0	t						451.42843079566956	
87	430.75627398490906	pulse	0	t						453.02840399742126	
87	432.35630083084106	pulse	0	t						454.62843084335327	
87	433.95622181892395	pulse	0	t						456.22835183143616	
