trial_nr	onset	event_type	phase	response	nr_frames	movie_index	movie_duration	movie_file	blank	onset_abs	duration
0	0.16657757759094238	stim	0		50					20.92031693458557	0.41663265228271484
0	0.5750555992126465	response	0	space						21.328794956207275	
1	0.5832102298736572	stim	0		3536					21.336949586868286	29.480239152908325
1	30.05332636833191	pulse	0	t						50.80706572532654	
1	30.063449382781982	stim	1		1716					50.81718873977661	14.301340579986572
1	31.64633083343506	pulse	1	t						52.40007019042969	
1	33.24659991264343	pulse	1	t						54.00033926963806	
1	34.8468451499939	pulse	1	t						55.600584506988525	
1	36.44703507423401	pulse	1	t						57.20077443122864	
1	38.04728150367737	pulse	1	t						58.801020860672	
1	39.64752650260925	pulse	1	t						60.40126585960388	
1	41.2477810382843	pulse	1	t						62.00152039527893	
1	42.847984075546265	pulse	1	t						63.601723432540894	
2	44.364789962768555	fix_pre	0		11	0.0	2.5	/experiments/Knapen_AOT/AOT_stimuli/rescaled_final/1347_rv.mp4	0.0	65.11852931976318	0.10002493858337402
2	44.44824838638306	pulse	0	t		0.0	2.5	/experiments/Knapen_AOT/AOT_stimuli/rescaled_final/1347_rv.mp4	0.0	65.20198774337769	
2	44.46481490135193	movie	1		300	0.0	2.5	/experiments/Knapen_AOT/AOT_stimuli/rescaled_final/1347_rv.mp4	0.0	65.21855425834656	2.5003747940063477
2	46.04463267326355	pulse	1	t		0.0	2.5	/experiments/Knapen_AOT/AOT_stimuli/rescaled_final/1347_rv.mp4	0.0	66.79837203025818	
2	46.965189695358276	fix_post	2		12	0.0	2.5	/experiments/Knapen_AOT/AOT_stimuli/rescaled_final/1347_rv.mp4	0.0	67.7189290523529	0.10000491142272949
3	47.065194606781006	fix_pre	0		120	1.0	2.5	/experiments/Knapen_AOT/AOT_stimuli/rescaled_final/1071_rv.mp4	0.0	67.81893396377563	1.0001413822174072
3	47.64875340461731	pulse	0	t		1.0	2.5	/experiments/Knapen_AOT/AOT_stimuli/rescaled_final/1071_rv.mp4	0.0	68.40249276161194	
3	48.06533598899841	movie	1		300	1.0	2.5	/experiments/Knapen_AOT/AOT_stimuli/rescaled_final/1071_rv.mp4	0.0	68.81907534599304	2.500410318374634
3	49.244731426239014	pulse	1	t		1.0	2.5	/experiments/Knapen_AOT/AOT_stimuli/rescaled_final/1071_rv.mp4	0.0	69.99847078323364	
3	50.56574630737305	fix_post	2		12	1.0	2.5	/experiments/Knapen_AOT/AOT_stimuli/rescaled_final/1071_rv.mp4	0.0	71.31948566436768	0.10000038146972656
4	50.66574668884277	fix_pre	0		120	2.0	2.5	/experiments/Knapen_AOT/AOT_stimuli/rescaled_final/1952_fw.mp4	0.0	71.4194860458374	1.0001349449157715
4	50.8492214679718	pulse	0	t		2.0	2.5	/experiments/Knapen_AOT/AOT_stimuli/rescaled_final/1952_fw.mp4	0.0	71.60296082496643	
4	51.665881633758545	movie	1		299	2.0	2.5	/experiments/Knapen_AOT/AOT_stimuli/rescaled_final/1952_fw.mp4	0.0	72.41962099075317	2.500382423400879
4	52.44506096839905	pulse	1	t		2.0	2.5	/experiments/Knapen_AOT/AOT_stimuli/rescaled_final/1952_fw.mp4	0.0	73.19880032539368	
4	54.045453786849976	pulse	1	t		2.0	2.5	/experiments/Knapen_AOT/AOT_stimuli/rescaled_final/1952_fw.mp4	0.0	74.7991931438446	
4	54.166264057159424	fix_post	2		12	2.0	2.5	/experiments/Knapen_AOT/AOT_stimuli/rescaled_final/1952_fw.mp4	0.0	74.92000341415405	0.10000181198120117
5	54.266265869140625	fix_pre	0		120	3.0	2.5	/experiments/Knapen_AOT/AOT_stimuli/rescaled_final/1763_rv.mp4	0.0	75.02000522613525	1.0001635551452637
5	55.26642942428589	movie	1		299	3.0	2.5	/experiments/Knapen_AOT/AOT_stimuli/rescaled_final/1763_rv.mp4	0.0	76.02016878128052	2.4920568466186523
5	55.64590096473694	pulse	1	t		3.0	2.5	/experiments/Knapen_AOT/AOT_stimuli/rescaled_final/1763_rv.mp4	0.0	76.39964032173157	
5	57.24592208862305	pulse	1	t		3.0	2.5	/experiments/Knapen_AOT/AOT_stimuli/rescaled_final/1763_rv.mp4	0.0	77.99966144561768	
5	57.75848627090454	fix_post	2		12	3.0	2.5	/experiments/Knapen_AOT/AOT_stimuli/rescaled_final/1763_rv.mp4	0.0	78.51222562789917	0.10004878044128418
6	57.858535051345825	fix_pre	0		120	4.0	2.5	/experiments/Knapen_AOT/AOT_stimuli/rescaled_final/0946_rv.mp4	0.0	78.61227440834045	1.0001037120819092
6	58.85043811798096	pulse	0	t		4.0	2.5	/experiments/Knapen_AOT/AOT_stimuli/rescaled_final/0946_rv.mp4	0.0	79.60417747497559	
6	58.858638763427734	movie	1		301	4.0	2.5	/experiments/Knapen_AOT/AOT_stimuli/rescaled_final/0946_rv.mp4	0.0	79.61237812042236	2.5086989402770996
6	60.44241762161255	pulse	1	t		4.0	2.5	/experiments/Knapen_AOT/AOT_stimuli/rescaled_final/0946_rv.mp4	0.0	81.19615697860718	
6	61.367337703704834	fix_post	2		12	4.0	2.5	/experiments/Knapen_AOT/AOT_stimuli/rescaled_final/0946_rv.mp4	0.0	82.12107706069946	0.10003542900085449
7	61.46737313270569	fix_pre	0		120	5.0	2.5	/experiments/Knapen_AOT/AOT_stimuli/rescaled_final/0766_rv.mp4	0.0	82.22111248970032	1.0001366138458252
7	62.042577505111694	pulse	0	t		5.0	2.5	/experiments/Knapen_AOT/AOT_stimuli/rescaled_final/0766_rv.mp4	0.0	82.79631686210632	
7	62.467509746551514	movie	1		300	5.0	2.5	/experiments/Knapen_AOT/AOT_stimuli/rescaled_final/0766_rv.mp4	0.0	83.22124910354614	2.500377893447876
7	63.64283275604248	pulse	1	t		5.0	2.5	/experiments/Knapen_AOT/AOT_stimuli/rescaled_final/0766_rv.mp4	0.0	84.39657211303711	
7	64.96788763999939	fix_post	2		12	5.0	2.5	/experiments/Knapen_AOT/AOT_stimuli/rescaled_final/0766_rv.mp4	0.0	85.72162699699402	0.10001683235168457
8	65.06790447235107	fix_pre	0		120	6.0	2.5	/experiments/Knapen_AOT/AOT_stimuli/rescaled_final/0782_rv.mp4	0.0	85.8216438293457	1.0001420974731445
8	65.24304175376892	pulse	0	t		6.0	2.5	/experiments/Knapen_AOT/AOT_stimuli/rescaled_final/0782_rv.mp4	0.0	85.99678111076355	
8	66.06804656982422	movie	1		300	6.0	2.5	/experiments/Knapen_AOT/AOT_stimuli/rescaled_final/0782_rv.mp4	0.0	86.82178592681885	2.5003879070281982
8	66.84330296516418	pulse	1	t		6.0	2.5	/experiments/Knapen_AOT/AOT_stimuli/rescaled_final/0782_rv.mp4	0.0	87.59704232215881	
8	68.44354319572449	pulse	1	t		6.0	2.5	/experiments/Knapen_AOT/AOT_stimuli/rescaled_final/0782_rv.mp4	0.0	89.19728255271912	
8	68.56843447685242	fix_post	2		12	6.0	2.5	/experiments/Knapen_AOT/AOT_stimuli/rescaled_final/0782_rv.mp4	0.0	89.32217383384705	0.10000300407409668
9	68.66843748092651	fix_pre	0		120	7.0	2.5	blank	1.0	89.42217683792114	1.0001485347747803
9	69.6685860157013	movie	1		299	7.0	2.5	blank	1.0	90.42232537269592	2.4920613765716553
9	70.04381966590881	pulse	1	t		7.0	2.5	blank	1.0	90.79755902290344	
9	71.64404463768005	pulse	1	t		7.0	2.5	blank	1.0	92.39778399467468	
9	72.16064739227295	fix_post	2		12	7.0	2.5	blank	1.0	92.91438674926758	0.10000419616699219
10	72.26065158843994	fix_pre	0		119	8.0	2.5	/experiments/Knapen_AOT/AOT_stimuli/rescaled_final/1339_rv.mp4	0.0	93.01439094543457	0.9917888641357422
10	73.24423122406006	pulse	0	t		8.0	2.5	/experiments/Knapen_AOT/AOT_stimuli/rescaled_final/1339_rv.mp4	0.0	93.99797058105469	
10	73.25244045257568	movie	1		301	8.0	2.5	/experiments/Knapen_AOT/AOT_stimuli/rescaled_final/1339_rv.mp4	0.0	94.00617980957031	2.5087356567382812
10	74.8446192741394	pulse	1	t		8.0	2.5	/experiments/Knapen_AOT/AOT_stimuli/rescaled_final/1339_rv.mp4	0.0	95.59835863113403	
10	75.76117610931396	fix_post	2		12	8.0	2.5	/experiments/Knapen_AOT/AOT_stimuli/rescaled_final/1339_rv.mp4	0.0	96.5149154663086	0.10004496574401855
11	75.86122107505798	fix_pre	0		120	9.0	2.5	/experiments/Knapen_AOT/AOT_stimuli/rescaled_final/0409_rv.mp4	0.0	96.61496043205261	1.0000927448272705
11	76.44472932815552	pulse	0	t		9.0	2.5	/experiments/Knapen_AOT/AOT_stimuli/rescaled_final/0409_rv.mp4	0.0	97.19846868515015	
11	76.86131381988525	movie	1		299	9.0	2.5	/experiments/Knapen_AOT/AOT_stimuli/rescaled_final/0409_rv.mp4	0.0	97.61505317687988	2.5004289150238037
11	78.04500818252563	pulse	1	t		9.0	2.5	/experiments/Knapen_AOT/AOT_stimuli/rescaled_final/0409_rv.mp4	0.0	98.79874753952026	
11	79.36174273490906	fix_post	2		12	9.0	2.5	/experiments/Knapen_AOT/AOT_stimuli/rescaled_final/0409_rv.mp4	0.0	100.11548209190369	0.10003376007080078
12	79.46177649497986	fix_pre	0		120	10.0	2.5	/experiments/Knapen_AOT/AOT_stimuli/rescaled_final/2018_fw.mp4	0.0	100.21551585197449	1.000091791152954
12	79.64522552490234	pulse	0	t		10.0	2.5	/experiments/Knapen_AOT/AOT_stimuli/rescaled_final/2018_fw.mp4	0.0	100.39896488189697	
12	80.46186828613281	movie	1		299	10.0	2.5	/experiments/Knapen_AOT/AOT_stimuli/rescaled_final/2018_fw.mp4	0.0	101.21560764312744	2.5003862380981445
12	81.24546790122986	pulse	1	t		10.0	2.5	/experiments/Knapen_AOT/AOT_stimuli/rescaled_final/2018_fw.mp4	0.0	101.99920725822449	
12	82.84572339057922	pulse	1	t		10.0	2.5	/experiments/Knapen_AOT/AOT_stimuli/rescaled_final/2018_fw.mp4	0.0	103.59946274757385	
12	82.96225452423096	fix_post	2		12	10.0	2.5	/experiments/Knapen_AOT/AOT_stimuli/rescaled_final/2018_fw.mp4	0.0	103.71599388122559	0.10001420974731445
13	83.06226873397827	fix_pre	0		120	11.0	2.5	/experiments/Knapen_AOT/AOT_stimuli/rescaled_final/1966_fw.mp4	0.0	103.8160080909729	1.0001676082611084
13	84.06243634223938	movie	1		299	11.0	2.5	/experiments/Knapen_AOT/AOT_stimuli/rescaled_final/1966_fw.mp4	0.0	104.81617569923401	2.4920272827148438
13	84.44602751731873	pulse	1	t		11.0	2.5	/experiments/Knapen_AOT/AOT_stimuli/rescaled_final/1966_fw.mp4	0.0	105.19976687431335	
13	86.046231508255	pulse	1	t		11.0	2.5	/experiments/Knapen_AOT/AOT_stimuli/rescaled_final/1966_fw.mp4	0.0	106.79997086524963	
13	86.55446362495422	fix_post	2		12	11.0	2.5	/experiments/Knapen_AOT/AOT_stimuli/rescaled_final/1966_fw.mp4	0.0	107.30820298194885	0.10001468658447266
14	86.6544783115387	fix_pre	0		120	12.0	2.5	/experiments/Knapen_AOT/AOT_stimuli/rescaled_final/1023_rv.mp4	0.0	107.40821766853333	1.0004146099090576
14	87.64643383026123	pulse	0	t		12.0	2.5	/experiments/Knapen_AOT/AOT_stimuli/rescaled_final/1023_rv.mp4	0.0	108.40017318725586	
14	87.65489292144775	movie	1		301	12.0	2.5	/experiments/Knapen_AOT/AOT_stimuli/rescaled_final/1023_rv.mp4	0.0	108.40863227844238	2.5084471702575684
14	89.242849111557	pulse	1	t		12.0	2.5	/experiments/Knapen_AOT/AOT_stimuli/rescaled_final/1023_rv.mp4	0.0	109.99658846855164	
14	90.16334009170532	fix_post	2		12	12.0	2.5	/experiments/Knapen_AOT/AOT_stimuli/rescaled_final/1023_rv.mp4	0.0	110.91707944869995	0.10001325607299805
15	90.26335334777832	fix_pre	0		120	13.0	2.5	/experiments/Knapen_AOT/AOT_stimuli/rescaled_final/0945_fw.mp4	0.0	111.01709270477295	1.0001802444458008
15	90.8470389842987	pulse	0	t		13.0	2.5	/experiments/Knapen_AOT/AOT_stimuli/rescaled_final/0945_fw.mp4	0.0	111.60077834129333	
15	91.26353359222412	movie	1		300	13.0	2.5	/experiments/Knapen_AOT/AOT_stimuli/rescaled_final/0945_fw.mp4	0.0	112.01727294921875	2.5003559589385986
15	92.44294261932373	pulse	1	t		13.0	2.5	/experiments/Knapen_AOT/AOT_stimuli/rescaled_final/0945_fw.mp4	0.0	113.19668197631836	
15	93.76388955116272	fix_post	2		12	13.0	2.5	/experiments/Knapen_AOT/AOT_stimuli/rescaled_final/0945_fw.mp4	0.0	114.51762890815735	0.10006022453308105
16	93.8639497756958	fix_pre	0		120	14.0	2.5	blank	1.0	114.61768913269043	1.0000898838043213
16	94.04741311073303	pulse	0	t		14.0	2.5	blank	1.0	114.80115246772766	
16	94.86403965950012	movie	1		300	14.0	2.5	blank	1.0	115.61777901649475	2.5003914833068848
16	95.64760279655457	pulse	1	t		14.0	2.5	blank	1.0	116.4013421535492	
16	97.24784278869629	pulse	1	t		14.0	2.5	blank	1.0	118.00158214569092	
16	97.364431142807	fix_post	2		12	14.0	2.5	blank	1.0	118.11817049980164	0.10000205039978027
17	97.46443319320679	fix_pre	0		120	15.0	2.5	/experiments/Knapen_AOT/AOT_stimuli/rescaled_final/0403_fw.mp4	0.0	118.21817255020142	1.0002851486206055
17	98.46471834182739	movie	1		299	15.0	2.5	/experiments/Knapen_AOT/AOT_stimuli/rescaled_final/0403_fw.mp4	0.0	119.21845769882202	2.491903305053711
17	98.84427809715271	pulse	1	t		15.0	2.5	/experiments/Knapen_AOT/AOT_stimuli/rescaled_final/0403_fw.mp4	0.0	119.59801745414734	
17	100.44426774978638	pulse	1	t		15.0	2.5	/experiments/Knapen_AOT/AOT_stimuli/rescaled_final/0403_fw.mp4	0.0	121.198007106781	
17	100.9566216468811	fix_post	2		12	15.0	2.5	/experiments/Knapen_AOT/AOT_stimuli/rescaled_final/0403_fw.mp4	0.0	121.71036100387573	0.10001325607299805
18	101.0566349029541	fix_pre	0		120	16.0	2.5	/experiments/Knapen_AOT/AOT_stimuli/rescaled_final/1035_rv.mp4	0.0	121.81037425994873	1.008512258529663
18	102.0485827922821	pulse	0	t		16.0	2.5	/experiments/Knapen_AOT/AOT_stimuli/rescaled_final/1035_rv.mp4	0.0	122.80232214927673	
18	102.06514716148376	movie	1		299	16.0	2.5	/experiments/Knapen_AOT/AOT_stimuli/rescaled_final/1035_rv.mp4	0.0	122.8188865184784	2.500356674194336
18	103.64517712593079	pulse	1	t		16.0	2.5	/experiments/Knapen_AOT/AOT_stimuli/rescaled_final/1035_rv.mp4	0.0	124.39891648292542	
18	104.5655038356781	fix_post	2		12	16.0	2.5	/experiments/Knapen_AOT/AOT_stimuli/rescaled_final/1035_rv.mp4	0.0	125.31924319267273	0.10001063346862793
19	104.66551446914673	fix_pre	0		120	17.0	2.5	/experiments/Knapen_AOT/AOT_stimuli/rescaled_final/0465_fw.mp4	0.0	125.41925382614136	1.000154972076416
19	105.24908018112183	pulse	0	t		17.0	2.5	/experiments/Knapen_AOT/AOT_stimuli/rescaled_final/0465_fw.mp4	0.0	126.00281953811646	
19	105.66566944122314	movie	1		300	17.0	2.5	/experiments/Knapen_AOT/AOT_stimuli/rescaled_final/0465_fw.mp4	0.0	126.41940879821777	2.5004093647003174
19	106.84509205818176	pulse	1	t		17.0	2.5	/experiments/Knapen_AOT/AOT_stimuli/rescaled_final/0465_fw.mp4	0.0	127.59883141517639	
19	108.16607880592346	fix_post	2		12	17.0	2.5	/experiments/Knapen_AOT/AOT_stimuli/rescaled_final/0465_fw.mp4	0.0	128.9198181629181	0.10000419616699219
20	108.26608300209045	fix_pre	0		120	18.0	2.5	/experiments/Knapen_AOT/AOT_stimuli/rescaled_final/2175_rv.mp4	0.0	129.01982235908508	1.0001552104949951
20	108.44956493377686	pulse	0	t		18.0	2.5	/experiments/Knapen_AOT/AOT_stimuli/rescaled_final/2175_rv.mp4	0.0	129.20330429077148	
20	109.26623821258545	movie	1		300	18.0	2.5	/experiments/Knapen_AOT/AOT_stimuli/rescaled_final/2175_rv.mp4	0.0	130.01997756958008	2.5003466606140137
20	110.04532957077026	pulse	1	t		18.0	2.5	/experiments/Knapen_AOT/AOT_stimuli/rescaled_final/2175_rv.mp4	0.0	130.7990689277649	
20	111.64563798904419	pulse	1	t		18.0	2.5	/experiments/Knapen_AOT/AOT_stimuli/rescaled_final/2175_rv.mp4	0.0	132.39937734603882	
20	111.76658487319946	fix_post	2		12	18.0	2.5	/experiments/Knapen_AOT/AOT_stimuli/rescaled_final/2175_rv.mp4	0.0	132.5203242301941	0.10002803802490234
21	111.86661291122437	fix_pre	0		120	19.0	2.5	/experiments/Knapen_AOT/AOT_stimuli/rescaled_final/0847_fw.mp4	0.0	132.620352268219	1.0001332759857178
21	112.86674618721008	movie	1		299	19.0	2.5	/experiments/Knapen_AOT/AOT_stimuli/rescaled_final/0847_fw.mp4	0.0	133.6204855442047	2.492037296295166
21	113.24621629714966	pulse	1	t		19.0	2.5	/experiments/Knapen_AOT/AOT_stimuli/rescaled_final/0847_fw.mp4	0.0	133.9999556541443	
21	114.84629821777344	pulse	1	t		19.0	2.5	/experiments/Knapen_AOT/AOT_stimuli/rescaled_final/0847_fw.mp4	0.0	135.60003757476807	
21	115.35878348350525	fix_post	2		12	19.0	2.5	/experiments/Knapen_AOT/AOT_stimuli/rescaled_final/0847_fw.mp4	0.0	136.11252284049988	0.1000356674194336
22	115.45881915092468	fix_pre	0		120	20.0	2.5	/experiments/Knapen_AOT/AOT_stimuli/rescaled_final/0668_rv.mp4	0.0	136.2125585079193	1.0084919929504395
22	116.44272375106812	pulse	0	t		20.0	2.5	/experiments/Knapen_AOT/AOT_stimuli/rescaled_final/0668_rv.mp4	0.0	137.19646310806274	
22	116.46731114387512	movie	1		300	20.0	2.5	/experiments/Knapen_AOT/AOT_stimuli/rescaled_final/0668_rv.mp4	0.0	137.22105050086975	2.5003468990325928
22	118.04288053512573	pulse	1	t		20.0	2.5	/experiments/Knapen_AOT/AOT_stimuli/rescaled_final/0668_rv.mp4	0.0	138.79661989212036	
22	118.96765804290771	fix_post	2		12	20.0	2.5	/experiments/Knapen_AOT/AOT_stimuli/rescaled_final/0668_rv.mp4	0.0	139.72139739990234	0.10002660751342773
23	119.06768465042114	fix_pre	0		120	21.0	2.5	blank	1.0	139.82142400741577	1.000136137008667
23	119.64287972450256	pulse	0	t		21.0	2.5	blank	1.0	140.3966190814972	
23	120.06782078742981	movie	1		300	21.0	2.5	blank	1.0	140.82156014442444	2.500382661819458
23	121.24313020706177	pulse	1	t		21.0	2.5	blank	1.0	141.9968695640564	
23	122.56820344924927	fix_post	2		12	21.0	2.5	blank	1.0	143.3219428062439	0.10002708435058594
24	122.66823053359985	fix_pre	0		120	22.0	2.5	/experiments/Knapen_AOT/AOT_stimuli/rescaled_final/0865_fw.mp4	0.0	143.42196989059448	1.0001370906829834
24	122.84340476989746	pulse	0	t		22.0	2.5	/experiments/Knapen_AOT/AOT_stimuli/rescaled_final/0865_fw.mp4	0.0	143.5971441268921	
24	123.66836762428284	movie	1		300	22.0	2.5	/experiments/Knapen_AOT/AOT_stimuli/rescaled_final/0865_fw.mp4	0.0	144.42210698127747	2.5003843307495117
24	124.44363474845886	pulse	1	t		22.0	2.5	/experiments/Knapen_AOT/AOT_stimuli/rescaled_final/0865_fw.mp4	0.0	145.1973741054535	
24	126.04387712478638	pulse	1	t		22.0	2.5	/experiments/Knapen_AOT/AOT_stimuli/rescaled_final/0865_fw.mp4	0.0	146.797616481781	
24	126.16875195503235	fix_post	2		12	22.0	2.5	/experiments/Knapen_AOT/AOT_stimuli/rescaled_final/0865_fw.mp4	0.0	146.92249131202698	0.1000070571899414
25	126.26875901222229	fix_pre	0		120	23.0	2.5	/experiments/Knapen_AOT/AOT_stimuli/rescaled_final/2166_rv.mp4	0.0	147.02249836921692	1.0001819133758545
25	127.26894092559814	movie	1		299	23.0	2.5	/experiments/Knapen_AOT/AOT_stimuli/rescaled_final/2166_rv.mp4	0.0	148.02268028259277	2.492011070251465
25	127.64419198036194	pulse	1	t		23.0	2.5	/experiments/Knapen_AOT/AOT_stimuli/rescaled_final/2166_rv.mp4	0.0	148.39793133735657	
25	129.24435472488403	pulse	1	t		23.0	2.5	/experiments/Knapen_AOT/AOT_stimuli/rescaled_final/2166_rv.mp4	0.0	149.99809408187866	
25	129.7609519958496	fix_post	2		12	23.0	2.5	/experiments/Knapen_AOT/AOT_stimuli/rescaled_final/2166_rv.mp4	0.0	150.51469135284424	0.10001778602600098
26	129.8609697818756	fix_pre	0		119	24.0	2.5	/experiments/Knapen_AOT/AOT_stimuli/rescaled_final/2097_fw.mp4	0.0	150.61470913887024	1.0002076625823975
26	130.84461307525635	pulse	0	t		24.0	2.5	/experiments/Knapen_AOT/AOT_stimuli/rescaled_final/2097_fw.mp4	0.0	151.59835243225098	
26	130.861177444458	movie	1		300	24.0	2.5	/experiments/Knapen_AOT/AOT_stimuli/rescaled_final/2097_fw.mp4	0.0	151.61491680145264	2.5003390312194824
26	132.44328546524048	pulse	1	t		24.0	2.5	/experiments/Knapen_AOT/AOT_stimuli/rescaled_final/2097_fw.mp4	0.0	153.1970248222351	
26	133.3615164756775	fix_post	2		12	24.0	2.5	/experiments/Knapen_AOT/AOT_stimuli/rescaled_final/2097_fw.mp4	0.0	154.11525583267212	0.10005831718444824
27	133.46157479286194	fix_pre	0		120	25.0	2.5	/experiments/Knapen_AOT/AOT_stimuli/rescaled_final/0623_rv.mp4	0.0	154.21531414985657	1.0000855922698975
27	134.04513597488403	pulse	0	t		25.0	2.5	/experiments/Knapen_AOT/AOT_stimuli/rescaled_final/0623_rv.mp4	0.0	154.79887533187866	
27	134.46166038513184	movie	1		300	25.0	2.5	/experiments/Knapen_AOT/AOT_stimuli/rescaled_final/0623_rv.mp4	0.0	155.21539974212646	2.500380516052246
27	135.64538764953613	pulse	1	t		25.0	2.5	/experiments/Knapen_AOT/AOT_stimuli/rescaled_final/0623_rv.mp4	0.0	156.39912700653076	
27	136.96204090118408	fix_post	2		12	25.0	2.5	/experiments/Knapen_AOT/AOT_stimuli/rescaled_final/0623_rv.mp4	0.0	157.7157802581787	0.10002732276916504
28	137.06206822395325	fix_pre	0		120	26.0	2.5	/experiments/Knapen_AOT/AOT_stimuli/rescaled_final/1833_fw.mp4	0.0	157.81580758094788	1.0001296997070312
28	137.24562788009644	pulse	0	t		26.0	2.5	/experiments/Knapen_AOT/AOT_stimuli/rescaled_final/1833_fw.mp4	0.0	157.99936723709106	
28	138.06219792366028	movie	1		300	26.0	2.5	/experiments/Knapen_AOT/AOT_stimuli/rescaled_final/1833_fw.mp4	0.0	158.8159372806549	2.5003926753997803
28	138.8458013534546	pulse	1	t		26.0	2.5	/experiments/Knapen_AOT/AOT_stimuli/rescaled_final/1833_fw.mp4	0.0	159.59954071044922	
28	140.4460346698761	pulse	1	t		26.0	2.5	/experiments/Knapen_AOT/AOT_stimuli/rescaled_final/1833_fw.mp4	0.0	161.19977402687073	
28	140.56259059906006	fix_post	2		12	26.0	2.5	/experiments/Knapen_AOT/AOT_stimuli/rescaled_final/1833_fw.mp4	0.0	161.3163299560547	0.10005664825439453
29	140.66264724731445	fix_pre	0		120	27.0	2.5	blank	1.0	161.41638660430908	1.0000920295715332
29	141.662739276886	movie	1		300	27.0	2.5	blank	1.0	162.41647863388062	2.500378370285034
29	142.04624843597412	pulse	1	t		27.0	2.5	blank	1.0	162.79998779296875	
29	143.64657855033875	pulse	1	t		27.0	2.5	blank	1.0	164.40031790733337	
29	144.16311764717102	fix_post	2		12	27.0	2.5	blank	1.0	164.91685700416565	0.10001516342163086
30	144.26313281059265	fix_pre	0		119	28.0	2.5	/experiments/Knapen_AOT/AOT_stimuli/rescaled_final/0275_fw.mp4	0.0	165.01687216758728	1.000192403793335
30	145.24677324295044	pulse	0	t		28.0	2.5	/experiments/Knapen_AOT/AOT_stimuli/rescaled_final/0275_fw.mp4	0.0	166.00051259994507	
30	145.263325214386	movie	1		300	28.0	2.5	/experiments/Knapen_AOT/AOT_stimuli/rescaled_final/0275_fw.mp4	0.0	166.01706457138062	2.5003442764282227
30	146.84326028823853	pulse	1	t		28.0	2.5	/experiments/Knapen_AOT/AOT_stimuli/rescaled_final/0275_fw.mp4	0.0	167.59699964523315	
30	147.7636694908142	fix_post	2		12	28.0	2.5	/experiments/Knapen_AOT/AOT_stimuli/rescaled_final/0275_fw.mp4	0.0	168.51740884780884	0.1000356674194336
31	147.86370515823364	fix_pre	0		120	29.0	2.5	/experiments/Knapen_AOT/AOT_stimuli/rescaled_final/2143_rv.mp4	0.0	168.61744451522827	1.000129222869873
31	148.44724416732788	pulse	0	t		29.0	2.5	/experiments/Knapen_AOT/AOT_stimuli/rescaled_final/2143_rv.mp4	0.0	169.2009835243225	
31	148.86383438110352	movie	1		300	29.0	2.5	/experiments/Knapen_AOT/AOT_stimuli/rescaled_final/2143_rv.mp4	0.0	169.61757373809814	2.5003819465637207
31	150.04334020614624	pulse	1	t		29.0	2.5	/experiments/Knapen_AOT/AOT_stimuli/rescaled_final/2143_rv.mp4	0.0	170.79707956314087	
31	151.36421632766724	fix_post	2		12	29.0	2.5	/experiments/Knapen_AOT/AOT_stimuli/rescaled_final/2143_rv.mp4	0.0	172.11795568466187	0.10002827644348145
32	151.46424460411072	fix_pre	0		120	30.0	2.5	/experiments/Knapen_AOT/AOT_stimuli/rescaled_final/1265_rv.mp4	0.0	172.21798396110535	1.0001182556152344
32	151.6477518081665	pulse	0	t		30.0	2.5	/experiments/Knapen_AOT/AOT_stimuli/rescaled_final/1265_rv.mp4	0.0	172.40149116516113	
32	152.46436285972595	movie	1		300	30.0	2.5	/experiments/Knapen_AOT/AOT_stimuli/rescaled_final/1265_rv.mp4	0.0	173.21810221672058	2.500396251678467
32	153.2434642314911	pulse	1	t		30.0	2.5	/experiments/Knapen_AOT/AOT_stimuli/rescaled_final/1265_rv.mp4	0.0	173.99720358848572	
32	154.8438971042633	pulse	1	t		30.0	2.5	/experiments/Knapen_AOT/AOT_stimuli/rescaled_final/1265_rv.mp4	0.0	175.59763646125793	
32	154.96475911140442	fix_post	2		12	30.0	2.5	/experiments/Knapen_AOT/AOT_stimuli/rescaled_final/1265_rv.mp4	0.0	175.71849846839905	0.10002326965332031
33	155.06478238105774	fix_pre	0		120	31.0	2.5	/experiments/Knapen_AOT/AOT_stimuli/rescaled_final/1774_fw.mp4	0.0	175.81852173805237	1.0001235008239746
33	156.0649058818817	movie	1		299	31.0	2.5	/experiments/Knapen_AOT/AOT_stimuli/rescaled_final/1774_fw.mp4	0.0	176.81864523887634	2.5003890991210938
33	156.44421458244324	pulse	1	t		31.0	2.5	/experiments/Knapen_AOT/AOT_stimuli/rescaled_final/1774_fw.mp4	0.0	177.19795393943787	
33	158.0442967414856	pulse	1	t		31.0	2.5	/experiments/Knapen_AOT/AOT_stimuli/rescaled_final/1774_fw.mp4	0.0	178.79803609848022	
33	158.5652949810028	fix_post	2		12	31.0	2.5	/experiments/Knapen_AOT/AOT_stimuli/rescaled_final/1774_fw.mp4	0.0	179.31903433799744	0.10000467300415039
34	158.66529965400696	fix_pre	0		119	32.0	2.5	/experiments/Knapen_AOT/AOT_stimuli/rescaled_final/0762_rv.mp4	0.0	179.4190390110016	1.0001800060272217
34	159.6489188671112	pulse	0	t		32.0	2.5	/experiments/Knapen_AOT/AOT_stimuli/rescaled_final/0762_rv.mp4	0.0	180.40265822410583	
34	159.66547966003418	movie	1		300	32.0	2.5	/experiments/Knapen_AOT/AOT_stimuli/rescaled_final/0762_rv.mp4	0.0	180.4192190170288	2.500358819961548
34	161.24531531333923	pulse	1	t		32.0	2.5	/experiments/Knapen_AOT/AOT_stimuli/rescaled_final/0762_rv.mp4	0.0	181.99905467033386	
34	162.16583847999573	fix_post	2		12	32.0	2.5	/experiments/Knapen_AOT/AOT_stimuli/rescaled_final/0762_rv.mp4	0.0	182.91957783699036	0.10002756118774414
35	162.26586604118347	fix_pre	0		120	33.0	2.5	blank	1.0	183.0196053981781	1.0001347064971924
35	162.84937119483948	pulse	0	t		33.0	2.5	blank	1.0	183.6031105518341	
35	163.26600074768066	movie	1		300	33.0	2.5	blank	1.0	184.0197401046753	2.5004019737243652
35	164.44960713386536	pulse	1	t		33.0	2.5	blank	1.0	185.20334649085999	
35	165.76640272140503	fix_post	2		12	33.0	2.5	blank	1.0	186.52014207839966	0.10000133514404297
36	165.86640405654907	fix_pre	0		120	34.0	2.5	/experiments/Knapen_AOT/AOT_stimuli/rescaled_final/0308_fw.mp4	0.0	186.6201434135437	1.0001275539398193
36	166.04988265037537	pulse	0	t		34.0	2.5	/experiments/Knapen_AOT/AOT_stimuli/rescaled_final/0308_fw.mp4	0.0	186.80362200737	
36	166.8665316104889	movie	1		300	34.0	2.5	/experiments/Knapen_AOT/AOT_stimuli/rescaled_final/0308_fw.mp4	0.0	187.62027096748352	2.5003821849823
36	167.64588165283203	pulse	1	t		34.0	2.5	/experiments/Knapen_AOT/AOT_stimuli/rescaled_final/0308_fw.mp4	0.0	188.39962100982666	
36	169.24614882469177	pulse	1	t		34.0	2.5	/experiments/Knapen_AOT/AOT_stimuli/rescaled_final/0308_fw.mp4	0.0	189.9998881816864	
36	169.3669137954712	fix_post	2		12	34.0	2.5	/experiments/Knapen_AOT/AOT_stimuli/rescaled_final/0308_fw.mp4	0.0	190.12065315246582	0.10001397132873535
37	169.46692776679993	fix_pre	0		120	35.0	2.5	/experiments/Knapen_AOT/AOT_stimuli/rescaled_final/0580_rv.mp4	0.0	190.22066712379456	1.0001368522644043
37	170.46706461906433	movie	1		298	35.0	2.5	/experiments/Knapen_AOT/AOT_stimuli/rescaled_final/0580_rv.mp4	0.0	191.22080397605896	2.492053508758545
37	170.84676456451416	pulse	1	t		35.0	2.5	/experiments/Knapen_AOT/AOT_stimuli/rescaled_final/0580_rv.mp4	0.0	191.6005039215088	
37	172.44642758369446	pulse	1	t		35.0	2.5	/experiments/Knapen_AOT/AOT_stimuli/rescaled_final/0580_rv.mp4	0.0	193.2001669406891	
37	172.95911812782288	fix_post	2		12	35.0	2.5	/experiments/Knapen_AOT/AOT_stimuli/rescaled_final/0580_rv.mp4	0.0	193.7128574848175	0.10002660751342773
38	173.0591447353363	fix_pre	0		120	36.0	2.5	/experiments/Knapen_AOT/AOT_stimuli/rescaled_final/0063_rv.mp4	0.0	193.81288409233093	1.0003771781921387
38	174.04320573806763	pulse	0	t		36.0	2.5	/experiments/Knapen_AOT/AOT_stimuli/rescaled_final/0063_rv.mp4	0.0	194.79694509506226	
38	174.05952191352844	movie	1		301	36.0	2.5	/experiments/Knapen_AOT/AOT_stimuli/rescaled_final/0063_rv.mp4	0.0	194.81326127052307	2.508472204208374
38	175.64766240119934	pulse	1	t		36.0	2.5	/experiments/Knapen_AOT/AOT_stimuli/rescaled_final/0063_rv.mp4	0.0	196.40140175819397	
38	176.56799411773682	fix_post	2		12	36.0	2.5	/experiments/Knapen_AOT/AOT_stimuli/rescaled_final/0063_rv.mp4	0.0	197.32173347473145	0.1000370979309082
39	176.66803121566772	fix_pre	0		120	37.0	2.5	/experiments/Knapen_AOT/AOT_stimuli/rescaled_final/0524_rv.mp4	0.0	197.42177057266235	1.0001633167266846
39	177.24325442314148	pulse	0	t		37.0	2.5	/experiments/Knapen_AOT/AOT_stimuli/rescaled_final/0524_rv.mp4	0.0	197.9969937801361	
39	177.6681945323944	movie	1		300	37.0	2.5	/experiments/Knapen_AOT/AOT_stimuli/rescaled_final/0524_rv.mp4	0.0	198.42193388938904	2.500338554382324
39	178.84350204467773	pulse	1	t		37.0	2.5	/experiments/Knapen_AOT/AOT_stimuli/rescaled_final/0524_rv.mp4	0.0	199.59724140167236	
39	180.16853308677673	fix_post	2		12	37.0	2.5	/experiments/Knapen_AOT/AOT_stimuli/rescaled_final/0524_rv.mp4	0.0	200.92227244377136	0.10002994537353516
40	180.26856303215027	fix_pre	0		120	38.0	2.5	/experiments/Knapen_AOT/AOT_stimuli/rescaled_final/0030_rv.mp4	0.0	201.0223023891449	1.0001320838928223
40	180.4437117576599	pulse	0	t		38.0	2.5	/experiments/Knapen_AOT/AOT_stimuli/rescaled_final/0030_rv.mp4	0.0	201.19745111465454	
40	181.2686951160431	movie	1		300	38.0	2.5	/experiments/Knapen_AOT/AOT_stimuli/rescaled_final/0030_rv.mp4	0.0	202.02243447303772	2.5003867149353027
40	182.04394936561584	pulse	1	t		38.0	2.5	/experiments/Knapen_AOT/AOT_stimuli/rescaled_final/0030_rv.mp4	0.0	202.79768872261047	
40	183.64418983459473	pulse	1	t		38.0	2.5	/experiments/Knapen_AOT/AOT_stimuli/rescaled_final/0030_rv.mp4	0.0	204.39792919158936	
40	183.7690818309784	fix_post	2		12	38.0	2.5	/experiments/Knapen_AOT/AOT_stimuli/rescaled_final/0030_rv.mp4	0.0	204.52282118797302	0.10001683235168457
41	183.86909866333008	fix_pre	0		120	39.0	2.5	/experiments/Knapen_AOT/AOT_stimuli/rescaled_final/1293_fw.mp4	0.0	204.6228380203247	1.0001404285430908
41	184.86923909187317	movie	1		299	39.0	2.5	/experiments/Knapen_AOT/AOT_stimuli/rescaled_final/1293_fw.mp4	0.0	205.6229784488678	2.4920425415039062
41	185.2444944381714	pulse	1	t		39.0	2.5	/experiments/Knapen_AOT/AOT_stimuli/rescaled_final/1293_fw.mp4	0.0	205.99823379516602	
41	186.84470629692078	pulse	1	t		39.0	2.5	/experiments/Knapen_AOT/AOT_stimuli/rescaled_final/1293_fw.mp4	0.0	207.5984456539154	
41	187.36128163337708	fix_post	2		12	39.0	2.5	/experiments/Knapen_AOT/AOT_stimuli/rescaled_final/1293_fw.mp4	0.0	208.1150209903717	0.10002493858337402
42	187.46130657196045	fix_pre	0		119	40.0	2.5	/experiments/Knapen_AOT/AOT_stimuli/rescaled_final/2136_rv.mp4	0.0	208.21504592895508	1.0001516342163086
42	188.44490146636963	pulse	0	t		40.0	2.5	/experiments/Knapen_AOT/AOT_stimuli/rescaled_final/2136_rv.mp4	0.0	209.19864082336426	
42	188.46145820617676	movie	1		300	40.0	2.5	/experiments/Knapen_AOT/AOT_stimuli/rescaled_final/2136_rv.mp4	0.0	209.2151975631714	2.500441789627075
42	190.04524397850037	pulse	1	t		40.0	2.5	/experiments/Knapen_AOT/AOT_stimuli/rescaled_final/2136_rv.mp4	0.0	210.798983335495	
42	190.96189999580383	fix_post	2		12	40.0	2.5	/experiments/Knapen_AOT/AOT_stimuli/rescaled_final/2136_rv.mp4	0.0	211.71563935279846	0.09997010231018066
43	191.061870098114	fix_pre	0		120	41.0	2.5	blank	1.0	211.81560945510864	1.000129222869873
43	191.64543843269348	pulse	0	t		41.0	2.5	blank	1.0	212.3991777896881	
43	192.0619993209839	movie	1		300	41.0	2.5	blank	1.0	212.81573867797852	2.50036358833313
43	193.24560713768005	pulse	1	t		41.0	2.5	blank	1.0	213.99934649467468	
43	194.56236290931702	fix_post	2		12	41.0	2.5	blank	1.0	215.31610226631165	0.10004377365112305
44	194.66240668296814	fix_pre	0		120	42.0	2.5	/experiments/Knapen_AOT/AOT_stimuli/rescaled_final/1281_fw.mp4	0.0	215.41614603996277	1.000187873840332
44	194.84589195251465	pulse	0	t		42.0	2.5	/experiments/Knapen_AOT/AOT_stimuli/rescaled_final/1281_fw.mp4	0.0	215.59963130950928	
44	195.66259455680847	movie	1		300	42.0	2.5	/experiments/Knapen_AOT/AOT_stimuli/rescaled_final/1281_fw.mp4	0.0	216.4163339138031	2.5003018379211426
44	196.44611954689026	pulse	1	t		42.0	2.5	/experiments/Knapen_AOT/AOT_stimuli/rescaled_final/1281_fw.mp4	0.0	217.1998589038849	
44	198.04638195037842	pulse	1	t		42.0	2.5	/experiments/Knapen_AOT/AOT_stimuli/rescaled_final/1281_fw.mp4	0.0	218.80012130737305	
44	198.16289639472961	fix_post	2		12	42.0	2.5	/experiments/Knapen_AOT/AOT_stimuli/rescaled_final/1281_fw.mp4	0.0	218.91663575172424	0.1000211238861084
45	198.26291751861572	fix_pre	0		120	43.0	2.5	/experiments/Knapen_AOT/AOT_stimuli/rescaled_final/0623_fw.mp4	0.0	219.01665687561035	1.0001468658447266
45	199.26306438446045	movie	1		299	43.0	2.5	/experiments/Knapen_AOT/AOT_stimuli/rescaled_final/0623_fw.mp4	0.0	220.01680374145508	2.4920623302459717
45	199.64664125442505	pulse	1	t		43.0	2.5	/experiments/Knapen_AOT/AOT_stimuli/rescaled_final/0623_fw.mp4	0.0	220.40038061141968	
45	201.24684500694275	pulse	1	t		43.0	2.5	/experiments/Knapen_AOT/AOT_stimuli/rescaled_final/0623_fw.mp4	0.0	222.00058436393738	
45	201.75512671470642	fix_post	2		12	43.0	2.5	/experiments/Knapen_AOT/AOT_stimuli/rescaled_final/0623_fw.mp4	0.0	222.50886607170105	0.09999513626098633
46	201.8551218509674	fix_pre	0		120	44.0	2.5	/experiments/Knapen_AOT/AOT_stimuli/rescaled_final/1323_fw.mp4	0.0	222.60886120796204	1.000157117843628
46	202.84705638885498	pulse	0	t		44.0	2.5	/experiments/Knapen_AOT/AOT_stimuli/rescaled_final/1323_fw.mp4	0.0	223.6007957458496	
46	202.85527896881104	movie	1		301	44.0	2.5	/experiments/Knapen_AOT/AOT_stimuli/rescaled_final/1323_fw.mp4	0.0	223.60901832580566	2.5087954998016357
46	204.44359803199768	pulse	1	t		44.0	2.5	/experiments/Knapen_AOT/AOT_stimuli/rescaled_final/1323_fw.mp4	0.0	225.1973373889923	
46	205.36407446861267	fix_post	2		12	44.0	2.5	/experiments/Knapen_AOT/AOT_stimuli/rescaled_final/1323_fw.mp4	0.0	226.1178138256073	0.09994006156921387
47	205.46401453018188	fix_pre	0		120	45.0	2.5	/experiments/Knapen_AOT/AOT_stimuli/rescaled_final/1936_rv.mp4	0.0	226.2177538871765	1.0001380443572998
47	206.04755067825317	pulse	0	t		45.0	2.5	/experiments/Knapen_AOT/AOT_stimuli/rescaled_final/1936_rv.mp4	0.0	226.8012900352478	
47	206.46415257453918	movie	1		300	45.0	2.5	/experiments/Knapen_AOT/AOT_stimuli/rescaled_final/1936_rv.mp4	0.0	227.2178919315338	2.500370979309082
47	207.64348459243774	pulse	1	t		45.0	2.5	/experiments/Knapen_AOT/AOT_stimuli/rescaled_final/1936_rv.mp4	0.0	228.39722394943237	
47	208.96452355384827	fix_post	2		12	45.0	2.5	/experiments/Knapen_AOT/AOT_stimuli/rescaled_final/1936_rv.mp4	0.0	229.7182629108429	0.10001778602600098
48	209.06454133987427	fix_pre	0		120	46.0	2.5	/experiments/Knapen_AOT/AOT_stimuli/rescaled_final/2018_rv.mp4	0.0	229.8182806968689	1.000166893005371
48	209.24802327156067	pulse	0	t		46.0	2.5	/experiments/Knapen_AOT/AOT_stimuli/rescaled_final/2018_rv.mp4	0.0	230.0017626285553	
48	210.06470823287964	movie	1		288	46.0	2.5	/experiments/Knapen_AOT/AOT_stimuli/rescaled_final/2018_rv.mp4	0.0	230.81844758987427	2.500361442565918
48	210.84390950202942	pulse	1	t		46.0	2.5	/experiments/Knapen_AOT/AOT_stimuli/rescaled_final/2018_rv.mp4	0.0	231.59764885902405	
48	212.44418382644653	pulse	1	t		46.0	2.5	/experiments/Knapen_AOT/AOT_stimuli/rescaled_final/2018_rv.mp4	0.0	233.19792318344116	
48	212.56506967544556	fix_post	2		12	46.0	2.5	/experiments/Knapen_AOT/AOT_stimuli/rescaled_final/2018_rv.mp4	0.0	233.31880903244019	0.10001301765441895
49	212.66508269309998	fix_pre	0		120	47.0	2.5	/experiments/Knapen_AOT/AOT_stimuli/rescaled_final/1932_rv.mp4	0.0	233.4188220500946	1.0001535415649414
49	213.66523623466492	movie	1		299	47.0	2.5	/experiments/Knapen_AOT/AOT_stimuli/rescaled_final/1932_rv.mp4	0.0	234.41897559165955	2.4920358657836914
49	214.04484128952026	pulse	1	t		47.0	2.5	/experiments/Knapen_AOT/AOT_stimuli/rescaled_final/1932_rv.mp4	0.0	234.7985806465149	
49	215.6446716785431	pulse	1	t		47.0	2.5	/experiments/Knapen_AOT/AOT_stimuli/rescaled_final/1932_rv.mp4	0.0	236.39841103553772	
49	216.1572721004486	fix_post	2		12	47.0	2.5	/experiments/Knapen_AOT/AOT_stimuli/rescaled_final/1932_rv.mp4	0.0	236.91101145744324	0.10005593299865723
50	216.25732803344727	fix_pre	0		120	48.0	2.5	/experiments/Knapen_AOT/AOT_stimuli/rescaled_final/0118_fw.mp4	0.0	237.0110673904419	1.000152826309204
50	217.24922800064087	pulse	0	t		48.0	2.5	/experiments/Knapen_AOT/AOT_stimuli/rescaled_final/0118_fw.mp4	0.0	238.0029673576355	
50	217.25748085975647	movie	1		301	48.0	2.5	/experiments/Knapen_AOT/AOT_stimuli/rescaled_final/0118_fw.mp4	0.0	238.0112202167511	2.508669137954712
50	218.84572982788086	pulse	1	t		48.0	2.5	/experiments/Knapen_AOT/AOT_stimuli/rescaled_final/0118_fw.mp4	0.0	239.5994691848755	
50	219.76614999771118	fix_post	2		12	48.0	2.5	/experiments/Knapen_AOT/AOT_stimuli/rescaled_final/0118_fw.mp4	0.0	240.5198893547058	0.10001754760742188
51	219.8661675453186	fix_pre	0		120	49.0	2.5	blank	1.0	240.61990690231323	1.000147819519043
51	220.44978499412537	pulse	0	t		49.0	2.5	blank	1.0	241.20352435112	
51	220.86631536483765	movie	1		300	49.0	2.5	blank	1.0	241.62005472183228	2.5003859996795654
51	222.04999113082886	pulse	1	t		49.0	2.5	blank	1.0	242.8037304878235	
51	223.3667013645172	fix_post	2		12	49.0	2.5	blank	1.0	244.12044072151184	0.1000220775604248
52	223.46672344207764	fix_pre	0		120	50.0	2.5	/experiments/Knapen_AOT/AOT_stimuli/rescaled_final/1403_rv.mp4	0.0	244.22046279907227	1.0003554821014404
52	223.6502287387848	pulse	0	t		50.0	2.5	/experiments/Knapen_AOT/AOT_stimuli/rescaled_final/1403_rv.mp4	0.0	244.40396809577942	
52	224.46707892417908	movie	1		300	50.0	2.5	/experiments/Knapen_AOT/AOT_stimuli/rescaled_final/1403_rv.mp4	0.0	245.2208182811737	2.500220537185669
52	225.24603581428528	pulse	1	t		50.0	2.5	/experiments/Knapen_AOT/AOT_stimuli/rescaled_final/1403_rv.mp4	0.0	245.9997751712799	
52	226.8463966846466	pulse	1	t		50.0	2.5	/experiments/Knapen_AOT/AOT_stimuli/rescaled_final/1403_rv.mp4	0.0	247.60013604164124	
52	226.96729946136475	fix_post	2		12	50.0	2.5	/experiments/Knapen_AOT/AOT_stimuli/rescaled_final/1403_rv.mp4	0.0	247.72103881835938	0.09995460510253906
53	227.06725406646729	fix_pre	0		120	51.0	2.5	/experiments/Knapen_AOT/AOT_stimuli/rescaled_final/1173_rv.mp4	0.0	247.8209934234619	1.000150203704834
53	228.06740427017212	movie	1		299	51.0	2.5	/experiments/Knapen_AOT/AOT_stimuli/rescaled_final/1173_rv.mp4	0.0	248.82114362716675	2.492044448852539
53	228.44278264045715	pulse	1	t		51.0	2.5	/experiments/Knapen_AOT/AOT_stimuli/rescaled_final/1173_rv.mp4	0.0	249.19652199745178	
53	230.04302716255188	pulse	1	t		51.0	2.5	/experiments/Knapen_AOT/AOT_stimuli/rescaled_final/1173_rv.mp4	0.0	250.7967665195465	
53	230.55944871902466	fix_post	2		12	51.0	2.5	/experiments/Knapen_AOT/AOT_stimuli/rescaled_final/1173_rv.mp4	0.0	251.3131880760193	0.10002660751342773
54	230.6594753265381	fix_pre	0		119	52.0	2.5	/experiments/Knapen_AOT/AOT_stimuli/rescaled_final/0306_rv.mp4	0.0	251.41321468353271	1.0001907348632812
54	231.64305877685547	pulse	0	t		52.0	2.5	/experiments/Knapen_AOT/AOT_stimuli/rescaled_final/0306_rv.mp4	0.0	252.3967981338501	
54	231.65966606140137	movie	1		300	52.0	2.5	/experiments/Knapen_AOT/AOT_stimuli/rescaled_final/0306_rv.mp4	0.0	252.413405418396	2.500314235687256
54	233.24342322349548	pulse	1	t		52.0	2.5	/experiments/Knapen_AOT/AOT_stimuli/rescaled_final/0306_rv.mp4	0.0	253.9971625804901	
54	234.15998029708862	fix_post	2		12	52.0	2.5	/experiments/Knapen_AOT/AOT_stimuli/rescaled_final/0306_rv.mp4	0.0	254.91371965408325	0.10007715225219727
55	234.26005744934082	fix_pre	0		120	53.0	2.5	/experiments/Knapen_AOT/AOT_stimuli/rescaled_final/1348_rv.mp4	0.0	255.01379680633545	1.0000848770141602
55	234.84357166290283	pulse	0	t		53.0	2.5	/experiments/Knapen_AOT/AOT_stimuli/rescaled_final/1348_rv.mp4	0.0	255.59731101989746	
55	235.26014232635498	movie	1		300	53.0	2.5	/experiments/Knapen_AOT/AOT_stimuli/rescaled_final/1348_rv.mp4	0.0	256.0138816833496	2.500375747680664
55	236.44380831718445	pulse	1	t		53.0	2.5	/experiments/Knapen_AOT/AOT_stimuli/rescaled_final/1348_rv.mp4	0.0	257.1975476741791	
55	237.76051807403564	fix_post	2		12	53.0	2.5	/experiments/Knapen_AOT/AOT_stimuli/rescaled_final/1348_rv.mp4	0.0	258.5142574310303	0.10001373291015625
56	237.8605318069458	fix_pre	0		120	54.0	2.5	/experiments/Knapen_AOT/AOT_stimuli/rescaled_final/0540_fw.mp4	0.0	258.61427116394043	1.0001273155212402
56	238.04403114318848	pulse	0	t		54.0	2.5	/experiments/Knapen_AOT/AOT_stimuli/rescaled_final/0540_fw.mp4	0.0	258.7977705001831	
56	238.86065912246704	movie	1		300	54.0	2.5	/experiments/Knapen_AOT/AOT_stimuli/rescaled_final/0540_fw.mp4	0.0	259.61439847946167	2.5004141330718994
56	239.64428210258484	pulse	1	t		54.0	2.5	/experiments/Knapen_AOT/AOT_stimuli/rescaled_final/0540_fw.mp4	0.0	260.39802145957947	
56	241.2445137500763	pulse	1	t		54.0	2.5	/experiments/Knapen_AOT/AOT_stimuli/rescaled_final/0540_fw.mp4	0.0	261.9982531070709	
56	241.36107325553894	fix_post	2		12	54.0	2.5	/experiments/Knapen_AOT/AOT_stimuli/rescaled_final/0540_fw.mp4	0.0	262.11481261253357	0.1000070571899414
57	241.46108031272888	fix_pre	0		120	55.0	2.5	/experiments/Knapen_AOT/AOT_stimuli/rescaled_final/1256_fw.mp4	0.0	262.2148196697235	1.0001306533813477
57	242.46121096611023	movie	1		299	55.0	2.5	/experiments/Knapen_AOT/AOT_stimuli/rescaled_final/1256_fw.mp4	0.0	263.21495032310486	2.4920802116394043
57	242.8448565006256	pulse	1	t		55.0	2.5	/experiments/Knapen_AOT/AOT_stimuli/rescaled_final/1256_fw.mp4	0.0	263.59859585762024	
57	244.4450023174286	pulse	1	t		55.0	2.5	/experiments/Knapen_AOT/AOT_stimuli/rescaled_final/1256_fw.mp4	0.0	265.1987416744232	
57	244.95329117774963	fix_post	2		12	55.0	2.5	/experiments/Knapen_AOT/AOT_stimuli/rescaled_final/1256_fw.mp4	0.0	265.70703053474426	0.09999799728393555
58	245.05328917503357	fix_pre	0		120	56.0	2.5	blank	1.0	265.8070285320282	1.0001568794250488
58	246.04524970054626	pulse	0	t		56.0	2.5	blank	1.0	266.7989890575409	
58	246.05344605445862	movie	1		301	56.0	2.5	blank	1.0	266.80718541145325	2.508690118789673
58	247.6454610824585	pulse	1	t		56.0	2.5	blank	1.0	268.3992004394531	
58	248.5621361732483	fix_post	2		12	56.0	2.5	blank	1.0	269.3158755302429	0.10002565383911133
59	248.6621618270874	fix_pre	0		120	57.0	2.5	/experiments/Knapen_AOT/AOT_stimuli/rescaled_final/1175_fw.mp4	0.0	269.41590118408203	1.0001499652862549
59	249.24571800231934	pulse	0	t		57.0	2.5	/experiments/Knapen_AOT/AOT_stimuli/rescaled_final/1175_fw.mp4	0.0	269.99945735931396	
59	249.66231179237366	movie	1		300	57.0	2.5	/experiments/Knapen_AOT/AOT_stimuli/rescaled_final/1175_fw.mp4	0.0	270.4160511493683	2.500382423400879
59	250.8459825515747	pulse	1	t		57.0	2.5	/experiments/Knapen_AOT/AOT_stimuli/rescaled_final/1175_fw.mp4	0.0	271.59972190856934	
59	252.16269421577454	fix_post	2		12	57.0	2.5	/experiments/Knapen_AOT/AOT_stimuli/rescaled_final/1175_fw.mp4	0.0	272.91643357276917	0.10001635551452637
60	252.26271057128906	fix_pre	0		120	58.0	2.5	/experiments/Knapen_AOT/AOT_stimuli/rescaled_final/1323_fw.mp4	0.0	273.0164499282837	1.000192403793335
60	252.44623351097107	pulse	0	t		58.0	2.5	/experiments/Knapen_AOT/AOT_stimuli/rescaled_final/1323_fw.mp4	0.0	273.1999728679657	
60	253.2629029750824	movie	1		300	58.0	2.5	/experiments/Knapen_AOT/AOT_stimuli/rescaled_final/1323_fw.mp4	0.0	274.016642332077	2.500326156616211
60	254.0465259552002	pulse	1	t		58.0	2.5	/experiments/Knapen_AOT/AOT_stimuli/rescaled_final/1323_fw.mp4	0.0	274.8002653121948	
60	255.64669632911682	pulse	1	t		58.0	2.5	/experiments/Knapen_AOT/AOT_stimuli/rescaled_final/1323_fw.mp4	0.0	276.40043568611145	
60	255.7632291316986	fix_post	2		12	58.0	2.5	/experiments/Knapen_AOT/AOT_stimuli/rescaled_final/1323_fw.mp4	0.0	276.51696848869324	0.10001873970031738
61	255.86324787139893	fix_pre	0		120	59.0	2.5	/experiments/Knapen_AOT/AOT_stimuli/rescaled_final/0183_rv.mp4	0.0	276.61698722839355	1.0001301765441895
61	256.8633780479431	movie	1		299	59.0	2.5	/experiments/Knapen_AOT/AOT_stimuli/rescaled_final/0183_rv.mp4	0.0	277.61711740493774	2.4920759201049805
61	257.24317812919617	pulse	1	t		59.0	2.5	/experiments/Knapen_AOT/AOT_stimuli/rescaled_final/0183_rv.mp4	0.0	277.9969174861908	
61	258.84725189208984	pulse	1	t		59.0	2.5	/experiments/Knapen_AOT/AOT_stimuli/rescaled_final/0183_rv.mp4	0.0	279.6009912490845	
61	259.3554539680481	fix_post	2		12	59.0	2.5	/experiments/Knapen_AOT/AOT_stimuli/rescaled_final/0183_rv.mp4	0.0	280.1091933250427	0.10002470016479492
62	259.4554786682129	fix_pre	0		120	60.0	2.5	/experiments/Knapen_AOT/AOT_stimuli/rescaled_final/0059_fw.mp4	0.0	280.2092180252075	1.008481740951538
62	260.4474153518677	pulse	0	t		60.0	2.5	/experiments/Knapen_AOT/AOT_stimuli/rescaled_final/0059_fw.mp4	0.0	281.2011547088623	
62	260.46396040916443	movie	1		299	60.0	2.5	/experiments/Knapen_AOT/AOT_stimuli/rescaled_final/0059_fw.mp4	0.0	281.21769976615906	2.5003812313079834
62	262.0438423156738	pulse	1	t		60.0	2.5	/experiments/Knapen_AOT/AOT_stimuli/rescaled_final/0059_fw.mp4	0.0	282.79758167266846	
62	262.9643416404724	fix_post	2		12	60.0	2.5	/experiments/Knapen_AOT/AOT_stimuli/rescaled_final/0059_fw.mp4	0.0	283.71808099746704	0.09998774528503418
63	263.06432938575745	fix_pre	0		120	61.0	2.5	/experiments/Knapen_AOT/AOT_stimuli/rescaled_final/1833_rv.mp4	0.0	283.8180687427521	1.0001389980316162
63	263.647882938385	pulse	0	t		61.0	2.5	/experiments/Knapen_AOT/AOT_stimuli/rescaled_final/1833_rv.mp4	0.0	284.40162229537964	
63	264.06446838378906	movie	1		300	61.0	2.5	/experiments/Knapen_AOT/AOT_stimuli/rescaled_final/1833_rv.mp4	0.0	284.8182077407837	2.5003879070281982
63	265.2438614368439	pulse	1	t		61.0	2.5	/experiments/Knapen_AOT/AOT_stimuli/rescaled_final/1833_rv.mp4	0.0	285.9976007938385	
63	266.56485629081726	fix_post	2		12	61.0	2.5	/experiments/Knapen_AOT/AOT_stimuli/rescaled_final/1833_rv.mp4	0.0	287.3185956478119	0.10000777244567871
64	266.66486406326294	fix_pre	0		120	62.0	2.5	blank	1.0	287.41860342025757	1.0001585483551025
64	266.8483638763428	pulse	0	t		62.0	2.5	blank	1.0	287.6021032333374	
64	267.66502261161804	movie	1		300	62.0	2.5	blank	1.0	288.41876196861267	2.500368595123291
64	268.44861674308777	pulse	1	t		62.0	2.5	blank	1.0	289.2023561000824	
64	270.0488338470459	pulse	1	t		62.0	2.5	blank	1.0	290.8025732040405	
64	270.16539120674133	fix_post	2		12	62.0	2.5	blank	1.0	290.91913056373596	0.1000211238861084
65	270.26541233062744	fix_pre	0		120	63.0	2.5	/experiments/Knapen_AOT/AOT_stimuli/rescaled_final/1988_fw.mp4	0.0	291.01915168762207	1.00040602684021
65	271.26581835746765	movie	1		299	63.0	2.5	/experiments/Knapen_AOT/AOT_stimuli/rescaled_final/1988_fw.mp4	0.0	292.0195577144623	2.4918015003204346
65	271.64524722099304	pulse	1	t		63.0	2.5	/experiments/Knapen_AOT/AOT_stimuli/rescaled_final/1988_fw.mp4	0.0	292.39898657798767	
65	273.2448592185974	pulse	1	t		63.0	2.5	/experiments/Knapen_AOT/AOT_stimuli/rescaled_final/1988_fw.mp4	0.0	293.99859857559204	
65	273.7576198577881	fix_post	2		12	63.0	2.5	/experiments/Knapen_AOT/AOT_stimuli/rescaled_final/1988_fw.mp4	0.0	294.5113592147827	0.1000211238861084
66	273.8576409816742	fix_pre	0		120	64.0	2.5	/experiments/Knapen_AOT/AOT_stimuli/rescaled_final/1352_rv.mp4	0.0	294.6113803386688	1.0085179805755615
66	274.8495342731476	pulse	0	t		64.0	2.5	/experiments/Knapen_AOT/AOT_stimuli/rescaled_final/1352_rv.mp4	0.0	295.6032736301422	
66	274.86615896224976	movie	1		300	64.0	2.5	/experiments/Knapen_AOT/AOT_stimuli/rescaled_final/1352_rv.mp4	0.0	295.6198983192444	2.500314950942993
66	276.44607281684875	pulse	1	t		64.0	2.5	/experiments/Knapen_AOT/AOT_stimuli/rescaled_final/1352_rv.mp4	0.0	297.1998121738434	
66	277.36647391319275	fix_post	2		12	64.0	2.5	/experiments/Knapen_AOT/AOT_stimuli/rescaled_final/1352_rv.mp4	0.0	298.1202132701874	0.10006165504455566
67	277.4665355682373	fix_pre	0		120	65.0	2.5	/experiments/Knapen_AOT/AOT_stimuli/rescaled_final/1988_rv.mp4	0.0	298.22027492523193	1.0000977516174316
67	278.05007553100586	pulse	0	t		65.0	2.5	/experiments/Knapen_AOT/AOT_stimuli/rescaled_final/1988_rv.mp4	0.0	298.8038148880005	
67	278.46663331985474	movie	1		300	65.0	2.5	/experiments/Knapen_AOT/AOT_stimuli/rescaled_final/1988_rv.mp4	0.0	299.22037267684937	2.5003979206085205
67	279.64622926712036	pulse	1	t		65.0	2.5	/experiments/Knapen_AOT/AOT_stimuli/rescaled_final/1988_rv.mp4	0.0	300.399968624115	
67	280.96703124046326	fix_post	2		12	65.0	2.5	/experiments/Knapen_AOT/AOT_stimuli/rescaled_final/1988_rv.mp4	0.0	301.7207705974579	0.10000467300415039
68	281.0670359134674	fix_pre	0		120	66.0	2.5	/experiments/Knapen_AOT/AOT_stimuli/rescaled_final/0809_fw.mp4	0.0	301.82077527046204	1.0001718997955322
68	281.2505624294281	pulse	0	t		66.0	2.5	/experiments/Knapen_AOT/AOT_stimuli/rescaled_final/0809_fw.mp4	0.0	302.00430178642273	
68	282.06720781326294	movie	1		299	66.0	2.5	/experiments/Knapen_AOT/AOT_stimuli/rescaled_final/0809_fw.mp4	0.0	302.82094717025757	2.500354766845703
68	282.8463315963745	pulse	1	t		66.0	2.5	/experiments/Knapen_AOT/AOT_stimuli/rescaled_final/0809_fw.mp4	0.0	303.60007095336914	
68	284.44662380218506	pulse	1	t		66.0	2.5	/experiments/Knapen_AOT/AOT_stimuli/rescaled_final/0809_fw.mp4	0.0	305.2003631591797	
68	284.56756258010864	fix_post	2		12	66.0	2.5	/experiments/Knapen_AOT/AOT_stimuli/rescaled_final/0809_fw.mp4	0.0	305.32130193710327	0.10001420974731445
69	284.66757678985596	fix_pre	0		120	67.0	2.5	/experiments/Knapen_AOT/AOT_stimuli/rescaled_final/0090_rv.mp4	0.0	305.4213161468506	1.0001592636108398
69	285.6677360534668	movie	1		299	67.0	2.5	/experiments/Knapen_AOT/AOT_stimuli/rescaled_final/0090_rv.mp4	0.0	306.4214754104614	2.492050886154175
69	286.04318618774414	pulse	1	t		67.0	2.5	/experiments/Knapen_AOT/AOT_stimuli/rescaled_final/0090_rv.mp4	0.0	306.79692554473877	
69	287.6431541442871	pulse	1	t		67.0	2.5	/experiments/Knapen_AOT/AOT_stimuli/rescaled_final/0090_rv.mp4	0.0	308.39689350128174	
69	288.159786939621	fix_post	2		12	67.0	2.5	/experiments/Knapen_AOT/AOT_stimuli/rescaled_final/0090_rv.mp4	0.0	308.9135262966156	0.10002803802490234
70	288.2598149776459	fix_pre	0		119	68.0	2.5	blank	1.0	309.0135543346405	0.9918289184570312
70	289.243456363678	pulse	0	t		68.0	2.5	blank	1.0	309.9971957206726	
70	289.2516438961029	movie	1		301	68.0	2.5	blank	1.0	310.00538325309753	2.508661985397339
70	290.84366488456726	pulse	1	t		68.0	2.5	blank	1.0	311.5974042415619	
70	291.76030588150024	fix_post	2		12	68.0	2.5	blank	1.0	312.5140452384949	0.10002994537353516
71	291.8603358268738	fix_pre	0		120	69.0	2.5	/experiments/Knapen_AOT/AOT_stimuli/rescaled_final/2110_rv.mp4	0.0	312.6140751838684	1.00014066696167
71	292.44386434555054	pulse	0	t		69.0	2.5	/experiments/Knapen_AOT/AOT_stimuli/rescaled_final/2110_rv.mp4	0.0	313.19760370254517	
71	292.86047649383545	movie	1		300	69.0	2.5	/experiments/Knapen_AOT/AOT_stimuli/rescaled_final/2110_rv.mp4	0.0	313.6142158508301	2.5003719329833984
71	294.0441310405731	pulse	1	t		69.0	2.5	/experiments/Knapen_AOT/AOT_stimuli/rescaled_final/2110_rv.mp4	0.0	314.79787039756775	
71	295.36084842681885	fix_post	2		12	69.0	2.5	/experiments/Knapen_AOT/AOT_stimuli/rescaled_final/2110_rv.mp4	0.0	316.1145877838135	0.10001254081726074
72	295.4608609676361	fix_pre	0		120	70.0	2.5	/experiments/Knapen_AOT/AOT_stimuli/rescaled_final/1173_fw.mp4	0.0	316.21460032463074	1.0001559257507324
72	295.6443684101105	pulse	0	t		70.0	2.5	/experiments/Knapen_AOT/AOT_stimuli/rescaled_final/1173_fw.mp4	0.0	316.3981077671051	
72	296.46101689338684	movie	1		300	70.0	2.5	/experiments/Knapen_AOT/AOT_stimuli/rescaled_final/1173_fw.mp4	0.0	317.21475625038147	2.5003645420074463
72	297.2446472644806	pulse	1	t		70.0	2.5	/experiments/Knapen_AOT/AOT_stimuli/rescaled_final/1173_fw.mp4	0.0	317.9983866214752	
72	298.8448350429535	pulse	1	t		70.0	2.5	/experiments/Knapen_AOT/AOT_stimuli/rescaled_final/1173_fw.mp4	0.0	319.5985743999481	
72	298.9613814353943	fix_post	2		12	70.0	2.5	/experiments/Knapen_AOT/AOT_stimuli/rescaled_final/1173_fw.mp4	0.0	319.7151207923889	0.10003304481506348
73	299.06141448020935	fix_pre	0		120	71.0	2.5	/experiments/Knapen_AOT/AOT_stimuli/rescaled_final/1027_fw.mp4	0.0	319.815153837204	1.000145673751831
73	300.0615601539612	movie	1		299	71.0	2.5	/experiments/Knapen_AOT/AOT_stimuli/rescaled_final/1027_fw.mp4	0.0	320.8152995109558	2.4920880794525146
73	300.445104598999	pulse	1	t		71.0	2.5	/experiments/Knapen_AOT/AOT_stimuli/rescaled_final/1027_fw.mp4	0.0	321.19884395599365	
73	302.04541778564453	pulse	1	t		71.0	2.5	/experiments/Knapen_AOT/AOT_stimuli/rescaled_final/1027_fw.mp4	0.0	322.79915714263916	
73	302.5536482334137	fix_post	2		12	71.0	2.5	/experiments/Knapen_AOT/AOT_stimuli/rescaled_final/1027_fw.mp4	0.0	323.3073875904083	0.10000443458557129
74	302.65365266799927	fix_pre	0		120	72.0	2.5	/experiments/Knapen_AOT/AOT_stimuli/rescaled_final/1630_fw.mp4	0.0	323.4073920249939	1.008455753326416
74	303.6455674171448	pulse	0	t		72.0	2.5	/experiments/Knapen_AOT/AOT_stimuli/rescaled_final/1630_fw.mp4	0.0	324.3993067741394	
74	303.6621084213257	movie	1		299	72.0	2.5	/experiments/Knapen_AOT/AOT_stimuli/rescaled_final/1630_fw.mp4	0.0	324.4158477783203	2.5003914833068848
74	305.245888710022	pulse	1	t		72.0	2.5	/experiments/Knapen_AOT/AOT_stimuli/rescaled_final/1630_fw.mp4	0.0	325.9996280670166	
74	306.16249990463257	fix_post	2		12	72.0	2.5	/experiments/Knapen_AOT/AOT_stimuli/rescaled_final/1630_fw.mp4	0.0	326.9162392616272	0.10000109672546387
75	306.26250100135803	fix_pre	0		120	73.0	2.5	/experiments/Knapen_AOT/AOT_stimuli/rescaled_final/1738_fw.mp4	0.0	327.01624035835266	1.0001366138458252
75	306.8460350036621	pulse	0	t		73.0	2.5	/experiments/Knapen_AOT/AOT_stimuli/rescaled_final/1738_fw.mp4	0.0	327.59977436065674	
75	307.26263761520386	movie	1		300	73.0	2.5	/experiments/Knapen_AOT/AOT_stimuli/rescaled_final/1738_fw.mp4	0.0	328.0163769721985	2.5003740787506104
75	308.44639325141907	pulse	1	t		73.0	2.5	/experiments/Knapen_AOT/AOT_stimuli/rescaled_final/1738_fw.mp4	0.0	329.2001326084137	
75	309.76301169395447	fix_post	2		12	73.0	2.5	/experiments/Knapen_AOT/AOT_stimuli/rescaled_final/1738_fw.mp4	0.0	330.5167510509491	0.10004401206970215
76	309.86305570602417	fix_pre	0		120	74.0	2.5	/experiments/Knapen_AOT/AOT_stimuli/rescaled_final/1149_fw.mp4	0.0	330.6167950630188	1.0001230239868164
76	310.04651713371277	pulse	0	t		74.0	2.5	/experiments/Knapen_AOT/AOT_stimuli/rescaled_final/1149_fw.mp4	0.0	330.8002564907074	
76	310.863178730011	movie	1		300	74.0	2.5	/experiments/Knapen_AOT/AOT_stimuli/rescaled_final/1149_fw.mp4	0.0	331.6169180870056	2.500412940979004
76	311.64677357673645	pulse	1	t		74.0	2.5	/experiments/Knapen_AOT/AOT_stimuli/rescaled_final/1149_fw.mp4	0.0	332.4005129337311	
76	313.24700570106506	pulse	1	t		74.0	2.5	/experiments/Knapen_AOT/AOT_stimuli/rescaled_final/1149_fw.mp4	0.0	334.0007450580597	
76	313.36359167099	fix_post	2		12	74.0	2.5	/experiments/Knapen_AOT/AOT_stimuli/rescaled_final/1149_fw.mp4	0.0	334.1173310279846	0.10002303123474121
77	313.46361470222473	fix_pre	0		120	75.0	2.5	/experiments/Knapen_AOT/AOT_stimuli/rescaled_final/1352_fw.mp4	0.0	334.21735405921936	1.0001330375671387
77	314.46374773979187	movie	1		298	75.0	2.5	/experiments/Knapen_AOT/AOT_stimuli/rescaled_final/1352_fw.mp4	0.0	335.2174870967865	2.492064952850342
77	314.84359645843506	pulse	1	t		75.0	2.5	/experiments/Knapen_AOT/AOT_stimuli/rescaled_final/1352_fw.mp4	0.0	335.5973358154297	
77	316.4433653354645	pulse	1	t		75.0	2.5	/experiments/Knapen_AOT/AOT_stimuli/rescaled_final/1352_fw.mp4	0.0	337.1971046924591	
77	316.9558126926422	fix_post	2		12	75.0	2.5	/experiments/Knapen_AOT/AOT_stimuli/rescaled_final/1352_fw.mp4	0.0	337.70955204963684	0.10000967979431152
78	317.0558223724365	fix_pre	0		120	76.0	2.5	blank	1.0	337.80956172943115	1.0001120567321777
78	318.047744512558	pulse	0	t		76.0	2.5	blank	1.0	338.8014838695526	
78	318.0559344291687	movie	1		301	76.0	2.5	blank	1.0	338.80967378616333	2.508723258972168
78	319.64794921875	pulse	1	t		76.0	2.5	blank	1.0	340.40168857574463	
78	320.56465768814087	fix_post	2		12	76.0	2.5	blank	1.0	341.3183970451355	0.10001206398010254
79	320.664669752121	fix_pre	0		120	77.0	2.5	/experiments/Knapen_AOT/AOT_stimuli/rescaled_final/0030_fw.mp4	0.0	341.4184091091156	1.0084805488586426
79	321.24820041656494	pulse	0	t		77.0	2.5	/experiments/Knapen_AOT/AOT_stimuli/rescaled_final/0030_fw.mp4	0.0	342.00193977355957	
79	321.6731503009796	movie	1		298	77.0	2.5	/experiments/Knapen_AOT/AOT_stimuli/rescaled_final/0030_fw.mp4	0.0	342.42688965797424	2.492042064666748
79	322.8442723751068	pulse	1	t		77.0	2.5	/experiments/Knapen_AOT/AOT_stimuli/rescaled_final/0030_fw.mp4	0.0	343.59801173210144	
79	324.16519236564636	fix_post	2		12	77.0	2.5	/experiments/Knapen_AOT/AOT_stimuli/rescaled_final/0030_fw.mp4	0.0	344.918931722641	0.09999608993530273
80	324.26518845558167	fix_pre	0		120	78.0	2.5	/experiments/Knapen_AOT/AOT_stimuli/rescaled_final/0734_fw.mp4	0.0	345.0189278125763	1.0001544952392578
80	324.44867062568665	pulse	0	t		78.0	2.5	/experiments/Knapen_AOT/AOT_stimuli/rescaled_final/0734_fw.mp4	0.0	345.2024099826813	
80	325.2653429508209	movie	1		300	78.0	2.5	/experiments/Knapen_AOT/AOT_stimuli/rescaled_final/0734_fw.mp4	0.0	346.01908230781555	2.5003931522369385
80	326.04475831985474	pulse	1	t		78.0	2.5	/experiments/Knapen_AOT/AOT_stimuli/rescaled_final/0734_fw.mp4	0.0	346.79849767684937	
80	327.644873380661	pulse	1	t		78.0	2.5	/experiments/Knapen_AOT/AOT_stimuli/rescaled_final/0734_fw.mp4	0.0	348.39861273765564	
80	327.76573610305786	fix_post	2		12	78.0	2.5	/experiments/Knapen_AOT/AOT_stimuli/rescaled_final/0734_fw.mp4	0.0	348.5194754600525	0.10005068778991699
81	327.8657867908478	fix_pre	0		120	79.0	2.5	/experiments/Knapen_AOT/AOT_stimuli/rescaled_final/1625_rv.mp4	0.0	348.6195261478424	1.00010347366333
81	328.8658902645111	movie	1		299	79.0	2.5	/experiments/Knapen_AOT/AOT_stimuli/rescaled_final/1625_rv.mp4	0.0	349.61962962150574	2.49210262298584
81	329.24552965164185	pulse	1	t		79.0	2.5	/experiments/Knapen_AOT/AOT_stimuli/rescaled_final/1625_rv.mp4	0.0	349.9992690086365	
81	330.8451509475708	pulse	1	t		79.0	2.5	/experiments/Knapen_AOT/AOT_stimuli/rescaled_final/1625_rv.mp4	0.0	351.59889030456543	
81	331.35799288749695	fix_post	2		12	79.0	2.5	/experiments/Knapen_AOT/AOT_stimuli/rescaled_final/1625_rv.mp4	0.0	352.1117322444916	0.09998273849487305
82	331.4579756259918	fix_pre	0		120	80.0	2.5	/experiments/Knapen_AOT/AOT_stimuli/rescaled_final/1216_rv.mp4	0.0	352.21171498298645	1.0005698204040527
82	332.44987392425537	pulse	0	t		80.0	2.5	/experiments/Knapen_AOT/AOT_stimuli/rescaled_final/1216_rv.mp4	0.0	353.20361328125	
82	332.4585454463959	movie	1		301	80.0	2.5	/experiments/Knapen_AOT/AOT_stimuli/rescaled_final/1216_rv.mp4	0.0	353.2122848033905	2.508260726928711
82	334.04633259773254	pulse	1	t		80.0	2.5	/experiments/Knapen_AOT/AOT_stimuli/rescaled_final/1216_rv.mp4	0.0	354.8000719547272	
82	334.9668061733246	fix_post	2		12	80.0	2.5	/experiments/Knapen_AOT/AOT_stimuli/rescaled_final/1216_rv.mp4	0.0	355.7205455303192	0.1000359058380127
83	335.0668420791626	fix_pre	0		120	81.0	2.5	/experiments/Knapen_AOT/AOT_stimuli/rescaled_final/1238_fw.mp4	0.0	355.8205814361572	1.0001215934753418
83	335.65038108825684	pulse	0	t		81.0	2.5	/experiments/Knapen_AOT/AOT_stimuli/rescaled_final/1238_fw.mp4	0.0	356.40412044525146	
83	336.06696367263794	movie	1		300	81.0	2.5	/experiments/Knapen_AOT/AOT_stimuli/rescaled_final/1238_fw.mp4	0.0	356.82070302963257	2.500373125076294
83	337.24637937545776	pulse	1	t		81.0	2.5	/experiments/Knapen_AOT/AOT_stimuli/rescaled_final/1238_fw.mp4	0.0	358.0001187324524	
83	338.56733679771423	fix_post	2		12	81.0	2.5	/experiments/Knapen_AOT/AOT_stimuli/rescaled_final/1238_fw.mp4	0.0	359.32107615470886	0.10001897811889648
84	338.66735577583313	fix_pre	0		120	82.0	2.5	/experiments/Knapen_AOT/AOT_stimuli/rescaled_final/0616_rv.mp4	0.0	359.42109513282776	1.0001440048217773
84	338.85085940361023	pulse	0	t		82.0	2.5	/experiments/Knapen_AOT/AOT_stimuli/rescaled_final/0616_rv.mp4	0.0	359.60459876060486	
84	339.6674997806549	movie	1		300	82.0	2.5	/experiments/Knapen_AOT/AOT_stimuli/rescaled_final/0616_rv.mp4	0.0	360.42123913764954	2.5003910064697266
84	340.44719195365906	pulse	1	t		82.0	2.5	/experiments/Knapen_AOT/AOT_stimuli/rescaled_final/0616_rv.mp4	0.0	361.2009313106537	
84	342.0473346710205	pulse	1	t		82.0	2.5	/experiments/Knapen_AOT/AOT_stimuli/rescaled_final/0616_rv.mp4	0.0	362.80107402801514	
84	342.16789078712463	fix_post	2		12	82.0	2.5	/experiments/Knapen_AOT/AOT_stimuli/rescaled_final/0616_rv.mp4	0.0	362.92163014411926	0.10004138946533203
85	342.26793217658997	fix_pre	0		120	83.0	2.5	blank	1.0	363.0216715335846	1.0001189708709717
85	343.26805114746094	movie	1		299	83.0	2.5	blank	1.0	364.02179050445557	2.492095708847046
85	343.64343643188477	pulse	1	t		83.0	2.5	blank	1.0	364.3971757888794	
85	345.2434883117676	pulse	1	t		83.0	2.5	blank	1.0	365.9972276687622	
85	345.760146856308	fix_post	2		12	83.0	2.5	blank	1.0	366.5138862133026	0.1000068187713623
87	345.86015367507935	stim	0		1716					366.613893032074	14.302095174789429
87	346.84371757507324	pulse	0	t						367.59745693206787	
87	348.44393515586853	pulse	0	t						369.19767451286316	
87	350.0441780090332	pulse	0	t						370.79791736602783	
87	351.64443922042847	pulse	0	t						372.3981785774231	
87	353.2446618080139	pulse	0	t						373.99840116500854	
87	354.84489941596985	pulse	0	t						375.5986387729645	
87	356.44513869285583	pulse	0	t						377.19887804985046	
87	358.04545068740845	pulse	0	t						378.7991900444031	
87	359.64560747146606	pulse	0	t						380.3993468284607	
