trial_nr	onset	event_type	phase	response	nr_frames	movie_index	movie_duration	movie_file	blank	onset_abs	duration
0	0.016829967498779297	stim	0		317					16.082518815994263	2.6384520530700684
0	2.6399619579315186	response	0	space						18.705650806427002	
1	2.6552820205688477	stim	0		95					18.72097086906433	0.7917630672454834
1	3.4314489364624023	pulse	0	t						19.497137784957886	
1	3.447045087814331	stim	1		1717					19.512733936309814	14.308347940444946
1	15.538776159286499	pulse	1	t						31.604465007781982	
1	16.48869800567627	pulse	1	t						32.55438685417175	
2	17.755393028259277	fix_pre	0		35	0.0	2.5	/experiments/knapen_aot/videos/R_S_yt-AbJBxqEYoMg_27.mp4	0.0	33.82108187675476	0.29159998893737793
2	18.038805961608887	pulse	0	t		0.0	2.5	/experiments/knapen_aot/videos/R_S_yt-AbJBxqEYoMg_27.mp4	0.0	34.10449481010437	
2	18.046993017196655	movie	1		295	0.0	2.5	/experiments/knapen_aot/videos/R_S_yt-AbJBxqEYoMg_27.mp4	0.0	34.11268186569214	2.508342981338501
2	20.555335998535156	fix_post	2		12	0.0	2.5	/experiments/knapen_aot/videos/R_S_yt-AbJBxqEYoMg_27.mp4	0.0	36.62102484703064	0.09998202323913574
3	20.655318021774292	fix_pre	0		120	1.0	2.5	/experiments/knapen_aot/videos/R_S_yt-GjFQxAklviE_25.mp4	0.0	36.721006870269775	1.0000250339508057
3	21.655343055725098	movie	1		294	1.0	2.5	/experiments/knapen_aot/videos/R_S_yt-GjFQxAklviE_25.mp4	0.0	37.72103190422058	2.4999890327453613
3	24.15533208847046	fix_post	2		12	1.0	2.5	/experiments/knapen_aot/videos/R_S_yt-GjFQxAklviE_25.mp4	0.0	40.22102093696594	0.09997701644897461
4	24.255309104919434	fix_pre	0		120	2.0	2.5	/experiments/knapen_aot/videos/S_pexels-kindel-media-8165572.mp4	0.0	40.32099795341492	1.0000288486480713
4	25.255337953567505	movie	1		163	2.0	2.5	/experiments/knapen_aot/videos/S_pexels-kindel-media-8165572.mp4	0.0	41.32102680206299	2.499962091445923
4	27.755300045013428	fix_post	2		12	2.0	2.5	/experiments/knapen_aot/videos/S_pexels-kindel-media-8165572.mp4	0.0	43.82098889350891	0.10006594657897949
5	27.855365991592407	fix_pre	0		120	3.0	2.5	/experiments/knapen_aot/videos/S_IrGYVLkWeQs_9.mp4	0.0	43.92105484008789	1.0003399848937988
5	28.855705976486206	movie	1		297	3.0	2.5	/experiments/knapen_aot/videos/S_IrGYVLkWeQs_9.mp4	0.0	44.92139482498169	2.4995930194854736
5	31.35529899597168	fix_post	2		12	3.0	2.5	/experiments/knapen_aot/videos/S_IrGYVLkWeQs_9.mp4	0.0	47.42098784446716	0.10000205039978027
6	31.45530104637146	fix_pre	0		3742	4.0	2.5	/experiments/knapen_aot/videos/R_S_yt-uSHBdUi8_V0_24.mp4	0.0	47.52098989486694	31.184839010238647
6	62.63040208816528	pulse	0	t		4.0	2.5	/experiments/knapen_aot/videos/R_S_yt-uSHBdUi8_V0_24.mp4	0.0	78.69609093666077	
6	62.64014005661011	movie	1		221	4.0	2.5	/experiments/knapen_aot/videos/R_S_yt-uSHBdUi8_V0_24.mp4	0.0	78.70582890510559	1.8649940490722656
