trial_nr	onset	event_type	phase	response	nr_frames	movie_index	movie_duration	movie_file	blank	onset_abs	duration
0	0.16666507720947266	stim	0		1					21.317756175994873	0.008216142654418945
0	0.1330873966217041	response	0	space						21.284178495407104	
1	0.1748812198638916	stim	0		4607					21.325972318649292	38.41008448600769
1	38.56979155540466	pulse	0	t						59.72088265419006	
1	38.58496570587158	stim	1		1714					59.73605680465698	14.297767400741577
1	40.164361000061035	pulse	1	t						61.315452098846436	
1	41.76475238800049	pulse	1	t						62.91584348678589	
1	43.36484456062317	pulse	1	t						64.51593565940857	
1	44.965094566345215	pulse	1	t						66.11618566513062	
1	46.5652642250061	pulse	1	t						67.7163553237915	
1	48.165611028671265	pulse	1	t						69.31670212745667	
1	49.765751123428345	pulse	1	t						70.91684222221375	
1	51.366039991378784	pulse	1	t						72.51713109016418	
2	52.88273310661316	fix_pre	0		11	0.0	2.5	/experiments/Knapen_AOT/AOT_stimuli/rescaled_final/1663_rv.mp4	0.0	74.03382420539856	0.10840296745300293
2	52.96629500389099	pulse	0	t		0.0	2.5	/experiments/Knapen_AOT/AOT_stimuli/rescaled_final/1663_rv.mp4	0.0	74.11738610267639	
2	52.99113607406616	movie	1		288	0.0	2.5	/experiments/Knapen_AOT/AOT_stimuli/rescaled_final/1663_rv.mp4	0.0	74.14222717285156	2.49196195602417
2	54.565346479415894	pulse	1	t		0.0	2.5	/experiments/Knapen_AOT/AOT_stimuli/rescaled_final/1663_rv.mp4	0.0	75.7164375782013	
2	55.48309803009033	fix_post	2		12	0.0	2.5	/experiments/Knapen_AOT/AOT_stimuli/rescaled_final/1663_rv.mp4	0.0	76.63418912887573	0.10006284713745117
3	55.58316087722778	fix_pre	0		120	1.0	2.5	/experiments/Knapen_AOT/AOT_stimuli/rescaled_final/0809_rv.mp4	0.0	76.73425197601318	1.0084748268127441
3	56.166828870773315	pulse	0	t		1.0	2.5	/experiments/Knapen_AOT/AOT_stimuli/rescaled_final/0809_rv.mp4	0.0	77.31791996955872	
3	56.59163570404053	movie	1		275	1.0	2.5	/experiments/Knapen_AOT/AOT_stimuli/rescaled_final/0809_rv.mp4	0.0	77.74272680282593	2.492077589035034
3	57.76485514640808	pulse	1	t		1.0	2.5	/experiments/Knapen_AOT/AOT_stimuli/rescaled_final/0809_rv.mp4	0.0	78.91594624519348	
3	59.08371329307556	fix_post	2		12	1.0	2.5	/experiments/Knapen_AOT/AOT_stimuli/rescaled_final/0809_rv.mp4	0.0	80.23480439186096	0.09995079040527344
4	59.183664083480835	fix_pre	0		120	2.0	2.5	/experiments/Knapen_AOT/AOT_stimuli/rescaled_final/1211_rv.mp4	0.0	80.33475518226624	1.008498191833496
4	59.35940957069397	pulse	0	t		2.0	2.5	/experiments/Knapen_AOT/AOT_stimuli/rescaled_final/1211_rv.mp4	0.0	80.51050066947937	
4	60.19216227531433	movie	1		282	2.0	2.5	/experiments/Knapen_AOT/AOT_stimuli/rescaled_final/1211_rv.mp4	0.0	81.34325337409973	2.492021083831787
4	60.95953559875488	pulse	1	t		2.0	2.5	/experiments/Knapen_AOT/AOT_stimuli/rescaled_final/1211_rv.mp4	0.0	82.11062669754028	
4	62.5594482421875	pulse	1	t		2.0	2.5	/experiments/Knapen_AOT/AOT_stimuli/rescaled_final/1211_rv.mp4	0.0	83.7105393409729	
4	62.68418335914612	fix_post	2		12	2.0	2.5	/experiments/Knapen_AOT/AOT_stimuli/rescaled_final/1211_rv.mp4	0.0	83.83527445793152	0.10002684593200684
5	62.784210205078125	fix_pre	0		120	3.0	2.5	/experiments/Knapen_AOT/AOT_stimuli/rescaled_final/0141_rv.mp4	0.0	83.93530130386353	1.0085029602050781
5	63.7927131652832	movie	1		276	3.0	2.5	/experiments/Knapen_AOT/AOT_stimuli/rescaled_final/0141_rv.mp4	0.0	84.9438042640686	2.4920108318328857
5	64.15972852706909	pulse	1	t		3.0	2.5	/experiments/Knapen_AOT/AOT_stimuli/rescaled_final/0141_rv.mp4	0.0	85.31081962585449	
5	65.75988101959229	pulse	1	t		3.0	2.5	/experiments/Knapen_AOT/AOT_stimuli/rescaled_final/0141_rv.mp4	0.0	86.91097211837769	
5	66.28472399711609	fix_post	2		12	3.0	2.5	/experiments/Knapen_AOT/AOT_stimuli/rescaled_final/0141_rv.mp4	0.0	87.43581509590149	0.10002708435058594
6	66.38475108146667	fix_pre	0		118	4.0	2.5	/experiments/Knapen_AOT/AOT_stimuli/rescaled_final/0583_fw.mp4	0.0	87.53584218025208	0.9918162822723389
6	67.36013889312744	pulse	0	t		4.0	2.5	/experiments/Knapen_AOT/AOT_stimuli/rescaled_final/0583_fw.mp4	0.0	88.51122999191284	
6	67.37656736373901	movie	1		279	4.0	2.5	/experiments/Knapen_AOT/AOT_stimuli/rescaled_final/0583_fw.mp4	0.0	88.52765846252441	2.5003929138183594
6	68.96051549911499	pulse	1	t		4.0	2.5	/experiments/Knapen_AOT/AOT_stimuli/rescaled_final/0583_fw.mp4	0.0	90.11160659790039	
6	69.87696027755737	fix_post	2		12	4.0	2.5	/experiments/Knapen_AOT/AOT_stimuli/rescaled_final/0583_fw.mp4	0.0	91.02805137634277	0.1000051498413086
7	69.97696542739868	fix_pre	0		120	5.0	2.5	blank	1.0	91.12805652618408	1.0001678466796875
7	70.56067872047424	pulse	0	t		5.0	2.5	blank	1.0	91.71176981925964	
7	70.97713327407837	movie	1		300	5.0	2.5	blank	1.0	92.12822437286377	2.500333309173584
7	72.16111135482788	pulse	1	t		5.0	2.5	blank	1.0	93.31220245361328	
7	73.47746658325195	fix_post	2		12	5.0	2.5	blank	1.0	94.62855768203735	0.10008072853088379
8	73.57754731178284	fix_pre	0		120	6.0	2.5	/experiments/Knapen_AOT/AOT_stimuli/rescaled_final/1795_fw.mp4	0.0	94.72863841056824	1.008446216583252
8	73.76123404502869	pulse	0	t		6.0	2.5	/experiments/Knapen_AOT/AOT_stimuli/rescaled_final/1795_fw.mp4	0.0	94.91232514381409	
8	74.58599352836609	movie	1		290	6.0	2.5	/experiments/Knapen_AOT/AOT_stimuli/rescaled_final/1795_fw.mp4	0.0	95.73708462715149	2.492037534713745
8	75.3615779876709	pulse	1	t		6.0	2.5	/experiments/Knapen_AOT/AOT_stimuli/rescaled_final/1795_fw.mp4	0.0	96.5126690864563	
8	76.96028590202332	pulse	1	t		6.0	2.5	/experiments/Knapen_AOT/AOT_stimuli/rescaled_final/1795_fw.mp4	0.0	98.11137700080872	
8	77.07803106307983	fix_post	2		12	6.0	2.5	/experiments/Knapen_AOT/AOT_stimuli/rescaled_final/1795_fw.mp4	0.0	98.22912216186523	0.10001277923583984
9	77.17804384231567	fix_pre	0		120	7.0	2.5	/experiments/Knapen_AOT/AOT_stimuli/rescaled_final/0336_fw.mp4	0.0	98.32913494110107	1.0084831714630127
9	78.18652701377869	movie	1		274	7.0	2.5	/experiments/Knapen_AOT/AOT_stimuli/rescaled_final/0336_fw.mp4	0.0	99.33761811256409	2.4920215606689453
9	78.56010556221008	pulse	1	t		7.0	2.5	/experiments/Knapen_AOT/AOT_stimuli/rescaled_final/0336_fw.mp4	0.0	99.71119666099548	
9	80.15995407104492	pulse	1	t		7.0	2.5	/experiments/Knapen_AOT/AOT_stimuli/rescaled_final/0336_fw.mp4	0.0	101.31104516983032	
9	80.67854857444763	fix_post	2		12	7.0	2.5	/experiments/Knapen_AOT/AOT_stimuli/rescaled_final/0336_fw.mp4	0.0	101.82963967323303	0.10002541542053223
10	80.77857398986816	fix_pre	0		119	8.0	2.5	/experiments/Knapen_AOT/AOT_stimuli/rescaled_final/0120_fw.mp4	0.0	101.92966508865356	1.0002961158752441
10	81.76239657402039	pulse	0	t		8.0	2.5	/experiments/Knapen_AOT/AOT_stimuli/rescaled_final/0120_fw.mp4	0.0	102.91348767280579	
10	81.77887010574341	movie	1		286	8.0	2.5	/experiments/Knapen_AOT/AOT_stimuli/rescaled_final/0120_fw.mp4	0.0	102.92996120452881	2.5002386569976807
10	83.36098980903625	pulse	1	t		8.0	2.5	/experiments/Knapen_AOT/AOT_stimuli/rescaled_final/0120_fw.mp4	0.0	104.51208090782166	
10	84.27910876274109	fix_post	2		12	8.0	2.5	/experiments/Knapen_AOT/AOT_stimuli/rescaled_final/0120_fw.mp4	0.0	105.43019986152649	0.10002517700195312
11	84.37913393974304	fix_pre	0		120	9.0	2.5	/experiments/Knapen_AOT/AOT_stimuli/rescaled_final/0067_fw.mp4	0.0	105.53022503852844	1.008509874343872
11	84.96276307106018	pulse	0	t		9.0	2.5	/experiments/Knapen_AOT/AOT_stimuli/rescaled_final/0067_fw.mp4	0.0	106.11385416984558	
11	85.38764381408691	movie	1		282	9.0	2.5	/experiments/Knapen_AOT/AOT_stimuli/rescaled_final/0067_fw.mp4	0.0	106.53873491287231	2.4920361042022705
11	86.56107091903687	pulse	1	t		9.0	2.5	/experiments/Knapen_AOT/AOT_stimuli/rescaled_final/0067_fw.mp4	0.0	107.71216201782227	
11	87.87967991828918	fix_post	2		12	9.0	2.5	/experiments/Knapen_AOT/AOT_stimuli/rescaled_final/0067_fw.mp4	0.0	109.03077101707458	0.0999751091003418
12	87.97965502738953	fix_pre	0		120	10.0	2.5	/experiments/Knapen_AOT/AOT_stimuli/rescaled_final/0774_fw.mp4	0.0	109.13074612617493	1.0086414813995361
12	88.16322946548462	pulse	0	t		10.0	2.5	/experiments/Knapen_AOT/AOT_stimuli/rescaled_final/0774_fw.mp4	0.0	109.31432056427002	
12	88.98829650878906	movie	1		286	10.0	2.5	/experiments/Knapen_AOT/AOT_stimuli/rescaled_final/0774_fw.mp4	0.0	110.13938760757446	2.4918859004974365
12	89.76155042648315	pulse	1	t		10.0	2.5	/experiments/Knapen_AOT/AOT_stimuli/rescaled_final/0774_fw.mp4	0.0	110.91264152526855	
12	91.36181044578552	pulse	1	t		10.0	2.5	/experiments/Knapen_AOT/AOT_stimuli/rescaled_final/0774_fw.mp4	0.0	112.51290154457092	
12	91.4801824092865	fix_post	2		12	10.0	2.5	/experiments/Knapen_AOT/AOT_stimuli/rescaled_final/0774_fw.mp4	0.0	112.6312735080719	0.10002875328063965
13	91.58021116256714	fix_pre	0		120	11.0	2.5	/experiments/Knapen_AOT/AOT_stimuli/rescaled_final/0776_rv.mp4	0.0	112.73130226135254	1.0085070133209229
13	92.58871817588806	movie	1		286	11.0	2.5	/experiments/Knapen_AOT/AOT_stimuli/rescaled_final/0776_rv.mp4	0.0	113.73980927467346	2.4920077323913574
13	92.96412491798401	pulse	1	t		11.0	2.5	/experiments/Knapen_AOT/AOT_stimuli/rescaled_final/0776_rv.mp4	0.0	114.11521601676941	
13	94.56214213371277	pulse	1	t		11.0	2.5	/experiments/Knapen_AOT/AOT_stimuli/rescaled_final/0776_rv.mp4	0.0	115.71323323249817	
13	95.08072590827942	fix_post	2		12	11.0	2.5	/experiments/Knapen_AOT/AOT_stimuli/rescaled_final/0776_rv.mp4	0.0	116.23181700706482	0.10020637512207031
14	95.18093228340149	fix_pre	0		119	12.0	2.5	/experiments/Knapen_AOT/AOT_stimuli/rescaled_final/0762_fw.mp4	0.0	116.33202338218689	0.9999682903289795
14	96.16443657875061	pulse	0	t		12.0	2.5	/experiments/Knapen_AOT/AOT_stimuli/rescaled_final/0762_fw.mp4	0.0	117.31552767753601	
14	96.18090057373047	movie	1		292	12.0	2.5	/experiments/Knapen_AOT/AOT_stimuli/rescaled_final/0762_fw.mp4	0.0	117.33199167251587	2.5003654956817627
14	97.76307892799377	pulse	1	t		12.0	2.5	/experiments/Knapen_AOT/AOT_stimuli/rescaled_final/0762_fw.mp4	0.0	118.91417002677917	
14	98.68126606941223	fix_post	2		12	12.0	2.5	/experiments/Knapen_AOT/AOT_stimuli/rescaled_final/0762_fw.mp4	0.0	119.83235716819763	0.10005497932434082
15	98.78132104873657	fix_pre	0		120	13.0	2.5	/experiments/Knapen_AOT/AOT_stimuli/rescaled_final/1477_fw.mp4	0.0	119.93241214752197	1.0084450244903564
15	99.36496186256409	pulse	0	t		13.0	2.5	/experiments/Knapen_AOT/AOT_stimuli/rescaled_final/1477_fw.mp4	0.0	120.51605296134949	
15	99.78976607322693	movie	1		288	13.0	2.5	/experiments/Knapen_AOT/AOT_stimuli/rescaled_final/1477_fw.mp4	0.0	120.94085717201233	2.4920170307159424
15	100.96314740180969	pulse	1	t		13.0	2.5	/experiments/Knapen_AOT/AOT_stimuli/rescaled_final/1477_fw.mp4	0.0	122.11423850059509	
15	102.28178310394287	fix_post	2		12	13.0	2.5	/experiments/Knapen_AOT/AOT_stimuli/rescaled_final/1477_fw.mp4	0.0	123.43287420272827	0.10003280639648438
16	102.38181591033936	fix_pre	0		120	14.0	2.5	blank	1.0	123.53290700912476	1.0001633167266846
16	102.5654067993164	pulse	0	t		14.0	2.5	blank	1.0	123.7164978981018	
16	103.38197922706604	movie	1		300	14.0	2.5	blank	1.0	124.53307032585144	2.500386953353882
16	104.16587567329407	pulse	1	t		14.0	2.5	blank	1.0	125.31696677207947	
16	105.76581144332886	pulse	1	t		14.0	2.5	blank	1.0	126.91690254211426	
16	105.88236618041992	fix_post	2		12	14.0	2.5	blank	1.0	127.03345727920532	0.10007643699645996
17	105.98244261741638	fix_pre	0		120	15.0	2.5	/experiments/Knapen_AOT/AOT_stimuli/rescaled_final/1074_rv.mp4	0.0	127.13353371620178	1.0000395774841309
17	106.98248219490051	movie	1		292	15.0	2.5	/experiments/Knapen_AOT/AOT_stimuli/rescaled_final/1074_rv.mp4	0.0	128.1335732936859	2.5003771781921387
17	107.36387395858765	pulse	1	t		15.0	2.5	/experiments/Knapen_AOT/AOT_stimuli/rescaled_final/1074_rv.mp4	0.0	128.51496505737305	
17	108.96446681022644	pulse	1	t		15.0	2.5	/experiments/Knapen_AOT/AOT_stimuli/rescaled_final/1074_rv.mp4	0.0	130.11555790901184	
17	109.48285937309265	fix_post	2		12	15.0	2.5	/experiments/Knapen_AOT/AOT_stimuli/rescaled_final/1074_rv.mp4	0.0	130.63395047187805	0.1000206470489502
18	109.5828800201416	fix_pre	0		119	16.0	2.5	/experiments/Knapen_AOT/AOT_stimuli/rescaled_final/0295_rv.mp4	0.0	130.733971118927	1.000178337097168
18	110.55891513824463	pulse	0	t		16.0	2.5	/experiments/Knapen_AOT/AOT_stimuli/rescaled_final/0295_rv.mp4	0.0	131.71000623703003	
18	110.58305835723877	movie	1		283	16.0	2.5	/experiments/Knapen_AOT/AOT_stimuli/rescaled_final/0295_rv.mp4	0.0	131.73414945602417	2.5004072189331055
18	112.15883660316467	pulse	1	t		16.0	2.5	/experiments/Knapen_AOT/AOT_stimuli/rescaled_final/0295_rv.mp4	0.0	133.30992770195007	
18	113.08346557617188	fix_post	2		12	16.0	2.5	/experiments/Knapen_AOT/AOT_stimuli/rescaled_final/0295_rv.mp4	0.0	134.23455667495728	0.10013031959533691
19	113.18359589576721	fix_pre	0		120	17.0	2.5	/experiments/Knapen_AOT/AOT_stimuli/rescaled_final/0548_fw.mp4	0.0	134.3346869945526	1.0083484649658203
19	113.75924468040466	pulse	0	t		17.0	2.5	/experiments/Knapen_AOT/AOT_stimuli/rescaled_final/0548_fw.mp4	0.0	134.91033577919006	
19	114.19194436073303	movie	1		288	17.0	2.5	/experiments/Knapen_AOT/AOT_stimuli/rescaled_final/0548_fw.mp4	0.0	135.34303545951843	2.492088556289673
19	115.35923647880554	pulse	1	t		17.0	2.5	/experiments/Knapen_AOT/AOT_stimuli/rescaled_final/0548_fw.mp4	0.0	136.51032757759094	
19	116.6840329170227	fix_post	2		12	17.0	2.5	/experiments/Knapen_AOT/AOT_stimuli/rescaled_final/0548_fw.mp4	0.0	137.8351240158081	0.09996962547302246
20	116.78400254249573	fix_pre	0		120	18.0	2.5	/experiments/Knapen_AOT/AOT_stimuli/rescaled_final/0295_fw.mp4	0.0	137.93509364128113	1.0085444450378418
20	116.95928502082825	pulse	0	t		18.0	2.5	/experiments/Knapen_AOT/AOT_stimuli/rescaled_final/0295_fw.mp4	0.0	138.11037611961365	
20	117.79254698753357	movie	1		276	18.0	2.5	/experiments/Knapen_AOT/AOT_stimuli/rescaled_final/0295_fw.mp4	0.0	138.94363808631897	2.4919872283935547
20	118.55948424339294	pulse	1	t		18.0	2.5	/experiments/Knapen_AOT/AOT_stimuli/rescaled_final/0295_fw.mp4	0.0	139.71057534217834	
20	120.1598310470581	pulse	1	t		18.0	2.5	/experiments/Knapen_AOT/AOT_stimuli/rescaled_final/0295_fw.mp4	0.0	141.3109221458435	
20	120.28453421592712	fix_post	2		12	18.0	2.5	/experiments/Knapen_AOT/AOT_stimuli/rescaled_final/0295_fw.mp4	0.0	141.43562531471252	0.10000276565551758
21	120.38453698158264	fix_pre	0		120	19.0	2.5	blank	1.0	141.53562808036804	1.0001826286315918
21	121.38471961021423	movie	1		300	19.0	2.5	blank	1.0	142.53581070899963	2.5003163814544678
21	121.75993251800537	pulse	1	t		19.0	2.5	blank	1.0	142.91102361679077	
21	123.36020874977112	pulse	1	t		19.0	2.5	blank	1.0	144.51129984855652	
21	123.8850359916687	fix_post	2		12	19.0	2.5	blank	1.0	145.0361270904541	0.10003900527954102
22	123.98507499694824	fix_pre	0		118	20.0	2.5	/experiments/Knapen_AOT/AOT_stimuli/rescaled_final/2008_fw.mp4	0.0	145.13616609573364	0.9918324947357178
22	124.96058320999146	pulse	0	t		20.0	2.5	/experiments/Knapen_AOT/AOT_stimuli/rescaled_final/2008_fw.mp4	0.0	146.11167430877686	
22	124.97690749168396	movie	1		287	20.0	2.5	/experiments/Knapen_AOT/AOT_stimuli/rescaled_final/2008_fw.mp4	0.0	146.12799859046936	2.5003557205200195
22	126.55913138389587	pulse	1	t		20.0	2.5	/experiments/Knapen_AOT/AOT_stimuli/rescaled_final/2008_fw.mp4	0.0	147.71022248268127	
22	127.47726321220398	fix_post	2		12	20.0	2.5	/experiments/Knapen_AOT/AOT_stimuli/rescaled_final/2008_fw.mp4	0.0	148.62835431098938	0.10008645057678223
23	127.57734966278076	fix_pre	0		120	21.0	2.5	/experiments/Knapen_AOT/AOT_stimuli/rescaled_final/2140_fw.mp4	0.0	148.72844076156616	1.0085270404815674
23	128.16095519065857	pulse	0	t		21.0	2.5	/experiments/Knapen_AOT/AOT_stimuli/rescaled_final/2140_fw.mp4	0.0	149.31204628944397	
23	128.58587670326233	movie	1		290	21.0	2.5	/experiments/Knapen_AOT/AOT_stimuli/rescaled_final/2140_fw.mp4	0.0	149.73696780204773	2.4919779300689697
23	129.75958275794983	pulse	1	t		21.0	2.5	/experiments/Knapen_AOT/AOT_stimuli/rescaled_final/2140_fw.mp4	0.0	150.91067385673523	
23	131.0778546333313	fix_post	2		12	21.0	2.5	/experiments/Knapen_AOT/AOT_stimuli/rescaled_final/2140_fw.mp4	0.0	152.2289457321167	0.10002779960632324
24	131.17788243293762	fix_pre	0		120	22.0	2.5	/experiments/Knapen_AOT/AOT_stimuli/rescaled_final/0062_fw.mp4	0.0	152.32897353172302	1.00850248336792
24	131.36139678955078	pulse	0	t		22.0	2.5	/experiments/Knapen_AOT/AOT_stimuli/rescaled_final/0062_fw.mp4	0.0	152.51248788833618	
24	132.18638491630554	movie	1		276	22.0	2.5	/experiments/Knapen_AOT/AOT_stimuli/rescaled_final/0062_fw.mp4	0.0	153.33747601509094	2.491974353790283
24	132.95952320098877	pulse	1	t		22.0	2.5	/experiments/Knapen_AOT/AOT_stimuli/rescaled_final/0062_fw.mp4	0.0	154.11061429977417	
24	134.55978512763977	pulse	1	t		22.0	2.5	/experiments/Knapen_AOT/AOT_stimuli/rescaled_final/0062_fw.mp4	0.0	155.71087622642517	
24	134.67835927009583	fix_post	2		12	22.0	2.5	/experiments/Knapen_AOT/AOT_stimuli/rescaled_final/0062_fw.mp4	0.0	155.82945036888123	0.10000944137573242
25	134.77836871147156	fix_pre	0		120	23.0	2.5	/experiments/Knapen_AOT/AOT_stimuli/rescaled_final/1176_fw.mp4	0.0	155.92945981025696	1.0085396766662598
25	135.78690838813782	movie	1		274	23.0	2.5	/experiments/Knapen_AOT/AOT_stimuli/rescaled_final/1176_fw.mp4	0.0	156.93799948692322	2.492018699645996
25	136.16034698486328	pulse	1	t		23.0	2.5	/experiments/Knapen_AOT/AOT_stimuli/rescaled_final/1176_fw.mp4	0.0	157.31143808364868	
25	137.7599959373474	pulse	1	t		23.0	2.5	/experiments/Knapen_AOT/AOT_stimuli/rescaled_final/1176_fw.mp4	0.0	158.9110870361328	
25	138.2789270877838	fix_post	2		12	23.0	2.5	/experiments/Knapen_AOT/AOT_stimuli/rescaled_final/1176_fw.mp4	0.0	159.4300181865692	0.09998726844787598
26	138.3789143562317	fix_pre	0		119	24.0	2.5	/experiments/Knapen_AOT/AOT_stimuli/rescaled_final/0812_fw.mp4	0.0	159.5300054550171	1.000138282775879
26	139.3626024723053	pulse	0	t		24.0	2.5	/experiments/Knapen_AOT/AOT_stimuli/rescaled_final/0812_fw.mp4	0.0	160.5136935710907	
26	139.37905263900757	movie	1		276	24.0	2.5	/experiments/Knapen_AOT/AOT_stimuli/rescaled_final/0812_fw.mp4	0.0	160.53014373779297	2.500415325164795
26	140.9611577987671	pulse	1	t		24.0	2.5	/experiments/Knapen_AOT/AOT_stimuli/rescaled_final/0812_fw.mp4	0.0	162.1122488975525	
26	141.87946796417236	fix_post	2		12	24.0	2.5	/experiments/Knapen_AOT/AOT_stimuli/rescaled_final/0812_fw.mp4	0.0	163.03055906295776	0.10002279281616211
27	141.97949075698853	fix_pre	0		120	25.0	2.5	/experiments/Knapen_AOT/AOT_stimuli/rescaled_final/1074_fw.mp4	0.0	163.13058185577393	1.0085384845733643
27	142.56307649612427	pulse	0	t		25.0	2.5	/experiments/Knapen_AOT/AOT_stimuli/rescaled_final/1074_fw.mp4	0.0	163.71416759490967	
27	142.9880292415619	movie	1		295	25.0	2.5	/experiments/Knapen_AOT/AOT_stimuli/rescaled_final/1074_fw.mp4	0.0	164.1391203403473	2.491976499557495
27	144.1615960597992	pulse	1	t		25.0	2.5	/experiments/Knapen_AOT/AOT_stimuli/rescaled_final/1074_fw.mp4	0.0	165.3126871585846	
27	145.48000574111938	fix_post	2		12	25.0	2.5	/experiments/Knapen_AOT/AOT_stimuli/rescaled_final/1074_fw.mp4	0.0	166.63109683990479	0.10003066062927246
28	145.58003640174866	fix_pre	0		120	26.0	2.5	blank	1.0	166.73112750053406	1.0000896453857422
28	145.76355743408203	pulse	0	t		26.0	2.5	blank	1.0	166.91464853286743	
28	146.5801260471344	movie	1		300	26.0	2.5	blank	1.0	167.7312171459198	2.5003840923309326
28	147.36378479003906	pulse	1	t		26.0	2.5	blank	1.0	168.51487588882446	
28	148.96413588523865	pulse	1	t		26.0	2.5	blank	1.0	170.11522698402405	
28	149.08051013946533	fix_post	2		12	26.0	2.5	blank	1.0	170.23160123825073	0.10004353523254395
29	149.18055367469788	fix_pre	0		120	27.0	2.5	/experiments/Knapen_AOT/AOT_stimuli/rescaled_final/0964_fw.mp4	0.0	170.33164477348328	1.0084621906280518
29	150.18901586532593	movie	1		278	27.0	2.5	/experiments/Knapen_AOT/AOT_stimuli/rescaled_final/0964_fw.mp4	0.0	171.34010696411133	2.4920761585235596
29	150.5625078678131	pulse	1	t		27.0	2.5	/experiments/Knapen_AOT/AOT_stimuli/rescaled_final/0964_fw.mp4	0.0	171.7135989665985	
29	152.16229510307312	pulse	1	t		27.0	2.5	/experiments/Knapen_AOT/AOT_stimuli/rescaled_final/0964_fw.mp4	0.0	173.31338620185852	
29	152.6810920238495	fix_post	2		12	27.0	2.5	/experiments/Knapen_AOT/AOT_stimuli/rescaled_final/0964_fw.mp4	0.0	173.8321831226349	0.10005760192871094
30	152.7811496257782	fix_pre	0		119	28.0	2.5	/experiments/Knapen_AOT/AOT_stimuli/rescaled_final/1141_rv.mp4	0.0	173.9322407245636	1.008512258529663
30	153.7649393081665	pulse	0	t		28.0	2.5	/experiments/Knapen_AOT/AOT_stimuli/rescaled_final/1141_rv.mp4	0.0	174.9160304069519	
30	153.78966188430786	movie	1		268	28.0	2.5	/experiments/Knapen_AOT/AOT_stimuli/rescaled_final/1141_rv.mp4	0.0	174.94075298309326	2.491929769515991
30	155.3650619983673	pulse	1	t		28.0	2.5	/experiments/Knapen_AOT/AOT_stimuli/rescaled_final/1141_rv.mp4	0.0	176.5161530971527	
30	156.28159165382385	fix_post	2		12	28.0	2.5	/experiments/Knapen_AOT/AOT_stimuli/rescaled_final/1141_rv.mp4	0.0	177.43268275260925	0.1000208854675293
31	156.38161253929138	fix_pre	0		120	29.0	2.5	/experiments/Knapen_AOT/AOT_stimuli/rescaled_final/1908_fw.mp4	0.0	177.53270363807678	1.0084917545318604
31	156.9655158519745	pulse	0	t		29.0	2.5	/experiments/Knapen_AOT/AOT_stimuli/rescaled_final/1908_fw.mp4	0.0	178.1166069507599	
31	157.39010429382324	movie	1		287	29.0	2.5	/experiments/Knapen_AOT/AOT_stimuli/rescaled_final/1908_fw.mp4	0.0	178.54119539260864	2.49210262298584
31	158.5637719631195	pulse	1	t		29.0	2.5	/experiments/Knapen_AOT/AOT_stimuli/rescaled_final/1908_fw.mp4	0.0	179.7148630619049	
31	159.88220691680908	fix_post	2		12	29.0	2.5	/experiments/Knapen_AOT/AOT_stimuli/rescaled_final/1908_fw.mp4	0.0	181.03329801559448	0.09998941421508789
32	159.98219633102417	fix_pre	0		120	30.0	2.5	/experiments/Knapen_AOT/AOT_stimuli/rescaled_final/1366_rv.mp4	0.0	181.13328742980957	1.0084943771362305
32	160.1657166481018	pulse	0	t		30.0	2.5	/experiments/Knapen_AOT/AOT_stimuli/rescaled_final/1366_rv.mp4	0.0	181.3168077468872	
32	160.9906907081604	movie	1		278	30.0	2.5	/experiments/Knapen_AOT/AOT_stimuli/rescaled_final/1366_rv.mp4	0.0	182.1417818069458	2.492021322250366
32	161.76423597335815	pulse	1	t		30.0	2.5	/experiments/Knapen_AOT/AOT_stimuli/rescaled_final/1366_rv.mp4	0.0	182.91532707214355	
32	163.36406898498535	pulse	1	t		30.0	2.5	/experiments/Knapen_AOT/AOT_stimuli/rescaled_final/1366_rv.mp4	0.0	184.51516008377075	
32	163.48271203041077	fix_post	2		12	30.0	2.5	/experiments/Knapen_AOT/AOT_stimuli/rescaled_final/1366_rv.mp4	0.0	184.63380312919617	0.09998774528503418
33	163.5826997756958	fix_pre	0		120	31.0	2.5	/experiments/Knapen_AOT/AOT_stimuli/rescaled_final/1513_rv.mp4	0.0	184.7337908744812	1.008558988571167
33	164.59125876426697	movie	1		286	31.0	2.5	/experiments/Knapen_AOT/AOT_stimuli/rescaled_final/1513_rv.mp4	0.0	185.74234986305237	2.4920060634613037
33	164.96470761299133	pulse	1	t		31.0	2.5	/experiments/Knapen_AOT/AOT_stimuli/rescaled_final/1513_rv.mp4	0.0	186.11579871177673	
33	166.56474781036377	pulse	1	t		31.0	2.5	/experiments/Knapen_AOT/AOT_stimuli/rescaled_final/1513_rv.mp4	0.0	187.71583890914917	
33	167.08326482772827	fix_post	2		12	31.0	2.5	/experiments/Knapen_AOT/AOT_stimuli/rescaled_final/1513_rv.mp4	0.0	188.23435592651367	0.10001420974731445
34	167.1832790374756	fix_pre	0		119	32.0	2.5	/experiments/Knapen_AOT/AOT_stimuli/rescaled_final/0473_fw.mp4	0.0	188.334370136261	1.0001897811889648
34	168.1668906211853	pulse	0	t		32.0	2.5	/experiments/Knapen_AOT/AOT_stimuli/rescaled_final/0473_fw.mp4	0.0	189.3179817199707	
34	168.18346881866455	movie	1		283	32.0	2.5	/experiments/Knapen_AOT/AOT_stimuli/rescaled_final/0473_fw.mp4	0.0	189.33455991744995	2.500291347503662
34	169.76565551757812	pulse	1	t		32.0	2.5	/experiments/Knapen_AOT/AOT_stimuli/rescaled_final/0473_fw.mp4	0.0	190.91674661636353	
34	170.6837601661682	fix_post	2		12	32.0	2.5	/experiments/Knapen_AOT/AOT_stimuli/rescaled_final/0473_fw.mp4	0.0	191.8348512649536	0.1000204086303711
35	170.78378057479858	fix_pre	0		120	33.0	2.5	blank	1.0	191.93487167358398	1.000112771987915
35	171.3592231273651	pulse	0	t		33.0	2.5	blank	1.0	192.5103142261505	
35	171.7838933467865	movie	1		300	33.0	2.5	blank	1.0	192.9349844455719	2.5004916191101074
35	172.95944571495056	pulse	1	t		33.0	2.5	blank	1.0	194.11053681373596	
35	174.2843849658966	fix_post	2		12	33.0	2.5	blank	1.0	195.435476064682	0.09999299049377441
36	174.38437795639038	fix_pre	0		120	34.0	2.5	/experiments/Knapen_AOT/AOT_stimuli/rescaled_final/1263_fw.mp4	0.0	195.53546905517578	1.0084562301635742
36	174.559743642807	pulse	0	t		34.0	2.5	/experiments/Knapen_AOT/AOT_stimuli/rescaled_final/1263_fw.mp4	0.0	195.7108347415924	
36	175.39283418655396	movie	1		277	34.0	2.5	/experiments/Knapen_AOT/AOT_stimuli/rescaled_final/1263_fw.mp4	0.0	196.54392528533936	2.5003621578216553
36	176.1598436832428	pulse	1	t		34.0	2.5	/experiments/Knapen_AOT/AOT_stimuli/rescaled_final/1263_fw.mp4	0.0	197.3109347820282	
36	177.7600543498993	pulse	1	t		34.0	2.5	/experiments/Knapen_AOT/AOT_stimuli/rescaled_final/1263_fw.mp4	0.0	198.9111454486847	
36	177.8931963443756	fix_post	2		11	34.0	2.5	/experiments/Knapen_AOT/AOT_stimuli/rescaled_final/1263_fw.mp4	0.0	199.044287443161	0.09166860580444336
37	177.98486495018005	fix_pre	0		120	35.0	2.5	/experiments/Knapen_AOT/AOT_stimuli/rescaled_final/0571_rv.mp4	0.0	199.13595604896545	1.0085055828094482
37	178.9933705329895	movie	1		290	35.0	2.5	/experiments/Knapen_AOT/AOT_stimuli/rescaled_final/0571_rv.mp4	0.0	200.1444616317749	2.4921278953552246
37	179.36043119430542	pulse	1	t		35.0	2.5	/experiments/Knapen_AOT/AOT_stimuli/rescaled_final/0571_rv.mp4	0.0	200.51152229309082	
37	180.96050095558167	pulse	1	t		35.0	2.5	/experiments/Knapen_AOT/AOT_stimuli/rescaled_final/0571_rv.mp4	0.0	202.11159205436707	
37	181.48549842834473	fix_post	2		12	35.0	2.5	/experiments/Knapen_AOT/AOT_stimuli/rescaled_final/0571_rv.mp4	0.0	202.63658952713013	0.10000181198120117
38	181.58550024032593	fix_pre	0		118	36.0	2.5	/experiments/Knapen_AOT/AOT_stimuli/rescaled_final/0217_fw.mp4	0.0	202.73659133911133	0.9917604923248291
38	182.56100249290466	pulse	0	t		36.0	2.5	/experiments/Knapen_AOT/AOT_stimuli/rescaled_final/0217_fw.mp4	0.0	203.71209359169006	
38	182.57726073265076	movie	1		281	36.0	2.5	/experiments/Knapen_AOT/AOT_stimuli/rescaled_final/0217_fw.mp4	0.0	203.72835183143616	2.5003368854522705
38	184.15955662727356	pulse	1	t		36.0	2.5	/experiments/Knapen_AOT/AOT_stimuli/rescaled_final/0217_fw.mp4	0.0	205.31064772605896	
38	185.07759761810303	fix_post	2		12	36.0	2.5	/experiments/Knapen_AOT/AOT_stimuli/rescaled_final/0217_fw.mp4	0.0	206.22868871688843	0.1000208854675293
39	185.17761850357056	fix_pre	0		120	37.0	2.5	/experiments/Knapen_AOT/AOT_stimuli/rescaled_final/1211_fw.mp4	0.0	206.32870960235596	1.0084829330444336
39	185.76129746437073	pulse	0	t		37.0	2.5	/experiments/Knapen_AOT/AOT_stimuli/rescaled_final/1211_fw.mp4	0.0	206.91238856315613	
39	186.186101436615	movie	1		274	37.0	2.5	/experiments/Knapen_AOT/AOT_stimuli/rescaled_final/1211_fw.mp4	0.0	207.3371925354004	2.492053270339966
39	187.35955286026	pulse	1	t		37.0	2.5	/experiments/Knapen_AOT/AOT_stimuli/rescaled_final/1211_fw.mp4	0.0	208.5106439590454	
39	188.67815470695496	fix_post	2		12	37.0	2.5	/experiments/Knapen_AOT/AOT_stimuli/rescaled_final/1211_fw.mp4	0.0	209.82924580574036	0.10004472732543945
40	188.7781994342804	fix_pre	0		120	38.0	2.5	/experiments/Knapen_AOT/AOT_stimuli/rescaled_final/0250_fw.mp4	0.0	209.9292905330658	1.0084655284881592
40	188.96179127693176	pulse	0	t		38.0	2.5	/experiments/Knapen_AOT/AOT_stimuli/rescaled_final/0250_fw.mp4	0.0	210.11288237571716	
40	189.78666496276855	movie	1		288	38.0	2.5	/experiments/Knapen_AOT/AOT_stimuli/rescaled_final/0250_fw.mp4	0.0	210.93775606155396	2.492107629776001
40	190.56045651435852	pulse	1	t		38.0	2.5	/experiments/Knapen_AOT/AOT_stimuli/rescaled_final/0250_fw.mp4	0.0	211.71154761314392	
40	192.16005063056946	pulse	1	t		38.0	2.5	/experiments/Knapen_AOT/AOT_stimuli/rescaled_final/0250_fw.mp4	0.0	213.31114172935486	
40	192.27877259254456	fix_post	2		12	38.0	2.5	/experiments/Knapen_AOT/AOT_stimuli/rescaled_final/0250_fw.mp4	0.0	213.42986369132996	0.09995341300964355
41	192.3787260055542	fix_pre	0		120	39.0	2.5	/experiments/Knapen_AOT/AOT_stimuli/rescaled_final/1359_fw.mp4	0.0	213.5298171043396	1.008490800857544
41	193.38721680641174	movie	1		280	39.0	2.5	/experiments/Knapen_AOT/AOT_stimuli/rescaled_final/1359_fw.mp4	0.0	214.53830790519714	2.500389337539673
41	193.76116752624512	pulse	1	t		39.0	2.5	/experiments/Knapen_AOT/AOT_stimuli/rescaled_final/1359_fw.mp4	0.0	214.91225862503052	
41	195.36039090156555	pulse	1	t		39.0	2.5	/experiments/Knapen_AOT/AOT_stimuli/rescaled_final/1359_fw.mp4	0.0	216.51148200035095	
41	195.88760614395142	fix_post	2		11	39.0	2.5	/experiments/Knapen_AOT/AOT_stimuli/rescaled_final/1359_fw.mp4	0.0	217.03869724273682	0.09163117408752441
42	195.97923731803894	fix_pre	0		119	40.0	2.5	/experiments/Knapen_AOT/AOT_stimuli/rescaled_final/1780_rv.mp4	0.0	217.13032841682434	1.000211477279663
42	196.96302342414856	pulse	0	t		40.0	2.5	/experiments/Knapen_AOT/AOT_stimuli/rescaled_final/1780_rv.mp4	0.0	218.11411452293396	
42	196.9794487953186	movie	1		273	40.0	2.5	/experiments/Knapen_AOT/AOT_stimuli/rescaled_final/1780_rv.mp4	0.0	218.130539894104	2.500333070755005
42	198.56193947792053	pulse	1	t		40.0	2.5	/experiments/Knapen_AOT/AOT_stimuli/rescaled_final/1780_rv.mp4	0.0	219.71303057670593	
42	199.4797818660736	fix_post	2		12	40.0	2.5	/experiments/Knapen_AOT/AOT_stimuli/rescaled_final/1780_rv.mp4	0.0	220.630872964859	0.10004949569702148
43	199.57983136177063	fix_pre	0		120	41.0	2.5	blank	1.0	220.73092246055603	1.000096082687378
43	200.16352820396423	pulse	0	t		41.0	2.5	blank	1.0	221.31461930274963	
43	200.579927444458	movie	1		300	41.0	2.5	blank	1.0	221.7310185432434	2.5004985332489014
43	201.76370763778687	pulse	1	t		41.0	2.5	blank	1.0	222.91479873657227	
43	203.0804259777069	fix_post	2		12	41.0	2.5	blank	1.0	224.2315170764923	0.09990429878234863
44	203.18033027648926	fix_pre	0		120	42.0	2.5	/experiments/Knapen_AOT/AOT_stimuli/rescaled_final/0166_rv.mp4	0.0	224.33142137527466	1.008538007736206
44	203.36390233039856	pulse	0	t		42.0	2.5	/experiments/Knapen_AOT/AOT_stimuli/rescaled_final/0166_rv.mp4	0.0	224.51499342918396	
44	204.18886828422546	movie	1		275	42.0	2.5	/experiments/Knapen_AOT/AOT_stimuli/rescaled_final/0166_rv.mp4	0.0	225.33995938301086	2.4920923709869385
44	204.9624855518341	pulse	1	t		42.0	2.5	/experiments/Knapen_AOT/AOT_stimuli/rescaled_final/0166_rv.mp4	0.0	226.1135766506195	
44	206.56269025802612	pulse	1	t		42.0	2.5	/experiments/Knapen_AOT/AOT_stimuli/rescaled_final/0166_rv.mp4	0.0	227.71378135681152	
44	206.6809606552124	fix_post	2		12	42.0	2.5	/experiments/Knapen_AOT/AOT_stimuli/rescaled_final/0166_rv.mp4	0.0	227.8320517539978	0.09990429878234863
45	206.78086495399475	fix_pre	0		120	43.0	2.5	/experiments/Knapen_AOT/AOT_stimuli/rescaled_final/2008_fw.mp4	0.0	227.93195605278015	1.0085370540618896
45	207.78940200805664	movie	1		271	43.0	2.5	/experiments/Knapen_AOT/AOT_stimuli/rescaled_final/2008_fw.mp4	0.0	228.94049310684204	2.492063283920288
45	208.16401386260986	pulse	1	t		43.0	2.5	/experiments/Knapen_AOT/AOT_stimuli/rescaled_final/2008_fw.mp4	0.0	229.31510496139526	
45	209.76304841041565	pulse	1	t		43.0	2.5	/experiments/Knapen_AOT/AOT_stimuli/rescaled_final/2008_fw.mp4	0.0	230.91413950920105	
45	210.28146529197693	fix_post	2		12	43.0	2.5	/experiments/Knapen_AOT/AOT_stimuli/rescaled_final/2008_fw.mp4	0.0	231.43255639076233	0.100006103515625
46	210.38147139549255	fix_pre	0		119	44.0	2.5	/experiments/Knapen_AOT/AOT_stimuli/rescaled_final/1638_fw.mp4	0.0	231.53256249427795	1.0001389980316162
46	211.365092754364	pulse	0	t		44.0	2.5	/experiments/Knapen_AOT/AOT_stimuli/rescaled_final/1638_fw.mp4	0.0	232.5161838531494	
46	211.38161039352417	movie	1		273	44.0	2.5	/experiments/Knapen_AOT/AOT_stimuli/rescaled_final/1638_fw.mp4	0.0	232.53270149230957	2.5003159046173096
46	212.96376776695251	pulse	1	t		44.0	2.5	/experiments/Knapen_AOT/AOT_stimuli/rescaled_final/1638_fw.mp4	0.0	234.11485886573792	
46	213.88192629814148	fix_post	2		12	44.0	2.5	/experiments/Knapen_AOT/AOT_stimuli/rescaled_final/1638_fw.mp4	0.0	235.03301739692688	0.10008692741394043
47	213.98201322555542	fix_pre	0		120	45.0	2.5	/experiments/Knapen_AOT/AOT_stimuli/rescaled_final/2130_fw.mp4	0.0	235.13310432434082	1.0084452629089355
47	214.5656294822693	pulse	0	t		45.0	2.5	/experiments/Knapen_AOT/AOT_stimuli/rescaled_final/2130_fw.mp4	0.0	235.7167205810547	
47	214.99045848846436	movie	1		283	45.0	2.5	/experiments/Knapen_AOT/AOT_stimuli/rescaled_final/2130_fw.mp4	0.0	236.14154958724976	2.4920036792755127
47	216.16459465026855	pulse	1	t		45.0	2.5	/experiments/Knapen_AOT/AOT_stimuli/rescaled_final/2130_fw.mp4	0.0	237.31568574905396	
47	217.48246216773987	fix_post	2		12	45.0	2.5	/experiments/Knapen_AOT/AOT_stimuli/rescaled_final/2130_fw.mp4	0.0	238.63355326652527	0.1000971794128418
48	217.5825593471527	fix_pre	0		105	46.0	2.5	/experiments/Knapen_AOT/AOT_stimuli/rescaled_final/1525_fw.mp4	0.0	238.7336504459381	1.0084443092346191
48	217.76610827445984	pulse	0	t		46.0	2.5	/experiments/Knapen_AOT/AOT_stimuli/rescaled_final/1525_fw.mp4	0.0	238.91719937324524	
48	218.59100365638733	movie	1		281	46.0	2.5	/experiments/Knapen_AOT/AOT_stimuli/rescaled_final/1525_fw.mp4	0.0	239.74209475517273	2.492006540298462
48	219.36449718475342	pulse	1	t		46.0	2.5	/experiments/Knapen_AOT/AOT_stimuli/rescaled_final/1525_fw.mp4	0.0	240.51558828353882	
48	220.9647409915924	pulse	1	t		46.0	2.5	/experiments/Knapen_AOT/AOT_stimuli/rescaled_final/1525_fw.mp4	0.0	242.1158320903778	
48	221.0830101966858	fix_post	2		12	46.0	2.5	/experiments/Knapen_AOT/AOT_stimuli/rescaled_final/1525_fw.mp4	0.0	242.2341012954712	0.1000218391418457
49	221.18303203582764	fix_pre	0		120	47.0	2.5	blank	1.0	242.33412313461304	1.0001416206359863
49	222.18317365646362	movie	1		300	47.0	2.5	blank	1.0	243.33426475524902	2.5003819465637207
49	222.56679558753967	pulse	1	t		47.0	2.5	blank	1.0	243.71788668632507	
49	224.16700983047485	pulse	1	t		47.0	2.5	blank	1.0	245.31810092926025	
49	224.68355560302734	fix_post	2		12	47.0	2.5	blank	1.0	245.83464670181274	0.10001754760742188
50	224.78357315063477	fix_pre	0		119	48.0	2.5	/experiments/Knapen_AOT/AOT_stimuli/rescaled_final/0263_rv.mp4	0.0	245.93466424942017	1.0001611709594727
50	225.76729702949524	pulse	0	t		48.0	2.5	/experiments/Knapen_AOT/AOT_stimuli/rescaled_final/0263_rv.mp4	0.0	246.91838812828064	
50	225.78373432159424	movie	1		271	48.0	2.5	/experiments/Knapen_AOT/AOT_stimuli/rescaled_final/0263_rv.mp4	0.0	246.93482542037964	2.5003936290740967
50	227.36576652526855	pulse	1	t		48.0	2.5	/experiments/Knapen_AOT/AOT_stimuli/rescaled_final/0263_rv.mp4	0.0	248.51685762405396	
50	228.28412795066833	fix_post	2		12	48.0	2.5	/experiments/Knapen_AOT/AOT_stimuli/rescaled_final/0263_rv.mp4	0.0	249.43521904945374	0.10007262229919434
51	228.38420057296753	fix_pre	0		120	49.0	2.5	/experiments/Knapen_AOT/AOT_stimuli/rescaled_final/1976_rv.mp4	0.0	249.53529167175293	1.0084285736083984
51	228.95981287956238	pulse	0	t		49.0	2.5	/experiments/Knapen_AOT/AOT_stimuli/rescaled_final/1976_rv.mp4	0.0	250.11090397834778	
51	229.39262914657593	movie	1		281	49.0	2.5	/experiments/Knapen_AOT/AOT_stimuli/rescaled_final/1976_rv.mp4	0.0	250.54372024536133	2.4920105934143066
51	230.56003856658936	pulse	1	t		49.0	2.5	/experiments/Knapen_AOT/AOT_stimuli/rescaled_final/1976_rv.mp4	0.0	251.71112966537476	
51	231.88463973999023	fix_post	2		12	49.0	2.5	/experiments/Knapen_AOT/AOT_stimuli/rescaled_final/1976_rv.mp4	0.0	253.03573083877563	0.10002398490905762
52	231.9846637248993	fix_pre	0		120	50.0	2.5	/experiments/Knapen_AOT/AOT_stimuli/rescaled_final/1032_fw.mp4	0.0	253.1357548236847	1.0084855556488037
52	232.15989518165588	pulse	0	t		50.0	2.5	/experiments/Knapen_AOT/AOT_stimuli/rescaled_final/1032_fw.mp4	0.0	253.31098628044128	
52	232.9931492805481	movie	1		271	50.0	2.5	/experiments/Knapen_AOT/AOT_stimuli/rescaled_final/1032_fw.mp4	0.0	254.1442403793335	2.4920315742492676
52	233.76012992858887	pulse	1	t		50.0	2.5	/experiments/Knapen_AOT/AOT_stimuli/rescaled_final/1032_fw.mp4	0.0	254.91122102737427	
52	235.35980367660522	pulse	1	t		50.0	2.5	/experiments/Knapen_AOT/AOT_stimuli/rescaled_final/1032_fw.mp4	0.0	256.5108947753906	
52	235.48518085479736	fix_post	2		12	50.0	2.5	/experiments/Knapen_AOT/AOT_stimuli/rescaled_final/1032_fw.mp4	0.0	256.63627195358276	0.10004210472106934
53	235.58522295951843	fix_pre	0		120	51.0	2.5	/experiments/Knapen_AOT/AOT_stimuli/rescaled_final/0819_fw.mp4	0.0	256.73631405830383	1.0084705352783203
53	236.59369349479675	movie	1		276	51.0	2.5	/experiments/Knapen_AOT/AOT_stimuli/rescaled_final/0819_fw.mp4	0.0	257.74478459358215	2.492032766342163
53	236.96028399467468	pulse	1	t		51.0	2.5	/experiments/Knapen_AOT/AOT_stimuli/rescaled_final/0819_fw.mp4	0.0	258.1113750934601	
53	238.56127285957336	pulse	1	t		51.0	2.5	/experiments/Knapen_AOT/AOT_stimuli/rescaled_final/0819_fw.mp4	0.0	259.71236395835876	
53	239.08572626113892	fix_post	2		12	51.0	2.5	/experiments/Knapen_AOT/AOT_stimuli/rescaled_final/0819_fw.mp4	0.0	260.2368173599243	0.10001587867736816
54	239.18574213981628	fix_pre	0		118	52.0	2.5	/experiments/Knapen_AOT/AOT_stimuli/rescaled_final/1147_rv.mp4	0.0	260.3368332386017	0.9918029308319092
54	240.16125392913818	pulse	0	t		52.0	2.5	/experiments/Knapen_AOT/AOT_stimuli/rescaled_final/1147_rv.mp4	0.0	261.3123450279236	
54	240.1775450706482	movie	1		286	52.0	2.5	/experiments/Knapen_AOT/AOT_stimuli/rescaled_final/1147_rv.mp4	0.0	261.3286361694336	2.5003859996795654
54	241.760085105896	pulse	1	t		52.0	2.5	/experiments/Knapen_AOT/AOT_stimuli/rescaled_final/1147_rv.mp4	0.0	262.9111762046814	
54	242.67793107032776	fix_post	2		12	52.0	2.5	/experiments/Knapen_AOT/AOT_stimuli/rescaled_final/1147_rv.mp4	0.0	263.82902216911316	0.1000051498413086
55	242.77793622016907	fix_pre	0		120	53.0	2.5	/experiments/Knapen_AOT/AOT_stimuli/rescaled_final/0638_rv.mp4	0.0	263.92902731895447	1.0086607933044434
55	243.361656665802	pulse	0	t		53.0	2.5	/experiments/Knapen_AOT/AOT_stimuli/rescaled_final/0638_rv.mp4	0.0	264.5127477645874	
55	243.7865970134735	movie	1		286	53.0	2.5	/experiments/Knapen_AOT/AOT_stimuli/rescaled_final/0638_rv.mp4	0.0	264.9376881122589	2.491895914077759
55	244.9602906703949	pulse	1	t		53.0	2.5	/experiments/Knapen_AOT/AOT_stimuli/rescaled_final/0638_rv.mp4	0.0	266.1113817691803	
55	246.27849292755127	fix_post	2		12	53.0	2.5	/experiments/Knapen_AOT/AOT_stimuli/rescaled_final/0638_rv.mp4	0.0	267.42958402633667	0.10004281997680664
56	246.37853574752808	fix_pre	0		120	54.0	2.5	blank	1.0	267.5296268463135	1.000107765197754
56	246.5620801448822	pulse	0	t		54.0	2.5	blank	1.0	267.7131712436676	
56	247.37864351272583	movie	1		300	54.0	2.5	blank	1.0	268.52973461151123	2.5003726482391357
56	248.16231846809387	pulse	1	t		54.0	2.5	blank	1.0	269.3134095668793	
56	249.76270627975464	pulse	1	t		54.0	2.5	blank	1.0	270.91379737854004	
56	249.87901616096497	fix_post	2		12	54.0	2.5	blank	1.0	271.03010725975037	0.10001826286315918
57	249.97903442382812	fix_pre	0		120	55.0	2.5	/experiments/Knapen_AOT/AOT_stimuli/rescaled_final/0958_fw.mp4	0.0	271.1301255226135	1.008476972579956
57	250.98751139640808	movie	1		270	55.0	2.5	/experiments/Knapen_AOT/AOT_stimuli/rescaled_final/0958_fw.mp4	0.0	272.1386024951935	2.4920380115509033
57	251.36141347885132	pulse	1	t		55.0	2.5	/experiments/Knapen_AOT/AOT_stimuli/rescaled_final/0958_fw.mp4	0.0	272.5125045776367	
57	252.96130228042603	pulse	1	t		55.0	2.5	/experiments/Knapen_AOT/AOT_stimuli/rescaled_final/0958_fw.mp4	0.0	274.1123933792114	
57	253.47954940795898	fix_post	2		12	55.0	2.5	/experiments/Knapen_AOT/AOT_stimuli/rescaled_final/0958_fw.mp4	0.0	274.6306405067444	0.10002613067626953
58	253.57957553863525	fix_pre	0		119	56.0	2.5	/experiments/Knapen_AOT/AOT_stimuli/rescaled_final/0267_fw.mp4	0.0	274.73066663742065	1.0001535415649414
58	254.5632848739624	pulse	0	t		56.0	2.5	/experiments/Knapen_AOT/AOT_stimuli/rescaled_final/0267_fw.mp4	0.0	275.7143759727478	
58	254.5797290802002	movie	1		284	56.0	2.5	/experiments/Knapen_AOT/AOT_stimuli/rescaled_final/0267_fw.mp4	0.0	275.7308201789856	2.5003714561462402
58	256.1619203090668	pulse	1	t		56.0	2.5	/experiments/Knapen_AOT/AOT_stimuli/rescaled_final/0267_fw.mp4	0.0	277.3130114078522	
58	257.08010053634644	fix_post	2		12	56.0	2.5	/experiments/Knapen_AOT/AOT_stimuli/rescaled_final/0267_fw.mp4	0.0	278.23119163513184	0.10001683235168457
59	257.1801173686981	fix_pre	0		120	57.0	2.5	/experiments/Knapen_AOT/AOT_stimuli/rescaled_final/0263_fw.mp4	0.0	278.3312084674835	1.0084953308105469
59	257.7637436389923	pulse	0	t		57.0	2.5	/experiments/Knapen_AOT/AOT_stimuli/rescaled_final/0263_fw.mp4	0.0	278.9148347377777	
59	258.18861269950867	movie	1		278	57.0	2.5	/experiments/Knapen_AOT/AOT_stimuli/rescaled_final/0263_fw.mp4	0.0	279.33970379829407	2.4920337200164795
59	259.3620023727417	pulse	1	t		57.0	2.5	/experiments/Knapen_AOT/AOT_stimuli/rescaled_final/0263_fw.mp4	0.0	280.5130934715271	
59	260.68064641952515	fix_post	2		12	57.0	2.5	/experiments/Knapen_AOT/AOT_stimuli/rescaled_final/0263_fw.mp4	0.0	281.83173751831055	0.10001516342163086
60	260.7806615829468	fix_pre	0		120	58.0	2.5	/experiments/Knapen_AOT/AOT_stimuli/rescaled_final/0782_fw.mp4	0.0	281.9317526817322	1.0085010528564453
60	260.9641942977905	pulse	0	t		58.0	2.5	/experiments/Knapen_AOT/AOT_stimuli/rescaled_final/0782_fw.mp4	0.0	282.1152853965759	
60	261.7891626358032	movie	1		289	58.0	2.5	/experiments/Knapen_AOT/AOT_stimuli/rescaled_final/0782_fw.mp4	0.0	282.9402537345886	2.49204158782959
60	262.562726020813	pulse	1	t		58.0	2.5	/experiments/Knapen_AOT/AOT_stimuli/rescaled_final/0782_fw.mp4	0.0	283.7138171195984	
60	264.16274404525757	pulse	1	t		58.0	2.5	/experiments/Knapen_AOT/AOT_stimuli/rescaled_final/0782_fw.mp4	0.0	285.31383514404297	
60	264.2812042236328	fix_post	2		12	58.0	2.5	/experiments/Knapen_AOT/AOT_stimuli/rescaled_final/0782_fw.mp4	0.0	285.4322953224182	0.10003972053527832
61	264.3812439441681	fix_pre	0		120	59.0	2.5	/experiments/Knapen_AOT/AOT_stimuli/rescaled_final/0285_rv.mp4	0.0	285.5323350429535	1.0084481239318848
61	265.3896920681	movie	1		287	59.0	2.5	/experiments/Knapen_AOT/AOT_stimuli/rescaled_final/0285_rv.mp4	0.0	286.5407831668854	2.4920432567596436
61	265.764169216156	pulse	1	t		59.0	2.5	/experiments/Knapen_AOT/AOT_stimuli/rescaled_final/0285_rv.mp4	0.0	286.9152603149414	
61	267.36277198791504	pulse	1	t		59.0	2.5	/experiments/Knapen_AOT/AOT_stimuli/rescaled_final/0285_rv.mp4	0.0	288.51386308670044	
61	267.8817353248596	fix_post	2		12	59.0	2.5	/experiments/Knapen_AOT/AOT_stimuli/rescaled_final/0285_rv.mp4	0.0	289.032826423645	0.10001587867736816
62	267.981751203537	fix_pre	0		119	60.0	2.5	/experiments/Knapen_AOT/AOT_stimuli/rescaled_final/1145_fw.mp4	0.0	289.1328423023224	1.000309705734253
62	268.9654870033264	pulse	0	t		60.0	2.5	/experiments/Knapen_AOT/AOT_stimuli/rescaled_final/1145_fw.mp4	0.0	290.1165781021118	
62	268.98206090927124	movie	1		282	60.0	2.5	/experiments/Knapen_AOT/AOT_stimuli/rescaled_final/1145_fw.mp4	0.0	290.13315200805664	2.5002009868621826
62	270.5652480125427	pulse	1	t		60.0	2.5	/experiments/Knapen_AOT/AOT_stimuli/rescaled_final/1145_fw.mp4	0.0	291.7163391113281	
62	271.4822618961334	fix_post	2		12	60.0	2.5	/experiments/Knapen_AOT/AOT_stimuli/rescaled_final/1145_fw.mp4	0.0	292.6333529949188	0.1000220775604248
63	271.58228397369385	fix_pre	0		120	61.0	2.5	/experiments/Knapen_AOT/AOT_stimuli/rescaled_final/0250_fw.mp4	0.0	292.73337507247925	1.0084304809570312
63	272.1661674976349	pulse	0	t		61.0	2.5	/experiments/Knapen_AOT/AOT_stimuli/rescaled_final/0250_fw.mp4	0.0	293.3172585964203	
63	272.5907144546509	movie	1		274	61.0	2.5	/experiments/Knapen_AOT/AOT_stimuli/rescaled_final/0250_fw.mp4	0.0	293.7418055534363	2.492094039916992
63	273.76416397094727	pulse	1	t		61.0	2.5	/experiments/Knapen_AOT/AOT_stimuli/rescaled_final/0250_fw.mp4	0.0	294.91525506973267	
63	275.08280849456787	fix_post	2		12	61.0	2.5	/experiments/Knapen_AOT/AOT_stimuli/rescaled_final/0250_fw.mp4	0.0	296.23389959335327	0.10001444816589355
64	275.18282294273376	fix_pre	0		120	62.0	2.5	blank	1.0	296.33391404151917	1.0001380443572998
64	275.366486787796	pulse	0	t		62.0	2.5	blank	1.0	296.5175778865814	
64	276.18296098709106	movie	1		300	62.0	2.5	blank	1.0	297.33405208587646	2.5003902912139893
64	276.96703028678894	pulse	1	t		62.0	2.5	blank	1.0	298.11812138557434	
64	278.55950140953064	pulse	1	t		62.0	2.5	blank	1.0	299.71059250831604	
64	278.68335127830505	fix_post	2		12	62.0	2.5	blank	1.0	299.83444237709045	0.0999917984008789
65	278.78334307670593	fix_pre	0		120	63.0	2.5	/experiments/Knapen_AOT/AOT_stimuli/rescaled_final/1780_fw.mp4	0.0	299.93443417549133	1.008493185043335
65	279.79183626174927	movie	1		279	63.0	2.5	/experiments/Knapen_AOT/AOT_stimuli/rescaled_final/1780_fw.mp4	0.0	300.94292736053467	2.4920828342437744
65	280.1592333316803	pulse	1	t		63.0	2.5	/experiments/Knapen_AOT/AOT_stimuli/rescaled_final/1780_fw.mp4	0.0	301.3103244304657	
65	281.7593469619751	pulse	1	t		63.0	2.5	/experiments/Knapen_AOT/AOT_stimuli/rescaled_final/1780_fw.mp4	0.0	302.9104380607605	
65	282.28391909599304	fix_post	2		12	63.0	2.5	/experiments/Knapen_AOT/AOT_stimuli/rescaled_final/1780_fw.mp4	0.0	303.43501019477844	0.0999913215637207
66	282.38391041755676	fix_pre	0		118	64.0	2.5	/experiments/Knapen_AOT/AOT_stimuli/rescaled_final/1927_fw.mp4	0.0	303.53500151634216	0.9918267726898193
66	283.35936069488525	pulse	0	t		64.0	2.5	/experiments/Knapen_AOT/AOT_stimuli/rescaled_final/1927_fw.mp4	0.0	304.51045179367065	
66	283.3757371902466	movie	1		279	64.0	2.5	/experiments/Knapen_AOT/AOT_stimuli/rescaled_final/1927_fw.mp4	0.0	304.526828289032	2.500352621078491
66	284.95959734916687	pulse	1	t		64.0	2.5	/experiments/Knapen_AOT/AOT_stimuli/rescaled_final/1927_fw.mp4	0.0	306.11068844795227	
66	285.8760898113251	fix_post	2		12	64.0	2.5	/experiments/Knapen_AOT/AOT_stimuli/rescaled_final/1927_fw.mp4	0.0	307.0271809101105	0.10007596015930176
67	285.9761657714844	fix_pre	0		120	65.0	2.5	/experiments/Knapen_AOT/AOT_stimuli/rescaled_final/0472_rv.mp4	0.0	307.1272568702698	1.0084364414215088
67	286.5597517490387	pulse	0	t		65.0	2.5	/experiments/Knapen_AOT/AOT_stimuli/rescaled_final/0472_rv.mp4	0.0	307.7108428478241	
67	286.9846022129059	movie	1		273	65.0	2.5	/experiments/Knapen_AOT/AOT_stimuli/rescaled_final/0472_rv.mp4	0.0	308.1356933116913	2.492030620574951
67	288.16037464141846	pulse	1	t		65.0	2.5	/experiments/Knapen_AOT/AOT_stimuli/rescaled_final/0472_rv.mp4	0.0	309.31146574020386	
67	289.47663283348083	fix_post	2		12	65.0	2.5	/experiments/Knapen_AOT/AOT_stimuli/rescaled_final/0472_rv.mp4	0.0	310.62772393226624	0.10003232955932617
68	289.57666516304016	fix_pre	0		120	66.0	2.5	/experiments/Knapen_AOT/AOT_stimuli/rescaled_final/0592_rv.mp4	0.0	310.72775626182556	1.0084714889526367
68	289.7603108882904	pulse	0	t		66.0	2.5	/experiments/Knapen_AOT/AOT_stimuli/rescaled_final/0592_rv.mp4	0.0	310.9114019870758	
68	290.5851366519928	movie	1		289	66.0	2.5	/experiments/Knapen_AOT/AOT_stimuli/rescaled_final/0592_rv.mp4	0.0	311.7362277507782	2.4920310974121094
68	291.360476732254	pulse	1	t		66.0	2.5	/experiments/Knapen_AOT/AOT_stimuli/rescaled_final/0592_rv.mp4	0.0	312.51156783103943	
68	292.96230602264404	pulse	1	t		66.0	2.5	/experiments/Knapen_AOT/AOT_stimuli/rescaled_final/0592_rv.mp4	0.0	314.11339712142944	
68	293.0771677494049	fix_post	2		12	66.0	2.5	/experiments/Knapen_AOT/AOT_stimuli/rescaled_final/0592_rv.mp4	0.0	314.2282588481903	0.10006475448608398
69	293.177232503891	fix_pre	0		120	67.0	2.5	/experiments/Knapen_AOT/AOT_stimuli/rescaled_final/0166_rv.mp4	0.0	314.3283236026764	1.008432388305664
69	294.18566489219666	movie	1		285	67.0	2.5	/experiments/Knapen_AOT/AOT_stimuli/rescaled_final/0166_rv.mp4	0.0	315.33675599098206	2.4920554161071777
69	294.5594177246094	pulse	1	t		67.0	2.5	/experiments/Knapen_AOT/AOT_stimuli/rescaled_final/0166_rv.mp4	0.0	315.7105088233948	
69	296.1592514514923	pulse	1	t		67.0	2.5	/experiments/Knapen_AOT/AOT_stimuli/rescaled_final/0166_rv.mp4	0.0	317.3103425502777	
69	296.67772030830383	fix_post	2		12	67.0	2.5	/experiments/Knapen_AOT/AOT_stimuli/rescaled_final/0166_rv.mp4	0.0	317.82881140708923	0.10000991821289062
70	296.7777302265167	fix_pre	0		119	68.0	2.5	blank	1.0	317.9288213253021	0.9918732643127441
70	297.7614710330963	pulse	0	t		68.0	2.5	blank	1.0	318.9125621318817	
70	297.76960349082947	movie	1		301	68.0	2.5	blank	1.0	318.92069458961487	2.5086607933044434
70	299.36169838905334	pulse	1	t		68.0	2.5	blank	1.0	320.51278948783875	
70	300.2782642841339	fix_post	2		12	68.0	2.5	blank	1.0	321.4293553829193	0.09999632835388184
71	300.3782606124878	fix_pre	0		120	69.0	2.5	/experiments/Knapen_AOT/AOT_stimuli/rescaled_final/1771_fw.mp4	0.0	321.5293517112732	1.0086297988891602
71	300.9619176387787	pulse	0	t		69.0	2.5	/experiments/Knapen_AOT/AOT_stimuli/rescaled_final/1771_fw.mp4	0.0	322.1130087375641	
71	301.38689041137695	movie	1		282	69.0	2.5	/experiments/Knapen_AOT/AOT_stimuli/rescaled_final/1771_fw.mp4	0.0	322.53798151016235	2.491903305053711
71	302.56026554107666	pulse	1	t		69.0	2.5	/experiments/Knapen_AOT/AOT_stimuli/rescaled_final/1771_fw.mp4	0.0	323.71135663986206	
71	303.87879371643066	fix_post	2		12	69.0	2.5	/experiments/Knapen_AOT/AOT_stimuli/rescaled_final/1771_fw.mp4	0.0	325.02988481521606	0.1000373363494873
72	303.97883105278015	fix_pre	0		120	70.0	2.5	/experiments/Knapen_AOT/AOT_stimuli/rescaled_final/1156_rv.mp4	0.0	325.12992215156555	1.0085020065307617
72	304.1624891757965	pulse	0	t		70.0	2.5	/experiments/Knapen_AOT/AOT_stimuli/rescaled_final/1156_rv.mp4	0.0	325.3135802745819	
72	304.9873330593109	movie	1		278	70.0	2.5	/experiments/Knapen_AOT/AOT_stimuli/rescaled_final/1156_rv.mp4	0.0	326.1384241580963	2.4920337200164795
72	305.76274847984314	pulse	1	t		70.0	2.5	/experiments/Knapen_AOT/AOT_stimuli/rescaled_final/1156_rv.mp4	0.0	326.91383957862854	
72	307.36096143722534	pulse	1	t		70.0	2.5	/experiments/Knapen_AOT/AOT_stimuli/rescaled_final/1156_rv.mp4	0.0	328.51205253601074	
72	307.4793667793274	fix_post	2		12	70.0	2.5	/experiments/Knapen_AOT/AOT_stimuli/rescaled_final/1156_rv.mp4	0.0	328.6304578781128	0.10001087188720703
73	307.5793776512146	fix_pre	0		120	71.0	2.5	/experiments/Knapen_AOT/AOT_stimuli/rescaled_final/1780_fw.mp4	0.0	328.73046875	1.0084807872772217
73	308.5878584384918	movie	1		281	71.0	2.5	/experiments/Knapen_AOT/AOT_stimuli/rescaled_final/1780_fw.mp4	0.0	329.7389495372772	2.4920167922973633
73	308.96196460723877	pulse	1	t		71.0	2.5	/experiments/Knapen_AOT/AOT_stimuli/rescaled_final/1780_fw.mp4	0.0	330.11305570602417	
73	310.5611937046051	pulse	1	t		71.0	2.5	/experiments/Knapen_AOT/AOT_stimuli/rescaled_final/1780_fw.mp4	0.0	331.7122848033905	
73	311.0798752307892	fix_post	2		12	71.0	2.5	/experiments/Knapen_AOT/AOT_stimuli/rescaled_final/1780_fw.mp4	0.0	332.2309663295746	0.10004115104675293
74	311.17991638183594	fix_pre	0		119	72.0	2.5	/experiments/Knapen_AOT/AOT_stimuli/rescaled_final/1644_rv.mp4	0.0	332.33100748062134	1.0085384845733643
74	312.1636686325073	pulse	0	t		72.0	2.5	/experiments/Knapen_AOT/AOT_stimuli/rescaled_final/1644_rv.mp4	0.0	333.3147597312927	
74	312.1884548664093	movie	1		273	72.0	2.5	/experiments/Knapen_AOT/AOT_stimuli/rescaled_final/1644_rv.mp4	0.0	333.3395459651947	2.4921607971191406
74	313.76235032081604	pulse	1	t		72.0	2.5	/experiments/Knapen_AOT/AOT_stimuli/rescaled_final/1644_rv.mp4	0.0	334.91344141960144	
74	314.68061566352844	fix_post	2		12	72.0	2.5	/experiments/Knapen_AOT/AOT_stimuli/rescaled_final/1644_rv.mp4	0.0	335.83170676231384	0.09995460510253906
75	314.780570268631	fix_pre	0		120	73.0	2.5	/experiments/Knapen_AOT/AOT_stimuli/rescaled_final/1957_rv.mp4	0.0	335.9316613674164	1.0083847045898438
75	315.3640921115875	pulse	0	t		73.0	2.5	/experiments/Knapen_AOT/AOT_stimuli/rescaled_final/1957_rv.mp4	0.0	336.5151832103729	
75	315.7889549732208	movie	1		269	73.0	2.5	/experiments/Knapen_AOT/AOT_stimuli/rescaled_final/1957_rv.mp4	0.0	336.9400460720062	2.4920570850372314
75	316.96245980262756	pulse	1	t		73.0	2.5	/experiments/Knapen_AOT/AOT_stimuli/rescaled_final/1957_rv.mp4	0.0	338.11355090141296	
75	318.28101205825806	fix_post	2		12	73.0	2.5	/experiments/Knapen_AOT/AOT_stimuli/rescaled_final/1957_rv.mp4	0.0	339.43210315704346	0.09995269775390625
76	318.38096475601196	fix_pre	0		120	74.0	2.5	/experiments/Knapen_AOT/AOT_stimuli/rescaled_final/1127_fw.mp4	0.0	339.53205585479736	1.0086054801940918
76	318.56458950042725	pulse	0	t		74.0	2.5	/experiments/Knapen_AOT/AOT_stimuli/rescaled_final/1127_fw.mp4	0.0	339.71568059921265	
76	319.38957023620605	movie	1		277	74.0	2.5	/experiments/Knapen_AOT/AOT_stimuli/rescaled_final/1127_fw.mp4	0.0	340.54066133499146	2.4919755458831787
76	320.16307187080383	pulse	1	t		74.0	2.5	/experiments/Knapen_AOT/AOT_stimuli/rescaled_final/1127_fw.mp4	0.0	341.31416296958923	
76	321.76299262046814	pulse	1	t		74.0	2.5	/experiments/Knapen_AOT/AOT_stimuli/rescaled_final/1127_fw.mp4	0.0	342.91408371925354	
76	321.88154578208923	fix_post	2		12	74.0	2.5	/experiments/Knapen_AOT/AOT_stimuli/rescaled_final/1127_fw.mp4	0.0	343.03263688087463	0.09997987747192383
77	321.98152565956116	fix_pre	0		120	75.0	2.5	blank	1.0	343.13261675834656	1.0001344680786133
77	322.98166012763977	movie	1		300	75.0	2.5	blank	1.0	344.13275122642517	2.5003867149353027
77	323.365416765213	pulse	1	t		75.0	2.5	blank	1.0	344.5165078639984	
77	324.9655990600586	pulse	1	t		75.0	2.5	blank	1.0	346.116690158844	
77	325.4820468425751	fix_post	2		12	75.0	2.5	blank	1.0	346.6331379413605	0.1000220775604248
78	325.5820689201355	fix_pre	0		119	76.0	2.5	/experiments/Knapen_AOT/AOT_stimuli/rescaled_final/0146_rv.mp4	0.0	346.7331600189209	1.0001695156097412
78	326.56583309173584	pulse	0	t		76.0	2.5	/experiments/Knapen_AOT/AOT_stimuli/rescaled_final/0146_rv.mp4	0.0	347.71692419052124	
78	326.58223843574524	movie	1		278	76.0	2.5	/experiments/Knapen_AOT/AOT_stimuli/rescaled_final/0146_rv.mp4	0.0	347.73332953453064	2.5003416538238525
78	328.165265083313	pulse	1	t		76.0	2.5	/experiments/Knapen_AOT/AOT_stimuli/rescaled_final/0146_rv.mp4	0.0	349.3163561820984	
78	329.0825800895691	fix_post	2		12	76.0	2.5	/experiments/Knapen_AOT/AOT_stimuli/rescaled_final/0146_rv.mp4	0.0	350.2336711883545	0.10015702247619629
79	329.1827371120453	fix_pre	0		120	77.0	2.5	/experiments/Knapen_AOT/AOT_stimuli/rescaled_final/1732_rv.mp4	0.0	350.3338282108307	1.00838041305542
79	329.7663073539734	pulse	0	t		77.0	2.5	/experiments/Knapen_AOT/AOT_stimuli/rescaled_final/1732_rv.mp4	0.0	350.9173984527588	
79	330.1911175251007	movie	1		274	77.0	2.5	/experiments/Knapen_AOT/AOT_stimuli/rescaled_final/1732_rv.mp4	0.0	351.3422086238861	2.4920196533203125
79	331.36488366127014	pulse	1	t		77.0	2.5	/experiments/Knapen_AOT/AOT_stimuli/rescaled_final/1732_rv.mp4	0.0	352.51597476005554	
79	332.683137178421	fix_post	2		12	77.0	2.5	/experiments/Knapen_AOT/AOT_stimuli/rescaled_final/1732_rv.mp4	0.0	353.8342282772064	0.09997963905334473
80	332.78311681747437	fix_pre	0		120	78.0	2.5	/experiments/Knapen_AOT/AOT_stimuli/rescaled_final/2098_fw.mp4	0.0	353.93420791625977	1.0085477828979492
80	332.9667344093323	pulse	0	t		78.0	2.5	/experiments/Knapen_AOT/AOT_stimuli/rescaled_final/2098_fw.mp4	0.0	354.1178255081177	
80	333.7916646003723	movie	1		274	78.0	2.5	/experiments/Knapen_AOT/AOT_stimuli/rescaled_final/2098_fw.mp4	0.0	354.9427556991577	2.4920780658721924
80	334.56469535827637	pulse	1	t		78.0	2.5	/experiments/Knapen_AOT/AOT_stimuli/rescaled_final/2098_fw.mp4	0.0	355.71578645706177	
80	336.1659240722656	pulse	1	t		78.0	2.5	/experiments/Knapen_AOT/AOT_stimuli/rescaled_final/2098_fw.mp4	0.0	357.317015171051	
80	336.2837426662445	fix_post	2		12	78.0	2.5	/experiments/Knapen_AOT/AOT_stimuli/rescaled_final/2098_fw.mp4	0.0	357.4348337650299	0.09999728202819824
81	336.3837399482727	fix_pre	0		120	79.0	2.5	/experiments/Knapen_AOT/AOT_stimuli/rescaled_final/0152_rv.mp4	0.0	357.5348310470581	1.0084903240203857
81	337.3922302722931	movie	1		278	79.0	2.5	/experiments/Knapen_AOT/AOT_stimuli/rescaled_final/0152_rv.mp4	0.0	358.5433213710785	2.4920029640197754
81	337.7655613422394	pulse	1	t		79.0	2.5	/experiments/Knapen_AOT/AOT_stimuli/rescaled_final/0152_rv.mp4	0.0	358.9166524410248	
81	339.35955142974854	pulse	1	t		79.0	2.5	/experiments/Knapen_AOT/AOT_stimuli/rescaled_final/0152_rv.mp4	0.0	360.51064252853394	
81	339.88423323631287	fix_post	2		12	79.0	2.5	/experiments/Knapen_AOT/AOT_stimuli/rescaled_final/0152_rv.mp4	0.0	361.03532433509827	0.10002374649047852
82	339.98425698280334	fix_pre	0		118	80.0	2.5	/experiments/Knapen_AOT/AOT_stimuli/rescaled_final/0497_fw.mp4	0.0	361.13534808158875	0.9918293952941895
82	340.9598572254181	pulse	0	t		80.0	2.5	/experiments/Knapen_AOT/AOT_stimuli/rescaled_final/0497_fw.mp4	0.0	362.1109483242035	
82	340.97608637809753	movie	1		280	80.0	2.5	/experiments/Knapen_AOT/AOT_stimuli/rescaled_final/0497_fw.mp4	0.0	362.12717747688293	2.5003600120544434
82	342.5599763393402	pulse	1	t		80.0	2.5	/experiments/Knapen_AOT/AOT_stimuli/rescaled_final/0497_fw.mp4	0.0	363.7110674381256	
82	343.476446390152	fix_post	2		12	80.0	2.5	/experiments/Knapen_AOT/AOT_stimuli/rescaled_final/0497_fw.mp4	0.0	364.6275374889374	0.10000944137573242
83	343.5764558315277	fix_pre	0		120	81.0	2.5	/experiments/Knapen_AOT/AOT_stimuli/rescaled_final/0953_fw.mp4	0.0	364.7275469303131	1.0084922313690186
83	344.16036796569824	pulse	0	t		81.0	2.5	/experiments/Knapen_AOT/AOT_stimuli/rescaled_final/0953_fw.mp4	0.0	365.31145906448364	
83	344.58494806289673	movie	1		271	81.0	2.5	/experiments/Knapen_AOT/AOT_stimuli/rescaled_final/0953_fw.mp4	0.0	365.73603916168213	2.492029905319214
83	345.76043796539307	pulse	1	t		81.0	2.5	/experiments/Knapen_AOT/AOT_stimuli/rescaled_final/0953_fw.mp4	0.0	366.91152906417847	
83	347.07697796821594	fix_post	2		12	81.0	2.5	/experiments/Knapen_AOT/AOT_stimuli/rescaled_final/0953_fw.mp4	0.0	368.22806906700134	0.1000509262084961
84	347.17702889442444	fix_pre	0		120	82.0	2.5	/experiments/Knapen_AOT/AOT_stimuli/rescaled_final/0043_rv.mp4	0.0	368.32811999320984	1.0085582733154297
84	347.36065697669983	pulse	0	t		82.0	2.5	/experiments/Knapen_AOT/AOT_stimuli/rescaled_final/0043_rv.mp4	0.0	368.51174807548523	
84	348.18558716773987	movie	1		277	82.0	2.5	/experiments/Knapen_AOT/AOT_stimuli/rescaled_final/0043_rv.mp4	0.0	369.33667826652527	2.4919650554656982
84	348.9607791900635	pulse	1	t		82.0	2.5	/experiments/Knapen_AOT/AOT_stimuli/rescaled_final/0043_rv.mp4	0.0	370.1118702888489	
84	350.56101632118225	pulse	1	t		82.0	2.5	/experiments/Knapen_AOT/AOT_stimuli/rescaled_final/0043_rv.mp4	0.0	371.71210741996765	
84	350.67755222320557	fix_post	2		12	82.0	2.5	/experiments/Knapen_AOT/AOT_stimuli/rescaled_final/0043_rv.mp4	0.0	371.82864332199097	0.09999299049377441
85	350.77754521369934	fix_pre	0		120	83.0	2.5	blank	1.0	371.92863631248474	1.0001296997070312
85	351.7776749134064	movie	1		300	83.0	2.5	blank	1.0	372.9287660121918	2.500372886657715
85	352.16128611564636	pulse	1	t		83.0	2.5	blank	1.0	373.31237721443176	
85	353.7615785598755	pulse	1	t		83.0	2.5	blank	1.0	374.9126696586609	
85	354.2780478000641	fix_post	2		12	83.0	2.5	blank	1.0	375.4291388988495	0.0999746322631836
87	354.37802243232727	stim	0		1715					375.52911353111267	14.293869733810425
87	355.36180806159973	pulse	0	t						376.51289916038513	
87	356.9621391296387	pulse	0	t						378.1132302284241	
87	358.56226110458374	pulse	0	t						379.71335220336914	
87	360.16244673728943	pulse	0	t						381.31353783607483	
87	361.762943983078	pulse	0	t						382.9140350818634	
87	363.36301016807556	pulse	0	t						384.51410126686096	
87	364.96322560310364	pulse	0	t						386.11431670188904	
87	366.5634777545929	pulse	0	t						387.7145688533783	
87	368.1637074947357	pulse	0	t						389.3147985935211	
