trial_nr	onset	event_type	phase	response	nr_frames	movie_index	movie_duration	movie_file	blank	onset_abs	duration
0	0.14936494827270508	stim	0		127					23.16728687286377	1.058804988861084
0	1.200329065322876	response	0	space						24.21825098991394	
1	1.208169937133789	stim	0		1162					24.226091861724854	9.683425188064575
1	10.885165929794312	pulse	0	t						33.903087854385376	
1	10.891595125198364	stim	1		1717					33.90951704978943	14.30817198753357
1	12.48332405090332	pulse	1	t						35.501245975494385	
1	14.082968950271606	pulse	1	t						37.10089087486267	
1	15.683093070983887	pulse	1	t						38.70101499557495	
1	17.28338599205017	pulse	1	t						40.301307916641235	
1	18.883376121520996	pulse	1	t						41.90129804611206	
1	20.4832980632782	pulse	1	t						43.50121998786926	
1	22.083385944366455	pulse	1	t						45.10130786895752	
1	23.683253049850464	pulse	1	t						46.70117497444153	
2	25.199767112731934	fix_pre	0		11	0.0	2.5	/experiments/AOT/AOT_stimuli/rescaled_final/1594_rv.mp4	0.0	48.217689037323	0.09162688255310059
2	25.28325390815735	pulse	0	t		0.0	2.5	/experiments/AOT/AOT_stimuli/rescaled_final/1594_rv.mp4	0.0	48.30117583274841	
2	25.291393995285034	movie	1		247	0.0	2.5	/experiments/AOT/AOT_stimuli/rescaled_final/1594_rv.mp4	0.0	48.3093159198761	2.5083799362182617
2	26.882914066314697	pulse	1	t		0.0	2.5	/experiments/AOT/AOT_stimuli/rescaled_final/1594_rv.mp4	0.0	49.90083599090576	
2	27.799773931503296	fix_post	2		12	0.0	2.5	/experiments/AOT/AOT_stimuli/rescaled_final/1594_rv.mp4	0.0	50.81769585609436	0.09993505477905273
3	27.89970898628235	fix_pre	0		120	1.0	2.5	/experiments/AOT/AOT_stimuli/rescaled_final/1041_rv.mp4	0.0	50.91763091087341	1.0000131130218506
3	28.483241081237793	pulse	0	t		1.0	2.5	/experiments/AOT/AOT_stimuli/rescaled_final/1041_rv.mp4	0.0	51.50116300582886	
3	28.8997220993042	movie	1		242	1.0	2.5	/experiments/AOT/AOT_stimuli/rescaled_final/1041_rv.mp4	0.0	51.917644023895264	2.500058889389038
3	30.083252906799316	pulse	1	t		1.0	2.5	/experiments/AOT/AOT_stimuli/rescaled_final/1041_rv.mp4	0.0	53.10117483139038	
3	31.399780988693237	fix_post	2		12	1.0	2.5	/experiments/AOT/AOT_stimuli/rescaled_final/1041_rv.mp4	0.0	54.4177029132843	0.09988999366760254
4	31.49967098236084	fix_pre	0		120	2.0	2.5	/experiments/AOT/AOT_stimuli/rescaled_final/0046_fw.mp4	0.0	54.517592906951904	1.0001280307769775
4	31.683156967163086	pulse	0	t		2.0	2.5	/experiments/AOT/AOT_stimuli/rescaled_final/0046_fw.mp4	0.0	54.70107889175415	
4	32.49979901313782	movie	1		244	2.0	2.5	/experiments/AOT/AOT_stimuli/rescaled_final/0046_fw.mp4	0.0	55.51772093772888	2.4999279975891113
4	33.283210039138794	pulse	1	t		2.0	2.5	/experiments/AOT/AOT_stimuli/rescaled_final/0046_fw.mp4	0.0	56.30113196372986	
4	34.881832122802734	pulse	1	t		2.0	2.5	/experiments/AOT/AOT_stimuli/rescaled_final/0046_fw.mp4	0.0	57.8997540473938	
4	34.99972701072693	fix_post	2		12	2.0	2.5	/experiments/AOT/AOT_stimuli/rescaled_final/0046_fw.mp4	0.0	58.01764893531799	0.09998202323913574
5	35.099709033966064	fix_pre	0		120	3.0	2.5	/experiments/AOT/AOT_stimuli/rescaled_final/2062_rv.mp4	0.0	58.11763095855713	1.0000290870666504
5	36.099738121032715	movie	1		244	3.0	2.5	/experiments/AOT/AOT_stimuli/rescaled_final/2062_rv.mp4	0.0	59.11766004562378	2.500060796737671
5	36.48318910598755	pulse	1	t		3.0	2.5	/experiments/AOT/AOT_stimuli/rescaled_final/2062_rv.mp4	0.0	59.50111103057861	
5	38.08322501182556	pulse	1	t		3.0	2.5	/experiments/AOT/AOT_stimuli/rescaled_final/2062_rv.mp4	0.0	61.101146936416626	
5	38.599798917770386	fix_post	2		12	3.0	2.5	/experiments/AOT/AOT_stimuli/rescaled_final/2062_rv.mp4	0.0	61.61772084236145	0.10007619857788086
6	38.69987511634827	fix_pre	0		119	4.0	2.5	/experiments/AOT/AOT_stimuli/rescaled_final/0753_rv.mp4	0.0	61.71779704093933	0.9914507865905762
6	39.683160066604614	pulse	0	t		4.0	2.5	/experiments/AOT/AOT_stimuli/rescaled_final/0753_rv.mp4	0.0	62.70108199119568	
6	39.69132590293884	movie	1		246	4.0	2.5	/experiments/AOT/AOT_stimuli/rescaled_final/0753_rv.mp4	0.0	62.70924782752991	2.5084211826324463
6	41.28298497200012	pulse	1	t		4.0	2.5	/experiments/AOT/AOT_stimuli/rescaled_final/0753_rv.mp4	0.0	64.30090689659119	
6	42.19974708557129	fix_post	2		12	4.0	2.5	/experiments/AOT/AOT_stimuli/rescaled_final/0753_rv.mp4	0.0	65.21766901016235	0.0999448299407959
7	42.299691915512085	fix_pre	0		120	5.0	2.5	blank	1.0	65.31761384010315	1.000054121017456
7	42.88319706916809	pulse	0	t		5.0	2.5	blank	1.0	65.90111899375916	
7	43.29974603652954	movie	1		300	5.0	2.5	blank	1.0	66.3176679611206	2.499974012374878
7	44.483192920684814	pulse	1	t		5.0	2.5	blank	1.0	67.50111484527588	
7	45.79972004890442	fix_post	2		12	5.0	2.5	blank	1.0	68.81764197349548	0.09995508193969727
8	45.899675130844116	fix_pre	0		120	6.0	2.5	/experiments/AOT/AOT_stimuli/rescaled_final/1828_rv.mp4	0.0	68.91759705543518	1.0000159740447998
8	46.083203077316284	pulse	0	t		6.0	2.5	/experiments/AOT/AOT_stimuli/rescaled_final/1828_rv.mp4	0.0	69.10112500190735	
8	46.899691104888916	movie	1		245	6.0	2.5	/experiments/AOT/AOT_stimuli/rescaled_final/1828_rv.mp4	0.0	69.91761302947998	2.4995529651641846
8	47.683172941207886	pulse	1	t		6.0	2.5	/experiments/AOT/AOT_stimuli/rescaled_final/1828_rv.mp4	0.0	70.70109486579895	
8	49.28228807449341	pulse	1	t		6.0	2.5	/experiments/AOT/AOT_stimuli/rescaled_final/1828_rv.mp4	0.0	72.30020999908447	
8	49.3992440700531	fix_post	2		12	6.0	2.5	/experiments/AOT/AOT_stimuli/rescaled_final/1828_rv.mp4	0.0	72.41716599464417	0.10041594505310059
9	49.4996600151062	fix_pre	0		120	7.0	2.5	/experiments/AOT/AOT_stimuli/rescaled_final/1486_fw.mp4	0.0	72.51758193969727	1.0000391006469727
9	50.499699115753174	movie	1		244	7.0	2.5	/experiments/AOT/AOT_stimuli/rescaled_final/1486_fw.mp4	0.0	73.51762104034424	2.5000100135803223
9	50.88282608985901	pulse	1	t		7.0	2.5	/experiments/AOT/AOT_stimuli/rescaled_final/1486_fw.mp4	0.0	73.90074801445007	
9	52.483104944229126	pulse	1	t		7.0	2.5	/experiments/AOT/AOT_stimuli/rescaled_final/1486_fw.mp4	0.0	75.50102686882019	
9	52.999709129333496	fix_post	2		12	7.0	2.5	/experiments/AOT/AOT_stimuli/rescaled_final/1486_fw.mp4	0.0	76.01763105392456	0.0999598503112793
10	53.099668979644775	fix_pre	0		119	8.0	2.5	/experiments/AOT/AOT_stimuli/rescaled_final/1040_fw.mp4	0.0	76.11759090423584	0.9916551113128662
10	54.08316993713379	pulse	0	t		8.0	2.5	/experiments/AOT/AOT_stimuli/rescaled_final/1040_fw.mp4	0.0	77.10109186172485	
10	54.09132409095764	movie	1		244	8.0	2.5	/experiments/AOT/AOT_stimuli/rescaled_final/1040_fw.mp4	0.0	77.1092460155487	2.5083868503570557
10	55.68282413482666	pulse	1	t		8.0	2.5	/experiments/AOT/AOT_stimuli/rescaled_final/1040_fw.mp4	0.0	78.70074605941772	
10	56.5997109413147	fix_post	2		12	8.0	2.5	/experiments/AOT/AOT_stimuli/rescaled_final/1040_fw.mp4	0.0	79.61763286590576	0.09994697570800781
11	56.699657917022705	fix_pre	0		120	9.0	2.5	/experiments/AOT/AOT_stimuli/rescaled_final/2063_rv.mp4	0.0	79.71757984161377	1.0000150203704834
11	57.283143043518066	pulse	0	t		9.0	2.5	/experiments/AOT/AOT_stimuli/rescaled_final/2063_rv.mp4	0.0	80.30106496810913	
11	57.69967293739319	movie	1		243	9.0	2.5	/experiments/AOT/AOT_stimuli/rescaled_final/2063_rv.mp4	0.0	80.71759486198425	2.4994959831237793
11	58.883193016052246	pulse	1	t		9.0	2.5	/experiments/AOT/AOT_stimuli/rescaled_final/2063_rv.mp4	0.0	81.90111494064331	
11	60.19916892051697	fix_post	2		12	9.0	2.5	/experiments/AOT/AOT_stimuli/rescaled_final/2063_rv.mp4	0.0	83.21709084510803	0.10050010681152344
12	60.29966902732849	fix_pre	0		120	10.0	2.5	/experiments/AOT/AOT_stimuli/rescaled_final/1981_rv.mp4	0.0	83.31759095191956	1.0000369548797607
12	60.48312711715698	pulse	0	t		10.0	2.5	/experiments/AOT/AOT_stimuli/rescaled_final/1981_rv.mp4	0.0	83.50104904174805	
12	61.29970598220825	movie	1		243	10.0	2.5	/experiments/AOT/AOT_stimuli/rescaled_final/1981_rv.mp4	0.0	84.31762790679932	2.499969005584717
12	62.08312797546387	pulse	1	t		10.0	2.5	/experiments/AOT/AOT_stimuli/rescaled_final/1981_rv.mp4	0.0	85.10104990005493	
12	63.68138003349304	pulse	1	t		10.0	2.5	/experiments/AOT/AOT_stimuli/rescaled_final/1981_rv.mp4	0.0	86.6993019580841	
12	63.79967498779297	fix_post	2		12	10.0	2.5	/experiments/AOT/AOT_stimuli/rescaled_final/1981_rv.mp4	0.0	86.81759691238403	0.09996604919433594
13	63.899641036987305	fix_pre	0		120	11.0	2.5	/experiments/AOT/AOT_stimuli/rescaled_final/1155_rv.mp4	0.0	86.91756296157837	0.999993085861206
13	64.89963412284851	movie	1		245	11.0	2.5	/experiments/AOT/AOT_stimuli/rescaled_final/1155_rv.mp4	0.0	87.91755604743958	2.499950885772705
13	65.28259301185608	pulse	1	t		11.0	2.5	/experiments/AOT/AOT_stimuli/rescaled_final/1155_rv.mp4	0.0	88.30051493644714	
13	66.8831250667572	pulse	1	t		11.0	2.5	/experiments/AOT/AOT_stimuli/rescaled_final/1155_rv.mp4	0.0	89.90104699134827	
13	67.39958500862122	fix_post	2		12	11.0	2.5	/experiments/AOT/AOT_stimuli/rescaled_final/1155_rv.mp4	0.0	90.41750693321228	0.09996700286865234
14	67.49955201148987	fix_pre	0		119	12.0	2.5	blank	1.0	90.51747393608093	0.991663932800293
14	68.4830379486084	pulse	0	t		12.0	2.5	blank	1.0	91.50095987319946	
14	68.49121594429016	movie	1		301	12.0	2.5	blank	1.0	91.50913786888123	2.508419990539551
14	70.0830991268158	pulse	1	t		12.0	2.5	blank	1.0	93.10102105140686	
14	70.99963593482971	fix_post	2		12	12.0	2.5	blank	1.0	94.01755785942078	0.09960699081420898
15	71.09924292564392	fix_pre	0		120	13.0	2.5	/experiments/AOT/AOT_stimuli/rescaled_final/1848_fw.mp4	0.0	94.11716485023499	1.0005650520324707
15	71.6832799911499	pulse	0	t		13.0	2.5	/experiments/AOT/AOT_stimuli/rescaled_final/1848_fw.mp4	0.0	94.70120191574097	
15	72.09980797767639	movie	1		243	13.0	2.5	/experiments/AOT/AOT_stimuli/rescaled_final/1848_fw.mp4	0.0	95.11772990226746	2.4997670650482178
15	73.28317308425903	pulse	1	t		13.0	2.5	/experiments/AOT/AOT_stimuli/rescaled_final/1848_fw.mp4	0.0	96.3010950088501	
15	74.59957504272461	fix_post	2		12	13.0	2.5	/experiments/AOT/AOT_stimuli/rescaled_final/1848_fw.mp4	0.0	97.61749696731567	0.10003399848937988
16	74.69960904121399	fix_pre	0		120	14.0	2.5	/experiments/AOT/AOT_stimuli/rescaled_final/1895_rv.mp4	0.0	97.71753096580505	0.9999220371246338
16	74.88306093215942	pulse	0	t		14.0	2.5	/experiments/AOT/AOT_stimuli/rescaled_final/1895_rv.mp4	0.0	97.90098285675049	
16	75.69953107833862	movie	1		244	14.0	2.5	/experiments/AOT/AOT_stimuli/rescaled_final/1895_rv.mp4	0.0	98.71745300292969	2.4999899864196777
16	76.48306894302368	pulse	1	t		14.0	2.5	/experiments/AOT/AOT_stimuli/rescaled_final/1895_rv.mp4	0.0	99.50099086761475	
16	78.0830340385437	pulse	1	t		14.0	2.5	/experiments/AOT/AOT_stimuli/rescaled_final/1895_rv.mp4	0.0	101.10095596313477	
16	78.1995210647583	fix_post	2		12	14.0	2.5	/experiments/AOT/AOT_stimuli/rescaled_final/1895_rv.mp4	0.0	101.21744298934937	0.09999704360961914
17	78.29951810836792	fix_pre	0		120	15.0	2.5	/experiments/AOT/AOT_stimuli/rescaled_final/1430_rv.mp4	0.0	101.31744003295898	1.0000159740447998
17	79.29953408241272	movie	1		244	15.0	2.5	/experiments/AOT/AOT_stimuli/rescaled_final/1430_rv.mp4	0.0	102.31745600700378	2.4999170303344727
17	79.68241000175476	pulse	1	t		15.0	2.5	/experiments/AOT/AOT_stimuli/rescaled_final/1430_rv.mp4	0.0	102.70033192634583	
17	81.28297901153564	pulse	1	t		15.0	2.5	/experiments/AOT/AOT_stimuli/rescaled_final/1430_rv.mp4	0.0	104.30090093612671	
17	81.79945111274719	fix_post	2		12	15.0	2.5	/experiments/AOT/AOT_stimuli/rescaled_final/1430_rv.mp4	0.0	104.81737303733826	0.10002398490905762
18	81.89947509765625	fix_pre	0		119	16.0	2.5	/experiments/AOT/AOT_stimuli/rescaled_final/0766_rv.mp4	0.0	104.91739702224731	0.9917569160461426
18	82.88296103477478	pulse	0	t		16.0	2.5	/experiments/AOT/AOT_stimuli/rescaled_final/0766_rv.mp4	0.0	105.90088295936584	
18	82.89123201370239	movie	1		248	16.0	2.5	/experiments/AOT/AOT_stimuli/rescaled_final/0766_rv.mp4	0.0	105.90915393829346	2.508258104324341
18	84.48251795768738	pulse	1	t		16.0	2.5	/experiments/AOT/AOT_stimuli/rescaled_final/0766_rv.mp4	0.0	107.50043988227844	
18	85.39949011802673	fix_post	2		12	16.0	2.5	/experiments/AOT/AOT_stimuli/rescaled_final/0766_rv.mp4	0.0	108.4174120426178	0.09998488426208496
19	85.49947500228882	fix_pre	0		120	17.0	2.5	/experiments/AOT/AOT_stimuli/rescaled_final/1526_fw.mp4	0.0	108.51739692687988	1.0000979900360107
19	86.08294200897217	pulse	0	t		17.0	2.5	/experiments/AOT/AOT_stimuli/rescaled_final/1526_fw.mp4	0.0	109.10086393356323	
19	86.49957299232483	movie	1		246	17.0	2.5	/experiments/AOT/AOT_stimuli/rescaled_final/1526_fw.mp4	0.0	109.5174949169159	2.4998250007629395
19	87.68292903900146	pulse	1	t		17.0	2.5	/experiments/AOT/AOT_stimuli/rescaled_final/1526_fw.mp4	0.0	110.70085096359253	
19	88.99939799308777	fix_post	2		12	17.0	2.5	/experiments/AOT/AOT_stimuli/rescaled_final/1526_fw.mp4	0.0	112.01731991767883	0.10005593299865723
20	89.09945392608643	fix_pre	0		120	18.0	2.5	/experiments/AOT/AOT_stimuli/rescaled_final/0754_fw.mp4	0.0	112.11737585067749	1.0000391006469727
20	89.28301405906677	pulse	0	t		18.0	2.5	/experiments/AOT/AOT_stimuli/rescaled_final/0754_fw.mp4	0.0	112.30093598365784	
20	90.0994930267334	movie	1		246	18.0	2.5	/experiments/AOT/AOT_stimuli/rescaled_final/0754_fw.mp4	0.0	113.11741495132446	2.499988079071045
20	90.88291501998901	pulse	1	t		18.0	2.5	/experiments/AOT/AOT_stimuli/rescaled_final/0754_fw.mp4	0.0	113.90083694458008	
20	92.48300504684448	pulse	1	t		18.0	2.5	/experiments/AOT/AOT_stimuli/rescaled_final/0754_fw.mp4	0.0	115.50092697143555	
20	92.59948110580444	fix_post	2		12	18.0	2.5	/experiments/AOT/AOT_stimuli/rescaled_final/0754_fw.mp4	0.0	115.61740303039551	0.0998849868774414
21	92.69936609268188	fix_pre	0		120	19.0	2.5	/experiments/AOT/AOT_stimuli/rescaled_final/2044_fw.mp4	0.0	115.71728801727295	1.000187873840332
21	93.69955396652222	movie	1		243	19.0	2.5	/experiments/AOT/AOT_stimuli/rescaled_final/2044_fw.mp4	0.0	116.71747589111328	2.499885082244873
21	94.08270406723022	pulse	1	t		19.0	2.5	/experiments/AOT/AOT_stimuli/rescaled_final/2044_fw.mp4	0.0	117.10062599182129	
21	95.68294191360474	pulse	1	t		19.0	2.5	/experiments/AOT/AOT_stimuli/rescaled_final/2044_fw.mp4	0.0	118.7008638381958	
21	96.19943904876709	fix_post	2		12	19.0	2.5	/experiments/AOT/AOT_stimuli/rescaled_final/2044_fw.mp4	0.0	119.21736097335815	0.09996986389160156
22	96.29940891265869	fix_pre	0		119	20.0	2.5	blank	1.0	119.31733083724976	0.9916160106658936
22	97.28291392326355	pulse	0	t		20.0	2.5	blank	1.0	120.30083584785461	
22	97.29102492332458	movie	1		301	20.0	2.5	blank	1.0	120.30894684791565	2.5084099769592285
22	98.88292098045349	pulse	1	t		20.0	2.5	blank	1.0	121.90084290504456	
22	99.79943490028381	fix_post	2		12	20.0	2.5	blank	1.0	122.81735682487488	0.09994316101074219
23	99.89937806129456	fix_pre	0		119	21.0	2.5	/experiments/AOT/AOT_stimuli/rescaled_final/0024_fw.mp4	0.0	122.91729998588562	1.0000238418579102
23	100.48295092582703	pulse	0	t		21.0	2.5	/experiments/AOT/AOT_stimuli/rescaled_final/0024_fw.mp4	0.0	123.50087285041809	
23	100.89940190315247	movie	1		245	21.0	2.5	/experiments/AOT/AOT_stimuli/rescaled_final/0024_fw.mp4	0.0	123.91732382774353	2.4999890327453613
23	102.08295106887817	pulse	1	t		21.0	2.5	/experiments/AOT/AOT_stimuli/rescaled_final/0024_fw.mp4	0.0	125.10087299346924	
23	103.39939093589783	fix_post	2		12	21.0	2.5	/experiments/AOT/AOT_stimuli/rescaled_final/0024_fw.mp4	0.0	126.41731286048889	0.10002017021179199
24	103.49941110610962	fix_pre	0		120	22.0	2.5	/experiments/AOT/AOT_stimuli/rescaled_final/1895_rv.mp4	0.0	126.51733303070068	0.9999639987945557
24	103.68294405937195	pulse	0	t		22.0	2.5	/experiments/AOT/AOT_stimuli/rescaled_final/1895_rv.mp4	0.0	126.70086598396301	
24	104.49937510490417	movie	1		245	22.0	2.5	/experiments/AOT/AOT_stimuli/rescaled_final/1895_rv.mp4	0.0	127.51729702949524	2.4999938011169434
24	105.28284406661987	pulse	1	t		22.0	2.5	/experiments/AOT/AOT_stimuli/rescaled_final/1895_rv.mp4	0.0	128.30076599121094	
24	106.88284111022949	pulse	1	t		22.0	2.5	/experiments/AOT/AOT_stimuli/rescaled_final/1895_rv.mp4	0.0	129.90076303482056	
24	106.99936890602112	fix_post	2		12	22.0	2.5	/experiments/AOT/AOT_stimuli/rescaled_final/1895_rv.mp4	0.0	130.01729083061218	0.09998917579650879
25	107.09935808181763	fix_pre	0		120	23.0	2.5	/experiments/AOT/AOT_stimuli/rescaled_final/1662_rv.mp4	0.0	130.1172800064087	1.0
25	108.09935808181763	movie	1		243	23.0	2.5	/experiments/AOT/AOT_stimuli/rescaled_final/1662_rv.mp4	0.0	131.1172800064087	2.5000710487365723
25	108.48262596130371	pulse	1	t		23.0	2.5	/experiments/AOT/AOT_stimuli/rescaled_final/1662_rv.mp4	0.0	131.50054788589478	
25	110.08302998542786	pulse	1	t		23.0	2.5	/experiments/AOT/AOT_stimuli/rescaled_final/1662_rv.mp4	0.0	133.10095191001892	
25	110.5994291305542	fix_post	2		12	23.0	2.5	/experiments/AOT/AOT_stimuli/rescaled_final/1662_rv.mp4	0.0	133.61735105514526	0.09993290901184082
26	110.69936203956604	fix_pre	0		119	24.0	2.5	/experiments/AOT/AOT_stimuli/rescaled_final/1694_fw.mp4	0.0	133.7172839641571	0.991663932800293
26	111.68280506134033	pulse	0	t		24.0	2.5	/experiments/AOT/AOT_stimuli/rescaled_final/1694_fw.mp4	0.0	134.7007269859314	
26	111.69102597236633	movie	1		245	24.0	2.5	/experiments/AOT/AOT_stimuli/rescaled_final/1694_fw.mp4	0.0	134.7089478969574	2.508362054824829
26	113.28255009651184	pulse	1	t		24.0	2.5	/experiments/AOT/AOT_stimuli/rescaled_final/1694_fw.mp4	0.0	136.3004720211029	
26	114.19938802719116	fix_post	2		12	24.0	2.5	/experiments/AOT/AOT_stimuli/rescaled_final/1694_fw.mp4	0.0	137.21730995178223	0.10000491142272949
27	114.29939293861389	fix_pre	0		120	25.0	2.5	/experiments/AOT/AOT_stimuli/rescaled_final/0680_rv.mp4	0.0	137.31731486320496	0.9999840259552002
27	114.88285493850708	pulse	0	t		25.0	2.5	/experiments/AOT/AOT_stimuli/rescaled_final/0680_rv.mp4	0.0	137.90077686309814	
27	115.29937696456909	movie	1		243	25.0	2.5	/experiments/AOT/AOT_stimuli/rescaled_final/0680_rv.mp4	0.0	138.31729888916016	2.499936103820801
27	116.48292398452759	pulse	1	t		25.0	2.5	/experiments/AOT/AOT_stimuli/rescaled_final/0680_rv.mp4	0.0	139.50084590911865	
27	117.79931306838989	fix_post	2		12	25.0	2.5	/experiments/AOT/AOT_stimuli/rescaled_final/0680_rv.mp4	0.0	140.81723499298096	0.1000070571899414
28	117.89932012557983	fix_pre	0		120	26.0	2.5	/experiments/AOT/AOT_stimuli/rescaled_final/1155_fw.mp4	0.0	140.9172420501709	0.9999649524688721
28	118.08285903930664	pulse	0	t		26.0	2.5	/experiments/AOT/AOT_stimuli/rescaled_final/1155_fw.mp4	0.0	141.1007809638977	
28	118.8992850780487	movie	1		244	26.0	2.5	/experiments/AOT/AOT_stimuli/rescaled_final/1155_fw.mp4	0.0	141.91720700263977	2.5000269412994385
28	119.6828510761261	pulse	1	t		26.0	2.5	/experiments/AOT/AOT_stimuli/rescaled_final/1155_fw.mp4	0.0	142.70077300071716	
28	121.28149604797363	pulse	1	t		26.0	2.5	/experiments/AOT/AOT_stimuli/rescaled_final/1155_fw.mp4	0.0	144.2994179725647	
28	121.39931201934814	fix_post	2		12	26.0	2.5	/experiments/AOT/AOT_stimuli/rescaled_final/1155_fw.mp4	0.0	144.4172339439392	0.10002803802490234
29	121.49934005737305	fix_pre	0		120	27.0	2.5	/experiments/AOT/AOT_stimuli/rescaled_final/0062_fw.mp4	0.0	144.5172619819641	0.9999599456787109
29	122.49930000305176	movie	1		245	27.0	2.5	/experiments/AOT/AOT_stimuli/rescaled_final/0062_fw.mp4	0.0	145.51722192764282	2.499572992324829
29	122.88250708580017	pulse	1	t		27.0	2.5	/experiments/AOT/AOT_stimuli/rescaled_final/0062_fw.mp4	0.0	145.90042901039124	
29	124.48274397850037	pulse	1	t		27.0	2.5	/experiments/AOT/AOT_stimuli/rescaled_final/0062_fw.mp4	0.0	147.50066590309143	
29	124.99887299537659	fix_post	2		12	27.0	2.5	/experiments/AOT/AOT_stimuli/rescaled_final/0062_fw.mp4	0.0	148.01679491996765	0.10001492500305176
30	125.09888792037964	fix_pre	0		119	28.0	2.5	blank	1.0	148.1168098449707	0.9921000003814697
30	126.08232593536377	pulse	0	t		28.0	2.5	blank	1.0	149.10024785995483	
30	126.09098792076111	movie	1		301	28.0	2.5	blank	1.0	149.10890984535217	2.508296012878418
30	127.6826491355896	pulse	1	t		28.0	2.5	blank	1.0	150.70057106018066	
30	128.59928393363953	fix_post	2		12	28.0	2.5	blank	1.0	151.6172058582306	0.09995818138122559
31	128.69924211502075	fix_pre	0		120	29.0	2.5	/experiments/AOT/AOT_stimuli/rescaled_final/0808_fw.mp4	0.0	151.71716403961182	1.0000989437103271
31	129.28284192085266	pulse	0	t		29.0	2.5	/experiments/AOT/AOT_stimuli/rescaled_final/0808_fw.mp4	0.0	152.30076384544373	
31	129.69934105873108	movie	1		246	29.0	2.5	/experiments/AOT/AOT_stimuli/rescaled_final/0808_fw.mp4	0.0	152.71726298332214	2.4999759197235107
31	130.88288807868958	pulse	1	t		29.0	2.5	/experiments/AOT/AOT_stimuli/rescaled_final/0808_fw.mp4	0.0	153.90081000328064	
31	132.1993169784546	fix_post	2		12	29.0	2.5	/experiments/AOT/AOT_stimuli/rescaled_final/0808_fw.mp4	0.0	155.21723890304565	0.09992313385009766
32	132.2992401123047	fix_pre	0		120	30.0	2.5	/experiments/AOT/AOT_stimuli/rescaled_final/1662_fw.mp4	0.0	155.31716203689575	1.0000038146972656
32	132.4827859401703	pulse	0	t		30.0	2.5	/experiments/AOT/AOT_stimuli/rescaled_final/1662_fw.mp4	0.0	155.50070786476135	
32	133.29924392700195	movie	1		244	30.0	2.5	/experiments/AOT/AOT_stimuli/rescaled_final/1662_fw.mp4	0.0	156.31716585159302	2.4999120235443115
32	134.08262395858765	pulse	1	t		30.0	2.5	/experiments/AOT/AOT_stimuli/rescaled_final/1662_fw.mp4	0.0	157.1005458831787	
32	135.68110299110413	pulse	1	t		30.0	2.5	/experiments/AOT/AOT_stimuli/rescaled_final/1662_fw.mp4	0.0	158.6990249156952	
32	135.79915595054626	fix_post	2		12	30.0	2.5	/experiments/AOT/AOT_stimuli/rescaled_final/1662_fw.mp4	0.0	158.81707787513733	0.10004711151123047
33	135.8992030620575	fix_pre	0		120	31.0	2.5	/experiments/AOT/AOT_stimuli/rescaled_final/1848_fw.mp4	0.0	158.91712498664856	1.0
33	136.8992030620575	movie	1		244	31.0	2.5	/experiments/AOT/AOT_stimuli/rescaled_final/1848_fw.mp4	0.0	159.91712498664856	2.5000698566436768
33	137.28241300582886	pulse	1	t		31.0	2.5	/experiments/AOT/AOT_stimuli/rescaled_final/1848_fw.mp4	0.0	160.30033493041992	
33	138.88272190093994	pulse	1	t		31.0	2.5	/experiments/AOT/AOT_stimuli/rescaled_final/1848_fw.mp4	0.0	161.900643825531	
33	139.39927291870117	fix_post	2		12	31.0	2.5	/experiments/AOT/AOT_stimuli/rescaled_final/1848_fw.mp4	0.0	162.41719484329224	0.0998539924621582
34	139.49912691116333	fix_pre	0		119	32.0	2.5	/experiments/AOT/AOT_stimuli/rescaled_final/2016_rv.mp4	0.0	162.5170488357544	0.9917030334472656
34	140.48273301124573	pulse	0	t		32.0	2.5	/experiments/AOT/AOT_stimuli/rescaled_final/2016_rv.mp4	0.0	163.5006549358368	
34	140.4908299446106	movie	1		243	32.0	2.5	/experiments/AOT/AOT_stimuli/rescaled_final/2016_rv.mp4	0.0	163.50875186920166	2.5083980560302734
34	142.08239006996155	pulse	1	t		32.0	2.5	/experiments/AOT/AOT_stimuli/rescaled_final/2016_rv.mp4	0.0	165.1003119945526	
34	142.99922800064087	fix_post	2		12	32.0	2.5	/experiments/AOT/AOT_stimuli/rescaled_final/2016_rv.mp4	0.0	166.01714992523193	0.0999150276184082
35	143.09914302825928	fix_pre	0		120	33.0	2.5	/experiments/AOT/AOT_stimuli/rescaled_final/0714_fw.mp4	0.0	166.11706495285034	0.9999990463256836
35	143.68273401260376	pulse	0	t		33.0	2.5	/experiments/AOT/AOT_stimuli/rescaled_final/0714_fw.mp4	0.0	166.70065593719482	
35	144.09914207458496	movie	1		244	33.0	2.5	/experiments/AOT/AOT_stimuli/rescaled_final/0714_fw.mp4	0.0	167.11706399917603	2.5000970363616943
35	145.28287291526794	pulse	1	t		33.0	2.5	/experiments/AOT/AOT_stimuli/rescaled_final/0714_fw.mp4	0.0	168.300794839859	
35	146.59923911094666	fix_post	2		12	33.0	2.5	/experiments/AOT/AOT_stimuli/rescaled_final/0714_fw.mp4	0.0	169.61716103553772	0.09990596771240234
36	146.69914507865906	fix_pre	0		120	34.0	2.5	blank	1.0	169.71706700325012	1.0000269412994385
36	146.88262391090393	pulse	0	t		34.0	2.5	blank	1.0	169.900545835495	
36	147.6991720199585	movie	1		300	34.0	2.5	blank	1.0	170.71709394454956	2.4999730587005615
36	148.48267602920532	pulse	1	t		34.0	2.5	blank	1.0	171.5005979537964	
36	150.08271598815918	pulse	1	t		34.0	2.5	blank	1.0	173.10063791275024	
36	150.19914507865906	fix_post	2		12	34.0	2.5	blank	1.0	173.21706700325012	0.10002899169921875
37	150.29917407035828	fix_pre	0		120	35.0	2.5	/experiments/AOT/AOT_stimuli/rescaled_final/1269_fw.mp4	0.0	173.31709599494934	0.9999749660491943
37	151.29914903640747	movie	1		245	35.0	2.5	/experiments/AOT/AOT_stimuli/rescaled_final/1269_fw.mp4	0.0	174.31707096099854	2.500067949295044
37	151.68228006362915	pulse	1	t		35.0	2.5	/experiments/AOT/AOT_stimuli/rescaled_final/1269_fw.mp4	0.0	174.70020198822021	
37	153.28262495994568	pulse	1	t		35.0	2.5	/experiments/AOT/AOT_stimuli/rescaled_final/1269_fw.mp4	0.0	176.30054688453674	
37	153.79921698570251	fix_post	2		11	35.0	2.5	/experiments/AOT/AOT_stimuli/rescaled_final/1269_fw.mp4	0.0	176.81713891029358	0.09986400604248047
38	153.899080991745	fix_pre	0		119	36.0	2.5	/experiments/AOT/AOT_stimuli/rescaled_final/0062_rv.mp4	0.0	176.91700291633606	0.9917380809783936
38	154.88263607025146	pulse	0	t		36.0	2.5	/experiments/AOT/AOT_stimuli/rescaled_final/0062_rv.mp4	0.0	177.90055799484253	
38	154.8908190727234	movie	1		244	36.0	2.5	/experiments/AOT/AOT_stimuli/rescaled_final/0062_rv.mp4	0.0	177.90874099731445	2.5083229541778564
38	156.4822540283203	pulse	1	t		36.0	2.5	/experiments/AOT/AOT_stimuli/rescaled_final/0062_rv.mp4	0.0	179.50017595291138	
38	157.39914202690125	fix_post	2		12	36.0	2.5	/experiments/AOT/AOT_stimuli/rescaled_final/0062_rv.mp4	0.0	180.4170639514923	0.1000070571899414
39	157.4991490840912	fix_pre	0		120	37.0	2.5	/experiments/AOT/AOT_stimuli/rescaled_final/1651_rv.mp4	0.0	180.51707100868225	1.0000100135803223
39	158.08265900611877	pulse	0	t		37.0	2.5	/experiments/AOT/AOT_stimuli/rescaled_final/1651_rv.mp4	0.0	181.10058093070984	
39	158.4991590976715	movie	1		244	37.0	2.5	/experiments/AOT/AOT_stimuli/rescaled_final/1651_rv.mp4	0.0	181.51708102226257	2.5000109672546387
39	159.68276405334473	pulse	1	t		37.0	2.5	/experiments/AOT/AOT_stimuli/rescaled_final/1651_rv.mp4	0.0	182.7006859779358	
39	160.99917006492615	fix_post	2		12	37.0	2.5	/experiments/AOT/AOT_stimuli/rescaled_final/1651_rv.mp4	0.0	184.0170919895172	0.0999760627746582
40	161.0991461277008	fix_pre	0		120	38.0	2.5	/experiments/AOT/AOT_stimuli/rescaled_final/1431_fw.mp4	0.0	184.11706805229187	0.9999589920043945
40	161.28263902664185	pulse	0	t		38.0	2.5	/experiments/AOT/AOT_stimuli/rescaled_final/1431_fw.mp4	0.0	184.3005609512329	
40	162.0991051197052	movie	1		246	38.0	2.5	/experiments/AOT/AOT_stimuli/rescaled_final/1431_fw.mp4	0.0	185.11702704429626	2.5001180171966553
40	162.8825879096985	pulse	1	t		38.0	2.5	/experiments/AOT/AOT_stimuli/rescaled_final/1431_fw.mp4	0.0	185.90050983428955	
40	164.48257303237915	pulse	1	t		38.0	2.5	/experiments/AOT/AOT_stimuli/rescaled_final/1431_fw.mp4	0.0	187.50049495697021	
40	164.59922313690186	fix_post	2		12	38.0	2.5	/experiments/AOT/AOT_stimuli/rescaled_final/1431_fw.mp4	0.0	187.61714506149292	0.09987378120422363
41	164.69909691810608	fix_pre	0		120	39.0	2.5	/experiments/AOT/AOT_stimuli/rescaled_final/1352_rv.mp4	0.0	187.71701884269714	1.000040054321289
41	165.69913697242737	movie	1		243	39.0	2.5	/experiments/AOT/AOT_stimuli/rescaled_final/1352_rv.mp4	0.0	188.71705889701843	2.500049114227295
41	166.0822310447693	pulse	1	t		39.0	2.5	/experiments/AOT/AOT_stimuli/rescaled_final/1352_rv.mp4	0.0	189.10015296936035	
41	167.68262600898743	pulse	1	t		39.0	2.5	/experiments/AOT/AOT_stimuli/rescaled_final/1352_rv.mp4	0.0	190.7005479335785	
41	168.19918608665466	fix_post	2		12	39.0	2.5	/experiments/AOT/AOT_stimuli/rescaled_final/1352_rv.mp4	0.0	191.21710801124573	0.09991693496704102
42	168.2991030216217	fix_pre	0		119	40.0	2.5	blank	1.0	191.31702494621277	0.9917120933532715
42	169.2826681137085	pulse	0	t		40.0	2.5	blank	1.0	192.30059003829956	
42	169.29081511497498	movie	1		301	40.0	2.5	blank	1.0	192.30873703956604	2.5082848072052
42	170.88253712654114	pulse	1	t		40.0	2.5	blank	1.0	193.9004590511322	
42	171.79909992218018	fix_post	2		12	40.0	2.5	blank	1.0	194.81702184677124	0.09997320175170898
43	171.89907312393188	fix_pre	0		120	41.0	2.5	/experiments/AOT/AOT_stimuli/rescaled_final/0753_rv.mp4	0.0	194.91699504852295	1.0000369548797607
43	172.48254013061523	pulse	0	t		41.0	2.5	/experiments/AOT/AOT_stimuli/rescaled_final/0753_rv.mp4	0.0	195.5004620552063	
43	172.89911007881165	movie	1		244	41.0	2.5	/experiments/AOT/AOT_stimuli/rescaled_final/0753_rv.mp4	0.0	195.9170320034027	2.4999239444732666
43	174.08270406723022	pulse	1	t		41.0	2.5	/experiments/AOT/AOT_stimuli/rescaled_final/0753_rv.mp4	0.0	197.1006259918213	
43	175.3990340232849	fix_post	2		12	41.0	2.5	/experiments/AOT/AOT_stimuli/rescaled_final/0753_rv.mp4	0.0	198.41695594787598	0.09992194175720215
44	175.49895596504211	fix_pre	0		120	42.0	2.5	/experiments/AOT/AOT_stimuli/rescaled_final/2021_rv.mp4	0.0	198.51687788963318	1.0001201629638672
44	175.68247294425964	pulse	0	t		42.0	2.5	/experiments/AOT/AOT_stimuli/rescaled_final/2021_rv.mp4	0.0	198.7003948688507	
44	176.49907612800598	movie	1		244	42.0	2.5	/experiments/AOT/AOT_stimuli/rescaled_final/2021_rv.mp4	0.0	199.51699805259705	2.4999608993530273
44	177.2825129032135	pulse	1	t		42.0	2.5	/experiments/AOT/AOT_stimuli/rescaled_final/2021_rv.mp4	0.0	200.30043482780457	
44	178.8817150592804	pulse	1	t		42.0	2.5	/experiments/AOT/AOT_stimuli/rescaled_final/2021_rv.mp4	0.0	201.89963698387146	
44	178.999037027359	fix_post	2		12	42.0	2.5	/experiments/AOT/AOT_stimuli/rescaled_final/2021_rv.mp4	0.0	202.01695895195007	0.09998798370361328
45	179.09902501106262	fix_pre	0		119	43.0	2.5	/experiments/AOT/AOT_stimuli/rescaled_final/1695_rv.mp4	0.0	202.1169469356537	0.9999980926513672
45	180.099023103714	movie	1		244	43.0	2.5	/experiments/AOT/AOT_stimuli/rescaled_final/1695_rv.mp4	0.0	203.11694502830505	2.499689817428589
45	180.48228812217712	pulse	1	t		43.0	2.5	/experiments/AOT/AOT_stimuli/rescaled_final/1695_rv.mp4	0.0	203.5002100467682	
45	182.0820450782776	pulse	1	t		43.0	2.5	/experiments/AOT/AOT_stimuli/rescaled_final/1695_rv.mp4	0.0	205.09996700286865	
45	182.59871292114258	fix_post	2		12	43.0	2.5	/experiments/AOT/AOT_stimuli/rescaled_final/1695_rv.mp4	0.0	205.61663484573364	0.09995508193969727
46	182.69866800308228	fix_pre	0		119	44.0	2.5	/experiments/AOT/AOT_stimuli/rescaled_final/0451_fw.mp4	0.0	205.71658992767334	0.9923169612884521
46	183.6827700138092	pulse	0	t		44.0	2.5	/experiments/AOT/AOT_stimuli/rescaled_final/0451_fw.mp4	0.0	206.70069193840027	
46	183.69098496437073	movie	1		242	44.0	2.5	/experiments/AOT/AOT_stimuli/rescaled_final/0451_fw.mp4	0.0	206.7089068889618	2.5080111026763916
46	185.28287506103516	pulse	1	t		44.0	2.5	/experiments/AOT/AOT_stimuli/rescaled_final/0451_fw.mp4	0.0	208.30079698562622	
46	186.19899606704712	fix_post	2		12	44.0	2.5	/experiments/AOT/AOT_stimuli/rescaled_final/0451_fw.mp4	0.0	209.21691799163818	0.10001897811889648
47	186.29901504516602	fix_pre	0		120	45.0	2.5	/experiments/AOT/AOT_stimuli/rescaled_final/1498_fw.mp4	0.0	209.31693696975708	0.999971866607666
47	186.88245296478271	pulse	0	t		45.0	2.5	/experiments/AOT/AOT_stimuli/rescaled_final/1498_fw.mp4	0.0	209.90037488937378	
47	187.29898691177368	movie	1		243	45.0	2.5	/experiments/AOT/AOT_stimuli/rescaled_final/1498_fw.mp4	0.0	210.31690883636475	2.500089168548584
47	188.4825460910797	pulse	1	t		45.0	2.5	/experiments/AOT/AOT_stimuli/rescaled_final/1498_fw.mp4	0.0	211.50046801567078	
47	189.79907608032227	fix_post	2		12	45.0	2.5	/experiments/AOT/AOT_stimuli/rescaled_final/1498_fw.mp4	0.0	212.81699800491333	0.09989595413208008
48	189.89897203445435	fix_pre	0		120	46.0	2.5	/experiments/AOT/AOT_stimuli/rescaled_final/1622_fw.mp4	0.0	212.9168939590454	1.0000290870666504
48	190.08246207237244	pulse	0	t		46.0	2.5	/experiments/AOT/AOT_stimuli/rescaled_final/1622_fw.mp4	0.0	213.1003839969635	
48	190.899001121521	movie	1		243	46.0	2.5	/experiments/AOT/AOT_stimuli/rescaled_final/1622_fw.mp4	0.0	213.91692304611206	2.4998958110809326
48	191.68238997459412	pulse	1	t		46.0	2.5	/experiments/AOT/AOT_stimuli/rescaled_final/1622_fw.mp4	0.0	214.70031189918518	
48	193.28079795837402	pulse	1	t		46.0	2.5	/experiments/AOT/AOT_stimuli/rescaled_final/1622_fw.mp4	0.0	216.2987198829651	
48	193.39889693260193	fix_post	2		12	46.0	2.5	/experiments/AOT/AOT_stimuli/rescaled_final/1622_fw.mp4	0.0	216.416818857193	0.0999910831451416
49	193.49888801574707	fix_pre	0		120	47.0	2.5	/experiments/AOT/AOT_stimuli/rescaled_final/0034_rv.mp4	0.0	216.51680994033813	1.000075101852417
49	194.4989631175995	movie	1		243	47.0	2.5	/experiments/AOT/AOT_stimuli/rescaled_final/0034_rv.mp4	0.0	217.51688504219055	2.4999849796295166
49	194.8821039199829	pulse	1	t		47.0	2.5	/experiments/AOT/AOT_stimuli/rescaled_final/0034_rv.mp4	0.0	217.90002584457397	
49	196.48244190216064	pulse	1	t		47.0	2.5	/experiments/AOT/AOT_stimuli/rescaled_final/0034_rv.mp4	0.0	219.5003638267517	
49	196.998948097229	fix_post	2		12	47.0	2.5	/experiments/AOT/AOT_stimuli/rescaled_final/0034_rv.mp4	0.0	220.01687002182007	0.09998893737792969
50	197.09893703460693	fix_pre	0		119	48.0	2.5	/experiments/AOT/AOT_stimuli/rescaled_final/0869_rv.mp4	0.0	220.116858959198	0.9917678833007812
50	198.08243608474731	pulse	0	t		48.0	2.5	/experiments/AOT/AOT_stimuli/rescaled_final/0869_rv.mp4	0.0	221.10035800933838	
50	198.09070491790771	movie	1		248	48.0	2.5	/experiments/AOT/AOT_stimuli/rescaled_final/0869_rv.mp4	0.0	221.10862684249878	2.5082411766052246
50	199.68262004852295	pulse	1	t		48.0	2.5	/experiments/AOT/AOT_stimuli/rescaled_final/0869_rv.mp4	0.0	222.700541973114	
50	200.59894609451294	fix_post	2		12	48.0	2.5	/experiments/AOT/AOT_stimuli/rescaled_final/0869_rv.mp4	0.0	223.616868019104	0.09996485710144043
51	200.69891095161438	fix_pre	0		120	49.0	2.5	blank	1.0	223.71683287620544	1.0000181198120117
51	201.28238701820374	pulse	0	t		49.0	2.5	blank	1.0	224.3003089427948	
51	201.6989290714264	movie	1		300	49.0	2.5	blank	1.0	224.71685099601746	2.4999630451202393
51	202.88243913650513	pulse	1	t		49.0	2.5	blank	1.0	225.9003610610962	
51	204.19889211654663	fix_post	2		12	49.0	2.5	blank	1.0	227.2168140411377	0.10004281997680664
52	204.29893493652344	fix_pre	0		120	50.0	2.5	/experiments/AOT/AOT_stimuli/rescaled_final/1017_fw.mp4	0.0	227.3168568611145	1.0000531673431396
52	204.48241305351257	pulse	0	t		50.0	2.5	/experiments/AOT/AOT_stimuli/rescaled_final/1017_fw.mp4	0.0	227.50033497810364	
52	205.29898810386658	movie	1		244	50.0	2.5	/experiments/AOT/AOT_stimuli/rescaled_final/1017_fw.mp4	0.0	228.31691002845764	2.4999659061431885
52	206.08236813545227	pulse	1	t		50.0	2.5	/experiments/AOT/AOT_stimuli/rescaled_final/1017_fw.mp4	0.0	229.10029006004333	
52	207.68239498138428	pulse	1	t		50.0	2.5	/experiments/AOT/AOT_stimuli/rescaled_final/1017_fw.mp4	0.0	230.70031690597534	
52	207.79895401000977	fix_post	2		12	50.0	2.5	/experiments/AOT/AOT_stimuli/rescaled_final/1017_fw.mp4	0.0	230.81687593460083	0.09996294975280762
53	207.89891695976257	fix_pre	0		120	51.0	2.5	/experiments/AOT/AOT_stimuli/rescaled_final/2045_rv.mp4	0.0	230.91683888435364	1.0000920295715332
53	208.8990089893341	movie	1		242	51.0	2.5	/experiments/AOT/AOT_stimuli/rescaled_final/2045_rv.mp4	0.0	231.91693091392517	2.499885082244873
53	209.28221797943115	pulse	1	t		51.0	2.5	/experiments/AOT/AOT_stimuli/rescaled_final/2045_rv.mp4	0.0	232.30013990402222	
53	210.8822739124298	pulse	1	t		51.0	2.5	/experiments/AOT/AOT_stimuli/rescaled_final/2045_rv.mp4	0.0	233.90019583702087	
53	211.39889407157898	fix_post	2		12	51.0	2.5	/experiments/AOT/AOT_stimuli/rescaled_final/2045_rv.mp4	0.0	234.41681599617004	0.1000218391418457
54	211.49891591072083	fix_pre	0		119	52.0	2.5	/experiments/AOT/AOT_stimuli/rescaled_final/1772_fw.mp4	0.0	234.5168378353119	0.9916009902954102
54	212.48231506347656	pulse	0	t		52.0	2.5	/experiments/AOT/AOT_stimuli/rescaled_final/1772_fw.mp4	0.0	235.50023698806763	
54	212.49051690101624	movie	1		244	52.0	2.5	/experiments/AOT/AOT_stimuli/rescaled_final/1772_fw.mp4	0.0	235.5084388256073	2.5084011554718018
54	214.08260893821716	pulse	1	t		52.0	2.5	/experiments/AOT/AOT_stimuli/rescaled_final/1772_fw.mp4	0.0	237.10053086280823	
54	214.99891805648804	fix_post	2		12	52.0	2.5	/experiments/AOT/AOT_stimuli/rescaled_final/1772_fw.mp4	0.0	238.0168399810791	0.09993600845336914
55	215.0988540649414	fix_pre	0		120	53.0	2.5	/experiments/AOT/AOT_stimuli/rescaled_final/0970_fw.mp4	0.0	238.11677598953247	1.0000848770141602
55	215.68239903450012	pulse	0	t		53.0	2.5	/experiments/AOT/AOT_stimuli/rescaled_final/0970_fw.mp4	0.0	238.7003209590912	
55	216.09893894195557	movie	1		242	53.0	2.5	/experiments/AOT/AOT_stimuli/rescaled_final/0970_fw.mp4	0.0	239.11686086654663	2.499843120574951
55	217.2824001312256	pulse	1	t		53.0	2.5	/experiments/AOT/AOT_stimuli/rescaled_final/0970_fw.mp4	0.0	240.30032205581665	
55	218.59878206253052	fix_post	2		12	53.0	2.5	/experiments/AOT/AOT_stimuli/rescaled_final/0970_fw.mp4	0.0	241.61670398712158	0.10007190704345703
56	218.69885396957397	fix_pre	0		120	54.0	2.5	blank	1.0	241.71677589416504	0.9999229907989502
56	218.88225293159485	pulse	0	t		54.0	2.5	blank	1.0	241.9001748561859	
56	219.69877696037292	movie	1		300	54.0	2.5	blank	1.0	242.716698884964	2.5000720024108887
56	220.48237109184265	pulse	1	t		54.0	2.5	blank	1.0	243.50029301643372	
56	222.0823380947113	pulse	1	t		54.0	2.5	blank	1.0	245.10026001930237	
56	222.1988489627838	fix_post	2		12	54.0	2.5	blank	1.0	245.21677088737488	0.09995198249816895
57	222.29880094528198	fix_pre	0		120	55.0	2.5	/experiments/AOT/AOT_stimuli/rescaled_final/1445_rv.mp4	0.0	245.31672286987305	1.000014066696167
57	223.29881501197815	movie	1		244	55.0	2.5	/experiments/AOT/AOT_stimuli/rescaled_final/1445_rv.mp4	0.0	246.3167369365692	2.4999709129333496
57	223.6820900440216	pulse	1	t		55.0	2.5	/experiments/AOT/AOT_stimuli/rescaled_final/1445_rv.mp4	0.0	246.70001196861267	
57	225.2822389602661	pulse	1	t		55.0	2.5	/experiments/AOT/AOT_stimuli/rescaled_final/1445_rv.mp4	0.0	248.30016088485718	
57	225.7987859249115	fix_post	2		12	55.0	2.5	/experiments/AOT/AOT_stimuli/rescaled_final/1445_rv.mp4	0.0	248.81670784950256	0.10006117820739746
58	225.8988471031189	fix_pre	0		119	56.0	2.5	/experiments/AOT/AOT_stimuli/rescaled_final/0245_fw.mp4	0.0	248.91676902770996	0.9915938377380371
58	226.88221311569214	pulse	0	t		56.0	2.5	/experiments/AOT/AOT_stimuli/rescaled_final/0245_fw.mp4	0.0	249.9001350402832	
58	226.89044094085693	movie	1		244	56.0	2.5	/experiments/AOT/AOT_stimuli/rescaled_final/0245_fw.mp4	0.0	249.908362865448	2.5083811283111572
58	228.48184490203857	pulse	1	t		56.0	2.5	/experiments/AOT/AOT_stimuli/rescaled_final/0245_fw.mp4	0.0	251.49976682662964	
58	229.3988220691681	fix_post	2		12	56.0	2.5	/experiments/AOT/AOT_stimuli/rescaled_final/0245_fw.mp4	0.0	252.41674399375916	0.10000801086425781
59	229.49883008003235	fix_pre	0		120	57.0	2.5	/experiments/AOT/AOT_stimuli/rescaled_final/1332_fw.mp4	0.0	252.5167520046234	0.9999499320983887
59	230.08222103118896	pulse	0	t		57.0	2.5	/experiments/AOT/AOT_stimuli/rescaled_final/1332_fw.mp4	0.0	253.10014295578003	
59	230.49878001213074	movie	1		242	57.0	2.5	/experiments/AOT/AOT_stimuli/rescaled_final/1332_fw.mp4	0.0	253.5167019367218	2.499962091445923
59	231.68225407600403	pulse	1	t		57.0	2.5	/experiments/AOT/AOT_stimuli/rescaled_final/1332_fw.mp4	0.0	254.7001760005951	
59	232.99874210357666	fix_post	2		12	57.0	2.5	/experiments/AOT/AOT_stimuli/rescaled_final/1332_fw.mp4	0.0	256.0166640281677	0.1000518798828125
60	233.09879398345947	fix_pre	0		120	58.0	2.5	/experiments/AOT/AOT_stimuli/rescaled_final/1080_fw.mp4	0.0	256.11671590805054	0.9999721050262451
60	233.28231000900269	pulse	0	t		58.0	2.5	/experiments/AOT/AOT_stimuli/rescaled_final/1080_fw.mp4	0.0	256.30023193359375	
60	234.09876608848572	movie	1		244	58.0	2.5	/experiments/AOT/AOT_stimuli/rescaled_final/1080_fw.mp4	0.0	257.1166880130768	2.4995598793029785
60	234.88246512413025	pulse	1	t		58.0	2.5	/experiments/AOT/AOT_stimuli/rescaled_final/1080_fw.mp4	0.0	257.9003870487213	
60	236.49067091941833	pulse	1	t		58.0	2.5	/experiments/AOT/AOT_stimuli/rescaled_final/1080_fw.mp4	0.0	259.5085928440094	
60	236.5983259677887	fix_post	2		12	58.0	2.5	/experiments/AOT/AOT_stimuli/rescaled_final/1080_fw.mp4	0.0	259.61624789237976	0.1004791259765625
61	236.69880509376526	fix_pre	0		120	59.0	2.5	/experiments/AOT/AOT_stimuli/rescaled_final/1017_rv.mp4	0.0	259.7167270183563	0.9995758533477783
61	237.69838094711304	movie	1		244	59.0	2.5	/experiments/AOT/AOT_stimuli/rescaled_final/1017_rv.mp4	0.0	260.7163028717041	2.5003199577331543
61	238.08316802978516	pulse	1	t		59.0	2.5	/experiments/AOT/AOT_stimuli/rescaled_final/1017_rv.mp4	0.0	261.1010899543762	
61	239.6824860572815	pulse	1	t		59.0	2.5	/experiments/AOT/AOT_stimuli/rescaled_final/1017_rv.mp4	0.0	262.70040798187256	
61	240.1987009048462	fix_post	2		12	59.0	2.5	/experiments/AOT/AOT_stimuli/rescaled_final/1017_rv.mp4	0.0	263.21662282943726	0.1000521183013916
62	240.29875302314758	fix_pre	0		119	60.0	2.5	/experiments/AOT/AOT_stimuli/rescaled_final/1458_rv.mp4	0.0	263.31667494773865	0.9917199611663818
62	241.28221607208252	pulse	0	t		60.0	2.5	/experiments/AOT/AOT_stimuli/rescaled_final/1458_rv.mp4	0.0	264.3001379966736	
62	241.29047298431396	movie	1		248	60.0	2.5	/experiments/AOT/AOT_stimuli/rescaled_final/1458_rv.mp4	0.0	264.30839490890503	2.508420944213867
62	242.88177704811096	pulse	1	t		60.0	2.5	/experiments/AOT/AOT_stimuli/rescaled_final/1458_rv.mp4	0.0	265.899698972702	
62	243.79889392852783	fix_post	2		12	60.0	2.5	/experiments/AOT/AOT_stimuli/rescaled_final/1458_rv.mp4	0.0	266.8168158531189	0.0998539924621582
63	243.89874792099	fix_pre	0		120	61.0	2.5	blank	1.0	266.91666984558105	0.9999740123748779
63	244.48223209381104	pulse	0	t		61.0	2.5	blank	1.0	267.5001540184021	
63	244.89872193336487	movie	1		300	61.0	2.5	blank	1.0	267.91664385795593	2.499998092651367
63	246.08220410346985	pulse	1	t		61.0	2.5	blank	1.0	269.1001260280609	
63	247.39872002601624	fix_post	2		12	61.0	2.5	blank	1.0	270.4166419506073	0.09995889663696289
64	247.4986789226532	fix_pre	0		120	62.0	2.5	/experiments/AOT/AOT_stimuli/rescaled_final/1608_fw.mp4	0.0	270.51660084724426	1.000025987625122
64	247.68215107917786	pulse	0	t		62.0	2.5	/experiments/AOT/AOT_stimuli/rescaled_final/1608_fw.mp4	0.0	270.7000730037689	
64	248.49870491027832	movie	1		245	62.0	2.5	/experiments/AOT/AOT_stimuli/rescaled_final/1608_fw.mp4	0.0	271.5166268348694	2.4998950958251953
64	249.28214502334595	pulse	1	t		62.0	2.5	/experiments/AOT/AOT_stimuli/rescaled_final/1608_fw.mp4	0.0	272.300066947937	
64	250.88060307502747	pulse	1	t		62.0	2.5	/experiments/AOT/AOT_stimuli/rescaled_final/1608_fw.mp4	0.0	273.89852499961853	
64	250.99860000610352	fix_post	2		12	62.0	2.5	/experiments/AOT/AOT_stimuli/rescaled_final/1608_fw.mp4	0.0	274.0165219306946	0.10001993179321289
65	251.09861993789673	fix_pre	0		120	63.0	2.5	/experiments/AOT/AOT_stimuli/rescaled_final/1048_rv.mp4	0.0	274.1165418624878	1.0000090599060059
65	252.09862899780273	movie	1		243	63.0	2.5	/experiments/AOT/AOT_stimuli/rescaled_final/1048_rv.mp4	0.0	275.1165509223938	2.500049114227295
65	252.4822700023651	pulse	1	t		63.0	2.5	/experiments/AOT/AOT_stimuli/rescaled_final/1048_rv.mp4	0.0	275.5001919269562	
65	254.08212399482727	pulse	1	t		63.0	2.5	/experiments/AOT/AOT_stimuli/rescaled_final/1048_rv.mp4	0.0	277.10004591941833	
65	254.59867811203003	fix_post	2		12	63.0	2.5	/experiments/AOT/AOT_stimuli/rescaled_final/1048_rv.mp4	0.0	277.6166000366211	0.0999448299407959
66	254.69862294197083	fix_pre	0		119	64.0	2.5	/experiments/AOT/AOT_stimuli/rescaled_final/1241_rv.mp4	0.0	277.7165448665619	0.99163818359375
66	255.68211197853088	pulse	0	t		64.0	2.5	/experiments/AOT/AOT_stimuli/rescaled_final/1241_rv.mp4	0.0	278.70003390312195	
66	255.69026112556458	movie	1		244	64.0	2.5	/experiments/AOT/AOT_stimuli/rescaled_final/1241_rv.mp4	0.0	278.70818305015564	2.5084218978881836
66	257.2815799713135	pulse	1	t		64.0	2.5	/experiments/AOT/AOT_stimuli/rescaled_final/1241_rv.mp4	0.0	280.29950189590454	
66	258.19868302345276	fix_post	2		12	64.0	2.5	/experiments/AOT/AOT_stimuli/rescaled_final/1241_rv.mp4	0.0	281.2166049480438	0.09991693496704102
67	258.2985999584198	fix_pre	0		120	65.0	2.5	/experiments/AOT/AOT_stimuli/rescaled_final/1464_rv.mp4	0.0	281.31652188301086	0.999993085861206
67	258.8820469379425	pulse	0	t		65.0	2.5	/experiments/AOT/AOT_stimuli/rescaled_final/1464_rv.mp4	0.0	281.89996886253357	
67	259.298593044281	movie	1		245	65.0	2.5	/experiments/AOT/AOT_stimuli/rescaled_final/1464_rv.mp4	0.0	282.31651496887207	2.5000250339508057
67	260.48223090171814	pulse	1	t		65.0	2.5	/experiments/AOT/AOT_stimuli/rescaled_final/1464_rv.mp4	0.0	283.5001528263092	
67	261.7986180782318	fix_post	2		12	65.0	2.5	/experiments/AOT/AOT_stimuli/rescaled_final/1464_rv.mp4	0.0	284.8165400028229	0.10006189346313477
68	261.89867997169495	fix_pre	0		120	66.0	2.5	/experiments/AOT/AOT_stimuli/rescaled_final/2044_rv.mp4	0.0	284.916601896286	0.9999561309814453
68	262.08205795288086	pulse	0	t		66.0	2.5	/experiments/AOT/AOT_stimuli/rescaled_final/2044_rv.mp4	0.0	285.0999798774719	
68	262.8986361026764	movie	1		246	66.0	2.5	/experiments/AOT/AOT_stimuli/rescaled_final/2044_rv.mp4	0.0	285.91655802726746	2.500011920928955
68	263.68207693099976	pulse	1	t		66.0	2.5	/experiments/AOT/AOT_stimuli/rescaled_final/2044_rv.mp4	0.0	286.6999988555908	
68	265.280720949173	pulse	1	t		66.0	2.5	/experiments/AOT/AOT_stimuli/rescaled_final/2044_rv.mp4	0.0	288.29864287376404	
68	265.39864802360535	fix_post	2		12	66.0	2.5	/experiments/AOT/AOT_stimuli/rescaled_final/2044_rv.mp4	0.0	288.4165699481964	0.09996795654296875
69	265.4986159801483	fix_pre	0		120	67.0	2.5	/experiments/AOT/AOT_stimuli/rescaled_final/1257_fw.mp4	0.0	288.5165379047394	0.9999980926513672
69	266.4986140727997	movie	1		246	67.0	2.5	/experiments/AOT/AOT_stimuli/rescaled_final/1257_fw.mp4	0.0	289.51653599739075	2.499997854232788
69	266.88303303718567	pulse	1	t		67.0	2.5	/experiments/AOT/AOT_stimuli/rescaled_final/1257_fw.mp4	0.0	289.90095496177673	
69	268.4819839000702	pulse	1	t		67.0	2.5	/experiments/AOT/AOT_stimuli/rescaled_final/1257_fw.mp4	0.0	291.49990582466125	
69	268.99861192703247	fix_post	2		12	67.0	2.5	/experiments/AOT/AOT_stimuli/rescaled_final/1257_fw.mp4	0.0	292.01653385162354	0.0999901294708252
70	269.0986020565033	fix_pre	0		119	68.0	2.5	/experiments/AOT/AOT_stimuli/rescaled_final/1879_rv.mp4	0.0	292.11652398109436	0.9916870594024658
70	270.0820200443268	pulse	0	t		68.0	2.5	/experiments/AOT/AOT_stimuli/rescaled_final/1879_rv.mp4	0.0	293.09994196891785	
70	270.09028911590576	movie	1		246	68.0	2.5	/experiments/AOT/AOT_stimuli/rescaled_final/1879_rv.mp4	0.0	293.1082110404968	2.5083398818969727
70	271.6818950176239	pulse	1	t		68.0	2.5	/experiments/AOT/AOT_stimuli/rescaled_final/1879_rv.mp4	0.0	294.69981694221497	
70	272.59862899780273	fix_post	2		12	68.0	2.5	/experiments/AOT/AOT_stimuli/rescaled_final/1879_rv.mp4	0.0	295.6165509223938	0.09992313385009766
71	272.69855213165283	fix_pre	0		120	69.0	2.5	/experiments/AOT/AOT_stimuli/rescaled_final/1594_fw.mp4	0.0	295.7164740562439	1.0002338886260986
71	273.28212213516235	pulse	0	t		69.0	2.5	/experiments/AOT/AOT_stimuli/rescaled_final/1594_fw.mp4	0.0	296.3000440597534	
71	273.69878602027893	movie	1		245	69.0	2.5	/experiments/AOT/AOT_stimuli/rescaled_final/1594_fw.mp4	0.0	296.71670794487	2.4997060298919678
71	274.8821039199829	pulse	1	t		69.0	2.5	/experiments/AOT/AOT_stimuli/rescaled_final/1594_fw.mp4	0.0	297.900025844574	
71	276.1984920501709	fix_post	2		12	69.0	2.5	/experiments/AOT/AOT_stimuli/rescaled_final/1594_fw.mp4	0.0	299.21641397476196	0.10008096694946289
72	276.29857301712036	fix_pre	0		120	70.0	2.5	blank	1.0	299.3164949417114	0.9998679161071777
72	276.48207807540894	pulse	0	t		70.0	2.5	blank	1.0	299.5	
72	277.29844093322754	movie	1		300	70.0	2.5	blank	1.0	300.3163628578186	2.5000710487365723
72	278.0822579860687	pulse	1	t		70.0	2.5	blank	1.0	301.1001799106598	
72	279.68207597732544	pulse	1	t		70.0	2.5	blank	1.0	302.6999979019165	
72	279.7985119819641	fix_post	2		12	70.0	2.5	blank	1.0	302.8164339065552	0.10004711151123047
73	279.89855909347534	fix_pre	0		120	71.0	2.5	/experiments/AOT/AOT_stimuli/rescaled_final/1066_fw.mp4	0.0	302.9164810180664	0.9998879432678223
73	280.89844703674316	movie	1		243	71.0	2.5	/experiments/AOT/AOT_stimuli/rescaled_final/1066_fw.mp4	0.0	303.91636896133423	2.5000760555267334
73	281.28300499916077	pulse	1	t		71.0	2.5	/experiments/AOT/AOT_stimuli/rescaled_final/1066_fw.mp4	0.0	304.30092692375183	
73	282.88204407691956	pulse	1	t		71.0	2.5	/experiments/AOT/AOT_stimuli/rescaled_final/1066_fw.mp4	0.0	305.8999660015106	
73	283.3985230922699	fix_post	2		12	71.0	2.5	/experiments/AOT/AOT_stimuli/rescaled_final/1066_fw.mp4	0.0	306.41644501686096	0.09995293617248535
74	283.4984760284424	fix_pre	0		119	72.0	2.5	/experiments/AOT/AOT_stimuli/rescaled_final/1911_fw.mp4	0.0	306.51639795303345	0.9916949272155762
74	284.4820499420166	pulse	0	t		72.0	2.5	/experiments/AOT/AOT_stimuli/rescaled_final/1911_fw.mp4	0.0	307.49997186660767	
74	284.49017095565796	movie	1		245	72.0	2.5	/experiments/AOT/AOT_stimuli/rescaled_final/1911_fw.mp4	0.0	307.508092880249	2.5083110332489014
74	286.0832509994507	pulse	1	t		72.0	2.5	/experiments/AOT/AOT_stimuli/rescaled_final/1911_fw.mp4	0.0	309.10117292404175	
74	286.99848198890686	fix_post	2		12	72.0	2.5	/experiments/AOT/AOT_stimuli/rescaled_final/1911_fw.mp4	0.0	310.0164039134979	0.10008096694946289
75	287.0985629558563	fix_pre	0		120	73.0	2.5	/experiments/AOT/AOT_stimuli/rescaled_final/1055_rv.mp4	0.0	310.1164848804474	0.9999270439147949
75	287.68194007873535	pulse	0	t		73.0	2.5	/experiments/AOT/AOT_stimuli/rescaled_final/1055_rv.mp4	0.0	310.6998620033264	
75	288.0984899997711	movie	1		243	73.0	2.5	/experiments/AOT/AOT_stimuli/rescaled_final/1055_rv.mp4	0.0	311.1164119243622	2.499933958053589
75	289.28212094306946	pulse	1	t		73.0	2.5	/experiments/AOT/AOT_stimuli/rescaled_final/1055_rv.mp4	0.0	312.3000428676605	
75	290.5984239578247	fix_post	2		12	73.0	2.5	/experiments/AOT/AOT_stimuli/rescaled_final/1055_rv.mp4	0.0	313.61634588241577	0.10012412071228027
76	290.698548078537	fix_pre	0		120	74.0	2.5	/experiments/AOT/AOT_stimuli/rescaled_final/2035_rv.mp4	0.0	313.71647000312805	0.9999480247497559
76	290.8820059299469	pulse	0	t		74.0	2.5	/experiments/AOT/AOT_stimuli/rescaled_final/2035_rv.mp4	0.0	313.89992785453796	
76	291.69849610328674	movie	1		245	74.0	2.5	/experiments/AOT/AOT_stimuli/rescaled_final/2035_rv.mp4	0.0	314.7164180278778	2.4995908737182617
76	292.481516122818	pulse	1	t		74.0	2.5	/experiments/AOT/AOT_stimuli/rescaled_final/2035_rv.mp4	0.0	315.49943804740906	
76	294.08170890808105	pulse	1	t		74.0	2.5	/experiments/AOT/AOT_stimuli/rescaled_final/2035_rv.mp4	0.0	317.0996308326721	
76	294.198086977005	fix_post	2		12	74.0	2.5	/experiments/AOT/AOT_stimuli/rescaled_final/2035_rv.mp4	0.0	317.21600890159607	0.10005807876586914
77	294.2981450557709	fix_pre	0		120	75.0	2.5	blank	1.0	317.31606698036194	1.0001099109649658
77	295.29825496673584	movie	1		300	75.0	2.5	blank	1.0	318.3161768913269	2.500211000442505
77	295.68180894851685	pulse	1	t		75.0	2.5	blank	1.0	318.6997308731079	
77	297.28196001052856	pulse	1	t		75.0	2.5	blank	1.0	320.29988193511963	
77	297.79846596717834	fix_post	2		12	75.0	2.5	blank	1.0	320.8163878917694	0.09996414184570312
78	297.89843010902405	fix_pre	0		119	76.0	2.5	/experiments/AOT/AOT_stimuli/rescaled_final/2017_fw.mp4	0.0	320.9163520336151	0.9917488098144531
78	298.8818850517273	pulse	0	t		76.0	2.5	/experiments/AOT/AOT_stimuli/rescaled_final/2017_fw.mp4	0.0	321.89980697631836	
78	298.8901789188385	movie	1		245	76.0	2.5	/experiments/AOT/AOT_stimuli/rescaled_final/2017_fw.mp4	0.0	321.90810084342957	2.508183002471924
78	300.48170495033264	pulse	1	t		76.0	2.5	/experiments/AOT/AOT_stimuli/rescaled_final/2017_fw.mp4	0.0	323.4996268749237	
78	301.3983619213104	fix_post	2		12	76.0	2.5	/experiments/AOT/AOT_stimuli/rescaled_final/2017_fw.mp4	0.0	324.4162838459015	0.1000370979309082
79	301.49839901924133	fix_pre	0		120	77.0	2.5	/experiments/AOT/AOT_stimuli/rescaled_final/2062_fw.mp4	0.0	324.5163209438324	1.0000219345092773
79	302.08195400238037	pulse	0	t		77.0	2.5	/experiments/AOT/AOT_stimuli/rescaled_final/2062_fw.mp4	0.0	325.09987592697144	
79	302.4984209537506	movie	1		244	77.0	2.5	/experiments/AOT/AOT_stimuli/rescaled_final/2062_fw.mp4	0.0	325.5163428783417	2.499614953994751
79	303.6819291114807	pulse	1	t		77.0	2.5	/experiments/AOT/AOT_stimuli/rescaled_final/2062_fw.mp4	0.0	326.6998510360718	
79	304.99803590774536	fix_post	2		12	77.0	2.5	/experiments/AOT/AOT_stimuli/rescaled_final/2062_fw.mp4	0.0	328.0159578323364	0.1003570556640625
80	305.0983929634094	fix_pre	0		120	78.0	2.5	/experiments/AOT/AOT_stimuli/rescaled_final/0226_fw.mp4	0.0	328.1163148880005	1.0000360012054443
80	305.28185296058655	pulse	0	t		78.0	2.5	/experiments/AOT/AOT_stimuli/rescaled_final/0226_fw.mp4	0.0	328.2997748851776	
80	306.09842896461487	movie	1		246	78.0	2.5	/experiments/AOT/AOT_stimuli/rescaled_final/0226_fw.mp4	0.0	329.11635088920593	2.4998979568481445
80	306.8817949295044	pulse	1	t		78.0	2.5	/experiments/AOT/AOT_stimuli/rescaled_final/0226_fw.mp4	0.0	329.89971685409546	
80	308.4902141094208	pulse	1	t		78.0	2.5	/experiments/AOT/AOT_stimuli/rescaled_final/0226_fw.mp4	0.0	331.50813603401184	
80	308.598326921463	fix_post	2		12	78.0	2.5	/experiments/AOT/AOT_stimuli/rescaled_final/0226_fw.mp4	0.0	331.6162488460541	0.09998917579650879
81	308.6983160972595	fix_pre	0		120	79.0	2.5	/experiments/AOT/AOT_stimuli/rescaled_final/0456_fw.mp4	0.0	331.7162380218506	1.0000739097595215
81	309.69839000701904	movie	1		246	79.0	2.5	/experiments/AOT/AOT_stimuli/rescaled_final/0456_fw.mp4	0.0	332.7163119316101	2.499906063079834
81	310.0816469192505	pulse	1	t		79.0	2.5	/experiments/AOT/AOT_stimuli/rescaled_final/0456_fw.mp4	0.0	333.09956884384155	
81	311.6817729473114	pulse	1	t		79.0	2.5	/experiments/AOT/AOT_stimuli/rescaled_final/0456_fw.mp4	0.0	334.69969487190247	
81	312.1982960700989	fix_post	2		12	79.0	2.5	/experiments/AOT/AOT_stimuli/rescaled_final/0456_fw.mp4	0.0	335.21621799468994	0.10007286071777344
82	312.29836893081665	fix_pre	0		119	80.0	2.5	/experiments/AOT/AOT_stimuli/rescaled_final/1528_fw.mp4	0.0	335.3162908554077	0.9916601181030273
82	313.2819199562073	pulse	0	t		80.0	2.5	/experiments/AOT/AOT_stimuli/rescaled_final/1528_fw.mp4	0.0	336.29984188079834	
82	313.2900290489197	movie	1		250	80.0	2.5	/experiments/AOT/AOT_stimuli/rescaled_final/1528_fw.mp4	0.0	336.30795097351074	2.5083539485931396
82	314.88121795654297	pulse	1	t		80.0	2.5	/experiments/AOT/AOT_stimuli/rescaled_final/1528_fw.mp4	0.0	337.89913988113403	
82	315.7983829975128	fix_post	2		12	80.0	2.5	/experiments/AOT/AOT_stimuli/rescaled_final/1528_fw.mp4	0.0	338.8163049221039	0.09987807273864746
83	315.89826107025146	fix_pre	0		120	81.0	2.5	/experiments/AOT/AOT_stimuli/rescaled_final/1348_fw.mp4	0.0	338.91618299484253	1.0000419616699219
83	316.4818630218506	pulse	0	t		81.0	2.5	/experiments/AOT/AOT_stimuli/rescaled_final/1348_fw.mp4	0.0	339.49978494644165	
83	316.8983030319214	movie	1		244	81.0	2.5	/experiments/AOT/AOT_stimuli/rescaled_final/1348_fw.mp4	0.0	339.91622495651245	2.499980926513672
83	318.0819311141968	pulse	1	t		81.0	2.5	/experiments/AOT/AOT_stimuli/rescaled_final/1348_fw.mp4	0.0	341.09985303878784	
83	319.39828395843506	fix_post	2		12	81.0	2.5	/experiments/AOT/AOT_stimuli/rescaled_final/1348_fw.mp4	0.0	342.4162058830261	0.10004615783691406
84	319.498330116272	fix_pre	0		120	82.0	2.5	blank	1.0	342.51625204086304	0.9998908042907715
84	319.68189001083374	pulse	0	t		82.0	2.5	blank	1.0	342.6998119354248	
84	320.49822092056274	movie	1		300	82.0	2.5	blank	1.0	343.5161428451538	2.5000760555267334
84	321.2817919254303	pulse	1	t		82.0	2.5	blank	1.0	344.29971385002136	
84	322.88176798820496	pulse	1	t		82.0	2.5	blank	1.0	345.899689912796	
84	322.9982969760895	fix_post	2		12	82.0	2.5	blank	1.0	346.01621890068054	0.09997892379760742
85	323.0982758998871	fix_pre	0		120	83.0	2.5	/experiments/AOT/AOT_stimuli/rescaled_final/1510_fw.mp4	0.0	346.11619782447815	1.0000672340393066
85	324.0983431339264	movie	1		243	83.0	2.5	/experiments/AOT/AOT_stimuli/rescaled_final/1510_fw.mp4	0.0	347.11626505851746	2.4998908042907715
85	324.4828839302063	pulse	1	t		83.0	2.5	/experiments/AOT/AOT_stimuli/rescaled_final/1510_fw.mp4	0.0	347.50080585479736	
85	326.0818040370941	pulse	1	t		83.0	2.5	/experiments/AOT/AOT_stimuli/rescaled_final/1510_fw.mp4	0.0	349.0997259616852	
85	326.59823393821716	fix_post	2		12	83.0	2.5	/experiments/AOT/AOT_stimuli/rescaled_final/1510_fw.mp4	0.0	349.6161558628082	0.10008811950683594
87	326.698322057724	stim	0		1716					349.71624398231506	14.299913883209229
87	327.6818311214447	pulse	0	t						350.69975304603577	
87	329.2817449569702	pulse	0	t						352.2996668815613	
87	330.881737947464	pulse	0	t						353.89965987205505	
87	332.48174691200256	pulse	0	t						355.4996688365936	
87	334.0817301273346	pulse	0	t						357.09965205192566	
87	335.6817810535431	pulse	0	t						358.69970297813416	
87	337.28178191185	pulse	0	t						360.29970383644104	
87	338.881649017334	pulse	0	t						361.89957094192505	
87	340.481605052948	pulse	0	t						363.49952697753906	
