trial_nr	onset	event_type	phase	response	nr_frames	movie_index	movie_duration	movie_file	blank	onset_abs	duration
0	0.1499779224395752	stim	0		112					24.82389497756958	0.933758020401001
0	1.0754828453063965	response	0	space						25.7493999004364	
1	1.0837359428405762	stim	0		1977					25.75765299797058	16.47437310218811
1	17.55108404159546	pulse	0	t						42.225001096725464	
1	17.558109045028687	stim	1		1717					42.23202610015869	14.308305978775024
1	19.15059995651245	pulse	1	t						43.824517011642456	
1	20.750459909439087	pulse	1	t						45.42437696456909	
1	22.35045886039734	pulse	1	t						47.024375915527344	
1	23.950321912765503	pulse	1	t						48.62423896789551	
1	25.550457000732422	pulse	1	t						50.22437405586243	
1	27.150280952453613	pulse	1	t						51.82419800758362	
1	28.750350952148438	pulse	1	t						53.42426800727844	
1	30.350363969802856	pulse	1	t						55.02428102493286	
2	31.86641502380371	fix_pre	0		11	0.0	2.5	/experiments/AOT/AOT_stimuli/rescaled_final/0262_rv.mp4	0.0	56.540332078933716	0.09210491180419922
2	31.950422048568726	pulse	0	t		0.0	2.5	/experiments/AOT/AOT_stimuli/rescaled_final/0262_rv.mp4	0.0	56.62433910369873	
2	31.95851993560791	movie	1		245	0.0	2.5	/experiments/AOT/AOT_stimuli/rescaled_final/0262_rv.mp4	0.0	56.632436990737915	2.5078790187835693
2	33.54934787750244	pulse	1	t		0.0	2.5	/experiments/AOT/AOT_stimuli/rescaled_final/0262_rv.mp4	0.0	58.223264932632446	
2	34.46639895439148	fix_post	2		12	0.0	2.5	/experiments/AOT/AOT_stimuli/rescaled_final/0262_rv.mp4	0.0	59.140316009521484	0.10004496574401855
3	34.5664439201355	fix_pre	0		120	1.0	2.5	/experiments/AOT/AOT_stimuli/rescaled_final/0318_rv.mp4	0.0	59.2403609752655	1.000119924545288
3	35.149993896484375	pulse	0	t		1.0	2.5	/experiments/AOT/AOT_stimuli/rescaled_final/0318_rv.mp4	0.0	59.82391095161438	
3	35.566563844680786	movie	1		244	1.0	2.5	/experiments/AOT/AOT_stimuli/rescaled_final/0318_rv.mp4	0.0	60.24048089981079	2.499796152114868
3	36.750125885009766	pulse	1	t		1.0	2.5	/experiments/AOT/AOT_stimuli/rescaled_final/0318_rv.mp4	0.0	61.42404294013977	
3	38.066359996795654	fix_post	2		12	1.0	2.5	/experiments/AOT/AOT_stimuli/rescaled_final/0318_rv.mp4	0.0	62.74027705192566	0.09998083114624023
4	38.166340827941895	fix_pre	0		120	2.0	2.5	/experiments/AOT/AOT_stimuli/rescaled_final/1131_rv.mp4	0.0	62.8402578830719	1.0000622272491455
4	38.35006284713745	pulse	0	t		2.0	2.5	/experiments/AOT/AOT_stimuli/rescaled_final/1131_rv.mp4	0.0	63.023979902267456	
4	39.16640305519104	movie	1		244	2.0	2.5	/experiments/AOT/AOT_stimuli/rescaled_final/1131_rv.mp4	0.0	63.840320110321045	2.500070810317993
4	39.950345039367676	pulse	1	t		2.0	2.5	/experiments/AOT/AOT_stimuli/rescaled_final/1131_rv.mp4	0.0	64.62426209449768	
4	41.54864287376404	pulse	1	t		2.0	2.5	/experiments/AOT/AOT_stimuli/rescaled_final/1131_rv.mp4	0.0	66.22255992889404	
4	41.66647386550903	fix_post	2		12	2.0	2.5	/experiments/AOT/AOT_stimuli/rescaled_final/1131_rv.mp4	0.0	66.34039092063904	0.10033416748046875
5	41.7668080329895	fix_pre	0		120	3.0	2.5	/experiments/AOT/AOT_stimuli/rescaled_final/1936_rv.mp4	0.0	66.4407250881195	0.9995229244232178
5	42.76633095741272	movie	1		245	3.0	2.5	/experiments/AOT/AOT_stimuli/rescaled_final/1936_rv.mp4	0.0	67.44024801254272	2.5000579357147217
5	43.1497540473938	pulse	1	t		3.0	2.5	/experiments/AOT/AOT_stimuli/rescaled_final/1936_rv.mp4	0.0	67.8236711025238	
5	44.74985384941101	pulse	1	t		3.0	2.5	/experiments/AOT/AOT_stimuli/rescaled_final/1936_rv.mp4	0.0	69.42377090454102	
5	45.26638889312744	fix_post	2		12	3.0	2.5	/experiments/AOT/AOT_stimuli/rescaled_final/1936_rv.mp4	0.0	69.94030594825745	0.10053706169128418
6	45.366925954818726	fix_pre	0		119	4.0	2.5	/experiments/AOT/AOT_stimuli/rescaled_final/1634_rv.mp4	0.0	70.04084300994873	0.9915180206298828
6	46.349843978881836	pulse	0	t		4.0	2.5	/experiments/AOT/AOT_stimuli/rescaled_final/1634_rv.mp4	0.0	71.02376103401184	
6	46.35844397544861	movie	1		247	4.0	2.5	/experiments/AOT/AOT_stimuli/rescaled_final/1634_rv.mp4	0.0	71.03236103057861	2.5078189373016357
6	47.95062184333801	pulse	1	t		4.0	2.5	/experiments/AOT/AOT_stimuli/rescaled_final/1634_rv.mp4	0.0	72.62453889846802	
6	48.866262912750244	fix_post	2		12	4.0	2.5	/experiments/AOT/AOT_stimuli/rescaled_final/1634_rv.mp4	0.0	73.54017996788025	0.10004901885986328
7	48.96631193161011	fix_pre	0		120	5.0	2.5	/experiments/AOT/AOT_stimuli/rescaled_final/1416_fw.mp4	0.0	73.64022898674011	1.0004100799560547
7	49.549885988235474	pulse	0	t		5.0	2.5	/experiments/AOT/AOT_stimuli/rescaled_final/1416_fw.mp4	0.0	74.22380304336548	
7	49.96672201156616	movie	1		242	5.0	2.5	/experiments/AOT/AOT_stimuli/rescaled_final/1416_fw.mp4	0.0	74.64063906669617	2.5000569820404053
7	51.15029191970825	pulse	1	t		5.0	2.5	/experiments/AOT/AOT_stimuli/rescaled_final/1416_fw.mp4	0.0	75.82420897483826	
7	52.46677899360657	fix_post	2		12	5.0	2.5	/experiments/AOT/AOT_stimuli/rescaled_final/1416_fw.mp4	0.0	77.14069604873657	0.09950089454650879
8	52.566279888153076	fix_pre	0		120	6.0	2.5	blank	1.0	77.24019694328308	1.0000381469726562
8	52.74977993965149	pulse	0	t		6.0	2.5	blank	1.0	77.4236969947815	
8	53.56631803512573	movie	1		300	6.0	2.5	blank	1.0	78.24023509025574	2.500062942504883
8	54.34975004196167	pulse	1	t		6.0	2.5	blank	1.0	79.02366709709167	
8	55.94980192184448	pulse	1	t		6.0	2.5	blank	1.0	80.62371897697449	
8	56.066380977630615	fix_post	2		12	6.0	2.5	blank	1.0	80.74029803276062	0.10004091262817383
9	56.16642189025879	fix_pre	0		120	7.0	2.5	/experiments/AOT/AOT_stimuli/rescaled_final/0508_rv.mp4	0.0	80.8403389453888	1.0000171661376953
9	57.166439056396484	movie	1		245	7.0	2.5	/experiments/AOT/AOT_stimuli/rescaled_final/0508_rv.mp4	0.0	81.84035611152649	2.5002658367156982
9	57.55044102668762	pulse	1	t		7.0	2.5	/experiments/AOT/AOT_stimuli/rescaled_final/0508_rv.mp4	0.0	82.22435808181763	
9	59.14981985092163	pulse	1	t		7.0	2.5	/experiments/AOT/AOT_stimuli/rescaled_final/0508_rv.mp4	0.0	83.82373690605164	
9	59.66670489311218	fix_post	2		12	7.0	2.5	/experiments/AOT/AOT_stimuli/rescaled_final/0508_rv.mp4	0.0	84.34062194824219	0.10004210472106934
10	59.76674699783325	fix_pre	0		119	8.0	2.5	/experiments/AOT/AOT_stimuli/rescaled_final/1479_fw.mp4	0.0	84.44066405296326	0.9915869235992432
10	60.75028991699219	pulse	0	t		8.0	2.5	/experiments/AOT/AOT_stimuli/rescaled_final/1479_fw.mp4	0.0	85.42420697212219	
10	60.758333921432495	movie	1		243	8.0	2.5	/experiments/AOT/AOT_stimuli/rescaled_final/1479_fw.mp4	0.0	85.4322509765625	2.507956027984619
10	62.349233865737915	pulse	1	t		8.0	2.5	/experiments/AOT/AOT_stimuli/rescaled_final/1479_fw.mp4	0.0	87.02315092086792	
10	63.266289949417114	fix_post	2		12	8.0	2.5	/experiments/AOT/AOT_stimuli/rescaled_final/1479_fw.mp4	0.0	87.94020700454712	0.10003304481506348
11	63.36632299423218	fix_pre	0		120	9.0	2.5	/experiments/AOT/AOT_stimuli/rescaled_final/2031_fw.mp4	0.0	88.04024004936218	1.0003869533538818
11	63.94980788230896	pulse	0	t		9.0	2.5	/experiments/AOT/AOT_stimuli/rescaled_final/2031_fw.mp4	0.0	88.62372493743896	
11	64.36670994758606	movie	1		243	9.0	2.5	/experiments/AOT/AOT_stimuli/rescaled_final/2031_fw.mp4	0.0	89.04062700271606	2.5001718997955322
11	65.55012583732605	pulse	1	t		9.0	2.5	/experiments/AOT/AOT_stimuli/rescaled_final/2031_fw.mp4	0.0	90.22404289245605	
11	66.86688184738159	fix_post	2		12	9.0	2.5	/experiments/AOT/AOT_stimuli/rescaled_final/2031_fw.mp4	0.0	91.5407989025116	0.09856319427490234
12	66.9654450416565	fix_pre	0		120	10.0	2.5	/experiments/AOT/AOT_stimuli/rescaled_final/0318_rv.mp4	0.0	91.6393620967865	1.0001699924468994
12	67.14894986152649	pulse	0	t		10.0	2.5	/experiments/AOT/AOT_stimuli/rescaled_final/0318_rv.mp4	0.0	91.8228669166565	
12	67.9656150341034	movie	1		245	10.0	2.5	/experiments/AOT/AOT_stimuli/rescaled_final/0318_rv.mp4	0.0	92.6395320892334	2.500558853149414
12	68.74876594543457	pulse	1	t		10.0	2.5	/experiments/AOT/AOT_stimuli/rescaled_final/0318_rv.mp4	0.0	93.42268300056458	
12	70.34830689430237	pulse	1	t		10.0	2.5	/experiments/AOT/AOT_stimuli/rescaled_final/0318_rv.mp4	0.0	95.02222394943237	
12	70.46617388725281	fix_post	2		12	10.0	2.5	/experiments/AOT/AOT_stimuli/rescaled_final/0318_rv.mp4	0.0	95.14009094238281	0.100006103515625
13	70.56617999076843	fix_pre	0		120	11.0	2.5	/experiments/AOT/AOT_stimuli/rescaled_final/0464_rv.mp4	0.0	95.24009704589844	0.9991259574890137
13	71.56530594825745	movie	1		246	11.0	2.5	/experiments/AOT/AOT_stimuli/rescaled_final/0464_rv.mp4	0.0	96.23922300338745	2.499979019165039
13	71.94981384277344	pulse	1	t		11.0	2.5	/experiments/AOT/AOT_stimuli/rescaled_final/0464_rv.mp4	0.0	96.62373089790344	
13	73.54868388175964	pulse	1	t		11.0	2.5	/experiments/AOT/AOT_stimuli/rescaled_final/0464_rv.mp4	0.0	98.22260093688965	
13	74.06528496742249	fix_post	2		12	11.0	2.5	/experiments/AOT/AOT_stimuli/rescaled_final/0464_rv.mp4	0.0	98.73920202255249	0.10091996192932129
14	74.1662049293518	fix_pre	0		119	12.0	2.5	/experiments/AOT/AOT_stimuli/rescaled_final/0433_rv.mp4	0.0	98.84012198448181	0.9915909767150879
14	75.14968204498291	pulse	0	t		12.0	2.5	/experiments/AOT/AOT_stimuli/rescaled_final/0433_rv.mp4	0.0	99.82359910011292	
14	75.1577959060669	movie	1		246	12.0	2.5	/experiments/AOT/AOT_stimuli/rescaled_final/0433_rv.mp4	0.0	99.8317129611969	2.5083351135253906
14	76.74950098991394	pulse	1	t		12.0	2.5	/experiments/AOT/AOT_stimuli/rescaled_final/0433_rv.mp4	0.0	101.42341804504395	
14	77.66613101959229	fix_post	2		12	12.0	2.5	/experiments/AOT/AOT_stimuli/rescaled_final/0433_rv.mp4	0.0	102.34004807472229	0.09919285774230957
15	77.7653238773346	fix_pre	0		120	13.0	2.5	/experiments/AOT/AOT_stimuli/rescaled_final/0847_fw.mp4	0.0	102.4392409324646	0.9999430179595947
15	78.3487799167633	pulse	0	t		13.0	2.5	/experiments/AOT/AOT_stimuli/rescaled_final/0847_fw.mp4	0.0	103.02269697189331	
15	78.76526689529419	movie	1		244	13.0	2.5	/experiments/AOT/AOT_stimuli/rescaled_final/0847_fw.mp4	0.0	103.4391839504242	2.500865936279297
15	79.94956493377686	pulse	1	t		13.0	2.5	/experiments/AOT/AOT_stimuli/rescaled_final/0847_fw.mp4	0.0	104.62348198890686	
15	81.26613283157349	fix_post	2		12	13.0	2.5	/experiments/AOT/AOT_stimuli/rescaled_final/0847_fw.mp4	0.0	105.94004988670349	0.09996318817138672
16	81.36609601974487	fix_pre	0		120	14.0	2.5	blank	1.0	106.04001307487488	0.9999749660491943
16	81.54956197738647	pulse	0	t		14.0	2.5	blank	1.0	106.22347903251648	
16	82.36607098579407	movie	1		300	14.0	2.5	blank	1.0	107.03998804092407	2.4999680519104004
16	83.1486599445343	pulse	1	t		14.0	2.5	blank	1.0	107.8225769996643	
16	84.74867701530457	pulse	1	t		14.0	2.5	blank	1.0	109.42259407043457	
16	84.86603903770447	fix_post	2		12	14.0	2.5	blank	1.0	109.53995609283447	0.09918594360351562
17	84.96522498130798	fix_pre	0		120	15.0	2.5	/experiments/AOT/AOT_stimuli/rescaled_final/1678_rv.mp4	0.0	109.63914203643799	1.0000660419464111
17	85.9652910232544	movie	1		243	15.0	2.5	/experiments/AOT/AOT_stimuli/rescaled_final/1678_rv.mp4	0.0	110.6392080783844	2.5000369548797607
17	86.3484959602356	pulse	1	t		15.0	2.5	/experiments/AOT/AOT_stimuli/rescaled_final/1678_rv.mp4	0.0	111.0224130153656	
17	87.94860696792603	pulse	1	t		15.0	2.5	/experiments/AOT/AOT_stimuli/rescaled_final/1678_rv.mp4	0.0	112.62252402305603	
17	88.46532797813416	fix_post	2		12	15.0	2.5	/experiments/AOT/AOT_stimuli/rescaled_final/1678_rv.mp4	0.0	113.13924503326416	0.09993696212768555
18	88.56526494026184	fix_pre	0		119	16.0	2.5	/experiments/AOT/AOT_stimuli/rescaled_final/1327_fw.mp4	0.0	113.23918199539185	0.9926290512084961
18	89.54957890510559	pulse	0	t		16.0	2.5	/experiments/AOT/AOT_stimuli/rescaled_final/1327_fw.mp4	0.0	114.2234959602356	
18	89.55789399147034	movie	1		244	16.0	2.5	/experiments/AOT/AOT_stimuli/rescaled_final/1327_fw.mp4	0.0	114.23181104660034	2.5082600116729736
18	91.14989495277405	pulse	1	t		16.0	2.5	/experiments/AOT/AOT_stimuli/rescaled_final/1327_fw.mp4	0.0	115.82381200790405	
18	92.06615400314331	fix_post	2		12	16.0	2.5	/experiments/AOT/AOT_stimuli/rescaled_final/1327_fw.mp4	0.0	116.74007105827332	0.10036587715148926
19	92.1665198802948	fix_pre	0		120	17.0	2.5	/experiments/AOT/AOT_stimuli/rescaled_final/0438_fw.mp4	0.0	116.8404369354248	0.9999699592590332
19	92.74959301948547	pulse	0	t		17.0	2.5	/experiments/AOT/AOT_stimuli/rescaled_final/0438_fw.mp4	0.0	117.42351007461548	
19	93.16648983955383	movie	1		243	17.0	2.5	/experiments/AOT/AOT_stimuli/rescaled_final/0438_fw.mp4	0.0	117.84040689468384	2.499603033065796
19	94.34958791732788	pulse	1	t		17.0	2.5	/experiments/AOT/AOT_stimuli/rescaled_final/0438_fw.mp4	0.0	119.02350497245789	
19	95.66609287261963	fix_post	2		12	17.0	2.5	/experiments/AOT/AOT_stimuli/rescaled_final/0438_fw.mp4	0.0	120.34000992774963	0.10008502006530762
20	95.76617789268494	fix_pre	0		120	18.0	2.5	/experiments/AOT/AOT_stimuli/rescaled_final/1936_rv.mp4	0.0	120.44009494781494	0.9999589920043945
20	95.9501268863678	pulse	0	t		18.0	2.5	/experiments/AOT/AOT_stimuli/rescaled_final/1936_rv.mp4	0.0	120.6240439414978	
20	96.76613688468933	movie	1		244	18.0	2.5	/experiments/AOT/AOT_stimuli/rescaled_final/1936_rv.mp4	0.0	121.44005393981934	2.500020980834961
20	97.55016899108887	pulse	1	t		18.0	2.5	/experiments/AOT/AOT_stimuli/rescaled_final/1936_rv.mp4	0.0	122.22408604621887	
20	99.14850783348083	pulse	1	t		18.0	2.5	/experiments/AOT/AOT_stimuli/rescaled_final/1936_rv.mp4	0.0	123.82242488861084	
20	99.26615786552429	fix_post	2		12	18.0	2.5	/experiments/AOT/AOT_stimuli/rescaled_final/1936_rv.mp4	0.0	123.9400749206543	0.09999203681945801
21	99.36614990234375	fix_pre	0		120	19.0	2.5	/experiments/AOT/AOT_stimuli/rescaled_final/0978_fw.mp4	0.0	124.04006695747375	1.0003230571746826
21	100.36647295951843	movie	1		242	19.0	2.5	/experiments/AOT/AOT_stimuli/rescaled_final/0978_fw.mp4	0.0	125.04039001464844	2.5000078678131104
21	100.75120186805725	pulse	1	t		19.0	2.5	/experiments/AOT/AOT_stimuli/rescaled_final/0978_fw.mp4	0.0	125.42511892318726	
21	102.34966897964478	pulse	1	t		19.0	2.5	/experiments/AOT/AOT_stimuli/rescaled_final/0978_fw.mp4	0.0	127.02358603477478	
21	102.86648082733154	fix_post	2		12	19.0	2.5	/experiments/AOT/AOT_stimuli/rescaled_final/0978_fw.mp4	0.0	127.54039788246155	0.09988522529602051
22	102.96636605262756	fix_pre	0		119	20.0	2.5	/experiments/AOT/AOT_stimuli/rescaled_final/0079_rv.mp4	0.0	127.64028310775757	0.9919328689575195
22	103.94996905326843	pulse	0	t		20.0	2.5	/experiments/AOT/AOT_stimuli/rescaled_final/0079_rv.mp4	0.0	128.62388610839844	
22	103.95829892158508	movie	1		243	20.0	2.5	/experiments/AOT/AOT_stimuli/rescaled_final/0079_rv.mp4	0.0	128.6322159767151	2.508131980895996
22	105.55004286766052	pulse	1	t		20.0	2.5	/experiments/AOT/AOT_stimuli/rescaled_final/0079_rv.mp4	0.0	130.22395992279053	
22	106.46643090248108	fix_post	2		12	20.0	2.5	/experiments/AOT/AOT_stimuli/rescaled_final/0079_rv.mp4	0.0	131.14034795761108	0.1001739501953125
23	106.56660485267639	fix_pre	0		120	21.0	2.5	blank	1.0	131.2405219078064	0.9996500015258789
23	107.14965295791626	pulse	0	t		21.0	2.5	blank	1.0	131.82357001304626	
23	107.56625485420227	movie	1		300	21.0	2.5	blank	1.0	132.24017190933228	2.5001862049102783
23	108.74955892562866	pulse	1	t		21.0	2.5	blank	1.0	133.42347598075867	
23	110.06644105911255	fix_post	2		12	21.0	2.5	blank	1.0	134.74035811424255	0.10000181198120117
24	110.16644287109375	fix_pre	0		120	22.0	2.5	/experiments/AOT/AOT_stimuli/rescaled_final/0802_rv.mp4	0.0	134.84035992622375	1.0000200271606445
24	110.34951090812683	pulse	0	t		22.0	2.5	/experiments/AOT/AOT_stimuli/rescaled_final/0802_rv.mp4	0.0	135.02342796325684	
24	111.1664628982544	movie	1		243	22.0	2.5	/experiments/AOT/AOT_stimuli/rescaled_final/0802_rv.mp4	0.0	135.8403799533844	2.5000360012054443
24	111.94952392578125	pulse	1	t		22.0	2.5	/experiments/AOT/AOT_stimuli/rescaled_final/0802_rv.mp4	0.0	136.62344098091125	
24	113.54837584495544	pulse	1	t		22.0	2.5	/experiments/AOT/AOT_stimuli/rescaled_final/0802_rv.mp4	0.0	138.22229290008545	
24	113.66649889945984	fix_post	2		12	22.0	2.5	/experiments/AOT/AOT_stimuli/rescaled_final/0802_rv.mp4	0.0	138.34041595458984	0.09951615333557129
25	113.76601505279541	fix_pre	0		120	23.0	2.5	/experiments/AOT/AOT_stimuli/rescaled_final/2048_rv.mp4	0.0	138.43993210792542	1.0003628730773926
25	114.7663779258728	movie	1		243	23.0	2.5	/experiments/AOT/AOT_stimuli/rescaled_final/2048_rv.mp4	0.0	139.4402949810028	2.499598979949951
25	115.1503758430481	pulse	1	t		23.0	2.5	/experiments/AOT/AOT_stimuli/rescaled_final/2048_rv.mp4	0.0	139.8242928981781	
25	116.74982595443726	pulse	1	t		23.0	2.5	/experiments/AOT/AOT_stimuli/rescaled_final/2048_rv.mp4	0.0	141.42374300956726	
25	117.26597690582275	fix_post	2		12	23.0	2.5	/experiments/AOT/AOT_stimuli/rescaled_final/2048_rv.mp4	0.0	141.93989396095276	0.10053110122680664
26	117.36650800704956	fix_pre	0		119	24.0	2.5	/experiments/AOT/AOT_stimuli/rescaled_final/0472_rv.mp4	0.0	142.04042506217957	0.9915428161621094
26	118.34894490242004	pulse	0	t		24.0	2.5	/experiments/AOT/AOT_stimuli/rescaled_final/0472_rv.mp4	0.0	143.02286195755005	
26	118.35805082321167	movie	1		245	24.0	2.5	/experiments/AOT/AOT_stimuli/rescaled_final/0472_rv.mp4	0.0	143.03196787834167	2.507463216781616
26	119.94992995262146	pulse	1	t		24.0	2.5	/experiments/AOT/AOT_stimuli/rescaled_final/0472_rv.mp4	0.0	144.62384700775146	
26	120.86551403999329	fix_post	2		12	24.0	2.5	/experiments/AOT/AOT_stimuli/rescaled_final/0472_rv.mp4	0.0	145.5394310951233	0.10091280937194824
27	120.96642684936523	fix_pre	0		120	25.0	2.5	/experiments/AOT/AOT_stimuli/rescaled_final/0862_rv.mp4	0.0	145.64034390449524	0.9991250038146973
27	121.548996925354	pulse	0	t		25.0	2.5	/experiments/AOT/AOT_stimuli/rescaled_final/0862_rv.mp4	0.0	146.222913980484	
27	121.96555185317993	movie	1		242	25.0	2.5	/experiments/AOT/AOT_stimuli/rescaled_final/0862_rv.mp4	0.0	146.63946890830994	2.500786066055298
27	123.1492428779602	pulse	1	t		25.0	2.5	/experiments/AOT/AOT_stimuli/rescaled_final/0862_rv.mp4	0.0	147.8231599330902	
27	124.46633791923523	fix_post	2		12	25.0	2.5	/experiments/AOT/AOT_stimuli/rescaled_final/0862_rv.mp4	0.0	149.14025497436523	0.09954595565795898
28	124.56588387489319	fix_pre	0		120	26.0	2.5	/experiments/AOT/AOT_stimuli/rescaled_final/0464_fw.mp4	0.0	149.2398009300232	0.9997179508209229
28	124.74906587600708	pulse	0	t		26.0	2.5	/experiments/AOT/AOT_stimuli/rescaled_final/0464_fw.mp4	0.0	149.42298293113708	
28	125.56560182571411	movie	1		245	26.0	2.5	/experiments/AOT/AOT_stimuli/rescaled_final/0464_fw.mp4	0.0	150.23951888084412	2.4999921321868896
28	126.34897899627686	pulse	1	t		26.0	2.5	/experiments/AOT/AOT_stimuli/rescaled_final/0464_fw.mp4	0.0	151.02289605140686	
28	127.94850087165833	pulse	1	t		26.0	2.5	/experiments/AOT/AOT_stimuli/rescaled_final/0464_fw.mp4	0.0	152.62241792678833	
28	128.065593957901	fix_post	2		12	26.0	2.5	/experiments/AOT/AOT_stimuli/rescaled_final/0464_fw.mp4	0.0	152.739511013031	0.10036993026733398
29	128.16596388816833	fix_pre	0		120	27.0	2.5	blank	1.0	152.83988094329834	0.9999649524688721
29	129.1659288406372	movie	1		300	27.0	2.5	blank	1.0	153.8398458957672	2.499965190887451
29	129.54890084266663	pulse	1	t		27.0	2.5	blank	1.0	154.22281789779663	
29	131.14891600608826	pulse	1	t		27.0	2.5	blank	1.0	155.82283306121826	
29	131.66589403152466	fix_post	2		12	27.0	2.5	blank	1.0	156.33981108665466	0.09980297088623047
30	131.7656970024109	fix_pre	0		119	28.0	2.5	/experiments/AOT/AOT_stimuli/rescaled_final/0464_rv.mp4	0.0	156.4396140575409	0.9914109706878662
30	132.7494559288025	pulse	0	t		28.0	2.5	/experiments/AOT/AOT_stimuli/rescaled_final/0464_rv.mp4	0.0	157.4233729839325	
30	132.75710797309875	movie	1		244	28.0	2.5	/experiments/AOT/AOT_stimuli/rescaled_final/0464_rv.mp4	0.0	157.43102502822876	2.508328914642334
30	134.34924697875977	pulse	1	t		28.0	2.5	/experiments/AOT/AOT_stimuli/rescaled_final/0464_rv.mp4	0.0	159.02316403388977	
30	135.2654368877411	fix_post	2		12	28.0	2.5	/experiments/AOT/AOT_stimuli/rescaled_final/0464_rv.mp4	0.0	159.9393539428711	0.09996294975280762
31	135.3653998374939	fix_pre	0		120	29.0	2.5	/experiments/AOT/AOT_stimuli/rescaled_final/0649_fw.mp4	0.0	160.0393168926239	1.0000410079956055
31	135.94884586334229	pulse	0	t		29.0	2.5	/experiments/AOT/AOT_stimuli/rescaled_final/0649_fw.mp4	0.0	160.6227629184723	
31	136.3654408454895	movie	1		244	29.0	2.5	/experiments/AOT/AOT_stimuli/rescaled_final/0649_fw.mp4	0.0	161.0393579006195	2.500375986099243
31	137.5484390258789	pulse	1	t		29.0	2.5	/experiments/AOT/AOT_stimuli/rescaled_final/0649_fw.mp4	0.0	162.2223560810089	
31	138.86581683158875	fix_post	2		12	29.0	2.5	/experiments/AOT/AOT_stimuli/rescaled_final/0649_fw.mp4	0.0	163.53973388671875	0.09968805313110352
32	138.96550488471985	fix_pre	0		120	30.0	2.5	/experiments/AOT/AOT_stimuli/rescaled_final/1747_fw.mp4	0.0	163.63942193984985	1.0004310607910156
32	139.14932489395142	pulse	0	t		30.0	2.5	/experiments/AOT/AOT_stimuli/rescaled_final/1747_fw.mp4	0.0	163.82324194908142	
32	139.96593594551086	movie	1		243	30.0	2.5	/experiments/AOT/AOT_stimuli/rescaled_final/1747_fw.mp4	0.0	164.63985300064087	2.4994900226593018
32	140.74835896492004	pulse	1	t		30.0	2.5	/experiments/AOT/AOT_stimuli/rescaled_final/1747_fw.mp4	0.0	165.42227602005005	
32	142.34686994552612	pulse	1	t		30.0	2.5	/experiments/AOT/AOT_stimuli/rescaled_final/1747_fw.mp4	0.0	167.02078700065613	
32	142.46542596817017	fix_post	2		12	30.0	2.5	/experiments/AOT/AOT_stimuli/rescaled_final/1747_fw.mp4	0.0	167.13934302330017	0.09955501556396484
33	142.56498098373413	fix_pre	0		120	31.0	2.5	/experiments/AOT/AOT_stimuli/rescaled_final/0908_fw.mp4	0.0	167.23889803886414	0.9999220371246338
33	143.56490302085876	movie	1		243	31.0	2.5	/experiments/AOT/AOT_stimuli/rescaled_final/0908_fw.mp4	0.0	168.23882007598877	2.500005006790161
33	143.9482638835907	pulse	1	t		31.0	2.5	/experiments/AOT/AOT_stimuli/rescaled_final/0908_fw.mp4	0.0	168.6221809387207	
33	145.54833793640137	pulse	1	t		31.0	2.5	/experiments/AOT/AOT_stimuli/rescaled_final/0908_fw.mp4	0.0	170.22225499153137	
33	146.06490802764893	fix_post	2		12	31.0	2.5	/experiments/AOT/AOT_stimuli/rescaled_final/0908_fw.mp4	0.0	170.73882508277893	0.10013580322265625
34	146.16504383087158	fix_pre	0		119	32.0	2.5	/experiments/AOT/AOT_stimuli/rescaled_final/1217_rv.mp4	0.0	170.8389608860016	0.9919240474700928
34	147.14931297302246	pulse	0	t		32.0	2.5	/experiments/AOT/AOT_stimuli/rescaled_final/1217_rv.mp4	0.0	171.82323002815247	
34	147.15696787834167	movie	1		245	32.0	2.5	/experiments/AOT/AOT_stimuli/rescaled_final/1217_rv.mp4	0.0	171.83088493347168	2.5088720321655273
34	148.74889492988586	pulse	1	t		32.0	2.5	/experiments/AOT/AOT_stimuli/rescaled_final/1217_rv.mp4	0.0	173.42281198501587	
34	149.6658399105072	fix_post	2		12	32.0	2.5	/experiments/AOT/AOT_stimuli/rescaled_final/1217_rv.mp4	0.0	174.3397569656372	0.09904813766479492
35	149.764888048172	fix_pre	0		120	33.0	2.5	/experiments/AOT/AOT_stimuli/rescaled_final/0962_rv.mp4	0.0	174.438805103302	1.0008089542388916
35	150.34920287132263	pulse	0	t		33.0	2.5	/experiments/AOT/AOT_stimuli/rescaled_final/0962_rv.mp4	0.0	175.02311992645264	
35	150.7656970024109	movie	1		247	33.0	2.5	/experiments/AOT/AOT_stimuli/rescaled_final/0962_rv.mp4	0.0	175.4396140575409	2.499969005584717
35	151.948410987854	pulse	1	t		33.0	2.5	/experiments/AOT/AOT_stimuli/rescaled_final/0962_rv.mp4	0.0	176.622328042984	
35	153.2656660079956	fix_post	2		12	33.0	2.5	/experiments/AOT/AOT_stimuli/rescaled_final/0962_rv.mp4	0.0	177.9395830631256	0.09912896156311035
36	153.36479496955872	fix_pre	0		120	34.0	2.5	/experiments/AOT/AOT_stimuli/rescaled_final/0362_rv.mp4	0.0	178.03871202468872	1.0000600814819336
36	153.54834294319153	pulse	0	t		34.0	2.5	/experiments/AOT/AOT_stimuli/rescaled_final/0362_rv.mp4	0.0	178.22225999832153	
36	154.36485505104065	movie	1		244	34.0	2.5	/experiments/AOT/AOT_stimuli/rescaled_final/0362_rv.mp4	0.0	179.03877210617065	2.4999818801879883
36	155.1483278274536	pulse	1	t		34.0	2.5	/experiments/AOT/AOT_stimuli/rescaled_final/0362_rv.mp4	0.0	179.82224488258362	
36	156.74886393547058	pulse	1	t		34.0	2.5	/experiments/AOT/AOT_stimuli/rescaled_final/0362_rv.mp4	0.0	181.4227809906006	
36	156.86483693122864	fix_post	2		12	34.0	2.5	/experiments/AOT/AOT_stimuli/rescaled_final/0362_rv.mp4	0.0	181.53875398635864	0.10002398490905762
37	156.9648609161377	fix_pre	0		120	35.0	2.5	blank	1.0	181.6387779712677	0.9999411106109619
37	157.96480202674866	movie	1		300	35.0	2.5	blank	1.0	182.63871908187866	2.5001189708709717
37	158.34834694862366	pulse	1	t		35.0	2.5	blank	1.0	183.02226400375366	
37	159.94835090637207	pulse	1	t		35.0	2.5	blank	1.0	184.62226796150208	
37	160.46492099761963	fix_post	2		12	35.0	2.5	blank	1.0	185.13883805274963	0.0998539924621582
38	160.5647749900818	fix_pre	0		119	36.0	2.5	/experiments/AOT/AOT_stimuli/rescaled_final/1479_fw.mp4	0.0	185.2386920452118	0.9926888942718506
38	161.54832482337952	pulse	0	t		36.0	2.5	/experiments/AOT/AOT_stimuli/rescaled_final/1479_fw.mp4	0.0	186.22224187850952	
38	161.55746388435364	movie	1		246	36.0	2.5	/experiments/AOT/AOT_stimuli/rescaled_final/1479_fw.mp4	0.0	186.23138093948364	2.5073440074920654
38	163.1484739780426	pulse	1	t		36.0	2.5	/experiments/AOT/AOT_stimuli/rescaled_final/1479_fw.mp4	0.0	187.8223910331726	
38	164.0648078918457	fix_post	2		12	36.0	2.5	/experiments/AOT/AOT_stimuli/rescaled_final/1479_fw.mp4	0.0	188.7387249469757	0.10001111030578613
39	164.1648190021515	fix_pre	0		120	37.0	2.5	/experiments/AOT/AOT_stimuli/rescaled_final/0930_rv.mp4	0.0	188.8387360572815	1.0001099109649658
39	164.74831891059875	pulse	0	t		37.0	2.5	/experiments/AOT/AOT_stimuli/rescaled_final/0930_rv.mp4	0.0	189.42223596572876	
39	165.16492891311646	movie	1		243	37.0	2.5	/experiments/AOT/AOT_stimuli/rescaled_final/0930_rv.mp4	0.0	189.83884596824646	2.499804973602295
39	166.3483510017395	pulse	1	t		37.0	2.5	/experiments/AOT/AOT_stimuli/rescaled_final/0930_rv.mp4	0.0	191.0222680568695	
39	167.66473388671875	fix_post	2		12	37.0	2.5	/experiments/AOT/AOT_stimuli/rescaled_final/0930_rv.mp4	0.0	192.33865094184875	0.10004401206970215
40	167.76477789878845	fix_pre	0		120	38.0	2.5	/experiments/AOT/AOT_stimuli/rescaled_final/1945_fw.mp4	0.0	192.43869495391846	0.9999890327453613
40	167.9482400417328	pulse	0	t		38.0	2.5	/experiments/AOT/AOT_stimuli/rescaled_final/1945_fw.mp4	0.0	192.6221570968628	
40	168.7647669315338	movie	1		245	38.0	2.5	/experiments/AOT/AOT_stimuli/rescaled_final/1945_fw.mp4	0.0	193.43868398666382	2.500833034515381
40	169.54828596115112	pulse	1	t		38.0	2.5	/experiments/AOT/AOT_stimuli/rescaled_final/1945_fw.mp4	0.0	194.22220301628113	
40	171.14703392982483	pulse	1	t		38.0	2.5	/experiments/AOT/AOT_stimuli/rescaled_final/1945_fw.mp4	0.0	195.82095098495483	
40	171.2655999660492	fix_post	2		12	38.0	2.5	/experiments/AOT/AOT_stimuli/rescaled_final/1945_fw.mp4	0.0	195.9395170211792	0.0991520881652832
41	171.36475205421448	fix_pre	0		120	39.0	2.5	/experiments/AOT/AOT_stimuli/rescaled_final/1273_fw.mp4	0.0	196.03866910934448	1.0009148120880127
41	172.3656668663025	movie	1		246	39.0	2.5	/experiments/AOT/AOT_stimuli/rescaled_final/1273_fw.mp4	0.0	197.0395839214325	2.4999911785125732
41	172.74931693077087	pulse	1	t		39.0	2.5	/experiments/AOT/AOT_stimuli/rescaled_final/1273_fw.mp4	0.0	197.42323398590088	
41	174.34824299812317	pulse	1	t		39.0	2.5	/experiments/AOT/AOT_stimuli/rescaled_final/1273_fw.mp4	0.0	199.02216005325317	
41	174.86565804481506	fix_post	2		12	39.0	2.5	/experiments/AOT/AOT_stimuli/rescaled_final/1273_fw.mp4	0.0	199.53957509994507	0.09911298751831055
42	174.96477103233337	fix_pre	0		119	40.0	2.5	/experiments/AOT/AOT_stimuli/rescaled_final/0037_rv.mp4	0.0	199.63868808746338	0.9924798011779785
42	175.94827795028687	pulse	0	t		40.0	2.5	/experiments/AOT/AOT_stimuli/rescaled_final/0037_rv.mp4	0.0	200.62219500541687	
42	175.95725083351135	movie	1		248	40.0	2.5	/experiments/AOT/AOT_stimuli/rescaled_final/0037_rv.mp4	0.0	200.63116788864136	2.5077412128448486
42	177.54851698875427	pulse	1	t		40.0	2.5	/experiments/AOT/AOT_stimuli/rescaled_final/0037_rv.mp4	0.0	202.22243404388428	
42	178.4649920463562	fix_post	2		12	40.0	2.5	/experiments/AOT/AOT_stimuli/rescaled_final/0037_rv.mp4	0.0	203.1389091014862	0.09997391700744629
43	178.56496596336365	fix_pre	0		120	41.0	2.5	/experiments/AOT/AOT_stimuli/rescaled_final/1936_fw.mp4	0.0	203.23888301849365	1.000319004058838
43	179.14942288398743	pulse	0	t		41.0	2.5	/experiments/AOT/AOT_stimuli/rescaled_final/1936_fw.mp4	0.0	203.82333993911743	
43	179.56528496742249	movie	1		245	41.0	2.5	/experiments/AOT/AOT_stimuli/rescaled_final/1936_fw.mp4	0.0	204.2392020225525	2.5004169940948486
43	180.74832391738892	pulse	1	t		41.0	2.5	/experiments/AOT/AOT_stimuli/rescaled_final/1936_fw.mp4	0.0	205.42224097251892	
43	182.06570196151733	fix_post	2		12	41.0	2.5	/experiments/AOT/AOT_stimuli/rescaled_final/1936_fw.mp4	0.0	206.73961901664734	0.09898495674133301
44	182.16468691825867	fix_pre	0		120	42.0	2.5	blank	1.0	206.83860397338867	1.0000779628753662
44	182.34820199012756	pulse	0	t		42.0	2.5	blank	1.0	207.02211904525757	
44	183.16476488113403	movie	1		300	42.0	2.5	blank	1.0	207.83868193626404	2.499981164932251
44	183.94822597503662	pulse	1	t		42.0	2.5	blank	1.0	208.62214303016663	
44	185.54822993278503	pulse	1	t		42.0	2.5	blank	1.0	210.22214698791504	
44	185.66474604606628	fix_post	2		12	42.0	2.5	blank	1.0	210.3386631011963	0.10111689567565918
45	185.76586294174194	fix_pre	0		120	43.0	2.5	/experiments/AOT/AOT_stimuli/rescaled_final/0083_fw.mp4	0.0	210.43977999687195	0.9998090267181396
45	186.76567196846008	movie	1		242	43.0	2.5	/experiments/AOT/AOT_stimuli/rescaled_final/0083_fw.mp4	0.0	211.4395890235901	2.500493049621582
45	187.14857697486877	pulse	1	t		43.0	2.5	/experiments/AOT/AOT_stimuli/rescaled_final/0083_fw.mp4	0.0	211.82249402999878	
45	188.74958896636963	pulse	1	t		43.0	2.5	/experiments/AOT/AOT_stimuli/rescaled_final/0083_fw.mp4	0.0	213.42350602149963	
45	189.26616501808167	fix_post	2		12	43.0	2.5	/experiments/AOT/AOT_stimuli/rescaled_final/0083_fw.mp4	0.0	213.94008207321167	0.09949398040771484
46	189.36565899848938	fix_pre	0		119	44.0	2.5	/experiments/AOT/AOT_stimuli/rescaled_final/0325_fw.mp4	0.0	214.03957605361938	0.9916670322418213
46	190.34913396835327	pulse	0	t		44.0	2.5	/experiments/AOT/AOT_stimuli/rescaled_final/0325_fw.mp4	0.0	215.02305102348328	
46	190.3573260307312	movie	1		243	44.0	2.5	/experiments/AOT/AOT_stimuli/rescaled_final/0325_fw.mp4	0.0	215.0312430858612	2.50870680809021
46	191.9489769935608	pulse	1	t		44.0	2.5	/experiments/AOT/AOT_stimuli/rescaled_final/0325_fw.mp4	0.0	216.6228940486908	
46	192.8660328388214	fix_post	2		12	44.0	2.5	/experiments/AOT/AOT_stimuli/rescaled_final/0325_fw.mp4	0.0	217.53994989395142	0.10002017021179199
47	192.9660530090332	fix_pre	0		120	45.0	2.5	/experiments/AOT/AOT_stimuli/rescaled_final/0395_fw.mp4	0.0	217.6399700641632	0.9995419979095459
47	193.54909586906433	pulse	0	t		45.0	2.5	/experiments/AOT/AOT_stimuli/rescaled_final/0395_fw.mp4	0.0	218.22301292419434	
47	193.96559500694275	movie	1		245	45.0	2.5	/experiments/AOT/AOT_stimuli/rescaled_final/0395_fw.mp4	0.0	218.63951206207275	2.500030040740967
47	195.1495590209961	pulse	1	t		45.0	2.5	/experiments/AOT/AOT_stimuli/rescaled_final/0395_fw.mp4	0.0	219.8234760761261	
47	196.46562504768372	fix_post	2		12	45.0	2.5	/experiments/AOT/AOT_stimuli/rescaled_final/0395_fw.mp4	0.0	221.13954210281372	0.10038900375366211
48	196.56601405143738	fix_pre	0		120	46.0	2.5	/experiments/AOT/AOT_stimuli/rescaled_final/1934_rv.mp4	0.0	221.23993110656738	1.0000197887420654
48	196.74945998191833	pulse	0	t		46.0	2.5	/experiments/AOT/AOT_stimuli/rescaled_final/1934_rv.mp4	0.0	221.42337703704834	
48	197.56603384017944	movie	1		242	46.0	2.5	/experiments/AOT/AOT_stimuli/rescaled_final/1934_rv.mp4	0.0	222.23995089530945	2.4996020793914795
48	198.3495569229126	pulse	1	t		46.0	2.5	/experiments/AOT/AOT_stimuli/rescaled_final/1934_rv.mp4	0.0	223.0234739780426	
48	199.94830298423767	pulse	1	t		46.0	2.5	/experiments/AOT/AOT_stimuli/rescaled_final/1934_rv.mp4	0.0	224.62222003936768	
48	200.06563591957092	fix_post	2		12	46.0	2.5	/experiments/AOT/AOT_stimuli/rescaled_final/1934_rv.mp4	0.0	224.73955297470093	0.10000991821289062
49	200.1656458377838	fix_pre	0		120	47.0	2.5	blank	1.0	224.83956289291382	1.000387191772461
49	201.16603302955627	movie	1		300	47.0	2.5	blank	1.0	225.83995008468628	2.499936819076538
49	201.5492079257965	pulse	1	t		47.0	2.5	blank	1.0	226.2231249809265	
49	203.14966201782227	pulse	1	t		47.0	2.5	blank	1.0	227.82357907295227	
49	203.6659698486328	fix_post	2		12	47.0	2.5	blank	1.0	228.33988690376282	0.0995790958404541
50	203.76554894447327	fix_pre	0		119	48.0	2.5	/experiments/AOT/AOT_stimuli/rescaled_final/1678_rv.mp4	0.0	228.43946599960327	0.9916930198669434
50	204.74944686889648	pulse	0	t		48.0	2.5	/experiments/AOT/AOT_stimuli/rescaled_final/1678_rv.mp4	0.0	229.4233639240265	
50	204.7572419643402	movie	1		243	48.0	2.5	/experiments/AOT/AOT_stimuli/rescaled_final/1678_rv.mp4	0.0	229.43115901947021	2.508368968963623
50	206.34922885894775	pulse	1	t		48.0	2.5	/experiments/AOT/AOT_stimuli/rescaled_final/1678_rv.mp4	0.0	231.02314591407776	
50	207.26561093330383	fix_post	2		12	48.0	2.5	/experiments/AOT/AOT_stimuli/rescaled_final/1678_rv.mp4	0.0	231.93952798843384	0.10004997253417969
51	207.365660905838	fix_pre	0		120	49.0	2.5	/experiments/AOT/AOT_stimuli/rescaled_final/0568_rv.mp4	0.0	232.03957796096802	0.9998531341552734
51	207.94942498207092	pulse	0	t		49.0	2.5	/experiments/AOT/AOT_stimuli/rescaled_final/0568_rv.mp4	0.0	232.62334203720093	
51	208.3655140399933	movie	1		243	49.0	2.5	/experiments/AOT/AOT_stimuli/rescaled_final/0568_rv.mp4	0.0	233.0394310951233	2.500044822692871
51	209.5494420528412	pulse	1	t		49.0	2.5	/experiments/AOT/AOT_stimuli/rescaled_final/0568_rv.mp4	0.0	234.2233591079712	
51	210.86555886268616	fix_post	2		12	49.0	2.5	/experiments/AOT/AOT_stimuli/rescaled_final/0568_rv.mp4	0.0	235.53947591781616	0.10006213188171387
52	210.96562099456787	fix_pre	0		120	50.0	2.5	/experiments/AOT/AOT_stimuli/rescaled_final/0543_rv.mp4	0.0	235.63953804969788	1.0000228881835938
52	211.1494698524475	pulse	0	t		50.0	2.5	/experiments/AOT/AOT_stimuli/rescaled_final/0543_rv.mp4	0.0	235.82338690757751	
52	211.96564388275146	movie	1		243	50.0	2.5	/experiments/AOT/AOT_stimuli/rescaled_final/0543_rv.mp4	0.0	236.63956093788147	2.4999401569366455
52	212.74903297424316	pulse	1	t		50.0	2.5	/experiments/AOT/AOT_stimuli/rescaled_final/0543_rv.mp4	0.0	237.42295002937317	
52	214.34802198410034	pulse	1	t		50.0	2.5	/experiments/AOT/AOT_stimuli/rescaled_final/0543_rv.mp4	0.0	239.02193903923035	
52	214.4655840396881	fix_post	2		12	50.0	2.5	/experiments/AOT/AOT_stimuli/rescaled_final/0543_rv.mp4	0.0	239.13950109481812	0.10037088394165039
53	214.56595492362976	fix_pre	0		120	51.0	2.5	/experiments/AOT/AOT_stimuli/rescaled_final/2153_rv.mp4	0.0	239.23987197875977	0.999946117401123
53	215.56590104103088	movie	1		243	51.0	2.5	/experiments/AOT/AOT_stimuli/rescaled_final/2153_rv.mp4	0.0	240.2398180961609	2.499640941619873
53	215.94795298576355	pulse	1	t		51.0	2.5	/experiments/AOT/AOT_stimuli/rescaled_final/2153_rv.mp4	0.0	240.62187004089355	
53	217.54845905303955	pulse	1	t		51.0	2.5	/experiments/AOT/AOT_stimuli/rescaled_final/2153_rv.mp4	0.0	242.22237610816956	
53	218.06554198265076	fix_post	2		12	51.0	2.5	/experiments/AOT/AOT_stimuli/rescaled_final/2153_rv.mp4	0.0	242.73945903778076	0.09981584548950195
54	218.16535782814026	fix_pre	0		119	52.0	2.5	/experiments/AOT/AOT_stimuli/rescaled_final/2031_fw.mp4	0.0	242.83927488327026	0.9914431571960449
54	219.14945483207703	pulse	0	t		52.0	2.5	/experiments/AOT/AOT_stimuli/rescaled_final/2031_fw.mp4	0.0	243.82337188720703	
54	219.1568009853363	movie	1		245	52.0	2.5	/experiments/AOT/AOT_stimuli/rescaled_final/2031_fw.mp4	0.0	243.8307180404663	2.5090739727020264
54	220.7482979297638	pulse	1	t		52.0	2.5	/experiments/AOT/AOT_stimuli/rescaled_final/2031_fw.mp4	0.0	245.4222149848938	
54	221.66587495803833	fix_post	2		12	52.0	2.5	/experiments/AOT/AOT_stimuli/rescaled_final/2031_fw.mp4	0.0	246.33979201316833	0.09907698631286621
55	221.7649519443512	fix_pre	0		120	53.0	2.5	/experiments/AOT/AOT_stimuli/rescaled_final/1015_fw.mp4	0.0	246.4388689994812	1.0000910758972168
55	222.3484070301056	pulse	0	t		53.0	2.5	/experiments/AOT/AOT_stimuli/rescaled_final/1015_fw.mp4	0.0	247.0223240852356	
55	222.7650430202484	movie	1		243	53.0	2.5	/experiments/AOT/AOT_stimuli/rescaled_final/1015_fw.mp4	0.0	247.43896007537842	2.4999518394470215
55	223.94896697998047	pulse	1	t		53.0	2.5	/experiments/AOT/AOT_stimuli/rescaled_final/1015_fw.mp4	0.0	248.62288403511047	
55	225.26499485969543	fix_post	2		12	53.0	2.5	/experiments/AOT/AOT_stimuli/rescaled_final/1015_fw.mp4	0.0	249.93891191482544	0.10005903244018555
56	225.36505389213562	fix_pre	0		120	54.0	2.5	blank	1.0	250.03897094726562	0.9998769760131836
56	225.54850602149963	pulse	0	t		54.0	2.5	blank	1.0	250.22242307662964	
56	226.3649308681488	movie	1		300	54.0	2.5	blank	1.0	251.0388479232788	2.500491142272949
56	227.14884090423584	pulse	1	t		54.0	2.5	blank	1.0	251.82275795936584	
56	228.74881196022034	pulse	1	t		54.0	2.5	blank	1.0	253.42272901535034	
56	228.86542201042175	fix_post	2		12	54.0	2.5	blank	1.0	253.53933906555176	0.09947991371154785
57	228.9649019241333	fix_pre	0		120	55.0	2.5	/experiments/AOT/AOT_stimuli/rescaled_final/0353_rv.mp4	0.0	253.6388189792633	1.0000240802764893
57	229.9649260044098	movie	1		245	55.0	2.5	/experiments/AOT/AOT_stimuli/rescaled_final/0353_rv.mp4	0.0	254.6388430595398	2.5000648498535156
57	230.34845805168152	pulse	1	t		55.0	2.5	/experiments/AOT/AOT_stimuli/rescaled_final/0353_rv.mp4	0.0	255.02237510681152	
57	231.94829487800598	pulse	1	t		55.0	2.5	/experiments/AOT/AOT_stimuli/rescaled_final/0353_rv.mp4	0.0	256.622211933136	
57	232.4649908542633	fix_post	2		12	55.0	2.5	/experiments/AOT/AOT_stimuli/rescaled_final/0353_rv.mp4	0.0	257.1389079093933	0.10001897811889648
58	232.5650098323822	fix_pre	0		119	56.0	2.5	/experiments/AOT/AOT_stimuli/rescaled_final/2108_rv.mp4	0.0	257.2389268875122	0.992027997970581
58	233.5488178730011	pulse	0	t		56.0	2.5	/experiments/AOT/AOT_stimuli/rescaled_final/2108_rv.mp4	0.0	258.2227349281311	
58	233.55703783035278	movie	1		246	56.0	2.5	/experiments/AOT/AOT_stimuli/rescaled_final/2108_rv.mp4	0.0	258.2309548854828	2.5083200931549072
58	235.1485559940338	pulse	1	t		56.0	2.5	/experiments/AOT/AOT_stimuli/rescaled_final/2108_rv.mp4	0.0	259.8224730491638	
58	236.0653579235077	fix_post	2		12	56.0	2.5	/experiments/AOT/AOT_stimuli/rescaled_final/2108_rv.mp4	0.0	260.7392749786377	0.09995412826538086
59	236.16531205177307	fix_pre	0		120	57.0	2.5	/experiments/AOT/AOT_stimuli/rescaled_final/0079_fw.mp4	0.0	260.8392291069031	1.000067949295044
59	236.74910593032837	pulse	0	t		57.0	2.5	/experiments/AOT/AOT_stimuli/rescaled_final/0079_fw.mp4	0.0	261.4230229854584	
59	237.16538000106812	movie	1		244	57.0	2.5	/experiments/AOT/AOT_stimuli/rescaled_final/0079_fw.mp4	0.0	261.8392970561981	2.4991040229797363
59	238.34803986549377	pulse	1	t		57.0	2.5	/experiments/AOT/AOT_stimuli/rescaled_final/0079_fw.mp4	0.0	263.0219569206238	
59	239.66448402404785	fix_post	2		12	57.0	2.5	/experiments/AOT/AOT_stimuli/rescaled_final/0079_fw.mp4	0.0	264.33840107917786	0.10081982612609863
60	239.76530385017395	fix_pre	0		118	58.0	2.5	/experiments/AOT/AOT_stimuli/rescaled_final/1596_fw.mp4	0.0	264.43922090530396	1.0001389980316162
60	239.94894790649414	pulse	0	t		58.0	2.5	/experiments/AOT/AOT_stimuli/rescaled_final/1596_fw.mp4	0.0	264.62286496162415	
60	240.76544284820557	movie	1		244	58.0	2.5	/experiments/AOT/AOT_stimuli/rescaled_final/1596_fw.mp4	0.0	265.43935990333557	2.5000481605529785
60	241.54928493499756	pulse	1	t		58.0	2.5	/experiments/AOT/AOT_stimuli/rescaled_final/1596_fw.mp4	0.0	266.22320199012756	
60	243.1477198600769	pulse	1	t		58.0	2.5	/experiments/AOT/AOT_stimuli/rescaled_final/1596_fw.mp4	0.0	267.8216369152069	
60	243.26549100875854	fix_post	2		12	58.0	2.5	/experiments/AOT/AOT_stimuli/rescaled_final/1596_fw.mp4	0.0	267.93940806388855	0.10038590431213379
61	243.36587691307068	fix_pre	0		120	59.0	2.5	/experiments/AOT/AOT_stimuli/rescaled_final/0425_rv.mp4	0.0	268.0397939682007	1.00022292137146
61	244.36609983444214	movie	1		243	59.0	2.5	/experiments/AOT/AOT_stimuli/rescaled_final/0425_rv.mp4	0.0	269.04001688957214	2.4993832111358643
61	244.74910688400269	pulse	1	t		59.0	2.5	/experiments/AOT/AOT_stimuli/rescaled_final/0425_rv.mp4	0.0	269.4230239391327	
61	246.34880089759827	pulse	1	t		59.0	2.5	/experiments/AOT/AOT_stimuli/rescaled_final/0425_rv.mp4	0.0	271.02271795272827	
61	246.865483045578	fix_post	2		12	59.0	2.5	/experiments/AOT/AOT_stimuli/rescaled_final/0425_rv.mp4	0.0	271.539400100708	0.09990191459655762
62	246.96538496017456	fix_pre	0		119	60.0	2.5	/experiments/AOT/AOT_stimuli/rescaled_final/1148_fw.mp4	0.0	271.63930201530457	0.9920570850372314
62	247.9492118358612	pulse	0	t		60.0	2.5	/experiments/AOT/AOT_stimuli/rescaled_final/1148_fw.mp4	0.0	272.6231288909912	
62	247.9574420452118	movie	1		243	60.0	2.5	/experiments/AOT/AOT_stimuli/rescaled_final/1148_fw.mp4	0.0	272.6313591003418	2.5080349445343018
62	249.54876804351807	pulse	1	t		60.0	2.5	/experiments/AOT/AOT_stimuli/rescaled_final/1148_fw.mp4	0.0	274.22268509864807	
62	250.4654769897461	fix_post	2		12	60.0	2.5	/experiments/AOT/AOT_stimuli/rescaled_final/1148_fw.mp4	0.0	275.1393940448761	0.09984087944030762
63	250.5653178691864	fix_pre	0		120	61.0	2.5	/experiments/AOT/AOT_stimuli/rescaled_final/1400_fw.mp4	0.0	275.2392349243164	0.9999849796295166
63	251.14878797531128	pulse	0	t		61.0	2.5	/experiments/AOT/AOT_stimuli/rescaled_final/1400_fw.mp4	0.0	275.8227050304413	
63	251.56530284881592	movie	1		245	61.0	2.5	/experiments/AOT/AOT_stimuli/rescaled_final/1400_fw.mp4	0.0	276.2392199039459	2.4999730587005615
63	252.74934887886047	pulse	1	t		61.0	2.5	/experiments/AOT/AOT_stimuli/rescaled_final/1400_fw.mp4	0.0	277.4232659339905	
63	254.06527590751648	fix_post	2		12	61.0	2.5	/experiments/AOT/AOT_stimuli/rescaled_final/1400_fw.mp4	0.0	278.7391929626465	0.1002039909362793
64	254.16547989845276	fix_pre	0		120	62.0	2.5	blank	1.0	278.83939695358276	1.00028395652771
64	254.34886598587036	pulse	0	t		62.0	2.5	blank	1.0	279.02278304100037	
64	255.16576385498047	movie	1		300	62.0	2.5	blank	1.0	279.8396809101105	2.4994800090789795
64	255.94898891448975	pulse	1	t		62.0	2.5	blank	1.0	280.62290596961975	
64	257.5488500595093	pulse	1	t		62.0	2.5	blank	1.0	282.2227671146393	
64	257.66524386405945	fix_post	2		12	62.0	2.5	blank	1.0	282.33916091918945	0.10012698173522949
65	257.7653708457947	fix_pre	0		120	63.0	2.5	/experiments/AOT/AOT_stimuli/rescaled_final/1198_rv.mp4	0.0	282.4392879009247	1.0000050067901611
65	258.76537585258484	movie	1		243	63.0	2.5	/experiments/AOT/AOT_stimuli/rescaled_final/1198_rv.mp4	0.0	283.43929290771484	2.4999279975891113
65	259.14898705482483	pulse	1	t		63.0	2.5	/experiments/AOT/AOT_stimuli/rescaled_final/1198_rv.mp4	0.0	283.82290410995483	
65	260.74925804138184	pulse	1	t		63.0	2.5	/experiments/AOT/AOT_stimuli/rescaled_final/1198_rv.mp4	0.0	285.42317509651184	
65	261.26530385017395	fix_post	2		12	63.0	2.5	/experiments/AOT/AOT_stimuli/rescaled_final/1198_rv.mp4	0.0	285.93922090530396	0.10044002532958984
66	261.36574387550354	fix_pre	0		119	64.0	2.5	/experiments/AOT/AOT_stimuli/rescaled_final/0973_rv.mp4	0.0	286.03966093063354	0.9912080764770508
66	262.3491790294647	pulse	0	t		64.0	2.5	/experiments/AOT/AOT_stimuli/rescaled_final/0973_rv.mp4	0.0	287.0230960845947	
66	262.3569519519806	movie	1		245	64.0	2.5	/experiments/AOT/AOT_stimuli/rescaled_final/0973_rv.mp4	0.0	287.0308690071106	2.5083858966827393
66	263.9500558376312	pulse	1	t		64.0	2.5	/experiments/AOT/AOT_stimuli/rescaled_final/0973_rv.mp4	0.0	288.62397289276123	
66	264.86533784866333	fix_post	2		12	64.0	2.5	/experiments/AOT/AOT_stimuli/rescaled_final/0973_rv.mp4	0.0	289.53925490379333	0.09992313385009766
67	264.9652609825134	fix_pre	0		120	65.0	2.5	/experiments/AOT/AOT_stimuli/rescaled_final/1282_fw.mp4	0.0	289.63917803764343	1.0000569820404053
67	265.5488040447235	pulse	0	t		65.0	2.5	/experiments/AOT/AOT_stimuli/rescaled_final/1282_fw.mp4	0.0	290.2227210998535	
67	265.96531796455383	movie	1		243	65.0	2.5	/experiments/AOT/AOT_stimuli/rescaled_final/1282_fw.mp4	0.0	290.63923501968384	2.5003650188446045
67	267.1488039493561	pulse	1	t		65.0	2.5	/experiments/AOT/AOT_stimuli/rescaled_final/1282_fw.mp4	0.0	291.8227210044861	
67	268.46568298339844	fix_post	2		12	65.0	2.5	/experiments/AOT/AOT_stimuli/rescaled_final/1282_fw.mp4	0.0	293.13960003852844	0.09966707229614258
68	268.5653500556946	fix_pre	0		120	66.0	2.5	/experiments/AOT/AOT_stimuli/rescaled_final/0731_fw.mp4	0.0	293.2392671108246	1.000436782836914
68	268.74910283088684	pulse	0	t		66.0	2.5	/experiments/AOT/AOT_stimuli/rescaled_final/0731_fw.mp4	0.0	293.42301988601685	
68	269.5657868385315	movie	1		245	66.0	2.5	/experiments/AOT/AOT_stimuli/rescaled_final/0731_fw.mp4	0.0	294.2397038936615	2.4994430541992188
68	270.34871006011963	pulse	1	t		66.0	2.5	/experiments/AOT/AOT_stimuli/rescaled_final/0731_fw.mp4	0.0	295.02262711524963	
68	271.9491639137268	pulse	1	t		66.0	2.5	/experiments/AOT/AOT_stimuli/rescaled_final/0731_fw.mp4	0.0	296.6230809688568	
68	272.0652298927307	fix_post	2		12	66.0	2.5	/experiments/AOT/AOT_stimuli/rescaled_final/0731_fw.mp4	0.0	296.7391469478607	0.10026812553405762
69	272.16549801826477	fix_pre	0		120	67.0	2.5	/experiments/AOT/AOT_stimuli/rescaled_final/0740_fw.mp4	0.0	296.8394150733948	0.9997899532318115
69	273.1652879714966	movie	1		245	67.0	2.5	/experiments/AOT/AOT_stimuli/rescaled_final/0740_fw.mp4	0.0	297.8392050266266	2.500009059906006
69	273.54912400245667	pulse	1	t		67.0	2.5	/experiments/AOT/AOT_stimuli/rescaled_final/0740_fw.mp4	0.0	298.22304105758667	
69	275.1491129398346	pulse	1	t		67.0	2.5	/experiments/AOT/AOT_stimuli/rescaled_final/0740_fw.mp4	0.0	299.8230299949646	
69	275.6652970314026	fix_post	2		12	67.0	2.5	/experiments/AOT/AOT_stimuli/rescaled_final/0740_fw.mp4	0.0	300.3392140865326	0.0999298095703125
70	275.7652268409729	fix_pre	0		119	68.0	2.5	/experiments/AOT/AOT_stimuli/rescaled_final/1239_fw.mp4	0.0	300.4391438961029	0.9920492172241211
70	276.74909591674805	pulse	0	t		68.0	2.5	/experiments/AOT/AOT_stimuli/rescaled_final/1239_fw.mp4	0.0	301.42301297187805	
70	276.757276058197	movie	1		245	68.0	2.5	/experiments/AOT/AOT_stimuli/rescaled_final/1239_fw.mp4	0.0	301.431193113327	2.5081288814544678
70	278.34985303878784	pulse	1	t		68.0	2.5	/experiments/AOT/AOT_stimuli/rescaled_final/1239_fw.mp4	0.0	303.02377009391785	
70	279.2654049396515	fix_post	2		12	68.0	2.5	/experiments/AOT/AOT_stimuli/rescaled_final/1239_fw.mp4	0.0	303.9393219947815	0.0997459888458252
71	279.3651509284973	fix_pre	0		120	69.0	2.5	/experiments/AOT/AOT_stimuli/rescaled_final/0529_fw.mp4	0.0	304.0390679836273	1.0000360012054443
71	279.94881296157837	pulse	0	t		69.0	2.5	/experiments/AOT/AOT_stimuli/rescaled_final/0529_fw.mp4	0.0	304.6227300167084	
71	280.36518692970276	movie	1		243	69.0	2.5	/experiments/AOT/AOT_stimuli/rescaled_final/0529_fw.mp4	0.0	305.03910398483276	2.5004310607910156
71	281.54857182502747	pulse	1	t		69.0	2.5	/experiments/AOT/AOT_stimuli/rescaled_final/0529_fw.mp4	0.0	306.22248888015747	
71	282.8656179904938	fix_post	2		12	69.0	2.5	/experiments/AOT/AOT_stimuli/rescaled_final/0529_fw.mp4	0.0	307.5395350456238	0.0995628833770752
72	282.96518087387085	fix_pre	0		120	70.0	2.5	blank	1.0	307.63909792900085	1.0000519752502441
72	283.1490318775177	pulse	0	t		70.0	2.5	blank	1.0	307.8229489326477	
72	283.9652328491211	movie	1		300	70.0	2.5	blank	1.0	308.6391499042511	2.499920129776001
72	284.7490859031677	pulse	1	t		70.0	2.5	blank	1.0	309.42300295829773	
72	286.3490970134735	pulse	1	t		70.0	2.5	blank	1.0	311.0230140686035	
72	286.4651529788971	fix_post	2		12	70.0	2.5	blank	1.0	311.1390700340271	0.10010790824890137
73	286.565260887146	fix_pre	0		120	71.0	2.5	/experiments/AOT/AOT_stimuli/rescaled_final/1372_rv.mp4	0.0	311.239177942276	0.9999871253967285
73	287.5652480125427	movie	1		243	71.0	2.5	/experiments/AOT/AOT_stimuli/rescaled_final/1372_rv.mp4	0.0	312.23916506767273	2.4999449253082275
73	287.94819593429565	pulse	1	t		71.0	2.5	/experiments/AOT/AOT_stimuli/rescaled_final/1372_rv.mp4	0.0	312.62211298942566	
73	289.5486948490143	pulse	1	t		71.0	2.5	/experiments/AOT/AOT_stimuli/rescaled_final/1372_rv.mp4	0.0	314.2226119041443	
73	290.06519293785095	fix_post	2		12	71.0	2.5	/experiments/AOT/AOT_stimuli/rescaled_final/1372_rv.mp4	0.0	314.73910999298096	0.10006999969482422
74	290.1652629375458	fix_pre	0		119	72.0	2.5	/experiments/AOT/AOT_stimuli/rescaled_final/2031_rv.mp4	0.0	314.8391799926758	0.9922730922698975
74	291.1493549346924	pulse	0	t		72.0	2.5	/experiments/AOT/AOT_stimuli/rescaled_final/2031_rv.mp4	0.0	315.8232719898224	
74	291.1575360298157	movie	1		245	72.0	2.5	/experiments/AOT/AOT_stimuli/rescaled_final/2031_rv.mp4	0.0	315.8314530849457	2.508059024810791
74	292.74822783470154	pulse	1	t		72.0	2.5	/experiments/AOT/AOT_stimuli/rescaled_final/2031_rv.mp4	0.0	317.42214488983154	
74	293.66559505462646	fix_post	2		12	72.0	2.5	/experiments/AOT/AOT_stimuli/rescaled_final/2031_rv.mp4	0.0	318.33951210975647	0.09992289543151855
75	293.765517950058	fix_pre	0		120	73.0	2.5	/experiments/AOT/AOT_stimuli/rescaled_final/0225_rv.mp4	0.0	318.439435005188	1.0000300407409668
75	294.3489978313446	pulse	0	t		73.0	2.5	/experiments/AOT/AOT_stimuli/rescaled_final/0225_rv.mp4	0.0	319.0229148864746	
75	294.76554799079895	movie	1		243	73.0	2.5	/experiments/AOT/AOT_stimuli/rescaled_final/0225_rv.mp4	0.0	319.43946504592896	2.499595880508423
75	295.9489679336548	pulse	1	t		73.0	2.5	/experiments/AOT/AOT_stimuli/rescaled_final/0225_rv.mp4	0.0	320.6228849887848	
75	297.2651438713074	fix_post	2		12	73.0	2.5	/experiments/AOT/AOT_stimuli/rescaled_final/0225_rv.mp4	0.0	321.9390609264374	0.10070395469665527
76	297.365847826004	fix_pre	0		120	74.0	2.5	/experiments/AOT/AOT_stimuli/rescaled_final/0786_fw.mp4	0.0	322.03976488113403	0.9993422031402588
76	297.548672914505	pulse	0	t		74.0	2.5	/experiments/AOT/AOT_stimuli/rescaled_final/0786_fw.mp4	0.0	322.222589969635	
76	298.3651900291443	movie	1		244	74.0	2.5	/experiments/AOT/AOT_stimuli/rescaled_final/0786_fw.mp4	0.0	323.0391070842743	2.5004019737243652
76	299.14859104156494	pulse	1	t		74.0	2.5	/experiments/AOT/AOT_stimuli/rescaled_final/0786_fw.mp4	0.0	323.82250809669495	
76	300.7495210170746	pulse	1	t		74.0	2.5	/experiments/AOT/AOT_stimuli/rescaled_final/0786_fw.mp4	0.0	325.4234380722046	
76	300.86559200286865	fix_post	2		12	74.0	2.5	/experiments/AOT/AOT_stimuli/rescaled_final/0786_fw.mp4	0.0	325.53950905799866	0.09996986389160156
77	300.96556186676025	fix_pre	0		120	75.0	2.5	blank	1.0	325.63947892189026	0.9999401569366455
77	301.9655020236969	movie	1		300	75.0	2.5	blank	1.0	326.6394190788269	2.4999918937683105
77	302.3490619659424	pulse	1	t		75.0	2.5	blank	1.0	327.0229790210724	
77	303.9489839076996	pulse	1	t		75.0	2.5	blank	1.0	328.6229009628296	
77	304.4654939174652	fix_post	2		12	75.0	2.5	blank	1.0	329.1394109725952	0.09952592849731445
78	304.5650198459625	fix_pre	0		119	76.0	2.5	/experiments/AOT/AOT_stimuli/rescaled_final/0525_fw.mp4	0.0	329.23893690109253	0.9920940399169922
78	305.5485289096832	pulse	0	t		76.0	2.5	/experiments/AOT/AOT_stimuli/rescaled_final/0525_fw.mp4	0.0	330.22244596481323	
78	305.5571138858795	movie	1		245	76.0	2.5	/experiments/AOT/AOT_stimuli/rescaled_final/0525_fw.mp4	0.0	330.2310309410095	2.5079240798950195
78	307.1487739086151	pulse	1	t		76.0	2.5	/experiments/AOT/AOT_stimuli/rescaled_final/0525_fw.mp4	0.0	331.8226909637451	
78	308.06503796577454	fix_post	2		12	76.0	2.5	/experiments/AOT/AOT_stimuli/rescaled_final/0525_fw.mp4	0.0	332.73895502090454	0.1004340648651123
79	308.16547203063965	fix_pre	0		120	77.0	2.5	/experiments/AOT/AOT_stimuli/rescaled_final/0060_fw.mp4	0.0	332.83938908576965	0.9996199607849121
79	308.749116897583	pulse	0	t		77.0	2.5	/experiments/AOT/AOT_stimuli/rescaled_final/0060_fw.mp4	0.0	333.423033952713	
79	309.16509199142456	movie	1		243	77.0	2.5	/experiments/AOT/AOT_stimuli/rescaled_final/0060_fw.mp4	0.0	333.83900904655457	2.4999568462371826
79	310.3491199016571	pulse	1	t		77.0	2.5	/experiments/AOT/AOT_stimuli/rescaled_final/0060_fw.mp4	0.0	335.0230369567871	
79	311.66504883766174	fix_post	2		12	77.0	2.5	/experiments/AOT/AOT_stimuli/rescaled_final/0060_fw.mp4	0.0	336.33896589279175	0.10046100616455078
80	311.7655098438263	fix_pre	0		120	78.0	2.5	/experiments/AOT/AOT_stimuli/rescaled_final/0318_fw.mp4	0.0	336.4394268989563	0.9995172023773193
80	311.9489629268646	pulse	0	t		78.0	2.5	/experiments/AOT/AOT_stimuli/rescaled_final/0318_fw.mp4	0.0	336.62287998199463	
80	312.7650270462036	movie	1		245	78.0	2.5	/experiments/AOT/AOT_stimuli/rescaled_final/0318_fw.mp4	0.0	337.4389441013336	2.500502824783325
80	313.5479838848114	pulse	1	t		78.0	2.5	/experiments/AOT/AOT_stimuli/rescaled_final/0318_fw.mp4	0.0	338.2219009399414	
80	315.1471269130707	pulse	1	t		78.0	2.5	/experiments/AOT/AOT_stimuli/rescaled_final/0318_fw.mp4	0.0	339.8210439682007	
80	315.26552987098694	fix_post	2		12	78.0	2.5	/experiments/AOT/AOT_stimuli/rescaled_final/0318_fw.mp4	0.0	339.93944692611694	0.09990596771240234
81	315.36543583869934	fix_pre	0		120	79.0	2.5	/experiments/AOT/AOT_stimuli/rescaled_final/1973_rv.mp4	0.0	340.03935289382935	0.999596118927002
81	316.36503195762634	movie	1		244	79.0	2.5	/experiments/AOT/AOT_stimuli/rescaled_final/1973_rv.mp4	0.0	341.03894901275635	2.49950909614563
81	316.7488489151001	pulse	1	t		79.0	2.5	/experiments/AOT/AOT_stimuli/rescaled_final/1973_rv.mp4	0.0	341.4227659702301	
81	318.3480398654938	pulse	1	t		79.0	2.5	/experiments/AOT/AOT_stimuli/rescaled_final/1973_rv.mp4	0.0	343.0219569206238	
81	318.864541053772	fix_post	2		12	79.0	2.5	/experiments/AOT/AOT_stimuli/rescaled_final/1973_rv.mp4	0.0	343.538458108902	0.0998997688293457
82	318.9644408226013	fix_pre	0		119	80.0	2.5	/experiments/AOT/AOT_stimuli/rescaled_final/1344_rv.mp4	0.0	343.6383578777313	0.9917211532592773
82	319.9479489326477	pulse	0	t		80.0	2.5	/experiments/AOT/AOT_stimuli/rescaled_final/1344_rv.mp4	0.0	344.6218659877777	
82	319.9561619758606	movie	1		246	80.0	2.5	/experiments/AOT/AOT_stimuli/rescaled_final/1344_rv.mp4	0.0	344.6300790309906	2.50871205329895
82	321.5479838848114	pulse	1	t		80.0	2.5	/experiments/AOT/AOT_stimuli/rescaled_final/1344_rv.mp4	0.0	346.2219009399414	
82	322.46487402915955	fix_post	2		12	80.0	2.5	/experiments/AOT/AOT_stimuli/rescaled_final/1344_rv.mp4	0.0	347.13879108428955	0.09956502914428711
83	322.56443905830383	fix_pre	0		120	81.0	2.5	/experiments/AOT/AOT_stimuli/rescaled_final/2131_rv.mp4	0.0	347.23835611343384	1.000443935394287
83	323.1479468345642	pulse	0	t		81.0	2.5	/experiments/AOT/AOT_stimuli/rescaled_final/2131_rv.mp4	0.0	347.8218638896942	
83	323.5648829936981	movie	1		245	81.0	2.5	/experiments/AOT/AOT_stimuli/rescaled_final/2131_rv.mp4	0.0	348.2388000488281	2.4995200634002686
83	324.7475469112396	pulse	1	t		81.0	2.5	/experiments/AOT/AOT_stimuli/rescaled_final/2131_rv.mp4	0.0	349.42146396636963	
83	326.0644030570984	fix_post	2		12	81.0	2.5	/experiments/AOT/AOT_stimuli/rescaled_final/2131_rv.mp4	0.0	350.7383201122284	0.10005998611450195
84	326.1644630432129	fix_pre	0		120	82.0	2.5	blank	1.0	350.8383800983429	0.9999759197235107
84	326.34795784950256	pulse	0	t		82.0	2.5	blank	1.0	351.02187490463257	
84	327.1644389629364	movie	1		300	82.0	2.5	blank	1.0	351.8383560180664	2.5004220008850098
84	327.9483389854431	pulse	1	t		82.0	2.5	blank	1.0	352.6222560405731	
84	329.5479519367218	pulse	1	t		82.0	2.5	blank	1.0	354.2218689918518	
84	329.6648609638214	fix_post	2		12	82.0	2.5	blank	1.0	354.3387780189514	0.09996294975280762
85	329.7648239135742	fix_pre	0		120	83.0	2.5	/experiments/AOT/AOT_stimuli/rescaled_final/0930_fw.mp4	0.0	354.4387409687042	1.0000901222229004
85	330.7649140357971	movie	1		244	83.0	2.5	/experiments/AOT/AOT_stimuli/rescaled_final/0930_fw.mp4	0.0	355.4388310909271	2.4996519088745117
85	331.14798498153687	pulse	1	t		83.0	2.5	/experiments/AOT/AOT_stimuli/rescaled_final/0930_fw.mp4	0.0	355.82190203666687	
85	332.74740195274353	pulse	1	t		83.0	2.5	/experiments/AOT/AOT_stimuli/rescaled_final/0930_fw.mp4	0.0	357.42131900787354	
85	333.26456594467163	fix_post	2		12	83.0	2.5	/experiments/AOT/AOT_stimuli/rescaled_final/0930_fw.mp4	0.0	357.93848299980164	0.10032296180725098
87	333.3648889064789	stim	0		1716					358.0388059616089	14.300388097763062
87	334.3479778766632	pulse	0	t						359.0218949317932	
87	335.9474730491638	pulse	0	t						360.6213901042938	
87	337.54788398742676	pulse	0	t						362.22180104255676	
87	339.1482889652252	pulse	0	t						363.8222060203552	
87	340.74738693237305	pulse	0	t						365.42130398750305	
87	342.3474268913269	pulse	0	t						367.0213439464569	
87	343.9473979473114	pulse	0	t						368.6213150024414	
87	345.54886198043823	pulse	0	t						370.22277903556824	
87	347.148640871048	pulse	0	t						371.822557926178	
