trial_nr	onset	event_type	phase	response	nr_frames	movie_index	movie_duration	movie_file	blank	onset_abs	duration
0	0.20813202857971191	stim	0		89					25.828099966049194	0.7418131828308105
0	0.9419732093811035	response	0	space						26.561941146850586	
1	0.9499452114105225	stim	0		4887					26.569913148880005	40.73947787284851
1	41.679418087005615	pulse	0	t						67.2993860244751	
1	41.68942308425903	stim	1		1716					67.30939102172852	14.302028894424438
1	43.27315711975098	pulse	1	t						68.89312505722046	
1	44.87340211868286	pulse	1	t						70.49337005615234	
1	46.47360706329346	pulse	1	t						72.09357500076294	
1	48.07379198074341	pulse	1	t						73.69375991821289	
1	49.674060106277466	pulse	1	t						75.29402804374695	
1	51.274198055267334	pulse	1	t						76.89416599273682	
1	52.87451720237732	pulse	1	t						78.4944851398468	
1	54.474730014801025	pulse	1	t						80.09469795227051	
2	55.99145197868347	fix_pre	0		11	0.0	2.5	/experiments/knapen_AOT/AOT_stimuli/rescaled_final/0934_fw.mp4	0.0	81.61141991615295	0.10015702247619629
2	56.07503914833069	pulse	0	t		0.0	2.5	/experiments/knapen_AOT/AOT_stimuli/rescaled_final/0934_fw.mp4	0.0	81.69500708580017	
2	56.09160900115967	movie	1		244	0.0	2.5	/experiments/knapen_AOT/AOT_stimuli/rescaled_final/0934_fw.mp4	0.0	81.71157693862915	2.5002729892730713
2	57.68015503883362	pulse	1	t		0.0	2.5	/experiments/knapen_AOT/AOT_stimuli/rescaled_final/0934_fw.mp4	0.0	83.3001229763031	
2	58.59188199043274	fix_post	2		12	0.0	2.5	/experiments/knapen_AOT/AOT_stimuli/rescaled_final/0934_fw.mp4	0.0	84.21184992790222	0.09997200965881348
3	58.69185400009155	fix_pre	0		120	1.0	2.5	/experiments/knapen_AOT/AOT_stimuli/rescaled_final/0492_fw.mp4	0.0	84.31182193756104	1.0001091957092285
3	59.275521993637085	pulse	0	t		1.0	2.5	/experiments/knapen_AOT/AOT_stimuli/rescaled_final/0492_fw.mp4	0.0	84.89548993110657	
3	59.69196319580078	movie	1		244	1.0	2.5	/experiments/knapen_AOT/AOT_stimuli/rescaled_final/0492_fw.mp4	0.0	85.31193113327026	2.5004069805145264
3	60.87588810920715	pulse	1	t		1.0	2.5	/experiments/knapen_AOT/AOT_stimuli/rescaled_final/0492_fw.mp4	0.0	86.49585604667664	
3	62.19237017631531	fix_post	2		12	1.0	2.5	/experiments/knapen_AOT/AOT_stimuli/rescaled_final/0492_fw.mp4	0.0	87.81233811378479	0.09998703002929688
4	62.292357206344604	fix_pre	0		120	2.0	2.5	/experiments/knapen_AOT/AOT_stimuli/rescaled_final/2147_fw.mp4	0.0	87.91232514381409	1.0001847743988037
4	62.47601103782654	pulse	0	t		2.0	2.5	/experiments/knapen_AOT/AOT_stimuli/rescaled_final/2147_fw.mp4	0.0	88.09597897529602	
4	63.29254198074341	movie	1		246	2.0	2.5	/experiments/knapen_AOT/AOT_stimuli/rescaled_final/2147_fw.mp4	0.0	88.91250991821289	2.5003621578216553
4	64.0762209892273	pulse	1	t		2.0	2.5	/experiments/knapen_AOT/AOT_stimuli/rescaled_final/2147_fw.mp4	0.0	89.69618892669678	
4	65.67649006843567	pulse	1	t		2.0	2.5	/experiments/knapen_AOT/AOT_stimuli/rescaled_final/2147_fw.mp4	0.0	91.29645800590515	
4	65.79290413856506	fix_post	2		12	2.0	2.5	/experiments/knapen_AOT/AOT_stimuli/rescaled_final/2147_fw.mp4	0.0	91.41287207603455	0.10004401206970215
5	65.89294815063477	fix_pre	0		120	3.0	2.5	/experiments/knapen_AOT/AOT_stimuli/rescaled_final/0007_rv.mp4	0.0	91.51291608810425	1.0000858306884766
5	66.89303398132324	movie	1		244	3.0	2.5	/experiments/knapen_AOT/AOT_stimuli/rescaled_final/0007_rv.mp4	0.0	92.51300191879272	2.492049217224121
5	67.27774810791016	pulse	1	t		3.0	2.5	/experiments/knapen_AOT/AOT_stimuli/rescaled_final/0007_rv.mp4	0.0	92.89771604537964	
5	68.86975502967834	pulse	1	t		3.0	2.5	/experiments/knapen_AOT/AOT_stimuli/rescaled_final/0007_rv.mp4	0.0	94.48972296714783	
5	69.38508319854736	fix_post	2		12	3.0	2.5	/experiments/knapen_AOT/AOT_stimuli/rescaled_final/0007_rv.mp4	0.0	95.00505113601685	0.10003185272216797
6	69.48511505126953	fix_pre	0		120	4.0	2.5	/experiments/knapen_AOT/AOT_stimuli/rescaled_final/0794_rv.mp4	0.0	95.10508298873901	1.0001721382141113
6	70.46978616714478	pulse	0	t		4.0	2.5	/experiments/knapen_AOT/AOT_stimuli/rescaled_final/0794_rv.mp4	0.0	96.08975410461426	
6	70.48528718948364	movie	1		247	4.0	2.5	/experiments/knapen_AOT/AOT_stimuli/rescaled_final/0794_rv.mp4	0.0	96.10525512695312	2.508678913116455
6	72.06917309761047	pulse	1	t		4.0	2.5	/experiments/knapen_AOT/AOT_stimuli/rescaled_final/0794_rv.mp4	0.0	97.68914103507996	
6	72.9939661026001	fix_post	2		12	4.0	2.5	/experiments/knapen_AOT/AOT_stimuli/rescaled_final/0794_rv.mp4	0.0	98.61393404006958	0.1000518798828125
7	73.09401798248291	fix_pre	0		120	5.0	2.5	blank	1.0	98.71398591995239	1.0001311302185059
7	73.66927218437195	pulse	0	t		5.0	2.5	blank	1.0	99.28924012184143	
7	74.09414911270142	movie	1		300	5.0	2.5	blank	1.0	99.7141170501709	2.5003550052642822
7	75.26948404312134	pulse	1	t		5.0	2.5	blank	1.0	100.88945198059082	
7	76.5945041179657	fix_post	2		12	5.0	2.5	blank	1.0	102.21447205543518	0.10002708435058594
8	76.69453120231628	fix_pre	0		120	6.0	2.5	/experiments/knapen_AOT/AOT_stimuli/rescaled_final/2117_fw.mp4	0.0	102.31449913978577	1.000133991241455
8	76.86989212036133	pulse	0	t		6.0	2.5	/experiments/knapen_AOT/AOT_stimuli/rescaled_final/2117_fw.mp4	0.0	102.48986005783081	
8	77.69466519355774	movie	1		246	6.0	2.5	/experiments/knapen_AOT/AOT_stimuli/rescaled_final/2117_fw.mp4	0.0	103.31463313102722	2.49206280708313
8	78.47004413604736	pulse	1	t		6.0	2.5	/experiments/knapen_AOT/AOT_stimuli/rescaled_final/2117_fw.mp4	0.0	104.09001207351685	
8	80.07018518447876	pulse	1	t		6.0	2.5	/experiments/knapen_AOT/AOT_stimuli/rescaled_final/2117_fw.mp4	0.0	105.69015312194824	
8	80.18672800064087	fix_post	2		13	6.0	2.5	/experiments/knapen_AOT/AOT_stimuli/rescaled_final/2117_fw.mp4	0.0	105.80669593811035	0.10834503173828125
9	80.29507303237915	fix_pre	0		119	7.0	2.5	/experiments/knapen_AOT/AOT_stimuli/rescaled_final/0142_fw.mp4	0.0	105.91504096984863	0.9918041229248047
9	81.28687715530396	movie	1		246	7.0	2.5	/experiments/knapen_AOT/AOT_stimuli/rescaled_final/0142_fw.mp4	0.0	106.90684509277344	2.500361919403076
9	81.67173314094543	pulse	1	t		7.0	2.5	/experiments/knapen_AOT/AOT_stimuli/rescaled_final/0142_fw.mp4	0.0	107.29170107841492	
9	83.2707211971283	pulse	1	t		7.0	2.5	/experiments/knapen_AOT/AOT_stimuli/rescaled_final/0142_fw.mp4	0.0	108.89068913459778	
9	83.78723907470703	fix_post	2		12	7.0	2.5	/experiments/knapen_AOT/AOT_stimuli/rescaled_final/0142_fw.mp4	0.0	109.40720701217651	0.10002303123474121
10	83.88726210594177	fix_pre	0		119	8.0	2.5	/experiments/knapen_AOT/AOT_stimuli/rescaled_final/1689_fw.mp4	0.0	109.50723004341125	0.9918389320373535
10	84.87099599838257	pulse	0	t		8.0	2.5	/experiments/knapen_AOT/AOT_stimuli/rescaled_final/1689_fw.mp4	0.0	110.49096393585205	
10	84.87910103797913	movie	1		248	8.0	2.5	/experiments/knapen_AOT/AOT_stimuli/rescaled_final/1689_fw.mp4	0.0	110.49906897544861	2.5086669921875
10	86.4724280834198	pulse	1	t		8.0	2.5	/experiments/knapen_AOT/AOT_stimuli/rescaled_final/1689_fw.mp4	0.0	112.09239602088928	
10	87.38776803016663	fix_post	2		12	8.0	2.5	/experiments/knapen_AOT/AOT_stimuli/rescaled_final/1689_fw.mp4	0.0	113.00773596763611	0.10004901885986328
11	87.48781704902649	fix_pre	0		120	9.0	2.5	/experiments/knapen_AOT/AOT_stimuli/rescaled_final/1275_fw.mp4	0.0	113.10778498649597	1.0001630783081055
11	88.07148313522339	pulse	0	t		9.0	2.5	/experiments/knapen_AOT/AOT_stimuli/rescaled_final/1275_fw.mp4	0.0	113.69145107269287	
11	88.4879801273346	movie	1		246	9.0	2.5	/experiments/knapen_AOT/AOT_stimuli/rescaled_final/1275_fw.mp4	0.0	114.10794806480408	2.500354051589966
11	89.67188906669617	pulse	1	t		9.0	2.5	/experiments/knapen_AOT/AOT_stimuli/rescaled_final/1275_fw.mp4	0.0	115.29185700416565	
11	90.98833417892456	fix_post	2		12	9.0	2.5	/experiments/knapen_AOT/AOT_stimuli/rescaled_final/1275_fw.mp4	0.0	116.60830211639404	0.10005497932434082
12	91.0883891582489	fix_pre	0		120	10.0	2.5	/experiments/knapen_AOT/AOT_stimuli/rescaled_final/1315_fw.mp4	0.0	116.70835709571838	1.0001349449157715
12	91.27189016342163	pulse	0	t		10.0	2.5	/experiments/knapen_AOT/AOT_stimuli/rescaled_final/1315_fw.mp4	0.0	116.89185810089111	
12	92.08852410316467	movie	1		245	10.0	2.5	/experiments/knapen_AOT/AOT_stimuli/rescaled_final/1315_fw.mp4	0.0	117.70849204063416	2.500324010848999
12	92.87217020988464	pulse	1	t		10.0	2.5	/experiments/knapen_AOT/AOT_stimuli/rescaled_final/1315_fw.mp4	0.0	118.49213814735413	
12	94.47007417678833	pulse	1	t		10.0	2.5	/experiments/knapen_AOT/AOT_stimuli/rescaled_final/1315_fw.mp4	0.0	120.09004211425781	
12	94.58884811401367	fix_post	2		12	10.0	2.5	/experiments/knapen_AOT/AOT_stimuli/rescaled_final/1315_fw.mp4	0.0	120.20881605148315	0.1000370979309082
13	94.68888521194458	fix_pre	0		120	11.0	2.5	/experiments/knapen_AOT/AOT_stimuli/rescaled_final/1643_rv.mp4	0.0	120.30885314941406	1.0001518726348877
13	95.68903708457947	movie	1		243	11.0	2.5	/experiments/knapen_AOT/AOT_stimuli/rescaled_final/1643_rv.mp4	0.0	121.30900502204895	2.4920310974121094
13	96.07366704940796	pulse	1	t		11.0	2.5	/experiments/knapen_AOT/AOT_stimuli/rescaled_final/1643_rv.mp4	0.0	121.69363498687744	
13	97.67302799224854	pulse	1	t		11.0	2.5	/experiments/knapen_AOT/AOT_stimuli/rescaled_final/1643_rv.mp4	0.0	123.29299592971802	
13	98.18106818199158	fix_post	2		12	11.0	2.5	/experiments/knapen_AOT/AOT_stimuli/rescaled_final/1643_rv.mp4	0.0	123.80103611946106	0.10000300407409668
14	98.28107118606567	fix_pre	0		120	12.0	2.5	/experiments/knapen_AOT/AOT_stimuli/rescaled_final/0753_fw.mp4	0.0	123.90103912353516	1.0002539157867432
14	99.2731351852417	pulse	0	t		12.0	2.5	/experiments/knapen_AOT/AOT_stimuli/rescaled_final/0753_fw.mp4	0.0	124.89310312271118	
14	99.28132510185242	movie	1		247	12.0	2.5	/experiments/knapen_AOT/AOT_stimuli/rescaled_final/0753_fw.mp4	0.0	124.9012930393219	2.508635997772217
14	100.87704515457153	pulse	1	t		12.0	2.5	/experiments/knapen_AOT/AOT_stimuli/rescaled_final/0753_fw.mp4	0.0	126.49701309204102	
14	101.78996109962463	fix_post	2		12	12.0	2.5	/experiments/knapen_AOT/AOT_stimuli/rescaled_final/0753_fw.mp4	0.0	127.40992903709412	0.10000300407409668
15	101.88996410369873	fix_pre	0		120	13.0	2.5	blank	1.0	127.50993204116821	1.0001599788665771
15	102.47359800338745	pulse	0	t		13.0	2.5	blank	1.0	128.09356594085693	
15	102.89012408256531	movie	1		300	13.0	2.5	blank	1.0	128.5100920200348	2.500368118286133
15	104.07397413253784	pulse	1	t		13.0	2.5	blank	1.0	129.69394207000732	
15	105.39049220085144	fix_post	2		12	13.0	2.5	blank	1.0	131.01046013832092	0.09998083114624023
16	105.49047303199768	fix_pre	0		116	14.0	2.5	/experiments/knapen_AOT/AOT_stimuli/rescaled_final/1234_fw.mp4	0.0	131.11044096946716	1.0001881122589111
16	105.67410516738892	pulse	0	t		14.0	2.5	/experiments/knapen_AOT/AOT_stimuli/rescaled_final/1234_fw.mp4	0.0	131.2940731048584	
16	106.49066114425659	movie	1		245	14.0	2.5	/experiments/knapen_AOT/AOT_stimuli/rescaled_final/1234_fw.mp4	0.0	132.11062908172607	2.5003418922424316
16	107.27429008483887	pulse	1	t		14.0	2.5	/experiments/knapen_AOT/AOT_stimuli/rescaled_final/1234_fw.mp4	0.0	132.89425802230835	
16	108.87461113929749	pulse	1	t		14.0	2.5	/experiments/knapen_AOT/AOT_stimuli/rescaled_final/1234_fw.mp4	0.0	134.49457907676697	
16	108.99100303649902	fix_post	2		12	14.0	2.5	/experiments/knapen_AOT/AOT_stimuli/rescaled_final/1234_fw.mp4	0.0	134.6109709739685	0.10006403923034668
17	109.09106707572937	fix_pre	0		120	15.0	2.5	/experiments/knapen_AOT/AOT_stimuli/rescaled_final/0427_fw.mp4	0.0	134.71103501319885	1.0001709461212158
17	110.09123802185059	movie	1		245	15.0	2.5	/experiments/knapen_AOT/AOT_stimuli/rescaled_final/0427_fw.mp4	0.0	135.71120595932007	2.4919769763946533
17	110.47512006759644	pulse	1	t		15.0	2.5	/experiments/knapen_AOT/AOT_stimuli/rescaled_final/0427_fw.mp4	0.0	136.09508800506592	
17	112.07498812675476	pulse	1	t		15.0	2.5	/experiments/knapen_AOT/AOT_stimuli/rescaled_final/0427_fw.mp4	0.0	137.69495606422424	
17	112.58321499824524	fix_post	2		12	15.0	2.5	/experiments/knapen_AOT/AOT_stimuli/rescaled_final/0427_fw.mp4	0.0	138.20318293571472	0.10001897811889648
18	112.68323397636414	fix_pre	0		120	16.0	2.5	/experiments/knapen_AOT/AOT_stimuli/rescaled_final/0111_fw.mp4	0.0	138.30320191383362	1.000157117843628
18	113.6752610206604	pulse	0	t		16.0	2.5	/experiments/knapen_AOT/AOT_stimuli/rescaled_final/0111_fw.mp4	0.0	139.29522895812988	
18	113.68339109420776	movie	1		247	16.0	2.5	/experiments/knapen_AOT/AOT_stimuli/rescaled_final/0111_fw.mp4	0.0	139.30335903167725	2.5086939334869385
18	115.27595400810242	pulse	1	t		16.0	2.5	/experiments/knapen_AOT/AOT_stimuli/rescaled_final/0111_fw.mp4	0.0	140.8959219455719	
18	116.1920850276947	fix_post	2		12	16.0	2.5	/experiments/knapen_AOT/AOT_stimuli/rescaled_final/0111_fw.mp4	0.0	141.81205296516418	0.10001516342163086
19	116.29210019111633	fix_pre	0		120	17.0	2.5	/experiments/knapen_AOT/AOT_stimuli/rescaled_final/0688_rv.mp4	0.0	141.91206812858582	1.0001678466796875
19	116.87578201293945	pulse	0	t		17.0	2.5	/experiments/knapen_AOT/AOT_stimuli/rescaled_final/0688_rv.mp4	0.0	142.49574995040894	
19	117.29226803779602	movie	1		245	17.0	2.5	/experiments/knapen_AOT/AOT_stimuli/rescaled_final/0688_rv.mp4	0.0	142.9122359752655	2.5003769397735596
19	118.47611212730408	pulse	1	t		17.0	2.5	/experiments/knapen_AOT/AOT_stimuli/rescaled_final/0688_rv.mp4	0.0	144.09608006477356	
19	119.79264497756958	fix_post	2		12	17.0	2.5	/experiments/knapen_AOT/AOT_stimuli/rescaled_final/0688_rv.mp4	0.0	145.41261291503906	0.09997701644897461
20	119.89262199401855	fix_pre	0		120	18.0	2.5	/experiments/knapen_AOT/AOT_stimuli/rescaled_final/0952_rv.mp4	0.0	145.51258993148804	1.0001680850982666
20	120.06864213943481	pulse	0	t		18.0	2.5	/experiments/knapen_AOT/AOT_stimuli/rescaled_final/0952_rv.mp4	0.0	145.6886100769043	
20	120.89279007911682	movie	1		248	18.0	2.5	/experiments/knapen_AOT/AOT_stimuli/rescaled_final/0952_rv.mp4	0.0	146.5127580165863	2.500385046005249
20	121.66903400421143	pulse	1	t		18.0	2.5	/experiments/knapen_AOT/AOT_stimuli/rescaled_final/0952_rv.mp4	0.0	147.2890019416809	
20	123.26910519599915	pulse	1	t		18.0	2.5	/experiments/knapen_AOT/AOT_stimuli/rescaled_final/0952_rv.mp4	0.0	148.88907313346863	
20	123.39317512512207	fix_post	2		12	18.0	2.5	/experiments/knapen_AOT/AOT_stimuli/rescaled_final/0952_rv.mp4	0.0	149.01314306259155	0.10001492500305176
21	123.49319005012512	fix_pre	0		120	19.0	2.5	/experiments/knapen_AOT/AOT_stimuli/rescaled_final/0219_fw.mp4	0.0	149.1131579875946	1.000262975692749
21	124.49345302581787	movie	1		245	19.0	2.5	/experiments/knapen_AOT/AOT_stimuli/rescaled_final/0219_fw.mp4	0.0	150.11342096328735	2.491988182067871
21	124.87734198570251	pulse	1	t		19.0	2.5	/experiments/knapen_AOT/AOT_stimuli/rescaled_final/0219_fw.mp4	0.0	150.497309923172	
21	126.46908020973206	pulse	1	t		19.0	2.5	/experiments/knapen_AOT/AOT_stimuli/rescaled_final/0219_fw.mp4	0.0	152.08904814720154	
21	126.98544120788574	fix_post	2		12	19.0	2.5	/experiments/knapen_AOT/AOT_stimuli/rescaled_final/0219_fw.mp4	0.0	152.60540914535522	0.09996390342712402
22	127.08540511131287	fix_pre	0		119	20.0	2.5	/experiments/knapen_AOT/AOT_stimuli/rescaled_final/1727_rv.mp4	0.0	152.70537304878235	0.9918100833892822
22	128.06912207603455	pulse	0	t		20.0	2.5	/experiments/knapen_AOT/AOT_stimuli/rescaled_final/1727_rv.mp4	0.0	153.68909001350403	
22	128.07721519470215	movie	1		246	20.0	2.5	/experiments/knapen_AOT/AOT_stimuli/rescaled_final/1727_rv.mp4	0.0	153.69718313217163	2.508680820465088
22	129.67026805877686	pulse	1	t		20.0	2.5	/experiments/knapen_AOT/AOT_stimuli/rescaled_final/1727_rv.mp4	0.0	155.29023599624634	
22	130.58589601516724	fix_post	2		12	20.0	2.5	/experiments/knapen_AOT/AOT_stimuli/rescaled_final/1727_rv.mp4	0.0	156.20586395263672	0.100006103515625
23	130.68590211868286	fix_pre	0		120	21.0	2.5	blank	1.0	156.30587005615234	1.0001800060272217
23	131.26960110664368	pulse	0	t		21.0	2.5	blank	1.0	156.88956904411316	
23	131.68608212471008	movie	1		300	21.0	2.5	blank	1.0	157.30605006217957	2.5003678798675537
23	132.8698160648346	pulse	1	t		21.0	2.5	blank	1.0	158.48978400230408	
23	134.18645000457764	fix_post	2		12	21.0	2.5	blank	1.0	159.80641794204712	0.10005903244018555
24	134.28650903701782	fix_pre	0		120	22.0	2.5	/experiments/knapen_AOT/AOT_stimuli/rescaled_final/0479_fw.mp4	0.0	159.9064769744873	1.0000941753387451
24	134.47002005577087	pulse	0	t		22.0	2.5	/experiments/knapen_AOT/AOT_stimuli/rescaled_final/0479_fw.mp4	0.0	160.08998799324036	
24	135.28660321235657	movie	1		245	22.0	2.5	/experiments/knapen_AOT/AOT_stimuli/rescaled_final/0479_fw.mp4	0.0	160.90657114982605	2.500363826751709
24	136.07022213935852	pulse	1	t		22.0	2.5	/experiments/knapen_AOT/AOT_stimuli/rescaled_final/0479_fw.mp4	0.0	161.690190076828	
24	137.67056012153625	pulse	1	t		22.0	2.5	/experiments/knapen_AOT/AOT_stimuli/rescaled_final/0479_fw.mp4	0.0	163.29052805900574	
24	137.78696703910828	fix_post	2		12	22.0	2.5	/experiments/knapen_AOT/AOT_stimuli/rescaled_final/0479_fw.mp4	0.0	163.40693497657776	0.10004210472106934
25	137.88700914382935	fix_pre	0		120	23.0	2.5	/experiments/knapen_AOT/AOT_stimuli/rescaled_final/1335_fw.mp4	0.0	163.50697708129883	1.00016188621521
25	138.88717103004456	movie	1		244	23.0	2.5	/experiments/knapen_AOT/AOT_stimuli/rescaled_final/1335_fw.mp4	0.0	164.50713896751404	2.4920740127563477
25	139.27157306671143	pulse	1	t		23.0	2.5	/experiments/knapen_AOT/AOT_stimuli/rescaled_final/1335_fw.mp4	0.0	164.8915410041809	
25	140.87108898162842	pulse	1	t		23.0	2.5	/experiments/knapen_AOT/AOT_stimuli/rescaled_final/1335_fw.mp4	0.0	166.4910569190979	
25	141.3792450428009	fix_post	2		12	23.0	2.5	/experiments/knapen_AOT/AOT_stimuli/rescaled_final/1335_fw.mp4	0.0	166.99921298027039	0.09996294975280762
26	141.4792079925537	fix_pre	0		120	24.0	2.5	/experiments/knapen_AOT/AOT_stimuli/rescaled_final/0052_rv.mp4	0.0	167.0991759300232	1.0001740455627441
26	142.47118711471558	pulse	0	t		24.0	2.5	/experiments/knapen_AOT/AOT_stimuli/rescaled_final/0052_rv.mp4	0.0	168.09115505218506	
26	142.47938203811646	movie	1		246	24.0	2.5	/experiments/knapen_AOT/AOT_stimuli/rescaled_final/0052_rv.mp4	0.0	168.09934997558594	2.508697986602783
26	144.07202410697937	pulse	1	t		24.0	2.5	/experiments/knapen_AOT/AOT_stimuli/rescaled_final/0052_rv.mp4	0.0	169.69199204444885	
26	144.98808002471924	fix_post	2		12	24.0	2.5	/experiments/knapen_AOT/AOT_stimuli/rescaled_final/0052_rv.mp4	0.0	170.60804796218872	0.09999704360961914
27	145.08807706832886	fix_pre	0		120	25.0	2.5	/experiments/knapen_AOT/AOT_stimuli/rescaled_final/0428_fw.mp4	0.0	170.70804500579834	1.000154972076416
27	145.67180514335632	pulse	0	t		25.0	2.5	/experiments/knapen_AOT/AOT_stimuli/rescaled_final/0428_fw.mp4	0.0	171.2917730808258	
27	146.08823204040527	movie	1		246	25.0	2.5	/experiments/knapen_AOT/AOT_stimuli/rescaled_final/0428_fw.mp4	0.0	171.70819997787476	2.500375986099243
27	147.2720491886139	pulse	1	t		25.0	2.5	/experiments/knapen_AOT/AOT_stimuli/rescaled_final/0428_fw.mp4	0.0	172.89201712608337	
27	148.58860802650452	fix_post	2		12	25.0	2.5	/experiments/knapen_AOT/AOT_stimuli/rescaled_final/0428_fw.mp4	0.0	174.208575963974	0.09999299049377441
28	148.6886010169983	fix_pre	0		120	26.0	2.5	/experiments/knapen_AOT/AOT_stimuli/rescaled_final/0109_rv.mp4	0.0	174.30856895446777	1.0001721382141113
28	148.87216210365295	pulse	0	t		26.0	2.5	/experiments/knapen_AOT/AOT_stimuli/rescaled_final/0109_rv.mp4	0.0	174.49213004112244	
28	149.6887731552124	movie	1		244	26.0	2.5	/experiments/knapen_AOT/AOT_stimuli/rescaled_final/0109_rv.mp4	0.0	175.30874109268188	2.500308036804199
28	150.47244310379028	pulse	1	t		26.0	2.5	/experiments/knapen_AOT/AOT_stimuli/rescaled_final/0109_rv.mp4	0.0	176.09241104125977	
28	152.07448601722717	pulse	1	t		26.0	2.5	/experiments/knapen_AOT/AOT_stimuli/rescaled_final/0109_rv.mp4	0.0	177.69445395469666	
28	152.1890811920166	fix_post	2		12	26.0	2.5	/experiments/knapen_AOT/AOT_stimuli/rescaled_final/0109_rv.mp4	0.0	177.80904912948608	0.1000819206237793
29	152.28916311264038	fix_pre	0		119	27.0	2.5	/experiments/knapen_AOT/AOT_stimuli/rescaled_final/0617_fw.mp4	0.0	177.90913105010986	0.9918429851531982
29	153.28100609779358	movie	1		245	27.0	2.5	/experiments/knapen_AOT/AOT_stimuli/rescaled_final/0617_fw.mp4	0.0	178.90097403526306	2.500322103500366
29	153.67297911643982	pulse	1	t		27.0	2.5	/experiments/knapen_AOT/AOT_stimuli/rescaled_final/0617_fw.mp4	0.0	179.2929470539093	
29	155.27314615249634	pulse	1	t		27.0	2.5	/experiments/knapen_AOT/AOT_stimuli/rescaled_final/0617_fw.mp4	0.0	180.89311408996582	
29	155.78132820129395	fix_post	2		12	27.0	2.5	/experiments/knapen_AOT/AOT_stimuli/rescaled_final/0617_fw.mp4	0.0	181.40129613876343	0.10001993179321289
30	155.88134813308716	fix_pre	0		120	28.0	2.5	blank	1.0	181.50131607055664	1.0001869201660156
30	156.87340998649597	pulse	0	t		28.0	2.5	blank	1.0	182.49337792396545	
30	156.88153505325317	movie	1		301	28.0	2.5	blank	1.0	182.50150299072266	2.508697032928467
30	158.4737651348114	pulse	1	t		28.0	2.5	blank	1.0	184.09373307228088	
30	159.39023208618164	fix_post	2		12	28.0	2.5	blank	1.0	185.01020002365112	0.09998798370361328
31	159.49022006988525	fix_pre	0		120	29.0	2.5	/experiments/knapen_AOT/AOT_stimuli/rescaled_final/0575_fw.mp4	0.0	185.11018800735474	1.0001399517059326
31	160.07393407821655	pulse	0	t		29.0	2.5	/experiments/knapen_AOT/AOT_stimuli/rescaled_final/0575_fw.mp4	0.0	185.69390201568604	
31	160.4903600215912	movie	1		245	29.0	2.5	/experiments/knapen_AOT/AOT_stimuli/rescaled_final/0575_fw.mp4	0.0	186.11032795906067	2.5003621578216553
31	161.67414808273315	pulse	1	t		29.0	2.5	/experiments/knapen_AOT/AOT_stimuli/rescaled_final/0575_fw.mp4	0.0	187.29411602020264	
31	162.99072217941284	fix_post	2		12	29.0	2.5	/experiments/knapen_AOT/AOT_stimuli/rescaled_final/0575_fw.mp4	0.0	188.61069011688232	0.10004997253417969
32	163.09077215194702	fix_pre	0		120	30.0	2.5	/experiments/knapen_AOT/AOT_stimuli/rescaled_final/0895_rv.mp4	0.0	188.7107400894165	1.0001740455627441
32	163.27435398101807	pulse	0	t		30.0	2.5	/experiments/knapen_AOT/AOT_stimuli/rescaled_final/0895_rv.mp4	0.0	188.89432191848755	
32	164.09094619750977	movie	1		245	30.0	2.5	/experiments/knapen_AOT/AOT_stimuli/rescaled_final/0895_rv.mp4	0.0	189.71091413497925	2.500335931777954
32	164.8746931552887	pulse	1	t		30.0	2.5	/experiments/knapen_AOT/AOT_stimuli/rescaled_final/0895_rv.mp4	0.0	190.49466109275818	
32	166.47487998008728	pulse	1	t		30.0	2.5	/experiments/knapen_AOT/AOT_stimuli/rescaled_final/0895_rv.mp4	0.0	192.09484791755676	
32	166.59128212928772	fix_post	2		12	30.0	2.5	/experiments/knapen_AOT/AOT_stimuli/rescaled_final/0895_rv.mp4	0.0	192.2112500667572	0.09998798370361328
33	166.69127011299133	fix_pre	0		120	31.0	2.5	/experiments/knapen_AOT/AOT_stimuli/rescaled_final/1079_fw.mp4	0.0	192.31123805046082	1.0002269744873047
33	167.69149708747864	movie	1		242	31.0	2.5	/experiments/knapen_AOT/AOT_stimuli/rescaled_final/1079_fw.mp4	0.0	193.31146502494812	2.4919960498809814
33	168.0756061077118	pulse	1	t		31.0	2.5	/experiments/knapen_AOT/AOT_stimuli/rescaled_final/1079_fw.mp4	0.0	193.69557404518127	
33	169.67526507377625	pulse	1	t		31.0	2.5	/experiments/knapen_AOT/AOT_stimuli/rescaled_final/1079_fw.mp4	0.0	195.29523301124573	
33	170.18349313735962	fix_post	2		12	31.0	2.5	/experiments/knapen_AOT/AOT_stimuli/rescaled_final/1079_fw.mp4	0.0	195.8034610748291	0.1000070571899414
34	170.28350019454956	fix_pre	0		116	32.0	2.5	/experiments/knapen_AOT/AOT_stimuli/rescaled_final/0387_rv.mp4	0.0	195.90346813201904	1.0001709461212158
34	171.27558398246765	pulse	0	t		32.0	2.5	/experiments/knapen_AOT/AOT_stimuli/rescaled_final/0387_rv.mp4	0.0	196.89555191993713	
34	171.28367114067078	movie	1		247	32.0	2.5	/experiments/knapen_AOT/AOT_stimuli/rescaled_final/0387_rv.mp4	0.0	196.90363907814026	2.5087778568267822
34	172.87683820724487	pulse	1	t		32.0	2.5	/experiments/knapen_AOT/AOT_stimuli/rescaled_final/0387_rv.mp4	0.0	198.49680614471436	
34	173.79244899749756	fix_post	2		12	32.0	2.5	/experiments/knapen_AOT/AOT_stimuli/rescaled_final/0387_rv.mp4	0.0	199.41241693496704	0.09992313385009766
35	173.89237213134766	fix_pre	0		120	33.0	2.5	blank	1.0	199.51234006881714	1.0001590251922607
35	174.47604608535767	pulse	0	t		33.0	2.5	blank	1.0	200.09601402282715	
35	174.89253115653992	movie	1		300	33.0	2.5	blank	1.0	200.5124990940094	2.5004069805145264
35	176.07620120048523	pulse	1	t		33.0	2.5	blank	1.0	201.6961691379547	
35	177.39293813705444	fix_post	2		12	33.0	2.5	blank	1.0	203.01290607452393	0.10003185272216797
36	177.4929699897766	fix_pre	0		120	34.0	2.5	/experiments/knapen_AOT/AOT_stimuli/rescaled_final/1167_rv.mp4	0.0	203.1129379272461	1.0001220703125
36	177.676607131958	pulse	0	t		34.0	2.5	/experiments/knapen_AOT/AOT_stimuli/rescaled_final/1167_rv.mp4	0.0	203.2965750694275	
36	178.4930920600891	movie	1		246	34.0	2.5	/experiments/knapen_AOT/AOT_stimuli/rescaled_final/1167_rv.mp4	0.0	204.1130599975586	2.5003550052642822
36	179.27689814567566	pulse	1	t		34.0	2.5	/experiments/knapen_AOT/AOT_stimuli/rescaled_final/1167_rv.mp4	0.0	204.89686608314514	
36	180.8695821762085	pulse	1	t		34.0	2.5	/experiments/knapen_AOT/AOT_stimuli/rescaled_final/1167_rv.mp4	0.0	206.48955011367798	
36	180.9934470653534	fix_post	2		12	34.0	2.5	/experiments/knapen_AOT/AOT_stimuli/rescaled_final/1167_rv.mp4	0.0	206.61341500282288	0.09997296333312988
37	181.09342002868652	fix_pre	0		120	35.0	2.5	/experiments/knapen_AOT/AOT_stimuli/rescaled_final/0442_rv.mp4	0.0	206.713387966156	1.0002050399780273
37	182.09362506866455	movie	1		245	35.0	2.5	/experiments/knapen_AOT/AOT_stimuli/rescaled_final/0442_rv.mp4	0.0	207.71359300613403	2.492002010345459
37	182.47843599319458	pulse	1	t		35.0	2.5	/experiments/knapen_AOT/AOT_stimuli/rescaled_final/0442_rv.mp4	0.0	208.09840393066406	
37	184.07019805908203	pulse	1	t		35.0	2.5	/experiments/knapen_AOT/AOT_stimuli/rescaled_final/0442_rv.mp4	0.0	209.6901659965515	
37	184.58562707901	fix_post	2		12	35.0	2.5	/experiments/knapen_AOT/AOT_stimuli/rescaled_final/0442_rv.mp4	0.0	210.2055950164795	0.10001397132873535
38	184.68564105033875	fix_pre	0		120	36.0	2.5	/experiments/knapen_AOT/AOT_stimuli/rescaled_final/0798_rv.mp4	0.0	210.30560898780823	1.0002241134643555
38	185.670264005661	pulse	0	t		36.0	2.5	/experiments/knapen_AOT/AOT_stimuli/rescaled_final/0798_rv.mp4	0.0	211.2902319431305	
38	185.6858651638031	movie	1		246	36.0	2.5	/experiments/knapen_AOT/AOT_stimuli/rescaled_final/0798_rv.mp4	0.0	211.30583310127258	2.508711814880371
38	187.26965999603271	pulse	1	t		36.0	2.5	/experiments/knapen_AOT/AOT_stimuli/rescaled_final/0798_rv.mp4	0.0	212.8896279335022	
38	188.19457697868347	fix_post	2		12	36.0	2.5	/experiments/knapen_AOT/AOT_stimuli/rescaled_final/0798_rv.mp4	0.0	213.81454491615295	0.09995222091674805
39	188.29452919960022	fix_pre	0		120	37.0	2.5	/experiments/knapen_AOT/AOT_stimuli/rescaled_final/2142_fw.mp4	0.0	213.9144971370697	1.0001459121704102
39	188.86973905563354	pulse	0	t		37.0	2.5	/experiments/knapen_AOT/AOT_stimuli/rescaled_final/2142_fw.mp4	0.0	214.48970699310303	
39	189.29467511177063	movie	1		245	37.0	2.5	/experiments/knapen_AOT/AOT_stimuli/rescaled_final/2142_fw.mp4	0.0	214.9146430492401	2.5003600120544434
39	190.47055220603943	pulse	1	t		37.0	2.5	/experiments/knapen_AOT/AOT_stimuli/rescaled_final/2142_fw.mp4	0.0	216.0905201435089	
39	191.79503512382507	fix_post	2		12	37.0	2.5	/experiments/knapen_AOT/AOT_stimuli/rescaled_final/2142_fw.mp4	0.0	217.41500306129456	0.09998798370361328
40	191.8950231075287	fix_pre	0		120	38.0	2.5	/experiments/knapen_AOT/AOT_stimuli/rescaled_final/1559_rv.mp4	0.0	217.51499104499817	1.0002338886260986
40	192.07024908065796	pulse	0	t		38.0	2.5	/experiments/knapen_AOT/AOT_stimuli/rescaled_final/1559_rv.mp4	0.0	217.69021701812744	
40	192.89525699615479	movie	1		245	38.0	2.5	/experiments/knapen_AOT/AOT_stimuli/rescaled_final/1559_rv.mp4	0.0	218.51522493362427	2.5003151893615723
40	193.67078709602356	pulse	1	t		38.0	2.5	/experiments/knapen_AOT/AOT_stimuli/rescaled_final/1559_rv.mp4	0.0	219.29075503349304	
40	195.27086305618286	pulse	1	t		38.0	2.5	/experiments/knapen_AOT/AOT_stimuli/rescaled_final/1559_rv.mp4	0.0	220.89083099365234	
40	195.39557218551636	fix_post	2		12	38.0	2.5	/experiments/knapen_AOT/AOT_stimuli/rescaled_final/1559_rv.mp4	0.0	221.01554012298584	0.10003900527954102
41	195.4956111907959	fix_pre	0		120	39.0	2.5	/experiments/knapen_AOT/AOT_stimuli/rescaled_final/1222_rv.mp4	0.0	221.11557912826538	1.000128984451294
41	196.4957401752472	movie	1		244	39.0	2.5	/experiments/knapen_AOT/AOT_stimuli/rescaled_final/1222_rv.mp4	0.0	222.11570811271667	2.492050886154175
41	196.8710470199585	pulse	1	t		39.0	2.5	/experiments/knapen_AOT/AOT_stimuli/rescaled_final/1222_rv.mp4	0.0	222.49101495742798	
41	198.47132015228271	pulse	1	t		39.0	2.5	/experiments/knapen_AOT/AOT_stimuli/rescaled_final/1222_rv.mp4	0.0	224.0912880897522	
41	198.98779106140137	fix_post	2		12	39.0	2.5	/experiments/knapen_AOT/AOT_stimuli/rescaled_final/1222_rv.mp4	0.0	224.60775899887085	0.10005807876586914
42	199.08784914016724	fix_pre	0		119	40.0	2.5	/experiments/knapen_AOT/AOT_stimuli/rescaled_final/0738_fw.mp4	0.0	224.70781707763672	0.9918348789215088
42	200.07145714759827	pulse	0	t		40.0	2.5	/experiments/knapen_AOT/AOT_stimuli/rescaled_final/0738_fw.mp4	0.0	225.69142508506775	
42	200.07968401908875	movie	1		246	40.0	2.5	/experiments/knapen_AOT/AOT_stimuli/rescaled_final/0738_fw.mp4	0.0	225.69965195655823	2.508618116378784
42	201.672128200531	pulse	1	t		40.0	2.5	/experiments/knapen_AOT/AOT_stimuli/rescaled_final/0738_fw.mp4	0.0	227.2920961380005	
42	202.58830213546753	fix_post	2		12	40.0	2.5	/experiments/knapen_AOT/AOT_stimuli/rescaled_final/0738_fw.mp4	0.0	228.208270072937	0.10005903244018555
43	202.68836116790771	fix_pre	0		120	41.0	2.5	blank	1.0	228.3083291053772	1.0001509189605713
43	203.272047996521	pulse	0	t		41.0	2.5	blank	1.0	228.89201593399048	
43	203.6885120868683	movie	1		300	41.0	2.5	blank	1.0	229.30848002433777	2.500433921813965
43	204.87214612960815	pulse	1	t		41.0	2.5	blank	1.0	230.49211406707764	
43	206.18894600868225	fix_post	2		12	41.0	2.5	blank	1.0	231.80891394615173	0.09995198249816895
44	206.28889799118042	fix_pre	0		120	42.0	2.5	/experiments/knapen_AOT/AOT_stimuli/rescaled_final/0794_fw.mp4	0.0	231.9088659286499	1.0001330375671387
44	206.4724850654602	pulse	0	t		42.0	2.5	/experiments/knapen_AOT/AOT_stimuli/rescaled_final/0794_fw.mp4	0.0	232.0924530029297	
44	207.28903102874756	movie	1		246	42.0	2.5	/experiments/knapen_AOT/AOT_stimuli/rescaled_final/0794_fw.mp4	0.0	232.90899896621704	2.50046706199646
44	208.07270312309265	pulse	1	t		42.0	2.5	/experiments/knapen_AOT/AOT_stimuli/rescaled_final/0794_fw.mp4	0.0	233.69267106056213	
44	209.67303800582886	pulse	1	t		42.0	2.5	/experiments/knapen_AOT/AOT_stimuli/rescaled_final/0794_fw.mp4	0.0	235.29300594329834	
44	209.78949809074402	fix_post	2		12	42.0	2.5	/experiments/knapen_AOT/AOT_stimuli/rescaled_final/0794_fw.mp4	0.0	235.4094660282135	0.09991908073425293
45	209.88941717147827	fix_pre	0		119	43.0	2.5	/experiments/knapen_AOT/AOT_stimuli/rescaled_final/0786_rv.mp4	0.0	235.50938510894775	0.9918558597564697
45	210.88127303123474	movie	1		245	43.0	2.5	/experiments/knapen_AOT/AOT_stimuli/rescaled_final/0786_rv.mp4	0.0	236.50124096870422	2.5003180503845215
45	211.27321314811707	pulse	1	t		43.0	2.5	/experiments/knapen_AOT/AOT_stimuli/rescaled_final/0786_rv.mp4	0.0	236.89318108558655	
45	212.87361001968384	pulse	1	t		43.0	2.5	/experiments/knapen_AOT/AOT_stimuli/rescaled_final/0786_rv.mp4	0.0	238.49357795715332	
45	213.38159108161926	fix_post	2		12	43.0	2.5	/experiments/knapen_AOT/AOT_stimuli/rescaled_final/0786_rv.mp4	0.0	239.00155901908875	0.10003399848937988
46	213.48162508010864	fix_pre	0		120	44.0	2.5	/experiments/knapen_AOT/AOT_stimuli/rescaled_final/1206_rv.mp4	0.0	239.10159301757812	1.000169038772583
46	214.47371006011963	pulse	0	t		44.0	2.5	/experiments/knapen_AOT/AOT_stimuli/rescaled_final/1206_rv.mp4	0.0	240.0936779975891	
46	214.48179411888123	movie	1		246	44.0	2.5	/experiments/knapen_AOT/AOT_stimuli/rescaled_final/1206_rv.mp4	0.0	240.1017620563507	2.5087759494781494
46	216.07444500923157	pulse	1	t		44.0	2.5	/experiments/knapen_AOT/AOT_stimuli/rescaled_final/1206_rv.mp4	0.0	241.69441294670105	
46	216.99057006835938	fix_post	2		12	44.0	2.5	/experiments/knapen_AOT/AOT_stimuli/rescaled_final/1206_rv.mp4	0.0	242.61053800582886	0.09994697570800781
47	217.09051704406738	fix_pre	0		120	45.0	2.5	/experiments/knapen_AOT/AOT_stimuli/rescaled_final/1137_fw.mp4	0.0	242.71048498153687	1.0002009868621826
47	217.67423105239868	pulse	0	t		45.0	2.5	/experiments/knapen_AOT/AOT_stimuli/rescaled_final/1137_fw.mp4	0.0	243.29419898986816	
47	218.09071803092957	movie	1		245	45.0	2.5	/experiments/knapen_AOT/AOT_stimuli/rescaled_final/1137_fw.mp4	0.0	243.71068596839905	2.500298023223877
47	219.27442908287048	pulse	1	t		45.0	2.5	/experiments/knapen_AOT/AOT_stimuli/rescaled_final/1137_fw.mp4	0.0	244.89439702033997	
47	220.59101605415344	fix_post	2		12	45.0	2.5	/experiments/knapen_AOT/AOT_stimuli/rescaled_final/1137_fw.mp4	0.0	246.21098399162292	0.10001802444458008
48	220.69103407859802	fix_pre	0		120	46.0	2.5	/experiments/knapen_AOT/AOT_stimuli/rescaled_final/1468_rv.mp4	0.0	246.3110020160675	1.0001981258392334
48	220.87465405464172	pulse	0	t		46.0	2.5	/experiments/knapen_AOT/AOT_stimuli/rescaled_final/1468_rv.mp4	0.0	246.4946219921112	
48	221.69123220443726	movie	1		245	46.0	2.5	/experiments/knapen_AOT/AOT_stimuli/rescaled_final/1468_rv.mp4	0.0	247.31120014190674	2.50034499168396
48	222.4749481678009	pulse	1	t		46.0	2.5	/experiments/knapen_AOT/AOT_stimuli/rescaled_final/1468_rv.mp4	0.0	248.09491610527039	
48	224.07513809204102	pulse	1	t		46.0	2.5	/experiments/knapen_AOT/AOT_stimuli/rescaled_final/1468_rv.mp4	0.0	249.6951060295105	
48	224.19157719612122	fix_post	2		12	46.0	2.5	/experiments/knapen_AOT/AOT_stimuli/rescaled_final/1468_rv.mp4	0.0	249.8115451335907	0.10000801086425781
49	224.29158520698547	fix_pre	0		120	47.0	2.5	blank	1.0	249.91155314445496	1.0002398490905762
49	225.29182505607605	movie	1		295	47.0	2.5	blank	1.0	250.91179299354553	2.491956949234009
49	225.6753010749817	pulse	1	t		47.0	2.5	blank	1.0	251.29526901245117	
49	227.27569317817688	pulse	1	t		47.0	2.5	blank	1.0	252.89566111564636	
49	227.78378200531006	fix_post	2		12	47.0	2.5	blank	1.0	253.40374994277954	0.10001611709594727
50	227.883798122406	fix_pre	0		120	48.0	2.5	/experiments/knapen_AOT/AOT_stimuli/rescaled_final/2142_fw.mp4	0.0	253.5037660598755	1.0001518726348877
50	228.8758420944214	pulse	0	t		48.0	2.5	/experiments/knapen_AOT/AOT_stimuli/rescaled_final/2142_fw.mp4	0.0	254.49581003189087	
50	228.8839499950409	movie	1		246	48.0	2.5	/experiments/knapen_AOT/AOT_stimuli/rescaled_final/2142_fw.mp4	0.0	254.50391793251038	2.5087711811065674
50	230.4770770072937	pulse	1	t		48.0	2.5	/experiments/knapen_AOT/AOT_stimuli/rescaled_final/2142_fw.mp4	0.0	256.0970449447632	
50	231.39272117614746	fix_post	2		12	48.0	2.5	/experiments/knapen_AOT/AOT_stimuli/rescaled_final/2142_fw.mp4	0.0	257.01268911361694	0.09996199607849121
51	231.49268317222595	fix_pre	0		120	49.0	2.5	/experiments/knapen_AOT/AOT_stimuli/rescaled_final/0967_fw.mp4	0.0	257.11265110969543	1.000119924545288
51	232.0762300491333	pulse	0	t		49.0	2.5	/experiments/knapen_AOT/AOT_stimuli/rescaled_final/0967_fw.mp4	0.0	257.6961979866028	
51	232.49280309677124	movie	1		247	49.0	2.5	/experiments/knapen_AOT/AOT_stimuli/rescaled_final/0967_fw.mp4	0.0	258.1127710342407	2.5003440380096436
51	233.67669105529785	pulse	1	t		49.0	2.5	/experiments/knapen_AOT/AOT_stimuli/rescaled_final/0967_fw.mp4	0.0	259.29665899276733	
51	234.99314713478088	fix_post	2		12	49.0	2.5	/experiments/knapen_AOT/AOT_stimuli/rescaled_final/0967_fw.mp4	0.0	260.61311507225037	0.10003089904785156
52	235.09317803382874	fix_pre	0		120	50.0	2.5	/experiments/knapen_AOT/AOT_stimuli/rescaled_final/0992_rv.mp4	0.0	260.7131459712982	1.0002331733703613
52	235.26920914649963	pulse	0	t		50.0	2.5	/experiments/knapen_AOT/AOT_stimuli/rescaled_final/0992_rv.mp4	0.0	260.8891770839691	
52	236.0934112071991	movie	1		245	50.0	2.5	/experiments/knapen_AOT/AOT_stimuli/rescaled_final/0992_rv.mp4	0.0	261.7133791446686	2.500281810760498
52	236.8696870803833	pulse	1	t		50.0	2.5	/experiments/knapen_AOT/AOT_stimuli/rescaled_final/0992_rv.mp4	0.0	262.4896550178528	
52	238.46972107887268	pulse	1	t		50.0	2.5	/experiments/knapen_AOT/AOT_stimuli/rescaled_final/0992_rv.mp4	0.0	264.08968901634216	
52	238.5936930179596	fix_post	2		12	50.0	2.5	/experiments/knapen_AOT/AOT_stimuli/rescaled_final/0992_rv.mp4	0.0	264.2136609554291	0.1000511646270752
53	238.69374418258667	fix_pre	0		120	51.0	2.5	/experiments/knapen_AOT/AOT_stimuli/rescaled_final/1008_fw.mp4	0.0	264.31371212005615	1.0001978874206543
53	239.69394207000732	movie	1		244	51.0	2.5	/experiments/knapen_AOT/AOT_stimuli/rescaled_final/1008_fw.mp4	0.0	265.3139100074768	2.4919819831848145
53	240.06929397583008	pulse	1	t		51.0	2.5	/experiments/knapen_AOT/AOT_stimuli/rescaled_final/1008_fw.mp4	0.0	265.68926191329956	
53	241.66942715644836	pulse	1	t		51.0	2.5	/experiments/knapen_AOT/AOT_stimuli/rescaled_final/1008_fw.mp4	0.0	267.28939509391785	
53	242.18592405319214	fix_post	2		12	51.0	2.5	/experiments/knapen_AOT/AOT_stimuli/rescaled_final/1008_fw.mp4	0.0	267.8058919906616	0.10001611709594727
54	242.2859401702881	fix_pre	0		119	52.0	2.5	/experiments/knapen_AOT/AOT_stimuli/rescaled_final/0132_fw.mp4	0.0	267.90590810775757	0.9918580055236816
54	243.26956510543823	pulse	0	t		52.0	2.5	/experiments/knapen_AOT/AOT_stimuli/rescaled_final/0132_fw.mp4	0.0	268.8895330429077	
54	243.27779817581177	movie	1		246	52.0	2.5	/experiments/knapen_AOT/AOT_stimuli/rescaled_final/0132_fw.mp4	0.0	268.89776611328125	2.5086348056793213
54	244.87123012542725	pulse	1	t		52.0	2.5	/experiments/knapen_AOT/AOT_stimuli/rescaled_final/0132_fw.mp4	0.0	270.49119806289673	
54	245.7864329814911	fix_post	2		12	52.0	2.5	/experiments/knapen_AOT/AOT_stimuli/rescaled_final/0132_fw.mp4	0.0	271.40640091896057	0.10004615783691406
55	245.886479139328	fix_pre	0		120	53.0	2.5	/experiments/knapen_AOT/AOT_stimuli/rescaled_final/0424_fw.mp4	0.0	271.5064470767975	1.0001349449157715
55	246.47009801864624	pulse	0	t		53.0	2.5	/experiments/knapen_AOT/AOT_stimuli/rescaled_final/0424_fw.mp4	0.0	272.0900659561157	
55	246.88661408424377	movie	1		246	53.0	2.5	/experiments/knapen_AOT/AOT_stimuli/rescaled_final/0424_fw.mp4	0.0	272.50658202171326	2.5003581047058105
55	248.07044219970703	pulse	1	t		53.0	2.5	/experiments/knapen_AOT/AOT_stimuli/rescaled_final/0424_fw.mp4	0.0	273.6904101371765	
55	249.38697218894958	fix_post	2		12	53.0	2.5	/experiments/knapen_AOT/AOT_stimuli/rescaled_final/0424_fw.mp4	0.0	275.00694012641907	0.10003280639648438
56	249.48700499534607	fix_pre	0		120	54.0	2.5	blank	1.0	275.10697293281555	1.0001320838928223
56	249.67064499855042	pulse	0	t		54.0	2.5	blank	1.0	275.2906129360199	
56	250.4871370792389	movie	1		300	54.0	2.5	blank	1.0	276.1071050167084	2.5004289150238037
56	251.2708179950714	pulse	1	t		54.0	2.5	blank	1.0	276.8907859325409	
56	252.87105917930603	pulse	1	t		54.0	2.5	blank	1.0	278.4910271167755	
56	252.9875659942627	fix_post	2		12	54.0	2.5	blank	1.0	278.6075339317322	0.1000051498413086
57	253.087571144104	fix_pre	0		120	55.0	2.5	/experiments/knapen_AOT/AOT_stimuli/rescaled_final/0177_fw.mp4	0.0	278.7075390815735	1.0001640319824219
57	254.08773517608643	movie	1		244	55.0	2.5	/experiments/knapen_AOT/AOT_stimuli/rescaled_final/0177_fw.mp4	0.0	279.7077031135559	2.4919729232788086
57	254.47211503982544	pulse	1	t		55.0	2.5	/experiments/knapen_AOT/AOT_stimuli/rescaled_final/0177_fw.mp4	0.0	280.0920829772949	
57	256.07161021232605	pulse	1	t		55.0	2.5	/experiments/knapen_AOT/AOT_stimuli/rescaled_final/0177_fw.mp4	0.0	281.69157814979553	
57	256.57970809936523	fix_post	2		12	55.0	2.5	/experiments/knapen_AOT/AOT_stimuli/rescaled_final/0177_fw.mp4	0.0	282.1996760368347	0.1000359058380127
58	256.67974400520325	fix_pre	0		120	56.0	2.5	/experiments/knapen_AOT/AOT_stimuli/rescaled_final/1710_fw.mp4	0.0	282.29971194267273	1.0001850128173828
58	257.67184805870056	pulse	0	t		56.0	2.5	/experiments/knapen_AOT/AOT_stimuli/rescaled_final/1710_fw.mp4	0.0	283.29181599617004	
58	257.67992901802063	movie	1		248	56.0	2.5	/experiments/knapen_AOT/AOT_stimuli/rescaled_final/1710_fw.mp4	0.0	283.2998969554901	2.508826971054077
58	259.2731680870056	pulse	1	t		56.0	2.5	/experiments/knapen_AOT/AOT_stimuli/rescaled_final/1710_fw.mp4	0.0	284.8931360244751	
58	260.1887559890747	fix_post	2		12	56.0	2.5	/experiments/knapen_AOT/AOT_stimuli/rescaled_final/1710_fw.mp4	0.0	285.8087239265442	0.09990406036376953
59	260.2886600494385	fix_pre	0		120	57.0	2.5	/experiments/knapen_AOT/AOT_stimuli/rescaled_final/1366_fw.mp4	0.0	285.90862798690796	1.000148057937622
59	260.8722791671753	pulse	0	t		57.0	2.5	/experiments/knapen_AOT/AOT_stimuli/rescaled_final/1366_fw.mp4	0.0	286.4922471046448	
59	261.2888081073761	movie	1		246	57.0	2.5	/experiments/knapen_AOT/AOT_stimuli/rescaled_final/1366_fw.mp4	0.0	286.9087760448456	2.5003159046173096
59	262.4726781845093	pulse	1	t		57.0	2.5	/experiments/knapen_AOT/AOT_stimuli/rescaled_final/1366_fw.mp4	0.0	288.09264612197876	
59	263.7891240119934	fix_post	2		12	57.0	2.5	/experiments/knapen_AOT/AOT_stimuli/rescaled_final/1366_fw.mp4	0.0	289.4090919494629	0.10003519058227539
60	263.8891592025757	fix_pre	0		120	58.0	2.5	/experiments/knapen_AOT/AOT_stimuli/rescaled_final/1683_rv.mp4	0.0	289.50912714004517	1.0001728534698486
60	264.0728280544281	pulse	0	t		58.0	2.5	/experiments/knapen_AOT/AOT_stimuli/rescaled_final/1683_rv.mp4	0.0	289.6927959918976	
60	264.88933205604553	movie	1		244	58.0	2.5	/experiments/knapen_AOT/AOT_stimuli/rescaled_final/1683_rv.mp4	0.0	290.509299993515	2.5004169940948486
60	265.67310404777527	pulse	1	t		58.0	2.5	/experiments/knapen_AOT/AOT_stimuli/rescaled_final/1683_rv.mp4	0.0	291.29307198524475	
60	267.273264169693	pulse	1	t		58.0	2.5	/experiments/knapen_AOT/AOT_stimuli/rescaled_final/1683_rv.mp4	0.0	292.8932321071625	
60	267.3897490501404	fix_post	2		12	58.0	2.5	/experiments/knapen_AOT/AOT_stimuli/rescaled_final/1683_rv.mp4	0.0	293.00971698760986	0.10002398490905762
61	267.48977303504944	fix_pre	0		120	59.0	2.5	/experiments/knapen_AOT/AOT_stimuli/rescaled_final/1568_rv.mp4	0.0	293.1097409725189	1.0001060962677002
61	268.48987913131714	movie	1		244	59.0	2.5	/experiments/knapen_AOT/AOT_stimuli/rescaled_final/1568_rv.mp4	0.0	294.1098470687866	2.491999864578247
61	268.8741581439972	pulse	1	t		59.0	2.5	/experiments/knapen_AOT/AOT_stimuli/rescaled_final/1568_rv.mp4	0.0	294.4941260814667	
61	270.4737331867218	pulse	1	t		59.0	2.5	/experiments/knapen_AOT/AOT_stimuli/rescaled_final/1568_rv.mp4	0.0	296.0937011241913	
61	270.9818789958954	fix_post	2		12	59.0	2.5	/experiments/knapen_AOT/AOT_stimuli/rescaled_final/1568_rv.mp4	0.0	296.60184693336487	0.10012507438659668
62	271.082004070282	fix_pre	0		120	60.0	2.5	/experiments/knapen_AOT/AOT_stimuli/rescaled_final/1698_fw.mp4	0.0	296.70197200775146	1.0000660419464111
62	272.0739121437073	pulse	0	t		60.0	2.5	/experiments/knapen_AOT/AOT_stimuli/rescaled_final/1698_fw.mp4	0.0	297.69388008117676	
62	272.0820701122284	movie	1		246	60.0	2.5	/experiments/knapen_AOT/AOT_stimuli/rescaled_final/1698_fw.mp4	0.0	297.7020380496979	2.508650064468384
62	273.67474007606506	pulse	1	t		60.0	2.5	/experiments/knapen_AOT/AOT_stimuli/rescaled_final/1698_fw.mp4	0.0	299.29470801353455	
62	274.5907201766968	fix_post	2		12	60.0	2.5	/experiments/knapen_AOT/AOT_stimuli/rescaled_final/1698_fw.mp4	0.0	300.21068811416626	0.10005593299865723
63	274.69077610969543	fix_pre	0		120	61.0	2.5	/experiments/knapen_AOT/AOT_stimuli/rescaled_final/1576_fw.mp4	0.0	300.3107440471649	1.000166893005371
63	275.27444100379944	pulse	0	t		61.0	2.5	/experiments/knapen_AOT/AOT_stimuli/rescaled_final/1576_fw.mp4	0.0	300.8944089412689	
63	275.6909430027008	movie	1		246	61.0	2.5	/experiments/knapen_AOT/AOT_stimuli/rescaled_final/1576_fw.mp4	0.0	301.3109109401703	2.5003340244293213
63	276.87482500076294	pulse	1	t		61.0	2.5	/experiments/knapen_AOT/AOT_stimuli/rescaled_final/1576_fw.mp4	0.0	302.4947929382324	
63	278.1912770271301	fix_post	2		12	61.0	2.5	/experiments/knapen_AOT/AOT_stimuli/rescaled_final/1576_fw.mp4	0.0	303.8112449645996	0.10005617141723633
64	278.29133319854736	fix_pre	0		120	62.0	2.5	/experiments/knapen_AOT/AOT_stimuli/rescaled_final/1826_fw.mp4	0.0	303.91130113601685	1.0001389980316162
64	278.47494101524353	pulse	0	t		62.0	2.5	/experiments/knapen_AOT/AOT_stimuli/rescaled_final/1826_fw.mp4	0.0	304.094908952713	
64	279.291472196579	movie	1		245	62.0	2.5	/experiments/knapen_AOT/AOT_stimuli/rescaled_final/1826_fw.mp4	0.0	304.91144013404846	2.500377893447876
64	280.07516503334045	pulse	1	t		62.0	2.5	/experiments/knapen_AOT/AOT_stimuli/rescaled_final/1826_fw.mp4	0.0	305.69513297080994	
64	281.67289209365845	pulse	1	t		62.0	2.5	/experiments/knapen_AOT/AOT_stimuli/rescaled_final/1826_fw.mp4	0.0	307.29286003112793	
64	281.79185009002686	fix_post	2		12	62.0	2.5	/experiments/knapen_AOT/AOT_stimuli/rescaled_final/1826_fw.mp4	0.0	307.41181802749634	0.09999704360961914
65	281.8918471336365	fix_pre	0		120	63.0	2.5	blank	1.0	307.51181507110596	1.0001540184020996
65	282.8920011520386	movie	1		299	63.0	2.5	blank	1.0	308.51196908950806	2.4920730590820312
65	283.27560806274414	pulse	1	t		63.0	2.5	blank	1.0	308.8955760002136	
65	284.8758430480957	pulse	1	t		63.0	2.5	blank	1.0	310.4958109855652	
65	285.3840742111206	fix_post	2		12	63.0	2.5	blank	1.0	311.0040421485901	0.1000068187713623
66	285.48408102989197	fix_pre	0		120	64.0	2.5	/experiments/knapen_AOT/AOT_stimuli/rescaled_final/0431_fw.mp4	0.0	311.10404896736145	1.0001671314239502
66	286.47617506980896	pulse	0	t		64.0	2.5	/experiments/knapen_AOT/AOT_stimuli/rescaled_final/0431_fw.mp4	0.0	312.09614300727844	
66	286.4842481613159	movie	1		245	64.0	2.5	/experiments/knapen_AOT/AOT_stimuli/rescaled_final/0431_fw.mp4	0.0	312.1042160987854	2.5086798667907715
66	288.0774211883545	pulse	1	t		64.0	2.5	/experiments/knapen_AOT/AOT_stimuli/rescaled_final/0431_fw.mp4	0.0	313.697389125824	
66	288.9929280281067	fix_post	2		12	64.0	2.5	/experiments/knapen_AOT/AOT_stimuli/rescaled_final/0431_fw.mp4	0.0	314.6128959655762	0.10000109672546387
67	289.09292912483215	fix_pre	0		120	65.0	2.5	/experiments/knapen_AOT/AOT_stimuli/rescaled_final/0058_rv.mp4	0.0	314.71289706230164	1.0001749992370605
67	289.67661213874817	pulse	0	t		65.0	2.5	/experiments/knapen_AOT/AOT_stimuli/rescaled_final/0058_rv.mp4	0.0	315.29658007621765	
67	290.0931041240692	movie	1		242	65.0	2.5	/experiments/knapen_AOT/AOT_stimuli/rescaled_final/0058_rv.mp4	0.0	315.7130720615387	2.500485897064209
67	291.27688813209534	pulse	1	t		65.0	2.5	/experiments/knapen_AOT/AOT_stimuli/rescaled_final/0058_rv.mp4	0.0	316.8968560695648	
67	292.5935900211334	fix_post	2		12	65.0	2.5	/experiments/knapen_AOT/AOT_stimuli/rescaled_final/0058_rv.mp4	0.0	318.2135579586029	0.09988903999328613
68	292.6934790611267	fix_pre	0		120	66.0	2.5	/experiments/knapen_AOT/AOT_stimuli/rescaled_final/0747_fw.mp4	0.0	318.3134469985962	1.0001730918884277
68	292.87713599205017	pulse	0	t		66.0	2.5	/experiments/knapen_AOT/AOT_stimuli/rescaled_final/0747_fw.mp4	0.0	318.49710392951965	
68	293.69365215301514	movie	1		243	66.0	2.5	/experiments/knapen_AOT/AOT_stimuli/rescaled_final/0747_fw.mp4	0.0	319.3136200904846	2.500375986099243
68	294.4700970649719	pulse	1	t		66.0	2.5	/experiments/knapen_AOT/AOT_stimuli/rescaled_final/0747_fw.mp4	0.0	320.0900650024414	
68	296.07761907577515	pulse	1	t		66.0	2.5	/experiments/knapen_AOT/AOT_stimuli/rescaled_final/0747_fw.mp4	0.0	321.69758701324463	
68	296.1940281391144	fix_post	2		12	66.0	2.5	/experiments/knapen_AOT/AOT_stimuli/rescaled_final/0747_fw.mp4	0.0	321.81399607658386	0.09995794296264648
69	296.293986082077	fix_pre	0		120	67.0	2.5	/experiments/knapen_AOT/AOT_stimuli/rescaled_final/1414_fw.mp4	0.0	321.9139540195465	1.0001749992370605
69	297.2941610813141	movie	1		243	67.0	2.5	/experiments/knapen_AOT/AOT_stimuli/rescaled_final/1414_fw.mp4	0.0	322.91412901878357	2.492039918899536
69	297.67834210395813	pulse	1	t		67.0	2.5	/experiments/knapen_AOT/AOT_stimuli/rescaled_final/1414_fw.mp4	0.0	323.2983100414276	
69	299.2706551551819	pulse	1	t		67.0	2.5	/experiments/knapen_AOT/AOT_stimuli/rescaled_final/1414_fw.mp4	0.0	324.89062309265137	
69	299.7862010002136	fix_post	2		12	67.0	2.5	/experiments/knapen_AOT/AOT_stimuli/rescaled_final/1414_fw.mp4	0.0	325.4061689376831	0.10001301765441895
70	299.88621401786804	fix_pre	0		119	68.0	2.5	blank	1.0	325.5061819553375	0.991811990737915
70	300.8700270652771	pulse	0	t		68.0	2.5	blank	1.0	326.4899950027466	
70	300.87802600860596	movie	1		301	68.0	2.5	blank	1.0	326.49799394607544	2.5087270736694336
70	302.47018814086914	pulse	1	t		68.0	2.5	blank	1.0	328.0901560783386	
70	303.3867530822754	fix_post	2		12	68.0	2.5	blank	1.0	329.0067210197449	0.09999895095825195
71	303.48675203323364	fix_pre	0		120	69.0	2.5	/experiments/knapen_AOT/AOT_stimuli/rescaled_final/0655_fw.mp4	0.0	329.1067199707031	1.0001261234283447
71	304.07036209106445	pulse	0	t		69.0	2.5	/experiments/knapen_AOT/AOT_stimuli/rescaled_final/0655_fw.mp4	0.0	329.69033002853394	
71	304.486878156662	movie	1		246	69.0	2.5	/experiments/knapen_AOT/AOT_stimuli/rescaled_final/0655_fw.mp4	0.0	330.10684609413147	2.500516891479492
71	305.67069816589355	pulse	1	t		69.0	2.5	/experiments/knapen_AOT/AOT_stimuli/rescaled_final/0655_fw.mp4	0.0	331.29066610336304	
71	306.9873950481415	fix_post	2		12	69.0	2.5	/experiments/knapen_AOT/AOT_stimuli/rescaled_final/0655_fw.mp4	0.0	332.60736298561096	0.09991598129272461
72	307.0873110294342	fix_pre	0		120	70.0	2.5	/experiments/knapen_AOT/AOT_stimuli/rescaled_final/0404_rv.mp4	0.0	332.7072789669037	1.0001821517944336
72	307.27093720436096	pulse	0	t		70.0	2.5	/experiments/knapen_AOT/AOT_stimuli/rescaled_final/0404_rv.mp4	0.0	332.89090514183044	
72	308.08749318122864	movie	1		244	70.0	2.5	/experiments/knapen_AOT/AOT_stimuli/rescaled_final/0404_rv.mp4	0.0	333.7074611186981	2.5003390312194824
72	308.87113404273987	pulse	1	t		70.0	2.5	/experiments/knapen_AOT/AOT_stimuli/rescaled_final/0404_rv.mp4	0.0	334.49110198020935	
72	310.47142910957336	pulse	1	t		70.0	2.5	/experiments/knapen_AOT/AOT_stimuli/rescaled_final/0404_rv.mp4	0.0	336.09139704704285	
72	310.5878322124481	fix_post	2		12	70.0	2.5	/experiments/knapen_AOT/AOT_stimuli/rescaled_final/0404_rv.mp4	0.0	336.2078001499176	0.09996676445007324
73	310.6877989768982	fix_pre	0		120	71.0	2.5	/experiments/knapen_AOT/AOT_stimuli/rescaled_final/0275_fw.mp4	0.0	336.3077669143677	1.0002710819244385
73	311.68807005882263	movie	1		244	71.0	2.5	/experiments/knapen_AOT/AOT_stimuli/rescaled_final/0275_fw.mp4	0.0	337.3080379962921	2.4919581413269043
73	312.07188510894775	pulse	1	t		71.0	2.5	/experiments/knapen_AOT/AOT_stimuli/rescaled_final/0275_fw.mp4	0.0	337.69185304641724	
73	313.6718850135803	pulse	1	t		71.0	2.5	/experiments/knapen_AOT/AOT_stimuli/rescaled_final/0275_fw.mp4	0.0	339.2918529510498	
73	314.18002820014954	fix_post	2		12	71.0	2.5	/experiments/knapen_AOT/AOT_stimuli/rescaled_final/0275_fw.mp4	0.0	339.799996137619	0.09997987747192383
74	314.28000807762146	fix_pre	0		120	72.0	2.5	/experiments/knapen_AOT/AOT_stimuli/rescaled_final/1789_rv.mp4	0.0	339.89997601509094	1.0001509189605713
74	315.2720420360565	pulse	0	t		72.0	2.5	/experiments/knapen_AOT/AOT_stimuli/rescaled_final/1789_rv.mp4	0.0	340.892009973526	
74	315.28015899658203	movie	1		248	72.0	2.5	/experiments/knapen_AOT/AOT_stimuli/rescaled_final/1789_rv.mp4	0.0	340.9001269340515	2.5086920261383057
74	316.8728940486908	pulse	1	t		72.0	2.5	/experiments/knapen_AOT/AOT_stimuli/rescaled_final/1789_rv.mp4	0.0	342.4928619861603	
74	317.78885102272034	fix_post	2		12	72.0	2.5	/experiments/knapen_AOT/AOT_stimuli/rescaled_final/1789_rv.mp4	0.0	343.4088189601898	0.10002708435058594
75	317.8888781070709	fix_pre	0		120	73.0	2.5	/experiments/knapen_AOT/AOT_stimuli/rescaled_final/1883_fw.mp4	0.0	343.5088460445404	1.0001840591430664
75	318.47255301475525	pulse	0	t		73.0	2.5	/experiments/knapen_AOT/AOT_stimuli/rescaled_final/1883_fw.mp4	0.0	344.09252095222473	
75	318.889062166214	movie	1		246	73.0	2.5	/experiments/knapen_AOT/AOT_stimuli/rescaled_final/1883_fw.mp4	0.0	344.5090301036835	2.500314950942993
75	320.0728511810303	pulse	1	t		73.0	2.5	/experiments/knapen_AOT/AOT_stimuli/rescaled_final/1883_fw.mp4	0.0	345.69281911849976	
75	321.389377117157	fix_post	2		12	73.0	2.5	/experiments/knapen_AOT/AOT_stimuli/rescaled_final/1883_fw.mp4	0.0	347.00934505462646	0.10005402565002441
76	321.489431142807	fix_pre	0		120	74.0	2.5	/experiments/knapen_AOT/AOT_stimuli/rescaled_final/2147_rv.mp4	0.0	347.1093990802765	1.0002110004425049
76	321.673063993454	pulse	0	t		74.0	2.5	/experiments/knapen_AOT/AOT_stimuli/rescaled_final/2147_rv.mp4	0.0	347.29303193092346	
76	322.4896421432495	movie	1		246	74.0	2.5	/experiments/knapen_AOT/AOT_stimuli/rescaled_final/2147_rv.mp4	0.0	348.109610080719	2.5003199577331543
76	323.27321910858154	pulse	1	t		74.0	2.5	/experiments/knapen_AOT/AOT_stimuli/rescaled_final/2147_rv.mp4	0.0	348.893187046051	
76	324.8735511302948	pulse	1	t		74.0	2.5	/experiments/knapen_AOT/AOT_stimuli/rescaled_final/2147_rv.mp4	0.0	350.4935190677643	
76	324.98996210098267	fix_post	2		12	74.0	2.5	/experiments/knapen_AOT/AOT_stimuli/rescaled_final/2147_rv.mp4	0.0	350.60993003845215	0.09999704360961914
77	325.0899591445923	fix_pre	0		120	75.0	2.5	/experiments/knapen_AOT/AOT_stimuli/rescaled_final/0324_fw.mp4	0.0	350.70992708206177	1.000143051147461
77	326.09010219573975	movie	1		243	75.0	2.5	/experiments/knapen_AOT/AOT_stimuli/rescaled_final/0324_fw.mp4	0.0	351.71007013320923	2.4920108318328857
77	326.4740550518036	pulse	1	t		75.0	2.5	/experiments/knapen_AOT/AOT_stimuli/rescaled_final/0324_fw.mp4	0.0	352.09402298927307	
77	328.07404017448425	pulse	1	t		75.0	2.5	/experiments/knapen_AOT/AOT_stimuli/rescaled_final/0324_fw.mp4	0.0	353.69400811195374	
77	328.58211302757263	fix_post	2		12	75.0	2.5	/experiments/knapen_AOT/AOT_stimuli/rescaled_final/0324_fw.mp4	0.0	354.2020809650421	0.10013008117675781
78	328.6822431087494	fix_pre	0		120	76.0	2.5	blank	1.0	354.3022110462189	1.0000810623168945
78	329.67423009872437	pulse	0	t		76.0	2.5	blank	1.0	355.29419803619385	
78	329.6823241710663	movie	1		301	76.0	2.5	blank	1.0	355.30229210853577	2.508723020553589
78	331.27454710006714	pulse	1	t		76.0	2.5	blank	1.0	356.8945150375366	
78	332.1910471916199	fix_post	2		12	76.0	2.5	blank	1.0	357.81101512908936	0.0999748706817627
79	332.29102206230164	fix_pre	0		120	77.0	2.5	/experiments/knapen_AOT/AOT_stimuli/rescaled_final/0490_fw.mp4	0.0	357.9109899997711	1.000201940536499
79	332.87479305267334	pulse	0	t		77.0	2.5	/experiments/knapen_AOT/AOT_stimuli/rescaled_final/0490_fw.mp4	0.0	358.4947609901428	
79	333.29122400283813	movie	1		245	77.0	2.5	/experiments/knapen_AOT/AOT_stimuli/rescaled_final/0490_fw.mp4	0.0	358.9111919403076	2.5003371238708496
79	334.4749710559845	pulse	1	t		77.0	2.5	/experiments/knapen_AOT/AOT_stimuli/rescaled_final/0490_fw.mp4	0.0	360.094938993454	
79	335.791561126709	fix_post	2		12	77.0	2.5	/experiments/knapen_AOT/AOT_stimuli/rescaled_final/0490_fw.mp4	0.0	361.41152906417847	0.10001492500305176
80	335.89157605171204	fix_pre	0		120	78.0	2.5	/experiments/knapen_AOT/AOT_stimuli/rescaled_final/0629_fw.mp4	0.0	361.5115439891815	1.0001821517944336
80	336.0751140117645	pulse	0	t		78.0	2.5	/experiments/knapen_AOT/AOT_stimuli/rescaled_final/0629_fw.mp4	0.0	361.695081949234	
80	336.89175820350647	movie	1		246	78.0	2.5	/experiments/knapen_AOT/AOT_stimuli/rescaled_final/0629_fw.mp4	0.0	362.51172614097595	2.5003209114074707
80	337.67539501190186	pulse	1	t		78.0	2.5	/experiments/knapen_AOT/AOT_stimuli/rescaled_final/0629_fw.mp4	0.0	363.29536294937134	
80	339.27573013305664	pulse	1	t		78.0	2.5	/experiments/knapen_AOT/AOT_stimuli/rescaled_final/0629_fw.mp4	0.0	364.8956980705261	
80	339.39207911491394	fix_post	2		12	78.0	2.5	/experiments/knapen_AOT/AOT_stimuli/rescaled_final/0629_fw.mp4	0.0	365.0120470523834	0.10003495216369629
81	339.49211406707764	fix_pre	0		120	79.0	2.5	/experiments/knapen_AOT/AOT_stimuli/rescaled_final/0614_fw.mp4	0.0	365.1120820045471	1.000162124633789
81	340.4922761917114	movie	1		244	79.0	2.5	/experiments/knapen_AOT/AOT_stimuli/rescaled_final/0614_fw.mp4	0.0	366.1122441291809	2.4920268058776855
81	340.87637305259705	pulse	1	t		79.0	2.5	/experiments/knapen_AOT/AOT_stimuli/rescaled_final/0614_fw.mp4	0.0	366.4963409900665	
81	342.4761550426483	pulse	1	t		79.0	2.5	/experiments/knapen_AOT/AOT_stimuli/rescaled_final/0614_fw.mp4	0.0	368.0961229801178	
81	342.9843029975891	fix_post	2		12	79.0	2.5	/experiments/knapen_AOT/AOT_stimuli/rescaled_final/0614_fw.mp4	0.0	368.6042709350586	0.10003209114074707
82	343.08433508872986	fix_pre	0		120	80.0	2.5	/experiments/knapen_AOT/AOT_stimuli/rescaled_final/0170_rv.mp4	0.0	368.70430302619934	1.0001399517059326
82	344.0764081478119	pulse	0	t		80.0	2.5	/experiments/knapen_AOT/AOT_stimuli/rescaled_final/0170_rv.mp4	0.0	369.6963760852814	
82	344.0844750404358	movie	1		246	80.0	2.5	/experiments/knapen_AOT/AOT_stimuli/rescaled_final/0170_rv.mp4	0.0	369.7044429779053	2.508721113204956
82	345.6768560409546	pulse	1	t		80.0	2.5	/experiments/knapen_AOT/AOT_stimuli/rescaled_final/0170_rv.mp4	0.0	371.2968239784241	
82	346.59319615364075	fix_post	2		12	80.0	2.5	/experiments/knapen_AOT/AOT_stimuli/rescaled_final/0170_rv.mp4	0.0	372.21316409111023	0.09998703002929688
83	346.69318318367004	fix_pre	0		120	81.0	2.5	/experiments/knapen_AOT/AOT_stimuli/rescaled_final/0482_fw.mp4	0.0	372.3131511211395	1.0002529621124268
83	347.2694251537323	pulse	0	t		81.0	2.5	/experiments/knapen_AOT/AOT_stimuli/rescaled_final/0482_fw.mp4	0.0	372.8893930912018	
83	347.69343614578247	movie	1		243	81.0	2.5	/experiments/knapen_AOT/AOT_stimuli/rescaled_final/0482_fw.mp4	0.0	373.31340408325195	2.500269889831543
83	348.8772220611572	pulse	1	t		81.0	2.5	/experiments/knapen_AOT/AOT_stimuli/rescaled_final/0482_fw.mp4	0.0	374.4971899986267	
83	350.193706035614	fix_post	2		12	81.0	2.5	/experiments/knapen_AOT/AOT_stimuli/rescaled_final/0482_fw.mp4	0.0	375.8136739730835	0.1000211238861084
84	350.2937271595001	fix_pre	0		120	82.0	2.5	/experiments/knapen_AOT/AOT_stimuli/rescaled_final/0256_rv.mp4	0.0	375.9136950969696	1.0001718997955322
84	350.4698371887207	pulse	0	t		82.0	2.5	/experiments/knapen_AOT/AOT_stimuli/rescaled_final/0256_rv.mp4	0.0	376.0898051261902	
84	351.29389905929565	movie	1		244	82.0	2.5	/experiments/knapen_AOT/AOT_stimuli/rescaled_final/0256_rv.mp4	0.0	376.91386699676514	2.500576972961426
84	352.07016110420227	pulse	1	t		82.0	2.5	/experiments/knapen_AOT/AOT_stimuli/rescaled_final/0256_rv.mp4	0.0	377.69012904167175	
84	353.6776611804962	pulse	1	t		82.0	2.5	/experiments/knapen_AOT/AOT_stimuli/rescaled_final/0256_rv.mp4	0.0	379.2976291179657	
84	353.7944760322571	fix_post	2		10	82.0	2.5	/experiments/knapen_AOT/AOT_stimuli/rescaled_final/0256_rv.mp4	0.0	379.41444396972656	0.09984612464904785
85	353.8943221569061	fix_pre	0		120	83.0	2.5	blank	1.0	379.5142900943756	1.0002720355987549
85	354.8945941925049	movie	1		299	83.0	2.5	blank	1.0	380.51456212997437	2.491919994354248
85	355.26989817619324	pulse	1	t		83.0	2.5	blank	1.0	380.8898661136627	
85	356.8698492050171	pulse	1	t		83.0	2.5	blank	1.0	382.4898171424866	
85	357.38651418685913	fix_post	2		12	83.0	2.5	blank	1.0	383.0064821243286	0.09997296333312988
87	357.48648715019226	stim	0		1716					383.10645508766174	14.302223920822144
87	358.4701340198517	pulse	0	t						384.09010195732117	
87	360.0703241825104	pulse	0	t						385.69029211997986	
87	361.67066502571106	pulse	0	t						387.29063296318054	
87	363.2709581851959	pulse	0	t						388.8909261226654	
87	364.8711590766907	pulse	0	t						390.49112701416016	
87	366.4712882041931	pulse	0	t						392.0912561416626	
87	368.071631193161	pulse	0	t						393.6915991306305	
87	369.67190504074097	pulse	0	t						395.29187297821045	
87	371.27207612991333	pulse	0	t						396.8920440673828	
