trial_nr	onset	event_type	phase	response	nr_frames	movie_index	movie_duration	movie_file	blank	onset_abs	duration
0	0.17469525337219238	stim	0		19					17.23013401031494	0.15820860862731934
0	0.3251981735229492	response	0	space						17.3806369304657	
1	0.3329038619995117	stim	0		4514					17.38834261894226	37.63546419143677
1	37.953120946884155	pulse	0	t						55.008559703826904	
1	37.96836805343628	stim	1		1714					55.02380681037903	14.297380447387695
1	39.54734420776367	pulse	1	t						56.60278296470642	
1	41.147650957107544	pulse	1	t						58.20308971405029	
1	42.74782109260559	pulse	1	t						59.80325984954834	
1	44.34809494018555	pulse	1	t						61.403533697128296	
1	45.94830846786499	pulse	1	t						63.00374722480774	
1	47.548569440841675	pulse	1	t						64.60400819778442	
1	49.149094581604004	pulse	1	t						66.20453333854675	
1	50.7491180896759	pulse	1	t						67.80455684661865	
2	52.265748500823975	fix_pre	0		11	0.0	2.5	/experiments/Knapen_AOT/AOT_stimuli/rescaled_final/1706_rv.mp4	0.0	69.32118725776672	0.10840582847595215
2	52.34962773323059	pulse	0	t		0.0	2.5	/experiments/Knapen_AOT/AOT_stimuli/rescaled_final/1706_rv.mp4	0.0	69.40506649017334	
2	52.37415432929993	movie	1		279	0.0	2.5	/experiments/Knapen_AOT/AOT_stimuli/rescaled_final/1706_rv.mp4	0.0	69.42959308624268	2.4919896125793457
2	53.94837665557861	pulse	1	t		0.0	2.5	/experiments/Knapen_AOT/AOT_stimuli/rescaled_final/1706_rv.mp4	0.0	71.00381541252136	
2	54.86614394187927	fix_post	2		12	0.0	2.5	/experiments/Knapen_AOT/AOT_stimuli/rescaled_final/1706_rv.mp4	0.0	71.92158269882202	0.10000157356262207
3	54.966145515441895	fix_pre	0		120	1.0	2.5	/experiments/Knapen_AOT/AOT_stimuli/rescaled_final/0060_fw.mp4	0.0	72.02158427238464	1.0084960460662842
3	55.55007290840149	pulse	0	t		1.0	2.5	/experiments/Knapen_AOT/AOT_stimuli/rescaled_final/0060_fw.mp4	0.0	72.60551166534424	
3	55.97464156150818	movie	1		282	1.0	2.5	/experiments/Knapen_AOT/AOT_stimuli/rescaled_final/0060_fw.mp4	0.0	73.03008031845093	2.4920308589935303
3	57.14829730987549	pulse	1	t		1.0	2.5	/experiments/Knapen_AOT/AOT_stimuli/rescaled_final/0060_fw.mp4	0.0	74.20373606681824	
3	58.46667242050171	fix_post	2		12	1.0	2.5	/experiments/Knapen_AOT/AOT_stimuli/rescaled_final/0060_fw.mp4	0.0	75.52211117744446	0.10003352165222168
4	58.56670594215393	fix_pre	0		120	2.0	2.5	/experiments/Knapen_AOT/AOT_stimuli/rescaled_final/0925_fw.mp4	0.0	75.62214469909668	1.0084826946258545
4	58.750322341918945	pulse	0	t		2.0	2.5	/experiments/Knapen_AOT/AOT_stimuli/rescaled_final/0925_fw.mp4	0.0	75.8057610988617	
4	59.575188636779785	movie	1		286	2.0	2.5	/experiments/Knapen_AOT/AOT_stimuli/rescaled_final/0925_fw.mp4	0.0	76.63062739372253	2.492042064666748
4	60.34866762161255	pulse	1	t		2.0	2.5	/experiments/Knapen_AOT/AOT_stimuli/rescaled_final/0925_fw.mp4	0.0	77.4041063785553	
4	61.948710203170776	pulse	1	t		2.0	2.5	/experiments/Knapen_AOT/AOT_stimuli/rescaled_final/0925_fw.mp4	0.0	79.00414896011353	
4	62.06723070144653	fix_post	2		12	2.0	2.5	/experiments/Knapen_AOT/AOT_stimuli/rescaled_final/0925_fw.mp4	0.0	79.12266945838928	0.10007023811340332
5	62.16730093955994	fix_pre	0		120	3.0	2.5	/experiments/Knapen_AOT/AOT_stimuli/rescaled_final/1753_rv.mp4	0.0	79.22273969650269	1.008441686630249
5	63.175742626190186	movie	1		283	3.0	2.5	/experiments/Knapen_AOT/AOT_stimuli/rescaled_final/1753_rv.mp4	0.0	80.23118138313293	2.4920201301574707
5	63.549689292907715	pulse	1	t		3.0	2.5	/experiments/Knapen_AOT/AOT_stimuli/rescaled_final/1753_rv.mp4	0.0	80.60512804985046	
5	65.14954423904419	pulse	1	t		3.0	2.5	/experiments/Knapen_AOT/AOT_stimuli/rescaled_final/1753_rv.mp4	0.0	82.20498299598694	
5	65.66776275634766	fix_post	2		12	3.0	2.5	/experiments/Knapen_AOT/AOT_stimuli/rescaled_final/1753_rv.mp4	0.0	82.7232015132904	0.10008573532104492
6	65.7678484916687	fix_pre	0		119	4.0	2.5	/experiments/Knapen_AOT/AOT_stimuli/rescaled_final/1707_rv.mp4	0.0	82.82328724861145	1.0000877380371094
6	66.75145888328552	pulse	0	t		4.0	2.5	/experiments/Knapen_AOT/AOT_stimuli/rescaled_final/1707_rv.mp4	0.0	83.80689764022827	
6	66.76793622970581	movie	1		278	4.0	2.5	/experiments/Knapen_AOT/AOT_stimuli/rescaled_final/1707_rv.mp4	0.0	83.82337498664856	2.5004053115844727
6	68.3499960899353	pulse	1	t		4.0	2.5	/experiments/Knapen_AOT/AOT_stimuli/rescaled_final/1707_rv.mp4	0.0	85.40543484687805	
6	69.26834154129028	fix_post	2		12	4.0	2.5	/experiments/Knapen_AOT/AOT_stimuli/rescaled_final/1707_rv.mp4	0.0	86.32378029823303	0.09998273849487305
7	69.36832427978516	fix_pre	0		120	5.0	2.5	blank	1.0	86.4237630367279	1.000128984451294
7	69.95200848579407	pulse	0	t		5.0	2.5	blank	1.0	87.00744724273682	
7	70.36845326423645	movie	1		300	5.0	2.5	blank	1.0	87.4238920211792	2.5004327297210693
7	71.55221176147461	pulse	1	t		5.0	2.5	blank	1.0	88.60765051841736	
7	72.86888599395752	fix_post	2		12	5.0	2.5	blank	1.0	89.92432475090027	0.1000216007232666
8	72.96890759468079	fix_pre	0		120	6.0	2.5	/experiments/Knapen_AOT/AOT_stimuli/rescaled_final/1597_fw.mp4	0.0	90.02434635162354	1.0084388256072998
8	73.1524670124054	pulse	0	t		6.0	2.5	/experiments/Knapen_AOT/AOT_stimuli/rescaled_final/1597_fw.mp4	0.0	90.20790576934814	
8	73.97734642028809	movie	1		275	6.0	2.5	/experiments/Knapen_AOT/AOT_stimuli/rescaled_final/1597_fw.mp4	0.0	91.03278517723083	2.4920494556427
8	74.75258612632751	pulse	1	t		6.0	2.5	/experiments/Knapen_AOT/AOT_stimuli/rescaled_final/1597_fw.mp4	0.0	91.80802488327026	
8	76.35098338127136	pulse	1	t		6.0	2.5	/experiments/Knapen_AOT/AOT_stimuli/rescaled_final/1597_fw.mp4	0.0	93.40642213821411	
8	76.46939587593079	fix_post	2		12	6.0	2.5	/experiments/Knapen_AOT/AOT_stimuli/rescaled_final/1597_fw.mp4	0.0	93.52483463287354	0.10001635551452637
9	76.56941223144531	fix_pre	0		120	7.0	2.5	/experiments/Knapen_AOT/AOT_stimuli/rescaled_final/0932_fw.mp4	0.0	93.62485098838806	1.008521556854248
9	77.57793378829956	movie	1		293	7.0	2.5	/experiments/Knapen_AOT/AOT_stimuli/rescaled_final/0932_fw.mp4	0.0	94.63337254524231	2.4920098781585693
9	77.95150756835938	pulse	1	t		7.0	2.5	/experiments/Knapen_AOT/AOT_stimuli/rescaled_final/0932_fw.mp4	0.0	95.00694632530212	
9	79.55123376846313	pulse	1	t		7.0	2.5	/experiments/Knapen_AOT/AOT_stimuli/rescaled_final/0932_fw.mp4	0.0	96.60667252540588	
9	80.06994366645813	fix_post	2		12	7.0	2.5	/experiments/Knapen_AOT/AOT_stimuli/rescaled_final/0932_fw.mp4	0.0	97.12538242340088	0.1000213623046875
10	80.16996502876282	fix_pre	0		119	8.0	2.5	/experiments/Knapen_AOT/AOT_stimuli/rescaled_final/0291_rv.mp4	0.0	97.22540378570557	1.0001342296600342
10	81.15369486808777	pulse	0	t		8.0	2.5	/experiments/Knapen_AOT/AOT_stimuli/rescaled_final/0291_rv.mp4	0.0	98.20913362503052	
10	81.17009925842285	movie	1		286	8.0	2.5	/experiments/Knapen_AOT/AOT_stimuli/rescaled_final/0291_rv.mp4	0.0	98.2255380153656	2.5003700256347656
10	82.75378084182739	pulse	1	t		8.0	2.5	/experiments/Knapen_AOT/AOT_stimuli/rescaled_final/0291_rv.mp4	0.0	99.80921959877014	
10	83.67046928405762	fix_post	2		12	8.0	2.5	/experiments/Knapen_AOT/AOT_stimuli/rescaled_final/0291_rv.mp4	0.0	100.72590804100037	0.10001564025878906
11	83.7704849243164	fix_pre	0		120	9.0	2.5	/experiments/Knapen_AOT/AOT_stimuli/rescaled_final/1609_rv.mp4	0.0	100.82592368125916	1.0085325241088867
11	84.35412883758545	pulse	0	t		9.0	2.5	/experiments/Knapen_AOT/AOT_stimuli/rescaled_final/1609_rv.mp4	0.0	101.4095675945282	
11	84.7790174484253	movie	1		268	9.0	2.5	/experiments/Knapen_AOT/AOT_stimuli/rescaled_final/1609_rv.mp4	0.0	101.83445620536804	2.492002487182617
11	85.95269227027893	pulse	1	t		9.0	2.5	/experiments/Knapen_AOT/AOT_stimuli/rescaled_final/1609_rv.mp4	0.0	103.00813102722168	
11	87.27101993560791	fix_post	2		12	9.0	2.5	/experiments/Knapen_AOT/AOT_stimuli/rescaled_final/1609_rv.mp4	0.0	104.32645869255066	0.1000058650970459
12	87.37102580070496	fix_pre	0		120	10.0	2.5	/experiments/Knapen_AOT/AOT_stimuli/rescaled_final/0922_fw.mp4	0.0	104.4264645576477	1.0085549354553223
12	87.55462288856506	pulse	0	t		10.0	2.5	/experiments/Knapen_AOT/AOT_stimuli/rescaled_final/0922_fw.mp4	0.0	104.61006164550781	
12	88.37958073616028	movie	1		284	10.0	2.5	/experiments/Knapen_AOT/AOT_stimuli/rescaled_final/0922_fw.mp4	0.0	105.43501949310303	2.4919676780700684
12	89.1528811454773	pulse	1	t		10.0	2.5	/experiments/Knapen_AOT/AOT_stimuli/rescaled_final/0922_fw.mp4	0.0	106.20831990242004	
12	90.75313925743103	pulse	1	t		10.0	2.5	/experiments/Knapen_AOT/AOT_stimuli/rescaled_final/0922_fw.mp4	0.0	107.80857801437378	
12	90.87154841423035	fix_post	2		12	10.0	2.5	/experiments/Knapen_AOT/AOT_stimuli/rescaled_final/0922_fw.mp4	0.0	107.9269871711731	0.10001897811889648
13	90.97156739234924	fix_pre	0		120	11.0	2.5	/experiments/Knapen_AOT/AOT_stimuli/rescaled_final/1147_fw.mp4	0.0	108.02700614929199	1.008497714996338
13	91.98006510734558	movie	1		281	11.0	2.5	/experiments/Knapen_AOT/AOT_stimuli/rescaled_final/1147_fw.mp4	0.0	109.03550386428833	2.4921975135803223
13	92.35358548164368	pulse	1	t		11.0	2.5	/experiments/Knapen_AOT/AOT_stimuli/rescaled_final/1147_fw.mp4	0.0	109.40902423858643	
13	93.95345997810364	pulse	1	t		11.0	2.5	/experiments/Knapen_AOT/AOT_stimuli/rescaled_final/1147_fw.mp4	0.0	111.00889873504639	
13	94.4722626209259	fix_post	2		12	11.0	2.5	/experiments/Knapen_AOT/AOT_stimuli/rescaled_final/1147_fw.mp4	0.0	111.52770137786865	0.0998377799987793
14	94.57210040092468	fix_pre	0		118	12.0	2.5	/experiments/Knapen_AOT/AOT_stimuli/rescaled_final/1030_rv.mp4	0.0	111.62753915786743	0.991865873336792
14	95.54788780212402	pulse	0	t		12.0	2.5	/experiments/Knapen_AOT/AOT_stimuli/rescaled_final/1030_rv.mp4	0.0	112.60332655906677	
14	95.56396627426147	movie	1		278	12.0	2.5	/experiments/Knapen_AOT/AOT_stimuli/rescaled_final/1030_rv.mp4	0.0	112.61940503120422	2.500365734100342
14	97.14775013923645	pulse	1	t		12.0	2.5	/experiments/Knapen_AOT/AOT_stimuli/rescaled_final/1030_rv.mp4	0.0	114.2031888961792	
14	98.06433200836182	fix_post	2		12	12.0	2.5	/experiments/Knapen_AOT/AOT_stimuli/rescaled_final/1030_rv.mp4	0.0	115.11977076530457	0.0999917984008789
15	98.1643238067627	fix_pre	0		120	13.0	2.5	blank	1.0	115.21976256370544	1.0001497268676758
15	98.74795269966125	pulse	0	t		13.0	2.5	blank	1.0	115.803391456604	
15	99.16447353363037	movie	1		300	13.0	2.5	blank	1.0	116.21991229057312	2.5003623962402344
15	100.34831070899963	pulse	1	t		13.0	2.5	blank	1.0	117.40374946594238	
15	101.6648359298706	fix_post	2		12	13.0	2.5	blank	1.0	118.72027468681335	0.10003495216369629
16	101.7648708820343	fix_pre	0		120	14.0	2.5	/experiments/Knapen_AOT/AOT_stimuli/rescaled_final/0421_fw.mp4	0.0	118.82030963897705	1.0084779262542725
16	101.94875693321228	pulse	0	t		14.0	2.5	/experiments/Knapen_AOT/AOT_stimuli/rescaled_final/0421_fw.mp4	0.0	119.00419569015503	
16	102.77334880828857	movie	1		273	14.0	2.5	/experiments/Knapen_AOT/AOT_stimuli/rescaled_final/0421_fw.mp4	0.0	119.82878756523132	2.492063283920288
16	103.54869365692139	pulse	1	t		14.0	2.5	/experiments/Knapen_AOT/AOT_stimuli/rescaled_final/0421_fw.mp4	0.0	120.60413241386414	
16	105.14720034599304	pulse	1	t		14.0	2.5	/experiments/Knapen_AOT/AOT_stimuli/rescaled_final/0421_fw.mp4	0.0	122.20263910293579	
16	105.26541209220886	fix_post	2		12	14.0	2.5	/experiments/Knapen_AOT/AOT_stimuli/rescaled_final/0421_fw.mp4	0.0	122.32085084915161	0.10004854202270508
17	105.36546063423157	fix_pre	0		120	15.0	2.5	/experiments/Knapen_AOT/AOT_stimuli/rescaled_final/1706_fw.mp4	0.0	122.42089939117432	1.008451223373413
17	106.37391185760498	movie	1		285	15.0	2.5	/experiments/Knapen_AOT/AOT_stimuli/rescaled_final/1706_fw.mp4	0.0	123.42935061454773	2.492046356201172
17	106.7472505569458	pulse	1	t		15.0	2.5	/experiments/Knapen_AOT/AOT_stimuli/rescaled_final/1706_fw.mp4	0.0	123.80268931388855	
17	108.34729027748108	pulse	1	t		15.0	2.5	/experiments/Knapen_AOT/AOT_stimuli/rescaled_final/1706_fw.mp4	0.0	125.40272903442383	
17	108.86595821380615	fix_post	2		12	15.0	2.5	/experiments/Knapen_AOT/AOT_stimuli/rescaled_final/1706_fw.mp4	0.0	125.9213969707489	0.0999760627746582
18	108.96593427658081	fix_pre	0		119	16.0	2.5	/experiments/Knapen_AOT/AOT_stimuli/rescaled_final/1933_fw.mp4	0.0	126.02137303352356	1.0001404285430908
18	109.94973707199097	pulse	0	t		16.0	2.5	/experiments/Knapen_AOT/AOT_stimuli/rescaled_final/1933_fw.mp4	0.0	127.00517582893372	
18	109.9660747051239	movie	1		271	16.0	2.5	/experiments/Knapen_AOT/AOT_stimuli/rescaled_final/1933_fw.mp4	0.0	127.02151346206665	2.500399589538574
18	111.55006957054138	pulse	1	t		16.0	2.5	/experiments/Knapen_AOT/AOT_stimuli/rescaled_final/1933_fw.mp4	0.0	128.60550832748413	
18	112.46647429466248	fix_post	2		12	16.0	2.5	/experiments/Knapen_AOT/AOT_stimuli/rescaled_final/1933_fw.mp4	0.0	129.52191305160522	0.10000801086425781
19	112.56648230552673	fix_pre	0		120	17.0	2.5	/experiments/Knapen_AOT/AOT_stimuli/rescaled_final/0763_rv.mp4	0.0	129.62192106246948	1.0085194110870361
19	113.15012502670288	pulse	0	t		17.0	2.5	/experiments/Knapen_AOT/AOT_stimuli/rescaled_final/0763_rv.mp4	0.0	130.20556378364563	
19	113.57500171661377	movie	1		283	17.0	2.5	/experiments/Knapen_AOT/AOT_stimuli/rescaled_final/0763_rv.mp4	0.0	130.63044047355652	2.4920082092285156
19	114.74819374084473	pulse	1	t		17.0	2.5	/experiments/Knapen_AOT/AOT_stimuli/rescaled_final/0763_rv.mp4	0.0	131.80363249778748	
19	116.06700992584229	fix_post	2		12	17.0	2.5	/experiments/Knapen_AOT/AOT_stimuli/rescaled_final/0763_rv.mp4	0.0	133.12244868278503	0.10001802444458008
20	116.16702795028687	fix_pre	0		120	18.0	2.5	/experiments/Knapen_AOT/AOT_stimuli/rescaled_final/0224_fw.mp4	0.0	133.22246670722961	1.0085065364837646
20	116.35067439079285	pulse	0	t		18.0	2.5	/experiments/Knapen_AOT/AOT_stimuli/rescaled_final/0224_fw.mp4	0.0	133.4061131477356	
20	117.17553448677063	movie	1		284	18.0	2.5	/experiments/Knapen_AOT/AOT_stimuli/rescaled_final/0224_fw.mp4	0.0	134.23097324371338	2.4920504093170166
20	117.9485833644867	pulse	1	t		18.0	2.5	/experiments/Knapen_AOT/AOT_stimuli/rescaled_final/0224_fw.mp4	0.0	135.00402212142944	
20	119.54897570610046	pulse	1	t		18.0	2.5	/experiments/Knapen_AOT/AOT_stimuli/rescaled_final/0224_fw.mp4	0.0	136.6044144630432	
20	119.66758489608765	fix_post	2		12	18.0	2.5	/experiments/Knapen_AOT/AOT_stimuli/rescaled_final/0224_fw.mp4	0.0	136.7230236530304	0.09999918937683105
21	119.76758408546448	fix_pre	0		120	19.0	2.5	/experiments/Knapen_AOT/AOT_stimuli/rescaled_final/0075_fw.mp4	0.0	136.82302284240723	1.0085835456848145
21	120.77616763114929	movie	1		278	19.0	2.5	/experiments/Knapen_AOT/AOT_stimuli/rescaled_final/0075_fw.mp4	0.0	137.83160638809204	2.4919216632843018
21	121.14939904212952	pulse	1	t		19.0	2.5	/experiments/Knapen_AOT/AOT_stimuli/rescaled_final/0075_fw.mp4	0.0	138.20483779907227	
21	122.74970650672913	pulse	1	t		19.0	2.5	/experiments/Knapen_AOT/AOT_stimuli/rescaled_final/0075_fw.mp4	0.0	139.80514526367188	
21	123.2680892944336	fix_post	2		12	19.0	2.5	/experiments/Knapen_AOT/AOT_stimuli/rescaled_final/0075_fw.mp4	0.0	140.32352805137634	0.10006237030029297
22	123.36815166473389	fix_pre	0		119	20.0	2.5	blank	1.0	140.42359042167664	0.9917926788330078
22	124.35183143615723	pulse	0	t		20.0	2.5	blank	1.0	141.40727019309998	
22	124.3599443435669	movie	1		301	20.0	2.5	blank	1.0	141.41538310050964	2.5086803436279297
22	125.95204162597656	pulse	1	t		20.0	2.5	blank	1.0	143.0074803829193	
22	126.86862468719482	fix_post	2		12	20.0	2.5	blank	1.0	143.92406344413757	0.10001587867736816
23	126.96864056587219	fix_pre	0		120	21.0	2.5	/experiments/Knapen_AOT/AOT_stimuli/rescaled_final/1036_fw.mp4	0.0	144.02407932281494	1.008490800857544
23	127.55231547355652	pulse	0	t		21.0	2.5	/experiments/Knapen_AOT/AOT_stimuli/rescaled_final/1036_fw.mp4	0.0	144.60775423049927	
23	127.97713136672974	movie	1		283	21.0	2.5	/experiments/Knapen_AOT/AOT_stimuli/rescaled_final/1036_fw.mp4	0.0	145.03257012367249	2.4920639991760254
23	129.1510727405548	pulse	1	t		21.0	2.5	/experiments/Knapen_AOT/AOT_stimuli/rescaled_final/1036_fw.mp4	0.0	146.20651149749756	
23	130.46919536590576	fix_post	2		12	21.0	2.5	/experiments/Knapen_AOT/AOT_stimuli/rescaled_final/1036_fw.mp4	0.0	147.5246341228485	0.10001969337463379
24	130.5692150592804	fix_pre	0		120	22.0	2.5	/experiments/Knapen_AOT/AOT_stimuli/rescaled_final/0201_fw.mp4	0.0	147.62465381622314	1.0084781646728516
24	130.7527632713318	pulse	0	t		22.0	2.5	/experiments/Knapen_AOT/AOT_stimuli/rescaled_final/0201_fw.mp4	0.0	147.80820202827454	
24	131.57769322395325	movie	1		268	22.0	2.5	/experiments/Knapen_AOT/AOT_stimuli/rescaled_final/0201_fw.mp4	0.0	148.633131980896	2.492020845413208
24	132.35246682167053	pulse	1	t		22.0	2.5	/experiments/Knapen_AOT/AOT_stimuli/rescaled_final/0201_fw.mp4	0.0	149.40790557861328	
24	133.9511353969574	pulse	1	t		22.0	2.5	/experiments/Knapen_AOT/AOT_stimuli/rescaled_final/0201_fw.mp4	0.0	151.00657415390015	
24	134.06971406936646	fix_post	2		12	22.0	2.5	/experiments/Knapen_AOT/AOT_stimuli/rescaled_final/0201_fw.mp4	0.0	151.1251528263092	0.10003471374511719
25	134.16974878311157	fix_pre	0		120	23.0	2.5	/experiments/Knapen_AOT/AOT_stimuli/rescaled_final/0075_rv.mp4	0.0	151.22518754005432	1.0084989070892334
25	135.1782476902008	movie	1		269	23.0	2.5	/experiments/Knapen_AOT/AOT_stimuli/rescaled_final/0075_rv.mp4	0.0	152.23368644714355	2.492061138153076
25	135.55370473861694	pulse	1	t		23.0	2.5	/experiments/Knapen_AOT/AOT_stimuli/rescaled_final/0075_rv.mp4	0.0	152.6091434955597	
25	137.15368390083313	pulse	1	t		23.0	2.5	/experiments/Knapen_AOT/AOT_stimuli/rescaled_final/0075_rv.mp4	0.0	154.20912265777588	
25	137.67030882835388	fix_post	2		12	23.0	2.5	/experiments/Knapen_AOT/AOT_stimuli/rescaled_final/0075_rv.mp4	0.0	154.72574758529663	0.09997081756591797
26	137.7702796459198	fix_pre	0		119	24.0	2.5	/experiments/Knapen_AOT/AOT_stimuli/rescaled_final/1074_rv.mp4	0.0	154.82571840286255	1.0002384185791016
26	138.75397753715515	pulse	0	t		24.0	2.5	/experiments/Knapen_AOT/AOT_stimuli/rescaled_final/1074_rv.mp4	0.0	155.8094162940979	
26	138.7705180644989	movie	1		284	24.0	2.5	/experiments/Knapen_AOT/AOT_stimuli/rescaled_final/1074_rv.mp4	0.0	155.82595682144165	2.5003066062927246
26	140.352459192276	pulse	1	t		24.0	2.5	/experiments/Knapen_AOT/AOT_stimuli/rescaled_final/1074_rv.mp4	0.0	157.40789794921875	
26	141.27082467079163	fix_post	2		12	24.0	2.5	/experiments/Knapen_AOT/AOT_stimuli/rescaled_final/1074_rv.mp4	0.0	158.32626342773438	0.10000371932983398
27	141.37082839012146	fix_pre	0		120	25.0	2.5	/experiments/Knapen_AOT/AOT_stimuli/rescaled_final/1236_rv.mp4	0.0	158.4262671470642	1.0084974765777588
27	141.95447397232056	pulse	0	t		25.0	2.5	/experiments/Knapen_AOT/AOT_stimuli/rescaled_final/1236_rv.mp4	0.0	159.0099127292633	
27	142.37932586669922	movie	1		283	25.0	2.5	/experiments/Knapen_AOT/AOT_stimuli/rescaled_final/1236_rv.mp4	0.0	159.43476462364197	2.492016077041626
27	143.55362153053284	pulse	1	t		25.0	2.5	/experiments/Knapen_AOT/AOT_stimuli/rescaled_final/1236_rv.mp4	0.0	160.6090602874756	
27	144.87134194374084	fix_post	2		12	25.0	2.5	/experiments/Knapen_AOT/AOT_stimuli/rescaled_final/1236_rv.mp4	0.0	161.9267807006836	0.10000038146972656
28	144.97134232521057	fix_pre	0		120	26.0	2.5	/experiments/Knapen_AOT/AOT_stimuli/rescaled_final/2094_fw.mp4	0.0	162.02678108215332	1.0085716247558594
28	145.14821910858154	pulse	0	t		26.0	2.5	/experiments/Knapen_AOT/AOT_stimuli/rescaled_final/2094_fw.mp4	0.0	162.2036578655243	
28	145.97991394996643	movie	1		284	26.0	2.5	/experiments/Knapen_AOT/AOT_stimuli/rescaled_final/2094_fw.mp4	0.0	163.03535270690918	2.491978168487549
28	146.74722123146057	pulse	1	t		26.0	2.5	/experiments/Knapen_AOT/AOT_stimuli/rescaled_final/2094_fw.mp4	0.0	163.80265998840332	
28	148.34721684455872	pulse	1	t		26.0	2.5	/experiments/Knapen_AOT/AOT_stimuli/rescaled_final/2094_fw.mp4	0.0	165.40265560150146	
28	148.47189211845398	fix_post	2		12	26.0	2.5	/experiments/Knapen_AOT/AOT_stimuli/rescaled_final/2094_fw.mp4	0.0	165.52733087539673	0.10013604164123535
29	148.57202816009521	fix_pre	0		120	27.0	2.5	blank	1.0	165.62746691703796	1.0000250339508057
29	149.57205319404602	movie	1		300	27.0	2.5	blank	1.0	166.62749195098877	2.500373363494873
29	149.94767379760742	pulse	1	t		27.0	2.5	blank	1.0	167.00311255455017	
29	151.54787302017212	pulse	1	t		27.0	2.5	blank	1.0	168.60331177711487	
29	152.0724265575409	fix_post	2		12	27.0	2.5	blank	1.0	169.12786531448364	0.10012364387512207
30	152.17255020141602	fix_pre	0		118	28.0	2.5	/experiments/Knapen_AOT/AOT_stimuli/rescaled_final/1595_fw.mp4	0.0	169.22798895835876	0.9917101860046387
30	153.14778327941895	pulse	0	t		28.0	2.5	/experiments/Knapen_AOT/AOT_stimuli/rescaled_final/1595_fw.mp4	0.0	170.2032220363617	
30	153.16426038742065	movie	1		288	28.0	2.5	/experiments/Knapen_AOT/AOT_stimuli/rescaled_final/1595_fw.mp4	0.0	170.2196991443634	2.5003697872161865
30	154.7482213973999	pulse	1	t		28.0	2.5	/experiments/Knapen_AOT/AOT_stimuli/rescaled_final/1595_fw.mp4	0.0	171.80366015434265	
30	155.66463017463684	fix_post	2		12	28.0	2.5	/experiments/Knapen_AOT/AOT_stimuli/rescaled_final/1595_fw.mp4	0.0	172.7200689315796	0.1000823974609375
31	155.76471257209778	fix_pre	0		120	29.0	2.5	/experiments/Knapen_AOT/AOT_stimuli/rescaled_final/1706_fw.mp4	0.0	172.82015132904053	1.008488416671753
31	156.348370552063	pulse	0	t		29.0	2.5	/experiments/Knapen_AOT/AOT_stimuli/rescaled_final/1706_fw.mp4	0.0	173.40380930900574	
31	156.77320098876953	movie	1		274	29.0	2.5	/experiments/Knapen_AOT/AOT_stimuli/rescaled_final/1706_fw.mp4	0.0	173.82863974571228	2.4920547008514404
31	157.94849181175232	pulse	1	t		29.0	2.5	/experiments/Knapen_AOT/AOT_stimuli/rescaled_final/1706_fw.mp4	0.0	175.00393056869507	
31	159.26525568962097	fix_post	2		12	29.0	2.5	/experiments/Knapen_AOT/AOT_stimuli/rescaled_final/1706_fw.mp4	0.0	176.32069444656372	0.09997272491455078
32	159.36522841453552	fix_pre	0		120	30.0	2.5	/experiments/Knapen_AOT/AOT_stimuli/rescaled_final/1025_fw.mp4	0.0	176.42066717147827	1.008436918258667
32	159.54884552955627	pulse	0	t		30.0	2.5	/experiments/Knapen_AOT/AOT_stimuli/rescaled_final/1025_fw.mp4	0.0	176.60428428649902	
32	160.3736653327942	movie	1		285	30.0	2.5	/experiments/Knapen_AOT/AOT_stimuli/rescaled_final/1025_fw.mp4	0.0	177.42910408973694	2.5004167556762695
32	161.14928650856018	pulse	1	t		30.0	2.5	/experiments/Knapen_AOT/AOT_stimuli/rescaled_final/1025_fw.mp4	0.0	178.20472526550293	
32	162.74750208854675	pulse	1	t		30.0	2.5	/experiments/Knapen_AOT/AOT_stimuli/rescaled_final/1025_fw.mp4	0.0	179.8029408454895	
32	162.87408208847046	fix_post	2		11	30.0	2.5	/experiments/Knapen_AOT/AOT_stimuli/rescaled_final/1025_fw.mp4	0.0	179.9295208454132	0.09163904190063477
33	162.9657211303711	fix_pre	0		120	31.0	2.5	/experiments/Knapen_AOT/AOT_stimuli/rescaled_final/1269_fw.mp4	0.0	180.02115988731384	1.008523941040039
33	163.97424507141113	movie	1		278	31.0	2.5	/experiments/Knapen_AOT/AOT_stimuli/rescaled_final/1269_fw.mp4	0.0	181.02968382835388	2.4920573234558105
33	164.34778213500977	pulse	1	t		31.0	2.5	/experiments/Knapen_AOT/AOT_stimuli/rescaled_final/1269_fw.mp4	0.0	181.40322089195251	
33	165.9476399421692	pulse	1	t		31.0	2.5	/experiments/Knapen_AOT/AOT_stimuli/rescaled_final/1269_fw.mp4	0.0	183.00307869911194	
33	166.46630239486694	fix_post	2		12	31.0	2.5	/experiments/Knapen_AOT/AOT_stimuli/rescaled_final/1269_fw.mp4	0.0	183.5217411518097	0.100006103515625
34	166.56630849838257	fix_pre	0		119	32.0	2.5	/experiments/Knapen_AOT/AOT_stimuli/rescaled_final/1664_fw.mp4	0.0	183.62174725532532	1.0001003742218018
34	167.55007600784302	pulse	0	t		32.0	2.5	/experiments/Knapen_AOT/AOT_stimuli/rescaled_final/1664_fw.mp4	0.0	184.60551476478577	
34	167.56640887260437	movie	1		289	32.0	2.5	/experiments/Knapen_AOT/AOT_stimuli/rescaled_final/1664_fw.mp4	0.0	184.62184762954712	2.500392436981201
34	169.1487476825714	pulse	1	t		32.0	2.5	/experiments/Knapen_AOT/AOT_stimuli/rescaled_final/1664_fw.mp4	0.0	186.20418643951416	
34	170.06680130958557	fix_post	2		12	32.0	2.5	/experiments/Knapen_AOT/AOT_stimuli/rescaled_final/1664_fw.mp4	0.0	187.12224006652832	0.10002994537353516
35	170.1668312549591	fix_pre	0		120	33.0	2.5	blank	1.0	187.22227001190186	1.0001368522644043
35	170.75041675567627	pulse	0	t		33.0	2.5	blank	1.0	187.80585551261902	
35	171.1669681072235	movie	1		300	33.0	2.5	blank	1.0	188.22240686416626	2.500342607498169
35	172.3511061668396	pulse	1	t		33.0	2.5	blank	1.0	189.40654492378235	
35	173.66731071472168	fix_post	2		12	33.0	2.5	blank	1.0	190.72274947166443	0.10007214546203613
36	173.76738286018372	fix_pre	0		120	34.0	2.5	/experiments/Knapen_AOT/AOT_stimuli/rescaled_final/1555_fw.mp4	0.0	190.82282161712646	1.008549690246582
36	173.95091438293457	pulse	0	t		34.0	2.5	/experiments/Knapen_AOT/AOT_stimuli/rescaled_final/1555_fw.mp4	0.0	191.00635313987732	
36	174.7759325504303	movie	1		294	34.0	2.5	/experiments/Knapen_AOT/AOT_stimuli/rescaled_final/1555_fw.mp4	0.0	191.83137130737305	2.4919700622558594
36	175.54933333396912	pulse	1	t		34.0	2.5	/experiments/Knapen_AOT/AOT_stimuli/rescaled_final/1555_fw.mp4	0.0	192.60477209091187	
36	177.14992332458496	pulse	1	t		34.0	2.5	/experiments/Knapen_AOT/AOT_stimuli/rescaled_final/1555_fw.mp4	0.0	194.2053620815277	
36	177.26790261268616	fix_post	2		12	34.0	2.5	/experiments/Knapen_AOT/AOT_stimuli/rescaled_final/1555_fw.mp4	0.0	194.3233413696289	0.1000363826751709
37	177.36793899536133	fix_pre	0		120	35.0	2.5	/experiments/Knapen_AOT/AOT_stimuli/rescaled_final/0982_rv.mp4	0.0	194.42337775230408	1.0084877014160156
37	178.37642669677734	movie	1		286	35.0	2.5	/experiments/Knapen_AOT/AOT_stimuli/rescaled_final/0982_rv.mp4	0.0	195.4318654537201	2.4920032024383545
37	178.7519474029541	pulse	1	t		35.0	2.5	/experiments/Knapen_AOT/AOT_stimuli/rescaled_final/0982_rv.mp4	0.0	195.80738615989685	
37	180.34954380989075	pulse	1	t		35.0	2.5	/experiments/Knapen_AOT/AOT_stimuli/rescaled_final/0982_rv.mp4	0.0	197.4049825668335	
37	180.8684298992157	fix_post	2		12	35.0	2.5	/experiments/Knapen_AOT/AOT_stimuli/rescaled_final/0982_rv.mp4	0.0	197.92386865615845	0.10001873970031738
38	180.96844863891602	fix_pre	0		119	36.0	2.5	/experiments/Knapen_AOT/AOT_stimuli/rescaled_final/1674_fw.mp4	0.0	198.02388739585876	1.0001447200775146
38	181.95229649543762	pulse	0	t		36.0	2.5	/experiments/Knapen_AOT/AOT_stimuli/rescaled_final/1674_fw.mp4	0.0	199.00773525238037	
38	181.96859335899353	movie	1		286	36.0	2.5	/experiments/Knapen_AOT/AOT_stimuli/rescaled_final/1674_fw.mp4	0.0	199.02403211593628	2.5003855228424072
38	183.55160474777222	pulse	1	t		36.0	2.5	/experiments/Knapen_AOT/AOT_stimuli/rescaled_final/1674_fw.mp4	0.0	200.60704350471497	
38	184.46897888183594	fix_post	2		12	36.0	2.5	/experiments/Knapen_AOT/AOT_stimuli/rescaled_final/1674_fw.mp4	0.0	201.5244176387787	0.10007882118225098
39	184.5690577030182	fix_pre	0		120	37.0	2.5	/experiments/Knapen_AOT/AOT_stimuli/rescaled_final/1025_fw.mp4	0.0	201.62449645996094	1.0084433555603027
39	185.15263080596924	pulse	0	t		37.0	2.5	/experiments/Knapen_AOT/AOT_stimuli/rescaled_final/1025_fw.mp4	0.0	202.208069562912	
39	185.5775010585785	movie	1		277	37.0	2.5	/experiments/Knapen_AOT/AOT_stimuli/rescaled_final/1025_fw.mp4	0.0	202.63293981552124	2.4920027256011963
39	186.75117921829224	pulse	1	t		37.0	2.5	/experiments/Knapen_AOT/AOT_stimuli/rescaled_final/1025_fw.mp4	0.0	203.80661797523499	
39	188.0695037841797	fix_post	2		12	37.0	2.5	/experiments/Knapen_AOT/AOT_stimuli/rescaled_final/1025_fw.mp4	0.0	205.12494254112244	0.1000368595123291
40	188.16954064369202	fix_pre	0		120	38.0	2.5	/experiments/Knapen_AOT/AOT_stimuli/rescaled_final/1577_fw.mp4	0.0	205.22497940063477	1.008605718612671
40	188.35310649871826	pulse	0	t		38.0	2.5	/experiments/Knapen_AOT/AOT_stimuli/rescaled_final/1577_fw.mp4	0.0	205.408545255661	
40	189.1781463623047	movie	1		286	38.0	2.5	/experiments/Knapen_AOT/AOT_stimuli/rescaled_final/1577_fw.mp4	0.0	206.23358511924744	2.5003764629364014
40	189.95101308822632	pulse	1	t		38.0	2.5	/experiments/Knapen_AOT/AOT_stimuli/rescaled_final/1577_fw.mp4	0.0	207.00645184516907	
40	191.55158829689026	pulse	1	t		38.0	2.5	/experiments/Knapen_AOT/AOT_stimuli/rescaled_final/1577_fw.mp4	0.0	208.607027053833	
40	191.6785228252411	fix_post	2		11	38.0	2.5	/experiments/Knapen_AOT/AOT_stimuli/rescaled_final/1577_fw.mp4	0.0	208.73396158218384	0.0915534496307373
41	191.77007627487183	fix_pre	0		120	39.0	2.5	/experiments/Knapen_AOT/AOT_stimuli/rescaled_final/1820_fw.mp4	0.0	208.82551503181458	1.0085372924804688
41	192.7786135673523	movie	1		264	39.0	2.5	/experiments/Knapen_AOT/AOT_stimuli/rescaled_final/1820_fw.mp4	0.0	209.83405232429504	2.4920716285705566
41	193.15275120735168	pulse	1	t		39.0	2.5	/experiments/Knapen_AOT/AOT_stimuli/rescaled_final/1820_fw.mp4	0.0	210.20818996429443	
41	194.75169348716736	pulse	1	t		39.0	2.5	/experiments/Knapen_AOT/AOT_stimuli/rescaled_final/1820_fw.mp4	0.0	211.8071322441101	
41	195.27068519592285	fix_post	2		12	39.0	2.5	/experiments/Knapen_AOT/AOT_stimuli/rescaled_final/1820_fw.mp4	0.0	212.3261239528656	0.09997367858886719
42	195.37065887451172	fix_pre	0		119	40.0	2.5	/experiments/Knapen_AOT/AOT_stimuli/rescaled_final/1533_fw.mp4	0.0	212.42609763145447	1.0001492500305176
42	196.3544464111328	pulse	0	t		40.0	2.5	/experiments/Knapen_AOT/AOT_stimuli/rescaled_final/1533_fw.mp4	0.0	213.40988516807556	
42	196.37080812454224	movie	1		285	40.0	2.5	/experiments/Knapen_AOT/AOT_stimuli/rescaled_final/1533_fw.mp4	0.0	213.42624688148499	2.5003201961517334
42	197.95320630073547	pulse	1	t		40.0	2.5	/experiments/Knapen_AOT/AOT_stimuli/rescaled_final/1533_fw.mp4	0.0	215.00864505767822	
42	198.87112832069397	fix_post	2		12	40.0	2.5	/experiments/Knapen_AOT/AOT_stimuli/rescaled_final/1533_fw.mp4	0.0	215.92656707763672	0.10005497932434082
43	198.9711833000183	fix_pre	0		120	41.0	2.5	blank	1.0	216.02662205696106	1.000154733657837
43	199.55503225326538	pulse	0	t		41.0	2.5	blank	1.0	216.61047101020813	
43	199.97133803367615	movie	1		300	41.0	2.5	blank	1.0	217.0267767906189	2.5003645420074463
43	201.15513014793396	pulse	1	t		41.0	2.5	blank	1.0	218.2105689048767	
43	202.4717025756836	fix_post	2		12	41.0	2.5	blank	1.0	219.52714133262634	0.10002779960632324
44	202.57173037528992	fix_pre	0		120	42.0	2.5	/experiments/Knapen_AOT/AOT_stimuli/rescaled_final/1665_rv.mp4	0.0	219.62716913223267	1.0085487365722656
44	202.7475779056549	pulse	0	t		42.0	2.5	/experiments/Knapen_AOT/AOT_stimuli/rescaled_final/1665_rv.mp4	0.0	219.80301666259766	
44	203.58027911186218	movie	1		285	42.0	2.5	/experiments/Knapen_AOT/AOT_stimuli/rescaled_final/1665_rv.mp4	0.0	220.63571786880493	2.49194073677063
44	204.35345911979675	pulse	1	t		42.0	2.5	/experiments/Knapen_AOT/AOT_stimuli/rescaled_final/1665_rv.mp4	0.0	221.4088978767395	
44	205.94775199890137	pulse	1	t		42.0	2.5	/experiments/Knapen_AOT/AOT_stimuli/rescaled_final/1665_rv.mp4	0.0	223.00319075584412	
44	206.0722198486328	fix_post	2		12	42.0	2.5	/experiments/Knapen_AOT/AOT_stimuli/rescaled_final/1665_rv.mp4	0.0	223.12765860557556	0.10012412071228027
45	206.1723439693451	fix_pre	0		120	43.0	2.5	/experiments/Knapen_AOT/AOT_stimuli/rescaled_final/1714_rv.mp4	0.0	223.22778272628784	1.008476734161377
45	207.18082070350647	movie	1		283	43.0	2.5	/experiments/Knapen_AOT/AOT_stimuli/rescaled_final/1714_rv.mp4	0.0	224.23625946044922	2.491943120956421
45	207.5479452610016	pulse	1	t		43.0	2.5	/experiments/Knapen_AOT/AOT_stimuli/rescaled_final/1714_rv.mp4	0.0	224.60338401794434	
45	209.14791131019592	pulse	1	t		43.0	2.5	/experiments/Knapen_AOT/AOT_stimuli/rescaled_final/1714_rv.mp4	0.0	226.20335006713867	
45	209.6727638244629	fix_post	2		12	43.0	2.5	/experiments/Knapen_AOT/AOT_stimuli/rescaled_final/1714_rv.mp4	0.0	226.72820258140564	0.10003972053527832
46	209.77280354499817	fix_pre	0		118	44.0	2.5	/experiments/Knapen_AOT/AOT_stimuli/rescaled_final/1033_rv.mp4	0.0	226.82824230194092	0.9918403625488281
46	210.74821162223816	pulse	0	t		44.0	2.5	/experiments/Knapen_AOT/AOT_stimuli/rescaled_final/1033_rv.mp4	0.0	227.8036503791809	
46	210.764643907547	movie	1		277	44.0	2.5	/experiments/Knapen_AOT/AOT_stimuli/rescaled_final/1033_rv.mp4	0.0	227.82008266448975	2.500359535217285
46	212.34839606285095	pulse	1	t		44.0	2.5	/experiments/Knapen_AOT/AOT_stimuli/rescaled_final/1033_rv.mp4	0.0	229.4038348197937	
46	213.26500344276428	fix_post	2		12	44.0	2.5	/experiments/Knapen_AOT/AOT_stimuli/rescaled_final/1033_rv.mp4	0.0	230.32044219970703	0.10011529922485352
47	213.36511874198914	fix_pre	0		120	45.0	2.5	/experiments/Knapen_AOT/AOT_stimuli/rescaled_final/0834_rv.mp4	0.0	230.42055749893188	1.008347988128662
47	213.9487006664276	pulse	0	t		45.0	2.5	/experiments/Knapen_AOT/AOT_stimuli/rescaled_final/0834_rv.mp4	0.0	231.00413942337036	
47	214.3734667301178	movie	1		283	45.0	2.5	/experiments/Knapen_AOT/AOT_stimuli/rescaled_final/0834_rv.mp4	0.0	231.42890548706055	2.49204421043396
47	215.5488736629486	pulse	1	t		45.0	2.5	/experiments/Knapen_AOT/AOT_stimuli/rescaled_final/0834_rv.mp4	0.0	232.60431241989136	
47	216.86551094055176	fix_post	2		12	45.0	2.5	/experiments/Knapen_AOT/AOT_stimuli/rescaled_final/0834_rv.mp4	0.0	233.9209496974945	0.10009098052978516
48	216.96560192108154	fix_pre	0		120	46.0	2.5	/experiments/Knapen_AOT/AOT_stimuli/rescaled_final/0775_fw.mp4	0.0	234.0210406780243	1.0084640979766846
48	217.1491551399231	pulse	0	t		46.0	2.5	/experiments/Knapen_AOT/AOT_stimuli/rescaled_final/0775_fw.mp4	0.0	234.20459389686584	
48	217.97406601905823	movie	1		253	46.0	2.5	/experiments/Knapen_AOT/AOT_stimuli/rescaled_final/0775_fw.mp4	0.0	235.02950477600098	2.4920060634613037
48	218.78236079216003	pulse	1	t		46.0	2.5	/experiments/Knapen_AOT/AOT_stimuli/rescaled_final/0775_fw.mp4	0.0	235.83779954910278	
48	220.34771823883057	pulse	1	t		46.0	2.5	/experiments/Knapen_AOT/AOT_stimuli/rescaled_final/0775_fw.mp4	0.0	237.40315699577332	
48	220.46607208251953	fix_post	2		12	46.0	2.5	/experiments/Knapen_AOT/AOT_stimuli/rescaled_final/0775_fw.mp4	0.0	237.52151083946228	0.10023069381713867
49	220.56630277633667	fix_pre	0		120	47.0	2.5	/experiments/Knapen_AOT/AOT_stimuli/rescaled_final/1269_rv.mp4	0.0	237.62174153327942	1.008246898651123
49	221.5745496749878	movie	1		266	47.0	2.5	/experiments/Knapen_AOT/AOT_stimuli/rescaled_final/1269_rv.mp4	0.0	238.62998843193054	2.4920449256896973
49	221.94862151145935	pulse	1	t		47.0	2.5	/experiments/Knapen_AOT/AOT_stimuli/rescaled_final/1269_rv.mp4	0.0	239.0040602684021	
49	223.54798221588135	pulse	1	t		47.0	2.5	/experiments/Knapen_AOT/AOT_stimuli/rescaled_final/1269_rv.mp4	0.0	240.6034209728241	
49	224.0665946006775	fix_post	2		12	47.0	2.5	/experiments/Knapen_AOT/AOT_stimuli/rescaled_final/1269_rv.mp4	0.0	241.12203335762024	0.1001579761505127
50	224.166752576828	fix_pre	0		119	48.0	2.5	/experiments/Knapen_AOT/AOT_stimuli/rescaled_final/1394_rv.mp4	0.0	241.22219133377075	1.0000288486480713
50	225.150456905365	pulse	0	t		48.0	2.5	/experiments/Knapen_AOT/AOT_stimuli/rescaled_final/1394_rv.mp4	0.0	242.20589566230774	
50	225.16678142547607	movie	1		283	48.0	2.5	/experiments/Knapen_AOT/AOT_stimuli/rescaled_final/1394_rv.mp4	0.0	242.22222018241882	2.5004024505615234
50	226.75086212158203	pulse	1	t		48.0	2.5	/experiments/Knapen_AOT/AOT_stimuli/rescaled_final/1394_rv.mp4	0.0	243.80630087852478	
50	227.6671838760376	fix_post	2		12	48.0	2.5	/experiments/Knapen_AOT/AOT_stimuli/rescaled_final/1394_rv.mp4	0.0	244.72262263298035	0.09998822212219238
51	227.7671720981598	fix_pre	0		120	49.0	2.5	blank	1.0	244.82261085510254	1.0001366138458252
51	228.35082936286926	pulse	0	t		49.0	2.5	blank	1.0	245.406268119812	
51	228.76730871200562	movie	1		300	49.0	2.5	blank	1.0	245.82274746894836	2.5003488063812256
51	229.9510736465454	pulse	1	t		49.0	2.5	blank	1.0	247.00651240348816	
51	231.26765751838684	fix_post	2		12	49.0	2.5	blank	1.0	248.3230962753296	0.1000220775604248
52	231.36767959594727	fix_pre	0		120	50.0	2.5	/experiments/Knapen_AOT/AOT_stimuli/rescaled_final/0909_fw.mp4	0.0	248.42311835289001	1.0085337162017822
52	231.55147242546082	pulse	0	t		50.0	2.5	/experiments/Knapen_AOT/AOT_stimuli/rescaled_final/0909_fw.mp4	0.0	248.60691118240356	
52	232.37621331214905	movie	1		292	50.0	2.5	/experiments/Knapen_AOT/AOT_stimuli/rescaled_final/0909_fw.mp4	0.0	249.4316520690918	2.492051362991333
52	233.1495180130005	pulse	1	t		50.0	2.5	/experiments/Knapen_AOT/AOT_stimuli/rescaled_final/0909_fw.mp4	0.0	250.20495676994324	
52	234.75004768371582	pulse	1	t		50.0	2.5	/experiments/Knapen_AOT/AOT_stimuli/rescaled_final/0909_fw.mp4	0.0	251.80548644065857	
52	234.86826467514038	fix_post	2		12	50.0	2.5	/experiments/Knapen_AOT/AOT_stimuli/rescaled_final/0909_fw.mp4	0.0	251.92370343208313	0.0999901294708252
53	234.9682548046112	fix_pre	0		120	51.0	2.5	/experiments/Knapen_AOT/AOT_stimuli/rescaled_final/1609_fw.mp4	0.0	252.02369356155396	1.0084757804870605
53	235.97673058509827	movie	1		284	51.0	2.5	/experiments/Knapen_AOT/AOT_stimuli/rescaled_final/1609_fw.mp4	0.0	253.03216934204102	2.492032766342163
53	236.3510434627533	pulse	1	t		51.0	2.5	/experiments/Knapen_AOT/AOT_stimuli/rescaled_final/1609_fw.mp4	0.0	253.40648221969604	
53	237.95055532455444	pulse	1	t		51.0	2.5	/experiments/Knapen_AOT/AOT_stimuli/rescaled_final/1609_fw.mp4	0.0	255.0059940814972	
53	238.46876335144043	fix_post	2		12	51.0	2.5	/experiments/Knapen_AOT/AOT_stimuli/rescaled_final/1609_fw.mp4	0.0	255.52420210838318	0.10002017021179199
54	238.56878352165222	fix_pre	0		119	52.0	2.5	/experiments/Knapen_AOT/AOT_stimuli/rescaled_final/1670_rv.mp4	0.0	255.62422227859497	1.000187873840332
54	239.55260109901428	pulse	0	t		52.0	2.5	/experiments/Knapen_AOT/AOT_stimuli/rescaled_final/1670_rv.mp4	0.0	256.60803985595703	
54	239.56897139549255	movie	1		269	52.0	2.5	/experiments/Knapen_AOT/AOT_stimuli/rescaled_final/1670_rv.mp4	0.0	256.6244101524353	2.500378370285034
54	241.15165877342224	pulse	1	t		52.0	2.5	/experiments/Knapen_AOT/AOT_stimuli/rescaled_final/1670_rv.mp4	0.0	258.207097530365	
54	242.0693497657776	fix_post	2		12	52.0	2.5	/experiments/Knapen_AOT/AOT_stimuli/rescaled_final/1670_rv.mp4	0.0	259.12478852272034	0.10000801086425781
55	242.16935777664185	fix_pre	0		120	53.0	2.5	/experiments/Knapen_AOT/AOT_stimuli/rescaled_final/1989_fw.mp4	0.0	259.2247965335846	1.0084710121154785
55	242.7529845237732	pulse	0	t		53.0	2.5	/experiments/Knapen_AOT/AOT_stimuli/rescaled_final/1989_fw.mp4	0.0	259.80842328071594	
55	243.17782878875732	movie	1		285	53.0	2.5	/experiments/Knapen_AOT/AOT_stimuli/rescaled_final/1989_fw.mp4	0.0	260.2332675457001	2.492058038711548
55	244.35275840759277	pulse	1	t		53.0	2.5	/experiments/Knapen_AOT/AOT_stimuli/rescaled_final/1989_fw.mp4	0.0	261.4081971645355	
55	245.66988682746887	fix_post	2		12	53.0	2.5	/experiments/Knapen_AOT/AOT_stimuli/rescaled_final/1989_fw.mp4	0.0	262.7253255844116	0.10006189346313477
56	245.769948720932	fix_pre	0		120	54.0	2.5	/experiments/Knapen_AOT/AOT_stimuli/rescaled_final/0970_fw.mp4	0.0	262.82538747787476	1.0084538459777832
56	245.95349407196045	pulse	0	t		54.0	2.5	/experiments/Knapen_AOT/AOT_stimuli/rescaled_final/0970_fw.mp4	0.0	263.0089328289032	
56	246.7784025669098	movie	1		261	54.0	2.5	/experiments/Knapen_AOT/AOT_stimuli/rescaled_final/0970_fw.mp4	0.0	263.83384132385254	2.4919931888580322
56	247.55447101593018	pulse	1	t		54.0	2.5	/experiments/Knapen_AOT/AOT_stimuli/rescaled_final/0970_fw.mp4	0.0	264.6099097728729	
56	249.15291380882263	pulse	1	t		54.0	2.5	/experiments/Knapen_AOT/AOT_stimuli/rescaled_final/0970_fw.mp4	0.0	266.2083525657654	
56	249.27039575576782	fix_post	2		12	54.0	2.5	/experiments/Knapen_AOT/AOT_stimuli/rescaled_final/0970_fw.mp4	0.0	266.32583451271057	0.10002613067626953
57	249.3704218864441	fix_pre	0		120	55.0	2.5	blank	1.0	266.42586064338684	1.0001401901245117
57	250.3705620765686	movie	1		300	55.0	2.5	blank	1.0	267.42600083351135	2.5003716945648193
57	250.75427150726318	pulse	1	t		55.0	2.5	blank	1.0	267.80971026420593	
57	252.35434985160828	pulse	1	t		55.0	2.5	blank	1.0	269.409788608551	
57	252.87093377113342	fix_post	2		12	55.0	2.5	blank	1.0	269.9263725280762	0.10007977485656738
58	252.97101354599	fix_pre	0		119	56.0	2.5	/experiments/Knapen_AOT/AOT_stimuli/rescaled_final/0763_fw.mp4	0.0	270.02645230293274	1.0000803470611572
58	253.95476937294006	pulse	0	t		56.0	2.5	/experiments/Knapen_AOT/AOT_stimuli/rescaled_final/0763_fw.mp4	0.0	271.0102081298828	
58	253.97109389305115	movie	1		264	56.0	2.5	/experiments/Knapen_AOT/AOT_stimuli/rescaled_final/0763_fw.mp4	0.0	271.0265326499939	2.50044322013855
58	255.55399703979492	pulse	1	t		56.0	2.5	/experiments/Knapen_AOT/AOT_stimuli/rescaled_final/0763_fw.mp4	0.0	272.60943579673767	
58	256.4715371131897	fix_post	2		12	56.0	2.5	/experiments/Knapen_AOT/AOT_stimuli/rescaled_final/0763_fw.mp4	0.0	273.52697587013245	0.0999906063079834
59	256.5715277194977	fix_pre	0		120	57.0	2.5	/experiments/Knapen_AOT/AOT_stimuli/rescaled_final/0081_rv.mp4	0.0	273.62696647644043	1.0085535049438477
59	257.15517950057983	pulse	0	t		57.0	2.5	/experiments/Knapen_AOT/AOT_stimuli/rescaled_final/0081_rv.mp4	0.0	274.2106182575226	
59	257.5800812244415	movie	1		263	57.0	2.5	/experiments/Knapen_AOT/AOT_stimuli/rescaled_final/0081_rv.mp4	0.0	274.6355199813843	2.4920079708099365
59	258.754221200943	pulse	1	t		57.0	2.5	/experiments/Knapen_AOT/AOT_stimuli/rescaled_final/0081_rv.mp4	0.0	275.80965995788574	
59	260.07208919525146	fix_post	2		12	57.0	2.5	/experiments/Knapen_AOT/AOT_stimuli/rescaled_final/0081_rv.mp4	0.0	277.1275279521942	0.09994769096374512
60	260.1720368862152	fix_pre	0		120	58.0	2.5	/experiments/Knapen_AOT/AOT_stimuli/rescaled_final/1435_fw.mp4	0.0	277.22747564315796	1.0084800720214844
60	260.3486692905426	pulse	0	t		58.0	2.5	/experiments/Knapen_AOT/AOT_stimuli/rescaled_final/1435_fw.mp4	0.0	277.40410804748535	
60	261.1805169582367	movie	1		279	58.0	2.5	/experiments/Knapen_AOT/AOT_stimuli/rescaled_final/1435_fw.mp4	0.0	278.23595571517944	2.4920830726623535
60	261.95598316192627	pulse	1	t		58.0	2.5	/experiments/Knapen_AOT/AOT_stimuli/rescaled_final/1435_fw.mp4	0.0	279.011421918869	
60	263.5481433868408	pulse	1	t		58.0	2.5	/experiments/Knapen_AOT/AOT_stimuli/rescaled_final/1435_fw.mp4	0.0	280.60358214378357	
60	263.67260003089905	fix_post	2		12	58.0	2.5	/experiments/Knapen_AOT/AOT_stimuli/rescaled_final/1435_fw.mp4	0.0	280.7280387878418	0.09999442100524902
61	263.7725944519043	fix_pre	0		120	59.0	2.5	/experiments/Knapen_AOT/AOT_stimuli/rescaled_final/1676_rv.mp4	0.0	280.82803320884705	1.0085458755493164
61	264.7811403274536	movie	1		276	59.0	2.5	/experiments/Knapen_AOT/AOT_stimuli/rescaled_final/1676_rv.mp4	0.0	281.83657908439636	2.491959810256958
61	265.1481351852417	pulse	1	t		59.0	2.5	/experiments/Knapen_AOT/AOT_stimuli/rescaled_final/1676_rv.mp4	0.0	282.20357394218445	
61	266.748574256897	pulse	1	t		59.0	2.5	/experiments/Knapen_AOT/AOT_stimuli/rescaled_final/1676_rv.mp4	0.0	283.8040130138397	
61	267.27310013771057	fix_post	2		12	59.0	2.5	/experiments/Knapen_AOT/AOT_stimuli/rescaled_final/1676_rv.mp4	0.0	284.3285388946533	0.10004258155822754
62	267.3731427192688	fix_pre	0		118	60.0	2.5	/experiments/Knapen_AOT/AOT_stimuli/rescaled_final/0184_rv.mp4	0.0	284.42858147621155	0.9921064376831055
62	268.3485198020935	pulse	0	t		60.0	2.5	/experiments/Knapen_AOT/AOT_stimuli/rescaled_final/0184_rv.mp4	0.0	285.40395855903625	
62	268.3652491569519	movie	1		289	60.0	2.5	/experiments/Knapen_AOT/AOT_stimuli/rescaled_final/0184_rv.mp4	0.0	285.42068791389465	2.500049114227295
62	269.94761514663696	pulse	1	t		60.0	2.5	/experiments/Knapen_AOT/AOT_stimuli/rescaled_final/0184_rv.mp4	0.0	287.0030539035797	
62	270.8652982711792	fix_post	2		12	60.0	2.5	/experiments/Knapen_AOT/AOT_stimuli/rescaled_final/0184_rv.mp4	0.0	287.92073702812195	0.1001119613647461
63	270.96541023254395	fix_pre	0		120	61.0	2.5	/experiments/Knapen_AOT/AOT_stimuli/rescaled_final/1343_fw.mp4	0.0	288.0208489894867	1.008420705795288
63	271.54901337623596	pulse	0	t		61.0	2.5	/experiments/Knapen_AOT/AOT_stimuli/rescaled_final/1343_fw.mp4	0.0	288.6044521331787	
63	271.97383093833923	movie	1		283	61.0	2.5	/experiments/Knapen_AOT/AOT_stimuli/rescaled_final/1343_fw.mp4	0.0	289.029269695282	2.492037534713745
63	273.1481590270996	pulse	1	t		61.0	2.5	/experiments/Knapen_AOT/AOT_stimuli/rescaled_final/1343_fw.mp4	0.0	290.20359778404236	
63	274.465868473053	fix_post	2		12	61.0	2.5	/experiments/Knapen_AOT/AOT_stimuli/rescaled_final/1343_fw.mp4	0.0	291.5213072299957	0.1000816822052002
64	274.5659501552582	fix_pre	0		120	62.0	2.5	blank	1.0	291.6213889122009	1.0000653266906738
64	274.7495768070221	pulse	0	t		62.0	2.5	blank	1.0	291.80501556396484	
64	275.56601548194885	movie	1		300	62.0	2.5	blank	1.0	292.6214542388916	2.5003907680511475
64	276.34971499443054	pulse	1	t		62.0	2.5	blank	1.0	293.4051537513733	
64	277.9500343799591	pulse	1	t		62.0	2.5	blank	1.0	295.00547313690186	
64	278.06640625	fix_post	2		12	62.0	2.5	blank	1.0	295.12184500694275	0.10007238388061523
65	278.1664786338806	fix_pre	0		120	63.0	2.5	/experiments/Knapen_AOT/AOT_stimuli/rescaled_final/1933_rv.mp4	0.0	295.22191739082336	1.0084288120269775
65	279.1749074459076	movie	1		281	63.0	2.5	/experiments/Knapen_AOT/AOT_stimuli/rescaled_final/1933_rv.mp4	0.0	296.23034620285034	2.492011547088623
65	279.5483891963959	pulse	1	t		63.0	2.5	/experiments/Knapen_AOT/AOT_stimuli/rescaled_final/1933_rv.mp4	0.0	296.6038279533386	
65	281.14824652671814	pulse	1	t		63.0	2.5	/experiments/Knapen_AOT/AOT_stimuli/rescaled_final/1933_rv.mp4	0.0	298.2036852836609	
65	281.6669189929962	fix_post	2		12	63.0	2.5	/experiments/Knapen_AOT/AOT_stimuli/rescaled_final/1933_rv.mp4	0.0	298.72235774993896	0.10000324249267578
66	281.7669222354889	fix_pre	0		119	64.0	2.5	/experiments/Knapen_AOT/AOT_stimuli/rescaled_final/1137_rv.mp4	0.0	298.82236099243164	1.0002312660217285
66	282.75072956085205	pulse	0	t		64.0	2.5	/experiments/Knapen_AOT/AOT_stimuli/rescaled_final/1137_rv.mp4	0.0	299.8061683177948	
66	282.7671535015106	movie	1		266	64.0	2.5	/experiments/Knapen_AOT/AOT_stimuli/rescaled_final/1137_rv.mp4	0.0	299.82259225845337	2.5003249645233154
66	284.34918665885925	pulse	1	t		64.0	2.5	/experiments/Knapen_AOT/AOT_stimuli/rescaled_final/1137_rv.mp4	0.0	301.404625415802	
66	285.26747846603394	fix_post	2		12	64.0	2.5	/experiments/Knapen_AOT/AOT_stimuli/rescaled_final/1137_rv.mp4	0.0	302.3229172229767	0.10001277923583984
67	285.3674912452698	fix_pre	0		120	65.0	2.5	/experiments/Knapen_AOT/AOT_stimuli/rescaled_final/0560_fw.mp4	0.0	302.4229300022125	1.008493423461914
67	285.95125913619995	pulse	0	t		65.0	2.5	/experiments/Knapen_AOT/AOT_stimuli/rescaled_final/0560_fw.mp4	0.0	303.0066978931427	
67	286.3759846687317	movie	1		256	65.0	2.5	/experiments/Knapen_AOT/AOT_stimuli/rescaled_final/0560_fw.mp4	0.0	303.43142342567444	2.492029905319214
67	287.55002522468567	pulse	1	t		65.0	2.5	/experiments/Knapen_AOT/AOT_stimuli/rescaled_final/0560_fw.mp4	0.0	304.6054639816284	
67	288.8680145740509	fix_post	2		12	65.0	2.5	/experiments/Knapen_AOT/AOT_stimuli/rescaled_final/0560_fw.mp4	0.0	305.92345333099365	0.10004353523254395
68	288.96805810928345	fix_pre	0		120	66.0	2.5	/experiments/Knapen_AOT/AOT_stimuli/rescaled_final/0593_fw.mp4	0.0	306.0234968662262	1.0084960460662842
68	289.1515772342682	pulse	0	t		66.0	2.5	/experiments/Knapen_AOT/AOT_stimuli/rescaled_final/0593_fw.mp4	0.0	306.20701599121094	
68	289.97655415534973	movie	1		274	66.0	2.5	/experiments/Knapen_AOT/AOT_stimuli/rescaled_final/0593_fw.mp4	0.0	307.0319929122925	2.492051124572754
68	290.7521138191223	pulse	1	t		66.0	2.5	/experiments/Knapen_AOT/AOT_stimuli/rescaled_final/0593_fw.mp4	0.0	307.80755257606506	
68	292.3505916595459	pulse	1	t		66.0	2.5	/experiments/Knapen_AOT/AOT_stimuli/rescaled_final/0593_fw.mp4	0.0	309.40603041648865	
68	292.4686052799225	fix_post	2		12	66.0	2.5	/experiments/Knapen_AOT/AOT_stimuli/rescaled_final/0593_fw.mp4	0.0	309.52404403686523	0.09996724128723145
69	292.5685725212097	fix_pre	0		120	67.0	2.5	/experiments/Knapen_AOT/AOT_stimuli/rescaled_final/1137_fw.mp4	0.0	309.62401127815247	1.0085570812225342
69	293.57712960243225	movie	1		265	67.0	2.5	/experiments/Knapen_AOT/AOT_stimuli/rescaled_final/1137_fw.mp4	0.0	310.632568359375	2.492123603820801
69	293.95249795913696	pulse	1	t		67.0	2.5	/experiments/Knapen_AOT/AOT_stimuli/rescaled_final/1137_fw.mp4	0.0	311.0079367160797	
69	295.5504148006439	pulse	1	t		67.0	2.5	/experiments/Knapen_AOT/AOT_stimuli/rescaled_final/1137_fw.mp4	0.0	312.60585355758667	
69	296.06925320625305	fix_post	2		12	67.0	2.5	/experiments/Knapen_AOT/AOT_stimuli/rescaled_final/1137_fw.mp4	0.0	313.1246919631958	0.09986448287963867
70	296.1691176891327	fix_pre	0		119	68.0	2.5	/experiments/Knapen_AOT/AOT_stimuli/rescaled_final/0041_rv.mp4	0.0	313.22455644607544	1.0085718631744385
70	297.1528754234314	pulse	0	t		68.0	2.5	/experiments/Knapen_AOT/AOT_stimuli/rescaled_final/0041_rv.mp4	0.0	314.20831418037415	
70	297.17768955230713	movie	1		268	68.0	2.5	/experiments/Knapen_AOT/AOT_stimuli/rescaled_final/0041_rv.mp4	0.0	314.2331283092499	2.492166519165039
70	298.7518935203552	pulse	1	t		68.0	2.5	/experiments/Knapen_AOT/AOT_stimuli/rescaled_final/0041_rv.mp4	0.0	315.807332277298	
70	299.66985607147217	fix_post	2		12	68.0	2.5	/experiments/Knapen_AOT/AOT_stimuli/rescaled_final/0041_rv.mp4	0.0	316.7252948284149	0.0997920036315918
71	299.76964807510376	fix_pre	0		120	69.0	2.5	/experiments/Knapen_AOT/AOT_stimuli/rescaled_final/0482_rv.mp4	0.0	316.8250868320465	1.0085234642028809
71	300.35331869125366	pulse	0	t		69.0	2.5	/experiments/Knapen_AOT/AOT_stimuli/rescaled_final/0482_rv.mp4	0.0	317.4087574481964	
71	300.77817153930664	movie	1		277	69.0	2.5	/experiments/Knapen_AOT/AOT_stimuli/rescaled_final/0482_rv.mp4	0.0	317.8336102962494	2.4920074939727783
71	301.9537100791931	pulse	1	t		69.0	2.5	/experiments/Knapen_AOT/AOT_stimuli/rescaled_final/0482_rv.mp4	0.0	319.00914883613586	
71	303.2701790332794	fix_post	2		12	69.0	2.5	/experiments/Knapen_AOT/AOT_stimuli/rescaled_final/0482_rv.mp4	0.0	320.32561779022217	0.10003304481506348
72	303.3702120780945	fix_pre	0		120	70.0	2.5	blank	1.0	320.42565083503723	1.0001404285430908
72	303.5537588596344	pulse	0	t		70.0	2.5	blank	1.0	320.60919761657715	
72	304.3703525066376	movie	1		300	70.0	2.5	blank	1.0	321.4257912635803	2.5003738403320312
72	305.1540186405182	pulse	1	t		70.0	2.5	blank	1.0	322.20945739746094	
72	306.7543122768402	pulse	1	t		70.0	2.5	blank	1.0	323.80975103378296	
72	306.8707263469696	fix_post	2		12	70.0	2.5	blank	1.0	323.92616510391235	0.10000967979431152
73	306.9707360267639	fix_pre	0		120	71.0	2.5	/experiments/Knapen_AOT/AOT_stimuli/rescaled_final/0895_rv.mp4	0.0	324.02617478370667	1.0085082054138184
73	307.97924423217773	movie	1		272	71.0	2.5	/experiments/Knapen_AOT/AOT_stimuli/rescaled_final/0895_rv.mp4	0.0	325.0346829891205	2.492218494415283
73	308.35337495803833	pulse	1	t		71.0	2.5	/experiments/Knapen_AOT/AOT_stimuli/rescaled_final/0895_rv.mp4	0.0	325.4088137149811	
73	309.95313715934753	pulse	1	t		71.0	2.5	/experiments/Knapen_AOT/AOT_stimuli/rescaled_final/0895_rv.mp4	0.0	327.0085759162903	
73	310.471462726593	fix_post	2		12	71.0	2.5	/experiments/Knapen_AOT/AOT_stimuli/rescaled_final/0895_rv.mp4	0.0	327.52690148353577	0.09983372688293457
74	310.57129645347595	fix_pre	0		119	72.0	2.5	/experiments/Knapen_AOT/AOT_stimuli/rescaled_final/1840_rv.mp4	0.0	327.6267352104187	1.0001757144927979
74	311.54799485206604	pulse	0	t		72.0	2.5	/experiments/Knapen_AOT/AOT_stimuli/rescaled_final/1840_rv.mp4	0.0	328.6034336090088	
74	311.57147216796875	movie	1		268	72.0	2.5	/experiments/Knapen_AOT/AOT_stimuli/rescaled_final/1840_rv.mp4	0.0	328.6269109249115	2.5003812313079834
74	313.15456557273865	pulse	1	t		72.0	2.5	/experiments/Knapen_AOT/AOT_stimuli/rescaled_final/1840_rv.mp4	0.0	330.2100043296814	
74	314.07185339927673	fix_post	2		12	72.0	2.5	/experiments/Knapen_AOT/AOT_stimuli/rescaled_final/1840_rv.mp4	0.0	331.1272921562195	0.09997963905334473
75	314.1718330383301	fix_pre	0		120	73.0	2.5	/experiments/Knapen_AOT/AOT_stimuli/rescaled_final/0593_rv.mp4	0.0	331.2272717952728	1.0084924697875977
75	314.7474193572998	pulse	0	t		73.0	2.5	/experiments/Knapen_AOT/AOT_stimuli/rescaled_final/0593_rv.mp4	0.0	331.80285811424255	
75	315.1803255081177	movie	1		292	73.0	2.5	/experiments/Knapen_AOT/AOT_stimuli/rescaled_final/0593_rv.mp4	0.0	332.2357642650604	2.49204421043396
75	316.3474986553192	pulse	1	t		73.0	2.5	/experiments/Knapen_AOT/AOT_stimuli/rescaled_final/0593_rv.mp4	0.0	333.40293741226196	
75	317.67236971855164	fix_post	2		12	73.0	2.5	/experiments/Knapen_AOT/AOT_stimuli/rescaled_final/0593_rv.mp4	0.0	334.7278084754944	0.09999918937683105
76	317.77236890792847	fix_pre	0		120	74.0	2.5	/experiments/Knapen_AOT/AOT_stimuli/rescaled_final/0326_rv.mp4	0.0	334.8278076648712	1.0085277557373047
76	317.9476156234741	pulse	0	t		74.0	2.5	/experiments/Knapen_AOT/AOT_stimuli/rescaled_final/0326_rv.mp4	0.0	335.00305438041687	
76	318.78089666366577	movie	1		287	74.0	2.5	/experiments/Knapen_AOT/AOT_stimuli/rescaled_final/0326_rv.mp4	0.0	335.8363354206085	2.500432014465332
76	319.5479280948639	pulse	1	t		74.0	2.5	/experiments/Knapen_AOT/AOT_stimuli/rescaled_final/0326_rv.mp4	0.0	336.60336685180664	
76	321.1481113433838	pulse	1	t		74.0	2.5	/experiments/Knapen_AOT/AOT_stimuli/rescaled_final/0326_rv.mp4	0.0	338.20355010032654	
76	321.2813286781311	fix_post	2		11	74.0	2.5	/experiments/Knapen_AOT/AOT_stimuli/rescaled_final/0326_rv.mp4	0.0	338.33676743507385	0.0915839672088623
77	321.37291264533997	fix_pre	0		120	75.0	2.5	blank	1.0	338.4283514022827	1.000157356262207
77	322.3730700016022	movie	1		300	75.0	2.5	blank	1.0	339.4285087585449	2.5003557205200195
77	322.74845719337463	pulse	1	t		75.0	2.5	blank	1.0	339.8038959503174	
77	324.34868597984314	pulse	1	t		75.0	2.5	blank	1.0	341.4041247367859	
77	324.8734257221222	fix_post	2		12	75.0	2.5	blank	1.0	341.92886447906494	0.10002899169921875
78	324.9734547138214	fix_pre	0		118	76.0	2.5	/experiments/Knapen_AOT/AOT_stimuli/rescaled_final/1812_rv.mp4	0.0	342.02889347076416	1.0002543926239014
78	325.94887495040894	pulse	0	t		76.0	2.5	/experiments/Knapen_AOT/AOT_stimuli/rescaled_final/1812_rv.mp4	0.0	343.0043137073517	
78	325.9737091064453	movie	1		282	76.0	2.5	/experiments/Knapen_AOT/AOT_stimuli/rescaled_final/1812_rv.mp4	0.0	343.02914786338806	2.491931200027466
78	327.54747676849365	pulse	1	t		76.0	2.5	/experiments/Knapen_AOT/AOT_stimuli/rescaled_final/1812_rv.mp4	0.0	344.6029155254364	
78	328.4656403064728	fix_post	2		12	76.0	2.5	/experiments/Knapen_AOT/AOT_stimuli/rescaled_final/1812_rv.mp4	0.0	345.5210790634155	0.10003137588500977
79	328.5656716823578	fix_pre	0		120	77.0	2.5	/experiments/Knapen_AOT/AOT_stimuli/rescaled_final/1989_rv.mp4	0.0	345.62111043930054	1.00862717628479
79	329.1494195461273	pulse	0	t		77.0	2.5	/experiments/Knapen_AOT/AOT_stimuli/rescaled_final/1989_rv.mp4	0.0	346.20485830307007	
79	329.5742988586426	movie	1		280	77.0	2.5	/experiments/Knapen_AOT/AOT_stimuli/rescaled_final/1989_rv.mp4	0.0	346.6297376155853	2.491891384124756
79	330.7475817203522	pulse	1	t		77.0	2.5	/experiments/Knapen_AOT/AOT_stimuli/rescaled_final/1989_rv.mp4	0.0	347.8030204772949	
79	332.06619024276733	fix_post	2		12	77.0	2.5	/experiments/Knapen_AOT/AOT_stimuli/rescaled_final/1989_rv.mp4	0.0	349.1216289997101	0.10003471374511719
80	332.16622495651245	fix_pre	0		120	78.0	2.5	/experiments/Knapen_AOT/AOT_stimuli/rescaled_final/1674_rv.mp4	0.0	349.2216637134552	1.008455514907837
80	332.34976601600647	pulse	0	t		78.0	2.5	/experiments/Knapen_AOT/AOT_stimuli/rescaled_final/1674_rv.mp4	0.0	349.4052047729492	
80	333.1746804714203	movie	1		266	78.0	2.5	/experiments/Knapen_AOT/AOT_stimuli/rescaled_final/1674_rv.mp4	0.0	350.23011922836304	2.4920387268066406
80	333.9494299888611	pulse	1	t		78.0	2.5	/experiments/Knapen_AOT/AOT_stimuli/rescaled_final/1674_rv.mp4	0.0	351.00486874580383	
80	335.54898595809937	pulse	1	t		78.0	2.5	/experiments/Knapen_AOT/AOT_stimuli/rescaled_final/1674_rv.mp4	0.0	352.6044247150421	
80	335.66671919822693	fix_post	2		12	78.0	2.5	/experiments/Knapen_AOT/AOT_stimuli/rescaled_final/1674_rv.mp4	0.0	352.7221579551697	0.10010004043579102
81	335.7668192386627	fix_pre	0		120	79.0	2.5	/experiments/Knapen_AOT/AOT_stimuli/rescaled_final/1840_fw.mp4	0.0	352.82225799560547	1.0084404945373535
81	336.7752597332001	movie	1		275	79.0	2.5	/experiments/Knapen_AOT/AOT_stimuli/rescaled_final/1840_fw.mp4	0.0	353.8306984901428	2.4920010566711426
81	337.14916229248047	pulse	1	t		79.0	2.5	/experiments/Knapen_AOT/AOT_stimuli/rescaled_final/1840_fw.mp4	0.0	354.2046010494232	
81	338.7489004135132	pulse	1	t		79.0	2.5	/experiments/Knapen_AOT/AOT_stimuli/rescaled_final/1840_fw.mp4	0.0	355.80433917045593	
81	339.2672607898712	fix_post	2		12	79.0	2.5	/experiments/Knapen_AOT/AOT_stimuli/rescaled_final/1840_fw.mp4	0.0	356.32269954681396	0.10013341903686523
82	339.3673942089081	fix_pre	0		119	80.0	2.5	/experiments/Knapen_AOT/AOT_stimuli/rescaled_final/1914_fw.mp4	0.0	356.42283296585083	1.0085091590881348
82	340.3513398170471	pulse	0	t		80.0	2.5	/experiments/Knapen_AOT/AOT_stimuli/rescaled_final/1914_fw.mp4	0.0	357.40677857398987	
82	340.3759033679962	movie	1		287	80.0	2.5	/experiments/Knapen_AOT/AOT_stimuli/rescaled_final/1914_fw.mp4	0.0	357.43134212493896	2.4919047355651855
82	341.94957637786865	pulse	1	t		80.0	2.5	/experiments/Knapen_AOT/AOT_stimuli/rescaled_final/1914_fw.mp4	0.0	359.0050151348114	
82	342.8678081035614	fix_post	2		12	80.0	2.5	/experiments/Knapen_AOT/AOT_stimuli/rescaled_final/1914_fw.mp4	0.0	359.92324686050415	0.1000065803527832
83	342.9678146839142	fix_pre	0		120	81.0	2.5	/experiments/Knapen_AOT/AOT_stimuli/rescaled_final/0983_rv.mp4	0.0	360.02325344085693	1.0085079669952393
83	343.5515718460083	pulse	0	t		81.0	2.5	/experiments/Knapen_AOT/AOT_stimuli/rescaled_final/0983_rv.mp4	0.0	360.60701060295105	
83	343.9763226509094	movie	1		274	81.0	2.5	/experiments/Knapen_AOT/AOT_stimuli/rescaled_final/0983_rv.mp4	0.0	361.0317614078522	2.492020606994629
83	345.15039467811584	pulse	1	t		81.0	2.5	/experiments/Knapen_AOT/AOT_stimuli/rescaled_final/0983_rv.mp4	0.0	362.2058334350586	
83	346.46834325790405	fix_post	2		12	81.0	2.5	/experiments/Knapen_AOT/AOT_stimuli/rescaled_final/0983_rv.mp4	0.0	363.5237820148468	0.10006475448608398
84	346.56840801239014	fix_pre	0		120	82.0	2.5	/experiments/Knapen_AOT/AOT_stimuli/rescaled_final/0909_rv.mp4	0.0	363.6238467693329	1.0084280967712402
84	346.75189876556396	pulse	0	t		82.0	2.5	/experiments/Knapen_AOT/AOT_stimuli/rescaled_final/0909_rv.mp4	0.0	363.8073375225067	
84	347.5768361091614	movie	1		267	82.0	2.5	/experiments/Knapen_AOT/AOT_stimuli/rescaled_final/0909_rv.mp4	0.0	364.6322748661041	2.492047071456909
84	348.35170459747314	pulse	1	t		82.0	2.5	/experiments/Knapen_AOT/AOT_stimuli/rescaled_final/0909_rv.mp4	0.0	365.4071433544159	
84	349.9512674808502	pulse	1	t		82.0	2.5	/experiments/Knapen_AOT/AOT_stimuli/rescaled_final/0909_rv.mp4	0.0	367.00670623779297	
84	350.0688831806183	fix_post	2		12	82.0	2.5	/experiments/Knapen_AOT/AOT_stimuli/rescaled_final/0909_rv.mp4	0.0	367.12432193756104	0.10003376007080078
85	350.1689169406891	fix_pre	0		120	83.0	2.5	blank	1.0	367.22435569763184	1.0001492500305176
85	351.1690661907196	movie	1		300	83.0	2.5	blank	1.0	368.22450494766235	2.500406265258789
85	351.55269980430603	pulse	1	t		83.0	2.5	blank	1.0	368.6081385612488	
85	353.1531939506531	pulse	1	t		83.0	2.5	blank	1.0	370.2086327075958	
85	353.6694724559784	fix_post	2		12	83.0	2.5	blank	1.0	370.72491121292114	0.09996318817138672
87	353.7694356441498	stim	0		1716					370.82487440109253	14.30215859413147
87	354.7530930042267	pulse	0	t						371.80853176116943	
87	356.3533411026001	pulse	0	t						373.40877985954285	
87	357.9537727832794	pulse	0	t						375.00921154022217	
87	359.5539491176605	pulse	0	t						376.60938787460327	
87	361.1542704105377	pulse	0	t						378.20970916748047	
87	362.75472044944763	pulse	0	t						379.8101592063904	
87	364.3545892238617	pulse	0	t						381.41002798080444	
87	365.95523047447205	pulse	0	t						383.0106692314148	
87	367.5551838874817	pulse	0	t						384.61062264442444	
