trial_nr	onset	event_type	phase	response	nr_frames	movie_index	movie_duration	movie_file	blank	onset_abs	duration
0	0.15783405303955078	stim	0		61					21.189461946487427	0.5087189674377441
0	0.6585681438446045	response	0	space						21.69019603729248	
1	0.6665530204772949	stim	0		4653					21.69818091392517	38.77437210083008
1	39.437971115112305	pulse	0	t						60.46959900856018	
1	39.44092512130737	stim	1		1717					60.47255301475525	14.308835983276367
1	41.033159017562866	pulse	1	t						62.06478691101074	
1	42.63317918777466	pulse	1	t						63.664807081222534	
1	44.23314118385315	pulse	1	t						65.26476907730103	
1	45.83320903778076	pulse	1	t						66.86483693122864	
1	47.43319320678711	pulse	1	t						68.46482110023499	
1	49.03315305709839	pulse	1	t						70.06478095054626	
1	50.633090019226074	pulse	1	t						71.66471791267395	
1	52.23304605484009	pulse	1	t						73.26467394828796	
2	53.74976110458374	fix_pre	0		11	0.0	2.5	/experiments/AOT/AOT_stimuli/rescaled_final/1160_rv.mp4	0.0	74.78138899803162	0.09148001670837402
2	53.833152055740356	pulse	0	t		0.0	2.5	/experiments/AOT/AOT_stimuli/rescaled_final/1160_rv.mp4	0.0	74.86477994918823	
2	53.841241121292114	movie	1		244	0.0	2.5	/experiments/AOT/AOT_stimuli/rescaled_final/1160_rv.mp4	0.0	74.87286901473999	2.5084049701690674
2	55.43256402015686	pulse	1	t		0.0	2.5	/experiments/AOT/AOT_stimuli/rescaled_final/1160_rv.mp4	0.0	76.46419191360474	
2	56.34964609146118	fix_post	2		12	0.0	2.5	/experiments/AOT/AOT_stimuli/rescaled_final/1160_rv.mp4	0.0	77.38127398490906	0.09995698928833008
3	56.44960308074951	fix_pre	0		120	1.0	2.5	/experiments/AOT/AOT_stimuli/rescaled_final/0662_fw.mp4	0.0	77.48123097419739	1.0000100135803223
3	57.033143043518066	pulse	0	t		1.0	2.5	/experiments/AOT/AOT_stimuli/rescaled_final/0662_fw.mp4	0.0	78.06477093696594	
3	57.449613094329834	movie	1		245	1.0	2.5	/experiments/AOT/AOT_stimuli/rescaled_final/0662_fw.mp4	0.0	78.48124098777771	2.4999349117279053
3	58.63312315940857	pulse	1	t		1.0	2.5	/experiments/AOT/AOT_stimuli/rescaled_final/0662_fw.mp4	0.0	79.66475105285645	
3	59.94954800605774	fix_post	2		12	1.0	2.5	/experiments/AOT/AOT_stimuli/rescaled_final/0662_fw.mp4	0.0	80.98117589950562	0.10004401206970215
4	60.04959201812744	fix_pre	0		120	2.0	2.5	/experiments/AOT/AOT_stimuli/rescaled_final/0736_rv.mp4	0.0	81.08121991157532	1.0000159740447998
4	60.23304319381714	pulse	0	t		2.0	2.5	/experiments/AOT/AOT_stimuli/rescaled_final/0736_rv.mp4	0.0	81.26467108726501	
4	61.04960799217224	movie	1		245	2.0	2.5	/experiments/AOT/AOT_stimuli/rescaled_final/0736_rv.mp4	0.0	82.08123588562012	2.500014066696167
4	61.833070039749146	pulse	1	t		2.0	2.5	/experiments/AOT/AOT_stimuli/rescaled_final/0736_rv.mp4	0.0	82.86469793319702	
4	63.4319121837616	pulse	1	t		2.0	2.5	/experiments/AOT/AOT_stimuli/rescaled_final/0736_rv.mp4	0.0	84.46354007720947	
4	63.54962205886841	fix_post	2		12	2.0	2.5	/experiments/AOT/AOT_stimuli/rescaled_final/0736_rv.mp4	0.0	84.58124995231628	0.09994006156921387
5	63.64956212043762	fix_pre	0		120	3.0	2.5	/experiments/AOT/AOT_stimuli/rescaled_final/1987_fw.mp4	0.0	84.6811900138855	1.0000689029693604
5	64.64963102340698	movie	1		243	3.0	2.5	/experiments/AOT/AOT_stimuli/rescaled_final/1987_fw.mp4	0.0	85.68125891685486	2.4999780654907227
5	65.03269910812378	pulse	1	t		3.0	2.5	/experiments/AOT/AOT_stimuli/rescaled_final/1987_fw.mp4	0.0	86.06432700157166	
5	66.63310408592224	pulse	1	t		3.0	2.5	/experiments/AOT/AOT_stimuli/rescaled_final/1987_fw.mp4	0.0	87.66473197937012	
5	67.1496090888977	fix_post	2		12	3.0	2.5	/experiments/AOT/AOT_stimuli/rescaled_final/1987_fw.mp4	0.0	88.18123698234558	0.09989094734191895
6	67.24950003623962	fix_pre	0		119	4.0	2.5	/experiments/AOT/AOT_stimuli/rescaled_final/1202_fw.mp4	0.0	88.2811279296875	0.9917690753936768
6	68.23306012153625	pulse	0	t		4.0	2.5	/experiments/AOT/AOT_stimuli/rescaled_final/1202_fw.mp4	0.0	89.26468801498413	
6	68.2412691116333	movie	1		244	4.0	2.5	/experiments/AOT/AOT_stimuli/rescaled_final/1202_fw.mp4	0.0	89.27289700508118	2.507904052734375
6	69.8328812122345	pulse	1	t		4.0	2.5	/experiments/AOT/AOT_stimuli/rescaled_final/1202_fw.mp4	0.0	90.86450910568237	
6	70.74917316436768	fix_post	2		12	4.0	2.5	/experiments/AOT/AOT_stimuli/rescaled_final/1202_fw.mp4	0.0	91.78080105781555	0.10041093826293945
7	70.84958410263062	fix_pre	0		120	5.0	2.5	/experiments/AOT/AOT_stimuli/rescaled_final/1492_fw.mp4	0.0	91.88121199607849	1.000011920928955
7	71.43314218521118	pulse	0	t		5.0	2.5	/experiments/AOT/AOT_stimuli/rescaled_final/1492_fw.mp4	0.0	92.46477007865906	
7	71.84959602355957	movie	1		244	5.0	2.5	/experiments/AOT/AOT_stimuli/rescaled_final/1492_fw.mp4	0.0	92.88122391700745	2.4999561309814453
7	73.03315210342407	pulse	1	t		5.0	2.5	/experiments/AOT/AOT_stimuli/rescaled_final/1492_fw.mp4	0.0	94.06477999687195	
7	74.34955215454102	fix_post	2		12	5.0	2.5	/experiments/AOT/AOT_stimuli/rescaled_final/1492_fw.mp4	0.0	95.38118004798889	0.09999394416809082
8	74.4495460987091	fix_pre	0		120	6.0	2.5	/experiments/AOT/AOT_stimuli/rescaled_final/0312_rv.mp4	0.0	95.48117399215698	1.0001111030578613
8	74.63296413421631	pulse	0	t		6.0	2.5	/experiments/AOT/AOT_stimuli/rescaled_final/0312_rv.mp4	0.0	95.66459202766418	
8	75.44965720176697	movie	1		244	6.0	2.5	/experiments/AOT/AOT_stimuli/rescaled_final/0312_rv.mp4	0.0	96.48128509521484	2.499598979949951
8	76.23257517814636	pulse	1	t		6.0	2.5	/experiments/AOT/AOT_stimuli/rescaled_final/0312_rv.mp4	0.0	97.26420307159424	
8	77.84114599227905	pulse	1	t		6.0	2.5	/experiments/AOT/AOT_stimuli/rescaled_final/0312_rv.mp4	0.0	98.87277388572693	
8	77.94925618171692	fix_post	2		12	6.0	2.5	/experiments/AOT/AOT_stimuli/rescaled_final/0312_rv.mp4	0.0	98.9808840751648	0.10040402412414551
9	78.04966020584106	fix_pre	0		120	7.0	2.5	blank	1.0	99.08128809928894	0.9998579025268555
9	79.04951810836792	movie	1		300	7.0	2.5	blank	1.0	100.0811460018158	2.4999899864196777
9	79.43315601348877	pulse	1	t		7.0	2.5	blank	1.0	100.46478390693665	
9	81.03307819366455	pulse	1	t		7.0	2.5	blank	1.0	102.06470608711243	
9	81.5495080947876	fix_post	2		12	7.0	2.5	blank	1.0	102.58113598823547	0.10001492500305176
10	81.64952301979065	fix_pre	0		119	8.0	2.5	/experiments/AOT/AOT_stimuli/rescaled_final/0375_fw.mp4	0.0	102.68115091323853	0.9916679859161377
10	82.63296914100647	pulse	0	t		8.0	2.5	/experiments/AOT/AOT_stimuli/rescaled_final/0375_fw.mp4	0.0	103.66459703445435	
10	82.64119100570679	movie	1		247	8.0	2.5	/experiments/AOT/AOT_stimuli/rescaled_final/0375_fw.mp4	0.0	103.67281889915466	2.507829189300537
10	84.23247003555298	pulse	1	t		8.0	2.5	/experiments/AOT/AOT_stimuli/rescaled_final/0375_fw.mp4	0.0	105.26409792900085	
10	85.14902019500732	fix_post	2		12	8.0	2.5	/experiments/AOT/AOT_stimuli/rescaled_final/0375_fw.mp4	0.0	106.1806480884552	0.10045099258422852
11	85.24947118759155	fix_pre	0		120	9.0	2.5	/experiments/AOT/AOT_stimuli/rescaled_final/1780_rv.mp4	0.0	106.28109908103943	1.0000338554382324
11	85.83292317390442	pulse	0	t		9.0	2.5	/experiments/AOT/AOT_stimuli/rescaled_final/1780_rv.mp4	0.0	106.8645510673523	
11	86.24950504302979	movie	1		247	9.0	2.5	/experiments/AOT/AOT_stimuli/rescaled_final/1780_rv.mp4	0.0	107.28113293647766	2.4995529651641846
11	87.43302321434021	pulse	1	t		9.0	2.5	/experiments/AOT/AOT_stimuli/rescaled_final/1780_rv.mp4	0.0	108.46465110778809	
11	88.74905800819397	fix_post	2		12	9.0	2.5	/experiments/AOT/AOT_stimuli/rescaled_final/1780_rv.mp4	0.0	109.78068590164185	0.10008716583251953
12	88.84914517402649	fix_pre	0		120	10.0	2.5	/experiments/AOT/AOT_stimuli/rescaled_final/1114_rv.mp4	0.0	109.88077306747437	1.0002918243408203
12	89.03304409980774	pulse	0	t		10.0	2.5	/experiments/AOT/AOT_stimuli/rescaled_final/1114_rv.mp4	0.0	110.06467199325562	
12	89.84943699836731	movie	1		244	10.0	2.5	/experiments/AOT/AOT_stimuli/rescaled_final/1114_rv.mp4	0.0	110.88106489181519	2.5000221729278564
12	90.63294816017151	pulse	1	t		10.0	2.5	/experiments/AOT/AOT_stimuli/rescaled_final/1114_rv.mp4	0.0	111.66457605361938	
12	92.2323830127716	pulse	1	t		10.0	2.5	/experiments/AOT/AOT_stimuli/rescaled_final/1114_rv.mp4	0.0	113.26401090621948	
12	92.34945917129517	fix_post	2		12	10.0	2.5	/experiments/AOT/AOT_stimuli/rescaled_final/1114_rv.mp4	0.0	113.38108706474304	0.0999908447265625
13	92.44945001602173	fix_pre	0		120	11.0	2.5	/experiments/AOT/AOT_stimuli/rescaled_final/1047_rv.mp4	0.0	113.4810779094696	1.0000040531158447
13	93.44945406913757	movie	1		243	11.0	2.5	/experiments/AOT/AOT_stimuli/rescaled_final/1047_rv.mp4	0.0	114.48108196258545	2.4999520778656006
13	93.83250117301941	pulse	1	t		11.0	2.5	/experiments/AOT/AOT_stimuli/rescaled_final/1047_rv.mp4	0.0	114.86412906646729	
13	95.43292307853699	pulse	1	t		11.0	2.5	/experiments/AOT/AOT_stimuli/rescaled_final/1047_rv.mp4	0.0	116.46455097198486	
13	95.94940614700317	fix_post	2		12	11.0	2.5	/experiments/AOT/AOT_stimuli/rescaled_final/1047_rv.mp4	0.0	116.98103404045105	0.10009503364562988
14	96.0495011806488	fix_pre	0		119	12.0	2.5	/experiments/AOT/AOT_stimuli/rescaled_final/0313_fw.mp4	0.0	117.08112907409668	0.9915909767150879
14	97.03294610977173	pulse	0	t		12.0	2.5	/experiments/AOT/AOT_stimuli/rescaled_final/0313_fw.mp4	0.0	118.0645740032196	
14	97.04109215736389	movie	1		246	12.0	2.5	/experiments/AOT/AOT_stimuli/rescaled_final/0313_fw.mp4	0.0	118.07272005081177	2.5083889961242676
14	98.63265419006348	pulse	1	t		12.0	2.5	/experiments/AOT/AOT_stimuli/rescaled_final/0313_fw.mp4	0.0	119.66428208351135	
14	99.54948115348816	fix_post	2		12	12.0	2.5	/experiments/AOT/AOT_stimuli/rescaled_final/0313_fw.mp4	0.0	120.58110904693604	0.09995698928833008
15	99.64943814277649	fix_pre	0		120	13.0	2.5	/experiments/AOT/AOT_stimuli/rescaled_final/0384_rv.mp4	0.0	120.68106603622437	0.9999730587005615
15	100.23296904563904	pulse	0	t		13.0	2.5	/experiments/AOT/AOT_stimuli/rescaled_final/0384_rv.mp4	0.0	121.26459693908691	
15	100.64941120147705	movie	1		243	13.0	2.5	/experiments/AOT/AOT_stimuli/rescaled_final/0384_rv.mp4	0.0	121.68103909492493	2.499992847442627
15	101.83294916152954	pulse	1	t		13.0	2.5	/experiments/AOT/AOT_stimuli/rescaled_final/0384_rv.mp4	0.0	122.86457705497742	
15	103.14940404891968	fix_post	2		12	13.0	2.5	/experiments/AOT/AOT_stimuli/rescaled_final/0384_rv.mp4	0.0	124.18103194236755	0.10001301765441895
16	103.2494170665741	fix_pre	0		120	14.0	2.5	blank	1.0	124.28104496002197	0.9999480247497559
16	103.43292617797852	pulse	0	t		14.0	2.5	blank	1.0	124.46455407142639	
16	104.24936509132385	movie	1		300	14.0	2.5	blank	1.0	125.28099298477173	2.4999759197235107
16	105.032879114151	pulse	1	t		14.0	2.5	blank	1.0	126.06450700759888	
16	106.63286805152893	pulse	1	t		14.0	2.5	blank	1.0	127.6644959449768	
16	106.74934101104736	fix_post	2		12	14.0	2.5	blank	1.0	127.78096890449524	0.09961104393005371
17	106.84895205497742	fix_pre	0		120	15.0	2.5	/experiments/AOT/AOT_stimuli/rescaled_final/0776_rv.mp4	0.0	127.8805799484253	1.0003890991210938
17	107.84934115409851	movie	1		250	15.0	2.5	/experiments/AOT/AOT_stimuli/rescaled_final/0776_rv.mp4	0.0	128.8809690475464	2.4999208450317383
17	108.2323989868164	pulse	1	t		15.0	2.5	/experiments/AOT/AOT_stimuli/rescaled_final/0776_rv.mp4	0.0	129.26402688026428	
17	109.83286809921265	pulse	1	t		15.0	2.5	/experiments/AOT/AOT_stimuli/rescaled_final/0776_rv.mp4	0.0	130.86449599266052	
17	110.34926199913025	fix_post	2		12	15.0	2.5	/experiments/AOT/AOT_stimuli/rescaled_final/0776_rv.mp4	0.0	131.38088989257812	0.1000361442565918
18	110.44929814338684	fix_pre	0		119	16.0	2.5	/experiments/AOT/AOT_stimuli/rescaled_final/1987_fw.mp4	0.0	131.48092603683472	0.9917778968811035
18	111.43280720710754	pulse	0	t		16.0	2.5	/experiments/AOT/AOT_stimuli/rescaled_final/1987_fw.mp4	0.0	132.46443510055542	
18	111.44107604026794	movie	1		245	16.0	2.5	/experiments/AOT/AOT_stimuli/rescaled_final/1987_fw.mp4	0.0	132.47270393371582	2.5078959465026855
18	113.0324912071228	pulse	1	t		16.0	2.5	/experiments/AOT/AOT_stimuli/rescaled_final/1987_fw.mp4	0.0	134.06411910057068	
18	113.94897198677063	fix_post	2		12	16.0	2.5	/experiments/AOT/AOT_stimuli/rescaled_final/1987_fw.mp4	0.0	134.9805998802185	0.10042405128479004
19	114.04939603805542	fix_pre	0		120	17.0	2.5	/experiments/AOT/AOT_stimuli/rescaled_final/0639_rv.mp4	0.0	135.0810239315033	0.9999899864196777
19	114.63279509544373	pulse	0	t		17.0	2.5	/experiments/AOT/AOT_stimuli/rescaled_final/0639_rv.mp4	0.0	135.6644229888916	
19	115.0493860244751	movie	1		244	17.0	2.5	/experiments/AOT/AOT_stimuli/rescaled_final/0639_rv.mp4	0.0	136.08101391792297	2.5000009536743164
19	116.2328770160675	pulse	1	t		17.0	2.5	/experiments/AOT/AOT_stimuli/rescaled_final/0639_rv.mp4	0.0	137.26450490951538	
19	117.54938697814941	fix_post	2		12	17.0	2.5	/experiments/AOT/AOT_stimuli/rescaled_final/0639_rv.mp4	0.0	138.5810148715973	0.0999760627746582
20	117.64936304092407	fix_pre	0		120	18.0	2.5	/experiments/AOT/AOT_stimuli/rescaled_final/1908_fw.mp4	0.0	138.68099093437195	0.9999611377716064
20	117.832839012146	pulse	0	t		18.0	2.5	/experiments/AOT/AOT_stimuli/rescaled_final/1908_fw.mp4	0.0	138.86446690559387	
20	118.64932417869568	movie	1		244	18.0	2.5	/experiments/AOT/AOT_stimuli/rescaled_final/1908_fw.mp4	0.0	139.68095207214355	2.4995620250701904
20	119.43290710449219	pulse	1	t		18.0	2.5	/experiments/AOT/AOT_stimuli/rescaled_final/1908_fw.mp4	0.0	140.46453499794006	
20	121.04112100601196	pulse	1	t		18.0	2.5	/experiments/AOT/AOT_stimuli/rescaled_final/1908_fw.mp4	0.0	142.07274889945984	
20	121.14888620376587	fix_post	2		12	18.0	2.5	/experiments/AOT/AOT_stimuli/rescaled_final/1908_fw.mp4	0.0	142.18051409721375	0.10055279731750488
21	121.24943900108337	fix_pre	0		120	19.0	2.5	blank	1.0	142.28106689453125	0.9998931884765625
21	122.24933218955994	movie	1		300	19.0	2.5	blank	1.0	143.2809600830078	2.499969959259033
21	122.63284015655518	pulse	1	t		19.0	2.5	blank	1.0	143.66446805000305	
21	124.23273205757141	pulse	1	t		19.0	2.5	blank	1.0	145.2643599510193	
21	124.74930214881897	fix_post	2		12	19.0	2.5	blank	1.0	145.78093004226685	0.10003304481506348
22	124.84933519363403	fix_pre	0		119	20.0	2.5	/experiments/AOT/AOT_stimuli/rescaled_final/0878_rv.mp4	0.0	145.8809630870819	0.9915850162506104
22	125.83283114433289	pulse	0	t		20.0	2.5	/experiments/AOT/AOT_stimuli/rescaled_final/0878_rv.mp4	0.0	146.86445903778076	
22	125.84092020988464	movie	1		245	20.0	2.5	/experiments/AOT/AOT_stimuli/rescaled_final/0878_rv.mp4	0.0	146.87254810333252	2.5079309940338135
22	127.43231010437012	pulse	1	t		20.0	2.5	/experiments/AOT/AOT_stimuli/rescaled_final/0878_rv.mp4	0.0	148.463937997818	
22	128.34885120391846	fix_post	2		12	20.0	2.5	/experiments/AOT/AOT_stimuli/rescaled_final/0878_rv.mp4	0.0	149.38047909736633	0.10051798820495605
23	128.4493691921234	fix_pre	0		120	21.0	2.5	/experiments/AOT/AOT_stimuli/rescaled_final/0054_fw.mp4	0.0	149.4809970855713	0.9998857975006104
23	129.03273105621338	pulse	0	t		21.0	2.5	/experiments/AOT/AOT_stimuli/rescaled_final/0054_fw.mp4	0.0	150.06435894966125	
23	129.44925498962402	movie	1		247	21.0	2.5	/experiments/AOT/AOT_stimuli/rescaled_final/0054_fw.mp4	0.0	150.4808828830719	2.499587059020996
23	130.63285303115845	pulse	1	t		21.0	2.5	/experiments/AOT/AOT_stimuli/rescaled_final/0054_fw.mp4	0.0	151.66448092460632	
23	131.94884204864502	fix_post	2		12	21.0	2.5	/experiments/AOT/AOT_stimuli/rescaled_final/0054_fw.mp4	0.0	152.9804699420929	0.10055208206176758
24	132.0493941307068	fix_pre	0		120	22.0	2.5	/experiments/AOT/AOT_stimuli/rescaled_final/0626_rv.mp4	0.0	153.08102202415466	1.0002059936523438
24	132.23310804367065	pulse	0	t		22.0	2.5	/experiments/AOT/AOT_stimuli/rescaled_final/0626_rv.mp4	0.0	153.26473593711853	
24	133.04960012435913	movie	1		246	22.0	2.5	/experiments/AOT/AOT_stimuli/rescaled_final/0626_rv.mp4	0.0	154.081228017807	2.4996109008789062
24	133.83242106437683	pulse	1	t		22.0	2.5	/experiments/AOT/AOT_stimuli/rescaled_final/0626_rv.mp4	0.0	154.8640489578247	
24	135.43288111686707	pulse	1	t		22.0	2.5	/experiments/AOT/AOT_stimuli/rescaled_final/0626_rv.mp4	0.0	156.46450901031494	
24	135.54921102523804	fix_post	2		12	22.0	2.5	/experiments/AOT/AOT_stimuli/rescaled_final/0626_rv.mp4	0.0	156.5808389186859	0.10009598731994629
25	135.64930701255798	fix_pre	0		120	23.0	2.5	/experiments/AOT/AOT_stimuli/rescaled_final/0867_fw.mp4	0.0	156.68093490600586	1.0000371932983398
25	136.64934420585632	movie	1		243	23.0	2.5	/experiments/AOT/AOT_stimuli/rescaled_final/0867_fw.mp4	0.0	157.6809720993042	2.499640941619873
25	137.03264498710632	pulse	1	t		23.0	2.5	/experiments/AOT/AOT_stimuli/rescaled_final/0867_fw.mp4	0.0	158.0642728805542	
25	138.63273215293884	pulse	1	t		23.0	2.5	/experiments/AOT/AOT_stimuli/rescaled_final/0867_fw.mp4	0.0	159.66436004638672	
25	139.1489851474762	fix_post	2		12	23.0	2.5	/experiments/AOT/AOT_stimuli/rescaled_final/0867_fw.mp4	0.0	160.18061304092407	0.10029292106628418
26	139.24927806854248	fix_pre	0		119	24.0	2.5	/experiments/AOT/AOT_stimuli/rescaled_final/1930_rv.mp4	0.0	160.28090596199036	0.9915881156921387
26	140.23260498046875	pulse	0	t		24.0	2.5	/experiments/AOT/AOT_stimuli/rescaled_final/1930_rv.mp4	0.0	161.26423287391663	
26	140.24086618423462	movie	1		246	24.0	2.5	/experiments/AOT/AOT_stimuli/rescaled_final/1930_rv.mp4	0.0	161.2724940776825	2.5079569816589355
26	141.83212399482727	pulse	1	t		24.0	2.5	/experiments/AOT/AOT_stimuli/rescaled_final/1930_rv.mp4	0.0	162.86375188827515	
26	142.74882316589355	fix_post	2		12	24.0	2.5	/experiments/AOT/AOT_stimuli/rescaled_final/1930_rv.mp4	0.0	163.78045105934143	0.10032987594604492
27	142.8491530418396	fix_pre	0		120	25.0	2.5	/experiments/AOT/AOT_stimuli/rescaled_final/2046_rv.mp4	0.0	163.88078093528748	0.9999361038208008
27	143.4327311515808	pulse	0	t		25.0	2.5	/experiments/AOT/AOT_stimuli/rescaled_final/2046_rv.mp4	0.0	164.4643590450287	
27	143.8490891456604	movie	1		243	25.0	2.5	/experiments/AOT/AOT_stimuli/rescaled_final/2046_rv.mp4	0.0	164.88071703910828	2.500102996826172
27	145.0327820777893	pulse	1	t		25.0	2.5	/experiments/AOT/AOT_stimuli/rescaled_final/2046_rv.mp4	0.0	166.06440997123718	
27	146.34919214248657	fix_post	2		12	25.0	2.5	/experiments/AOT/AOT_stimuli/rescaled_final/2046_rv.mp4	0.0	167.38082003593445	0.09959793090820312
28	146.44879007339478	fix_pre	0		120	26.0	2.5	/experiments/AOT/AOT_stimuli/rescaled_final/1635_fw.mp4	0.0	167.48041796684265	0.9999539852142334
28	146.63263702392578	pulse	0	t		26.0	2.5	/experiments/AOT/AOT_stimuli/rescaled_final/1635_fw.mp4	0.0	167.66426491737366	
28	147.448744058609	movie	1		244	26.0	2.5	/experiments/AOT/AOT_stimuli/rescaled_final/1635_fw.mp4	0.0	168.48037195205688	2.4999239444732666
28	148.2325050830841	pulse	1	t		26.0	2.5	/experiments/AOT/AOT_stimuli/rescaled_final/1635_fw.mp4	0.0	169.26413297653198	
28	149.84108018875122	pulse	1	t		26.0	2.5	/experiments/AOT/AOT_stimuli/rescaled_final/1635_fw.mp4	0.0	170.8727080821991	
28	149.94866800308228	fix_post	2		12	26.0	2.5	/experiments/AOT/AOT_stimuli/rescaled_final/1635_fw.mp4	0.0	170.98029589653015	0.10046720504760742
29	150.04913520812988	fix_pre	0		120	27.0	2.5	/experiments/AOT/AOT_stimuli/rescaled_final/0148_fw.mp4	0.0	171.08076310157776	0.9996769428253174
29	151.0488121509552	movie	1		244	27.0	2.5	/experiments/AOT/AOT_stimuli/rescaled_final/0148_fw.mp4	0.0	172.08044004440308	2.4999849796295166
29	151.43241620063782	pulse	1	t		27.0	2.5	/experiments/AOT/AOT_stimuli/rescaled_final/0148_fw.mp4	0.0	172.4640440940857	
29	153.03261017799377	pulse	1	t		27.0	2.5	/experiments/AOT/AOT_stimuli/rescaled_final/0148_fw.mp4	0.0	174.06423807144165	
29	153.54879713058472	fix_post	2		12	27.0	2.5	/experiments/AOT/AOT_stimuli/rescaled_final/0148_fw.mp4	0.0	174.5804250240326	0.10030603408813477
30	153.64910316467285	fix_pre	0		119	28.0	2.5	blank	1.0	174.68073105812073	0.9917399883270264
30	154.63269805908203	pulse	0	t		28.0	2.5	blank	1.0	175.6643259525299	
30	154.64084315299988	movie	1		301	28.0	2.5	blank	1.0	175.67247104644775	2.5082638263702393
30	156.23265719413757	pulse	1	t		28.0	2.5	blank	1.0	177.26428508758545	
30	157.14910697937012	fix_post	2		12	28.0	2.5	blank	1.0	178.180734872818	0.10001611709594727
31	157.24912309646606	fix_pre	0		120	29.0	2.5	/experiments/AOT/AOT_stimuli/rescaled_final/0035_rv.mp4	0.0	178.28075098991394	0.999500036239624
31	157.83264017105103	pulse	0	t		29.0	2.5	/experiments/AOT/AOT_stimuli/rescaled_final/0035_rv.mp4	0.0	178.8642680644989	
31	158.2486231327057	movie	1		245	29.0	2.5	/experiments/AOT/AOT_stimuli/rescaled_final/0035_rv.mp4	0.0	179.28025102615356	2.500593900680542
31	159.43276500701904	pulse	1	t		29.0	2.5	/experiments/AOT/AOT_stimuli/rescaled_final/0035_rv.mp4	0.0	180.46439290046692	
31	160.74921703338623	fix_post	2		12	29.0	2.5	/experiments/AOT/AOT_stimuli/rescaled_final/0035_rv.mp4	0.0	181.7808449268341	0.09952116012573242
32	160.84873819351196	fix_pre	0		120	30.0	2.5	/experiments/AOT/AOT_stimuli/rescaled_final/1949_rv.mp4	0.0	181.88036608695984	1.0004417896270752
32	161.03268718719482	pulse	0	t		30.0	2.5	/experiments/AOT/AOT_stimuli/rescaled_final/1949_rv.mp4	0.0	182.0643150806427	
32	161.84917998313904	movie	1		245	30.0	2.5	/experiments/AOT/AOT_stimuli/rescaled_final/1949_rv.mp4	0.0	182.8808078765869	2.499891996383667
32	162.63270020484924	pulse	1	t		30.0	2.5	/experiments/AOT/AOT_stimuli/rescaled_final/1949_rv.mp4	0.0	183.66432809829712	
32	164.24098420143127	pulse	1	t		30.0	2.5	/experiments/AOT/AOT_stimuli/rescaled_final/1949_rv.mp4	0.0	185.27261209487915	
32	164.3490719795227	fix_post	2		12	30.0	2.5	/experiments/AOT/AOT_stimuli/rescaled_final/1949_rv.mp4	0.0	185.38069987297058	0.09994220733642578
33	164.44901418685913	fix_pre	0		120	31.0	2.5	/experiments/AOT/AOT_stimuli/rescaled_final/0781_fw.mp4	0.0	185.480642080307	1.0000579357147217
33	165.44907212257385	movie	1		244	31.0	2.5	/experiments/AOT/AOT_stimuli/rescaled_final/0781_fw.mp4	0.0	186.48070001602173	2.5000109672546387
33	165.840980052948	pulse	1	t		31.0	2.5	/experiments/AOT/AOT_stimuli/rescaled_final/0781_fw.mp4	0.0	186.87260794639587	
33	167.4324870109558	pulse	1	t		31.0	2.5	/experiments/AOT/AOT_stimuli/rescaled_final/0781_fw.mp4	0.0	188.4641149044037	
33	167.9490830898285	fix_post	2		12	31.0	2.5	/experiments/AOT/AOT_stimuli/rescaled_final/0781_fw.mp4	0.0	188.98071098327637	0.10004401206970215
34	168.0491271018982	fix_pre	0		119	32.0	2.5	/experiments/AOT/AOT_stimuli/rescaled_final/1897_fw.mp4	0.0	189.08075499534607	0.991631031036377
34	169.0325632095337	pulse	0	t		32.0	2.5	/experiments/AOT/AOT_stimuli/rescaled_final/1897_fw.mp4	0.0	190.06419110298157	
34	169.04075813293457	movie	1		247	32.0	2.5	/experiments/AOT/AOT_stimuli/rescaled_final/1897_fw.mp4	0.0	190.07238602638245	2.508314847946167
34	170.63223910331726	pulse	1	t		32.0	2.5	/experiments/AOT/AOT_stimuli/rescaled_final/1897_fw.mp4	0.0	191.66386699676514	
34	171.54907298088074	fix_post	2		12	32.0	2.5	/experiments/AOT/AOT_stimuli/rescaled_final/1897_fw.mp4	0.0	192.5807008743286	0.09998416900634766
35	171.64905714988708	fix_pre	0		120	33.0	2.5	/experiments/AOT/AOT_stimuli/rescaled_final/0146_rv.mp4	0.0	192.68068504333496	1.0000059604644775
35	172.23380613327026	pulse	0	t		33.0	2.5	/experiments/AOT/AOT_stimuli/rescaled_final/0146_rv.mp4	0.0	193.26543402671814	
35	172.64906311035156	movie	1		244	33.0	2.5	/experiments/AOT/AOT_stimuli/rescaled_final/0146_rv.mp4	0.0	193.68069100379944	2.4995949268341064
35	173.8325560092926	pulse	1	t		33.0	2.5	/experiments/AOT/AOT_stimuli/rescaled_final/0146_rv.mp4	0.0	194.86418390274048	
35	175.14865803718567	fix_post	2		12	33.0	2.5	/experiments/AOT/AOT_stimuli/rescaled_final/0146_rv.mp4	0.0	196.18028593063354	0.10031509399414062
36	175.2489731311798	fix_pre	0		120	34.0	2.5	/experiments/AOT/AOT_stimuli/rescaled_final/1073_fw.mp4	0.0	196.28060102462769	0.9995739459991455
36	175.43254613876343	pulse	0	t		34.0	2.5	/experiments/AOT/AOT_stimuli/rescaled_final/1073_fw.mp4	0.0	196.4641740322113	
36	176.24854707717896	movie	1		243	34.0	2.5	/experiments/AOT/AOT_stimuli/rescaled_final/1073_fw.mp4	0.0	197.28017497062683	2.5004639625549316
36	177.03248810768127	pulse	1	t		34.0	2.5	/experiments/AOT/AOT_stimuli/rescaled_final/1073_fw.mp4	0.0	198.06411600112915	
36	178.64100813865662	pulse	1	t		34.0	2.5	/experiments/AOT/AOT_stimuli/rescaled_final/1073_fw.mp4	0.0	199.6726360321045	
36	178.7490110397339	fix_post	2		12	34.0	2.5	/experiments/AOT/AOT_stimuli/rescaled_final/1073_fw.mp4	0.0	199.78063893318176	0.09990596771240234
37	178.8489170074463	fix_pre	0		120	35.0	2.5	blank	1.0	199.88054490089417	1.0001270771026611
37	179.84904408454895	movie	1		300	35.0	2.5	blank	1.0	200.88067197799683	2.499535083770752
37	180.2326021194458	pulse	1	t		35.0	2.5	blank	1.0	201.26423001289368	
37	181.8325970172882	pulse	1	t		35.0	2.5	blank	1.0	202.86422491073608	
37	182.3485791683197	fix_post	2		12	35.0	2.5	blank	1.0	203.38020706176758	0.10039186477661133
38	182.4489710330963	fix_pre	0		119	36.0	2.5	/experiments/AOT/AOT_stimuli/rescaled_final/1633_rv.mp4	0.0	203.4805989265442	0.9917199611663818
38	183.4324700832367	pulse	0	t		36.0	2.5	/experiments/AOT/AOT_stimuli/rescaled_final/1633_rv.mp4	0.0	204.46409797668457	
38	183.4406909942627	movie	1		244	36.0	2.5	/experiments/AOT/AOT_stimuli/rescaled_final/1633_rv.mp4	0.0	204.47231888771057	2.5083041191101074
38	185.03298711776733	pulse	1	t		36.0	2.5	/experiments/AOT/AOT_stimuli/rescaled_final/1633_rv.mp4	0.0	206.0646150112152	
38	185.9489951133728	fix_post	2		12	36.0	2.5	/experiments/AOT/AOT_stimuli/rescaled_final/1633_rv.mp4	0.0	206.98062300682068	0.09995007514953613
39	186.04894518852234	fix_pre	0		120	37.0	2.5	/experiments/AOT/AOT_stimuli/rescaled_final/0728_fw.mp4	0.0	207.08057308197021	1.0000808238983154
39	186.63260912895203	pulse	0	t		37.0	2.5	/experiments/AOT/AOT_stimuli/rescaled_final/0728_fw.mp4	0.0	207.6642370223999	
39	187.04902601242065	movie	1		245	37.0	2.5	/experiments/AOT/AOT_stimuli/rescaled_final/0728_fw.mp4	0.0	208.08065390586853	2.4997169971466064
39	188.23301100730896	pulse	1	t		37.0	2.5	/experiments/AOT/AOT_stimuli/rescaled_final/0728_fw.mp4	0.0	209.26463890075684	
39	189.54874300956726	fix_post	2		12	37.0	2.5	/experiments/AOT/AOT_stimuli/rescaled_final/0728_fw.mp4	0.0	210.58037090301514	0.10006403923034668
40	189.6488070487976	fix_pre	0		120	38.0	2.5	/experiments/AOT/AOT_stimuli/rescaled_final/0495_rv.mp4	0.0	210.68043494224548	1.0000450611114502
40	189.83218121528625	pulse	0	t		38.0	2.5	/experiments/AOT/AOT_stimuli/rescaled_final/0495_rv.mp4	0.0	210.86380910873413	
40	190.64885210990906	movie	1		244	38.0	2.5	/experiments/AOT/AOT_stimuli/rescaled_final/0495_rv.mp4	0.0	211.68048000335693	2.500113010406494
40	191.43242502212524	pulse	1	t		38.0	2.5	/experiments/AOT/AOT_stimuli/rescaled_final/0495_rv.mp4	0.0	212.46405291557312	
40	193.04080605506897	pulse	1	t		38.0	2.5	/experiments/AOT/AOT_stimuli/rescaled_final/0495_rv.mp4	0.0	214.07243394851685	
40	193.14896512031555	fix_post	2		12	38.0	2.5	/experiments/AOT/AOT_stimuli/rescaled_final/0495_rv.mp4	0.0	214.18059301376343	0.09998202323913574
41	193.2489471435547	fix_pre	0		120	39.0	2.5	/experiments/AOT/AOT_stimuli/rescaled_final/1187_rv.mp4	0.0	214.28057503700256	1.0000810623168945
41	194.24902820587158	movie	1		243	39.0	2.5	/experiments/AOT/AOT_stimuli/rescaled_final/1187_rv.mp4	0.0	215.28065609931946	2.500502824783325
41	194.6408281326294	pulse	1	t		39.0	2.5	/experiments/AOT/AOT_stimuli/rescaled_final/1187_rv.mp4	0.0	215.67245602607727	
41	196.2331781387329	pulse	1	t		39.0	2.5	/experiments/AOT/AOT_stimuli/rescaled_final/1187_rv.mp4	0.0	217.2648060321808	
41	196.7495310306549	fix_post	2		12	39.0	2.5	/experiments/AOT/AOT_stimuli/rescaled_final/1187_rv.mp4	0.0	217.78115892410278	0.09930300712585449
42	196.84883403778076	fix_pre	0		120	40.0	2.5	/experiments/AOT/AOT_stimuli/rescaled_final/0398_rv.mp4	0.0	217.88046193122864	1.0001130104064941
42	197.8332290649414	pulse	0	t		40.0	2.5	/experiments/AOT/AOT_stimuli/rescaled_final/0398_rv.mp4	0.0	218.86485695838928	
42	197.84894704818726	movie	1		247	40.0	2.5	/experiments/AOT/AOT_stimuli/rescaled_final/0398_rv.mp4	0.0	218.88057494163513	2.508226156234741
42	199.44049406051636	pulse	1	t		40.0	2.5	/experiments/AOT/AOT_stimuli/rescaled_final/0398_rv.mp4	0.0	220.47212195396423	
42	200.357173204422	fix_post	2		12	40.0	2.5	/experiments/AOT/AOT_stimuli/rescaled_final/0398_rv.mp4	0.0	221.38880109786987	0.10016894340515137
43	200.45734214782715	fix_pre	0		120	41.0	2.5	/experiments/AOT/AOT_stimuli/rescaled_final/2173_fw.mp4	0.0	221.48897004127502	0.999863862991333
43	201.03237414360046	pulse	0	t		41.0	2.5	/experiments/AOT/AOT_stimuli/rescaled_final/2173_fw.mp4	0.0	222.06400203704834	
43	201.45720601081848	movie	1		248	41.0	2.5	/experiments/AOT/AOT_stimuli/rescaled_final/2173_fw.mp4	0.0	222.48883390426636	2.500046968460083
43	202.6326780319214	pulse	1	t		41.0	2.5	/experiments/AOT/AOT_stimuli/rescaled_final/2173_fw.mp4	0.0	223.66430592536926	
43	203.95725297927856	fix_post	2		12	41.0	2.5	/experiments/AOT/AOT_stimuli/rescaled_final/2173_fw.mp4	0.0	224.98888087272644	0.09966921806335449
44	204.05692219734192	fix_pre	0		120	42.0	2.5	blank	1.0	225.0885500907898	1.0003468990325928
44	204.2323281764984	pulse	0	t		42.0	2.5	blank	1.0	225.2639560699463	
44	205.0572690963745	movie	1		300	42.0	2.5	blank	1.0	226.0888969898224	2.4998819828033447
44	205.83235621452332	pulse	1	t		42.0	2.5	blank	1.0	226.8639841079712	
44	207.43247509002686	pulse	1	t		42.0	2.5	blank	1.0	228.46410298347473	
44	207.55715107917786	fix_post	2		12	42.0	2.5	blank	1.0	228.58877897262573	0.09964299201965332
45	207.6567940711975	fix_pre	0		120	43.0	2.5	/experiments/AOT/AOT_stimuli/rescaled_final/0156_fw.mp4	0.0	228.68842196464539	1.0000460147857666
45	208.65684008598328	movie	1		244	43.0	2.5	/experiments/AOT/AOT_stimuli/rescaled_final/0156_fw.mp4	0.0	229.68846797943115	2.5003271102905273
45	209.03241515159607	pulse	1	t		43.0	2.5	/experiments/AOT/AOT_stimuli/rescaled_final/0156_fw.mp4	0.0	230.06404304504395	
45	210.63330817222595	pulse	1	t		43.0	2.5	/experiments/AOT/AOT_stimuli/rescaled_final/0156_fw.mp4	0.0	231.66493606567383	
45	211.1571671962738	fix_post	2		12	43.0	2.5	/experiments/AOT/AOT_stimuli/rescaled_final/0156_fw.mp4	0.0	232.18879508972168	0.0999457836151123
46	211.25711297988892	fix_pre	0		119	44.0	2.5	/experiments/AOT/AOT_stimuli/rescaled_final/0146_rv.mp4	0.0	232.2887408733368	0.9917271137237549
46	212.23318719863892	pulse	0	t		44.0	2.5	/experiments/AOT/AOT_stimuli/rescaled_final/0146_rv.mp4	0.0	233.2648150920868	
46	212.24884009361267	movie	1		245	44.0	2.5	/experiments/AOT/AOT_stimuli/rescaled_final/0146_rv.mp4	0.0	233.28046798706055	2.5084121227264404
46	213.83247804641724	pulse	1	t		44.0	2.5	/experiments/AOT/AOT_stimuli/rescaled_final/0146_rv.mp4	0.0	234.8641059398651	
46	214.7572522163391	fix_post	2		12	44.0	2.5	/experiments/AOT/AOT_stimuli/rescaled_final/0146_rv.mp4	0.0	235.788880109787	0.09997797012329102
47	214.8572301864624	fix_pre	0		120	45.0	2.5	/experiments/AOT/AOT_stimuli/rescaled_final/2066_rv.mp4	0.0	235.88885807991028	0.9999120235443115
47	215.43244409561157	pulse	0	t		45.0	2.5	/experiments/AOT/AOT_stimuli/rescaled_final/2066_rv.mp4	0.0	236.46407198905945	
47	215.8571422100067	movie	1		242	45.0	2.5	/experiments/AOT/AOT_stimuli/rescaled_final/2066_rv.mp4	0.0	236.8887701034546	2.499917984008789
47	217.040687084198	pulse	1	t		45.0	2.5	/experiments/AOT/AOT_stimuli/rescaled_final/2066_rv.mp4	0.0	238.07231497764587	
47	218.3570601940155	fix_post	2		12	45.0	2.5	/experiments/AOT/AOT_stimuli/rescaled_final/2066_rv.mp4	0.0	239.38868808746338	0.1001119613647461
48	218.45717215538025	fix_pre	0		120	46.0	2.5	/experiments/AOT/AOT_stimuli/rescaled_final/0626_rv.mp4	0.0	239.48880004882812	0.9995918273925781
48	218.63230204582214	pulse	0	t		46.0	2.5	/experiments/AOT/AOT_stimuli/rescaled_final/0626_rv.mp4	0.0	239.66392993927002	
48	219.45676398277283	movie	1		246	46.0	2.5	/experiments/AOT/AOT_stimuli/rescaled_final/0626_rv.mp4	0.0	240.4883918762207	2.500357151031494
48	220.23229813575745	pulse	1	t		46.0	2.5	/experiments/AOT/AOT_stimuli/rescaled_final/0626_rv.mp4	0.0	241.26392602920532	
48	221.83229207992554	pulse	1	t		46.0	2.5	/experiments/AOT/AOT_stimuli/rescaled_final/0626_rv.mp4	0.0	242.8639199733734	
48	221.95712113380432	fix_post	2		12	46.0	2.5	/experiments/AOT/AOT_stimuli/rescaled_final/0626_rv.mp4	0.0	242.9887490272522	0.10001087188720703
49	222.05713200569153	fix_pre	0		120	47.0	2.5	/experiments/AOT/AOT_stimuli/rescaled_final/1604_rv.mp4	0.0	243.0887598991394	0.9999270439147949
49	223.05705904960632	movie	1		245	47.0	2.5	/experiments/AOT/AOT_stimuli/rescaled_final/1604_rv.mp4	0.0	244.0886869430542	2.5000410079956055
49	223.43231010437012	pulse	1	t		47.0	2.5	/experiments/AOT/AOT_stimuli/rescaled_final/1604_rv.mp4	0.0	244.463937997818	
49	225.0323359966278	pulse	1	t		47.0	2.5	/experiments/AOT/AOT_stimuli/rescaled_final/1604_rv.mp4	0.0	246.06396389007568	
49	225.55710005760193	fix_post	2		12	47.0	2.5	/experiments/AOT/AOT_stimuli/rescaled_final/1604_rv.mp4	0.0	246.5887279510498	0.09991002082824707
50	225.65701007843018	fix_pre	0		119	48.0	2.5	/experiments/AOT/AOT_stimuli/rescaled_final/1346_fw.mp4	0.0	246.68863797187805	0.9917259216308594
50	226.6330840587616	pulse	0	t		48.0	2.5	/experiments/AOT/AOT_stimuli/rescaled_final/1346_fw.mp4	0.0	247.66471195220947	
50	226.64873600006104	movie	1		247	48.0	2.5	/experiments/AOT/AOT_stimuli/rescaled_final/1346_fw.mp4	0.0	247.6803638935089	2.508355140686035
50	228.24006509780884	pulse	1	t		48.0	2.5	/experiments/AOT/AOT_stimuli/rescaled_final/1346_fw.mp4	0.0	249.2716929912567	
50	229.15709114074707	fix_post	2		12	48.0	2.5	/experiments/AOT/AOT_stimuli/rescaled_final/1346_fw.mp4	0.0	250.18871903419495	0.10007596015930176
51	229.25716710090637	fix_pre	0		120	49.0	2.5	blank	1.0	250.28879499435425	0.999953031539917
51	229.83317399024963	pulse	0	t		49.0	2.5	blank	1.0	250.8648018836975	
51	230.2571201324463	movie	1		300	49.0	2.5	blank	1.0	251.28874802589417	2.4999470710754395
51	231.43309116363525	pulse	1	t		49.0	2.5	blank	1.0	252.46471905708313	
51	232.75706720352173	fix_post	2		12	49.0	2.5	blank	1.0	253.7886950969696	0.10003900527954102
52	232.85710620880127	fix_pre	0		120	50.0	2.5	/experiments/AOT/AOT_stimuli/rescaled_final/0332_rv.mp4	0.0	253.88873410224915	0.9999887943267822
52	233.0322539806366	pulse	0	t		50.0	2.5	/experiments/AOT/AOT_stimuli/rescaled_final/0332_rv.mp4	0.0	254.06388187408447	
52	233.85709500312805	movie	1		249	50.0	2.5	/experiments/AOT/AOT_stimuli/rescaled_final/0332_rv.mp4	0.0	254.88872289657593	2.499927043914795
52	234.63220810890198	pulse	1	t		50.0	2.5	/experiments/AOT/AOT_stimuli/rescaled_final/0332_rv.mp4	0.0	255.66383600234985	
52	236.2322051525116	pulse	1	t		50.0	2.5	/experiments/AOT/AOT_stimuli/rescaled_final/0332_rv.mp4	0.0	257.2638330459595	
52	236.35702204704285	fix_post	2		12	50.0	2.5	/experiments/AOT/AOT_stimuli/rescaled_final/0332_rv.mp4	0.0	257.3886499404907	0.1000680923461914
53	236.45709013938904	fix_pre	0		120	51.0	2.5	/experiments/AOT/AOT_stimuli/rescaled_final/0272_fw.mp4	0.0	257.4887180328369	0.9999830722808838
53	237.45707321166992	movie	1		244	51.0	2.5	/experiments/AOT/AOT_stimuli/rescaled_final/0272_fw.mp4	0.0	258.4887011051178	2.4999868869781494
53	237.8322331905365	pulse	1	t		51.0	2.5	/experiments/AOT/AOT_stimuli/rescaled_final/0272_fw.mp4	0.0	258.8638610839844	
53	239.43220114707947	pulse	1	t		51.0	2.5	/experiments/AOT/AOT_stimuli/rescaled_final/0272_fw.mp4	0.0	260.46382904052734	
53	239.95706009864807	fix_post	2		12	51.0	2.5	/experiments/AOT/AOT_stimuli/rescaled_final/0272_fw.mp4	0.0	260.98868799209595	0.10000300407409668
54	240.05706310272217	fix_pre	0		118	52.0	2.5	/experiments/AOT/AOT_stimuli/rescaled_final/1187_fw.mp4	0.0	261.08869099617004	0.9833619594573975
54	241.03231000900269	pulse	0	t		52.0	2.5	/experiments/AOT/AOT_stimuli/rescaled_final/1187_fw.mp4	0.0	262.06393790245056	
54	241.04042506217957	movie	1		245	52.0	2.5	/experiments/AOT/AOT_stimuli/rescaled_final/1187_fw.mp4	0.0	262.07205295562744	2.507946014404297
54	242.64069318771362	pulse	1	t		52.0	2.5	/experiments/AOT/AOT_stimuli/rescaled_final/1187_fw.mp4	0.0	263.6723210811615	
54	243.54837107658386	fix_post	2		12	52.0	2.5	/experiments/AOT/AOT_stimuli/rescaled_final/1187_fw.mp4	0.0	264.57999897003174	0.10039997100830078
55	243.64877104759216	fix_pre	0		120	53.0	2.5	/experiments/AOT/AOT_stimuli/rescaled_final/1884_fw.mp4	0.0	264.68039894104004	0.9995529651641846
55	244.23311018943787	pulse	0	t		53.0	2.5	/experiments/AOT/AOT_stimuli/rescaled_final/1884_fw.mp4	0.0	265.26473808288574	
55	244.64832401275635	movie	1		248	53.0	2.5	/experiments/AOT/AOT_stimuli/rescaled_final/1884_fw.mp4	0.0	265.6799519062042	2.500514030456543
55	245.83263421058655	pulse	1	t		53.0	2.5	/experiments/AOT/AOT_stimuli/rescaled_final/1884_fw.mp4	0.0	266.8642621040344	
55	247.1488380432129	fix_post	2		12	53.0	2.5	/experiments/AOT/AOT_stimuli/rescaled_final/1884_fw.mp4	0.0	268.18046593666077	0.09987211227416992
56	247.24871015548706	fix_pre	0		120	54.0	2.5	/experiments/AOT/AOT_stimuli/rescaled_final/0754_rv.mp4	0.0	268.28033804893494	1.0000698566436768
56	247.43301105499268	pulse	0	t		54.0	2.5	/experiments/AOT/AOT_stimuli/rescaled_final/0754_rv.mp4	0.0	268.46463894844055	
56	248.24878001213074	movie	1		247	54.0	2.5	/experiments/AOT/AOT_stimuli/rescaled_final/0754_rv.mp4	0.0	269.2804079055786	2.4998810291290283
56	249.03297114372253	pulse	1	t		54.0	2.5	/experiments/AOT/AOT_stimuli/rescaled_final/0754_rv.mp4	0.0	270.0645990371704	
56	250.63221716880798	pulse	1	t		54.0	2.5	/experiments/AOT/AOT_stimuli/rescaled_final/0754_rv.mp4	0.0	271.66384506225586	
56	250.74866104125977	fix_post	2		12	54.0	2.5	/experiments/AOT/AOT_stimuli/rescaled_final/0754_rv.mp4	0.0	271.78028893470764	0.10001301765441895
57	250.84867405891418	fix_pre	0		120	55.0	2.5	/experiments/AOT/AOT_stimuli/rescaled_final/0290_fw.mp4	0.0	271.88030195236206	0.9999380111694336
57	251.84861207008362	movie	1		247	55.0	2.5	/experiments/AOT/AOT_stimuli/rescaled_final/0290_fw.mp4	0.0	272.8802399635315	2.4999921321868896
57	252.2405982017517	pulse	1	t		55.0	2.5	/experiments/AOT/AOT_stimuli/rescaled_final/0290_fw.mp4	0.0	273.2722260951996	
57	253.83208298683167	pulse	1	t		55.0	2.5	/experiments/AOT/AOT_stimuli/rescaled_final/0290_fw.mp4	0.0	274.86371088027954	
57	254.3486042022705	fix_post	2		12	55.0	2.5	/experiments/AOT/AOT_stimuli/rescaled_final/0290_fw.mp4	0.0	275.3802320957184	0.10010886192321777
58	254.44871306419373	fix_pre	0		119	56.0	2.5	blank	1.0	275.4803409576416	0.9915671348571777
58	255.43216609954834	pulse	0	t		56.0	2.5	blank	1.0	276.4637939929962	
58	255.4402801990509	movie	1		301	56.0	2.5	blank	1.0	276.4719080924988	2.5083727836608887
58	257.0321021080017	pulse	1	t		56.0	2.5	blank	1.0	278.0637300014496	
58	257.9486529827118	fix_post	2		12	56.0	2.5	blank	1.0	278.98028087615967	0.09993505477905273
59	258.04858803749084	fix_pre	0		120	57.0	2.5	/experiments/AOT/AOT_stimuli/rescaled_final/1675_rv.mp4	0.0	279.0802159309387	0.9996781349182129
59	258.63305020332336	pulse	0	t		57.0	2.5	/experiments/AOT/AOT_stimuli/rescaled_final/1675_rv.mp4	0.0	279.66467809677124	
59	259.04826617240906	movie	1		244	57.0	2.5	/experiments/AOT/AOT_stimuli/rescaled_final/1675_rv.mp4	0.0	280.07989406585693	2.4999518394470215
59	260.23308420181274	pulse	1	t		57.0	2.5	/experiments/AOT/AOT_stimuli/rescaled_final/1675_rv.mp4	0.0	281.2647120952606	
59	261.5482180118561	fix_post	2		12	57.0	2.5	/experiments/AOT/AOT_stimuli/rescaled_final/1675_rv.mp4	0.0	282.57984590530396	0.10038518905639648
60	261.6486032009125	fix_pre	0		120	58.0	2.5	/experiments/AOT/AOT_stimuli/rescaled_final/1065_fw.mp4	0.0	282.68023109436035	0.9998998641967773
60	261.8329391479492	pulse	0	t		58.0	2.5	/experiments/AOT/AOT_stimuli/rescaled_final/1065_fw.mp4	0.0	282.8645670413971	
60	262.64850306510925	movie	1		246	58.0	2.5	/experiments/AOT/AOT_stimuli/rescaled_final/1065_fw.mp4	0.0	283.68013095855713	2.500227928161621
60	263.4330232143402	pulse	1	t		58.0	2.5	/experiments/AOT/AOT_stimuli/rescaled_final/1065_fw.mp4	0.0	284.4646511077881	
60	265.04049801826477	pulse	1	t		58.0	2.5	/experiments/AOT/AOT_stimuli/rescaled_final/1065_fw.mp4	0.0	286.07212591171265	
60	265.1487309932709	fix_post	2		12	58.0	2.5	/experiments/AOT/AOT_stimuli/rescaled_final/1065_fw.mp4	0.0	286.18035888671875	0.09986519813537598
61	265.24859619140625	fix_pre	0		120	59.0	2.5	/experiments/AOT/AOT_stimuli/rescaled_final/1477_rv.mp4	0.0	286.2802240848541	0.9999508857727051
61	266.24854707717896	movie	1		247	59.0	2.5	/experiments/AOT/AOT_stimuli/rescaled_final/1477_rv.mp4	0.0	287.28017497062683	2.500030040740967
61	266.6404662132263	pulse	1	t		59.0	2.5	/experiments/AOT/AOT_stimuli/rescaled_final/1477_rv.mp4	0.0	287.6720941066742	
61	268.2329170703888	pulse	1	t		59.0	2.5	/experiments/AOT/AOT_stimuli/rescaled_final/1477_rv.mp4	0.0	289.26454496383667	
61	268.7485771179199	fix_post	2		12	59.0	2.5	/experiments/AOT/AOT_stimuli/rescaled_final/1477_rv.mp4	0.0	289.7802050113678	0.09952902793884277
62	268.84810614585876	fix_pre	0		119	60.0	2.5	/experiments/AOT/AOT_stimuli/rescaled_final/0183_rv.mp4	0.0	289.87973403930664	0.9920840263366699
62	269.8320779800415	pulse	0	t		60.0	2.5	/experiments/AOT/AOT_stimuli/rescaled_final/0183_rv.mp4	0.0	290.8637058734894	
62	269.84019017219543	movie	1		245	60.0	2.5	/experiments/AOT/AOT_stimuli/rescaled_final/0183_rv.mp4	0.0	290.8718180656433	2.507962942123413
62	271.4325361251831	pulse	1	t		60.0	2.5	/experiments/AOT/AOT_stimuli/rescaled_final/0183_rv.mp4	0.0	292.464164018631	
62	272.34815311431885	fix_post	2		12	60.0	2.5	/experiments/AOT/AOT_stimuli/rescaled_final/0183_rv.mp4	0.0	293.3797810077667	0.10005307197570801
63	272.44820618629456	fix_pre	0		120	61.0	2.5	/experiments/AOT/AOT_stimuli/rescaled_final/1205_fw.mp4	0.0	293.47983407974243	1.0003118515014648
63	273.0321431159973	pulse	0	t		61.0	2.5	/experiments/AOT/AOT_stimuli/rescaled_final/1205_fw.mp4	0.0	294.0637710094452	
63	273.448518037796	movie	1		246	61.0	2.5	/experiments/AOT/AOT_stimuli/rescaled_final/1205_fw.mp4	0.0	294.4801459312439	2.499974012374878
63	274.63300800323486	pulse	1	t		61.0	2.5	/experiments/AOT/AOT_stimuli/rescaled_final/1205_fw.mp4	0.0	295.66463589668274	
63	275.9484920501709	fix_post	2		12	61.0	2.5	/experiments/AOT/AOT_stimuli/rescaled_final/1205_fw.mp4	0.0	296.9801199436188	0.10002613067626953
64	276.04851818084717	fix_pre	0		120	62.0	2.5	blank	1.0	297.08014607429504	0.9999949932098389
64	276.23290514945984	pulse	0	t		62.0	2.5	blank	1.0	297.2645330429077	
64	277.048513174057	movie	1		300	62.0	2.5	blank	1.0	298.0801410675049	2.5000388622283936
64	277.8328859806061	pulse	1	t		62.0	2.5	blank	1.0	298.86451387405396	
64	279.4328269958496	pulse	1	t		62.0	2.5	blank	1.0	300.4644548892975	
64	279.5485520362854	fix_post	2		12	62.0	2.5	blank	1.0	300.5801799297333	0.09998607635498047
65	279.6485381126404	fix_pre	0		120	63.0	2.5	/experiments/AOT/AOT_stimuli/rescaled_final/1361_fw.mp4	0.0	300.68016600608826	0.9999780654907227
65	280.6485161781311	movie	1		244	63.0	2.5	/experiments/AOT/AOT_stimuli/rescaled_final/1361_fw.mp4	0.0	301.680144071579	2.5
65	281.0404350757599	pulse	1	t		63.0	2.5	/experiments/AOT/AOT_stimuli/rescaled_final/1361_fw.mp4	0.0	302.07206296920776	
65	282.63291811943054	pulse	1	t		63.0	2.5	/experiments/AOT/AOT_stimuli/rescaled_final/1361_fw.mp4	0.0	303.6645460128784	
65	283.1485161781311	fix_post	2		12	63.0	2.5	/experiments/AOT/AOT_stimuli/rescaled_final/1361_fw.mp4	0.0	304.180144071579	0.09989500045776367
66	283.24841117858887	fix_pre	0		120	64.0	2.5	/experiments/AOT/AOT_stimuli/rescaled_final/0056_rv.mp4	0.0	304.28003907203674	1.00003981590271
66	284.23299407958984	pulse	0	t		64.0	2.5	/experiments/AOT/AOT_stimuli/rescaled_final/0056_rv.mp4	0.0	305.2646219730377	
66	284.2484509944916	movie	1		246	64.0	2.5	/experiments/AOT/AOT_stimuli/rescaled_final/0056_rv.mp4	0.0	305.28007888793945	2.507982015609741
66	285.8400959968567	pulse	1	t		64.0	2.5	/experiments/AOT/AOT_stimuli/rescaled_final/0056_rv.mp4	0.0	306.87172389030457	
66	286.7564330101013	fix_post	2		12	64.0	2.5	/experiments/AOT/AOT_stimuli/rescaled_final/0056_rv.mp4	0.0	307.7880609035492	0.10038208961486816
67	286.8568150997162	fix_pre	0		120	65.0	2.5	/experiments/AOT/AOT_stimuli/rescaled_final/1339_rv.mp4	0.0	307.88844299316406	0.9999759197235107
67	287.432067155838	pulse	0	t		65.0	2.5	/experiments/AOT/AOT_stimuli/rescaled_final/1339_rv.mp4	0.0	308.4636950492859	
67	287.8567910194397	movie	1		244	65.0	2.5	/experiments/AOT/AOT_stimuli/rescaled_final/1339_rv.mp4	0.0	308.8884189128876	2.499498128890991
67	289.03192806243896	pulse	1	t		65.0	2.5	/experiments/AOT/AOT_stimuli/rescaled_final/1339_rv.mp4	0.0	310.06355595588684	
67	290.3562891483307	fix_post	2		12	65.0	2.5	/experiments/AOT/AOT_stimuli/rescaled_final/1339_rv.mp4	0.0	311.38791704177856	0.10052084922790527
68	290.4568099975586	fix_pre	0		120	66.0	2.5	/experiments/AOT/AOT_stimuli/rescaled_final/1481_rv.mp4	0.0	311.48843789100647	0.9999260902404785
68	290.6328761577606	pulse	0	t		66.0	2.5	/experiments/AOT/AOT_stimuli/rescaled_final/1481_rv.mp4	0.0	311.6645040512085	
68	291.4567360877991	movie	1		244	66.0	2.5	/experiments/AOT/AOT_stimuli/rescaled_final/1481_rv.mp4	0.0	312.48836398124695	2.4995880126953125
68	292.2329740524292	pulse	1	t		66.0	2.5	/experiments/AOT/AOT_stimuli/rescaled_final/1481_rv.mp4	0.0	313.2646019458771	
68	293.8390121459961	pulse	1	t		66.0	2.5	/experiments/AOT/AOT_stimuli/rescaled_final/1481_rv.mp4	0.0	314.87064003944397	
68	293.9563241004944	fix_post	2		12	66.0	2.5	/experiments/AOT/AOT_stimuli/rescaled_final/1481_rv.mp4	0.0	314.98795199394226	0.10043692588806152
69	294.05676102638245	fix_pre	0		120	67.0	2.5	/experiments/AOT/AOT_stimuli/rescaled_final/0489_fw.mp4	0.0	315.0883889198303	0.9999980926513672
69	295.0567591190338	movie	1		245	67.0	2.5	/experiments/AOT/AOT_stimuli/rescaled_final/0489_fw.mp4	0.0	316.0883870124817	2.4995930194854736
69	295.44016909599304	pulse	1	t		67.0	2.5	/experiments/AOT/AOT_stimuli/rescaled_final/0489_fw.mp4	0.0	316.4717969894409	
69	297.0329511165619	pulse	1	t		67.0	2.5	/experiments/AOT/AOT_stimuli/rescaled_final/0489_fw.mp4	0.0	318.06457901000977	
69	297.5563521385193	fix_post	2		12	67.0	2.5	/experiments/AOT/AOT_stimuli/rescaled_final/0489_fw.mp4	0.0	318.58798003196716	0.10039687156677246
70	297.65674901008606	fix_pre	0		119	68.0	2.5	/experiments/AOT/AOT_stimuli/rescaled_final/1015_fw.mp4	0.0	318.68837690353394	0.9916751384735107
70	298.63277411460876	pulse	0	t		68.0	2.5	/experiments/AOT/AOT_stimuli/rescaled_final/1015_fw.mp4	0.0	319.66440200805664	
70	298.64842414855957	movie	1		247	68.0	2.5	/experiments/AOT/AOT_stimuli/rescaled_final/1015_fw.mp4	0.0	319.68005204200745	2.5080628395080566
70	300.2397210597992	pulse	1	t		68.0	2.5	/experiments/AOT/AOT_stimuli/rescaled_final/1015_fw.mp4	0.0	321.27134895324707	
70	301.1564869880676	fix_post	2		12	68.0	2.5	/experiments/AOT/AOT_stimuli/rescaled_final/1015_fw.mp4	0.0	322.1881148815155	0.09997820854187012
71	301.2564651966095	fix_pre	0		120	69.0	2.5	/experiments/AOT/AOT_stimuli/rescaled_final/1412_rv.mp4	0.0	322.2880930900574	1.000119924545288
71	301.8324520587921	pulse	0	t		69.0	2.5	/experiments/AOT/AOT_stimuli/rescaled_final/1412_rv.mp4	0.0	322.86407995224	
71	302.2565851211548	movie	1		244	69.0	2.5	/experiments/AOT/AOT_stimuli/rescaled_final/1412_rv.mp4	0.0	323.28821301460266	2.5002150535583496
71	303.4332790374756	pulse	1	t		69.0	2.5	/experiments/AOT/AOT_stimuli/rescaled_final/1412_rv.mp4	0.0	324.46490693092346	
71	304.75680017471313	fix_post	2		12	69.0	2.5	/experiments/AOT/AOT_stimuli/rescaled_final/1412_rv.mp4	0.0	325.788428068161	0.10000300407409668
72	304.85680317878723	fix_pre	0		120	70.0	2.5	blank	1.0	325.8884310722351	0.9999599456787109
72	305.03193712234497	pulse	0	t		70.0	2.5	blank	1.0	326.06356501579285	
72	305.85676312446594	movie	1		300	70.0	2.5	blank	1.0	326.8883910179138	2.4996109008789062
72	306.640202999115	pulse	1	t		70.0	2.5	blank	1.0	327.67183089256287	
72	308.24013018608093	pulse	1	t		70.0	2.5	blank	1.0	329.2717580795288	
72	308.35637402534485	fix_post	2		12	70.0	2.5	blank	1.0	329.3880019187927	0.10030007362365723
73	308.4566740989685	fix_pre	0		120	71.0	2.5	/experiments/AOT/AOT_stimuli/rescaled_final/1905_fw.mp4	0.0	329.4883019924164	1.0000441074371338
73	309.45671820640564	movie	1		246	71.0	2.5	/experiments/AOT/AOT_stimuli/rescaled_final/1905_fw.mp4	0.0	330.4883460998535	2.4999468326568604
73	309.8400721549988	pulse	1	t		71.0	2.5	/experiments/AOT/AOT_stimuli/rescaled_final/1905_fw.mp4	0.0	330.87170004844666	
73	311.43285298347473	pulse	1	t		71.0	2.5	/experiments/AOT/AOT_stimuli/rescaled_final/1905_fw.mp4	0.0	332.4644808769226	
73	311.9566650390625	fix_post	2		12	71.0	2.5	/experiments/AOT/AOT_stimuli/rescaled_final/1905_fw.mp4	0.0	332.9882929325104	0.0999910831451416
74	312.05665612220764	fix_pre	0		119	72.0	2.5	/experiments/AOT/AOT_stimuli/rescaled_final/1675_rv.mp4	0.0	333.0882840156555	0.9917030334472656
74	313.0326521396637	pulse	0	t		72.0	2.5	/experiments/AOT/AOT_stimuli/rescaled_final/1675_rv.mp4	0.0	334.0642800331116	
74	313.0483591556549	movie	1		246	72.0	2.5	/experiments/AOT/AOT_stimuli/rescaled_final/1675_rv.mp4	0.0	334.0799870491028	2.507812976837158
74	314.6397581100464	pulse	1	t		72.0	2.5	/experiments/AOT/AOT_stimuli/rescaled_final/1675_rv.mp4	0.0	335.67138600349426	
74	315.55617213249207	fix_post	2		12	72.0	2.5	/experiments/AOT/AOT_stimuli/rescaled_final/1675_rv.mp4	0.0	336.58780002593994	0.10013389587402344
75	315.6563060283661	fix_pre	0		120	73.0	2.5	/experiments/AOT/AOT_stimuli/rescaled_final/2165_rv.mp4	0.0	336.68793392181396	1.0003609657287598
75	316.2325441837311	pulse	0	t		73.0	2.5	/experiments/AOT/AOT_stimuli/rescaled_final/2165_rv.mp4	0.0	337.26417207717896	
75	316.65666699409485	movie	1		244	73.0	2.5	/experiments/AOT/AOT_stimuli/rescaled_final/2165_rv.mp4	0.0	337.6882948875427	2.500009059906006
75	317.8402111530304	pulse	1	t		73.0	2.5	/experiments/AOT/AOT_stimuli/rescaled_final/2165_rv.mp4	0.0	338.87183904647827	
75	319.15667605400085	fix_post	2		12	73.0	2.5	/experiments/AOT/AOT_stimuli/rescaled_final/2165_rv.mp4	0.0	340.18830394744873	0.09999513626098633
76	319.25667119026184	fix_pre	0		120	74.0	2.5	/experiments/AOT/AOT_stimuli/rescaled_final/0809_fw.mp4	0.0	340.2882990837097	1.0000238418579102
76	319.43255519866943	pulse	0	t		74.0	2.5	/experiments/AOT/AOT_stimuli/rescaled_final/0809_fw.mp4	0.0	340.4641830921173	
76	320.25669503211975	movie	1		243	74.0	2.5	/experiments/AOT/AOT_stimuli/rescaled_final/0809_fw.mp4	0.0	341.2883229255676	2.4994499683380127
76	321.03270721435547	pulse	1	t		74.0	2.5	/experiments/AOT/AOT_stimuli/rescaled_final/0809_fw.mp4	0.0	342.06433510780334	
76	322.63843512535095	pulse	1	t		74.0	2.5	/experiments/AOT/AOT_stimuli/rescaled_final/0809_fw.mp4	0.0	343.6700630187988	
76	322.75614500045776	fix_post	2		12	74.0	2.5	/experiments/AOT/AOT_stimuli/rescaled_final/0809_fw.mp4	0.0	343.78777289390564	0.10005998611450195
77	322.85620498657227	fix_pre	0		120	75.0	2.5	/experiments/AOT/AOT_stimuli/rescaled_final/1616_fw.mp4	0.0	343.88783288002014	1.0004000663757324
77	323.856605052948	movie	1		244	75.0	2.5	/experiments/AOT/AOT_stimuli/rescaled_final/1616_fw.mp4	0.0	344.8882329463959	2.4996049404144287
77	324.24133801460266	pulse	1	t		75.0	2.5	/experiments/AOT/AOT_stimuli/rescaled_final/1616_fw.mp4	0.0	345.27296590805054	
77	325.8327941894531	pulse	1	t		75.0	2.5	/experiments/AOT/AOT_stimuli/rescaled_final/1616_fw.mp4	0.0	346.864422082901	
77	326.3562099933624	fix_post	2		12	75.0	2.5	/experiments/AOT/AOT_stimuli/rescaled_final/1616_fw.mp4	0.0	347.3878378868103	0.10035204887390137
78	326.4565620422363	fix_pre	0		119	76.0	2.5	blank	1.0	347.4881899356842	0.9916410446166992
78	327.4326431751251	pulse	0	t		76.0	2.5	blank	1.0	348.464271068573	
78	327.448203086853	movie	1		301	76.0	2.5	blank	1.0	348.4798309803009	2.508397102355957
78	329.03262400627136	pulse	1	t		76.0	2.5	blank	1.0	350.06425189971924	
78	329.956600189209	fix_post	2		12	76.0	2.5	blank	1.0	350.98822808265686	0.09989190101623535
79	330.0564920902252	fix_pre	0		120	77.0	2.5	/experiments/AOT/AOT_stimuli/rescaled_final/1364_rv.mp4	0.0	351.0881199836731	1.0001869201660156
79	330.63253903388977	pulse	0	t		77.0	2.5	/experiments/AOT/AOT_stimuli/rescaled_final/1364_rv.mp4	0.0	351.66416692733765	
79	331.05667901039124	movie	1		245	77.0	2.5	/experiments/AOT/AOT_stimuli/rescaled_final/1364_rv.mp4	0.0	352.0883069038391	2.4998621940612793
79	332.2401340007782	pulse	1	t		77.0	2.5	/experiments/AOT/AOT_stimuli/rescaled_final/1364_rv.mp4	0.0	353.2717618942261	
79	333.5565412044525	fix_post	2		12	77.0	2.5	/experiments/AOT/AOT_stimuli/rescaled_final/1364_rv.mp4	0.0	354.5881690979004	0.09968996047973633
80	333.65623116493225	fix_pre	0		120	78.0	2.5	/experiments/AOT/AOT_stimuli/rescaled_final/1934_fw.mp4	0.0	354.6878590583801	1.0003619194030762
80	333.8325490951538	pulse	0	t		78.0	2.5	/experiments/AOT/AOT_stimuli/rescaled_final/1934_fw.mp4	0.0	354.8641769886017	
80	334.6565930843353	movie	1		246	78.0	2.5	/experiments/AOT/AOT_stimuli/rescaled_final/1934_fw.mp4	0.0	355.6882209777832	2.4997549057006836
80	335.43264412879944	pulse	1	t		78.0	2.5	/experiments/AOT/AOT_stimuli/rescaled_final/1934_fw.mp4	0.0	356.4642720222473	
80	337.03853607177734	pulse	1	t		78.0	2.5	/experiments/AOT/AOT_stimuli/rescaled_final/1934_fw.mp4	0.0	358.0701639652252	
80	337.156347990036	fix_post	2		12	78.0	2.5	/experiments/AOT/AOT_stimuli/rescaled_final/1934_fw.mp4	0.0	358.1879758834839	0.10022902488708496
81	337.2565770149231	fix_pre	0		120	79.0	2.5	/experiments/AOT/AOT_stimuli/rescaled_final/1672_fw.mp4	0.0	358.288204908371	1.0000309944152832
81	338.2566080093384	movie	1		244	79.0	2.5	/experiments/AOT/AOT_stimuli/rescaled_final/1672_fw.mp4	0.0	359.28823590278625	2.4999561309814453
81	338.63966608047485	pulse	1	t		79.0	2.5	/experiments/AOT/AOT_stimuli/rescaled_final/1672_fw.mp4	0.0	359.67129397392273	
81	340.2400782108307	pulse	1	t		79.0	2.5	/experiments/AOT/AOT_stimuli/rescaled_final/1672_fw.mp4	0.0	361.27170610427856	
81	340.7565641403198	fix_post	2		12	79.0	2.5	/experiments/AOT/AOT_stimuli/rescaled_final/1672_fw.mp4	0.0	361.7881920337677	0.09995293617248535
82	340.8565170764923	fix_pre	0		119	80.0	2.5	/experiments/AOT/AOT_stimuli/rescaled_final/0443_fw.mp4	0.0	361.8881449699402	0.9916770458221436
82	341.84001302719116	pulse	0	t		80.0	2.5	/experiments/AOT/AOT_stimuli/rescaled_final/0443_fw.mp4	0.0	362.87164092063904	
82	341.84819412231445	movie	1		247	80.0	2.5	/experiments/AOT/AOT_stimuli/rescaled_final/0443_fw.mp4	0.0	362.87982201576233	2.508342981338501
82	343.43969917297363	pulse	1	t		80.0	2.5	/experiments/AOT/AOT_stimuli/rescaled_final/0443_fw.mp4	0.0	364.4713270664215	
82	344.35653710365295	fix_post	2		12	80.0	2.5	/experiments/AOT/AOT_stimuli/rescaled_final/0443_fw.mp4	0.0	365.38816499710083	0.0996708869934082
83	344.45620799064636	fix_pre	0		120	81.0	2.5	/experiments/AOT/AOT_stimuli/rescaled_final/0274_fw.mp4	0.0	365.48783588409424	1.0002901554107666
83	345.03305315971375	pulse	0	t		81.0	2.5	/experiments/AOT/AOT_stimuli/rescaled_final/0274_fw.mp4	0.0	366.0646810531616	
83	345.45649814605713	movie	1		244	81.0	2.5	/experiments/AOT/AOT_stimuli/rescaled_final/0274_fw.mp4	0.0	366.488126039505	2.499595880508423
83	346.6401240825653	pulse	1	t		81.0	2.5	/experiments/AOT/AOT_stimuli/rescaled_final/0274_fw.mp4	0.0	367.6717519760132	
83	347.95609402656555	fix_post	2		12	81.0	2.5	/experiments/AOT/AOT_stimuli/rescaled_final/0274_fw.mp4	0.0	368.9877219200134	0.1002969741821289
84	348.0563910007477	fix_pre	0		120	82.0	2.5	/experiments/AOT/AOT_stimuli/rescaled_final/1908_rv.mp4	0.0	369.08801889419556	0.9997100830078125
84	348.23251819610596	pulse	0	t		82.0	2.5	/experiments/AOT/AOT_stimuli/rescaled_final/1908_rv.mp4	0.0	369.26414608955383	
84	349.0561010837555	movie	1		243	82.0	2.5	/experiments/AOT/AOT_stimuli/rescaled_final/1908_rv.mp4	0.0	370.08772897720337	2.5003750324249268
84	349.8325641155243	pulse	1	t		82.0	2.5	/experiments/AOT/AOT_stimuli/rescaled_final/1908_rv.mp4	0.0	370.86419200897217	
84	351.43608498573303	pulse	1	t		82.0	2.5	/experiments/AOT/AOT_stimuli/rescaled_final/1908_rv.mp4	0.0	372.4677128791809	
84	351.5564761161804	fix_post	2		12	82.0	2.5	/experiments/AOT/AOT_stimuli/rescaled_final/1908_rv.mp4	0.0	372.5881040096283	0.09961795806884766
85	351.65609407424927	fix_pre	0		120	83.0	2.5	blank	1.0	372.68772196769714	1.0003669261932373
85	352.6564610004425	movie	1		300	83.0	2.5	blank	1.0	373.6880888938904	2.500023126602173
85	353.0325520038605	pulse	1	t		83.0	2.5	blank	1.0	374.06417989730835	
85	354.63996720314026	pulse	1	t		83.0	2.5	blank	1.0	375.67159509658813	
85	355.1564841270447	fix_post	2		12	83.0	2.5	blank	1.0	376.18811202049255	0.09997701644897461
87	355.25646114349365	stim	0		1716					376.2880890369415	14.29997992515564
87	356.23956203460693	pulse	0	t						377.2711899280548	
87	357.83293199539185	pulse	0	t						378.8645598888397	
87	359.43271803855896	pulse	0	t						380.46434593200684	
87	361.03267121315	pulse	0	t						382.0642991065979	
87	362.6326060295105	pulse	0	t						383.6642339229584	
87	364.23260021209717	pulse	0	t						385.26422810554504	
87	365.83261609077454	pulse	0	t						386.8642439842224	
87	367.43266201019287	pulse	0	t						388.46428990364075	
87	369.032555103302	pulse	0	t						390.0641829967499	
