trial_nr	onset	event_type	phase	response	nr_frames	movie_index	movie_duration	movie_file	blank	onset_abs	duration
0	0.1665482521057129	stim	0		1					19.70095992088318	0.008191823959350586
0	0.16988325119018555	response	0	space						19.70429491996765	
1	0.17474007606506348	stim	0		2282					19.70915174484253	19.031450271606445
1	19.196540594100952	pulse	0	t						38.73095226287842	
1	19.20619034767151	stim	1		1716					38.740602016448975	14.3069167137146
1	20.786410093307495	pulse	1	t						40.32082176208496	
1	22.38663959503174	pulse	1	t						41.921051263809204	
1	23.986906051635742	pulse	1	t						43.52131772041321	
1	25.587104558944702	pulse	1	t						45.12151622772217	
1	27.187519073486328	pulse	1	t						46.721930742263794	
1	28.78757667541504	pulse	1	t						48.321988344192505	
1	30.38787817955017	pulse	1	t						49.92228984832764	
1	31.98805332183838	pulse	1	t						51.522464990615845	
2	33.51310706138611	fix_pre	0		10	0.0	2.5	/experiments/knapen_AOT/AOT_stimuli/rescaled_final/1306_rv.mp4	0.0	53.047518730163574	0.10004591941833496
2	33.58832597732544	pulse	0	t		0.0	2.5	/experiments/knapen_AOT/AOT_stimuli/rescaled_final/1306_rv.mp4	0.0	53.122737646102905	
2	33.61315298080444	movie	1		284	0.0	2.5	/experiments/knapen_AOT/AOT_stimuli/rescaled_final/1306_rv.mp4	0.0	53.14756464958191	2.4920103549957275
2	35.18707728385925	pulse	1	t		0.0	2.5	/experiments/knapen_AOT/AOT_stimuli/rescaled_final/1306_rv.mp4	0.0	54.72148895263672	
2	36.10516333580017	fix_post	2		12	0.0	2.5	/experiments/knapen_AOT/AOT_stimuli/rescaled_final/1306_rv.mp4	0.0	55.63957500457764	0.0999917984008789
3	36.20515513420105	fix_pre	0		120	1.0	2.5	/experiments/knapen_AOT/AOT_stimuli/rescaled_final/0938_rv.mp4	0.0	55.739566802978516	1.0085723400115967
3	36.78878045082092	pulse	0	t		1.0	2.5	/experiments/knapen_AOT/AOT_stimuli/rescaled_final/0938_rv.mp4	0.0	56.32319211959839	
3	37.21372747421265	movie	1		280	1.0	2.5	/experiments/knapen_AOT/AOT_stimuli/rescaled_final/0938_rv.mp4	0.0	56.74813914299011	2.491985321044922
3	38.38717341423035	pulse	1	t		1.0	2.5	/experiments/knapen_AOT/AOT_stimuli/rescaled_final/0938_rv.mp4	0.0	57.92158508300781	
3	39.70571279525757	fix_post	2		12	1.0	2.5	/experiments/knapen_AOT/AOT_stimuli/rescaled_final/0938_rv.mp4	0.0	59.240124464035034	0.10004377365112305
4	39.80575656890869	fix_pre	0		120	2.0	2.5	/experiments/knapen_AOT/AOT_stimuli/rescaled_final/1359_fw.mp4	0.0	59.34016823768616	1.008436918258667
4	39.989341497421265	pulse	0	t		2.0	2.5	/experiments/knapen_AOT/AOT_stimuli/rescaled_final/1359_fw.mp4	0.0	59.52375316619873	
4	40.81419348716736	movie	1		278	2.0	2.5	/experiments/knapen_AOT/AOT_stimuli/rescaled_final/1359_fw.mp4	0.0	60.348605155944824	2.492022752761841
4	41.587456941604614	pulse	1	t		2.0	2.5	/experiments/knapen_AOT/AOT_stimuli/rescaled_final/1359_fw.mp4	0.0	61.12186861038208	
4	43.187663316726685	pulse	1	t		2.0	2.5	/experiments/knapen_AOT/AOT_stimuli/rescaled_final/1359_fw.mp4	0.0	62.72207498550415	
4	43.3062162399292	fix_post	2		12	2.0	2.5	/experiments/knapen_AOT/AOT_stimuli/rescaled_final/1359_fw.mp4	0.0	62.840627908706665	0.10005903244018555
5	43.406275272369385	fix_pre	0		120	3.0	2.5	/experiments/knapen_AOT/AOT_stimuli/rescaled_final/1475_rv.mp4	0.0	62.94068694114685	1.0085630416870117
5	44.4148383140564	movie	1		284	3.0	2.5	/experiments/knapen_AOT/AOT_stimuli/rescaled_final/1475_rv.mp4	0.0	63.94924998283386	2.491919994354248
5	44.78849935531616	pulse	1	t		3.0	2.5	/experiments/knapen_AOT/AOT_stimuli/rescaled_final/1475_rv.mp4	0.0	64.32291102409363	
5	46.388216733932495	pulse	1	t		3.0	2.5	/experiments/knapen_AOT/AOT_stimuli/rescaled_final/1475_rv.mp4	0.0	65.92262840270996	
5	46.906758308410645	fix_post	2		12	3.0	2.5	/experiments/knapen_AOT/AOT_stimuli/rescaled_final/1475_rv.mp4	0.0	66.44116997718811	0.10001826286315918
6	47.006776571273804	fix_pre	0		119	4.0	2.5	/experiments/knapen_AOT/AOT_stimuli/rescaled_final/1271_rv.mp4	0.0	66.54118824005127	1.0002334117889404
6	47.99050426483154	pulse	0	t		4.0	2.5	/experiments/knapen_AOT/AOT_stimuli/rescaled_final/1271_rv.mp4	0.0	67.52491593360901	
6	48.007009983062744	movie	1		292	4.0	2.5	/experiments/knapen_AOT/AOT_stimuli/rescaled_final/1271_rv.mp4	0.0	67.54142165184021	2.5003044605255127
6	49.588862895965576	pulse	1	t		4.0	2.5	/experiments/knapen_AOT/AOT_stimuli/rescaled_final/1271_rv.mp4	0.0	69.12327456474304	
6	50.50731444358826	fix_post	2		12	4.0	2.5	/experiments/knapen_AOT/AOT_stimuli/rescaled_final/1271_rv.mp4	0.0	70.04172611236572	0.10001015663146973
7	50.60732460021973	fix_pre	0		120	5.0	2.5	blank	1.0	70.14173626899719	1.0001375675201416
7	51.191030502319336	pulse	0	t		5.0	2.5	blank	1.0	70.7254421710968	
7	51.60746216773987	movie	1		300	5.0	2.5	blank	1.0	71.14187383651733	2.500368595123291
7	52.791215658187866	pulse	1	t		5.0	2.5	blank	1.0	72.32562732696533	
7	54.10783076286316	fix_post	2		12	5.0	2.5	blank	1.0	73.64224243164062	0.10002994537353516
8	54.207860708236694	fix_pre	0		120	6.0	2.5	/experiments/knapen_AOT/AOT_stimuli/rescaled_final/1138_rv.mp4	0.0	73.74227237701416	1.0085082054138184
8	54.391414165496826	pulse	0	t		6.0	2.5	/experiments/knapen_AOT/AOT_stimuli/rescaled_final/1138_rv.mp4	0.0	73.92582583427429	
8	55.21636891365051	movie	1		283	6.0	2.5	/experiments/knapen_AOT/AOT_stimuli/rescaled_final/1138_rv.mp4	0.0	74.75078058242798	2.492039203643799
8	55.98985934257507	pulse	1	t		6.0	2.5	/experiments/knapen_AOT/AOT_stimuli/rescaled_final/1138_rv.mp4	0.0	75.52427101135254	
8	57.58978724479675	pulse	1	t		6.0	2.5	/experiments/knapen_AOT/AOT_stimuli/rescaled_final/1138_rv.mp4	0.0	77.12419891357422	
8	57.70840811729431	fix_post	2		12	6.0	2.5	/experiments/knapen_AOT/AOT_stimuli/rescaled_final/1138_rv.mp4	0.0	77.24281978607178	0.09998512268066406
9	57.808393239974976	fix_pre	0		120	7.0	2.5	/experiments/knapen_AOT/AOT_stimuli/rescaled_final/0792_fw.mp4	0.0	77.34280490875244	1.008495569229126
9	58.8168888092041	movie	1		287	7.0	2.5	/experiments/knapen_AOT/AOT_stimuli/rescaled_final/0792_fw.mp4	0.0	78.35130047798157	2.4920473098754883
9	59.19030284881592	pulse	1	t		7.0	2.5	/experiments/knapen_AOT/AOT_stimuli/rescaled_final/0792_fw.mp4	0.0	78.72471451759338	
9	60.79026818275452	pulse	1	t		7.0	2.5	/experiments/knapen_AOT/AOT_stimuli/rescaled_final/0792_fw.mp4	0.0	80.32467985153198	
9	61.30893611907959	fix_post	2		12	7.0	2.5	/experiments/knapen_AOT/AOT_stimuli/rescaled_final/0792_fw.mp4	0.0	80.84334778785706	0.10001301765441895
10	61.40894913673401	fix_pre	0		119	8.0	2.5	/experiments/knapen_AOT/AOT_stimuli/rescaled_final/0404_rv.mp4	0.0	80.94336080551147	1.0003085136413574
10	62.392821311950684	pulse	0	t		8.0	2.5	/experiments/knapen_AOT/AOT_stimuli/rescaled_final/0404_rv.mp4	0.0	81.92723298072815	
10	62.409257650375366	movie	1		284	8.0	2.5	/experiments/knapen_AOT/AOT_stimuli/rescaled_final/0404_rv.mp4	0.0	81.94366931915283	2.500213623046875
10	63.99291181564331	pulse	1	t		8.0	2.5	/experiments/knapen_AOT/AOT_stimuli/rescaled_final/0404_rv.mp4	0.0	83.52732348442078	
10	64.90947127342224	fix_post	2		12	8.0	2.5	/experiments/knapen_AOT/AOT_stimuli/rescaled_final/0404_rv.mp4	0.0	84.4438829421997	0.09999728202819824
11	65.00946855545044	fix_pre	0		120	9.0	2.5	/experiments/knapen_AOT/AOT_stimuli/rescaled_final/0153_rv.mp4	0.0	84.5438802242279	1.0086181163787842
11	65.59306621551514	pulse	0	t		9.0	2.5	/experiments/knapen_AOT/AOT_stimuli/rescaled_final/0153_rv.mp4	0.0	85.1274778842926	
11	66.01808667182922	movie	1		276	9.0	2.5	/experiments/knapen_AOT/AOT_stimuli/rescaled_final/0153_rv.mp4	0.0	85.55249834060669	2.4919326305389404
11	67.19200205802917	pulse	1	t		9.0	2.5	/experiments/knapen_AOT/AOT_stimuli/rescaled_final/0153_rv.mp4	0.0	86.72641372680664	
11	68.51001930236816	fix_post	2		12	9.0	2.5	/experiments/knapen_AOT/AOT_stimuli/rescaled_final/0153_rv.mp4	0.0	88.04443097114563	0.10016870498657227
12	68.61018800735474	fix_pre	0		120	10.0	2.5	/experiments/knapen_AOT/AOT_stimuli/rescaled_final/1919_fw.mp4	0.0	88.1445996761322	1.0083072185516357
12	68.78650093078613	pulse	0	t		10.0	2.5	/experiments/knapen_AOT/AOT_stimuli/rescaled_final/1919_fw.mp4	0.0	88.3209125995636	
12	69.61849522590637	movie	1		281	10.0	2.5	/experiments/knapen_AOT/AOT_stimuli/rescaled_final/1919_fw.mp4	0.0	89.15290689468384	2.4920549392700195
12	70.39174747467041	pulse	1	t		10.0	2.5	/experiments/knapen_AOT/AOT_stimuli/rescaled_final/1919_fw.mp4	0.0	89.92615914344788	
12	71.98615384101868	pulse	1	t		10.0	2.5	/experiments/knapen_AOT/AOT_stimuli/rescaled_final/1919_fw.mp4	0.0	91.52056550979614	
12	72.11055016517639	fix_post	2		12	10.0	2.5	/experiments/knapen_AOT/AOT_stimuli/rescaled_final/1919_fw.mp4	0.0	91.64496183395386	0.10002350807189941
13	72.21057367324829	fix_pre	0		120	11.0	2.5	/experiments/knapen_AOT/AOT_stimuli/rescaled_final/0363_rv.mp4	0.0	91.74498534202576	1.0085077285766602
13	73.21908140182495	movie	1		279	11.0	2.5	/experiments/knapen_AOT/AOT_stimuli/rescaled_final/0363_rv.mp4	0.0	92.75349307060242	2.4920194149017334
13	73.58619332313538	pulse	1	t		11.0	2.5	/experiments/knapen_AOT/AOT_stimuli/rescaled_final/0363_rv.mp4	0.0	93.12060499191284	
13	75.18630623817444	pulse	1	t		11.0	2.5	/experiments/knapen_AOT/AOT_stimuli/rescaled_final/0363_rv.mp4	0.0	94.7207179069519	
13	75.71110081672668	fix_post	2		12	11.0	2.5	/experiments/knapen_AOT/AOT_stimuli/rescaled_final/0363_rv.mp4	0.0	95.24551248550415	0.10003232955932617
14	75.81113314628601	fix_pre	0		118	12.0	2.5	/experiments/knapen_AOT/AOT_stimuli/rescaled_final/0231_fw.mp4	0.0	95.34554481506348	0.9917864799499512
14	76.78659534454346	pulse	0	t		12.0	2.5	/experiments/knapen_AOT/AOT_stimuli/rescaled_final/0231_fw.mp4	0.0	96.32100701332092	
14	76.80291962623596	movie	1		281	12.0	2.5	/experiments/knapen_AOT/AOT_stimuli/rescaled_final/0231_fw.mp4	0.0	96.33733129501343	2.5004889965057373
14	78.38671278953552	pulse	1	t		12.0	2.5	/experiments/knapen_AOT/AOT_stimuli/rescaled_final/0231_fw.mp4	0.0	97.92112445831299	
14	79.3034086227417	fix_post	2		12	12.0	2.5	/experiments/knapen_AOT/AOT_stimuli/rescaled_final/0231_fw.mp4	0.0	98.83782029151917	0.09995579719543457
15	79.40336441993713	fix_pre	0		120	13.0	2.5	/experiments/knapen_AOT/AOT_stimuli/rescaled_final/1833_fw.mp4	0.0	98.9377760887146	1.0084505081176758
15	79.98698472976685	pulse	0	t		13.0	2.5	/experiments/knapen_AOT/AOT_stimuli/rescaled_final/1833_fw.mp4	0.0	99.52139639854431	
15	80.41181492805481	movie	1		273	13.0	2.5	/experiments/knapen_AOT/AOT_stimuli/rescaled_final/1833_fw.mp4	0.0	99.94622659683228	2.4920549392700195
15	81.58720421791077	pulse	1	t		13.0	2.5	/experiments/knapen_AOT/AOT_stimuli/rescaled_final/1833_fw.mp4	0.0	101.12161588668823	
15	82.90386986732483	fix_post	2		12	13.0	2.5	/experiments/knapen_AOT/AOT_stimuli/rescaled_final/1833_fw.mp4	0.0	102.4382815361023	0.10006046295166016
16	83.00393033027649	fix_pre	0		120	14.0	2.5	blank	1.0	102.53834199905396	1.000108003616333
16	83.18744015693665	pulse	0	t		14.0	2.5	blank	1.0	102.72185182571411	
16	84.00403833389282	movie	1		300	14.0	2.5	blank	1.0	103.53845000267029	2.50038480758667
16	84.78768062591553	pulse	1	t		14.0	2.5	blank	1.0	104.322092294693	
16	86.38792181015015	pulse	1	t		14.0	2.5	blank	1.0	105.92233347892761	
16	86.50442314147949	fix_post	2		12	14.0	2.5	blank	1.0	106.03883481025696	0.10004281997680664
17	86.6044659614563	fix_pre	0		120	15.0	2.5	/experiments/knapen_AOT/AOT_stimuli/rescaled_final/1464_fw.mp4	0.0	106.13887763023376	1.0084152221679688
17	87.61288118362427	movie	1		279	15.0	2.5	/experiments/knapen_AOT/AOT_stimuli/rescaled_final/1464_fw.mp4	0.0	107.14729285240173	2.4920806884765625
17	87.98691964149475	pulse	1	t		15.0	2.5	/experiments/knapen_AOT/AOT_stimuli/rescaled_final/1464_fw.mp4	0.0	107.52133131027222	
17	89.58630561828613	pulse	1	t		15.0	2.5	/experiments/knapen_AOT/AOT_stimuli/rescaled_final/1464_fw.mp4	0.0	109.1207172870636	
17	90.10496187210083	fix_post	2		12	15.0	2.5	/experiments/knapen_AOT/AOT_stimuli/rescaled_final/1464_fw.mp4	0.0	109.6393735408783	0.10003232955932617
18	90.20499420166016	fix_pre	0		119	16.0	2.5	/experiments/knapen_AOT/AOT_stimuli/rescaled_final/1434_fw.mp4	0.0	109.73940587043762	1.0001015663146973
18	91.18870067596436	pulse	0	t		16.0	2.5	/experiments/knapen_AOT/AOT_stimuli/rescaled_final/1434_fw.mp4	0.0	110.72311234474182	
18	91.20509576797485	movie	1		287	16.0	2.5	/experiments/knapen_AOT/AOT_stimuli/rescaled_final/1434_fw.mp4	0.0	110.73950743675232	2.500424861907959
18	92.78713083267212	pulse	1	t		16.0	2.5	/experiments/knapen_AOT/AOT_stimuli/rescaled_final/1434_fw.mp4	0.0	112.32154250144958	
18	93.70552062988281	fix_post	2		12	16.0	2.5	/experiments/knapen_AOT/AOT_stimuli/rescaled_final/1434_fw.mp4	0.0	113.23993229866028	0.10001039505004883
19	93.80553102493286	fix_pre	0		120	17.0	2.5	/experiments/knapen_AOT/AOT_stimuli/rescaled_final/2149_rv.mp4	0.0	113.33994269371033	1.00848388671875
19	94.38915205001831	pulse	0	t		17.0	2.5	/experiments/knapen_AOT/AOT_stimuli/rescaled_final/2149_rv.mp4	0.0	113.92356371879578	
19	94.81401491165161	movie	1		284	17.0	2.5	/experiments/knapen_AOT/AOT_stimuli/rescaled_final/2149_rv.mp4	0.0	114.34842658042908	2.5004591941833496
19	95.98743200302124	pulse	1	t		17.0	2.5	/experiments/knapen_AOT/AOT_stimuli/rescaled_final/2149_rv.mp4	0.0	115.5218436717987	
19	97.31447410583496	fix_post	2		11	17.0	2.5	/experiments/knapen_AOT/AOT_stimuli/rescaled_final/2149_rv.mp4	0.0	116.84888577461243	0.09155821800231934
20	97.40603232383728	fix_pre	0		120	18.0	2.5	/experiments/knapen_AOT/AOT_stimuli/rescaled_final/0705_fw.mp4	0.0	116.94044399261475	1.0084853172302246
20	97.58962082862854	pulse	0	t		18.0	2.5	/experiments/knapen_AOT/AOT_stimuli/rescaled_final/0705_fw.mp4	0.0	117.124032497406	
20	98.4145176410675	movie	1		278	18.0	2.5	/experiments/knapen_AOT/AOT_stimuli/rescaled_final/0705_fw.mp4	0.0	117.94892930984497	2.4920551776885986
20	99.18792772293091	pulse	1	t		18.0	2.5	/experiments/knapen_AOT/AOT_stimuli/rescaled_final/0705_fw.mp4	0.0	118.72233939170837	
20	100.78801536560059	pulse	1	t		18.0	2.5	/experiments/knapen_AOT/AOT_stimuli/rescaled_final/0705_fw.mp4	0.0	120.32242703437805	
20	100.9065728187561	fix_post	2		12	18.0	2.5	/experiments/knapen_AOT/AOT_stimuli/rescaled_final/0705_fw.mp4	0.0	120.44098448753357	0.10000920295715332
21	101.00658202171326	fix_pre	0		120	19.0	2.5	/experiments/knapen_AOT/AOT_stimuli/rescaled_final/1458_rv.mp4	0.0	120.54099369049072	1.0084586143493652
21	102.01504063606262	movie	1		277	19.0	2.5	/experiments/knapen_AOT/AOT_stimuli/rescaled_final/1458_rv.mp4	0.0	121.54945230484009	2.4920454025268555
21	102.3884642124176	pulse	1	t		19.0	2.5	/experiments/knapen_AOT/AOT_stimuli/rescaled_final/1458_rv.mp4	0.0	121.92287588119507	
21	103.98817873001099	pulse	1	t		19.0	2.5	/experiments/knapen_AOT/AOT_stimuli/rescaled_final/1458_rv.mp4	0.0	123.52259039878845	
21	104.50708603858948	fix_post	2		12	19.0	2.5	/experiments/knapen_AOT/AOT_stimuli/rescaled_final/1458_rv.mp4	0.0	124.04149770736694	0.1000063419342041
22	104.60709238052368	fix_pre	0		119	20.0	2.5	/experiments/knapen_AOT/AOT_stimuli/rescaled_final/0477_fw.mp4	0.0	124.14150404930115	1.0002496242523193
22	105.59097981452942	pulse	0	t		20.0	2.5	/experiments/knapen_AOT/AOT_stimuli/rescaled_final/0477_fw.mp4	0.0	125.12539148330688	
22	105.607342004776	movie	1		277	20.0	2.5	/experiments/knapen_AOT/AOT_stimuli/rescaled_final/0477_fw.mp4	0.0	125.14175367355347	2.500277042388916
22	107.18930864334106	pulse	1	t		20.0	2.5	/experiments/knapen_AOT/AOT_stimuli/rescaled_final/0477_fw.mp4	0.0	126.72372031211853	
22	108.10761904716492	fix_post	2		12	20.0	2.5	/experiments/knapen_AOT/AOT_stimuli/rescaled_final/0477_fw.mp4	0.0	127.64203071594238	0.1000370979309082
23	108.20765614509583	fix_pre	0		120	21.0	2.5	blank	1.0	127.74206781387329	1.0001564025878906
23	108.79133677482605	pulse	0	t		21.0	2.5	blank	1.0	128.32574844360352	
23	109.20781254768372	movie	1		300	21.0	2.5	blank	1.0	128.74222421646118	2.5003480911254883
23	110.3915102481842	pulse	1	t		21.0	2.5	blank	1.0	129.92592191696167	
23	111.7081606388092	fix_post	2		12	21.0	2.5	blank	1.0	131.24257230758667	0.1000211238861084
24	111.80818176269531	fix_pre	0		120	22.0	2.5	/experiments/knapen_AOT/AOT_stimuli/rescaled_final/1238_rv.mp4	0.0	131.34259343147278	1.0084898471832275
24	111.99177169799805	pulse	0	t		22.0	2.5	/experiments/knapen_AOT/AOT_stimuli/rescaled_final/1238_rv.mp4	0.0	131.5261833667755	
24	112.81667160987854	movie	1		272	22.0	2.5	/experiments/knapen_AOT/AOT_stimuli/rescaled_final/1238_rv.mp4	0.0	132.351083278656	2.492039442062378
24	113.59003901481628	pulse	1	t		22.0	2.5	/experiments/knapen_AOT/AOT_stimuli/rescaled_final/1238_rv.mp4	0.0	133.12445068359375	
24	115.19003534317017	pulse	1	t		22.0	2.5	/experiments/knapen_AOT/AOT_stimuli/rescaled_final/1238_rv.mp4	0.0	134.72444701194763	
24	115.30871105194092	fix_post	2		12	22.0	2.5	/experiments/knapen_AOT/AOT_stimuli/rescaled_final/1238_rv.mp4	0.0	134.84312272071838	0.09999489784240723
25	115.40870594978333	fix_pre	0		120	23.0	2.5	/experiments/knapen_AOT/AOT_stimuli/rescaled_final/1833_fw.mp4	0.0	134.9431176185608	1.008559226989746
25	116.41726517677307	movie	1		274	23.0	2.5	/experiments/knapen_AOT/AOT_stimuli/rescaled_final/1833_fw.mp4	0.0	135.95167684555054	2.50034236907959
25	116.79063367843628	pulse	1	t		23.0	2.5	/experiments/knapen_AOT/AOT_stimuli/rescaled_final/1833_fw.mp4	0.0	136.32504534721375	
25	118.39215278625488	pulse	1	t		23.0	2.5	/experiments/knapen_AOT/AOT_stimuli/rescaled_final/1833_fw.mp4	0.0	137.92656445503235	
25	118.91760754585266	fix_post	2		11	23.0	2.5	/experiments/knapen_AOT/AOT_stimuli/rescaled_final/1833_fw.mp4	0.0	138.45201921463013	0.09170198440551758
26	119.00930953025818	fix_pre	0		119	24.0	2.5	/experiments/knapen_AOT/AOT_stimuli/rescaled_final/0238_fw.mp4	0.0	138.54372119903564	1.0001640319824219
26	119.9930317401886	pulse	0	t		24.0	2.5	/experiments/knapen_AOT/AOT_stimuli/rescaled_final/0238_fw.mp4	0.0	139.52744340896606	
26	120.0094735622406	movie	1		275	24.0	2.5	/experiments/knapen_AOT/AOT_stimuli/rescaled_final/0238_fw.mp4	0.0	139.54388523101807	2.5003163814544678
26	121.59331226348877	pulse	1	t		24.0	2.5	/experiments/knapen_AOT/AOT_stimuli/rescaled_final/0238_fw.mp4	0.0	141.12772393226624	
26	122.50978994369507	fix_post	2		12	24.0	2.5	/experiments/knapen_AOT/AOT_stimuli/rescaled_final/0238_fw.mp4	0.0	142.04420161247253	0.10005664825439453
27	122.60984659194946	fix_pre	0		120	25.0	2.5	/experiments/knapen_AOT/AOT_stimuli/rescaled_final/2020_rv.mp4	0.0	142.14425826072693	1.008491039276123
27	123.19345378875732	pulse	0	t		25.0	2.5	/experiments/knapen_AOT/AOT_stimuli/rescaled_final/2020_rv.mp4	0.0	142.7278654575348	
27	123.61833763122559	movie	1		274	25.0	2.5	/experiments/knapen_AOT/AOT_stimuli/rescaled_final/2020_rv.mp4	0.0	143.15274930000305	2.4919869899749756
27	124.79158878326416	pulse	1	t		25.0	2.5	/experiments/knapen_AOT/AOT_stimuli/rescaled_final/2020_rv.mp4	0.0	144.32600045204163	
27	126.11032462120056	fix_post	2		12	25.0	2.5	/experiments/knapen_AOT/AOT_stimuli/rescaled_final/2020_rv.mp4	0.0	145.64473628997803	0.10004687309265137
28	126.21037149429321	fix_pre	0		120	26.0	2.5	/experiments/knapen_AOT/AOT_stimuli/rescaled_final/0988_rv.mp4	0.0	145.74478316307068	1.008577585220337
28	126.39407467842102	pulse	0	t		26.0	2.5	/experiments/knapen_AOT/AOT_stimuli/rescaled_final/0988_rv.mp4	0.0	145.9284863471985	
28	127.21894907951355	movie	1		279	26.0	2.5	/experiments/knapen_AOT/AOT_stimuli/rescaled_final/0988_rv.mp4	0.0	146.75336074829102	2.4919192790985107
28	127.99257898330688	pulse	1	t		26.0	2.5	/experiments/knapen_AOT/AOT_stimuli/rescaled_final/0988_rv.mp4	0.0	147.52699065208435	
28	129.59404921531677	pulse	1	t		26.0	2.5	/experiments/knapen_AOT/AOT_stimuli/rescaled_final/0988_rv.mp4	0.0	149.12846088409424	
28	129.71086835861206	fix_post	2		12	26.0	2.5	/experiments/knapen_AOT/AOT_stimuli/rescaled_final/0988_rv.mp4	0.0	149.24528002738953	0.10003495216369629
29	129.81090331077576	fix_pre	0		120	27.0	2.5	/experiments/knapen_AOT/AOT_stimuli/rescaled_final/1771_rv.mp4	0.0	149.34531497955322	1.0084853172302246
29	130.81938862800598	movie	1		274	27.0	2.5	/experiments/knapen_AOT/AOT_stimuli/rescaled_final/1771_rv.mp4	0.0	150.35380029678345	2.492067575454712
29	131.1864914894104	pulse	1	t		27.0	2.5	/experiments/knapen_AOT/AOT_stimuli/rescaled_final/1771_rv.mp4	0.0	150.72090315818787	
29	132.7866086959839	pulse	1	t		27.0	2.5	/experiments/knapen_AOT/AOT_stimuli/rescaled_final/1771_rv.mp4	0.0	152.32102036476135	
29	133.3114562034607	fix_post	2		12	27.0	2.5	/experiments/knapen_AOT/AOT_stimuli/rescaled_final/1771_rv.mp4	0.0	152.84586787223816	0.09998798370361328
30	133.4114441871643	fix_pre	0		118	28.0	2.5	blank	1.0	152.94585585594177	0.9834897518157959
30	134.3868043422699	pulse	0	t		28.0	2.5	blank	1.0	153.92121601104736	
30	134.3949339389801	movie	1		301	28.0	2.5	blank	1.0	153.92934560775757	2.5087060928344727
30	135.9872636795044	pulse	1	t		28.0	2.5	blank	1.0	155.52167534828186	
30	136.90364003181458	fix_post	2		12	28.0	2.5	blank	1.0	156.43805170059204	0.10000061988830566
31	137.00364065170288	fix_pre	0		120	29.0	2.5	/experiments/knapen_AOT/AOT_stimuli/rescaled_final/2081_rv.mp4	0.0	156.53805232048035	1.0084912776947021
31	137.58734321594238	pulse	0	t		29.0	2.5	/experiments/knapen_AOT/AOT_stimuli/rescaled_final/2081_rv.mp4	0.0	157.12175488471985	
31	138.01213192939758	movie	1		276	29.0	2.5	/experiments/knapen_AOT/AOT_stimuli/rescaled_final/2081_rv.mp4	0.0	157.54654359817505	2.4920167922973633
31	139.18750834465027	pulse	1	t		29.0	2.5	/experiments/knapen_AOT/AOT_stimuli/rescaled_final/2081_rv.mp4	0.0	158.72192001342773	
31	140.50414872169495	fix_post	2		12	29.0	2.5	/experiments/knapen_AOT/AOT_stimuli/rescaled_final/2081_rv.mp4	0.0	160.0385603904724	0.10007095336914062
32	140.6042196750641	fix_pre	0		120	30.0	2.5	/experiments/knapen_AOT/AOT_stimuli/rescaled_final/2115_fw.mp4	0.0	160.13863134384155	1.008579969406128
32	140.78778219223022	pulse	0	t		30.0	2.5	/experiments/knapen_AOT/AOT_stimuli/rescaled_final/2115_fw.mp4	0.0	160.3221938610077	
32	141.61279964447021	movie	1		286	30.0	2.5	/experiments/knapen_AOT/AOT_stimuli/rescaled_final/2115_fw.mp4	0.0	161.14721131324768	2.4919309616088867
32	142.38797426223755	pulse	1	t		30.0	2.5	/experiments/knapen_AOT/AOT_stimuli/rescaled_final/2115_fw.mp4	0.0	161.92238593101501	
32	143.98637533187866	pulse	1	t		30.0	2.5	/experiments/knapen_AOT/AOT_stimuli/rescaled_final/2115_fw.mp4	0.0	163.52078700065613	
32	144.1047306060791	fix_post	2		12	30.0	2.5	/experiments/knapen_AOT/AOT_stimuli/rescaled_final/2115_fw.mp4	0.0	163.63914227485657	0.10002923011779785
33	144.2047598361969	fix_pre	0		120	31.0	2.5	/experiments/knapen_AOT/AOT_stimuli/rescaled_final/2039_fw.mp4	0.0	163.73917150497437	1.0084729194641113
33	145.213232755661	movie	1		282	31.0	2.5	/experiments/knapen_AOT/AOT_stimuli/rescaled_final/2039_fw.mp4	0.0	164.74764442443848	2.492170572280884
33	145.58679866790771	pulse	1	t		31.0	2.5	/experiments/knapen_AOT/AOT_stimuli/rescaled_final/2039_fw.mp4	0.0	165.12121033668518	
33	147.18739914894104	pulse	1	t		31.0	2.5	/experiments/knapen_AOT/AOT_stimuli/rescaled_final/2039_fw.mp4	0.0	166.7218108177185	
33	147.7054033279419	fix_post	2		12	31.0	2.5	/experiments/knapen_AOT/AOT_stimuli/rescaled_final/2039_fw.mp4	0.0	167.23981499671936	0.09986424446105957
34	147.80526757240295	fix_pre	0		119	32.0	2.5	/experiments/knapen_AOT/AOT_stimuli/rescaled_final/0571_rv.mp4	0.0	167.33967924118042	1.0001580715179443
34	148.78900337219238	pulse	0	t		32.0	2.5	/experiments/knapen_AOT/AOT_stimuli/rescaled_final/0571_rv.mp4	0.0	168.32341504096985	
34	148.8054256439209	movie	1		278	32.0	2.5	/experiments/knapen_AOT/AOT_stimuli/rescaled_final/0571_rv.mp4	0.0	168.33983731269836	2.500354766845703
34	150.387469291687	pulse	1	t		32.0	2.5	/experiments/knapen_AOT/AOT_stimuli/rescaled_final/0571_rv.mp4	0.0	169.92188096046448	
34	151.3057804107666	fix_post	2		12	32.0	2.5	/experiments/knapen_AOT/AOT_stimuli/rescaled_final/0571_rv.mp4	0.0	170.84019207954407	0.10002994537353516
35	151.40581035614014	fix_pre	0		120	33.0	2.5	blank	1.0	170.9402220249176	1.0002415180206299
35	151.9894208908081	pulse	0	t		33.0	2.5	blank	1.0	171.52383255958557	
35	152.40605187416077	movie	1		300	33.0	2.5	blank	1.0	171.94046354293823	2.500307321548462
35	153.58971047401428	pulse	1	t		33.0	2.5	blank	1.0	173.12412214279175	
35	154.90635919570923	fix_post	2		12	33.0	2.5	blank	1.0	174.4407708644867	0.0999753475189209
36	155.00633454322815	fix_pre	0		120	34.0	2.5	/experiments/knapen_AOT/AOT_stimuli/rescaled_final/1394_rv.mp4	0.0	174.54074621200562	1.0085389614105225
36	155.1899209022522	pulse	0	t		34.0	2.5	/experiments/knapen_AOT/AOT_stimuli/rescaled_final/1394_rv.mp4	0.0	174.72433257102966	
36	156.01487350463867	movie	1		276	34.0	2.5	/experiments/knapen_AOT/AOT_stimuli/rescaled_final/1394_rv.mp4	0.0	175.54928517341614	2.5004122257232666
36	156.78830122947693	pulse	1	t		34.0	2.5	/experiments/knapen_AOT/AOT_stimuli/rescaled_final/1394_rv.mp4	0.0	176.3227128982544	
36	158.39058470726013	pulse	1	t		34.0	2.5	/experiments/knapen_AOT/AOT_stimuli/rescaled_final/1394_rv.mp4	0.0	177.9249963760376	
36	158.51528573036194	fix_post	2		11	34.0	2.5	/experiments/knapen_AOT/AOT_stimuli/rescaled_final/1394_rv.mp4	0.0	178.0496973991394	0.09159111976623535
37	158.60687685012817	fix_pre	0		120	35.0	2.5	/experiments/knapen_AOT/AOT_stimuli/rescaled_final/1497_fw.mp4	0.0	178.14128851890564	1.0085148811340332
37	159.6153917312622	movie	1		289	35.0	2.5	/experiments/knapen_AOT/AOT_stimuli/rescaled_final/1497_fw.mp4	0.0	179.14980340003967	2.4919912815093994
37	159.9886496067047	pulse	1	t		35.0	2.5	/experiments/knapen_AOT/AOT_stimuli/rescaled_final/1497_fw.mp4	0.0	179.52306127548218	
37	161.58879828453064	pulse	1	t		35.0	2.5	/experiments/knapen_AOT/AOT_stimuli/rescaled_final/1497_fw.mp4	0.0	181.1232099533081	
37	162.1073830127716	fix_post	2		12	35.0	2.5	/experiments/knapen_AOT/AOT_stimuli/rescaled_final/1497_fw.mp4	0.0	181.64179468154907	0.10000419616699219
38	162.2073872089386	fix_pre	0		119	36.0	2.5	/experiments/knapen_AOT/AOT_stimuli/rescaled_final/1238_fw.mp4	0.0	181.74179887771606	1.000187635421753
38	163.19135880470276	pulse	0	t		36.0	2.5	/experiments/knapen_AOT/AOT_stimuli/rescaled_final/1238_fw.mp4	0.0	182.72577047348022	
38	163.20757484436035	movie	1		280	36.0	2.5	/experiments/knapen_AOT/AOT_stimuli/rescaled_final/1238_fw.mp4	0.0	182.74198651313782	2.5003771781921387
38	164.7915666103363	pulse	1	t		36.0	2.5	/experiments/knapen_AOT/AOT_stimuli/rescaled_final/1238_fw.mp4	0.0	184.32597827911377	
38	165.7079520225525	fix_post	2		12	36.0	2.5	/experiments/knapen_AOT/AOT_stimuli/rescaled_final/1238_fw.mp4	0.0	185.24236369132996	0.10002660751342773
39	165.80797863006592	fix_pre	0		120	37.0	2.5	/experiments/knapen_AOT/AOT_stimuli/rescaled_final/0808_rv.mp4	0.0	185.34239029884338	1.0085139274597168
39	166.39149451255798	pulse	0	t		37.0	2.5	/experiments/knapen_AOT/AOT_stimuli/rescaled_final/0808_rv.mp4	0.0	185.92590618133545	
39	166.81649255752563	movie	1		278	37.0	2.5	/experiments/knapen_AOT/AOT_stimuli/rescaled_final/0808_rv.mp4	0.0	186.3509042263031	2.4919776916503906
39	167.98985695838928	pulse	1	t		37.0	2.5	/experiments/knapen_AOT/AOT_stimuli/rescaled_final/0808_rv.mp4	0.0	187.52426862716675	
39	169.30847024917603	fix_post	2		12	37.0	2.5	/experiments/knapen_AOT/AOT_stimuli/rescaled_final/0808_rv.mp4	0.0	188.8428819179535	0.1000518798828125
40	169.40852212905884	fix_pre	0		120	38.0	2.5	/experiments/knapen_AOT/AOT_stimuli/rescaled_final/0299_fw.mp4	0.0	188.9429337978363	1.0084757804870605
40	169.5921974182129	pulse	0	t		38.0	2.5	/experiments/knapen_AOT/AOT_stimuli/rescaled_final/0299_fw.mp4	0.0	189.12660908699036	
40	170.4169979095459	movie	1		283	38.0	2.5	/experiments/knapen_AOT/AOT_stimuli/rescaled_final/0299_fw.mp4	0.0	189.95140957832336	2.492072105407715
40	171.19028449058533	pulse	1	t		38.0	2.5	/experiments/knapen_AOT/AOT_stimuli/rescaled_final/0299_fw.mp4	0.0	190.7246961593628	
40	172.79209899902344	pulse	1	t		38.0	2.5	/experiments/knapen_AOT/AOT_stimuli/rescaled_final/0299_fw.mp4	0.0	192.3265106678009	
40	172.9090700149536	fix_post	2		12	38.0	2.5	/experiments/knapen_AOT/AOT_stimuli/rescaled_final/0299_fw.mp4	0.0	192.44348168373108	0.09997081756591797
41	173.00904083251953	fix_pre	0		120	39.0	2.5	/experiments/knapen_AOT/AOT_stimuli/rescaled_final/1437_rv.mp4	0.0	192.543452501297	1.0085315704345703
41	174.0175724029541	movie	1		292	39.0	2.5	/experiments/knapen_AOT/AOT_stimuli/rescaled_final/1437_rv.mp4	0.0	193.55198407173157	2.492161750793457
41	174.39255452156067	pulse	1	t		39.0	2.5	/experiments/knapen_AOT/AOT_stimuli/rescaled_final/1437_rv.mp4	0.0	193.92696619033813	
41	175.99100017547607	pulse	1	t		39.0	2.5	/experiments/knapen_AOT/AOT_stimuli/rescaled_final/1437_rv.mp4	0.0	195.52541184425354	
41	176.50973415374756	fix_post	2		12	39.0	2.5	/experiments/knapen_AOT/AOT_stimuli/rescaled_final/1437_rv.mp4	0.0	196.04414582252502	0.09985470771789551
42	176.60958886146545	fix_pre	0		119	40.0	2.5	blank	1.0	196.14400053024292	0.9918038845062256
42	177.593270778656	pulse	0	t		40.0	2.5	blank	1.0	197.12768244743347	
42	177.60139274597168	movie	1		301	40.0	2.5	blank	1.0	197.13580441474915	2.5087318420410156
42	179.1934940814972	pulse	1	t		40.0	2.5	blank	1.0	198.72790575027466	
42	180.1101245880127	fix_post	2		12	40.0	2.5	blank	1.0	199.64453625679016	0.09998416900634766
43	180.21010875701904	fix_pre	0		120	41.0	2.5	/experiments/knapen_AOT/AOT_stimuli/rescaled_final/0153_fw.mp4	0.0	199.7445204257965	1.0085663795471191
43	180.7863826751709	pulse	0	t		41.0	2.5	/experiments/knapen_AOT/AOT_stimuli/rescaled_final/0153_fw.mp4	0.0	200.32079434394836	
43	181.21867513656616	movie	1		275	41.0	2.5	/experiments/knapen_AOT/AOT_stimuli/rescaled_final/0153_fw.mp4	0.0	200.75308680534363	2.491961717605591
43	182.38591289520264	pulse	1	t		41.0	2.5	/experiments/knapen_AOT/AOT_stimuli/rescaled_final/0153_fw.mp4	0.0	201.9203245639801	
43	183.71063685417175	fix_post	2		12	41.0	2.5	/experiments/knapen_AOT/AOT_stimuli/rescaled_final/0153_fw.mp4	0.0	203.24504852294922	0.10004544258117676
44	183.81068229675293	fix_pre	0		120	42.0	2.5	/experiments/knapen_AOT/AOT_stimuli/rescaled_final/1852_fw.mp4	0.0	203.3450939655304	1.0084905624389648
44	183.98596858978271	pulse	0	t		42.0	2.5	/experiments/knapen_AOT/AOT_stimuli/rescaled_final/1852_fw.mp4	0.0	203.52038025856018	
44	184.8191728591919	movie	1		268	42.0	2.5	/experiments/knapen_AOT/AOT_stimuli/rescaled_final/1852_fw.mp4	0.0	204.35358452796936	2.492056369781494
44	185.58636355400085	pulse	1	t		42.0	2.5	/experiments/knapen_AOT/AOT_stimuli/rescaled_final/1852_fw.mp4	0.0	205.12077522277832	
44	187.18638515472412	pulse	1	t		42.0	2.5	/experiments/knapen_AOT/AOT_stimuli/rescaled_final/1852_fw.mp4	0.0	206.7207968235016	
44	187.3112292289734	fix_post	2		12	42.0	2.5	/experiments/knapen_AOT/AOT_stimuli/rescaled_final/1852_fw.mp4	0.0	206.84564089775085	0.09998106956481934
45	187.4112102985382	fix_pre	0		120	43.0	2.5	/experiments/knapen_AOT/AOT_stimuli/rescaled_final/0514_fw.mp4	0.0	206.94562196731567	1.0084953308105469
45	188.41970562934875	movie	1		282	43.0	2.5	/experiments/knapen_AOT/AOT_stimuli/rescaled_final/0514_fw.mp4	0.0	207.95411729812622	2.4920244216918945
45	188.78675508499146	pulse	1	t		43.0	2.5	/experiments/knapen_AOT/AOT_stimuli/rescaled_final/0514_fw.mp4	0.0	208.32116675376892	
45	190.38700461387634	pulse	1	t		43.0	2.5	/experiments/knapen_AOT/AOT_stimuli/rescaled_final/0514_fw.mp4	0.0	209.9214162826538	
45	190.91173005104065	fix_post	2		12	43.0	2.5	/experiments/knapen_AOT/AOT_stimuli/rescaled_final/0514_fw.mp4	0.0	210.44614171981812	0.10002899169921875
46	191.01175904273987	fix_pre	0		118	44.0	2.5	/experiments/knapen_AOT/AOT_stimuli/rescaled_final/1352_fw.mp4	0.0	210.54617071151733	0.99184250831604
46	191.98724699020386	pulse	0	t		44.0	2.5	/experiments/knapen_AOT/AOT_stimuli/rescaled_final/1352_fw.mp4	0.0	211.52165865898132	
46	192.0036015510559	movie	1		275	44.0	2.5	/experiments/knapen_AOT/AOT_stimuli/rescaled_final/1352_fw.mp4	0.0	211.53801321983337	2.500361442565918
46	193.58588528633118	pulse	1	t		44.0	2.5	/experiments/knapen_AOT/AOT_stimuli/rescaled_final/1352_fw.mp4	0.0	213.12029695510864	
46	194.50396299362183	fix_post	2		12	44.0	2.5	/experiments/knapen_AOT/AOT_stimuli/rescaled_final/1352_fw.mp4	0.0	214.0383746623993	0.10005712509155273
47	194.60402011871338	fix_pre	0		120	45.0	2.5	/experiments/knapen_AOT/AOT_stimuli/rescaled_final/2039_fw.mp4	0.0	214.13843178749084	1.0084433555603027
47	195.1875810623169	pulse	0	t		45.0	2.5	/experiments/knapen_AOT/AOT_stimuli/rescaled_final/2039_fw.mp4	0.0	214.72199273109436	
47	195.61246347427368	movie	1		269	45.0	2.5	/experiments/knapen_AOT/AOT_stimuli/rescaled_final/2039_fw.mp4	0.0	215.14687514305115	2.492032289505005
47	196.78601479530334	pulse	1	t		45.0	2.5	/experiments/knapen_AOT/AOT_stimuli/rescaled_final/2039_fw.mp4	0.0	216.3204264640808	
47	198.1044957637787	fix_post	2		12	45.0	2.5	/experiments/knapen_AOT/AOT_stimuli/rescaled_final/2039_fw.mp4	0.0	217.63890743255615	0.0999913215637207
48	198.2044870853424	fix_pre	0		120	46.0	2.5	/experiments/knapen_AOT/AOT_stimuli/rescaled_final/1464_fw.mp4	0.0	217.73889875411987	1.0085251331329346
48	198.38814997673035	pulse	0	t		46.0	2.5	/experiments/knapen_AOT/AOT_stimuli/rescaled_final/1464_fw.mp4	0.0	217.9225616455078	
48	199.21301221847534	movie	1		278	46.0	2.5	/experiments/knapen_AOT/AOT_stimuli/rescaled_final/1464_fw.mp4	0.0	218.7474238872528	2.4920177459716797
48	199.98620343208313	pulse	1	t		46.0	2.5	/experiments/knapen_AOT/AOT_stimuli/rescaled_final/1464_fw.mp4	0.0	219.5206151008606	
48	201.5868582725525	pulse	1	t		46.0	2.5	/experiments/knapen_AOT/AOT_stimuli/rescaled_final/1464_fw.mp4	0.0	221.12126994132996	
48	201.70502996444702	fix_post	2		12	46.0	2.5	/experiments/knapen_AOT/AOT_stimuli/rescaled_final/1464_fw.mp4	0.0	221.2394416332245	0.1000223159790039
49	201.80505228042603	fix_pre	0		120	47.0	2.5	/experiments/knapen_AOT/AOT_stimuli/rescaled_final/2173_fw.mp4	0.0	221.3394639492035	1.008470058441162
49	202.8135223388672	movie	1		282	47.0	2.5	/experiments/knapen_AOT/AOT_stimuli/rescaled_final/2173_fw.mp4	0.0	222.34793400764465	2.4920530319213867
49	203.18718147277832	pulse	1	t		47.0	2.5	/experiments/knapen_AOT/AOT_stimuli/rescaled_final/2173_fw.mp4	0.0	222.7215931415558	
49	204.78673815727234	pulse	1	t		47.0	2.5	/experiments/knapen_AOT/AOT_stimuli/rescaled_final/2173_fw.mp4	0.0	224.3211498260498	
49	205.30557537078857	fix_post	2		12	47.0	2.5	/experiments/knapen_AOT/AOT_stimuli/rescaled_final/2173_fw.mp4	0.0	224.83998703956604	0.1000053882598877
50	205.40558075904846	fix_pre	0		119	48.0	2.5	blank	1.0	224.93999242782593	0.9918148517608643
50	206.38930225372314	pulse	0	t		48.0	2.5	blank	1.0	225.9237139225006	
50	206.39739561080933	movie	1		301	48.0	2.5	blank	1.0	225.9318072795868	2.5087010860443115
50	207.98947644233704	pulse	1	t		48.0	2.5	blank	1.0	227.5238881111145	
50	208.90609669685364	fix_post	2		12	48.0	2.5	blank	1.0	228.4405083656311	0.10002398490905762
51	209.0061206817627	fix_pre	0		120	49.0	2.5	/experiments/knapen_AOT/AOT_stimuli/rescaled_final/2165_rv.mp4	0.0	228.54053235054016	1.0085413455963135
51	209.58981609344482	pulse	0	t		49.0	2.5	/experiments/knapen_AOT/AOT_stimuli/rescaled_final/2165_rv.mp4	0.0	229.1242277622223	
51	210.014662027359	movie	1		275	49.0	2.5	/experiments/knapen_AOT/AOT_stimuli/rescaled_final/2165_rv.mp4	0.0	229.54907369613647	2.49200177192688
51	211.18843722343445	pulse	1	t		49.0	2.5	/experiments/knapen_AOT/AOT_stimuli/rescaled_final/2165_rv.mp4	0.0	230.7228488922119	
51	212.5066637992859	fix_post	2		12	49.0	2.5	/experiments/knapen_AOT/AOT_stimuli/rescaled_final/2165_rv.mp4	0.0	232.04107546806335	0.09999537467956543
52	212.60665917396545	fix_pre	0		120	50.0	2.5	/experiments/knapen_AOT/AOT_stimuli/rescaled_final/1833_rv.mp4	0.0	232.14107084274292	1.008495569229126
52	212.7902946472168	pulse	0	t		50.0	2.5	/experiments/knapen_AOT/AOT_stimuli/rescaled_final/1833_rv.mp4	0.0	232.32470631599426	
52	213.61515474319458	movie	1		276	50.0	2.5	/experiments/knapen_AOT/AOT_stimuli/rescaled_final/1833_rv.mp4	0.0	233.14956641197205	2.4921977519989014
52	214.3883593082428	pulse	1	t		50.0	2.5	/experiments/knapen_AOT/AOT_stimuli/rescaled_final/1833_rv.mp4	0.0	233.92277097702026	
52	215.9888265132904	pulse	1	t		50.0	2.5	/experiments/knapen_AOT/AOT_stimuli/rescaled_final/1833_rv.mp4	0.0	235.52323818206787	
52	216.10735249519348	fix_post	2		12	50.0	2.5	/experiments/knapen_AOT/AOT_stimuli/rescaled_final/1833_rv.mp4	0.0	235.64176416397095	0.09987521171569824
53	216.20722770690918	fix_pre	0		120	51.0	2.5	/experiments/knapen_AOT/AOT_stimuli/rescaled_final/0404_rv.mp4	0.0	235.74163937568665	1.0084905624389648
53	217.21571826934814	movie	1		263	51.0	2.5	/experiments/knapen_AOT/AOT_stimuli/rescaled_final/0404_rv.mp4	0.0	236.7501299381256	2.4920055866241455
53	217.58903574943542	pulse	1	t		51.0	2.5	/experiments/knapen_AOT/AOT_stimuli/rescaled_final/0404_rv.mp4	0.0	237.1234474182129	
53	219.1891484260559	pulse	1	t		51.0	2.5	/experiments/knapen_AOT/AOT_stimuli/rescaled_final/0404_rv.mp4	0.0	238.72356009483337	
53	219.7077238559723	fix_post	2		12	51.0	2.5	/experiments/knapen_AOT/AOT_stimuli/rescaled_final/0404_rv.mp4	0.0	239.24213552474976	0.10014581680297852
54	219.80786967277527	fix_pre	0		119	52.0	2.5	/experiments/knapen_AOT/AOT_stimuli/rescaled_final/1511_fw.mp4	0.0	239.34228134155273	1.0001397132873535
54	220.79149436950684	pulse	0	t		52.0	2.5	/experiments/knapen_AOT/AOT_stimuli/rescaled_final/1511_fw.mp4	0.0	240.3259060382843	
54	220.80800938606262	movie	1		285	52.0	2.5	/experiments/knapen_AOT/AOT_stimuli/rescaled_final/1511_fw.mp4	0.0	240.3424210548401	2.500267744064331
54	222.3917474746704	pulse	1	t		52.0	2.5	/experiments/knapen_AOT/AOT_stimuli/rescaled_final/1511_fw.mp4	0.0	241.92615914344788	
54	223.30827713012695	fix_post	2		12	52.0	2.5	/experiments/knapen_AOT/AOT_stimuli/rescaled_final/1511_fw.mp4	0.0	242.84268879890442	0.10006976127624512
55	223.4083468914032	fix_pre	0		120	53.0	2.5	/experiments/knapen_AOT/AOT_stimuli/rescaled_final/1869_fw.mp4	0.0	242.94275856018066	1.008441686630249
55	223.99216532707214	pulse	0	t		53.0	2.5	/experiments/knapen_AOT/AOT_stimuli/rescaled_final/1869_fw.mp4	0.0	243.5265769958496	
55	224.41678857803345	movie	1		276	53.0	2.5	/experiments/knapen_AOT/AOT_stimuli/rescaled_final/1869_fw.mp4	0.0	243.9512002468109	2.4920079708099365
55	225.59031510353088	pulse	1	t		53.0	2.5	/experiments/knapen_AOT/AOT_stimuli/rescaled_final/1869_fw.mp4	0.0	245.12472677230835	
55	226.90879654884338	fix_post	2		12	53.0	2.5	/experiments/knapen_AOT/AOT_stimuli/rescaled_final/1869_fw.mp4	0.0	246.44320821762085	0.10003781318664551
56	227.00883436203003	fix_pre	0		120	54.0	2.5	/experiments/knapen_AOT/AOT_stimuli/rescaled_final/1306_rv.mp4	0.0	246.5432460308075	1.0085978507995605
56	227.1926875114441	pulse	0	t		54.0	2.5	/experiments/knapen_AOT/AOT_stimuli/rescaled_final/1306_rv.mp4	0.0	246.72709918022156	
56	228.0174322128296	movie	1		275	54.0	2.5	/experiments/knapen_AOT/AOT_stimuli/rescaled_final/1306_rv.mp4	0.0	247.55184388160706	2.4918949604034424
56	228.79063248634338	pulse	1	t		54.0	2.5	/experiments/knapen_AOT/AOT_stimuli/rescaled_final/1306_rv.mp4	0.0	248.32504415512085	
56	230.39314913749695	pulse	1	t		54.0	2.5	/experiments/knapen_AOT/AOT_stimuli/rescaled_final/1306_rv.mp4	0.0	249.9275608062744	
56	230.50932717323303	fix_post	2		12	54.0	2.5	/experiments/knapen_AOT/AOT_stimuli/rescaled_final/1306_rv.mp4	0.0	250.0437388420105	0.10002493858337402
57	230.6093521118164	fix_pre	0		120	55.0	2.5	/experiments/knapen_AOT/AOT_stimuli/rescaled_final/1802_rv.mp4	0.0	250.14376378059387	1.0084974765777588
57	231.61784958839417	movie	1		274	55.0	2.5	/experiments/knapen_AOT/AOT_stimuli/rescaled_final/1802_rv.mp4	0.0	251.15226125717163	2.4920220375061035
57	231.99149465560913	pulse	1	t		55.0	2.5	/experiments/knapen_AOT/AOT_stimuli/rescaled_final/1802_rv.mp4	0.0	251.5259063243866	
57	233.5928361415863	pulse	1	t		55.0	2.5	/experiments/knapen_AOT/AOT_stimuli/rescaled_final/1802_rv.mp4	0.0	253.12724781036377	
57	234.10987162590027	fix_post	2		12	55.0	2.5	/experiments/knapen_AOT/AOT_stimuli/rescaled_final/1802_rv.mp4	0.0	253.64428329467773	0.10009193420410156
58	234.20996356010437	fix_pre	0		119	56.0	2.5	blank	1.0	253.74437522888184	0.9917371273040771
58	235.19367384910583	pulse	0	t		56.0	2.5	blank	1.0	254.7280855178833	
58	235.20170068740845	movie	1		301	56.0	2.5	blank	1.0	254.7361123561859	2.5087199211120605
58	236.79387950897217	pulse	1	t		56.0	2.5	blank	1.0	256.32829117774963	
58	237.7104206085205	fix_post	2		12	56.0	2.5	blank	1.0	257.244832277298	0.10002017021179199
59	237.8104407787323	fix_pre	0		120	57.0	2.5	/experiments/knapen_AOT/AOT_stimuli/rescaled_final/0006_rv.mp4	0.0	257.34485244750977	1.008521318435669
59	238.39411616325378	pulse	0	t		57.0	2.5	/experiments/knapen_AOT/AOT_stimuli/rescaled_final/0006_rv.mp4	0.0	257.92852783203125	
59	238.81896209716797	movie	1		286	57.0	2.5	/experiments/knapen_AOT/AOT_stimuli/rescaled_final/0006_rv.mp4	0.0	258.35337376594543	2.4920284748077393
59	239.98640847206116	pulse	1	t		57.0	2.5	/experiments/knapen_AOT/AOT_stimuli/rescaled_final/0006_rv.mp4	0.0	259.5208201408386	
59	241.3109905719757	fix_post	2		12	57.0	2.5	/experiments/knapen_AOT/AOT_stimuli/rescaled_final/0006_rv.mp4	0.0	260.8454022407532	0.10004591941833496
60	241.41103649139404	fix_pre	0		120	58.0	2.5	/experiments/knapen_AOT/AOT_stimuli/rescaled_final/1317_fw.mp4	0.0	260.9454481601715	1.008436679840088
60	241.58647513389587	pulse	0	t		58.0	2.5	/experiments/knapen_AOT/AOT_stimuli/rescaled_final/1317_fw.mp4	0.0	261.12088680267334	
60	242.41947317123413	movie	1		277	58.0	2.5	/experiments/knapen_AOT/AOT_stimuli/rescaled_final/1317_fw.mp4	0.0	261.9538848400116	2.4920308589935303
60	243.18649625778198	pulse	1	t		58.0	2.5	/experiments/knapen_AOT/AOT_stimuli/rescaled_final/1317_fw.mp4	0.0	262.72090792655945	
60	244.78668904304504	pulse	1	t		58.0	2.5	/experiments/knapen_AOT/AOT_stimuli/rescaled_final/1317_fw.mp4	0.0	264.3211007118225	
60	244.91150403022766	fix_post	2		12	58.0	2.5	/experiments/knapen_AOT/AOT_stimuli/rescaled_final/1317_fw.mp4	0.0	264.4459156990051	0.10000967979431152
61	245.01151371002197	fix_pre	0		120	59.0	2.5	/experiments/knapen_AOT/AOT_stimuli/rescaled_final/1437_fw.mp4	0.0	264.54592537879944	1.0085344314575195
61	246.0200481414795	movie	1		274	59.0	2.5	/experiments/knapen_AOT/AOT_stimuli/rescaled_final/1437_fw.mp4	0.0	265.55445981025696	2.492009401321411
61	246.3870210647583	pulse	1	t		59.0	2.5	/experiments/knapen_AOT/AOT_stimuli/rescaled_final/1437_fw.mp4	0.0	265.92143273353577	
61	247.98763728141785	pulse	1	t		59.0	2.5	/experiments/knapen_AOT/AOT_stimuli/rescaled_final/1437_fw.mp4	0.0	267.5220489501953	
61	248.5120575428009	fix_post	2		12	59.0	2.5	/experiments/knapen_AOT/AOT_stimuli/rescaled_final/1437_fw.mp4	0.0	268.04646921157837	0.09999561309814453
62	248.61205315589905	fix_pre	0		118	60.0	2.5	/experiments/knapen_AOT/AOT_stimuli/rescaled_final/1314_fw.mp4	0.0	268.1464648246765	0.9918136596679688
62	249.58750772476196	pulse	0	t		60.0	2.5	/experiments/knapen_AOT/AOT_stimuli/rescaled_final/1314_fw.mp4	0.0	269.12191939353943	
62	249.60386681556702	movie	1		277	60.0	2.5	/experiments/knapen_AOT/AOT_stimuli/rescaled_final/1314_fw.mp4	0.0	269.1382784843445	2.5003974437713623
62	251.1863555908203	pulse	1	t		60.0	2.5	/experiments/knapen_AOT/AOT_stimuli/rescaled_final/1314_fw.mp4	0.0	270.7207672595978	
62	252.10426425933838	fix_post	2		12	60.0	2.5	/experiments/knapen_AOT/AOT_stimuli/rescaled_final/1314_fw.mp4	0.0	271.63867592811584	0.10006308555603027
63	252.2043273448944	fix_pre	0		120	61.0	2.5	blank	1.0	271.7387390136719	1.0000965595245361
63	252.7879695892334	pulse	0	t		61.0	2.5	blank	1.0	272.32238125801086	
63	253.20442390441895	movie	1		300	61.0	2.5	blank	1.0	272.7388355731964	2.500359535217285
63	254.38815832138062	pulse	1	t		61.0	2.5	blank	1.0	273.9225699901581	
63	255.70478343963623	fix_post	2		12	61.0	2.5	blank	1.0	275.2391951084137	0.10004448890686035
64	255.8048279285431	fix_pre	0		120	62.0	2.5	/experiments/knapen_AOT/AOT_stimuli/rescaled_final/0797_fw.mp4	0.0	275.33923959732056	1.008502721786499
64	255.98853397369385	pulse	0	t		62.0	2.5	/experiments/knapen_AOT/AOT_stimuli/rescaled_final/0797_fw.mp4	0.0	275.5229456424713	
64	256.8133306503296	movie	1		289	62.0	2.5	/experiments/knapen_AOT/AOT_stimuli/rescaled_final/0797_fw.mp4	0.0	276.34774231910706	2.492004156112671
64	257.58862709999084	pulse	1	t		62.0	2.5	/experiments/knapen_AOT/AOT_stimuli/rescaled_final/0797_fw.mp4	0.0	277.1230387687683	
64	259.1870241165161	pulse	1	t		62.0	2.5	/experiments/knapen_AOT/AOT_stimuli/rescaled_final/0797_fw.mp4	0.0	278.7214357852936	
64	259.30533480644226	fix_post	2		12	62.0	2.5	/experiments/knapen_AOT/AOT_stimuli/rescaled_final/0797_fw.mp4	0.0	278.8397464752197	0.10005927085876465
65	259.405394077301	fix_pre	0		120	63.0	2.5	/experiments/knapen_AOT/AOT_stimuli/rescaled_final/1897_rv.mp4	0.0	278.9398057460785	1.0084524154663086
65	260.41384649276733	movie	1		282	63.0	2.5	/experiments/knapen_AOT/AOT_stimuli/rescaled_final/1897_rv.mp4	0.0	279.9482581615448	2.4920685291290283
65	260.7874765396118	pulse	1	t		63.0	2.5	/experiments/knapen_AOT/AOT_stimuli/rescaled_final/1897_rv.mp4	0.0	280.3218882083893	
65	262.38945627212524	pulse	1	t		63.0	2.5	/experiments/knapen_AOT/AOT_stimuli/rescaled_final/1897_rv.mp4	0.0	281.9238679409027	
65	262.90591502189636	fix_post	2		12	63.0	2.5	/experiments/knapen_AOT/AOT_stimuli/rescaled_final/1897_rv.mp4	0.0	282.4403266906738	0.10001611709594727
66	263.0059311389923	fix_pre	0		119	64.0	2.5	/experiments/knapen_AOT/AOT_stimuli/rescaled_final/1872_rv.mp4	0.0	282.5403428077698	1.0085349082946777
66	263.9895794391632	pulse	0	t		64.0	2.5	/experiments/knapen_AOT/AOT_stimuli/rescaled_final/1872_rv.mp4	0.0	283.5239911079407	
66	264.014466047287	movie	1		279	64.0	2.5	/experiments/knapen_AOT/AOT_stimuli/rescaled_final/1872_rv.mp4	0.0	283.54887771606445	2.491955280303955
66	265.58839535713196	pulse	1	t		64.0	2.5	/experiments/knapen_AOT/AOT_stimuli/rescaled_final/1872_rv.mp4	0.0	285.1228070259094	
66	266.50642132759094	fix_post	2		12	64.0	2.5	/experiments/knapen_AOT/AOT_stimuli/rescaled_final/1872_rv.mp4	0.0	286.0408329963684	0.1000373363494873
67	266.60645866394043	fix_pre	0		120	65.0	2.5	/experiments/knapen_AOT/AOT_stimuli/rescaled_final/1789_rv.mp4	0.0	286.1408703327179	1.0085244178771973
67	267.1902668476105	pulse	0	t		65.0	2.5	/experiments/knapen_AOT/AOT_stimuli/rescaled_final/1789_rv.mp4	0.0	286.72467851638794	
67	267.6149830818176	movie	1		281	65.0	2.5	/experiments/knapen_AOT/AOT_stimuli/rescaled_final/1789_rv.mp4	0.0	287.1493947505951	2.4919843673706055
67	268.7884798049927	pulse	1	t		65.0	2.5	/experiments/knapen_AOT/AOT_stimuli/rescaled_final/1789_rv.mp4	0.0	288.32289147377014	
67	270.10696744918823	fix_post	2		12	65.0	2.5	/experiments/knapen_AOT/AOT_stimuli/rescaled_final/1789_rv.mp4	0.0	289.6413791179657	0.10001087188720703
68	270.20697832107544	fix_pre	0		120	66.0	2.5	/experiments/knapen_AOT/AOT_stimuli/rescaled_final/0919_fw.mp4	0.0	289.7413899898529	1.0085041522979736
68	270.39057183265686	pulse	0	t		66.0	2.5	/experiments/knapen_AOT/AOT_stimuli/rescaled_final/0919_fw.mp4	0.0	289.9249835014343	
68	271.2154824733734	movie	1		287	66.0	2.5	/experiments/knapen_AOT/AOT_stimuli/rescaled_final/0919_fw.mp4	0.0	290.7498941421509	2.4920270442962646
68	271.9886965751648	pulse	1	t		66.0	2.5	/experiments/knapen_AOT/AOT_stimuli/rescaled_final/0919_fw.mp4	0.0	291.52310824394226	
68	273.58902621269226	pulse	1	t		66.0	2.5	/experiments/knapen_AOT/AOT_stimuli/rescaled_final/0919_fw.mp4	0.0	293.1234378814697	
68	273.7075095176697	fix_post	2		12	66.0	2.5	/experiments/knapen_AOT/AOT_stimuli/rescaled_final/0919_fw.mp4	0.0	293.24192118644714	0.09999823570251465
69	273.8075077533722	fix_pre	0		120	67.0	2.5	/experiments/knapen_AOT/AOT_stimuli/rescaled_final/0988_fw.mp4	0.0	293.34191942214966	1.0085978507995605
69	274.81610560417175	movie	1		280	67.0	2.5	/experiments/knapen_AOT/AOT_stimuli/rescaled_final/0988_fw.mp4	0.0	294.3505172729492	2.49194598197937
69	275.189644575119	pulse	1	t		67.0	2.5	/experiments/knapen_AOT/AOT_stimuli/rescaled_final/0988_fw.mp4	0.0	294.7240562438965	
69	276.7897036075592	pulse	1	t		67.0	2.5	/experiments/knapen_AOT/AOT_stimuli/rescaled_final/0988_fw.mp4	0.0	296.32411527633667	
69	277.3080515861511	fix_post	2		12	67.0	2.5	/experiments/knapen_AOT/AOT_stimuli/rescaled_final/0988_fw.mp4	0.0	296.8424632549286	0.10006928443908691
70	277.4081208705902	fix_pre	0		119	68.0	2.5	/experiments/knapen_AOT/AOT_stimuli/rescaled_final/0363_fw.mp4	0.0	296.9425325393677	1.008474349975586
70	278.39184284210205	pulse	0	t		68.0	2.5	/experiments/knapen_AOT/AOT_stimuli/rescaled_final/0363_fw.mp4	0.0	297.9262545108795	
70	278.4165952205658	movie	1		269	68.0	2.5	/experiments/knapen_AOT/AOT_stimuli/rescaled_final/0363_fw.mp4	0.0	297.95100688934326	2.49198579788208
70	279.9921703338623	pulse	1	t		68.0	2.5	/experiments/knapen_AOT/AOT_stimuli/rescaled_final/0363_fw.mp4	0.0	299.52658200263977	
70	280.9085810184479	fix_post	2		12	68.0	2.5	/experiments/knapen_AOT/AOT_stimuli/rescaled_final/0363_fw.mp4	0.0	300.44299268722534	0.10001444816589355
71	281.00859546661377	fix_pre	0		120	69.0	2.5	/experiments/knapen_AOT/AOT_stimuli/rescaled_final/0512_fw.mp4	0.0	300.54300713539124	1.008528709411621
71	281.59226083755493	pulse	0	t		69.0	2.5	/experiments/knapen_AOT/AOT_stimuli/rescaled_final/0512_fw.mp4	0.0	301.1266725063324	
71	282.0171241760254	movie	1		283	69.0	2.5	/experiments/knapen_AOT/AOT_stimuli/rescaled_final/0512_fw.mp4	0.0	301.55153584480286	2.4919731616973877
71	283.19068908691406	pulse	1	t		69.0	2.5	/experiments/knapen_AOT/AOT_stimuli/rescaled_final/0512_fw.mp4	0.0	302.7251007556915	
71	284.5090973377228	fix_post	2		12	69.0	2.5	/experiments/knapen_AOT/AOT_stimuli/rescaled_final/0512_fw.mp4	0.0	304.04350900650024	0.1000661849975586
72	284.60916352272034	fix_pre	0		120	70.0	2.5	blank	1.0	304.1435751914978	1.0001356601715088
72	284.7927758693695	pulse	0	t		70.0	2.5	blank	1.0	304.327187538147	
72	285.60929918289185	movie	1		300	70.0	2.5	blank	1.0	305.1437108516693	2.5003597736358643
72	286.39300203323364	pulse	1	t		70.0	2.5	blank	1.0	305.9274137020111	
72	287.9932873249054	pulse	1	t		70.0	2.5	blank	1.0	307.52769899368286	
72	288.1096589565277	fix_post	2		12	70.0	2.5	blank	1.0	307.6440706253052	0.10004162788391113
73	288.2097005844116	fix_pre	0		120	71.0	2.5	/experiments/knapen_AOT/AOT_stimuli/rescaled_final/0742_rv.mp4	0.0	307.7441122531891	1.0084803104400635
73	289.2181808948517	movie	1		280	71.0	2.5	/experiments/knapen_AOT/AOT_stimuli/rescaled_final/0742_rv.mp4	0.0	308.75259256362915	2.492072343826294
73	289.59185886383057	pulse	1	t		71.0	2.5	/experiments/knapen_AOT/AOT_stimuli/rescaled_final/0742_rv.mp4	0.0	309.12627053260803	
73	291.19250679016113	pulse	1	t		71.0	2.5	/experiments/knapen_AOT/AOT_stimuli/rescaled_final/0742_rv.mp4	0.0	310.7269184589386	
73	291.710253238678	fix_post	2		12	71.0	2.5	/experiments/knapen_AOT/AOT_stimuli/rescaled_final/0742_rv.mp4	0.0	311.24466490745544	0.10001397132873535
74	291.8102672100067	fix_pre	0		119	72.0	2.5	/experiments/knapen_AOT/AOT_stimuli/rescaled_final/1920_fw.mp4	0.0	311.3446788787842	1.000258445739746
74	292.79410576820374	pulse	0	t		72.0	2.5	/experiments/knapen_AOT/AOT_stimuli/rescaled_final/1920_fw.mp4	0.0	312.3285174369812	
74	292.81052565574646	movie	1		268	72.0	2.5	/experiments/knapen_AOT/AOT_stimuli/rescaled_final/1920_fw.mp4	0.0	312.3449373245239	2.500241994857788
74	294.39422249794006	pulse	1	t		72.0	2.5	/experiments/knapen_AOT/AOT_stimuli/rescaled_final/1920_fw.mp4	0.0	313.92863416671753	
74	295.31076765060425	fix_post	2		12	72.0	2.5	/experiments/knapen_AOT/AOT_stimuli/rescaled_final/1920_fw.mp4	0.0	314.8451793193817	0.09999227523803711
75	295.4107599258423	fix_pre	0		120	73.0	2.5	/experiments/knapen_AOT/AOT_stimuli/rescaled_final/1842_rv.mp4	0.0	314.94517159461975	1.0085210800170898
75	295.9867880344391	pulse	0	t		73.0	2.5	/experiments/knapen_AOT/AOT_stimuli/rescaled_final/1842_rv.mp4	0.0	315.52119970321655	
75	296.4192810058594	movie	1		283	73.0	2.5	/experiments/knapen_AOT/AOT_stimuli/rescaled_final/1842_rv.mp4	0.0	315.95369267463684	2.4919981956481934
75	297.5926868915558	pulse	1	t		73.0	2.5	/experiments/knapen_AOT/AOT_stimuli/rescaled_final/1842_rv.mp4	0.0	317.12709856033325	
75	298.91127920150757	fix_post	2		12	73.0	2.5	/experiments/knapen_AOT/AOT_stimuli/rescaled_final/1842_rv.mp4	0.0	318.44569087028503	0.10000252723693848
76	299.0112817287445	fix_pre	0		120	74.0	2.5	/experiments/knapen_AOT/AOT_stimuli/rescaled_final/0105_fw.mp4	0.0	318.545693397522	1.0085372924804688
76	299.18679189682007	pulse	0	t		74.0	2.5	/experiments/knapen_AOT/AOT_stimuli/rescaled_final/0105_fw.mp4	0.0	318.72120356559753	
76	300.019819021225	movie	1		275	74.0	2.5	/experiments/knapen_AOT/AOT_stimuli/rescaled_final/0105_fw.mp4	0.0	319.55423069000244	2.492108106613159
76	300.78678345680237	pulse	1	t		74.0	2.5	/experiments/knapen_AOT/AOT_stimuli/rescaled_final/0105_fw.mp4	0.0	320.32119512557983	
76	302.38704538345337	pulse	1	t		74.0	2.5	/experiments/knapen_AOT/AOT_stimuli/rescaled_final/0105_fw.mp4	0.0	321.92145705223083	
76	302.51192712783813	fix_post	2		12	74.0	2.5	/experiments/knapen_AOT/AOT_stimuli/rescaled_final/0105_fw.mp4	0.0	322.0463387966156	0.09990882873535156
77	302.6118359565735	fix_pre	0		120	75.0	2.5	/experiments/knapen_AOT/AOT_stimuli/rescaled_final/0785_fw.mp4	0.0	322.14624762535095	1.0084664821624756
77	303.62030243873596	movie	1		276	75.0	2.5	/experiments/knapen_AOT/AOT_stimuli/rescaled_final/0785_fw.mp4	0.0	323.1547141075134	2.492063045501709
77	303.9873194694519	pulse	1	t		75.0	2.5	/experiments/knapen_AOT/AOT_stimuli/rescaled_final/0785_fw.mp4	0.0	323.52173113822937	
77	305.5876376628876	pulse	1	t		75.0	2.5	/experiments/knapen_AOT/AOT_stimuli/rescaled_final/0785_fw.mp4	0.0	325.12204933166504	
77	306.11236548423767	fix_post	2		12	75.0	2.5	/experiments/knapen_AOT/AOT_stimuli/rescaled_final/0785_fw.mp4	0.0	325.64677715301514	0.10005068778991699
78	306.2124161720276	fix_pre	0		118	76.0	2.5	/experiments/knapen_AOT/AOT_stimuli/rescaled_final/1325_rv.mp4	0.0	325.74682784080505	0.9917984008789062
78	307.18801498413086	pulse	0	t		76.0	2.5	/experiments/knapen_AOT/AOT_stimuli/rescaled_final/1325_rv.mp4	0.0	326.7224266529083	
78	307.2042145729065	movie	1		280	76.0	2.5	/experiments/knapen_AOT/AOT_stimuli/rescaled_final/1325_rv.mp4	0.0	326.73862624168396	2.5003573894500732
78	308.788108587265	pulse	1	t		76.0	2.5	/experiments/knapen_AOT/AOT_stimuli/rescaled_final/1325_rv.mp4	0.0	328.3225202560425	
78	309.70457196235657	fix_post	2		12	76.0	2.5	/experiments/knapen_AOT/AOT_stimuli/rescaled_final/1325_rv.mp4	0.0	329.23898363113403	0.10001826286315918
79	309.8045902252197	fix_pre	0		120	77.0	2.5	blank	1.0	329.3390018939972	1.0001482963562012
79	310.3882052898407	pulse	0	t		77.0	2.5	blank	1.0	329.92261695861816	
79	310.8047385215759	movie	1		300	77.0	2.5	blank	1.0	330.3391501903534	2.500385046005249
79	311.9884331226349	pulse	1	t		77.0	2.5	blank	1.0	331.52284479141235	
79	313.3051235675812	fix_post	2		12	77.0	2.5	blank	1.0	332.83953523635864	0.10000109672546387
80	313.40512466430664	fix_pre	0		120	78.0	2.5	/experiments/knapen_AOT/AOT_stimuli/rescaled_final/0404_fw.mp4	0.0	332.9395363330841	1.008495807647705
80	313.58871126174927	pulse	0	t		78.0	2.5	/experiments/knapen_AOT/AOT_stimuli/rescaled_final/0404_fw.mp4	0.0	333.12312293052673	
80	314.41362047195435	movie	1		278	78.0	2.5	/experiments/knapen_AOT/AOT_stimuli/rescaled_final/0404_fw.mp4	0.0	333.9480321407318	2.4920356273651123
80	315.18763279914856	pulse	1	t		78.0	2.5	/experiments/knapen_AOT/AOT_stimuli/rescaled_final/0404_fw.mp4	0.0	334.722044467926	
80	316.78744769096375	pulse	1	t		78.0	2.5	/experiments/knapen_AOT/AOT_stimuli/rescaled_final/0404_fw.mp4	0.0	336.3218593597412	
80	316.90565609931946	fix_post	2		12	78.0	2.5	/experiments/knapen_AOT/AOT_stimuli/rescaled_final/0404_fw.mp4	0.0	336.4400677680969	0.10002851486206055
81	317.0056846141815	fix_pre	0		120	79.0	2.5	/experiments/knapen_AOT/AOT_stimuli/rescaled_final/1658_fw.mp4	0.0	336.540096282959	1.0084731578826904
81	318.0141577720642	movie	1		280	79.0	2.5	/experiments/knapen_AOT/AOT_stimuli/rescaled_final/1658_fw.mp4	0.0	337.5485694408417	2.492044448852539
81	318.3880569934845	pulse	1	t		79.0	2.5	/experiments/knapen_AOT/AOT_stimuli/rescaled_final/1658_fw.mp4	0.0	337.92246866226196	
81	319.9889214038849	pulse	1	t		79.0	2.5	/experiments/knapen_AOT/AOT_stimuli/rescaled_final/1658_fw.mp4	0.0	339.52333307266235	
81	320.50620222091675	fix_post	2		12	79.0	2.5	/experiments/knapen_AOT/AOT_stimuli/rescaled_final/1658_fw.mp4	0.0	340.0406138896942	0.10006260871887207
82	320.6062648296356	fix_pre	0		119	80.0	2.5	/experiments/knapen_AOT/AOT_stimuli/rescaled_final/0006_rv.mp4	0.0	340.1406764984131	1.0001306533813477
82	321.59017395973206	pulse	0	t		80.0	2.5	/experiments/knapen_AOT/AOT_stimuli/rescaled_final/0006_rv.mp4	0.0	341.1245856285095	
82	321.60639548301697	movie	1		278	80.0	2.5	/experiments/knapen_AOT/AOT_stimuli/rescaled_final/0006_rv.mp4	0.0	341.14080715179443	2.5003585815429688
82	323.189306974411	pulse	1	t		80.0	2.5	/experiments/knapen_AOT/AOT_stimuli/rescaled_final/0006_rv.mp4	0.0	342.7237186431885	
82	324.10675406455994	fix_post	2		12	80.0	2.5	/experiments/knapen_AOT/AOT_stimuli/rescaled_final/0006_rv.mp4	0.0	343.6411657333374	0.10000967979431152
83	324.20676374435425	fix_pre	0		120	81.0	2.5	/experiments/knapen_AOT/AOT_stimuli/rescaled_final/0579_fw.mp4	0.0	343.7411754131317	1.0084896087646484
83	324.7904875278473	pulse	0	t		81.0	2.5	/experiments/knapen_AOT/AOT_stimuli/rescaled_final/0579_fw.mp4	0.0	344.32489919662476	
83	325.2152533531189	movie	1		280	81.0	2.5	/experiments/knapen_AOT/AOT_stimuli/rescaled_final/0579_fw.mp4	0.0	344.74966502189636	2.4920215606689453
83	326.3890550136566	pulse	1	t		81.0	2.5	/experiments/knapen_AOT/AOT_stimuli/rescaled_final/0579_fw.mp4	0.0	345.9234666824341	
83	327.70727491378784	fix_post	2		12	81.0	2.5	/experiments/knapen_AOT/AOT_stimuli/rescaled_final/0579_fw.mp4	0.0	347.2416865825653	0.10004496574401855
84	327.80731987953186	fix_pre	0		120	82.0	2.5	/experiments/knapen_AOT/AOT_stimuli/rescaled_final/1653_rv.mp4	0.0	347.3417315483093	1.0085225105285645
84	327.9909257888794	pulse	0	t		82.0	2.5	/experiments/knapen_AOT/AOT_stimuli/rescaled_final/1653_rv.mp4	0.0	347.52533745765686	
84	328.8158423900604	movie	1		280	82.0	2.5	/experiments/knapen_AOT/AOT_stimuli/rescaled_final/1653_rv.mp4	0.0	348.3502540588379	2.4919850826263428
84	329.5907835960388	pulse	1	t		82.0	2.5	/experiments/knapen_AOT/AOT_stimuli/rescaled_final/1653_rv.mp4	0.0	349.1251952648163	
84	331.18975257873535	pulse	1	t		82.0	2.5	/experiments/knapen_AOT/AOT_stimuli/rescaled_final/1653_rv.mp4	0.0	350.7241642475128	
84	331.30782747268677	fix_post	2		12	82.0	2.5	/experiments/knapen_AOT/AOT_stimuli/rescaled_final/1653_rv.mp4	0.0	350.84223914146423	0.10000181198120117
85	331.40782928466797	fix_pre	0		120	83.0	2.5	blank	1.0	350.94224095344543	1.0001909732818604
85	332.40802025794983	movie	1		300	83.0	2.5	blank	1.0	351.9424319267273	2.500516891479492
85	332.7916855812073	pulse	1	t		83.0	2.5	blank	1.0	352.32609724998474	
85	334.3918499946594	pulse	1	t		83.0	2.5	blank	1.0	353.9262616634369	
85	334.9085371494293	fix_post	2		12	83.0	2.5	blank	1.0	354.4429488182068	0.09982991218566895
87	335.008367061615	stim	0		1716					354.54277873039246	14.30213975906372
87	335.99210143089294	pulse	0	t						355.5265130996704	
87	337.5922815799713	pulse	0	t						357.1266932487488	
87	339.1926784515381	pulse	0	t						358.72709012031555	
87	340.7927756309509	pulse	0	t						360.3271872997284	
87	342.39310574531555	pulse	0	t						361.927517414093	
87	343.99347019195557	pulse	0	t						363.52788186073303	
87	345.5935685634613	pulse	0	t						365.12798023223877	
87	347.1859726905823	pulse	0	t						366.72038435935974	
87	348.7863402366638	pulse	0	t						368.3207519054413	
