trial_nr	onset	event_type	phase	response	nr_frames	movie_index	movie_duration	movie_file	blank	onset_abs	duration
0	0.20829987525939941	stim	0		9					57.26757001876831	0.07494711875915527
0	0.27527499198913574	response	0	space						57.33454513549805	
1	0.2832469940185547	stim	0		4688					57.342517137527466	39.083945989608765
1	39.357316970825195	pulse	0	t						96.4165871143341	
1	39.36719298362732	stim	1		1716					96.42646312713623	14.307442903518677
1	40.947843074798584	pulse	1	t						98.0071132183075	
1	42.548059940338135	pulse	1	t						99.60733008384705	
1	44.14833998680115	pulse	1	t						101.20761013031006	
1	45.748668909072876	pulse	1	t						102.80793905258179	
1	47.34139084815979	pulse	1	t						104.4006609916687	
1	48.94152498245239	pulse	1	t						106.0007951259613	
1	50.54172396659851	pulse	1	t						107.60099411010742	
1	52.14193892478943	pulse	1	t						109.20120906829834	
2	53.674635887145996	fix_pre	0		10	0.0	2.5	/experiments/knapen_AOT/AOT_stimuli/rescaled_final/1011_fw.mp4	0.0	110.73390603065491	0.08326506614685059
2	53.74219298362732	pulse	0	t		0.0	2.5	/experiments/knapen_AOT/AOT_stimuli/rescaled_final/1011_fw.mp4	0.0	110.80146312713623	
2	53.75790095329285	movie	1		243	0.0	2.5	/experiments/knapen_AOT/AOT_stimuli/rescaled_final/1011_fw.mp4	0.0	110.81717109680176	2.508845090866089
2	55.341670989990234	pulse	1	t		0.0	2.5	/experiments/knapen_AOT/AOT_stimuli/rescaled_final/1011_fw.mp4	0.0	112.40094113349915	
2	56.266746044158936	fix_post	2		12	0.0	2.5	/experiments/knapen_AOT/AOT_stimuli/rescaled_final/1011_fw.mp4	0.0	113.32601618766785	0.09996795654296875
3	56.366714000701904	fix_pre	0		120	1.0	2.5	/experiments/knapen_AOT/AOT_stimuli/rescaled_final/1854_rv.mp4	0.0	113.42598414421082	1.0000839233398438
3	56.941871881484985	pulse	0	t		1.0	2.5	/experiments/knapen_AOT/AOT_stimuli/rescaled_final/1854_rv.mp4	0.0	114.0011420249939	
3	57.36679792404175	movie	1		241	1.0	2.5	/experiments/knapen_AOT/AOT_stimuli/rescaled_final/1854_rv.mp4	0.0	114.42606806755066	2.5089240074157715
3	58.54346489906311	pulse	1	t		1.0	2.5	/experiments/knapen_AOT/AOT_stimuli/rescaled_final/1854_rv.mp4	0.0	115.60273504257202	
3	59.87572193145752	fix_post	2		11	1.0	2.5	/experiments/knapen_AOT/AOT_stimuli/rescaled_final/1854_rv.mp4	0.0	116.93499207496643	0.09150099754333496
4	59.967222929000854	fix_pre	0		120	2.0	2.5	/experiments/knapen_AOT/AOT_stimuli/rescaled_final/0605_rv.mp4	0.0	117.02649307250977	1.0001499652862549
4	60.14247393608093	pulse	0	t		2.0	2.5	/experiments/knapen_AOT/AOT_stimuli/rescaled_final/0605_rv.mp4	0.0	117.20174407958984	
4	60.96737289428711	movie	1		242	2.0	2.5	/experiments/knapen_AOT/AOT_stimuli/rescaled_final/0605_rv.mp4	0.0	118.02664303779602	2.500516176223755
4	61.74271607398987	pulse	1	t		2.0	2.5	/experiments/knapen_AOT/AOT_stimuli/rescaled_final/0605_rv.mp4	0.0	118.80198621749878	
4	63.34294295310974	pulse	1	t		2.0	2.5	/experiments/knapen_AOT/AOT_stimuli/rescaled_final/0605_rv.mp4	0.0	120.40221309661865	
4	63.467889070510864	fix_post	2		12	2.0	2.5	/experiments/knapen_AOT/AOT_stimuli/rescaled_final/0605_rv.mp4	0.0	120.52715921401978	0.09990882873535156
5	63.567797899246216	fix_pre	0		120	3.0	2.5	/experiments/knapen_AOT/AOT_stimuli/rescaled_final/0123_fw.mp4	0.0	120.62706804275513	1.0000770092010498
5	64.56787490844727	movie	1		241	3.0	2.5	/experiments/knapen_AOT/AOT_stimuli/rescaled_final/0123_fw.mp4	0.0	121.62714505195618	2.4920730590820312
5	64.94309401512146	pulse	1	t		3.0	2.5	/experiments/knapen_AOT/AOT_stimuli/rescaled_final/0123_fw.mp4	0.0	122.00236415863037	
5	66.54353284835815	pulse	1	t		3.0	2.5	/experiments/knapen_AOT/AOT_stimuli/rescaled_final/0123_fw.mp4	0.0	123.60280299186707	
5	67.0599479675293	fix_post	2		12	3.0	2.5	/experiments/knapen_AOT/AOT_stimuli/rescaled_final/0123_fw.mp4	0.0	124.11921811103821	0.09995508193969727
6	67.159903049469	fix_pre	0		119	4.0	2.5	/experiments/knapen_AOT/AOT_stimuli/rescaled_final/1122_rv.mp4	0.0	124.2191731929779	0.991894006729126
6	68.14376306533813	pulse	0	t		4.0	2.5	/experiments/knapen_AOT/AOT_stimuli/rescaled_final/1122_rv.mp4	0.0	125.20303320884705	
6	68.15179705619812	movie	1		242	4.0	2.5	/experiments/knapen_AOT/AOT_stimuli/rescaled_final/1122_rv.mp4	0.0	125.21106719970703	2.508694887161255
6	69.74418187141418	pulse	1	t		4.0	2.5	/experiments/knapen_AOT/AOT_stimuli/rescaled_final/1122_rv.mp4	0.0	126.8034520149231	
6	70.66049194335938	fix_post	2		12	4.0	2.5	/experiments/knapen_AOT/AOT_stimuli/rescaled_final/1122_rv.mp4	0.0	127.71976208686829	0.10001993179321289
7	70.76051187515259	fix_pre	0		120	5.0	2.5	/experiments/knapen_AOT/AOT_stimuli/rescaled_final/0530_fw.mp4	0.0	127.8197820186615	1.0001561641693115
7	71.34410095214844	pulse	0	t		5.0	2.5	/experiments/knapen_AOT/AOT_stimuli/rescaled_final/0530_fw.mp4	0.0	128.40337109565735	
7	71.7606680393219	movie	1		242	5.0	2.5	/experiments/knapen_AOT/AOT_stimuli/rescaled_final/0530_fw.mp4	0.0	128.8199381828308	2.5003650188446045
7	72.94435501098633	pulse	1	t		5.0	2.5	/experiments/knapen_AOT/AOT_stimuli/rescaled_final/0530_fw.mp4	0.0	130.00362515449524	
7	74.2610330581665	fix_post	2		12	5.0	2.5	/experiments/knapen_AOT/AOT_stimuli/rescaled_final/0530_fw.mp4	0.0	131.32030320167542	0.09995579719543457
8	74.36098885536194	fix_pre	0		120	6.0	2.5	blank	1.0	131.42025899887085	1.0001671314239502
8	74.54463601112366	pulse	0	t		6.0	2.5	blank	1.0	131.60390615463257	
8	75.36115598678589	movie	1		300	6.0	2.5	blank	1.0	132.4204261302948	2.5003809928894043
8	76.14488387107849	pulse	1	t		6.0	2.5	blank	1.0	133.2041540145874	
8	77.74502205848694	pulse	1	t		6.0	2.5	blank	1.0	134.80429220199585	
8	77.8615369796753	fix_post	2		12	6.0	2.5	blank	1.0	134.9208071231842	0.10001087188720703
9	77.9615478515625	fix_pre	0		120	7.0	2.5	/experiments/knapen_AOT/AOT_stimuli/rescaled_final/1768_rv.mp4	0.0	135.0208179950714	1.0002222061157227
9	78.96177005767822	movie	1		241	7.0	2.5	/experiments/knapen_AOT/AOT_stimuli/rescaled_final/1768_rv.mp4	0.0	136.02104020118713	2.4920527935028076
9	79.34586095809937	pulse	1	t		7.0	2.5	/experiments/knapen_AOT/AOT_stimuli/rescaled_final/1768_rv.mp4	0.0	136.40513110160828	
9	80.94549894332886	pulse	1	t		7.0	2.5	/experiments/knapen_AOT/AOT_stimuli/rescaled_final/1768_rv.mp4	0.0	138.00476908683777	
9	81.45382285118103	fix_post	2		12	7.0	2.5	/experiments/knapen_AOT/AOT_stimuli/rescaled_final/1768_rv.mp4	0.0	138.51309299468994	0.10000205039978027
10	81.55382490158081	fix_pre	0		120	8.0	2.5	/experiments/knapen_AOT/AOT_stimuli/rescaled_final/1503_fw.mp4	0.0	138.61309504508972	1.000040054321289
10	82.54579901695251	pulse	0	t		8.0	2.5	/experiments/knapen_AOT/AOT_stimuli/rescaled_final/1503_fw.mp4	0.0	139.60506916046143	
10	82.5538649559021	movie	1		244	8.0	2.5	/experiments/knapen_AOT/AOT_stimuli/rescaled_final/1503_fw.mp4	0.0	139.613135099411	2.508791923522949
10	84.15037107467651	pulse	1	t		8.0	2.5	/experiments/knapen_AOT/AOT_stimuli/rescaled_final/1503_fw.mp4	0.0	141.20964121818542	
10	85.06265687942505	fix_post	2		12	8.0	2.5	/experiments/knapen_AOT/AOT_stimuli/rescaled_final/1503_fw.mp4	0.0	142.12192702293396	0.09998512268066406
11	85.16264200210571	fix_pre	0		120	9.0	2.5	/experiments/knapen_AOT/AOT_stimuli/rescaled_final/1772_rv.mp4	0.0	142.22191214561462	1.0001490116119385
11	85.74624991416931	pulse	0	t		9.0	2.5	/experiments/knapen_AOT/AOT_stimuli/rescaled_final/1772_rv.mp4	0.0	142.80552005767822	
11	86.16279101371765	movie	1		242	9.0	2.5	/experiments/knapen_AOT/AOT_stimuli/rescaled_final/1772_rv.mp4	0.0	143.22206115722656	2.5005228519439697
11	87.3464949131012	pulse	1	t		9.0	2.5	/experiments/knapen_AOT/AOT_stimuli/rescaled_final/1772_rv.mp4	0.0	144.4057650566101	
11	88.66331386566162	fix_post	2		12	9.0	2.5	/experiments/knapen_AOT/AOT_stimuli/rescaled_final/1772_rv.mp4	0.0	145.72258400917053	0.09992599487304688
12	88.76323986053467	fix_pre	0		120	10.0	2.5	/experiments/knapen_AOT/AOT_stimuli/rescaled_final/0050_rv.mp4	0.0	145.82251000404358	1.0000841617584229
12	88.94668793678284	pulse	0	t		10.0	2.5	/experiments/knapen_AOT/AOT_stimuli/rescaled_final/0050_rv.mp4	0.0	146.00595808029175	
12	89.76332402229309	movie	1		242	10.0	2.5	/experiments/knapen_AOT/AOT_stimuli/rescaled_final/0050_rv.mp4	0.0	146.822594165802	2.500586986541748
12	90.54696488380432	pulse	1	t		10.0	2.5	/experiments/knapen_AOT/AOT_stimuli/rescaled_final/0050_rv.mp4	0.0	147.60623502731323	
12	92.14733099937439	pulse	1	t		10.0	2.5	/experiments/knapen_AOT/AOT_stimuli/rescaled_final/0050_rv.mp4	0.0	149.2066011428833	
12	92.26391100883484	fix_post	2		12	10.0	2.5	/experiments/knapen_AOT/AOT_stimuli/rescaled_final/0050_rv.mp4	0.0	149.32318115234375	0.09982991218566895
13	92.36374092102051	fix_pre	0		120	11.0	2.5	/experiments/knapen_AOT/AOT_stimuli/rescaled_final/0596_rv.mp4	0.0	149.42301106452942	1.0000910758972168
13	93.36383199691772	movie	1		242	11.0	2.5	/experiments/knapen_AOT/AOT_stimuli/rescaled_final/0596_rv.mp4	0.0	150.42310214042664	2.492058038711548
13	93.75247097015381	pulse	1	t		11.0	2.5	/experiments/knapen_AOT/AOT_stimuli/rescaled_final/0596_rv.mp4	0.0	150.81174111366272	
13	95.34767985343933	pulse	1	t		11.0	2.5	/experiments/knapen_AOT/AOT_stimuli/rescaled_final/0596_rv.mp4	0.0	152.40694999694824	
13	95.85589003562927	fix_post	2		12	11.0	2.5	/experiments/knapen_AOT/AOT_stimuli/rescaled_final/0596_rv.mp4	0.0	152.91516017913818	0.1000068187713623
14	95.95589685440063	fix_pre	0		120	12.0	2.5	/experiments/knapen_AOT/AOT_stimuli/rescaled_final/0270_fw.mp4	0.0	153.01516699790955	1.0002391338348389
14	96.94793200492859	pulse	0	t		12.0	2.5	/experiments/knapen_AOT/AOT_stimuli/rescaled_final/0270_fw.mp4	0.0	154.0072021484375	
14	96.95613598823547	movie	1		243	12.0	2.5	/experiments/knapen_AOT/AOT_stimuli/rescaled_final/0270_fw.mp4	0.0	154.01540613174438	2.508660078048706
14	98.54896783828735	pulse	1	t		12.0	2.5	/experiments/knapen_AOT/AOT_stimuli/rescaled_final/0270_fw.mp4	0.0	155.60823798179626	
14	99.46479606628418	fix_post	2		12	12.0	2.5	/experiments/knapen_AOT/AOT_stimuli/rescaled_final/0270_fw.mp4	0.0	156.5240662097931	0.09997797012329102
15	99.56477403640747	fix_pre	0		120	13.0	2.5	/experiments/knapen_AOT/AOT_stimuli/rescaled_final/1556_rv.mp4	0.0	156.62404417991638	1.000126838684082
15	100.14844298362732	pulse	0	t		13.0	2.5	/experiments/knapen_AOT/AOT_stimuli/rescaled_final/1556_rv.mp4	0.0	157.20771312713623	
15	100.56490087509155	movie	1		243	13.0	2.5	/experiments/knapen_AOT/AOT_stimuli/rescaled_final/1556_rv.mp4	0.0	157.62417101860046	2.5005221366882324
15	101.74866986274719	pulse	1	t		13.0	2.5	/experiments/knapen_AOT/AOT_stimuli/rescaled_final/1556_rv.mp4	0.0	158.8079400062561	
15	103.06542301177979	fix_post	2		12	13.0	2.5	/experiments/knapen_AOT/AOT_stimuli/rescaled_final/1556_rv.mp4	0.0	160.1246931552887	0.0999000072479248
16	103.16532301902771	fix_pre	0		120	14.0	2.5	blank	1.0	160.22459316253662	1.0001308917999268
16	103.3488199710846	pulse	0	t		14.0	2.5	blank	1.0	160.4080901145935	
16	104.16545391082764	movie	1		300	14.0	2.5	blank	1.0	161.22472405433655	2.5003631114959717
16	104.94907784461975	pulse	1	t		14.0	2.5	blank	1.0	162.00834798812866	
16	106.5494499206543	pulse	1	t		14.0	2.5	blank	1.0	163.6087200641632	
16	106.66581702232361	fix_post	2		12	14.0	2.5	blank	1.0	163.72508716583252	0.10000991821289062
17	106.7658269405365	fix_pre	0		120	15.0	2.5	/experiments/knapen_AOT/AOT_stimuli/rescaled_final/0411_fw.mp4	0.0	163.8250970840454	1.0001540184020996
17	107.7659809589386	movie	1		242	15.0	2.5	/experiments/knapen_AOT/AOT_stimuli/rescaled_final/0411_fw.mp4	0.0	164.8252511024475	2.4920589923858643
17	108.15023684501648	pulse	1	t		15.0	2.5	/experiments/knapen_AOT/AOT_stimuli/rescaled_final/0411_fw.mp4	0.0	165.2095069885254	
17	109.74248886108398	pulse	1	t		15.0	2.5	/experiments/knapen_AOT/AOT_stimuli/rescaled_final/0411_fw.mp4	0.0	166.8017590045929	
17	110.25803995132446	fix_post	2		12	15.0	2.5	/experiments/knapen_AOT/AOT_stimuli/rescaled_final/0411_fw.mp4	0.0	167.31731009483337	0.10007309913635254
18	110.35811305046082	fix_pre	0		120	16.0	2.5	/experiments/knapen_AOT/AOT_stimuli/rescaled_final/1431_fw.mp4	0.0	167.41738319396973	1.000135898590088
18	111.34256100654602	pulse	0	t		16.0	2.5	/experiments/knapen_AOT/AOT_stimuli/rescaled_final/1431_fw.mp4	0.0	168.40183115005493	
18	111.3582489490509	movie	1		245	16.0	2.5	/experiments/knapen_AOT/AOT_stimuli/rescaled_final/1431_fw.mp4	0.0	168.41751909255981	2.508671998977661
18	112.95157289505005	pulse	1	t		16.0	2.5	/experiments/knapen_AOT/AOT_stimuli/rescaled_final/1431_fw.mp4	0.0	170.01084303855896	
18	113.86692094802856	fix_post	2		12	16.0	2.5	/experiments/knapen_AOT/AOT_stimuli/rescaled_final/1431_fw.mp4	0.0	170.92619109153748	0.10000300407409668
19	113.96692395210266	fix_pre	0		120	17.0	2.5	/experiments/knapen_AOT/AOT_stimuli/rescaled_final/1816_rv.mp4	0.0	171.02619409561157	1.0001559257507324
19	114.54245591163635	pulse	0	t		17.0	2.5	/experiments/knapen_AOT/AOT_stimuli/rescaled_final/1816_rv.mp4	0.0	171.60172605514526	
19	114.9670798778534	movie	1		243	17.0	2.5	/experiments/knapen_AOT/AOT_stimuli/rescaled_final/1816_rv.mp4	0.0	172.0263500213623	2.5004961490631104
19	116.14299607276917	pulse	1	t		17.0	2.5	/experiments/knapen_AOT/AOT_stimuli/rescaled_final/1816_rv.mp4	0.0	173.20226621627808	
19	117.4675760269165	fix_post	2		12	17.0	2.5	/experiments/knapen_AOT/AOT_stimuli/rescaled_final/1816_rv.mp4	0.0	174.52684617042542	0.09994196891784668
20	117.56751799583435	fix_pre	0		120	18.0	2.5	/experiments/knapen_AOT/AOT_stimuli/rescaled_final/0154_fw.mp4	0.0	174.62678813934326	1.0000698566436768
20	117.74266290664673	pulse	0	t		18.0	2.5	/experiments/knapen_AOT/AOT_stimuli/rescaled_final/0154_fw.mp4	0.0	174.80193305015564	
20	118.56758785247803	movie	1		244	18.0	2.5	/experiments/knapen_AOT/AOT_stimuli/rescaled_final/0154_fw.mp4	0.0	175.62685799598694	2.5004281997680664
20	119.34288907051086	pulse	1	t		18.0	2.5	/experiments/knapen_AOT/AOT_stimuli/rescaled_final/0154_fw.mp4	0.0	176.40215921401978	
20	120.94306802749634	pulse	1	t		18.0	2.5	/experiments/knapen_AOT/AOT_stimuli/rescaled_final/0154_fw.mp4	0.0	178.00233817100525	
20	121.0680160522461	fix_post	2		11	18.0	2.5	/experiments/knapen_AOT/AOT_stimuli/rescaled_final/0154_fw.mp4	0.0	178.127286195755	0.0916287899017334
21	121.15964484214783	fix_pre	0		120	19.0	2.5	/experiments/knapen_AOT/AOT_stimuli/rescaled_final/0999_fw.mp4	0.0	178.21891498565674	1.0001461505889893
21	122.15979099273682	movie	1		243	19.0	2.5	/experiments/knapen_AOT/AOT_stimuli/rescaled_final/0999_fw.mp4	0.0	179.21906113624573	2.500494956970215
21	122.5438129901886	pulse	1	t		19.0	2.5	/experiments/knapen_AOT/AOT_stimuli/rescaled_final/0999_fw.mp4	0.0	179.6030831336975	
21	124.1436779499054	pulse	1	t		19.0	2.5	/experiments/knapen_AOT/AOT_stimuli/rescaled_final/0999_fw.mp4	0.0	181.2029480934143	
21	124.66028594970703	fix_post	2		12	19.0	2.5	/experiments/knapen_AOT/AOT_stimuli/rescaled_final/0999_fw.mp4	0.0	181.71955609321594	0.09992504119873047
22	124.76021099090576	fix_pre	0		119	20.0	2.5	/experiments/knapen_AOT/AOT_stimuli/rescaled_final/0880_rv.mp4	0.0	181.81948113441467	0.9918320178985596
22	125.7438280582428	pulse	0	t		20.0	2.5	/experiments/knapen_AOT/AOT_stimuli/rescaled_final/0880_rv.mp4	0.0	182.8030982017517	
22	125.75204300880432	movie	1		244	20.0	2.5	/experiments/knapen_AOT/AOT_stimuli/rescaled_final/0880_rv.mp4	0.0	182.81131315231323	2.5086488723754883
22	127.34479403495789	pulse	1	t		20.0	2.5	/experiments/knapen_AOT/AOT_stimuli/rescaled_final/0880_rv.mp4	0.0	184.4040641784668	
22	128.2606918811798	fix_post	2		12	20.0	2.5	/experiments/knapen_AOT/AOT_stimuli/rescaled_final/0880_rv.mp4	0.0	185.31996202468872	0.10001111030578613
23	128.3607029914856	fix_pre	0		120	21.0	2.5	blank	1.0	185.4199731349945	1.0001499652862549
23	128.94438290596008	pulse	0	t		21.0	2.5	blank	1.0	186.003653049469	
23	129.36085295677185	movie	1		300	21.0	2.5	blank	1.0	186.42012310028076	2.5004611015319824
23	130.54466199874878	pulse	1	t		21.0	2.5	blank	1.0	187.6039321422577	
23	131.86131405830383	fix_post	2		9	21.0	2.5	blank	1.0	188.92058420181274	0.09995889663696289
24	131.9612729549408	fix_pre	0		120	22.0	2.5	/experiments/knapen_AOT/AOT_stimuli/rescaled_final/1643_rv.mp4	0.0	189.0205430984497	1.0001449584960938
24	132.1449089050293	pulse	0	t		22.0	2.5	/experiments/knapen_AOT/AOT_stimuli/rescaled_final/1643_rv.mp4	0.0	189.2041790485382	
24	132.9614179134369	movie	1		242	22.0	2.5	/experiments/knapen_AOT/AOT_stimuli/rescaled_final/1643_rv.mp4	0.0	190.0206880569458	2.500429153442383
24	133.7450189590454	pulse	1	t		22.0	2.5	/experiments/knapen_AOT/AOT_stimuli/rescaled_final/1643_rv.mp4	0.0	190.80428910255432	
24	135.34637784957886	pulse	1	t		22.0	2.5	/experiments/knapen_AOT/AOT_stimuli/rescaled_final/1643_rv.mp4	0.0	192.40564799308777	
24	135.46184706687927	fix_post	2		12	22.0	2.5	/experiments/knapen_AOT/AOT_stimuli/rescaled_final/1643_rv.mp4	0.0	192.52111721038818	0.09993696212768555
25	135.56178402900696	fix_pre	0		119	23.0	2.5	/experiments/knapen_AOT/AOT_stimuli/rescaled_final/0847_fw.mp4	0.0	192.62105417251587	0.9918279647827148
25	136.55361199378967	movie	1		243	23.0	2.5	/experiments/knapen_AOT/AOT_stimuli/rescaled_final/0847_fw.mp4	0.0	193.61288213729858	2.50039005279541
25	136.9457709789276	pulse	1	t		23.0	2.5	/experiments/knapen_AOT/AOT_stimuli/rescaled_final/0847_fw.mp4	0.0	194.00504112243652	
25	138.5458390712738	pulse	1	t		23.0	2.5	/experiments/knapen_AOT/AOT_stimuli/rescaled_final/0847_fw.mp4	0.0	195.60510921478271	
25	139.05400204658508	fix_post	2		12	23.0	2.5	/experiments/knapen_AOT/AOT_stimuli/rescaled_final/0847_fw.mp4	0.0	196.113272190094	0.10004782676696777
26	139.15404987335205	fix_pre	0		120	24.0	2.5	/experiments/knapen_AOT/AOT_stimuli/rescaled_final/0627_fw.mp4	0.0	196.21332001686096	1.0001311302185059
26	140.14595198631287	pulse	0	t		24.0	2.5	/experiments/knapen_AOT/AOT_stimuli/rescaled_final/0627_fw.mp4	0.0	197.20522212982178	
26	140.15418100357056	movie	1		244	24.0	2.5	/experiments/knapen_AOT/AOT_stimuli/rescaled_final/0627_fw.mp4	0.0	197.21345114707947	2.5086798667907715
26	141.74672889709473	pulse	1	t		24.0	2.5	/experiments/knapen_AOT/AOT_stimuli/rescaled_final/0627_fw.mp4	0.0	198.80599904060364	
26	142.66286087036133	fix_post	2		12	24.0	2.5	/experiments/knapen_AOT/AOT_stimuli/rescaled_final/0627_fw.mp4	0.0	199.72213101387024	0.0999901294708252
27	142.76285099983215	fix_pre	0		120	25.0	2.5	/experiments/knapen_AOT/AOT_stimuli/rescaled_final/1898_fw.mp4	0.0	199.82212114334106	1.0001769065856934
27	143.3466010093689	pulse	0	t		25.0	2.5	/experiments/knapen_AOT/AOT_stimuli/rescaled_final/1898_fw.mp4	0.0	200.4058711528778	
27	143.76302790641785	movie	1		243	25.0	2.5	/experiments/knapen_AOT/AOT_stimuli/rescaled_final/1898_fw.mp4	0.0	200.82229804992676	2.500502109527588
27	144.9428689479828	pulse	1	t		25.0	2.5	/experiments/knapen_AOT/AOT_stimuli/rescaled_final/1898_fw.mp4	0.0	202.0021390914917	
27	146.26353001594543	fix_post	2		12	25.0	2.5	/experiments/knapen_AOT/AOT_stimuli/rescaled_final/1898_fw.mp4	0.0	203.32280015945435	0.09992694854736328
28	146.3634569644928	fix_pre	0		120	26.0	2.5	blank	1.0	203.4227271080017	1.0001420974731445
28	146.54697394371033	pulse	0	t		26.0	2.5	blank	1.0	203.60624408721924	
28	147.36359906196594	movie	1		300	26.0	2.5	blank	1.0	204.42286920547485	2.5003209114074707
28	148.14713597297668	pulse	1	t		26.0	2.5	blank	1.0	205.2064061164856	
28	149.74742889404297	pulse	1	t		26.0	2.5	blank	1.0	206.80669903755188	
28	149.8639199733734	fix_post	2		12	26.0	2.5	blank	1.0	206.92319011688232	0.10003304481506348
29	149.96395301818848	fix_pre	0		119	27.0	2.5	/experiments/knapen_AOT/AOT_stimuli/rescaled_final/0583_rv.mp4	0.0	207.0232231616974	0.9918010234832764
29	150.95575404167175	movie	1		242	27.0	2.5	/experiments/knapen_AOT/AOT_stimuli/rescaled_final/0583_rv.mp4	0.0	208.01502418518066	2.500447988510132
29	151.34785890579224	pulse	1	t		27.0	2.5	/experiments/knapen_AOT/AOT_stimuli/rescaled_final/0583_rv.mp4	0.0	208.40712904930115	
29	152.94804000854492	pulse	1	t		27.0	2.5	/experiments/knapen_AOT/AOT_stimuli/rescaled_final/0583_rv.mp4	0.0	210.00731015205383	
29	153.45620203018188	fix_post	2		12	27.0	2.5	/experiments/knapen_AOT/AOT_stimuli/rescaled_final/0583_rv.mp4	0.0	210.5154721736908	0.10000395774841309
30	153.5562059879303	fix_pre	0		120	28.0	2.5	/experiments/knapen_AOT/AOT_stimuli/rescaled_final/0886_rv.mp4	0.0	210.6154761314392	1.0001499652862549
30	154.5481460094452	pulse	0	t		28.0	2.5	/experiments/knapen_AOT/AOT_stimuli/rescaled_final/0886_rv.mp4	0.0	211.6074161529541	
30	154.55635595321655	movie	1		244	28.0	2.5	/experiments/knapen_AOT/AOT_stimuli/rescaled_final/0886_rv.mp4	0.0	211.61562609672546	2.5086429119110107
30	156.14914393424988	pulse	1	t		28.0	2.5	/experiments/knapen_AOT/AOT_stimuli/rescaled_final/0886_rv.mp4	0.0	213.2084140777588	
30	157.06499886512756	fix_post	2		12	28.0	2.5	/experiments/knapen_AOT/AOT_stimuli/rescaled_final/0886_rv.mp4	0.0	214.12426900863647	0.10003113746643066
31	157.165030002594	fix_pre	0		120	29.0	2.5	/experiments/knapen_AOT/AOT_stimuli/rescaled_final/1682_fw.mp4	0.0	214.2243001461029	1.000175952911377
31	157.7487120628357	pulse	0	t		29.0	2.5	/experiments/knapen_AOT/AOT_stimuli/rescaled_final/1682_fw.mp4	0.0	214.8079822063446	
31	158.16520595550537	movie	1		243	29.0	2.5	/experiments/knapen_AOT/AOT_stimuli/rescaled_final/1682_fw.mp4	0.0	215.22447609901428	2.5004138946533203
31	159.34894490242004	pulse	1	t		29.0	2.5	/experiments/knapen_AOT/AOT_stimuli/rescaled_final/1682_fw.mp4	0.0	216.40821504592896	
31	160.6656198501587	fix_post	2		12	29.0	2.5	/experiments/knapen_AOT/AOT_stimuli/rescaled_final/1682_fw.mp4	0.0	217.7248899936676	0.09999704360961914
32	160.7656168937683	fix_pre	0		120	30.0	2.5	/experiments/knapen_AOT/AOT_stimuli/rescaled_final/0481_rv.mp4	0.0	217.82488703727722	1.0001461505889893
32	160.94910502433777	pulse	0	t		30.0	2.5	/experiments/knapen_AOT/AOT_stimuli/rescaled_final/0481_rv.mp4	0.0	218.00837516784668	
32	161.7657630443573	movie	1		243	30.0	2.5	/experiments/knapen_AOT/AOT_stimuli/rescaled_final/0481_rv.mp4	0.0	218.8250331878662	2.5003278255462646
32	162.5419340133667	pulse	1	t		30.0	2.5	/experiments/knapen_AOT/AOT_stimuli/rescaled_final/0481_rv.mp4	0.0	219.6012041568756	
32	164.14947605133057	pulse	1	t		30.0	2.5	/experiments/knapen_AOT/AOT_stimuli/rescaled_final/0481_rv.mp4	0.0	221.20874619483948	
32	164.26609086990356	fix_post	2		12	30.0	2.5	/experiments/knapen_AOT/AOT_stimuli/rescaled_final/0481_rv.mp4	0.0	221.32536101341248	0.10005402565002441
33	164.3661448955536	fix_pre	0		119	31.0	2.5	/experiments/knapen_AOT/AOT_stimuli/rescaled_final/0556_rv.mp4	0.0	221.4254150390625	0.9917550086975098
33	165.3578999042511	movie	1		243	31.0	2.5	/experiments/knapen_AOT/AOT_stimuli/rescaled_final/0556_rv.mp4	0.0	222.41717004776	2.500429153442383
33	165.74205899238586	pulse	1	t		31.0	2.5	/experiments/knapen_AOT/AOT_stimuli/rescaled_final/0556_rv.mp4	0.0	222.80132913589478	
33	167.34275484085083	pulse	1	t		31.0	2.5	/experiments/knapen_AOT/AOT_stimuli/rescaled_final/0556_rv.mp4	0.0	224.40202498435974	
33	167.85832905769348	fix_post	2		12	31.0	2.5	/experiments/knapen_AOT/AOT_stimuli/rescaled_final/0556_rv.mp4	0.0	224.9175992012024	0.10002779960632324
34	167.9583568572998	fix_pre	0		119	32.0	2.5	/experiments/knapen_AOT/AOT_stimuli/rescaled_final/0409_rv.mp4	0.0	225.01762700080872	0.9917480945587158
34	168.94204592704773	pulse	0	t		32.0	2.5	/experiments/knapen_AOT/AOT_stimuli/rescaled_final/0409_rv.mp4	0.0	226.00131607055664	
34	168.95010495185852	movie	1		244	32.0	2.5	/experiments/knapen_AOT/AOT_stimuli/rescaled_final/0409_rv.mp4	0.0	226.00937509536743	2.508718967437744
34	170.5428328514099	pulse	1	t		32.0	2.5	/experiments/knapen_AOT/AOT_stimuli/rescaled_final/0409_rv.mp4	0.0	227.60210299491882	
34	171.45882391929626	fix_post	2		12	32.0	2.5	/experiments/knapen_AOT/AOT_stimuli/rescaled_final/0409_rv.mp4	0.0	228.51809406280518	0.10001206398010254
35	171.55883598327637	fix_pre	0		120	33.0	2.5	/experiments/knapen_AOT/AOT_stimuli/rescaled_final/0573_fw.mp4	0.0	228.61810612678528	1.0001699924468994
35	172.14245986938477	pulse	0	t		33.0	2.5	/experiments/knapen_AOT/AOT_stimuli/rescaled_final/0573_fw.mp4	0.0	229.20173001289368	
35	172.55900597572327	movie	1		244	33.0	2.5	/experiments/knapen_AOT/AOT_stimuli/rescaled_final/0573_fw.mp4	0.0	229.61827611923218	2.5003678798675537
35	173.74280500411987	pulse	1	t		33.0	2.5	/experiments/knapen_AOT/AOT_stimuli/rescaled_final/0573_fw.mp4	0.0	230.80207514762878	
35	175.05937385559082	fix_post	2		12	33.0	2.5	/experiments/knapen_AOT/AOT_stimuli/rescaled_final/0573_fw.mp4	0.0	232.11864399909973	0.10001111030578613
36	175.1593849658966	fix_pre	0		120	34.0	2.5	/experiments/knapen_AOT/AOT_stimuli/rescaled_final/1643_fw.mp4	0.0	232.21865510940552	1.0001959800720215
36	175.34299302101135	pulse	0	t		34.0	2.5	/experiments/knapen_AOT/AOT_stimuli/rescaled_final/1643_fw.mp4	0.0	232.40226316452026	
36	176.15958094596863	movie	1		242	34.0	2.5	/experiments/knapen_AOT/AOT_stimuli/rescaled_final/1643_fw.mp4	0.0	233.21885108947754	2.5003581047058105
36	176.94313406944275	pulse	1	t		34.0	2.5	/experiments/knapen_AOT/AOT_stimuli/rescaled_final/1643_fw.mp4	0.0	234.00240421295166	
36	178.54413890838623	pulse	1	t		34.0	2.5	/experiments/knapen_AOT/AOT_stimuli/rescaled_final/1643_fw.mp4	0.0	235.60340905189514	
36	178.65993905067444	fix_post	2		12	34.0	2.5	/experiments/knapen_AOT/AOT_stimuli/rescaled_final/1643_fw.mp4	0.0	235.71920919418335	0.09996891021728516
37	178.75990796089172	fix_pre	0		120	35.0	2.5	blank	1.0	235.81917810440063	1.0001499652862549
37	179.76005792617798	movie	1		299	35.0	2.5	blank	1.0	236.8193280696869	2.4921131134033203
37	180.14359593391418	pulse	1	t		35.0	2.5	blank	1.0	237.2028660774231	
37	181.7440309524536	pulse	1	t		35.0	2.5	blank	1.0	238.80330109596252	
37	182.2521710395813	fix_post	2		12	35.0	2.5	blank	1.0	239.3114411830902	0.10000395774841309
38	182.3521749973297	fix_pre	0		120	36.0	2.5	/experiments/knapen_AOT/AOT_stimuli/rescaled_final/0018_fw.mp4	0.0	239.41144514083862	1.0000929832458496
38	183.34406685829163	pulse	0	t		36.0	2.5	/experiments/knapen_AOT/AOT_stimuli/rescaled_final/0018_fw.mp4	0.0	240.40333700180054	
38	183.35226798057556	movie	1		244	36.0	2.5	/experiments/knapen_AOT/AOT_stimuli/rescaled_final/0018_fw.mp4	0.0	240.41153812408447	2.5087149143218994
38	184.94937300682068	pulse	1	t		36.0	2.5	/experiments/knapen_AOT/AOT_stimuli/rescaled_final/0018_fw.mp4	0.0	242.0086431503296	
38	185.86098289489746	fix_post	2		12	36.0	2.5	/experiments/knapen_AOT/AOT_stimuli/rescaled_final/0018_fw.mp4	0.0	242.92025303840637	0.100006103515625
39	185.9609889984131	fix_pre	0		120	37.0	2.5	/experiments/knapen_AOT/AOT_stimuli/rescaled_final/1490_rv.mp4	0.0	243.020259141922	1.0001640319824219
39	186.5445590019226	pulse	0	t		37.0	2.5	/experiments/knapen_AOT/AOT_stimuli/rescaled_final/1490_rv.mp4	0.0	243.60382914543152	
39	186.9611530303955	movie	1		239	37.0	2.5	/experiments/knapen_AOT/AOT_stimuli/rescaled_final/1490_rv.mp4	0.0	244.02042317390442	2.5004019737243652
39	188.1450319290161	pulse	1	t		37.0	2.5	/experiments/knapen_AOT/AOT_stimuli/rescaled_final/1490_rv.mp4	0.0	245.20430207252502	
39	189.46155500411987	fix_post	2		12	37.0	2.5	/experiments/knapen_AOT/AOT_stimuli/rescaled_final/1490_rv.mp4	0.0	246.52082514762878	0.09998893737792969
40	189.5615439414978	fix_pre	0		120	38.0	2.5	/experiments/knapen_AOT/AOT_stimuli/rescaled_final/0425_fw.mp4	0.0	246.6208140850067	1.0001909732818604
40	189.74502301216125	pulse	0	t		38.0	2.5	/experiments/knapen_AOT/AOT_stimuli/rescaled_final/0425_fw.mp4	0.0	246.80429315567017	
40	190.56173491477966	movie	1		243	38.0	2.5	/experiments/knapen_AOT/AOT_stimuli/rescaled_final/0425_fw.mp4	0.0	247.62100505828857	2.5003631114959717
40	191.34543299674988	pulse	1	t		38.0	2.5	/experiments/knapen_AOT/AOT_stimuli/rescaled_final/0425_fw.mp4	0.0	248.4047031402588	
40	192.9456820487976	pulse	1	t		38.0	2.5	/experiments/knapen_AOT/AOT_stimuli/rescaled_final/0425_fw.mp4	0.0	250.00495219230652	
40	193.06209802627563	fix_post	2		12	38.0	2.5	/experiments/knapen_AOT/AOT_stimuli/rescaled_final/0425_fw.mp4	0.0	250.12136816978455	0.09998297691345215
41	193.1620810031891	fix_pre	0		120	39.0	2.5	/experiments/knapen_AOT/AOT_stimuli/rescaled_final/1375_fw.mp4	0.0	250.221351146698	1.0001740455627441
41	194.16225504875183	movie	1		241	39.0	2.5	/experiments/knapen_AOT/AOT_stimuli/rescaled_final/1375_fw.mp4	0.0	251.22152519226074	2.4922080039978027
41	194.54654502868652	pulse	1	t		39.0	2.5	/experiments/knapen_AOT/AOT_stimuli/rescaled_final/1375_fw.mp4	0.0	251.60581517219543	
41	196.1460919380188	pulse	1	t		39.0	2.5	/experiments/knapen_AOT/AOT_stimuli/rescaled_final/1375_fw.mp4	0.0	253.2053620815277	
41	196.65446305274963	fix_post	2		12	39.0	2.5	/experiments/knapen_AOT/AOT_stimuli/rescaled_final/1375_fw.mp4	0.0	253.71373319625854	0.09984993934631348
42	196.75431299209595	fix_pre	0		120	40.0	2.5	blank	1.0	253.81358313560486	1.0001630783081055
42	197.74636387825012	pulse	0	t		40.0	2.5	blank	1.0	254.80563402175903	
42	197.75447607040405	movie	1		301	40.0	2.5	blank	1.0	254.81374621391296	2.508769989013672
42	199.3465859889984	pulse	1	t		40.0	2.5	blank	1.0	256.4058561325073	
42	200.26324605941772	fix_post	2		12	40.0	2.5	blank	1.0	257.32251620292664	0.09997200965881348
43	200.36321806907654	fix_pre	0		120	41.0	2.5	/experiments/knapen_AOT/AOT_stimuli/rescaled_final/1540_rv.mp4	0.0	257.42248821258545	1.0001049041748047
43	200.94671392440796	pulse	0	t		41.0	2.5	/experiments/knapen_AOT/AOT_stimuli/rescaled_final/1540_rv.mp4	0.0	258.00598406791687	
43	201.36332297325134	movie	1		243	41.0	2.5	/experiments/knapen_AOT/AOT_stimuli/rescaled_final/1540_rv.mp4	0.0	258.42259311676025	2.5004289150238037
43	202.54707288742065	pulse	1	t		41.0	2.5	/experiments/knapen_AOT/AOT_stimuli/rescaled_final/1540_rv.mp4	0.0	259.60634303092957	
43	203.86375188827515	fix_post	2		12	41.0	2.5	/experiments/knapen_AOT/AOT_stimuli/rescaled_final/1540_rv.mp4	0.0	260.92302203178406	0.09997916221618652
44	203.96373105049133	fix_pre	0		120	42.0	2.5	/experiments/knapen_AOT/AOT_stimuli/rescaled_final/1358_rv.mp4	0.0	261.02300119400024	1.0000858306884766
44	204.1472499370575	pulse	0	t		42.0	2.5	/experiments/knapen_AOT/AOT_stimuli/rescaled_final/1358_rv.mp4	0.0	261.2065200805664	
44	204.9638168811798	movie	1		242	42.0	2.5	/experiments/knapen_AOT/AOT_stimuli/rescaled_final/1358_rv.mp4	0.0	262.0230870246887	2.5005321502685547
44	205.74763584136963	pulse	1	t		42.0	2.5	/experiments/knapen_AOT/AOT_stimuli/rescaled_final/1358_rv.mp4	0.0	262.80690598487854	
44	207.34780406951904	pulse	1	t		42.0	2.5	/experiments/knapen_AOT/AOT_stimuli/rescaled_final/1358_rv.mp4	0.0	264.40707421302795	
44	207.46434903144836	fix_post	2		12	42.0	2.5	/experiments/knapen_AOT/AOT_stimuli/rescaled_final/1358_rv.mp4	0.0	264.5236191749573	0.09984683990478516
45	207.56419587135315	fix_pre	0		120	43.0	2.5	/experiments/knapen_AOT/AOT_stimuli/rescaled_final/0058_rv.mp4	0.0	264.62346601486206	1.0001940727233887
45	208.56438994407654	movie	1		243	43.0	2.5	/experiments/knapen_AOT/AOT_stimuli/rescaled_final/0058_rv.mp4	0.0	265.62366008758545	2.4920849800109863
45	208.94850492477417	pulse	1	t		43.0	2.5	/experiments/knapen_AOT/AOT_stimuli/rescaled_final/0058_rv.mp4	0.0	266.0077750682831	
45	210.54824304580688	pulse	1	t		43.0	2.5	/experiments/knapen_AOT/AOT_stimuli/rescaled_final/0058_rv.mp4	0.0	267.6075131893158	
45	211.05647492408752	fix_post	2		12	43.0	2.5	/experiments/knapen_AOT/AOT_stimuli/rescaled_final/0058_rv.mp4	0.0	268.11574506759644	0.09996604919433594
46	211.15644097328186	fix_pre	0		120	44.0	2.5	/experiments/knapen_AOT/AOT_stimuli/rescaled_final/1260_rv.mp4	0.0	268.21571111679077	1.000140905380249
46	212.1484079360962	pulse	0	t		44.0	2.5	/experiments/knapen_AOT/AOT_stimuli/rescaled_final/1260_rv.mp4	0.0	269.2076780796051	
46	212.1565818786621	movie	1		246	44.0	2.5	/experiments/knapen_AOT/AOT_stimuli/rescaled_final/1260_rv.mp4	0.0	269.215852022171	2.508758068084717
46	213.74922394752502	pulse	1	t		44.0	2.5	/experiments/knapen_AOT/AOT_stimuli/rescaled_final/1260_rv.mp4	0.0	270.80849409103394	
46	214.66533994674683	fix_post	2		12	44.0	2.5	/experiments/knapen_AOT/AOT_stimuli/rescaled_final/1260_rv.mp4	0.0	271.72461009025574	0.09998703002929688
47	214.76532697677612	fix_pre	0		120	45.0	2.5	/experiments/knapen_AOT/AOT_stimuli/rescaled_final/0318_rv.mp4	0.0	271.82459712028503	1.0001299381256104
47	215.34890389442444	pulse	0	t		45.0	2.5	/experiments/knapen_AOT/AOT_stimuli/rescaled_final/0318_rv.mp4	0.0	272.40817403793335	
47	215.76545691490173	movie	1		243	45.0	2.5	/experiments/knapen_AOT/AOT_stimuli/rescaled_final/0318_rv.mp4	0.0	272.82472705841064	2.5003981590270996
47	216.94922804832458	pulse	1	t		45.0	2.5	/experiments/knapen_AOT/AOT_stimuli/rescaled_final/0318_rv.mp4	0.0	274.0084981918335	
47	218.26585507392883	fix_post	2		12	45.0	2.5	/experiments/knapen_AOT/AOT_stimuli/rescaled_final/0318_rv.mp4	0.0	275.32512521743774	0.09996390342712402
48	218.36581897735596	fix_pre	0		120	46.0	2.5	/experiments/knapen_AOT/AOT_stimuli/rescaled_final/0556_rv.mp4	0.0	275.42508912086487	1.0001730918884277
48	218.5494999885559	pulse	0	t		46.0	2.5	/experiments/knapen_AOT/AOT_stimuli/rescaled_final/0556_rv.mp4	0.0	275.6087701320648	
48	219.36599206924438	movie	1		243	46.0	2.5	/experiments/knapen_AOT/AOT_stimuli/rescaled_final/0556_rv.mp4	0.0	276.4252622127533	2.500391960144043
48	220.14971685409546	pulse	1	t		46.0	2.5	/experiments/knapen_AOT/AOT_stimuli/rescaled_final/0556_rv.mp4	0.0	277.20898699760437	
48	221.74983501434326	pulse	1	t		46.0	2.5	/experiments/knapen_AOT/AOT_stimuli/rescaled_final/0556_rv.mp4	0.0	278.8091051578522	
48	221.86638402938843	fix_post	2		12	46.0	2.5	/experiments/knapen_AOT/AOT_stimuli/rescaled_final/0556_rv.mp4	0.0	278.92565417289734	0.10004901885986328
49	221.9664330482483	fix_pre	0		120	47.0	2.5	/experiments/knapen_AOT/AOT_stimuli/rescaled_final/0831_rv.mp4	0.0	279.0257031917572	1.0000698566436768
49	222.96650290489197	movie	1		241	47.0	2.5	/experiments/knapen_AOT/AOT_stimuli/rescaled_final/0831_rv.mp4	0.0	280.0257730484009	2.492238998413086
49	223.34173393249512	pulse	1	t		47.0	2.5	/experiments/knapen_AOT/AOT_stimuli/rescaled_final/0831_rv.mp4	0.0	280.401004076004	
49	224.9419949054718	pulse	1	t		47.0	2.5	/experiments/knapen_AOT/AOT_stimuli/rescaled_final/0831_rv.mp4	0.0	282.0012650489807	
49	225.45874190330505	fix_post	2		12	47.0	2.5	/experiments/knapen_AOT/AOT_stimuli/rescaled_final/0831_rv.mp4	0.0	282.51801204681396	0.0998389720916748
50	225.55858087539673	fix_pre	0		119	48.0	2.5	/experiments/knapen_AOT/AOT_stimuli/rescaled_final/1854_fw.mp4	0.0	282.61785101890564	0.9917871952056885
50	226.54224491119385	pulse	0	t		48.0	2.5	/experiments/knapen_AOT/AOT_stimuli/rescaled_final/1854_fw.mp4	0.0	283.60151505470276	
50	226.55036807060242	movie	1		243	48.0	2.5	/experiments/knapen_AOT/AOT_stimuli/rescaled_final/1854_fw.mp4	0.0	283.6096382141113	2.5087809562683105
50	228.14312100410461	pulse	1	t		48.0	2.5	/experiments/knapen_AOT/AOT_stimuli/rescaled_final/1854_fw.mp4	0.0	285.2023911476135	
50	229.05914902687073	fix_post	2		12	48.0	2.5	/experiments/knapen_AOT/AOT_stimuli/rescaled_final/1854_fw.mp4	0.0	286.11841917037964	0.10002899169921875
51	229.15917801856995	fix_pre	0		120	49.0	2.5	blank	1.0	286.21844816207886	1.000169038772583
51	229.7427589893341	pulse	0	t		49.0	2.5	blank	1.0	286.802029132843	
51	230.15934705734253	movie	1		300	49.0	2.5	blank	1.0	287.21861720085144	2.5003278255462646
51	231.34299206733704	pulse	1	t		49.0	2.5	blank	1.0	288.40226221084595	
51	232.6596748828888	fix_post	2		12	49.0	2.5	blank	1.0	289.7189450263977	0.10002017021179199
52	232.7596950531006	fix_pre	0		120	50.0	2.5	/experiments/knapen_AOT/AOT_stimuli/rescaled_final/0022_rv.mp4	0.0	289.8189651966095	1.000114917755127
52	232.94316005706787	pulse	0	t		50.0	2.5	/experiments/knapen_AOT/AOT_stimuli/rescaled_final/0022_rv.mp4	0.0	290.0024302005768	
52	233.7598099708557	movie	1		244	50.0	2.5	/experiments/knapen_AOT/AOT_stimuli/rescaled_final/0022_rv.mp4	0.0	290.8190801143646	2.5003349781036377
52	234.54354000091553	pulse	1	t		50.0	2.5	/experiments/knapen_AOT/AOT_stimuli/rescaled_final/0022_rv.mp4	0.0	291.60281014442444	
52	236.1435968875885	pulse	1	t		50.0	2.5	/experiments/knapen_AOT/AOT_stimuli/rescaled_final/0022_rv.mp4	0.0	293.2028670310974	
52	236.26014494895935	fix_post	2		12	50.0	2.5	/experiments/knapen_AOT/AOT_stimuli/rescaled_final/0022_rv.mp4	0.0	293.31941509246826	0.10004806518554688
53	236.3601930141449	fix_pre	0		120	51.0	2.5	/experiments/knapen_AOT/AOT_stimuli/rescaled_final/1160_fw.mp4	0.0	293.4194631576538	1.0001888275146484
53	237.36038184165955	movie	1		242	51.0	2.5	/experiments/knapen_AOT/AOT_stimuli/rescaled_final/1160_fw.mp4	0.0	294.41965198516846	2.4921510219573975
53	237.74461483955383	pulse	1	t		51.0	2.5	/experiments/knapen_AOT/AOT_stimuli/rescaled_final/1160_fw.mp4	0.0	294.80388498306274	
53	239.34413504600525	pulse	1	t		51.0	2.5	/experiments/knapen_AOT/AOT_stimuli/rescaled_final/1160_fw.mp4	0.0	296.40340518951416	
53	239.85253286361694	fix_post	2		12	51.0	2.5	/experiments/knapen_AOT/AOT_stimuli/rescaled_final/1160_fw.mp4	0.0	296.91180300712585	0.09985804557800293
54	239.95239090919495	fix_pre	0		120	52.0	2.5	/experiments/knapen_AOT/AOT_stimuli/rescaled_final/1857_fw.mp4	0.0	297.01166105270386	1.0001380443572998
54	240.9443860054016	pulse	0	t		52.0	2.5	/experiments/knapen_AOT/AOT_stimuli/rescaled_final/1857_fw.mp4	0.0	298.0036561489105	
54	240.95252895355225	movie	1		243	52.0	2.5	/experiments/knapen_AOT/AOT_stimuli/rescaled_final/1857_fw.mp4	0.0	298.01179909706116	2.5087499618530273
54	242.54525184631348	pulse	1	t		52.0	2.5	/experiments/knapen_AOT/AOT_stimuli/rescaled_final/1857_fw.mp4	0.0	299.6045219898224	
54	243.46127891540527	fix_post	2		12	52.0	2.5	/experiments/knapen_AOT/AOT_stimuli/rescaled_final/1857_fw.mp4	0.0	300.5205490589142	0.10007905960083008
55	243.5613579750061	fix_pre	0		120	53.0	2.5	/experiments/knapen_AOT/AOT_stimuli/rescaled_final/1816_fw.mp4	0.0	300.620628118515	1.0000579357147217
55	244.14495396614075	pulse	0	t		53.0	2.5	/experiments/knapen_AOT/AOT_stimuli/rescaled_final/1816_fw.mp4	0.0	301.20422410964966	
55	244.56141591072083	movie	1		243	53.0	2.5	/experiments/knapen_AOT/AOT_stimuli/rescaled_final/1816_fw.mp4	0.0	301.62068605422974	2.5004971027374268
55	245.7451469898224	pulse	1	t		53.0	2.5	/experiments/knapen_AOT/AOT_stimuli/rescaled_final/1816_fw.mp4	0.0	302.8044171333313	
55	247.06191301345825	fix_post	2		12	53.0	2.5	/experiments/knapen_AOT/AOT_stimuli/rescaled_final/1816_fw.mp4	0.0	304.12118315696716	0.09990882873535156
56	247.1618218421936	fix_pre	0		120	54.0	2.5	/experiments/knapen_AOT/AOT_stimuli/rescaled_final/0252_rv.mp4	0.0	304.2210919857025	1.0001230239868164
56	247.34533500671387	pulse	0	t		54.0	2.5	/experiments/knapen_AOT/AOT_stimuli/rescaled_final/0252_rv.mp4	0.0	304.4046051502228	
56	248.16194486618042	movie	1		243	54.0	2.5	/experiments/knapen_AOT/AOT_stimuli/rescaled_final/0252_rv.mp4	0.0	305.22121500968933	2.500488042831421
56	248.94572591781616	pulse	1	t		54.0	2.5	/experiments/knapen_AOT/AOT_stimuli/rescaled_final/0252_rv.mp4	0.0	306.0049960613251	
56	250.54630589485168	pulse	1	t		54.0	2.5	/experiments/knapen_AOT/AOT_stimuli/rescaled_final/0252_rv.mp4	0.0	307.6055760383606	
56	250.66243290901184	fix_post	2		11	54.0	2.5	/experiments/knapen_AOT/AOT_stimuli/rescaled_final/0252_rv.mp4	0.0	307.72170305252075	0.09995508193969727
57	250.76238799095154	fix_pre	0		120	55.0	2.5	blank	1.0	307.82165813446045	1.0000948905944824
57	251.76248288154602	movie	1		299	55.0	2.5	blank	1.0	308.82175302505493	2.492098093032837
57	252.14602184295654	pulse	1	t		55.0	2.5	blank	1.0	309.20529198646545	
57	253.7462248802185	pulse	1	t		55.0	2.5	blank	1.0	310.8054950237274	
57	254.25458097457886	fix_post	2		12	55.0	2.5	blank	1.0	311.31385111808777	0.09999394416809082
58	254.35457491874695	fix_pre	0		120	56.0	2.5	/experiments/knapen_AOT/AOT_stimuli/rescaled_final/1013_fw.mp4	0.0	311.41384506225586	1.0001420974731445
58	255.34654593467712	pulse	0	t		56.0	2.5	/experiments/knapen_AOT/AOT_stimuli/rescaled_final/1013_fw.mp4	0.0	312.40581607818604	
58	255.3547170162201	movie	1		244	56.0	2.5	/experiments/knapen_AOT/AOT_stimuli/rescaled_final/1013_fw.mp4	0.0	312.413987159729	2.508708953857422
58	256.94816303253174	pulse	1	t		56.0	2.5	/experiments/knapen_AOT/AOT_stimuli/rescaled_final/1013_fw.mp4	0.0	314.00743317604065	
58	257.8634259700775	fix_post	2		12	56.0	2.5	/experiments/knapen_AOT/AOT_stimuli/rescaled_final/1013_fw.mp4	0.0	314.9226961135864	0.10006403923034668
59	257.96349000930786	fix_pre	0		120	57.0	2.5	/experiments/knapen_AOT/AOT_stimuli/rescaled_final/1608_fw.mp4	0.0	315.0227601528168	1.0000858306884766
59	258.5470850467682	pulse	0	t		57.0	2.5	/experiments/knapen_AOT/AOT_stimuli/rescaled_final/1608_fw.mp4	0.0	315.6063551902771	
59	258.96357583999634	movie	1		243	57.0	2.5	/experiments/knapen_AOT/AOT_stimuli/rescaled_final/1608_fw.mp4	0.0	316.02284598350525	2.500368118286133
59	260.14733695983887	pulse	1	t		57.0	2.5	/experiments/knapen_AOT/AOT_stimuli/rescaled_final/1608_fw.mp4	0.0	317.2066071033478	
59	261.46394395828247	fix_post	2		12	57.0	2.5	/experiments/knapen_AOT/AOT_stimuli/rescaled_final/1608_fw.mp4	0.0	318.5232141017914	0.09998703002929688
60	261.56393098831177	fix_pre	0		120	58.0	2.5	/experiments/knapen_AOT/AOT_stimuli/rescaled_final/1724_rv.mp4	0.0	318.6232011318207	1.0001609325408936
60	261.74749994277954	pulse	0	t		58.0	2.5	/experiments/knapen_AOT/AOT_stimuli/rescaled_final/1724_rv.mp4	0.0	318.80677008628845	
60	262.56409192085266	movie	1		243	58.0	2.5	/experiments/knapen_AOT/AOT_stimuli/rescaled_final/1724_rv.mp4	0.0	319.6233620643616	2.5004570484161377
60	263.34784388542175	pulse	1	t		58.0	2.5	/experiments/knapen_AOT/AOT_stimuli/rescaled_final/1724_rv.mp4	0.0	320.40711402893066	
60	264.9481739997864	pulse	1	t		58.0	2.5	/experiments/knapen_AOT/AOT_stimuli/rescaled_final/1724_rv.mp4	0.0	322.0074441432953	
60	265.0645489692688	fix_post	2		12	58.0	2.5	/experiments/knapen_AOT/AOT_stimuli/rescaled_final/1724_rv.mp4	0.0	322.1238191127777	0.0999460220336914
61	265.1644949913025	fix_pre	0		120	59.0	2.5	/experiments/knapen_AOT/AOT_stimuli/rescaled_final/0999_fw.mp4	0.0	322.2237651348114	1.0001800060272217
61	266.1646749973297	movie	1		242	59.0	2.5	/experiments/knapen_AOT/AOT_stimuli/rescaled_final/0999_fw.mp4	0.0	323.2239451408386	2.4920568466186523
61	266.5492699146271	pulse	1	t		59.0	2.5	/experiments/knapen_AOT/AOT_stimuli/rescaled_final/0999_fw.mp4	0.0	323.608540058136	
61	268.14845085144043	pulse	1	t		59.0	2.5	/experiments/knapen_AOT/AOT_stimuli/rescaled_final/0999_fw.mp4	0.0	325.20772099494934	
61	268.65673184394836	fix_post	2		12	59.0	2.5	/experiments/knapen_AOT/AOT_stimuli/rescaled_final/0999_fw.mp4	0.0	325.7160019874573	0.10004115104675293
62	268.7567729949951	fix_pre	0		120	60.0	2.5	/experiments/knapen_AOT/AOT_stimuli/rescaled_final/1064_rv.mp4	0.0	325.816043138504	1.000058889389038
62	269.74871492385864	pulse	0	t		60.0	2.5	/experiments/knapen_AOT/AOT_stimuli/rescaled_final/1064_rv.mp4	0.0	326.80798506736755	
62	269.75683188438416	movie	1		244	60.0	2.5	/experiments/knapen_AOT/AOT_stimuli/rescaled_final/1064_rv.mp4	0.0	326.81610202789307	2.5087220668792725
62	271.3495399951935	pulse	1	t		60.0	2.5	/experiments/knapen_AOT/AOT_stimuli/rescaled_final/1064_rv.mp4	0.0	328.4088101387024	
62	272.2655539512634	fix_post	2		12	60.0	2.5	/experiments/knapen_AOT/AOT_stimuli/rescaled_final/1064_rv.mp4	0.0	329.32482409477234	0.10010409355163574
63	272.36565804481506	fix_pre	0		120	61.0	2.5	/experiments/knapen_AOT/AOT_stimuli/rescaled_final/0848_rv.mp4	0.0	329.424928188324	1.0000629425048828
63	272.9492919445038	pulse	0	t		61.0	2.5	/experiments/knapen_AOT/AOT_stimuli/rescaled_final/0848_rv.mp4	0.0	330.0085620880127	
63	273.36572098731995	movie	1		244	61.0	2.5	/experiments/knapen_AOT/AOT_stimuli/rescaled_final/0848_rv.mp4	0.0	330.42499113082886	2.500422954559326
63	274.5495879650116	pulse	1	t		61.0	2.5	/experiments/knapen_AOT/AOT_stimuli/rescaled_final/0848_rv.mp4	0.0	331.6088581085205	
63	275.8661439418793	fix_post	2		12	61.0	2.5	/experiments/knapen_AOT/AOT_stimuli/rescaled_final/0848_rv.mp4	0.0	332.9254140853882	0.09998106956481934
64	275.9661250114441	fix_pre	0		120	62.0	2.5	blank	1.0	333.025395154953	1.0001308917999268
64	276.1422848701477	pulse	0	t		62.0	2.5	blank	1.0	333.2015550136566	
64	276.966255903244	movie	1		300	62.0	2.5	blank	1.0	334.02552604675293	2.5003700256347656
64	277.7423138618469	pulse	1	t		62.0	2.5	blank	1.0	334.80158400535583	
64	279.3425078392029	pulse	1	t		62.0	2.5	blank	1.0	336.4017779827118	
64	279.4666259288788	fix_post	2		12	62.0	2.5	blank	1.0	336.5258960723877	0.10008406639099121
65	279.5667099952698	fix_pre	0		120	63.0	2.5	/experiments/knapen_AOT/AOT_stimuli/rescaled_final/1113_rv.mp4	0.0	336.6259801387787	1.0000879764556885
65	280.56679797172546	movie	1		241	63.0	2.5	/experiments/knapen_AOT/AOT_stimuli/rescaled_final/1113_rv.mp4	0.0	337.6260681152344	2.492090940475464
65	280.95175790786743	pulse	1	t		63.0	2.5	/experiments/knapen_AOT/AOT_stimuli/rescaled_final/1113_rv.mp4	0.0	338.01102805137634	
65	282.5424768924713	pulse	1	t		63.0	2.5	/experiments/knapen_AOT/AOT_stimuli/rescaled_final/1113_rv.mp4	0.0	339.6017470359802	
65	283.0588889122009	fix_post	2		12	63.0	2.5	/experiments/knapen_AOT/AOT_stimuli/rescaled_final/1113_rv.mp4	0.0	340.11815905570984	0.09999394416809082
66	283.158882856369	fix_pre	0		119	64.0	2.5	/experiments/knapen_AOT/AOT_stimuli/rescaled_final/1331_rv.mp4	0.0	340.21815299987793	0.9918680191040039
66	284.142441034317	pulse	0	t		64.0	2.5	/experiments/knapen_AOT/AOT_stimuli/rescaled_final/1331_rv.mp4	0.0	341.2017111778259	
66	284.150750875473	movie	1		245	64.0	2.5	/experiments/knapen_AOT/AOT_stimuli/rescaled_final/1331_rv.mp4	0.0	341.21002101898193	2.508622169494629
66	285.74318504333496	pulse	1	t		64.0	2.5	/experiments/knapen_AOT/AOT_stimuli/rescaled_final/1331_rv.mp4	0.0	342.8024551868439	
66	286.65937304496765	fix_post	2		12	64.0	2.5	/experiments/knapen_AOT/AOT_stimuli/rescaled_final/1331_rv.mp4	0.0	343.71864318847656	0.10003995895385742
67	286.7594130039215	fix_pre	0		120	65.0	2.5	/experiments/knapen_AOT/AOT_stimuli/rescaled_final/0154_rv.mp4	0.0	343.8186831474304	1.0001220703125
67	287.3430280685425	pulse	0	t		65.0	2.5	/experiments/knapen_AOT/AOT_stimuli/rescaled_final/0154_rv.mp4	0.0	344.4022982120514	
67	287.759535074234	movie	1		244	65.0	2.5	/experiments/knapen_AOT/AOT_stimuli/rescaled_final/0154_rv.mp4	0.0	344.8188052177429	2.5003578662872314
67	288.9433238506317	pulse	1	t		65.0	2.5	/experiments/knapen_AOT/AOT_stimuli/rescaled_final/0154_rv.mp4	0.0	346.0025939941406	
67	290.25989294052124	fix_post	2		12	65.0	2.5	/experiments/knapen_AOT/AOT_stimuli/rescaled_final/0154_rv.mp4	0.0	347.31916308403015	0.09999203681945801
68	290.3598849773407	fix_pre	0		120	66.0	2.5	/experiments/knapen_AOT/AOT_stimuli/rescaled_final/0262_fw.mp4	0.0	347.4191551208496	1.0001778602600098
68	290.5435209274292	pulse	0	t		66.0	2.5	/experiments/knapen_AOT/AOT_stimuli/rescaled_final/0262_fw.mp4	0.0	347.6027910709381	
68	291.3600628376007	movie	1		245	66.0	2.5	/experiments/knapen_AOT/AOT_stimuli/rescaled_final/0262_fw.mp4	0.0	348.4193329811096	2.50046706199646
68	292.1437039375305	pulse	1	t		66.0	2.5	/experiments/knapen_AOT/AOT_stimuli/rescaled_final/0262_fw.mp4	0.0	349.20297408103943	
68	293.743891954422	pulse	1	t		66.0	2.5	/experiments/knapen_AOT/AOT_stimuli/rescaled_final/0262_fw.mp4	0.0	350.8031620979309	
68	293.86052989959717	fix_post	2		12	66.0	2.5	/experiments/knapen_AOT/AOT_stimuli/rescaled_final/0262_fw.mp4	0.0	350.9198000431061	0.09997701644897461
69	293.96050691604614	fix_pre	0		120	67.0	2.5	/experiments/knapen_AOT/AOT_stimuli/rescaled_final/1358_rv.mp4	0.0	351.01977705955505	1.0001320838928223
69	294.96063899993896	movie	1		241	67.0	2.5	/experiments/knapen_AOT/AOT_stimuli/rescaled_final/1358_rv.mp4	0.0	352.0199091434479	2.492050886154175
69	295.3446159362793	pulse	1	t		67.0	2.5	/experiments/knapen_AOT/AOT_stimuli/rescaled_final/1358_rv.mp4	0.0	352.4038860797882	
69	296.94460797309875	pulse	1	t		67.0	2.5	/experiments/knapen_AOT/AOT_stimuli/rescaled_final/1358_rv.mp4	0.0	354.00387811660767	
69	297.45268988609314	fix_post	2		12	67.0	2.5	/experiments/knapen_AOT/AOT_stimuli/rescaled_final/1358_rv.mp4	0.0	354.51196002960205	0.09998512268066406
70	297.5526750087738	fix_pre	0		120	68.0	2.5	/experiments/knapen_AOT/AOT_stimuli/rescaled_final/0126_rv.mp4	0.0	354.6119451522827	1.0001158714294434
70	298.5447919368744	pulse	0	t		68.0	2.5	/experiments/knapen_AOT/AOT_stimuli/rescaled_final/0126_rv.mp4	0.0	355.6040620803833	
70	298.55279088020325	movie	1		243	68.0	2.5	/experiments/knapen_AOT/AOT_stimuli/rescaled_final/0126_rv.mp4	0.0	355.61206102371216	2.5086841583251953
70	300.1461720466614	pulse	1	t		68.0	2.5	/experiments/knapen_AOT/AOT_stimuli/rescaled_final/0126_rv.mp4	0.0	357.2054421901703	
70	301.06147503852844	fix_post	2		12	68.0	2.5	/experiments/knapen_AOT/AOT_stimuli/rescaled_final/0126_rv.mp4	0.0	358.12074518203735	0.10007882118225098
71	301.1615538597107	fix_pre	0		120	69.0	2.5	/experiments/knapen_AOT/AOT_stimuli/rescaled_final/1209_rv.mp4	0.0	358.2208240032196	1.0001640319824219
71	301.7451059818268	pulse	0	t		69.0	2.5	/experiments/knapen_AOT/AOT_stimuli/rescaled_final/1209_rv.mp4	0.0	358.8043761253357	
71	302.1617178916931	movie	1		243	69.0	2.5	/experiments/knapen_AOT/AOT_stimuli/rescaled_final/1209_rv.mp4	0.0	359.220988035202	2.50040602684021
71	303.34546995162964	pulse	1	t		69.0	2.5	/experiments/knapen_AOT/AOT_stimuli/rescaled_final/1209_rv.mp4	0.0	360.40474009513855	
71	304.6621239185333	fix_post	2		12	69.0	2.5	/experiments/knapen_AOT/AOT_stimuli/rescaled_final/1209_rv.mp4	0.0	361.72139406204224	0.09992003440856934
72	304.7620439529419	fix_pre	0		120	70.0	2.5	blank	1.0	361.8213140964508	1.0001630783081055
72	304.9457609653473	pulse	0	t		70.0	2.5	blank	1.0	362.0050311088562	
72	305.76220703125	movie	1		300	70.0	2.5	blank	1.0	362.8214771747589	2.500394821166992
72	306.5458838939667	pulse	1	t		70.0	2.5	blank	1.0	363.6051540374756	
72	308.1459889411926	pulse	1	t		70.0	2.5	blank	1.0	365.20525908470154	
72	308.262601852417	fix_post	2		12	70.0	2.5	blank	1.0	365.3218719959259	0.10006999969482422
73	308.3626718521118	fix_pre	0		120	71.0	2.5	/experiments/knapen_AOT/AOT_stimuli/rescaled_final/0686_rv.mp4	0.0	365.4219419956207	1.0000720024108887
73	309.3627438545227	movie	1		242	71.0	2.5	/experiments/knapen_AOT/AOT_stimuli/rescaled_final/0686_rv.mp4	0.0	366.4220139980316	2.4920310974121094
73	309.74667501449585	pulse	1	t		71.0	2.5	/experiments/knapen_AOT/AOT_stimuli/rescaled_final/0686_rv.mp4	0.0	366.80594515800476	
73	311.3467240333557	pulse	1	t		71.0	2.5	/experiments/knapen_AOT/AOT_stimuli/rescaled_final/0686_rv.mp4	0.0	368.4059941768646	
73	311.8547749519348	fix_post	2		12	71.0	2.5	/experiments/knapen_AOT/AOT_stimuli/rescaled_final/0686_rv.mp4	0.0	368.9140450954437	0.10001897811889648
74	311.9547939300537	fix_pre	0		119	72.0	2.5	/experiments/knapen_AOT/AOT_stimuli/rescaled_final/0873_fw.mp4	0.0	369.0140640735626	1.000133991241455
74	312.94693183898926	pulse	0	t		72.0	2.5	/experiments/knapen_AOT/AOT_stimuli/rescaled_final/0873_fw.mp4	0.0	370.00620198249817	
74	312.95492792129517	movie	1		243	72.0	2.5	/experiments/knapen_AOT/AOT_stimuli/rescaled_final/0873_fw.mp4	0.0	370.0141980648041	2.508744955062866
74	314.5483429431915	pulse	1	t		72.0	2.5	/experiments/knapen_AOT/AOT_stimuli/rescaled_final/0873_fw.mp4	0.0	371.60761308670044	
74	315.46367287635803	fix_post	2		12	72.0	2.5	/experiments/knapen_AOT/AOT_stimuli/rescaled_final/0873_fw.mp4	0.0	372.52294301986694	0.10001516342163086
75	315.56368803977966	fix_pre	0		120	73.0	2.5	/experiments/knapen_AOT/AOT_stimuli/rescaled_final/0252_rv.mp4	0.0	372.6229581832886	1.0001318454742432
75	316.14732003211975	pulse	0	t		73.0	2.5	/experiments/knapen_AOT/AOT_stimuli/rescaled_final/0252_rv.mp4	0.0	373.20659017562866	
75	316.5638198852539	movie	1		243	73.0	2.5	/experiments/knapen_AOT/AOT_stimuli/rescaled_final/0252_rv.mp4	0.0	373.6230900287628	2.500391960144043
75	317.74761605262756	pulse	1	t		73.0	2.5	/experiments/knapen_AOT/AOT_stimuli/rescaled_final/0252_rv.mp4	0.0	374.8068861961365	
75	319.06421184539795	fix_post	2		12	73.0	2.5	/experiments/knapen_AOT/AOT_stimuli/rescaled_final/0252_rv.mp4	0.0	376.12348198890686	0.10003209114074707
76	319.1642439365387	fix_pre	0		120	74.0	2.5	/experiments/knapen_AOT/AOT_stimuli/rescaled_final/0348_fw.mp4	0.0	376.2235140800476	1.0001540184020996
76	319.3478739261627	pulse	0	t		74.0	2.5	/experiments/knapen_AOT/AOT_stimuli/rescaled_final/0348_fw.mp4	0.0	376.40714406967163	
76	320.1643979549408	movie	1		242	74.0	2.5	/experiments/knapen_AOT/AOT_stimuli/rescaled_final/0348_fw.mp4	0.0	377.2236680984497	2.500480890274048
76	320.9479789733887	pulse	1	t		74.0	2.5	/experiments/knapen_AOT/AOT_stimuli/rescaled_final/0348_fw.mp4	0.0	378.0072491168976	
76	322.54849100112915	pulse	1	t		74.0	2.5	/experiments/knapen_AOT/AOT_stimuli/rescaled_final/0348_fw.mp4	0.0	379.60776114463806	
76	322.66487884521484	fix_post	2		12	74.0	2.5	/experiments/knapen_AOT/AOT_stimuli/rescaled_final/0348_fw.mp4	0.0	379.72414898872375	0.09989714622497559
77	322.7647759914398	fix_pre	0		120	75.0	2.5	blank	1.0	379.82404613494873	1.0001099109649658
77	323.7648859024048	movie	1		299	75.0	2.5	blank	1.0	380.8241560459137	2.4920430183410645
77	324.14858293533325	pulse	1	t		75.0	2.5	blank	1.0	381.20785307884216	
77	325.7488958835602	pulse	1	t		75.0	2.5	blank	1.0	382.8081660270691	
77	326.25692892074585	fix_post	2		12	75.0	2.5	blank	1.0	383.31619906425476	0.10000991821289062
78	326.35693883895874	fix_pre	0		120	76.0	2.5	/experiments/knapen_AOT/AOT_stimuli/rescaled_final/1296_fw.mp4	0.0	383.41620898246765	1.0001981258392334
78	327.34897899627686	pulse	0	t		76.0	2.5	/experiments/knapen_AOT/AOT_stimuli/rescaled_final/1296_fw.mp4	0.0	384.40824913978577	
78	327.357136964798	movie	1		244	76.0	2.5	/experiments/knapen_AOT/AOT_stimuli/rescaled_final/1296_fw.mp4	0.0	384.4164071083069	2.5086829662323
78	328.9497809410095	pulse	1	t		76.0	2.5	/experiments/knapen_AOT/AOT_stimuli/rescaled_final/1296_fw.mp4	0.0	386.00905108451843	
78	329.8658199310303	fix_post	2		12	76.0	2.5	/experiments/knapen_AOT/AOT_stimuli/rescaled_final/1296_fw.mp4	0.0	386.9250900745392	0.0999910831451416
79	329.9658110141754	fix_pre	0		120	77.0	2.5	/experiments/knapen_AOT/AOT_stimuli/rescaled_final/1898_rv.mp4	0.0	387.0250811576843	1.000175952911377
79	330.54188084602356	pulse	0	t		77.0	2.5	/experiments/knapen_AOT/AOT_stimuli/rescaled_final/1898_rv.mp4	0.0	387.60115098953247	
79	330.9659869670868	movie	1		243	77.0	2.5	/experiments/knapen_AOT/AOT_stimuli/rescaled_final/1898_rv.mp4	0.0	388.0252571105957	2.5004489421844482
79	332.1459720134735	pulse	1	t		77.0	2.5	/experiments/knapen_AOT/AOT_stimuli/rescaled_final/1898_rv.mp4	0.0	389.2052421569824	
79	333.46643590927124	fix_post	2		12	77.0	2.5	/experiments/knapen_AOT/AOT_stimuli/rescaled_final/1898_rv.mp4	0.0	390.52570605278015	0.09997105598449707
80	333.56640696525574	fix_pre	0		120	78.0	2.5	/experiments/knapen_AOT/AOT_stimuli/rescaled_final/1844_rv.mp4	0.0	390.62567710876465	1.0001270771026611
80	333.74246406555176	pulse	0	t		78.0	2.5	/experiments/knapen_AOT/AOT_stimuli/rescaled_final/1844_rv.mp4	0.0	390.80173420906067	
80	334.5665340423584	movie	1		245	78.0	2.5	/experiments/knapen_AOT/AOT_stimuli/rescaled_final/1844_rv.mp4	0.0	391.6258041858673	2.5003678798675537
80	335.3426809310913	pulse	1	t		78.0	2.5	/experiments/knapen_AOT/AOT_stimuli/rescaled_final/1844_rv.mp4	0.0	392.4019510746002	
80	336.9420840740204	pulse	1	t		78.0	2.5	/experiments/knapen_AOT/AOT_stimuli/rescaled_final/1844_rv.mp4	0.0	394.0013542175293	
80	337.06690192222595	fix_post	2		12	78.0	2.5	/experiments/knapen_AOT/AOT_stimuli/rescaled_final/1844_rv.mp4	0.0	394.12617206573486	0.10001611709594727
81	337.1669180393219	fix_pre	0		119	79.0	2.5	/experiments/knapen_AOT/AOT_stimuli/rescaled_final/1796_fw.mp4	0.0	394.2261881828308	0.991818904876709
81	338.1587369441986	movie	1		244	79.0	2.5	/experiments/knapen_AOT/AOT_stimuli/rescaled_final/1796_fw.mp4	0.0	395.2180070877075	2.5003550052642822
81	338.54294991493225	pulse	1	t		79.0	2.5	/experiments/knapen_AOT/AOT_stimuli/rescaled_final/1796_fw.mp4	0.0	395.60222005844116	
81	340.14251685142517	pulse	1	t		79.0	2.5	/experiments/knapen_AOT/AOT_stimuli/rescaled_final/1796_fw.mp4	0.0	397.2017869949341	
81	340.6590919494629	fix_post	2		12	79.0	2.5	/experiments/knapen_AOT/AOT_stimuli/rescaled_final/1796_fw.mp4	0.0	397.7183620929718	0.10004305839538574
82	340.7591350078583	fix_pre	0		119	80.0	2.5	/experiments/knapen_AOT/AOT_stimuli/rescaled_final/1719_rv.mp4	0.0	397.8184051513672	0.9917638301849365
82	341.74291586875916	pulse	0	t		80.0	2.5	/experiments/knapen_AOT/AOT_stimuli/rescaled_final/1719_rv.mp4	0.0	398.80218601226807	
82	341.7508988380432	movie	1		244	80.0	2.5	/experiments/knapen_AOT/AOT_stimuli/rescaled_final/1719_rv.mp4	0.0	398.8101689815521	2.5086710453033447
82	343.34352684020996	pulse	1	t		80.0	2.5	/experiments/knapen_AOT/AOT_stimuli/rescaled_final/1719_rv.mp4	0.0	400.4027969837189	
82	344.25956988334656	fix_post	2		12	80.0	2.5	/experiments/knapen_AOT/AOT_stimuli/rescaled_final/1719_rv.mp4	0.0	401.31884002685547	0.100128173828125
83	344.3596980571747	fix_pre	0		120	81.0	2.5	/experiments/knapen_AOT/AOT_stimuli/rescaled_final/0126_rv.mp4	0.0	401.4189682006836	1.0001249313354492
83	344.9432270526886	pulse	0	t		81.0	2.5	/experiments/knapen_AOT/AOT_stimuli/rescaled_final/0126_rv.mp4	0.0	402.0024971961975	
83	345.35982298851013	movie	1		242	81.0	2.5	/experiments/knapen_AOT/AOT_stimuli/rescaled_final/0126_rv.mp4	0.0	402.41909313201904	2.5003719329833984
83	346.5435719490051	pulse	1	t		81.0	2.5	/experiments/knapen_AOT/AOT_stimuli/rescaled_final/0126_rv.mp4	0.0	403.60284209251404	
83	347.86019492149353	fix_post	2		12	81.0	2.5	/experiments/knapen_AOT/AOT_stimuli/rescaled_final/0126_rv.mp4	0.0	404.91946506500244	0.09998893737792969
84	347.96018385887146	fix_pre	0		120	82.0	2.5	/experiments/knapen_AOT/AOT_stimuli/rescaled_final/0530_rv.mp4	0.0	405.01945400238037	1.000136137008667
84	348.1438798904419	pulse	0	t		82.0	2.5	/experiments/knapen_AOT/AOT_stimuli/rescaled_final/0530_rv.mp4	0.0	405.2031500339508	
84	348.9603199958801	movie	1		242	82.0	2.5	/experiments/knapen_AOT/AOT_stimuli/rescaled_final/0530_rv.mp4	0.0	406.01959013938904	2.5005080699920654
84	349.74395394325256	pulse	1	t		82.0	2.5	/experiments/knapen_AOT/AOT_stimuli/rescaled_final/0530_rv.mp4	0.0	406.8032240867615	
84	351.34418988227844	pulse	1	t		82.0	2.5	/experiments/knapen_AOT/AOT_stimuli/rescaled_final/0530_rv.mp4	0.0	408.40346002578735	
84	351.4608280658722	fix_post	2		12	82.0	2.5	/experiments/knapen_AOT/AOT_stimuli/rescaled_final/0530_rv.mp4	0.0	408.5200982093811	0.09995293617248535
85	351.5607810020447	fix_pre	0		120	83.0	2.5	blank	1.0	408.6200511455536	1.0001280307769775
85	352.56090903282166	movie	1		299	83.0	2.5	blank	1.0	409.62017917633057	2.492002010345459
85	352.94440388679504	pulse	1	t		83.0	2.5	blank	1.0	410.00367403030396	
85	354.5446689128876	pulse	1	t		83.0	2.5	blank	1.0	411.6039390563965	
85	355.0529110431671	fix_post	2		12	83.0	2.5	blank	1.0	412.112181186676	0.09998202323913574
87	355.15289306640625	stim	0		1716					412.21216320991516	14.30224084854126
87	356.14496397972107	pulse	0	t						413.20423412323	
87	357.74510884284973	pulse	0	t						414.80437898635864	
87	359.34542894363403	pulse	0	t						416.40469908714294	
87	360.9455900192261	pulse	0	t						418.004860162735	
87	362.54593205451965	pulse	0	t						419.60520219802856	
87	364.1460340023041	pulse	0	t						421.205304145813	
87	365.74638986587524	pulse	0	t						422.80566000938416	
87	367.34651803970337	pulse	0	t						424.4057881832123	
87	368.9467420578003	pulse	0	t						426.0060122013092	
