trial_nr	onset	event_type	phase	response	nr_frames	movie_index	movie_duration	movie_file	blank	onset_abs	duration
0	0.21665191650390625	stim	0		69					44.77873086929321	0.5749421119689941
0	0.7834830284118652	response	0	space						45.34556198120117	
1	0.7915940284729004	stim	0		4221					45.35367298126221	35.216310024261475
1	35.998323917388916	pulse	0	t						80.56040287017822	
1	36.007904052734375	stim	1		1716					80.56998300552368	14.307738065719604
1	37.588968992233276	pulse	1	t						82.15104794502258	
1	39.18913698196411	pulse	1	t						83.75121593475342	
1	40.789470911026	pulse	1	t						85.35154986381531	
1	42.389710903167725	pulse	1	t						86.95178985595703	
1	43.98996591567993	pulse	1	t						88.55204486846924	
1	45.590145111083984	pulse	1	t						90.15222406387329	
1	47.19041299819946	pulse	1	t						91.75249195098877	
1	48.79063010215759	pulse	1	t						93.3527090549469	
2	50.31564211845398	fix_pre	0		10	0.0	2.5	/experiments/knapen_AOT/AOT_stimuli/rescaled_final/1353_rv.mp4	0.0	94.87772107124329	0.08331799507141113
2	50.39088296890259	pulse	0	t		0.0	2.5	/experiments/knapen_AOT/AOT_stimuli/rescaled_final/1353_rv.mp4	0.0	94.9529619216919	
2	50.39896011352539	movie	1		244	0.0	2.5	/experiments/knapen_AOT/AOT_stimuli/rescaled_final/1353_rv.mp4	0.0	94.9610390663147	2.5087358951568604
2	51.99248003959656	pulse	1	t		0.0	2.5	/experiments/knapen_AOT/AOT_stimuli/rescaled_final/1353_rv.mp4	0.0	96.55455899238586	
2	52.90769600868225	fix_post	2		12	0.0	2.5	/experiments/knapen_AOT/AOT_stimuli/rescaled_final/1353_rv.mp4	0.0	97.46977496147156	0.10002899169921875
3	53.00772500038147	fix_pre	0		120	1.0	2.5	/experiments/knapen_AOT/AOT_stimuli/rescaled_final/1812_rv.mp4	0.0	97.56980395317078	1.0001630783081055
3	53.591530084609985	pulse	0	t		1.0	2.5	/experiments/knapen_AOT/AOT_stimuli/rescaled_final/1812_rv.mp4	0.0	98.15360903739929	
3	54.007888078689575	movie	1		244	1.0	2.5	/experiments/knapen_AOT/AOT_stimuli/rescaled_final/1812_rv.mp4	0.0	98.56996703147888	2.500349998474121
3	55.19165396690369	pulse	1	t		1.0	2.5	/experiments/knapen_AOT/AOT_stimuli/rescaled_final/1812_rv.mp4	0.0	99.753732919693	
3	56.508238077163696	fix_post	2		12	1.0	2.5	/experiments/knapen_AOT/AOT_stimuli/rescaled_final/1812_rv.mp4	0.0	101.070317029953	0.1000218391418457
4	56.60825991630554	fix_pre	0		120	2.0	2.5	/experiments/knapen_AOT/AOT_stimuli/rescaled_final/2160_rv.mp4	0.0	101.17033886909485	1.0001540184020996
4	56.791815996170044	pulse	0	t		2.0	2.5	/experiments/knapen_AOT/AOT_stimuli/rescaled_final/2160_rv.mp4	0.0	101.35389494895935	
4	57.60841393470764	movie	1		245	2.0	2.5	/experiments/knapen_AOT/AOT_stimuli/rescaled_final/2160_rv.mp4	0.0	102.17049288749695	2.5003561973571777
4	58.39197897911072	pulse	1	t		2.0	2.5	/experiments/knapen_AOT/AOT_stimuli/rescaled_final/2160_rv.mp4	0.0	102.95405793190002	
4	59.98993706703186	pulse	1	t		2.0	2.5	/experiments/knapen_AOT/AOT_stimuli/rescaled_final/2160_rv.mp4	0.0	104.55201601982117	
4	60.10877013206482	fix_post	2		12	2.0	2.5	/experiments/knapen_AOT/AOT_stimuli/rescaled_final/2160_rv.mp4	0.0	104.67084908485413	0.10003900527954102
5	60.20880913734436	fix_pre	0		120	3.0	2.5	/experiments/knapen_AOT/AOT_stimuli/rescaled_final/1687_fw.mp4	0.0	104.77088809013367	1.0001578330993652
5	61.208966970443726	movie	1		243	3.0	2.5	/experiments/knapen_AOT/AOT_stimuli/rescaled_final/1687_fw.mp4	0.0	105.77104592323303	2.492014169692993
5	61.59369897842407	pulse	1	t		3.0	2.5	/experiments/knapen_AOT/AOT_stimuli/rescaled_final/1687_fw.mp4	0.0	106.15577793121338	
5	63.192811012268066	pulse	1	t		3.0	2.5	/experiments/knapen_AOT/AOT_stimuli/rescaled_final/1687_fw.mp4	0.0	107.75488996505737	
5	63.70098114013672	fix_post	2		12	3.0	2.5	/experiments/knapen_AOT/AOT_stimuli/rescaled_final/1687_fw.mp4	0.0	108.26306009292603	0.10004687309265137
6	63.80102801322937	fix_pre	0		120	4.0	2.5	/experiments/knapen_AOT/AOT_stimuli/rescaled_final/1702_rv.mp4	0.0	108.36310696601868	1.000216007232666
6	64.79294896125793	pulse	0	t		4.0	2.5	/experiments/knapen_AOT/AOT_stimuli/rescaled_final/1702_rv.mp4	0.0	109.35502791404724	
6	64.80124402046204	movie	1		244	4.0	2.5	/experiments/knapen_AOT/AOT_stimuli/rescaled_final/1702_rv.mp4	0.0	109.36332297325134	2.5086140632629395
6	66.39397192001343	pulse	1	t		4.0	2.5	/experiments/knapen_AOT/AOT_stimuli/rescaled_final/1702_rv.mp4	0.0	110.95605087280273	
6	67.30985808372498	fix_post	2		12	4.0	2.5	/experiments/knapen_AOT/AOT_stimuli/rescaled_final/1702_rv.mp4	0.0	111.87193703651428	0.1000678539276123
7	67.40992593765259	fix_pre	0		120	5.0	2.5	/experiments/knapen_AOT/AOT_stimuli/rescaled_final/1222_fw.mp4	0.0	111.9720048904419	1.0001211166381836
7	67.99354696273804	pulse	0	t		5.0	2.5	/experiments/knapen_AOT/AOT_stimuli/rescaled_final/1222_fw.mp4	0.0	112.55562591552734	
7	68.41004705429077	movie	1		243	5.0	2.5	/experiments/knapen_AOT/AOT_stimuli/rescaled_final/1222_fw.mp4	0.0	112.97212600708008	2.5003349781036377
7	69.59386801719666	pulse	1	t		5.0	2.5	/experiments/knapen_AOT/AOT_stimuli/rescaled_final/1222_fw.mp4	0.0	114.15594696998596	
7	70.91038203239441	fix_post	2		12	5.0	2.5	/experiments/knapen_AOT/AOT_stimuli/rescaled_final/1222_fw.mp4	0.0	115.47246098518372	0.10004091262817383
8	71.01042294502258	fix_pre	0		120	6.0	2.5	/experiments/knapen_AOT/AOT_stimuli/rescaled_final/0479_fw.mp4	0.0	115.57250189781189	1.00018310546875
8	71.19395899772644	pulse	0	t		6.0	2.5	/experiments/knapen_AOT/AOT_stimuli/rescaled_final/0479_fw.mp4	0.0	115.75603795051575	
8	72.01060605049133	movie	1		242	6.0	2.5	/experiments/knapen_AOT/AOT_stimuli/rescaled_final/0479_fw.mp4	0.0	116.57268500328064	2.4920899868011475
8	72.79420590400696	pulse	1	t		6.0	2.5	/experiments/knapen_AOT/AOT_stimuli/rescaled_final/0479_fw.mp4	0.0	117.35628485679626	
8	74.39413499832153	pulse	1	t		6.0	2.5	/experiments/knapen_AOT/AOT_stimuli/rescaled_final/0479_fw.mp4	0.0	118.95621395111084	
8	74.50269603729248	fix_post	2		12	6.0	2.5	/experiments/knapen_AOT/AOT_stimuli/rescaled_final/0479_fw.mp4	0.0	119.06477499008179	0.09991192817687988
9	74.60260796546936	fix_pre	0		120	7.0	2.5	blank	1.0	119.16468691825867	1.0002479553222656
9	75.60285592079163	movie	1		300	7.0	2.5	blank	1.0	120.16493487358093	2.500274181365967
9	75.99476194381714	pulse	1	t		7.0	2.5	blank	1.0	120.55684089660645	
9	77.59501910209656	pulse	1	t		7.0	2.5	blank	1.0	122.15709805488586	
9	78.10313010215759	fix_post	2		12	7.0	2.5	blank	1.0	122.6652090549469	0.10001492500305176
10	78.20314502716064	fix_pre	0		120	8.0	2.5	/experiments/knapen_AOT/AOT_stimuli/rescaled_final/0673_rv.mp4	0.0	122.76522397994995	1.0002670288085938
10	79.19508790969849	pulse	0	t		8.0	2.5	/experiments/knapen_AOT/AOT_stimuli/rescaled_final/0673_rv.mp4	0.0	123.7571668624878	
10	79.20341205596924	movie	1		244	8.0	2.5	/experiments/knapen_AOT/AOT_stimuli/rescaled_final/0673_rv.mp4	0.0	123.76549100875854	2.5085999965667725
10	80.79597902297974	pulse	1	t		8.0	2.5	/experiments/knapen_AOT/AOT_stimuli/rescaled_final/0673_rv.mp4	0.0	125.35805797576904	
10	81.71201205253601	fix_post	2		12	8.0	2.5	/experiments/knapen_AOT/AOT_stimuli/rescaled_final/0673_rv.mp4	0.0	126.27409100532532	0.10001802444458008
11	81.81203007698059	fix_pre	0		120	9.0	2.5	/experiments/knapen_AOT/AOT_stimuli/rescaled_final/2012_rv.mp4	0.0	126.3741090297699	1.000195026397705
11	82.388179063797	pulse	0	t		9.0	2.5	/experiments/knapen_AOT/AOT_stimuli/rescaled_final/2012_rv.mp4	0.0	126.9502580165863	
11	82.8122251033783	movie	1		244	9.0	2.5	/experiments/knapen_AOT/AOT_stimuli/rescaled_final/2012_rv.mp4	0.0	127.3743040561676	2.5003669261932373
11	83.99612498283386	pulse	1	t		9.0	2.5	/experiments/knapen_AOT/AOT_stimuli/rescaled_final/2012_rv.mp4	0.0	128.55820393562317	
11	85.31259202957153	fix_post	2		12	9.0	2.5	/experiments/knapen_AOT/AOT_stimuli/rescaled_final/2012_rv.mp4	0.0	129.87467098236084	0.10002803802490234
12	85.41262006759644	fix_pre	0		120	10.0	2.5	/experiments/knapen_AOT/AOT_stimuli/rescaled_final/0829_rv.mp4	0.0	129.97469902038574	1.0001389980316162
12	85.5886640548706	pulse	0	t		10.0	2.5	/experiments/knapen_AOT/AOT_stimuli/rescaled_final/0829_rv.mp4	0.0	130.1507430076599	
12	86.41275906562805	movie	1		242	10.0	2.5	/experiments/knapen_AOT/AOT_stimuli/rescaled_final/0829_rv.mp4	0.0	130.97483801841736	2.4919960498809814
12	87.18892502784729	pulse	1	t		10.0	2.5	/experiments/knapen_AOT/AOT_stimuli/rescaled_final/0829_rv.mp4	0.0	131.7510039806366	
12	88.78843402862549	pulse	1	t		10.0	2.5	/experiments/knapen_AOT/AOT_stimuli/rescaled_final/0829_rv.mp4	0.0	133.3505129814148	
12	88.90475511550903	fix_post	2		13	10.0	2.5	/experiments/knapen_AOT/AOT_stimuli/rescaled_final/0829_rv.mp4	0.0	133.46683406829834	0.10834693908691406
13	89.01310205459595	fix_pre	0		119	11.0	2.5	/experiments/knapen_AOT/AOT_stimuli/rescaled_final/0072_rv.mp4	0.0	133.57518100738525	0.991858959197998
13	90.00496101379395	movie	1		244	11.0	2.5	/experiments/knapen_AOT/AOT_stimuli/rescaled_final/0072_rv.mp4	0.0	134.56703996658325	2.5003340244293213
13	90.38888597488403	pulse	1	t		11.0	2.5	/experiments/knapen_AOT/AOT_stimuli/rescaled_final/0072_rv.mp4	0.0	134.95096492767334	
13	91.98880791664124	pulse	1	t		11.0	2.5	/experiments/knapen_AOT/AOT_stimuli/rescaled_final/0072_rv.mp4	0.0	136.55088686943054	
13	92.50529503822327	fix_post	2		12	11.0	2.5	/experiments/knapen_AOT/AOT_stimuli/rescaled_final/0072_rv.mp4	0.0	137.06737399101257	0.10000991821289062
14	92.60530495643616	fix_pre	0		119	12.0	2.5	/experiments/knapen_AOT/AOT_stimuli/rescaled_final/1049_fw.mp4	0.0	137.16738390922546	0.9918179512023926
14	93.58899903297424	pulse	0	t		12.0	2.5	/experiments/knapen_AOT/AOT_stimuli/rescaled_final/1049_fw.mp4	0.0	138.15107798576355	
14	93.59712290763855	movie	1		244	12.0	2.5	/experiments/knapen_AOT/AOT_stimuli/rescaled_final/1049_fw.mp4	0.0	138.15920186042786	2.508711099624634
14	95.19376802444458	pulse	1	t		12.0	2.5	/experiments/knapen_AOT/AOT_stimuli/rescaled_final/1049_fw.mp4	0.0	139.7558469772339	
14	96.10583400726318	fix_post	2		12	12.0	2.5	/experiments/knapen_AOT/AOT_stimuli/rescaled_final/1049_fw.mp4	0.0	140.6679129600525	0.10001993179321289
15	96.2058539390564	fix_pre	0		120	13.0	2.5	/experiments/knapen_AOT/AOT_stimuli/rescaled_final/0672_fw.mp4	0.0	140.7679328918457	1.0001511573791504
15	96.78946113586426	pulse	0	t		13.0	2.5	/experiments/knapen_AOT/AOT_stimuli/rescaled_final/0672_fw.mp4	0.0	141.35154008865356	
15	97.20600509643555	movie	1		243	13.0	2.5	/experiments/knapen_AOT/AOT_stimuli/rescaled_final/0672_fw.mp4	0.0	141.76808404922485	2.500351905822754
15	98.38986396789551	pulse	1	t		13.0	2.5	/experiments/knapen_AOT/AOT_stimuli/rescaled_final/0672_fw.mp4	0.0	142.95194292068481	
15	99.7063570022583	fix_post	2		12	13.0	2.5	/experiments/knapen_AOT/AOT_stimuli/rescaled_final/0672_fw.mp4	0.0	144.2684359550476	0.10007095336914062
16	99.80642795562744	fix_pre	0		120	14.0	2.5	blank	1.0	144.36850690841675	1.0001220703125
16	99.98990297317505	pulse	0	t		14.0	2.5	blank	1.0	144.55198192596436	
16	100.80655002593994	movie	1		300	14.0	2.5	blank	1.0	145.36862897872925	2.500372886657715
16	101.5901689529419	pulse	1	t		14.0	2.5	blank	1.0	146.1522479057312	
16	103.19037294387817	pulse	1	t		14.0	2.5	blank	1.0	147.75245189666748	
16	103.30692291259766	fix_post	2		12	14.0	2.5	blank	1.0	147.86900186538696	0.09998202323913574
17	103.40690493583679	fix_pre	0		119	15.0	2.5	/experiments/knapen_AOT/AOT_stimuli/rescaled_final/0427_fw.mp4	0.0	147.9689838886261	0.9918770790100098
17	104.3987820148468	movie	1		244	15.0	2.5	/experiments/knapen_AOT/AOT_stimuli/rescaled_final/0427_fw.mp4	0.0	148.9608609676361	2.5003249645233154
17	104.79080390930176	pulse	1	t		15.0	2.5	/experiments/knapen_AOT/AOT_stimuli/rescaled_final/0427_fw.mp4	0.0	149.35288286209106	
17	106.39086604118347	pulse	1	t		15.0	2.5	/experiments/knapen_AOT/AOT_stimuli/rescaled_final/0427_fw.mp4	0.0	150.95294499397278	
17	106.89910697937012	fix_post	2		12	15.0	2.5	/experiments/knapen_AOT/AOT_stimuli/rescaled_final/0427_fw.mp4	0.0	151.46118593215942	0.10004711151123047
18	106.99915409088135	fix_pre	0		120	16.0	2.5	/experiments/knapen_AOT/AOT_stimuli/rescaled_final/0732_fw.mp4	0.0	151.56123304367065	1.0002260208129883
18	107.99112010002136	pulse	0	t		16.0	2.5	/experiments/knapen_AOT/AOT_stimuli/rescaled_final/0732_fw.mp4	0.0	152.55319905281067	
18	107.99938011169434	movie	1		243	16.0	2.5	/experiments/knapen_AOT/AOT_stimuli/rescaled_final/0732_fw.mp4	0.0	152.56145906448364	2.50860595703125
18	109.59186601638794	pulse	1	t		16.0	2.5	/experiments/knapen_AOT/AOT_stimuli/rescaled_final/0732_fw.mp4	0.0	154.15394496917725	
18	110.50798606872559	fix_post	2		12	16.0	2.5	/experiments/knapen_AOT/AOT_stimuli/rescaled_final/0732_fw.mp4	0.0	155.0700650215149	0.10000896453857422
19	110.60799503326416	fix_pre	0		120	17.0	2.5	/experiments/knapen_AOT/AOT_stimuli/rescaled_final/0789_rv.mp4	0.0	155.17007398605347	1.0002009868621826
19	111.19160413742065	pulse	0	t		17.0	2.5	/experiments/knapen_AOT/AOT_stimuli/rescaled_final/0789_rv.mp4	0.0	155.75368309020996	
19	111.60819602012634	movie	1		244	17.0	2.5	/experiments/knapen_AOT/AOT_stimuli/rescaled_final/0789_rv.mp4	0.0	156.17027497291565	2.500339984893799
19	112.79203391075134	pulse	1	t		17.0	2.5	/experiments/knapen_AOT/AOT_stimuli/rescaled_final/0789_rv.mp4	0.0	157.35411286354065	
19	114.10853600502014	fix_post	2		12	17.0	2.5	/experiments/knapen_AOT/AOT_stimuli/rescaled_final/0789_rv.mp4	0.0	158.67061495780945	0.10001897811889648
20	114.20855498313904	fix_pre	0		120	18.0	2.5	/experiments/knapen_AOT/AOT_stimuli/rescaled_final/2066_fw.mp4	0.0	158.77063393592834	1.0001659393310547
20	114.39210510253906	pulse	0	t		18.0	2.5	/experiments/knapen_AOT/AOT_stimuli/rescaled_final/2066_fw.mp4	0.0	158.95418405532837	
20	115.20872092247009	movie	1		243	18.0	2.5	/experiments/knapen_AOT/AOT_stimuli/rescaled_final/2066_fw.mp4	0.0	159.7707998752594	2.500343084335327
20	115.99233913421631	pulse	1	t		18.0	2.5	/experiments/knapen_AOT/AOT_stimuli/rescaled_final/2066_fw.mp4	0.0	160.55441808700562	
20	117.59248304367065	pulse	1	t		18.0	2.5	/experiments/knapen_AOT/AOT_stimuli/rescaled_final/2066_fw.mp4	0.0	162.15456199645996	
20	117.70906400680542	fix_post	2		12	18.0	2.5	/experiments/knapen_AOT/AOT_stimuli/rescaled_final/2066_fw.mp4	0.0	162.27114295959473	0.10002899169921875
21	117.80909299850464	fix_pre	0		119	19.0	2.5	/experiments/knapen_AOT/AOT_stimuli/rescaled_final/2167_rv.mp4	0.0	162.37117195129395	0.9918050765991211
21	118.80089807510376	movie	1		243	19.0	2.5	/experiments/knapen_AOT/AOT_stimuli/rescaled_final/2167_rv.mp4	0.0	163.36297702789307	2.500370979309082
21	119.18918108940125	pulse	1	t		19.0	2.5	/experiments/knapen_AOT/AOT_stimuli/rescaled_final/2167_rv.mp4	0.0	163.75126004219055	
21	120.7930359840393	pulse	1	t		19.0	2.5	/experiments/knapen_AOT/AOT_stimuli/rescaled_final/2167_rv.mp4	0.0	165.3551149368286	
21	121.30126905441284	fix_post	2		12	19.0	2.5	/experiments/knapen_AOT/AOT_stimuli/rescaled_final/2167_rv.mp4	0.0	165.86334800720215	0.10003805160522461
22	121.40130710601807	fix_pre	0		120	20.0	2.5	blank	1.0	165.96338605880737	1.0001440048217773
22	122.39332699775696	pulse	0	t		20.0	2.5	blank	1.0	166.95540595054626	
22	122.40145111083984	movie	1		301	20.0	2.5	blank	1.0	166.96353006362915	2.5086967945098877
22	123.99359703063965	pulse	1	t		20.0	2.5	blank	1.0	168.55567598342896	
22	124.91014790534973	fix_post	2		12	20.0	2.5	blank	1.0	169.47222685813904	0.09999322891235352
23	125.01014113426208	fix_pre	0		120	21.0	2.5	/experiments/knapen_AOT/AOT_stimuli/rescaled_final/0414_rv.mp4	0.0	169.5722200870514	1.0001709461212158
23	125.59370398521423	pulse	0	t		21.0	2.5	/experiments/knapen_AOT/AOT_stimuli/rescaled_final/0414_rv.mp4	0.0	170.15578293800354	
23	126.0103120803833	movie	1		243	21.0	2.5	/experiments/knapen_AOT/AOT_stimuli/rescaled_final/0414_rv.mp4	0.0	170.5723910331726	2.50036883354187
23	127.19406795501709	pulse	1	t		21.0	2.5	/experiments/knapen_AOT/AOT_stimuli/rescaled_final/0414_rv.mp4	0.0	171.7561469078064	
23	128.51068091392517	fix_post	2		12	21.0	2.5	/experiments/knapen_AOT/AOT_stimuli/rescaled_final/0414_rv.mp4	0.0	173.07275986671448	0.10006308555603027
24	128.6107439994812	fix_pre	0		120	22.0	2.5	/experiments/knapen_AOT/AOT_stimuli/rescaled_final/0964_rv.mp4	0.0	173.1728229522705	1.0001270771026611
24	128.79419493675232	pulse	0	t		22.0	2.5	/experiments/knapen_AOT/AOT_stimuli/rescaled_final/0964_rv.mp4	0.0	173.35627388954163	
24	129.61087107658386	movie	1		244	22.0	2.5	/experiments/knapen_AOT/AOT_stimuli/rescaled_final/0964_rv.mp4	0.0	174.17295002937317	2.5003409385681152
24	130.39455604553223	pulse	1	t		22.0	2.5	/experiments/knapen_AOT/AOT_stimuli/rescaled_final/0964_rv.mp4	0.0	174.95663499832153	
24	131.9946310520172	pulse	1	t		22.0	2.5	/experiments/knapen_AOT/AOT_stimuli/rescaled_final/0964_rv.mp4	0.0	176.55671000480652	
24	132.11121201515198	fix_post	2		12	22.0	2.5	/experiments/knapen_AOT/AOT_stimuli/rescaled_final/0964_rv.mp4	0.0	176.67329096794128	0.10001397132873535
25	132.2112259864807	fix_pre	0		120	23.0	2.5	/experiments/knapen_AOT/AOT_stimuli/rescaled_final/0126_fw.mp4	0.0	176.77330493927002	1.0001850128173828
25	133.2114109992981	movie	1		242	23.0	2.5	/experiments/knapen_AOT/AOT_stimuli/rescaled_final/0126_fw.mp4	0.0	177.7734899520874	2.4920380115509033
25	133.5964801311493	pulse	1	t		23.0	2.5	/experiments/knapen_AOT/AOT_stimuli/rescaled_final/0126_fw.mp4	0.0	178.1585590839386	
25	135.18789291381836	pulse	1	t		23.0	2.5	/experiments/knapen_AOT/AOT_stimuli/rescaled_final/0126_fw.mp4	0.0	179.74997186660767	
25	135.703449010849	fix_post	2		12	23.0	2.5	/experiments/knapen_AOT/AOT_stimuli/rescaled_final/0126_fw.mp4	0.0	180.2655279636383	0.0999910831451416
26	135.80344009399414	fix_pre	0		120	24.0	2.5	/experiments/knapen_AOT/AOT_stimuli/rescaled_final/1498_fw.mp4	0.0	180.36551904678345	1.000133991241455
26	136.78781700134277	pulse	0	t		24.0	2.5	/experiments/knapen_AOT/AOT_stimuli/rescaled_final/1498_fw.mp4	0.0	181.34989595413208	
26	136.8035740852356	movie	1		244	24.0	2.5	/experiments/knapen_AOT/AOT_stimuli/rescaled_final/1498_fw.mp4	0.0	181.3656530380249	2.508697986602783
26	138.39645791053772	pulse	1	t		24.0	2.5	/experiments/knapen_AOT/AOT_stimuli/rescaled_final/1498_fw.mp4	0.0	182.95853686332703	
26	139.31227207183838	fix_post	2		12	24.0	2.5	/experiments/knapen_AOT/AOT_stimuli/rescaled_final/1498_fw.mp4	0.0	183.87435102462769	0.10003089904785156
27	139.41230297088623	fix_pre	0		120	25.0	2.5	/experiments/knapen_AOT/AOT_stimuli/rescaled_final/0776_fw.mp4	0.0	183.97438192367554	1.0001871585845947
27	139.9884970188141	pulse	0	t		25.0	2.5	/experiments/knapen_AOT/AOT_stimuli/rescaled_final/0776_fw.mp4	0.0	184.5505759716034	
27	140.41249012947083	movie	1		244	25.0	2.5	/experiments/knapen_AOT/AOT_stimuli/rescaled_final/0776_fw.mp4	0.0	184.97456908226013	2.5003199577331543
27	141.59227800369263	pulse	1	t		25.0	2.5	/experiments/knapen_AOT/AOT_stimuli/rescaled_final/0776_fw.mp4	0.0	186.15435695648193	
27	142.91281008720398	fix_post	2		12	25.0	2.5	/experiments/knapen_AOT/AOT_stimuli/rescaled_final/0776_fw.mp4	0.0	187.4748890399933	0.10004782676696777
28	143.01285791397095	fix_pre	0		120	26.0	2.5	blank	1.0	187.57493686676025	1.0001389980316162
28	143.18798303604126	pulse	0	t		26.0	2.5	blank	1.0	187.75006198883057	
28	144.01299691200256	movie	1		300	26.0	2.5	blank	1.0	188.57507586479187	2.5003740787506104
28	144.78819394111633	pulse	1	t		26.0	2.5	blank	1.0	189.35027289390564	
28	146.38850498199463	pulse	1	t		26.0	2.5	blank	1.0	190.95058393478394	
28	146.51337099075317	fix_post	2		12	26.0	2.5	blank	1.0	191.07544994354248	0.10000014305114746
29	146.61337113380432	fix_pre	0		120	27.0	2.5	/experiments/knapen_AOT/AOT_stimuli/rescaled_final/1880_rv.mp4	0.0	191.17545008659363	1.0001599788665771
29	147.6135311126709	movie	1		243	27.0	2.5	/experiments/knapen_AOT/AOT_stimuli/rescaled_final/1880_rv.mp4	0.0	192.1756100654602	2.492079019546509
29	147.98881196975708	pulse	1	t		27.0	2.5	/experiments/knapen_AOT/AOT_stimuli/rescaled_final/1880_rv.mp4	0.0	192.5508909225464	
29	149.58908104896545	pulse	1	t		27.0	2.5	/experiments/knapen_AOT/AOT_stimuli/rescaled_final/1880_rv.mp4	0.0	194.15116000175476	
29	150.1056101322174	fix_post	2		12	27.0	2.5	/experiments/knapen_AOT/AOT_stimuli/rescaled_final/1880_rv.mp4	0.0	194.6676890850067	0.10005688667297363
30	150.20566701889038	fix_pre	0		119	28.0	2.5	/experiments/knapen_AOT/AOT_stimuli/rescaled_final/2160_fw.mp4	0.0	194.7677459716797	0.9918229579925537
30	151.18923711776733	pulse	0	t		28.0	2.5	/experiments/knapen_AOT/AOT_stimuli/rescaled_final/2160_fw.mp4	0.0	195.75131607055664	
30	151.19748997688293	movie	1		245	28.0	2.5	/experiments/knapen_AOT/AOT_stimuli/rescaled_final/2160_fw.mp4	0.0	195.75956892967224	2.5085980892181396
30	152.78999400138855	pulse	1	t		28.0	2.5	/experiments/knapen_AOT/AOT_stimuli/rescaled_final/2160_fw.mp4	0.0	197.35207295417786	
30	153.70608806610107	fix_post	2		12	28.0	2.5	/experiments/knapen_AOT/AOT_stimuli/rescaled_final/2160_fw.mp4	0.0	198.26816701889038	0.1000359058380127
31	153.8061239719391	fix_pre	0		120	29.0	2.5	/experiments/knapen_AOT/AOT_stimuli/rescaled_final/2030_fw.mp4	0.0	198.3682029247284	1.0001490116119385
31	154.38975191116333	pulse	0	t		29.0	2.5	/experiments/knapen_AOT/AOT_stimuli/rescaled_final/2030_fw.mp4	0.0	198.95183086395264	
31	154.80627298355103	movie	1		243	29.0	2.5	/experiments/knapen_AOT/AOT_stimuli/rescaled_final/2030_fw.mp4	0.0	199.36835193634033	2.500472068786621
31	155.99007296562195	pulse	1	t		29.0	2.5	/experiments/knapen_AOT/AOT_stimuli/rescaled_final/2030_fw.mp4	0.0	200.55215191841125	
31	157.30674505233765	fix_post	2		12	29.0	2.5	/experiments/knapen_AOT/AOT_stimuli/rescaled_final/2030_fw.mp4	0.0	201.86882400512695	0.09996390342712402
32	157.40670895576477	fix_pre	0		120	30.0	2.5	/experiments/knapen_AOT/AOT_stimuli/rescaled_final/0111_rv.mp4	0.0	201.96878790855408	1.0001180171966553
32	157.59014892578125	pulse	0	t		30.0	2.5	/experiments/knapen_AOT/AOT_stimuli/rescaled_final/0111_rv.mp4	0.0	202.15222787857056	
32	158.40682697296143	movie	1		243	30.0	2.5	/experiments/knapen_AOT/AOT_stimuli/rescaled_final/0111_rv.mp4	0.0	202.96890592575073	2.5003440380096436
32	159.1905379295349	pulse	1	t		30.0	2.5	/experiments/knapen_AOT/AOT_stimuli/rescaled_final/0111_rv.mp4	0.0	203.75261688232422	
32	160.79054713249207	pulse	1	t		30.0	2.5	/experiments/knapen_AOT/AOT_stimuli/rescaled_final/0111_rv.mp4	0.0	205.35262608528137	
32	160.90717101097107	fix_post	2		12	30.0	2.5	/experiments/knapen_AOT/AOT_stimuli/rescaled_final/0111_rv.mp4	0.0	205.46924996376038	0.10002303123474121
33	161.0071940422058	fix_pre	0		119	31.0	2.5	/experiments/knapen_AOT/AOT_stimuli/rescaled_final/2066_fw.mp4	0.0	205.56927299499512	0.9918410778045654
33	161.99903512001038	movie	1		243	31.0	2.5	/experiments/knapen_AOT/AOT_stimuli/rescaled_final/2066_fw.mp4	0.0	206.56111407279968	2.500356912612915
33	162.3910710811615	pulse	1	t		31.0	2.5	/experiments/knapen_AOT/AOT_stimuli/rescaled_final/2066_fw.mp4	0.0	206.9531500339508	
33	163.9910991191864	pulse	1	t		31.0	2.5	/experiments/knapen_AOT/AOT_stimuli/rescaled_final/2066_fw.mp4	0.0	208.5531780719757	
33	164.4993920326233	fix_post	2		12	31.0	2.5	/experiments/knapen_AOT/AOT_stimuli/rescaled_final/2066_fw.mp4	0.0	209.0614709854126	0.10007500648498535
34	164.59946703910828	fix_pre	0		120	32.0	2.5	/experiments/knapen_AOT/AOT_stimuli/rescaled_final/0373_rv.mp4	0.0	209.16154599189758	1.0001518726348877
34	165.5914590358734	pulse	0	t		32.0	2.5	/experiments/knapen_AOT/AOT_stimuli/rescaled_final/0373_rv.mp4	0.0	210.15353798866272	
34	165.59961891174316	movie	1		245	32.0	2.5	/experiments/knapen_AOT/AOT_stimuli/rescaled_final/0373_rv.mp4	0.0	210.16169786453247	2.508716106414795
34	167.19221091270447	pulse	1	t		32.0	2.5	/experiments/knapen_AOT/AOT_stimuli/rescaled_final/0373_rv.mp4	0.0	211.75428986549377	
34	168.10833501815796	fix_post	2		12	32.0	2.5	/experiments/knapen_AOT/AOT_stimuli/rescaled_final/0373_rv.mp4	0.0	212.67041397094727	0.09994101524353027
35	168.2082760334015	fix_pre	0		117	33.0	2.5	/experiments/knapen_AOT/AOT_stimuli/rescaled_final/0116_rv.mp4	0.0	212.7703549861908	1.0001568794250488
35	168.79197096824646	pulse	0	t		33.0	2.5	/experiments/knapen_AOT/AOT_stimuli/rescaled_final/0116_rv.mp4	0.0	213.35404992103577	
35	169.20843291282654	movie	1		243	33.0	2.5	/experiments/knapen_AOT/AOT_stimuli/rescaled_final/0116_rv.mp4	0.0	213.77051186561584	2.50039005279541
35	170.39220213890076	pulse	1	t		33.0	2.5	/experiments/knapen_AOT/AOT_stimuli/rescaled_final/0116_rv.mp4	0.0	214.95428109169006	
35	171.70882296562195	fix_post	2		12	33.0	2.5	/experiments/knapen_AOT/AOT_stimuli/rescaled_final/0116_rv.mp4	0.0	216.27090191841125	0.09999394416809082
36	171.80881690979004	fix_pre	0		120	34.0	2.5	blank	1.0	216.37089586257935	1.000171184539795
36	171.99237298965454	pulse	0	t		34.0	2.5	blank	1.0	216.55445194244385	
36	172.80898809432983	movie	1		300	34.0	2.5	blank	1.0	217.37106704711914	2.50036883354187
36	173.59267711639404	pulse	1	t		34.0	2.5	blank	1.0	218.15475606918335	
36	175.19287014007568	pulse	1	t		34.0	2.5	blank	1.0	219.754949092865	
36	175.3093569278717	fix_post	2		12	34.0	2.5	blank	1.0	219.871435880661	0.10001015663146973
37	175.40936708450317	fix_pre	0		120	35.0	2.5	/experiments/knapen_AOT/AOT_stimuli/rescaled_final/0395_rv.mp4	0.0	219.97144603729248	1.0001499652862549
37	176.40951704978943	movie	1		244	35.0	2.5	/experiments/knapen_AOT/AOT_stimuli/rescaled_final/0395_rv.mp4	0.0	220.97159600257874	2.492043972015381
37	176.79361391067505	pulse	1	t		35.0	2.5	/experiments/knapen_AOT/AOT_stimuli/rescaled_final/0395_rv.mp4	0.0	221.35569286346436	
37	178.39326310157776	pulse	1	t		35.0	2.5	/experiments/knapen_AOT/AOT_stimuli/rescaled_final/0395_rv.mp4	0.0	222.95534205436707	
37	178.9015610218048	fix_post	2		12	35.0	2.5	/experiments/knapen_AOT/AOT_stimuli/rescaled_final/0395_rv.mp4	0.0	223.46363997459412	0.09999895095825195
38	179.00155997276306	fix_pre	0		120	36.0	2.5	/experiments/knapen_AOT/AOT_stimuli/rescaled_final/1799_fw.mp4	0.0	223.56363892555237	1.0001840591430664
38	179.9935929775238	pulse	0	t		36.0	2.5	/experiments/knapen_AOT/AOT_stimuli/rescaled_final/1799_fw.mp4	0.0	224.5556719303131	
38	180.00174403190613	movie	1		244	36.0	2.5	/experiments/knapen_AOT/AOT_stimuli/rescaled_final/1799_fw.mp4	0.0	224.56382298469543	2.5087029933929443
38	181.59490990638733	pulse	1	t		36.0	2.5	/experiments/knapen_AOT/AOT_stimuli/rescaled_final/1799_fw.mp4	0.0	226.15698885917664	
38	182.51044702529907	fix_post	2		12	36.0	2.5	/experiments/knapen_AOT/AOT_stimuli/rescaled_final/1799_fw.mp4	0.0	227.07252597808838	0.10000395774841309
39	182.61045098304749	fix_pre	0		120	37.0	2.5	/experiments/knapen_AOT/AOT_stimuli/rescaled_final/1176_rv.mp4	0.0	227.1725299358368	1.0001471042633057
39	183.1941270828247	pulse	0	t		37.0	2.5	/experiments/knapen_AOT/AOT_stimuli/rescaled_final/1176_rv.mp4	0.0	227.756206035614	
39	183.6105980873108	movie	1		243	37.0	2.5	/experiments/knapen_AOT/AOT_stimuli/rescaled_final/1176_rv.mp4	0.0	228.1726770401001	2.500365972518921
39	184.7943000793457	pulse	1	t		37.0	2.5	/experiments/knapen_AOT/AOT_stimuli/rescaled_final/1176_rv.mp4	0.0	229.356379032135	
39	186.1109640598297	fix_post	2		12	37.0	2.5	/experiments/knapen_AOT/AOT_stimuli/rescaled_final/1176_rv.mp4	0.0	230.67304301261902	0.10002899169921875
40	186.21099305152893	fix_pre	0		120	38.0	2.5	/experiments/knapen_AOT/AOT_stimuli/rescaled_final/0273_rv.mp4	0.0	230.77307200431824	1.0001389980316162
40	186.39452505111694	pulse	0	t		38.0	2.5	/experiments/knapen_AOT/AOT_stimuli/rescaled_final/0273_rv.mp4	0.0	230.95660400390625	
40	187.21113204956055	movie	1		243	38.0	2.5	/experiments/knapen_AOT/AOT_stimuli/rescaled_final/0273_rv.mp4	0.0	231.77321100234985	2.500321865081787
40	187.99480891227722	pulse	1	t		38.0	2.5	/experiments/knapen_AOT/AOT_stimuli/rescaled_final/0273_rv.mp4	0.0	232.55688786506653	
40	189.59493112564087	pulse	1	t		38.0	2.5	/experiments/knapen_AOT/AOT_stimuli/rescaled_final/0273_rv.mp4	0.0	234.15701007843018	
40	189.71145391464233	fix_post	2		12	38.0	2.5	/experiments/knapen_AOT/AOT_stimuli/rescaled_final/0273_rv.mp4	0.0	234.27353286743164	0.10007619857788086
41	189.81153011322021	fix_pre	0		120	39.0	2.5	/experiments/knapen_AOT/AOT_stimuli/rescaled_final/1731_fw.mp4	0.0	234.37360906600952	1.0001649856567383
41	190.81169509887695	movie	1		242	39.0	2.5	/experiments/knapen_AOT/AOT_stimuli/rescaled_final/1731_fw.mp4	0.0	235.37377405166626	2.4920718669891357
41	191.1960210800171	pulse	1	t		39.0	2.5	/experiments/knapen_AOT/AOT_stimuli/rescaled_final/1731_fw.mp4	0.0	235.7581000328064	
41	192.78810811042786	pulse	1	t		39.0	2.5	/experiments/knapen_AOT/AOT_stimuli/rescaled_final/1731_fw.mp4	0.0	237.35018706321716	
41	193.3037669658661	fix_post	2		12	39.0	2.5	/experiments/knapen_AOT/AOT_stimuli/rescaled_final/1731_fw.mp4	0.0	237.8658459186554	0.1000361442565918
42	193.40380311012268	fix_pre	0		120	40.0	2.5	/experiments/knapen_AOT/AOT_stimuli/rescaled_final/0111_fw.mp4	0.0	237.965882062912	1.000079870223999
42	194.39577507972717	pulse	0	t		40.0	2.5	/experiments/knapen_AOT/AOT_stimuli/rescaled_final/0111_fw.mp4	0.0	238.95785403251648	
42	194.40388298034668	movie	1		246	40.0	2.5	/experiments/knapen_AOT/AOT_stimuli/rescaled_final/0111_fw.mp4	0.0	238.965961933136	2.5086779594421387
42	195.98771500587463	pulse	1	t		40.0	2.5	/experiments/knapen_AOT/AOT_stimuli/rescaled_final/0111_fw.mp4	0.0	240.54979395866394	
42	196.91256093978882	fix_post	2		12	40.0	2.5	/experiments/knapen_AOT/AOT_stimuli/rescaled_final/0111_fw.mp4	0.0	241.47463989257812	0.10003399848937988
43	197.0125949382782	fix_pre	0		120	41.0	2.5	blank	1.0	241.5746738910675	1.0001749992370605
43	197.58781099319458	pulse	0	t		41.0	2.5	blank	1.0	242.1498899459839	
43	198.01276993751526	movie	1		300	41.0	2.5	blank	1.0	242.57484889030457	2.500352144241333
43	199.1880021095276	pulse	1	t		41.0	2.5	blank	1.0	243.7500810623169	
43	200.5131220817566	fix_post	2		12	41.0	2.5	blank	1.0	245.0752010345459	0.10002684593200684
44	200.6131489276886	fix_pre	0		120	42.0	2.5	/experiments/knapen_AOT/AOT_stimuli/rescaled_final/1053_fw.mp4	0.0	245.1752278804779	1.0001471042633057
44	200.78832697868347	pulse	0	t		42.0	2.5	/experiments/knapen_AOT/AOT_stimuli/rescaled_final/1053_fw.mp4	0.0	245.35040593147278	
44	201.6132960319519	movie	1		243	42.0	2.5	/experiments/knapen_AOT/AOT_stimuli/rescaled_final/1053_fw.mp4	0.0	246.1753749847412	2.500330924987793
44	202.38853406906128	pulse	1	t		42.0	2.5	/experiments/knapen_AOT/AOT_stimuli/rescaled_final/1053_fw.mp4	0.0	246.9506130218506	
44	203.9888310432434	pulse	1	t		42.0	2.5	/experiments/knapen_AOT/AOT_stimuli/rescaled_final/1053_fw.mp4	0.0	248.55090999603271	
44	204.1136269569397	fix_post	2		12	42.0	2.5	/experiments/knapen_AOT/AOT_stimuli/rescaled_final/1053_fw.mp4	0.0	248.675705909729	0.10002517700195312
45	204.21365213394165	fix_pre	0		120	43.0	2.5	/experiments/knapen_AOT/AOT_stimuli/rescaled_final/0160_rv.mp4	0.0	248.77573108673096	1.000173807144165
45	205.21382594108582	movie	1		242	43.0	2.5	/experiments/knapen_AOT/AOT_stimuli/rescaled_final/0160_rv.mp4	0.0	249.77590489387512	2.4920501708984375
45	205.58903098106384	pulse	1	t		43.0	2.5	/experiments/knapen_AOT/AOT_stimuli/rescaled_final/0160_rv.mp4	0.0	250.15110993385315	
45	207.18933510780334	pulse	1	t		43.0	2.5	/experiments/knapen_AOT/AOT_stimuli/rescaled_final/0160_rv.mp4	0.0	251.75141406059265	
45	207.70587611198425	fix_post	2		12	43.0	2.5	/experiments/knapen_AOT/AOT_stimuli/rescaled_final/0160_rv.mp4	0.0	252.26795506477356	0.09999680519104004
46	207.8058729171753	fix_pre	0		119	44.0	2.5	/experiments/knapen_AOT/AOT_stimuli/rescaled_final/1482_rv.mp4	0.0	252.3679518699646	0.9918591976165771
46	208.78957295417786	pulse	0	t		44.0	2.5	/experiments/knapen_AOT/AOT_stimuli/rescaled_final/1482_rv.mp4	0.0	253.35165190696716	
46	208.79773211479187	movie	1		244	44.0	2.5	/experiments/knapen_AOT/AOT_stimuli/rescaled_final/1482_rv.mp4	0.0	253.35981106758118	2.508633852005005
46	210.39022612571716	pulse	1	t		44.0	2.5	/experiments/knapen_AOT/AOT_stimuli/rescaled_final/1482_rv.mp4	0.0	254.95230507850647	
46	211.30636596679688	fix_post	2		12	44.0	2.5	/experiments/knapen_AOT/AOT_stimuli/rescaled_final/1482_rv.mp4	0.0	255.86844491958618	0.10005903244018555
47	211.40642499923706	fix_pre	0		120	45.0	2.5	/experiments/knapen_AOT/AOT_stimuli/rescaled_final/1160_rv.mp4	0.0	255.96850395202637	1.000148057937622
47	211.9900279045105	pulse	0	t		45.0	2.5	/experiments/knapen_AOT/AOT_stimuli/rescaled_final/1160_rv.mp4	0.0	256.5521068572998	
47	212.40657305717468	movie	1		244	45.0	2.5	/experiments/knapen_AOT/AOT_stimuli/rescaled_final/1160_rv.mp4	0.0	256.968652009964	2.500372886657715
47	213.59031200408936	pulse	1	t		45.0	2.5	/experiments/knapen_AOT/AOT_stimuli/rescaled_final/1160_rv.mp4	0.0	258.15239095687866	
47	214.9069459438324	fix_post	2		12	45.0	2.5	/experiments/knapen_AOT/AOT_stimuli/rescaled_final/1160_rv.mp4	0.0	259.4690248966217	0.100006103515625
48	215.00695204734802	fix_pre	0		120	46.0	2.5	/experiments/knapen_AOT/AOT_stimuli/rescaled_final/2056_rv.mp4	0.0	259.56903100013733	1.0001630783081055
48	215.19056701660156	pulse	0	t		46.0	2.5	/experiments/knapen_AOT/AOT_stimuli/rescaled_final/2056_rv.mp4	0.0	259.75264596939087	
48	216.00711512565613	movie	1		244	46.0	2.5	/experiments/knapen_AOT/AOT_stimuli/rescaled_final/2056_rv.mp4	0.0	260.56919407844543	2.500356912612915
48	216.790668964386	pulse	1	t		46.0	2.5	/experiments/knapen_AOT/AOT_stimuli/rescaled_final/2056_rv.mp4	0.0	261.3527479171753	
48	218.39108800888062	pulse	1	t		46.0	2.5	/experiments/knapen_AOT/AOT_stimuli/rescaled_final/2056_rv.mp4	0.0	262.9531669616699	
48	218.50747203826904	fix_post	2		12	46.0	2.5	/experiments/knapen_AOT/AOT_stimuli/rescaled_final/2056_rv.mp4	0.0	263.06955099105835	0.10003209114074707
49	218.6075041294098	fix_pre	0		120	47.0	2.5	/experiments/knapen_AOT/AOT_stimuli/rescaled_final/2161_fw.mp4	0.0	263.1695830821991	1.0001859664916992
49	219.6076900959015	movie	1		243	47.0	2.5	/experiments/knapen_AOT/AOT_stimuli/rescaled_final/2161_fw.mp4	0.0	264.1697690486908	2.491947889328003
49	219.99253392219543	pulse	1	t		47.0	2.5	/experiments/knapen_AOT/AOT_stimuli/rescaled_final/2161_fw.mp4	0.0	264.55461287498474	
49	221.59148693084717	pulse	1	t		47.0	2.5	/experiments/knapen_AOT/AOT_stimuli/rescaled_final/2161_fw.mp4	0.0	266.1535658836365	
49	222.0996379852295	fix_post	2		12	47.0	2.5	/experiments/knapen_AOT/AOT_stimuli/rescaled_final/2161_fw.mp4	0.0	266.6617169380188	0.10008502006530762
50	222.1997230052948	fix_pre	0		120	48.0	2.5	blank	1.0	266.7618019580841	1.0001370906829834
50	223.19169402122498	pulse	0	t		48.0	2.5	blank	1.0	267.7537729740143	
50	223.19986009597778	movie	1		301	48.0	2.5	blank	1.0	267.7619390487671	2.5087130069732666
50	224.79198694229126	pulse	1	t		48.0	2.5	blank	1.0	269.35406589508057	
50	225.70857310295105	fix_post	2		12	48.0	2.5	blank	1.0	270.27065205574036	0.09998297691345215
51	225.8085560798645	fix_pre	0		120	49.0	2.5	/experiments/knapen_AOT/AOT_stimuli/rescaled_final/0827_rv.mp4	0.0	270.3706350326538	1.0001790523529053
51	226.39211511611938	pulse	0	t		49.0	2.5	/experiments/knapen_AOT/AOT_stimuli/rescaled_final/0827_rv.mp4	0.0	270.9541940689087	
51	226.8087351322174	movie	1		245	49.0	2.5	/experiments/knapen_AOT/AOT_stimuli/rescaled_final/0827_rv.mp4	0.0	271.3708140850067	2.5003550052642822
51	227.9925410747528	pulse	1	t		49.0	2.5	/experiments/knapen_AOT/AOT_stimuli/rescaled_final/0827_rv.mp4	0.0	272.5546200275421	
51	229.3090901374817	fix_post	2		12	49.0	2.5	/experiments/knapen_AOT/AOT_stimuli/rescaled_final/0827_rv.mp4	0.0	273.871169090271	0.10001182556152344
52	229.4091019630432	fix_pre	0		120	50.0	2.5	/experiments/knapen_AOT/AOT_stimuli/rescaled_final/1731_rv.mp4	0.0	273.9711809158325	1.0001730918884277
52	229.5927219390869	pulse	0	t		50.0	2.5	/experiments/knapen_AOT/AOT_stimuli/rescaled_final/1731_rv.mp4	0.0	274.1548008918762	
52	230.40927505493164	movie	1		240	50.0	2.5	/experiments/knapen_AOT/AOT_stimuli/rescaled_final/1731_rv.mp4	0.0	274.97135400772095	2.500361919403076
52	231.192862033844	pulse	1	t		50.0	2.5	/experiments/knapen_AOT/AOT_stimuli/rescaled_final/1731_rv.mp4	0.0	275.7549409866333	
52	232.7933371067047	pulse	1	t		50.0	2.5	/experiments/knapen_AOT/AOT_stimuli/rescaled_final/1731_rv.mp4	0.0	277.355416059494	
52	232.90963697433472	fix_post	2		12	50.0	2.5	/experiments/knapen_AOT/AOT_stimuli/rescaled_final/1731_rv.mp4	0.0	277.471715927124	0.10000109672546387
53	233.00963807106018	fix_pre	0		119	51.0	2.5	/experiments/knapen_AOT/AOT_stimuli/rescaled_final/1645_fw.mp4	0.0	277.5717170238495	0.9918520450592041
53	234.00149011611938	movie	1		245	51.0	2.5	/experiments/knapen_AOT/AOT_stimuli/rescaled_final/1645_fw.mp4	0.0	278.5635690689087	2.5003058910369873
53	234.39342498779297	pulse	1	t		51.0	2.5	/experiments/knapen_AOT/AOT_stimuli/rescaled_final/1645_fw.mp4	0.0	278.9555039405823	
53	235.9936580657959	pulse	1	t		51.0	2.5	/experiments/knapen_AOT/AOT_stimuli/rescaled_final/1645_fw.mp4	0.0	280.5557370185852	
53	236.50179600715637	fix_post	2		12	51.0	2.5	/experiments/knapen_AOT/AOT_stimuli/rescaled_final/1645_fw.mp4	0.0	281.0638749599457	0.10005307197570801
54	236.60184907913208	fix_pre	0		120	52.0	2.5	/experiments/knapen_AOT/AOT_stimuli/rescaled_final/2061_fw.mp4	0.0	281.1639280319214	1.0001399517059326
54	237.59386706352234	pulse	0	t		52.0	2.5	/experiments/knapen_AOT/AOT_stimuli/rescaled_final/2061_fw.mp4	0.0	282.15594601631165	
54	237.601989030838	movie	1		244	52.0	2.5	/experiments/knapen_AOT/AOT_stimuli/rescaled_final/2061_fw.mp4	0.0	282.1640679836273	2.5086960792541504
54	239.1946530342102	pulse	1	t		52.0	2.5	/experiments/knapen_AOT/AOT_stimuli/rescaled_final/2061_fw.mp4	0.0	283.7567319869995	
54	240.11068511009216	fix_post	2		12	52.0	2.5	/experiments/knapen_AOT/AOT_stimuli/rescaled_final/2061_fw.mp4	0.0	284.67276406288147	0.10004401206970215
55	240.21072912216187	fix_pre	0		120	53.0	2.5	/experiments/knapen_AOT/AOT_stimuli/rescaled_final/0184_rv.mp4	0.0	284.7728080749512	1.0001468658447266
55	240.79435300827026	pulse	0	t		53.0	2.5	/experiments/knapen_AOT/AOT_stimuli/rescaled_final/0184_rv.mp4	0.0	285.35643196105957	
55	241.2108759880066	movie	1		244	53.0	2.5	/experiments/knapen_AOT/AOT_stimuli/rescaled_final/0184_rv.mp4	0.0	285.7729549407959	2.5003321170806885
55	242.39471697807312	pulse	1	t		53.0	2.5	/experiments/knapen_AOT/AOT_stimuli/rescaled_final/0184_rv.mp4	0.0	286.9567959308624	
55	243.71120810508728	fix_post	2		12	53.0	2.5	/experiments/knapen_AOT/AOT_stimuli/rescaled_final/0184_rv.mp4	0.0	288.2732870578766	0.10008883476257324
56	243.81129693984985	fix_pre	0		120	54.0	2.5	/experiments/knapen_AOT/AOT_stimuli/rescaled_final/1907_rv.mp4	0.0	288.37337589263916	1.0001389980316162
56	243.99485611915588	pulse	0	t		54.0	2.5	/experiments/knapen_AOT/AOT_stimuli/rescaled_final/1907_rv.mp4	0.0	288.5569350719452	
56	244.81143593788147	movie	1		245	54.0	2.5	/experiments/knapen_AOT/AOT_stimuli/rescaled_final/1907_rv.mp4	0.0	289.3735148906708	2.500347137451172
56	245.5949900150299	pulse	1	t		54.0	2.5	/experiments/knapen_AOT/AOT_stimuli/rescaled_final/1907_rv.mp4	0.0	290.1570689678192	
56	247.19280004501343	pulse	1	t		54.0	2.5	/experiments/knapen_AOT/AOT_stimuli/rescaled_final/1907_rv.mp4	0.0	291.75487899780273	
56	247.31178307533264	fix_post	2		12	54.0	2.5	/experiments/knapen_AOT/AOT_stimuli/rescaled_final/1907_rv.mp4	0.0	291.87386202812195	0.10004806518554688
57	247.4118311405182	fix_pre	0		119	55.0	2.5	/experiments/knapen_AOT/AOT_stimuli/rescaled_final/1412_fw.mp4	0.0	291.9739100933075	0.9918038845062256
57	248.4036350250244	movie	1		243	55.0	2.5	/experiments/knapen_AOT/AOT_stimuli/rescaled_final/1412_fw.mp4	0.0	292.9657139778137	2.500338077545166
57	248.7957091331482	pulse	1	t		55.0	2.5	/experiments/knapen_AOT/AOT_stimuli/rescaled_final/1412_fw.mp4	0.0	293.3577880859375	
57	250.38841795921326	pulse	1	t		55.0	2.5	/experiments/knapen_AOT/AOT_stimuli/rescaled_final/1412_fw.mp4	0.0	294.95049691200256	
57	250.90397310256958	fix_post	2		12	55.0	2.5	/experiments/knapen_AOT/AOT_stimuli/rescaled_final/1412_fw.mp4	0.0	295.4660520553589	0.1000068187713623
58	251.00397992134094	fix_pre	0		120	56.0	2.5	blank	1.0	295.56605887413025	1.000298023223877
58	251.98853302001953	pulse	0	t		56.0	2.5	blank	1.0	296.55061197280884	
58	252.00427794456482	movie	1		301	56.0	2.5	blank	1.0	296.5663568973541	2.5085811614990234
58	253.58887600898743	pulse	1	t		56.0	2.5	blank	1.0	298.15095496177673	
58	254.51285910606384	fix_post	2		12	56.0	2.5	blank	1.0	299.07493805885315	0.10000991821289062
59	254.61286902427673	fix_pre	0		120	57.0	2.5	/experiments/knapen_AOT/AOT_stimuli/rescaled_final/0674_rv.mp4	0.0	299.17494797706604	1.0001471042633057
59	255.18882298469543	pulse	0	t		57.0	2.5	/experiments/knapen_AOT/AOT_stimuli/rescaled_final/0674_rv.mp4	0.0	299.75090193748474	
59	255.61301612854004	movie	1		244	57.0	2.5	/experiments/knapen_AOT/AOT_stimuli/rescaled_final/0674_rv.mp4	0.0	300.17509508132935	2.5003459453582764
59	256.79296708106995	pulse	1	t		57.0	2.5	/experiments/knapen_AOT/AOT_stimuli/rescaled_final/0674_rv.mp4	0.0	301.35504603385925	
59	258.1133620738983	fix_post	2		12	57.0	2.5	/experiments/knapen_AOT/AOT_stimuli/rescaled_final/0674_rv.mp4	0.0	302.6754410266876	0.10001993179321289
60	258.2133820056915	fix_pre	0		120	58.0	2.5	/experiments/knapen_AOT/AOT_stimuli/rescaled_final/0732_fw.mp4	0.0	302.77546095848083	1.0001580715179443
60	258.38852190971375	pulse	0	t		58.0	2.5	/experiments/knapen_AOT/AOT_stimuli/rescaled_final/0732_fw.mp4	0.0	302.95060086250305	
60	259.2135400772095	movie	1		246	58.0	2.5	/experiments/knapen_AOT/AOT_stimuli/rescaled_final/0732_fw.mp4	0.0	303.7756190299988	2.5003998279571533
60	259.988893032074	pulse	1	t		58.0	2.5	/experiments/knapen_AOT/AOT_stimuli/rescaled_final/0732_fw.mp4	0.0	304.5509719848633	
60	261.5890591144562	pulse	1	t		58.0	2.5	/experiments/knapen_AOT/AOT_stimuli/rescaled_final/0732_fw.mp4	0.0	306.1511380672455	
60	261.7139399051666	fix_post	2		12	58.0	2.5	/experiments/knapen_AOT/AOT_stimuli/rescaled_final/0732_fw.mp4	0.0	306.27601885795593	0.10002017021179199
61	261.8139600753784	fix_pre	0		119	59.0	2.5	/experiments/knapen_AOT/AOT_stimuli/rescaled_final/1377_rv.mp4	0.0	306.3760390281677	0.9918069839477539
61	262.8057670593262	movie	1		243	59.0	2.5	/experiments/knapen_AOT/AOT_stimuli/rescaled_final/1377_rv.mp4	0.0	307.3678460121155	2.500372886657715
61	263.1899211406708	pulse	1	t		59.0	2.5	/experiments/knapen_AOT/AOT_stimuli/rescaled_final/1377_rv.mp4	0.0	307.7520000934601	
61	264.78963112831116	pulse	1	t		59.0	2.5	/experiments/knapen_AOT/AOT_stimuli/rescaled_final/1377_rv.mp4	0.0	309.35171008110046	
61	265.3061399459839	fix_post	2		12	59.0	2.5	/experiments/knapen_AOT/AOT_stimuli/rescaled_final/1377_rv.mp4	0.0	309.8682188987732	0.10006308555603027
62	265.4062030315399	fix_pre	0		119	60.0	2.5	/experiments/knapen_AOT/AOT_stimuli/rescaled_final/1004_rv.mp4	0.0	309.9682819843292	0.991779088973999
62	266.3897490501404	pulse	0	t		60.0	2.5	/experiments/knapen_AOT/AOT_stimuli/rescaled_final/1004_rv.mp4	0.0	310.9518280029297	
62	266.3979821205139	movie	1		246	60.0	2.5	/experiments/knapen_AOT/AOT_stimuli/rescaled_final/1004_rv.mp4	0.0	310.9600610733032	2.5086917877197266
62	267.9948329925537	pulse	1	t		60.0	2.5	/experiments/knapen_AOT/AOT_stimuli/rescaled_final/1004_rv.mp4	0.0	312.556911945343	
62	268.90667390823364	fix_post	2		12	60.0	2.5	/experiments/knapen_AOT/AOT_stimuli/rescaled_final/1004_rv.mp4	0.0	313.46875286102295	0.10001015663146973
63	269.0066840648651	fix_pre	0		120	61.0	2.5	/experiments/knapen_AOT/AOT_stimuli/rescaled_final/1663_fw.mp4	0.0	313.5687630176544	1.0002028942108154
63	269.5902180671692	pulse	0	t		61.0	2.5	/experiments/knapen_AOT/AOT_stimuli/rescaled_final/1663_fw.mp4	0.0	314.1522970199585	
63	270.0068869590759	movie	1		244	61.0	2.5	/experiments/knapen_AOT/AOT_stimuli/rescaled_final/1663_fw.mp4	0.0	314.56896591186523	2.500349998474121
63	271.1906909942627	pulse	1	t		61.0	2.5	/experiments/knapen_AOT/AOT_stimuli/rescaled_final/1663_fw.mp4	0.0	315.752769947052	
63	272.50723695755005	fix_post	2		12	61.0	2.5	/experiments/knapen_AOT/AOT_stimuli/rescaled_final/1663_fw.mp4	0.0	317.06931591033936	0.09998416900634766
64	272.6072211265564	fix_pre	0		120	62.0	2.5	blank	1.0	317.1693000793457	1.0001399517059326
64	272.7907769680023	pulse	0	t		62.0	2.5	blank	1.0	317.3528559207916	
64	273.60736107826233	movie	1		300	62.0	2.5	blank	1.0	318.16944003105164	2.5004310607910156
64	274.390967130661	pulse	1	t		62.0	2.5	blank	1.0	318.9530460834503	
64	275.99115800857544	pulse	1	t		62.0	2.5	blank	1.0	320.55323696136475	
64	276.10779213905334	fix_post	2		12	62.0	2.5	blank	1.0	320.66987109184265	0.09997797012329102
65	276.20777010917664	fix_pre	0		119	63.0	2.5	/experiments/knapen_AOT/AOT_stimuli/rescaled_final/0427_rv.mp4	0.0	320.76984906196594	0.9918270111083984
65	277.19959712028503	movie	1		245	63.0	2.5	/experiments/knapen_AOT/AOT_stimuli/rescaled_final/0427_rv.mp4	0.0	321.76167607307434	2.500325918197632
65	277.5915219783783	pulse	1	t		63.0	2.5	/experiments/knapen_AOT/AOT_stimuli/rescaled_final/0427_rv.mp4	0.0	322.1536009311676	
65	279.191880941391	pulse	1	t		63.0	2.5	/experiments/knapen_AOT/AOT_stimuli/rescaled_final/0427_rv.mp4	0.0	323.7539598941803	
65	279.69992303848267	fix_post	2		12	63.0	2.5	/experiments/knapen_AOT/AOT_stimuli/rescaled_final/0427_rv.mp4	0.0	324.262001991272	0.10004806518554688
66	279.7999711036682	fix_pre	0		120	64.0	2.5	/experiments/knapen_AOT/AOT_stimuli/rescaled_final/0547_rv.mp4	0.0	324.3620500564575	1.000140905380249
66	280.7920069694519	pulse	0	t		64.0	2.5	/experiments/knapen_AOT/AOT_stimuli/rescaled_final/0547_rv.mp4	0.0	325.3540859222412	
66	280.80011200904846	movie	1		246	64.0	2.5	/experiments/knapen_AOT/AOT_stimuli/rescaled_final/0547_rv.mp4	0.0	325.36219096183777	2.5087199211120605
66	282.3926889896393	pulse	1	t		64.0	2.5	/experiments/knapen_AOT/AOT_stimuli/rescaled_final/0547_rv.mp4	0.0	326.9547679424286	
66	283.3088319301605	fix_post	2		12	64.0	2.5	/experiments/knapen_AOT/AOT_stimuli/rescaled_final/0547_rv.mp4	0.0	327.87091088294983	0.10000014305114746
67	283.40883207321167	fix_pre	0		120	65.0	2.5	/experiments/knapen_AOT/AOT_stimuli/rescaled_final/1188_rv.mp4	0.0	327.970911026001	1.0001468658447266
67	283.99243998527527	pulse	0	t		65.0	2.5	/experiments/knapen_AOT/AOT_stimuli/rescaled_final/1188_rv.mp4	0.0	328.5545189380646	
67	284.4089789390564	movie	1		244	65.0	2.5	/experiments/knapen_AOT/AOT_stimuli/rescaled_final/1188_rv.mp4	0.0	328.9710578918457	2.500432014465332
67	285.5928030014038	pulse	1	t		65.0	2.5	/experiments/knapen_AOT/AOT_stimuli/rescaled_final/1188_rv.mp4	0.0	330.1548819541931	
67	286.90941095352173	fix_post	2		12	65.0	2.5	/experiments/knapen_AOT/AOT_stimuli/rescaled_final/1188_rv.mp4	0.0	331.47148990631104	0.10002899169921875
68	287.00943994522095	fix_pre	0		120	66.0	2.5	/experiments/knapen_AOT/AOT_stimuli/rescaled_final/1498_fw.mp4	0.0	331.57151889801025	1.0000941753387451
68	287.19300603866577	pulse	0	t		66.0	2.5	/experiments/knapen_AOT/AOT_stimuli/rescaled_final/1498_fw.mp4	0.0	331.7550849914551	
68	288.0095341205597	movie	1		243	66.0	2.5	/experiments/knapen_AOT/AOT_stimuli/rescaled_final/1498_fw.mp4	0.0	332.571613073349	2.500372886657715
68	288.7931799888611	pulse	1	t		66.0	2.5	/experiments/knapen_AOT/AOT_stimuli/rescaled_final/1498_fw.mp4	0.0	333.3552589416504	
68	290.39322996139526	pulse	1	t		66.0	2.5	/experiments/knapen_AOT/AOT_stimuli/rescaled_final/1498_fw.mp4	0.0	334.95530891418457	
68	290.5099070072174	fix_post	2		12	66.0	2.5	/experiments/knapen_AOT/AOT_stimuli/rescaled_final/1498_fw.mp4	0.0	335.0719859600067	0.10000205039978027
69	290.6099090576172	fix_pre	0		118	67.0	2.5	/experiments/knapen_AOT/AOT_stimuli/rescaled_final/1157_fw.mp4	0.0	335.1719880104065	1.000166893005371
69	291.61007595062256	movie	1		244	67.0	2.5	/experiments/knapen_AOT/AOT_stimuli/rescaled_final/1157_fw.mp4	0.0	336.17215490341187	2.491997003555298
69	291.9950280189514	pulse	1	t		67.0	2.5	/experiments/knapen_AOT/AOT_stimuli/rescaled_final/1157_fw.mp4	0.0	336.5571069717407	
69	293.5940101146698	pulse	1	t		67.0	2.5	/experiments/knapen_AOT/AOT_stimuli/rescaled_final/1157_fw.mp4	0.0	338.1560890674591	
69	294.10207295417786	fix_post	2		12	67.0	2.5	/experiments/knapen_AOT/AOT_stimuli/rescaled_final/1157_fw.mp4	0.0	338.66415190696716	0.10004711151123047
70	294.2021200656891	fix_pre	0		120	68.0	2.5	/experiments/knapen_AOT/AOT_stimuli/rescaled_final/0964_rv.mp4	0.0	338.7641990184784	1.0002460479736328
70	295.19415807724	pulse	0	t		68.0	2.5	/experiments/knapen_AOT/AOT_stimuli/rescaled_final/0964_rv.mp4	0.0	339.7562370300293	
70	295.2023661136627	movie	1		245	68.0	2.5	/experiments/knapen_AOT/AOT_stimuli/rescaled_final/0964_rv.mp4	0.0	339.764445066452	2.508624792098999
70	296.7957260608673	pulse	1	t		68.0	2.5	/experiments/knapen_AOT/AOT_stimuli/rescaled_final/0964_rv.mp4	0.0	341.3578050136566	
70	297.7109909057617	fix_post	2		12	68.0	2.5	/experiments/knapen_AOT/AOT_stimuli/rescaled_final/0964_rv.mp4	0.0	342.273069858551	0.0999910831451416
71	297.81098198890686	fix_pre	0		120	69.0	2.5	blank	1.0	342.37306094169617	1.0002250671386719
71	298.39459705352783	pulse	0	t		69.0	2.5	blank	1.0	342.95667600631714	
71	298.81120705604553	movie	1		300	69.0	2.5	blank	1.0	343.37328600883484	2.5002989768981934
71	299.99488401412964	pulse	1	t		69.0	2.5	blank	1.0	344.55696296691895	
71	301.3115060329437	fix_post	2		12	69.0	2.5	blank	1.0	345.87358498573303	0.1000828742980957
72	301.4115889072418	fix_pre	0		120	70.0	2.5	/experiments/knapen_AOT/AOT_stimuli/rescaled_final/1463_rv.mp4	0.0	345.9736678600311	1.0001652240753174
72	301.59520411491394	pulse	0	t		70.0	2.5	/experiments/knapen_AOT/AOT_stimuli/rescaled_final/1463_rv.mp4	0.0	346.15728306770325	
72	302.41175413131714	movie	1		244	70.0	2.5	/experiments/knapen_AOT/AOT_stimuli/rescaled_final/1463_rv.mp4	0.0	346.97383308410645	2.5003299713134766
72	303.18804001808167	pulse	1	t		70.0	2.5	/experiments/knapen_AOT/AOT_stimuli/rescaled_final/1463_rv.mp4	0.0	347.750118970871	
72	304.7992949485779	pulse	1	t		70.0	2.5	/experiments/knapen_AOT/AOT_stimuli/rescaled_final/1463_rv.mp4	0.0	349.3613739013672	
72	304.9120841026306	fix_post	2		12	70.0	2.5	/experiments/knapen_AOT/AOT_stimuli/rescaled_final/1463_rv.mp4	0.0	349.4741630554199	0.09997391700744629
73	305.01205801963806	fix_pre	0		120	71.0	2.5	/experiments/knapen_AOT/AOT_stimuli/rescaled_final/1152_rv.mp4	0.0	349.57413697242737	1.0001769065856934
73	306.01223492622375	movie	1		243	71.0	2.5	/experiments/knapen_AOT/AOT_stimuli/rescaled_final/1152_rv.mp4	0.0	350.57431387901306	2.4920170307159424
73	306.39622712135315	pulse	1	t		71.0	2.5	/experiments/knapen_AOT/AOT_stimuli/rescaled_final/1152_rv.mp4	0.0	350.95830607414246	
73	307.9886751174927	pulse	1	t		71.0	2.5	/experiments/knapen_AOT/AOT_stimuli/rescaled_final/1152_rv.mp4	0.0	352.550754070282	
73	308.5042519569397	fix_post	2		12	71.0	2.5	/experiments/knapen_AOT/AOT_stimuli/rescaled_final/1152_rv.mp4	0.0	353.066330909729	0.10007500648498535
74	308.6043269634247	fix_pre	0		119	72.0	2.5	/experiments/knapen_AOT/AOT_stimuli/rescaled_final/1765_fw.mp4	0.0	353.166405916214	0.9917550086975098
74	309.5879669189453	pulse	0	t		72.0	2.5	/experiments/knapen_AOT/AOT_stimuli/rescaled_final/1765_fw.mp4	0.0	354.1500458717346	
74	309.5960819721222	movie	1		244	72.0	2.5	/experiments/knapen_AOT/AOT_stimuli/rescaled_final/1765_fw.mp4	0.0	354.1581609249115	2.5087080001831055
74	311.188894033432	pulse	1	t		72.0	2.5	/experiments/knapen_AOT/AOT_stimuli/rescaled_final/1765_fw.mp4	0.0	355.7509729862213	
74	312.1047899723053	fix_post	2		12	72.0	2.5	/experiments/knapen_AOT/AOT_stimuli/rescaled_final/1765_fw.mp4	0.0	356.6668689250946	0.10005307197570801
75	312.204843044281	fix_pre	0		120	73.0	2.5	/experiments/knapen_AOT/AOT_stimuli/rescaled_final/1222_fw.mp4	0.0	356.7669219970703	1.0001380443572998
75	312.7883949279785	pulse	0	t		73.0	2.5	/experiments/knapen_AOT/AOT_stimuli/rescaled_final/1222_fw.mp4	0.0	357.3504738807678	
75	313.2049810886383	movie	1		243	73.0	2.5	/experiments/knapen_AOT/AOT_stimuli/rescaled_final/1222_fw.mp4	0.0	357.7670600414276	2.5003809928894043
75	314.3886880874634	pulse	1	t		73.0	2.5	/experiments/knapen_AOT/AOT_stimuli/rescaled_final/1222_fw.mp4	0.0	358.9507670402527	
75	315.7053620815277	fix_post	2		12	73.0	2.5	/experiments/knapen_AOT/AOT_stimuli/rescaled_final/1222_fw.mp4	0.0	360.267441034317	0.10000085830688477
76	315.8053629398346	fix_pre	0		120	74.0	2.5	/experiments/knapen_AOT/AOT_stimuli/rescaled_final/0678_fw.mp4	0.0	360.3674418926239	1.0001499652862549
76	315.98884892463684	pulse	0	t		74.0	2.5	/experiments/knapen_AOT/AOT_stimuli/rescaled_final/0678_fw.mp4	0.0	360.55092787742615	
76	316.80551290512085	movie	1		244	74.0	2.5	/experiments/knapen_AOT/AOT_stimuli/rescaled_final/0678_fw.mp4	0.0	361.36759185791016	2.5003561973571777
76	317.5891160964966	pulse	1	t		74.0	2.5	/experiments/knapen_AOT/AOT_stimuli/rescaled_final/0678_fw.mp4	0.0	362.1511950492859	
76	319.1894381046295	pulse	1	t		74.0	2.5	/experiments/knapen_AOT/AOT_stimuli/rescaled_final/0678_fw.mp4	0.0	363.7515170574188	
76	319.305869102478	fix_post	2		12	74.0	2.5	/experiments/knapen_AOT/AOT_stimuli/rescaled_final/0678_fw.mp4	0.0	363.86794805526733	0.10001802444458008
77	319.4058871269226	fix_pre	0		119	75.0	2.5	blank	1.0	363.9679660797119	0.9918029308319092
77	320.3976900577545	movie	1		300	75.0	2.5	blank	1.0	364.9597690105438	2.5003929138183594
77	320.7895939350128	pulse	1	t		75.0	2.5	blank	1.0	365.3516728878021	
77	322.38989210128784	pulse	1	t		75.0	2.5	blank	1.0	366.95197105407715	
77	322.8980829715729	fix_post	2		12	75.0	2.5	blank	1.0	367.4601619243622	0.10007405281066895
78	322.99815702438354	fix_pre	0		120	76.0	2.5	/experiments/knapen_AOT/AOT_stimuli/rescaled_final/1049_fw.mp4	0.0	367.56023597717285	1.000180959701538
78	323.99004793167114	pulse	0	t		76.0	2.5	/experiments/knapen_AOT/AOT_stimuli/rescaled_final/1049_fw.mp4	0.0	368.55212688446045	
78	323.9983379840851	movie	1		245	76.0	2.5	/experiments/knapen_AOT/AOT_stimuli/rescaled_final/1049_fw.mp4	0.0	368.5604169368744	2.5086100101470947
78	325.5909469127655	pulse	1	t		76.0	2.5	/experiments/knapen_AOT/AOT_stimuli/rescaled_final/1049_fw.mp4	0.0	370.1530258655548	
78	326.5069479942322	fix_post	2		12	76.0	2.5	/experiments/knapen_AOT/AOT_stimuli/rescaled_final/1049_fw.mp4	0.0	371.0690269470215	0.10001611709594727
79	326.6069641113281	fix_pre	0		120	77.0	2.5	/experiments/knapen_AOT/AOT_stimuli/rescaled_final/0776_rv.mp4	0.0	371.16904306411743	1.0001928806304932
79	327.1906599998474	pulse	0	t		77.0	2.5	/experiments/knapen_AOT/AOT_stimuli/rescaled_final/0776_rv.mp4	0.0	371.7527389526367	
79	327.6071569919586	movie	1		244	77.0	2.5	/experiments/knapen_AOT/AOT_stimuli/rescaled_final/0776_rv.mp4	0.0	372.1692359447479	2.500303030014038
79	328.7908821105957	pulse	1	t		77.0	2.5	/experiments/knapen_AOT/AOT_stimuli/rescaled_final/0776_rv.mp4	0.0	373.352961063385	
79	330.10746002197266	fix_post	2		12	77.0	2.5	/experiments/knapen_AOT/AOT_stimuli/rescaled_final/0776_rv.mp4	0.0	374.66953897476196	0.10004901885986328
80	330.2075090408325	fix_pre	0		120	78.0	2.5	/experiments/knapen_AOT/AOT_stimuli/rescaled_final/0678_fw.mp4	0.0	374.7695879936218	1.0002410411834717
80	330.39098596572876	pulse	0	t		78.0	2.5	/experiments/knapen_AOT/AOT_stimuli/rescaled_final/0678_fw.mp4	0.0	374.95306491851807	
80	331.207750082016	movie	1		244	78.0	2.5	/experiments/knapen_AOT/AOT_stimuli/rescaled_final/0678_fw.mp4	0.0	375.7698290348053	2.5002989768981934
80	331.9913229942322	pulse	1	t		78.0	2.5	/experiments/knapen_AOT/AOT_stimuli/rescaled_final/0678_fw.mp4	0.0	376.5534019470215	
80	333.5914800167084	pulse	1	t		78.0	2.5	/experiments/knapen_AOT/AOT_stimuli/rescaled_final/0678_fw.mp4	0.0	378.1535589694977	
80	333.7080490589142	fix_post	2		12	78.0	2.5	/experiments/knapen_AOT/AOT_stimuli/rescaled_final/0678_fw.mp4	0.0	378.2701280117035	0.09999799728393555
81	333.8080470561981	fix_pre	0		119	79.0	2.5	/experiments/knapen_AOT/AOT_stimuli/rescaled_final/2167_fw.mp4	0.0	378.3701260089874	0.9918289184570312
81	334.79987597465515	movie	1		243	79.0	2.5	/experiments/knapen_AOT/AOT_stimuli/rescaled_final/2167_fw.mp4	0.0	379.36195492744446	2.5003890991210938
81	335.1918511390686	pulse	1	t		79.0	2.5	/experiments/knapen_AOT/AOT_stimuli/rescaled_final/2167_fw.mp4	0.0	379.7539300918579	
81	336.79201793670654	pulse	1	t		79.0	2.5	/experiments/knapen_AOT/AOT_stimuli/rescaled_final/2167_fw.mp4	0.0	381.35409688949585	
81	337.30026507377625	fix_post	2		12	79.0	2.5	/experiments/knapen_AOT/AOT_stimuli/rescaled_final/2167_fw.mp4	0.0	381.86234402656555	0.09999489784240723
82	337.40025997161865	fix_pre	0		120	80.0	2.5	/experiments/knapen_AOT/AOT_stimuli/rescaled_final/2131_fw.mp4	0.0	381.96233892440796	1.0002031326293945
82	338.3922629356384	pulse	0	t		80.0	2.5	/experiments/knapen_AOT/AOT_stimuli/rescaled_final/2131_fw.mp4	0.0	382.95434188842773	
82	338.40046310424805	movie	1		245	80.0	2.5	/experiments/knapen_AOT/AOT_stimuli/rescaled_final/2131_fw.mp4	0.0	382.96254205703735	2.508617877960205
82	339.99355912208557	pulse	1	t		80.0	2.5	/experiments/knapen_AOT/AOT_stimuli/rescaled_final/2131_fw.mp4	0.0	384.5556380748749	
82	340.90908098220825	fix_post	2		12	80.0	2.5	/experiments/knapen_AOT/AOT_stimuli/rescaled_final/2131_fw.mp4	0.0	385.47115993499756	0.10005998611450195
83	341.00914096832275	fix_pre	0		120	81.0	2.5	/experiments/knapen_AOT/AOT_stimuli/rescaled_final/1638_rv.mp4	0.0	385.57121992111206	1.0001611709594727
83	341.5928330421448	pulse	0	t		81.0	2.5	/experiments/knapen_AOT/AOT_stimuli/rescaled_final/1638_rv.mp4	0.0	386.1549119949341	
83	342.0093021392822	movie	1		244	81.0	2.5	/experiments/knapen_AOT/AOT_stimuli/rescaled_final/1638_rv.mp4	0.0	386.57138109207153	2.500330924987793
83	343.19305396080017	pulse	1	t		81.0	2.5	/experiments/knapen_AOT/AOT_stimuli/rescaled_final/1638_rv.mp4	0.0	387.7551329135895	
83	344.50963306427	fix_post	2		12	81.0	2.5	/experiments/knapen_AOT/AOT_stimuli/rescaled_final/1638_rv.mp4	0.0	389.0717120170593	0.1000509262084961
84	344.6096839904785	fix_pre	0		120	82.0	2.5	blank	1.0	389.1717629432678	1.0001311302185059
84	344.79316091537476	pulse	0	t		82.0	2.5	blank	1.0	389.35523986816406	
84	345.609815120697	movie	1		300	82.0	2.5	blank	1.0	390.1718940734863	2.500375986099243
84	346.39351511001587	pulse	1	t		82.0	2.5	blank	1.0	390.9555940628052	
84	347.9938049316406	pulse	1	t		82.0	2.5	blank	1.0	392.55588388442993	
84	348.11019110679626	fix_post	2		12	82.0	2.5	blank	1.0	392.67227005958557	0.10005497932434082
85	348.2102460861206	fix_pre	0		120	83.0	2.5	/experiments/knapen_AOT/AOT_stimuli/rescaled_final/1839_fw.mp4	0.0	392.7723250389099	1.0001029968261719
85	349.2103490829468	movie	1		241	83.0	2.5	/experiments/knapen_AOT/AOT_stimuli/rescaled_final/1839_fw.mp4	0.0	393.7724280357361	2.4920918941497803
85	349.59437108039856	pulse	1	t		83.0	2.5	/experiments/knapen_AOT/AOT_stimuli/rescaled_final/1839_fw.mp4	0.0	394.15645003318787	
85	351.19413900375366	pulse	1	t		83.0	2.5	/experiments/knapen_AOT/AOT_stimuli/rescaled_final/1839_fw.mp4	0.0	395.75621795654297	
85	351.70244097709656	fix_post	2		12	83.0	2.5	/experiments/knapen_AOT/AOT_stimuli/rescaled_final/1839_fw.mp4	0.0	396.26451992988586	0.09999799728393555
87	351.8024389743805	stim	0		1716					396.3645179271698	14.302216053009033
87	352.7943820953369	pulse	0	t						397.3564610481262	
87	354.3946919441223	pulse	0	t						398.9567708969116	
87	355.99495100975037	pulse	0	t						400.5570299625397	
87	357.59513092041016	pulse	0	t						402.15720987319946	
87	359.1953139305115	pulse	0	t						403.7573928833008	
87	360.79571509361267	pulse	0	t						405.357794046402	
87	362.38846707344055	pulse	0	t						406.95054602622986	
87	363.98870611190796	pulse	0	t						408.55078506469727	
87	365.5890350341797	pulse	0	t						410.151113986969	
