trial_nr	onset	event_type	phase	response	nr_frames	movie_index	movie_duration	movie_file	blank	onset_abs	duration
0	0.14983797073364258	stim	0		23					19.796563148498535	0.19176697731018066
0	0.3334848880767822	response	0	space						19.980210065841675	
1	0.34160494804382324	stim	0		4703					19.988330125808716	39.191444873809814
1	39.52590584754944	pulse	0	t						59.17263102531433	
1	39.53304982185364	stim	1		1717					59.17977499961853	14.308624029159546
1	41.12485980987549	pulse	1	t						60.77158498764038	
1	42.72485899925232	pulse	1	t						62.37158417701721	
1	44.32483792304993	pulse	1	t						63.97156310081482	
1	45.92482781410217	pulse	1	t						65.57155299186707	
1	47.52488589286804	pulse	1	t						67.17161107063293	
1	49.12480902671814	pulse	1	t						68.77153420448303	
1	50.724385023117065	pulse	1	t						70.37111020088196	
1	52.32495903968811	pulse	1	t						71.971684217453	
2	53.841673851013184	fix_pre	0		11	0.0	2.5	/experiments/AOT/AOT_stimuli/rescaled_final/1422_rv.mp4	0.0	73.48839902877808	0.09124112129211426
2	53.92474603652954	pulse	0	t		0.0	2.5	/experiments/AOT/AOT_stimuli/rescaled_final/1422_rv.mp4	0.0	73.57147121429443	
2	53.9329149723053	movie	1		245	0.0	2.5	/experiments/AOT/AOT_stimuli/rescaled_final/1422_rv.mp4	0.0	73.57964015007019	2.5084290504455566
2	55.524850845336914	pulse	1	t		0.0	2.5	/experiments/AOT/AOT_stimuli/rescaled_final/1422_rv.mp4	0.0	75.1715760231018	
2	56.441344022750854	fix_post	2		12	0.0	2.5	/experiments/AOT/AOT_stimuli/rescaled_final/1422_rv.mp4	0.0	76.08806920051575	0.09989190101623535
3	56.54123592376709	fix_pre	0		120	1.0	2.5	/experiments/AOT/AOT_stimuli/rescaled_final/1040_fw.mp4	0.0	76.18796110153198	1.0001389980316162
3	57.124780893325806	pulse	0	t		1.0	2.5	/experiments/AOT/AOT_stimuli/rescaled_final/1040_fw.mp4	0.0	76.7715060710907	
3	57.541374921798706	movie	1		243	1.0	2.5	/experiments/AOT/AOT_stimuli/rescaled_final/1040_fw.mp4	0.0	77.1881000995636	2.4998090267181396
3	58.72477698326111	pulse	1	t		1.0	2.5	/experiments/AOT/AOT_stimuli/rescaled_final/1040_fw.mp4	0.0	78.371502161026	
3	60.041183948516846	fix_post	2		12	1.0	2.5	/experiments/AOT/AOT_stimuli/rescaled_final/1040_fw.mp4	0.0	79.68790912628174	0.10007190704345703
4	60.1412558555603	fix_pre	0		120	2.0	2.5	/experiments/AOT/AOT_stimuli/rescaled_final/0057_rv.mp4	0.0	79.7879810333252	0.9999680519104004
4	60.3247389793396	pulse	0	t		2.0	2.5	/experiments/AOT/AOT_stimuli/rescaled_final/0057_rv.mp4	0.0	79.97146415710449	
4	61.1412239074707	movie	1		246	2.0	2.5	/experiments/AOT/AOT_stimuli/rescaled_final/0057_rv.mp4	0.0	80.7879490852356	2.499951124191284
4	61.92468786239624	pulse	1	t		2.0	2.5	/experiments/AOT/AOT_stimuli/rescaled_final/0057_rv.mp4	0.0	81.57141304016113	
4	63.52340483665466	pulse	1	t		2.0	2.5	/experiments/AOT/AOT_stimuli/rescaled_final/0057_rv.mp4	0.0	83.17013001441956	
4	63.64117503166199	fix_post	2		12	2.0	2.5	/experiments/AOT/AOT_stimuli/rescaled_final/0057_rv.mp4	0.0	83.28790020942688	0.10001182556152344
5	63.74118685722351	fix_pre	0		120	3.0	2.5	/experiments/AOT/AOT_stimuli/rescaled_final/1095_fw.mp4	0.0	83.3879120349884	1.000002145767212
5	64.74118900299072	movie	1		247	3.0	2.5	/experiments/AOT/AOT_stimuli/rescaled_final/1095_fw.mp4	0.0	84.38791418075562	2.5000648498535156
5	65.12415790557861	pulse	1	t		3.0	2.5	/experiments/AOT/AOT_stimuli/rescaled_final/1095_fw.mp4	0.0	84.7708830833435	
5	66.72466993331909	pulse	1	t		3.0	2.5	/experiments/AOT/AOT_stimuli/rescaled_final/1095_fw.mp4	0.0	86.37139511108398	
5	67.24125385284424	fix_post	2		12	3.0	2.5	/experiments/AOT/AOT_stimuli/rescaled_final/1095_fw.mp4	0.0	86.88797903060913	0.09999203681945801
6	67.3412458896637	fix_pre	0		119	4.0	2.5	/experiments/AOT/AOT_stimuli/rescaled_final/0939_fw.mp4	0.0	86.98797106742859	0.9916119575500488
6	68.32465291023254	pulse	0	t		4.0	2.5	/experiments/AOT/AOT_stimuli/rescaled_final/0939_fw.mp4	0.0	87.97137808799744	
6	68.33285784721375	movie	1		246	4.0	2.5	/experiments/AOT/AOT_stimuli/rescaled_final/0939_fw.mp4	0.0	87.97958302497864	2.508296012878418
6	69.92415285110474	pulse	1	t		4.0	2.5	/experiments/AOT/AOT_stimuli/rescaled_final/0939_fw.mp4	0.0	89.57087802886963	
6	70.84115386009216	fix_post	2		12	4.0	2.5	/experiments/AOT/AOT_stimuli/rescaled_final/0939_fw.mp4	0.0	90.48787903785706	0.09963202476501465
7	70.94078588485718	fix_pre	0		120	5.0	2.5	/experiments/AOT/AOT_stimuli/rescaled_final/1528_fw.mp4	0.0	90.58751106262207	1.0004141330718994
7	71.52471590042114	pulse	0	t		5.0	2.5	/experiments/AOT/AOT_stimuli/rescaled_final/1528_fw.mp4	0.0	91.17144107818604	
7	71.94120001792908	movie	1		247	5.0	2.5	/experiments/AOT/AOT_stimuli/rescaled_final/1528_fw.mp4	0.0	91.58792519569397	2.499570846557617
7	73.12480902671814	pulse	1	t		5.0	2.5	/experiments/AOT/AOT_stimuli/rescaled_final/1528_fw.mp4	0.0	92.77153420448303	
7	74.4407708644867	fix_post	2		12	5.0	2.5	/experiments/AOT/AOT_stimuli/rescaled_final/1528_fw.mp4	0.0	94.08749604225159	0.10038113594055176
8	74.54115200042725	fix_pre	0		120	6.0	2.5	/experiments/AOT/AOT_stimuli/rescaled_final/1628_fw.mp4	0.0	94.18787717819214	1.000053882598877
8	74.72462892532349	pulse	0	t		6.0	2.5	/experiments/AOT/AOT_stimuli/rescaled_final/1628_fw.mp4	0.0	94.37135410308838	
8	75.54120588302612	movie	1		243	6.0	2.5	/experiments/AOT/AOT_stimuli/rescaled_final/1628_fw.mp4	0.0	95.18793106079102	2.499514102935791
8	76.32469391822815	pulse	1	t		6.0	2.5	/experiments/AOT/AOT_stimuli/rescaled_final/1628_fw.mp4	0.0	95.97141909599304	
8	77.92313599586487	pulse	1	t		6.0	2.5	/experiments/AOT/AOT_stimuli/rescaled_final/1628_fw.mp4	0.0	97.56986117362976	
8	78.04071998596191	fix_post	2		12	6.0	2.5	/experiments/AOT/AOT_stimuli/rescaled_final/1628_fw.mp4	0.0	97.6874451637268	0.10047388076782227
9	78.14119386672974	fix_pre	0		120	7.0	2.5	blank	1.0	97.78791904449463	0.9999880790710449
9	79.14118194580078	movie	1		300	7.0	2.5	blank	1.0	98.78790712356567	2.499558925628662
9	79.52461290359497	pulse	1	t		7.0	2.5	blank	1.0	99.17133808135986	
9	81.12461400032043	pulse	1	t		7.0	2.5	blank	1.0	100.77133917808533	
9	81.64074087142944	fix_post	2		12	7.0	2.5	blank	1.0	101.28746604919434	0.10036301612854004
10	81.74110388755798	fix_pre	0		119	8.0	2.5	/experiments/AOT/AOT_stimuli/rescaled_final/1528_rv.mp4	0.0	101.38782906532288	0.9916620254516602
10	82.72464299201965	pulse	0	t		8.0	2.5	/experiments/AOT/AOT_stimuli/rescaled_final/1528_rv.mp4	0.0	102.37136816978455	
10	82.73276591300964	movie	1		248	8.0	2.5	/experiments/AOT/AOT_stimuli/rescaled_final/1528_rv.mp4	0.0	102.37949109077454	2.5083749294281006
10	84.32495498657227	pulse	1	t		8.0	2.5	/experiments/AOT/AOT_stimuli/rescaled_final/1528_rv.mp4	0.0	103.97168016433716	
10	85.24114084243774	fix_post	2		12	8.0	2.5	/experiments/AOT/AOT_stimuli/rescaled_final/1528_rv.mp4	0.0	104.88786602020264	0.0995640754699707
11	85.34070491790771	fix_pre	0		120	9.0	2.5	/experiments/AOT/AOT_stimuli/rescaled_final/1248_fw.mp4	0.0	104.98743009567261	1.0003581047058105
11	85.92583990097046	pulse	0	t		9.0	2.5	/experiments/AOT/AOT_stimuli/rescaled_final/1248_fw.mp4	0.0	105.57256507873535	
11	86.34106302261353	movie	1		246	9.0	2.5	/experiments/AOT/AOT_stimuli/rescaled_final/1248_fw.mp4	0.0	105.98778820037842	2.4996399879455566
11	87.52469682693481	pulse	1	t		9.0	2.5	/experiments/AOT/AOT_stimuli/rescaled_final/1248_fw.mp4	0.0	107.1714220046997	
11	88.84070301055908	fix_post	2		12	9.0	2.5	/experiments/AOT/AOT_stimuli/rescaled_final/1248_fw.mp4	0.0	108.48742818832397	0.09992599487304688
12	88.94062900543213	fix_pre	0		120	10.0	2.5	/experiments/AOT/AOT_stimuli/rescaled_final/1201_rv.mp4	0.0	108.58735418319702	1.0004909038543701
12	89.12460494041443	pulse	0	t		10.0	2.5	/experiments/AOT/AOT_stimuli/rescaled_final/1201_rv.mp4	0.0	108.77133011817932	
12	89.9411199092865	movie	1		244	10.0	2.5	/experiments/AOT/AOT_stimuli/rescaled_final/1201_rv.mp4	0.0	109.58784508705139	2.499998092651367
12	90.72465801239014	pulse	1	t		10.0	2.5	/experiments/AOT/AOT_stimuli/rescaled_final/1201_rv.mp4	0.0	110.37138319015503	
12	92.32325482368469	pulse	1	t		10.0	2.5	/experiments/AOT/AOT_stimuli/rescaled_final/1201_rv.mp4	0.0	111.96998000144958	
12	92.44111800193787	fix_post	2		12	10.0	2.5	/experiments/AOT/AOT_stimuli/rescaled_final/1201_rv.mp4	0.0	112.08784317970276	0.0999448299407959
13	92.54106283187866	fix_pre	0		120	11.0	2.5	/experiments/AOT/AOT_stimuli/rescaled_final/0954_fw.mp4	0.0	112.18778800964355	0.999953031539917
13	93.54101586341858	movie	1		244	11.0	2.5	/experiments/AOT/AOT_stimuli/rescaled_final/0954_fw.mp4	0.0	113.18774104118347	2.5001280307769775
13	93.924320936203	pulse	1	t		11.0	2.5	/experiments/AOT/AOT_stimuli/rescaled_final/0954_fw.mp4	0.0	113.5710461139679	
13	95.52460789680481	pulse	1	t		11.0	2.5	/experiments/AOT/AOT_stimuli/rescaled_final/0954_fw.mp4	0.0	115.1713330745697	
13	96.04114389419556	fix_post	2		12	11.0	2.5	/experiments/AOT/AOT_stimuli/rescaled_final/0954_fw.mp4	0.0	115.68786907196045	0.10001897811889648
14	96.14116287231445	fix_pre	0		119	12.0	2.5	/experiments/AOT/AOT_stimuli/rescaled_final/0585_rv.mp4	0.0	115.78788805007935	0.9915950298309326
14	97.12452793121338	pulse	0	t		12.0	2.5	/experiments/AOT/AOT_stimuli/rescaled_final/0585_rv.mp4	0.0	116.77125310897827	
14	97.13275790214539	movie	1		244	12.0	2.5	/experiments/AOT/AOT_stimuli/rescaled_final/0585_rv.mp4	0.0	116.77948307991028	2.508333921432495
14	98.72450304031372	pulse	1	t		12.0	2.5	/experiments/AOT/AOT_stimuli/rescaled_final/0585_rv.mp4	0.0	118.37122821807861	
14	99.64109182357788	fix_post	2		12	12.0	2.5	/experiments/AOT/AOT_stimuli/rescaled_final/0585_rv.mp4	0.0	119.28781700134277	0.09992313385009766
15	99.74101495742798	fix_pre	0		120	13.0	2.5	/experiments/AOT/AOT_stimuli/rescaled_final/2171_rv.mp4	0.0	119.38774013519287	1.0000278949737549
15	100.32464098930359	pulse	0	t		13.0	2.5	/experiments/AOT/AOT_stimuli/rescaled_final/2171_rv.mp4	0.0	119.97136616706848	
15	100.74104285240173	movie	1		243	13.0	2.5	/experiments/AOT/AOT_stimuli/rescaled_final/2171_rv.mp4	0.0	120.38776803016663	2.4999911785125732
15	101.92467784881592	pulse	1	t		13.0	2.5	/experiments/AOT/AOT_stimuli/rescaled_final/2171_rv.mp4	0.0	121.57140302658081	
15	103.2410340309143	fix_post	2		12	13.0	2.5	/experiments/AOT/AOT_stimuli/rescaled_final/2171_rv.mp4	0.0	122.8877592086792	0.10001587867736816
16	103.34104990959167	fix_pre	0		120	14.0	2.5	blank	1.0	122.98777508735657	0.9999489784240723
16	103.52463793754578	pulse	0	t		14.0	2.5	blank	1.0	123.17136311531067	
16	104.34099888801575	movie	1		300	14.0	2.5	blank	1.0	123.98772406578064	2.4996039867401123
16	105.12456798553467	pulse	1	t		14.0	2.5	blank	1.0	124.77129316329956	
16	106.72410583496094	pulse	1	t		14.0	2.5	blank	1.0	126.37083101272583	
16	106.84060287475586	fix_post	2		12	14.0	2.5	blank	1.0	126.48732805252075	0.10045194625854492
17	106.9410548210144	fix_pre	0		120	15.0	2.5	/experiments/AOT/AOT_stimuli/rescaled_final/1784_rv.mp4	0.0	126.5877799987793	0.999744176864624
17	107.94079899787903	movie	1		245	15.0	2.5	/experiments/AOT/AOT_stimuli/rescaled_final/1784_rv.mp4	0.0	127.58752417564392	2.500260829925537
17	108.3238468170166	pulse	1	t		15.0	2.5	/experiments/AOT/AOT_stimuli/rescaled_final/1784_rv.mp4	0.0	127.9705719947815	
17	109.92442798614502	pulse	1	t		15.0	2.5	/experiments/AOT/AOT_stimuli/rescaled_final/1784_rv.mp4	0.0	129.5711531639099	
17	110.44105982780457	fix_post	2		12	15.0	2.5	/experiments/AOT/AOT_stimuli/rescaled_final/1784_rv.mp4	0.0	130.08778500556946	0.09997701644897461
18	110.54103684425354	fix_pre	0		119	16.0	2.5	/experiments/AOT/AOT_stimuli/rescaled_final/1140_rv.mp4	0.0	130.18776202201843	0.9917140007019043
18	111.52462792396545	pulse	0	t		16.0	2.5	/experiments/AOT/AOT_stimuli/rescaled_final/1140_rv.mp4	0.0	131.17135310173035	
18	111.53275084495544	movie	1		246	16.0	2.5	/experiments/AOT/AOT_stimuli/rescaled_final/1140_rv.mp4	0.0	131.17947602272034	2.508202075958252
18	113.12416481971741	pulse	1	t		16.0	2.5	/experiments/AOT/AOT_stimuli/rescaled_final/1140_rv.mp4	0.0	132.7708899974823	
18	114.0409529209137	fix_post	2		12	16.0	2.5	/experiments/AOT/AOT_stimuli/rescaled_final/1140_rv.mp4	0.0	133.6876780986786	0.10006189346313477
19	114.14101481437683	fix_pre	0		120	17.0	2.5	/experiments/AOT/AOT_stimuli/rescaled_final/1956_rv.mp4	0.0	133.78773999214172	0.9999430179595947
19	114.72447395324707	pulse	0	t		17.0	2.5	/experiments/AOT/AOT_stimuli/rescaled_final/1956_rv.mp4	0.0	134.37119913101196	
19	115.14095783233643	movie	1		245	17.0	2.5	/experiments/AOT/AOT_stimuli/rescaled_final/1956_rv.mp4	0.0	134.78768301010132	2.499601125717163
19	116.32456302642822	pulse	1	t		17.0	2.5	/experiments/AOT/AOT_stimuli/rescaled_final/1956_rv.mp4	0.0	135.97128820419312	
19	117.64055895805359	fix_post	2		12	17.0	2.5	/experiments/AOT/AOT_stimuli/rescaled_final/1956_rv.mp4	0.0	137.28728413581848	0.10036802291870117
20	117.74092698097229	fix_pre	0		120	18.0	2.5	/experiments/AOT/AOT_stimuli/rescaled_final/0665_rv.mp4	0.0	137.38765215873718	1.000053882598877
20	117.92442584037781	pulse	0	t		18.0	2.5	/experiments/AOT/AOT_stimuli/rescaled_final/0665_rv.mp4	0.0	137.5711510181427	
20	118.74098086357117	movie	1		244	18.0	2.5	/experiments/AOT/AOT_stimuli/rescaled_final/0665_rv.mp4	0.0	138.38770604133606	2.499969005584717
20	119.52439904212952	pulse	1	t		18.0	2.5	/experiments/AOT/AOT_stimuli/rescaled_final/0665_rv.mp4	0.0	139.1711242198944	
20	121.1227970123291	pulse	1	t		18.0	2.5	/experiments/AOT/AOT_stimuli/rescaled_final/0665_rv.mp4	0.0	140.769522190094	
20	121.24094986915588	fix_post	2		12	18.0	2.5	/experiments/AOT/AOT_stimuli/rescaled_final/0665_rv.mp4	0.0	140.88767504692078	0.10012698173522949
21	121.34107685089111	fix_pre	0		120	19.0	2.5	/experiments/AOT/AOT_stimuli/rescaled_final/1248_rv.mp4	0.0	140.987802028656	0.999873161315918
21	122.34095001220703	movie	1		243	19.0	2.5	/experiments/AOT/AOT_stimuli/rescaled_final/1248_rv.mp4	0.0	141.98767518997192	2.499971866607666
21	122.72549295425415	pulse	1	t		19.0	2.5	/experiments/AOT/AOT_stimuli/rescaled_final/1248_rv.mp4	0.0	142.37221813201904	
21	124.32440900802612	pulse	1	t		19.0	2.5	/experiments/AOT/AOT_stimuli/rescaled_final/1248_rv.mp4	0.0	143.97113418579102	
21	124.8409218788147	fix_post	2		12	19.0	2.5	/experiments/AOT/AOT_stimuli/rescaled_final/1248_rv.mp4	0.0	144.4876470565796	0.0999910831451416
22	124.94091296195984	fix_pre	0		119	20.0	2.5	blank	1.0	144.58763813972473	0.9917068481445312
22	125.92443585395813	pulse	0	t		20.0	2.5	blank	1.0	145.57116103172302	
22	125.93261981010437	movie	1		301	20.0	2.5	blank	1.0	145.57934498786926	2.5083250999450684
22	127.52440690994263	pulse	1	t		20.0	2.5	blank	1.0	147.17113208770752	
22	128.44094491004944	fix_post	2		12	20.0	2.5	blank	1.0	148.08767008781433	0.09995102882385254
23	128.5408959388733	fix_pre	0		120	21.0	2.5	/experiments/AOT/AOT_stimuli/rescaled_final/1316_fw.mp4	0.0	148.18762111663818	0.9999949932098389
23	129.1243920326233	pulse	0	t		21.0	2.5	/experiments/AOT/AOT_stimuli/rescaled_final/1316_fw.mp4	0.0	148.77111721038818	
23	129.54089093208313	movie	1		245	21.0	2.5	/experiments/AOT/AOT_stimuli/rescaled_final/1316_fw.mp4	0.0	149.18761610984802	2.499974012374878
23	130.72463488578796	pulse	1	t		21.0	2.5	/experiments/AOT/AOT_stimuli/rescaled_final/1316_fw.mp4	0.0	150.37136006355286	
23	132.040864944458	fix_post	2		12	21.0	2.5	/experiments/AOT/AOT_stimuli/rescaled_final/1316_fw.mp4	0.0	151.6875901222229	0.10003805160522461
24	132.14090299606323	fix_pre	0		120	22.0	2.5	/experiments/AOT/AOT_stimuli/rescaled_final/1390_rv.mp4	0.0	151.78762817382812	1.000035047531128
24	132.32438898086548	pulse	0	t		22.0	2.5	/experiments/AOT/AOT_stimuli/rescaled_final/1390_rv.mp4	0.0	151.97111415863037	
24	133.14093804359436	movie	1		245	22.0	2.5	/experiments/AOT/AOT_stimuli/rescaled_final/1390_rv.mp4	0.0	152.78766322135925	2.499908924102783
24	133.92433190345764	pulse	1	t		22.0	2.5	/experiments/AOT/AOT_stimuli/rescaled_final/1390_rv.mp4	0.0	153.57105708122253	
24	135.52267003059387	pulse	1	t		22.0	2.5	/experiments/AOT/AOT_stimuli/rescaled_final/1390_rv.mp4	0.0	155.16939520835876	
24	135.64084696769714	fix_post	2		12	22.0	2.5	/experiments/AOT/AOT_stimuli/rescaled_final/1390_rv.mp4	0.0	155.28757214546204	0.10000395774841309
25	135.74085092544556	fix_pre	0		120	23.0	2.5	/experiments/AOT/AOT_stimuli/rescaled_final/0391_fw.mp4	0.0	155.38757610321045	1.0000150203704834
25	136.74086594581604	movie	1		245	23.0	2.5	/experiments/AOT/AOT_stimuli/rescaled_final/0391_fw.mp4	0.0	156.38759112358093	2.4996120929718018
25	137.12399983406067	pulse	1	t		23.0	2.5	/experiments/AOT/AOT_stimuli/rescaled_final/0391_fw.mp4	0.0	156.77072501182556	
25	138.7244369983673	pulse	1	t		23.0	2.5	/experiments/AOT/AOT_stimuli/rescaled_final/0391_fw.mp4	0.0	158.3711621761322	
25	139.24047803878784	fix_post	2		12	23.0	2.5	/experiments/AOT/AOT_stimuli/rescaled_final/0391_fw.mp4	0.0	158.88720321655273	0.10034584999084473
26	139.3408238887787	fix_pre	0		119	24.0	2.5	/experiments/AOT/AOT_stimuli/rescaled_final/1943_rv.mp4	0.0	158.98754906654358	0.991724967956543
26	140.32439994812012	pulse	0	t		24.0	2.5	/experiments/AOT/AOT_stimuli/rescaled_final/1943_rv.mp4	0.0	159.971125125885	
26	140.33254885673523	movie	1		244	24.0	2.5	/experiments/AOT/AOT_stimuli/rescaled_final/1943_rv.mp4	0.0	159.97927403450012	2.5082411766052246
26	141.92397594451904	pulse	1	t		24.0	2.5	/experiments/AOT/AOT_stimuli/rescaled_final/1943_rv.mp4	0.0	161.57070112228394	
26	142.84079003334045	fix_post	2		12	24.0	2.5	/experiments/AOT/AOT_stimuli/rescaled_final/1943_rv.mp4	0.0	162.48751521110535	0.10008692741394043
27	142.9408769607544	fix_pre	0		120	25.0	2.5	/experiments/AOT/AOT_stimuli/rescaled_final/1163_fw.mp4	0.0	162.5876021385193	0.9999570846557617
27	143.5243890285492	pulse	0	t		25.0	2.5	/experiments/AOT/AOT_stimuli/rescaled_final/1163_fw.mp4	0.0	163.1711142063141	
27	143.94083404541016	movie	1		244	25.0	2.5	/experiments/AOT/AOT_stimuli/rescaled_final/1163_fw.mp4	0.0	163.58755922317505	2.4996068477630615
27	145.12439393997192	pulse	1	t		25.0	2.5	/experiments/AOT/AOT_stimuli/rescaled_final/1163_fw.mp4	0.0	164.77111911773682	
27	146.44044089317322	fix_post	2		12	25.0	2.5	/experiments/AOT/AOT_stimuli/rescaled_final/1163_fw.mp4	0.0	166.0871660709381	0.10039591789245605
28	146.54083681106567	fix_pre	0		120	26.0	2.5	blank	1.0	166.18756198883057	0.999622106552124
28	146.7243309020996	pulse	0	t		26.0	2.5	blank	1.0	166.3710560798645	
28	147.5404589176178	movie	1		300	26.0	2.5	blank	1.0	167.1871840953827	2.500354051589966
28	148.32436203956604	pulse	1	t		26.0	2.5	blank	1.0	167.97108721733093	
28	149.9242880344391	pulse	1	t		26.0	2.5	blank	1.0	169.57101321220398	
28	150.04081296920776	fix_post	2		12	26.0	2.5	blank	1.0	169.68753814697266	0.10004186630249023
29	150.14085483551025	fix_pre	0		120	27.0	2.5	/experiments/AOT/AOT_stimuli/rescaled_final/0820_fw.mp4	0.0	169.78758001327515	1.0000190734863281
29	151.14087390899658	movie	1		243	27.0	2.5	/experiments/AOT/AOT_stimuli/rescaled_final/0820_fw.mp4	0.0	170.78759908676147	2.499911069869995
29	151.523854970932	pulse	1	t		27.0	2.5	/experiments/AOT/AOT_stimuli/rescaled_final/0820_fw.mp4	0.0	171.1705801486969	
29	153.1243278980255	pulse	1	t		27.0	2.5	/experiments/AOT/AOT_stimuli/rescaled_final/0820_fw.mp4	0.0	172.7710530757904	
29	153.64078497886658	fix_post	2		12	27.0	2.5	/experiments/AOT/AOT_stimuli/rescaled_final/0820_fw.mp4	0.0	173.28751015663147	0.10001087188720703
30	153.74079585075378	fix_pre	0		119	28.0	2.5	/experiments/AOT/AOT_stimuli/rescaled_final/0229_rv.mp4	0.0	173.38752102851868	0.99167799949646
30	154.72434496879578	pulse	0	t		28.0	2.5	/experiments/AOT/AOT_stimuli/rescaled_final/0229_rv.mp4	0.0	174.37107014656067	
30	154.73247385025024	movie	1		244	28.0	2.5	/experiments/AOT/AOT_stimuli/rescaled_final/0229_rv.mp4	0.0	174.37919902801514	2.507873058319092
30	156.32378792762756	pulse	1	t		28.0	2.5	/experiments/AOT/AOT_stimuli/rescaled_final/0229_rv.mp4	0.0	175.97051310539246	
30	157.24034690856934	fix_post	2		12	28.0	2.5	/experiments/AOT/AOT_stimuli/rescaled_final/0229_rv.mp4	0.0	176.88707208633423	0.1005239486694336
31	157.34087085723877	fix_pre	0		120	29.0	2.5	/experiments/AOT/AOT_stimuli/rescaled_final/0210_fw.mp4	0.0	176.98759603500366	0.9999620914459229
31	157.92430186271667	pulse	0	t		29.0	2.5	/experiments/AOT/AOT_stimuli/rescaled_final/0210_fw.mp4	0.0	177.57102704048157	
31	158.3408329486847	movie	1		243	29.0	2.5	/experiments/AOT/AOT_stimuli/rescaled_final/0210_fw.mp4	0.0	177.98755812644958	2.499955892562866
31	159.524405002594	pulse	1	t		29.0	2.5	/experiments/AOT/AOT_stimuli/rescaled_final/0210_fw.mp4	0.0	179.1711301803589	
31	160.84078884124756	fix_post	2		12	29.0	2.5	/experiments/AOT/AOT_stimuli/rescaled_final/0210_fw.mp4	0.0	180.48751401901245	0.09997105598449707
32	160.94075989723206	fix_pre	0		120	30.0	2.5	/experiments/AOT/AOT_stimuli/rescaled_final/0097_fw.mp4	0.0	180.58748507499695	0.9996280670166016
32	161.1242799758911	pulse	0	t		30.0	2.5	/experiments/AOT/AOT_stimuli/rescaled_final/0097_fw.mp4	0.0	180.771005153656	
32	161.94038796424866	movie	1		246	30.0	2.5	/experiments/AOT/AOT_stimuli/rescaled_final/0097_fw.mp4	0.0	181.58711314201355	2.5002119541168213
32	162.72380089759827	pulse	1	t		30.0	2.5	/experiments/AOT/AOT_stimuli/rescaled_final/0097_fw.mp4	0.0	182.37052607536316	
32	164.32444500923157	pulse	1	t		30.0	2.5	/experiments/AOT/AOT_stimuli/rescaled_final/0097_fw.mp4	0.0	183.97117018699646	
32	164.44059991836548	fix_post	2		12	30.0	2.5	/experiments/AOT/AOT_stimuli/rescaled_final/0097_fw.mp4	0.0	184.08732509613037	0.10039997100830078
33	164.54099988937378	fix_pre	0		120	31.0	2.5	/experiments/AOT/AOT_stimuli/rescaled_final/0303_fw.mp4	0.0	184.18772506713867	0.99971604347229
33	165.54071593284607	movie	1		244	31.0	2.5	/experiments/AOT/AOT_stimuli/rescaled_final/0303_fw.mp4	0.0	185.18744111061096	2.4996368885040283
33	165.92367887496948	pulse	1	t		31.0	2.5	/experiments/AOT/AOT_stimuli/rescaled_final/0303_fw.mp4	0.0	185.57040405273438	
33	167.52422499656677	pulse	1	t		31.0	2.5	/experiments/AOT/AOT_stimuli/rescaled_final/0303_fw.mp4	0.0	187.17095017433167	
33	168.0403528213501	fix_post	2		12	31.0	2.5	/experiments/AOT/AOT_stimuli/rescaled_final/0303_fw.mp4	0.0	187.687077999115	0.10043215751647949
34	168.14078497886658	fix_pre	0		119	32.0	2.5	/experiments/AOT/AOT_stimuli/rescaled_final/0706_fw.mp4	0.0	187.78751015663147	0.9916958808898926
34	169.1243269443512	pulse	0	t		32.0	2.5	/experiments/AOT/AOT_stimuli/rescaled_final/0706_fw.mp4	0.0	188.7710521221161	
34	169.13248085975647	movie	1		246	32.0	2.5	/experiments/AOT/AOT_stimuli/rescaled_final/0706_fw.mp4	0.0	188.77920603752136	2.5082011222839355
34	170.72389483451843	pulse	1	t		32.0	2.5	/experiments/AOT/AOT_stimuli/rescaled_final/0706_fw.mp4	0.0	190.37062001228333	
34	171.6406819820404	fix_post	2		12	32.0	2.5	/experiments/AOT/AOT_stimuli/rescaled_final/0706_fw.mp4	0.0	191.2874071598053	0.10009503364562988
35	171.74077701568604	fix_pre	0		120	33.0	2.5	blank	1.0	191.38750219345093	0.9999399185180664
35	172.32425689697266	pulse	0	t		33.0	2.5	blank	1.0	191.97098207473755	
35	172.7407169342041	movie	1		300	33.0	2.5	blank	1.0	192.387442111969	2.499955892562866
35	173.9242389202118	pulse	1	t		33.0	2.5	blank	1.0	193.57096409797668	
35	175.24067282676697	fix_post	2		12	33.0	2.5	blank	1.0	194.88739800453186	0.10002398490905762
36	175.34069681167603	fix_pre	0		120	34.0	2.5	/experiments/AOT/AOT_stimuli/rescaled_final/1312_fw.mp4	0.0	194.98742198944092	1.0000011920928955
36	175.52421498298645	pulse	0	t		34.0	2.5	/experiments/AOT/AOT_stimuli/rescaled_final/1312_fw.mp4	0.0	195.17094016075134	
36	176.34069800376892	movie	1		246	34.0	2.5	/experiments/AOT/AOT_stimuli/rescaled_final/1312_fw.mp4	0.0	195.9874231815338	2.4999849796295166
36	177.12428188323975	pulse	1	t		34.0	2.5	/experiments/AOT/AOT_stimuli/rescaled_final/1312_fw.mp4	0.0	196.77100706100464	
36	178.7227988243103	pulse	1	t		34.0	2.5	/experiments/AOT/AOT_stimuli/rescaled_final/1312_fw.mp4	0.0	198.3695240020752	
36	178.84068298339844	fix_post	2		12	34.0	2.5	/experiments/AOT/AOT_stimuli/rescaled_final/1312_fw.mp4	0.0	198.48740816116333	0.10002589225769043
37	178.94070887565613	fix_pre	0		120	35.0	2.5	/experiments/AOT/AOT_stimuli/rescaled_final/0550_fw.mp4	0.0	198.58743405342102	0.9999959468841553
37	179.94070482254028	movie	1		246	35.0	2.5	/experiments/AOT/AOT_stimuli/rescaled_final/0550_fw.mp4	0.0	199.58743000030518	2.4999701976776123
37	180.32379484176636	pulse	1	t		35.0	2.5	/experiments/AOT/AOT_stimuli/rescaled_final/0550_fw.mp4	0.0	199.97052001953125	
37	181.92418885231018	pulse	1	t		35.0	2.5	/experiments/AOT/AOT_stimuli/rescaled_final/0550_fw.mp4	0.0	201.57091403007507	
37	182.4406750202179	fix_post	2		12	35.0	2.5	/experiments/AOT/AOT_stimuli/rescaled_final/0550_fw.mp4	0.0	202.0874001979828	0.09958481788635254
38	182.54025983810425	fix_pre	0		119	36.0	2.5	/experiments/AOT/AOT_stimuli/rescaled_final/1040_fw.mp4	0.0	202.18698501586914	0.9920740127563477
38	183.52412700653076	pulse	0	t		36.0	2.5	/experiments/AOT/AOT_stimuli/rescaled_final/1040_fw.mp4	0.0	203.17085218429565	
38	183.5323338508606	movie	1		246	36.0	2.5	/experiments/AOT/AOT_stimuli/rescaled_final/1040_fw.mp4	0.0	203.1790590286255	2.5083460807800293
38	185.12501287460327	pulse	1	t		36.0	2.5	/experiments/AOT/AOT_stimuli/rescaled_final/1040_fw.mp4	0.0	204.77173805236816	
38	186.04067993164062	fix_post	2		12	36.0	2.5	/experiments/AOT/AOT_stimuli/rescaled_final/1040_fw.mp4	0.0	205.68740510940552	0.09997010231018066
39	186.1406500339508	fix_pre	0		120	37.0	2.5	/experiments/AOT/AOT_stimuli/rescaled_final/2003_rv.mp4	0.0	205.7873752117157	1.0000629425048828
39	186.72422981262207	pulse	0	t		37.0	2.5	/experiments/AOT/AOT_stimuli/rescaled_final/2003_rv.mp4	0.0	206.37095499038696	
39	187.1407129764557	movie	1		243	37.0	2.5	/experiments/AOT/AOT_stimuli/rescaled_final/2003_rv.mp4	0.0	206.78743815422058	2.5000360012054443
39	188.32417798042297	pulse	1	t		37.0	2.5	/experiments/AOT/AOT_stimuli/rescaled_final/2003_rv.mp4	0.0	207.97090315818787	
39	189.64074897766113	fix_post	2		12	37.0	2.5	/experiments/AOT/AOT_stimuli/rescaled_final/2003_rv.mp4	0.0	209.28747415542603	0.09996700286865234
40	189.74071598052979	fix_pre	0		120	38.0	2.5	/experiments/AOT/AOT_stimuli/rescaled_final/1044_fw.mp4	0.0	209.38744115829468	1.0000150203704834
40	189.92413091659546	pulse	0	t		38.0	2.5	/experiments/AOT/AOT_stimuli/rescaled_final/1044_fw.mp4	0.0	209.57085609436035	
40	190.74073100090027	movie	1		244	38.0	2.5	/experiments/AOT/AOT_stimuli/rescaled_final/1044_fw.mp4	0.0	210.38745617866516	2.4999029636383057
40	191.5241448879242	pulse	1	t		38.0	2.5	/experiments/AOT/AOT_stimuli/rescaled_final/1044_fw.mp4	0.0	211.1708700656891	
40	193.12309288978577	pulse	1	t		38.0	2.5	/experiments/AOT/AOT_stimuli/rescaled_final/1044_fw.mp4	0.0	212.76981806755066	
40	193.24063396453857	fix_post	2		12	38.0	2.5	/experiments/AOT/AOT_stimuli/rescaled_final/1044_fw.mp4	0.0	212.88735914230347	0.10001587867736816
41	193.34064984321594	fix_pre	0		120	39.0	2.5	/experiments/AOT/AOT_stimuli/rescaled_final/0030_rv.mp4	0.0	212.98737502098083	1.000020980834961
41	194.3406708240509	movie	1		245	39.0	2.5	/experiments/AOT/AOT_stimuli/rescaled_final/0030_rv.mp4	0.0	213.9873960018158	2.5000360012054443
41	194.72377181053162	pulse	1	t		39.0	2.5	/experiments/AOT/AOT_stimuli/rescaled_final/0030_rv.mp4	0.0	214.3704969882965	
41	196.32412004470825	pulse	1	t		39.0	2.5	/experiments/AOT/AOT_stimuli/rescaled_final/0030_rv.mp4	0.0	215.97084522247314	
41	196.84070682525635	fix_post	2		12	39.0	2.5	/experiments/AOT/AOT_stimuli/rescaled_final/0030_rv.mp4	0.0	216.48743200302124	0.09985804557800293
42	196.94056487083435	fix_pre	0		119	40.0	2.5	/experiments/AOT/AOT_stimuli/rescaled_final/1311_fw.mp4	0.0	216.58729004859924	0.9916651248931885
42	197.92408299446106	pulse	0	t		40.0	2.5	/experiments/AOT/AOT_stimuli/rescaled_final/1311_fw.mp4	0.0	217.57080817222595	
42	197.93222999572754	movie	1		247	40.0	2.5	/experiments/AOT/AOT_stimuli/rescaled_final/1311_fw.mp4	0.0	217.57895517349243	2.5079169273376465
42	199.52534103393555	pulse	1	t		40.0	2.5	/experiments/AOT/AOT_stimuli/rescaled_final/1311_fw.mp4	0.0	219.17206621170044	
42	200.44014692306519	fix_post	2		12	40.0	2.5	/experiments/AOT/AOT_stimuli/rescaled_final/1311_fw.mp4	0.0	220.08687210083008	0.10042405128479004
43	200.54057097434998	fix_pre	0		120	41.0	2.5	/experiments/AOT/AOT_stimuli/rescaled_final/1945_fw.mp4	0.0	220.18729615211487	0.9997889995574951
43	201.1241500377655	pulse	0	t		41.0	2.5	/experiments/AOT/AOT_stimuli/rescaled_final/1945_fw.mp4	0.0	220.7708752155304	
43	201.54035997390747	movie	1		247	41.0	2.5	/experiments/AOT/AOT_stimuli/rescaled_final/1945_fw.mp4	0.0	221.18708515167236	2.4998509883880615
43	202.72413992881775	pulse	1	t		41.0	2.5	/experiments/AOT/AOT_stimuli/rescaled_final/1945_fw.mp4	0.0	222.37086510658264	
43	204.04021096229553	fix_post	2		12	41.0	2.5	/experiments/AOT/AOT_stimuli/rescaled_final/1945_fw.mp4	0.0	223.68693614006042	0.10029387474060059
44	204.14050483703613	fix_pre	0		120	42.0	2.5	blank	1.0	223.78723001480103	0.9996740818023682
44	204.32405281066895	pulse	0	t		42.0	2.5	blank	1.0	223.97077798843384	
44	205.1401789188385	movie	1		300	42.0	2.5	blank	1.0	224.7869040966034	2.4999709129333496
44	205.9241349697113	pulse	1	t		42.0	2.5	blank	1.0	225.5708601474762	
44	207.5240728855133	pulse	1	t		42.0	2.5	blank	1.0	227.1707980632782	
44	207.64014983177185	fix_post	2		12	42.0	2.5	blank	1.0	227.28687500953674	0.1004171371459961
45	207.74056696891785	fix_pre	0		120	43.0	2.5	/experiments/AOT/AOT_stimuli/rescaled_final/0235_rv.mp4	0.0	227.38729214668274	0.999521017074585
45	208.74008798599243	movie	1		245	43.0	2.5	/experiments/AOT/AOT_stimuli/rescaled_final/0235_rv.mp4	0.0	228.38681316375732	2.500458002090454
45	209.12373399734497	pulse	1	t		43.0	2.5	/experiments/AOT/AOT_stimuli/rescaled_final/0235_rv.mp4	0.0	228.77045917510986	
45	210.72402596473694	pulse	1	t		43.0	2.5	/experiments/AOT/AOT_stimuli/rescaled_final/0235_rv.mp4	0.0	230.37075114250183	
45	211.24054598808289	fix_post	2		12	43.0	2.5	/experiments/AOT/AOT_stimuli/rescaled_final/0235_rv.mp4	0.0	230.88727116584778	0.10002398490905762
46	211.34056997299194	fix_pre	0		119	44.0	2.5	/experiments/AOT/AOT_stimuli/rescaled_final/0175_fw.mp4	0.0	230.98729515075684	0.991581916809082
46	212.3240978717804	pulse	0	t		44.0	2.5	/experiments/AOT/AOT_stimuli/rescaled_final/0175_fw.mp4	0.0	231.9708230495453	
46	212.33215188980103	movie	1		245	44.0	2.5	/experiments/AOT/AOT_stimuli/rescaled_final/0175_fw.mp4	0.0	231.97887706756592	2.508535146713257
46	213.92527604103088	pulse	1	t		44.0	2.5	/experiments/AOT/AOT_stimuli/rescaled_final/0175_fw.mp4	0.0	233.57200121879578	
46	214.84068703651428	fix_post	2		12	44.0	2.5	/experiments/AOT/AOT_stimuli/rescaled_final/0175_fw.mp4	0.0	234.48741221427917	0.0998079776763916
47	214.94049501419067	fix_pre	0		120	45.0	2.5	/experiments/AOT/AOT_stimuli/rescaled_final/0777_fw.mp4	0.0	234.58722019195557	1.0000839233398438
47	215.52407884597778	pulse	0	t		45.0	2.5	/experiments/AOT/AOT_stimuli/rescaled_final/0777_fw.mp4	0.0	235.17080402374268	
47	215.94057893753052	movie	1		247	45.0	2.5	/experiments/AOT/AOT_stimuli/rescaled_final/0777_fw.mp4	0.0	235.5873041152954	2.4997260570526123
47	217.1240589618683	pulse	1	t		45.0	2.5	/experiments/AOT/AOT_stimuli/rescaled_final/0777_fw.mp4	0.0	236.77078413963318	
47	218.44030499458313	fix_post	2		12	45.0	2.5	/experiments/AOT/AOT_stimuli/rescaled_final/0777_fw.mp4	0.0	238.08703017234802	0.09977388381958008
48	218.5400788784027	fix_pre	0		120	46.0	2.5	/experiments/AOT/AOT_stimuli/rescaled_final/1022_fw.mp4	0.0	238.1868040561676	1.0001749992370605
48	218.72361183166504	pulse	0	t		46.0	2.5	/experiments/AOT/AOT_stimuli/rescaled_final/1022_fw.mp4	0.0	238.37033700942993	
48	219.54025387763977	movie	1		245	46.0	2.5	/experiments/AOT/AOT_stimuli/rescaled_final/1022_fw.mp4	0.0	239.18697905540466	2.500286102294922
48	220.324138879776	pulse	1	t		46.0	2.5	/experiments/AOT/AOT_stimuli/rescaled_final/1022_fw.mp4	0.0	239.9708640575409	
48	221.9226779937744	pulse	1	t		46.0	2.5	/experiments/AOT/AOT_stimuli/rescaled_final/1022_fw.mp4	0.0	241.5694031715393	
48	222.0405399799347	fix_post	2		12	46.0	2.5	/experiments/AOT/AOT_stimuli/rescaled_final/1022_fw.mp4	0.0	241.68726515769958	0.10007095336914062
49	222.14061093330383	fix_pre	0		120	47.0	2.5	/experiments/AOT/AOT_stimuli/rescaled_final/1227_rv.mp4	0.0	241.78733611106873	0.9998700618743896
49	223.14048099517822	movie	1		245	47.0	2.5	/experiments/AOT/AOT_stimuli/rescaled_final/1227_rv.mp4	0.0	242.78720617294312	2.4999828338623047
49	223.52380681037903	pulse	1	t		47.0	2.5	/experiments/AOT/AOT_stimuli/rescaled_final/1227_rv.mp4	0.0	243.17053198814392	
49	225.1239378452301	pulse	1	t		47.0	2.5	/experiments/AOT/AOT_stimuli/rescaled_final/1227_rv.mp4	0.0	244.770663022995	
49	225.64046382904053	fix_post	2		12	47.0	2.5	/experiments/AOT/AOT_stimuli/rescaled_final/1227_rv.mp4	0.0	245.28718900680542	0.10001420974731445
50	225.74047803878784	fix_pre	0		119	48.0	2.5	/experiments/AOT/AOT_stimuli/rescaled_final/1311_fw.mp4	0.0	245.38720321655273	0.9916648864746094
50	226.72396183013916	pulse	0	t		48.0	2.5	/experiments/AOT/AOT_stimuli/rescaled_final/1311_fw.mp4	0.0	246.37068700790405	
50	226.73214292526245	movie	1		247	48.0	2.5	/experiments/AOT/AOT_stimuli/rescaled_final/1311_fw.mp4	0.0	246.37886810302734	2.508291006088257
50	228.32354998588562	pulse	1	t		48.0	2.5	/experiments/AOT/AOT_stimuli/rescaled_final/1311_fw.mp4	0.0	247.9702751636505	
50	229.2404339313507	fix_post	2		12	48.0	2.5	/experiments/AOT/AOT_stimuli/rescaled_final/1311_fw.mp4	0.0	248.8871591091156	0.10026907920837402
51	229.34070301055908	fix_pre	0		120	49.0	2.5	blank	1.0	248.98742818832397	0.9997878074645996
51	229.92392301559448	pulse	0	t		49.0	2.5	blank	1.0	249.57064819335938	
51	230.34049081802368	movie	1		300	49.0	2.5	blank	1.0	249.98721599578857	2.4999120235443115
51	231.5239658355713	pulse	1	t		49.0	2.5	blank	1.0	251.17069101333618	
51	232.840402841568	fix_post	2		12	49.0	2.5	blank	1.0	252.48712801933289	0.10002017021179199
52	232.94042301177979	fix_pre	0		120	50.0	2.5	/experiments/AOT/AOT_stimuli/rescaled_final/2126_fw.mp4	0.0	252.58714818954468	0.9999568462371826
52	233.1239309310913	pulse	0	t		50.0	2.5	/experiments/AOT/AOT_stimuli/rescaled_final/2126_fw.mp4	0.0	252.7706561088562	
52	233.94037985801697	movie	1		243	50.0	2.5	/experiments/AOT/AOT_stimuli/rescaled_final/2126_fw.mp4	0.0	253.58710503578186	2.4997639656066895
52	234.72396993637085	pulse	1	t		50.0	2.5	/experiments/AOT/AOT_stimuli/rescaled_final/2126_fw.mp4	0.0	254.37069511413574	
52	236.32217693328857	pulse	1	t		50.0	2.5	/experiments/AOT/AOT_stimuli/rescaled_final/2126_fw.mp4	0.0	255.96890211105347	
52	236.44014382362366	fix_post	2		12	50.0	2.5	/experiments/AOT/AOT_stimuli/rescaled_final/2126_fw.mp4	0.0	256.08686900138855	0.10032510757446289
53	236.54046893119812	fix_pre	0		120	51.0	2.5	/experiments/AOT/AOT_stimuli/rescaled_final/1140_fw.mp4	0.0	256.187194108963	0.9999339580535889
53	237.5404028892517	movie	1		243	51.0	2.5	/experiments/AOT/AOT_stimuli/rescaled_final/1140_fw.mp4	0.0	257.1871280670166	2.4995810985565186
53	237.9234209060669	pulse	1	t		51.0	2.5	/experiments/AOT/AOT_stimuli/rescaled_final/1140_fw.mp4	0.0	257.5701460838318	
53	239.52395701408386	pulse	1	t		51.0	2.5	/experiments/AOT/AOT_stimuli/rescaled_final/1140_fw.mp4	0.0	259.17068219184875	
53	240.03998398780823	fix_post	2		12	51.0	2.5	/experiments/AOT/AOT_stimuli/rescaled_final/1140_fw.mp4	0.0	259.6867091655731	0.10039687156677246
54	240.140380859375	fix_pre	0		119	52.0	2.5	/experiments/AOT/AOT_stimuli/rescaled_final/1467_rv.mp4	0.0	259.7871060371399	0.9916651248931885
54	241.1239528656006	pulse	0	t		52.0	2.5	/experiments/AOT/AOT_stimuli/rescaled_final/1467_rv.mp4	0.0	260.7706780433655	
54	241.1320459842682	movie	1		245	52.0	2.5	/experiments/AOT/AOT_stimuli/rescaled_final/1467_rv.mp4	0.0	260.7787711620331	2.508465051651001
54	242.72342991828918	pulse	1	t		52.0	2.5	/experiments/AOT/AOT_stimuli/rescaled_final/1467_rv.mp4	0.0	262.3701550960541	
54	243.6405110359192	fix_post	2		12	52.0	2.5	/experiments/AOT/AOT_stimuli/rescaled_final/1467_rv.mp4	0.0	263.2872362136841	0.09989190101623535
55	243.74040293693542	fix_pre	0		120	53.0	2.5	/experiments/AOT/AOT_stimuli/rescaled_final/0239_rv.mp4	0.0	263.3871281147003	0.9996058940887451
55	244.3238558769226	pulse	0	t		53.0	2.5	/experiments/AOT/AOT_stimuli/rescaled_final/0239_rv.mp4	0.0	263.9705810546875	
55	244.74000883102417	movie	1		246	53.0	2.5	/experiments/AOT/AOT_stimuli/rescaled_final/0239_rv.mp4	0.0	264.38673400878906	2.4999191761016846
55	245.92391395568848	pulse	1	t		53.0	2.5	/experiments/AOT/AOT_stimuli/rescaled_final/0239_rv.mp4	0.0	265.57063913345337	
55	247.23992800712585	fix_post	2		12	53.0	2.5	/experiments/AOT/AOT_stimuli/rescaled_final/0239_rv.mp4	0.0	266.88665318489075	0.10047101974487305
56	247.34039902687073	fix_pre	0		120	54.0	2.5	blank	1.0	266.9871242046356	0.9999129772186279
56	247.52384495735168	pulse	0	t		54.0	2.5	blank	1.0	267.1705701351166	
56	248.34031200408936	movie	1		300	54.0	2.5	blank	1.0	267.98703718185425	2.5000998973846436
56	249.12402391433716	pulse	1	t		54.0	2.5	blank	1.0	268.77074909210205	
56	250.7238929271698	pulse	1	t		54.0	2.5	blank	1.0	270.3706181049347	
56	250.840411901474	fix_post	2		12	54.0	2.5	blank	1.0	270.4871370792389	0.09992408752441406
57	250.9403359889984	fix_pre	0		120	55.0	2.5	/experiments/AOT/AOT_stimuli/rescaled_final/1716_fw.mp4	0.0	270.5870611667633	0.9996378421783447
57	251.93997383117676	movie	1		244	55.0	2.5	/experiments/AOT/AOT_stimuli/rescaled_final/1716_fw.mp4	0.0	271.58669900894165	2.499998092651367
57	252.32343792915344	pulse	1	t		55.0	2.5	/experiments/AOT/AOT_stimuli/rescaled_final/1716_fw.mp4	0.0	271.97016310691833	
57	253.9238259792328	pulse	1	t		55.0	2.5	/experiments/AOT/AOT_stimuli/rescaled_final/1716_fw.mp4	0.0	273.5705511569977	
57	254.43997192382812	fix_post	2		12	55.0	2.5	/experiments/AOT/AOT_stimuli/rescaled_final/1716_fw.mp4	0.0	274.086697101593	0.10041999816894531
58	254.54039192199707	fix_pre	0		119	56.0	2.5	/experiments/AOT/AOT_stimuli/rescaled_final/1956_fw.mp4	0.0	274.18711709976196	0.991703987121582
58	255.52378392219543	pulse	0	t		56.0	2.5	/experiments/AOT/AOT_stimuli/rescaled_final/1956_fw.mp4	0.0	275.1705090999603	
58	255.53209590911865	movie	1		243	56.0	2.5	/experiments/AOT/AOT_stimuli/rescaled_final/1956_fw.mp4	0.0	275.17882108688354	2.5078279972076416
58	257.1250739097595	pulse	1	t		56.0	2.5	/experiments/AOT/AOT_stimuli/rescaled_final/1956_fw.mp4	0.0	276.7717990875244	
58	258.0399239063263	fix_post	2		12	56.0	2.5	/experiments/AOT/AOT_stimuli/rescaled_final/1956_fw.mp4	0.0	277.6866490840912	0.10049891471862793
59	258.1404228210449	fix_pre	0		120	57.0	2.5	/experiments/AOT/AOT_stimuli/rescaled_final/2171_fw.mp4	0.0	277.7871479988098	0.9999291896820068
59	258.7238030433655	pulse	0	t		57.0	2.5	/experiments/AOT/AOT_stimuli/rescaled_final/2171_fw.mp4	0.0	278.37052822113037	
59	259.14035201072693	movie	1		243	57.0	2.5	/experiments/AOT/AOT_stimuli/rescaled_final/2171_fw.mp4	0.0	278.7870771884918	2.499737024307251
59	260.32393884658813	pulse	1	t		57.0	2.5	/experiments/AOT/AOT_stimuli/rescaled_final/2171_fw.mp4	0.0	279.970664024353	
59	261.6400890350342	fix_post	2		12	57.0	2.5	/experiments/AOT/AOT_stimuli/rescaled_final/2171_fw.mp4	0.0	281.2868142127991	0.10019779205322266
60	261.7402868270874	fix_pre	0		120	58.0	2.5	/experiments/AOT/AOT_stimuli/rescaled_final/1422_rv.mp4	0.0	281.3870120048523	1.0001630783081055
60	261.9237959384918	pulse	0	t		58.0	2.5	/experiments/AOT/AOT_stimuli/rescaled_final/1422_rv.mp4	0.0	281.5705211162567	
60	262.7404499053955	movie	1		245	58.0	2.5	/experiments/AOT/AOT_stimuli/rescaled_final/1422_rv.mp4	0.0	282.3871750831604	2.4999349117279053
60	263.52373695373535	pulse	1	t		58.0	2.5	/experiments/AOT/AOT_stimuli/rescaled_final/1422_rv.mp4	0.0	283.17046213150024	
60	265.12375497817993	pulse	1	t		58.0	2.5	/experiments/AOT/AOT_stimuli/rescaled_final/1422_rv.mp4	0.0	284.7704801559448	
60	265.2403848171234	fix_post	2		12	58.0	2.5	/experiments/AOT/AOT_stimuli/rescaled_final/1422_rv.mp4	0.0	284.8871099948883	0.0995490550994873
61	265.3399338722229	fix_pre	0		120	59.0	2.5	/experiments/AOT/AOT_stimuli/rescaled_final/0884_rv.mp4	0.0	284.9866590499878	1.0003859996795654
61	266.34031987190247	movie	1		244	59.0	2.5	/experiments/AOT/AOT_stimuli/rescaled_final/0884_rv.mp4	0.0	285.98704504966736	2.4995779991149902
61	266.72358989715576	pulse	1	t		59.0	2.5	/experiments/AOT/AOT_stimuli/rescaled_final/0884_rv.mp4	0.0	286.37031507492065	
61	268.3237829208374	pulse	1	t		59.0	2.5	/experiments/AOT/AOT_stimuli/rescaled_final/0884_rv.mp4	0.0	287.9705080986023	
61	268.83989787101746	fix_post	2		12	59.0	2.5	/experiments/AOT/AOT_stimuli/rescaled_final/0884_rv.mp4	0.0	288.48662304878235	0.10039901733398438
62	268.94029688835144	fix_pre	0		119	60.0	2.5	/experiments/AOT/AOT_stimuli/rescaled_final/0557_fw.mp4	0.0	288.58702206611633	0.99167799949646
62	269.9238760471344	pulse	0	t		60.0	2.5	/experiments/AOT/AOT_stimuli/rescaled_final/0557_fw.mp4	0.0	289.5706012248993	
62	269.9319748878479	movie	1		245	60.0	2.5	/experiments/AOT/AOT_stimuli/rescaled_final/0557_fw.mp4	0.0	289.5787000656128	2.508342981338501
62	271.5250418186188	pulse	1	t		60.0	2.5	/experiments/AOT/AOT_stimuli/rescaled_final/0557_fw.mp4	0.0	291.17176699638367	
62	272.4403178691864	fix_post	2		12	60.0	2.5	/experiments/AOT/AOT_stimuli/rescaled_final/0557_fw.mp4	0.0	292.0870430469513	0.09998607635498047
63	272.5403039455414	fix_pre	0		120	61.0	2.5	/experiments/AOT/AOT_stimuli/rescaled_final/1922_rv.mp4	0.0	292.1870291233063	0.9995670318603516
63	273.12377285957336	pulse	0	t		61.0	2.5	/experiments/AOT/AOT_stimuli/rescaled_final/1922_rv.mp4	0.0	292.77049803733826	
63	273.53987097740173	movie	1		245	61.0	2.5	/experiments/AOT/AOT_stimuli/rescaled_final/1922_rv.mp4	0.0	293.1865961551666	2.500195026397705
63	274.72343492507935	pulse	1	t		61.0	2.5	/experiments/AOT/AOT_stimuli/rescaled_final/1922_rv.mp4	0.0	294.37016010284424	
63	276.04006600379944	fix_post	2		12	61.0	2.5	/experiments/AOT/AOT_stimuli/rescaled_final/1922_rv.mp4	0.0	295.68679118156433	0.10001802444458008
64	276.140084028244	fix_pre	0		120	62.0	2.5	blank	1.0	295.7868092060089	1.0001718997955322
64	276.32352089881897	pulse	0	t		62.0	2.5	blank	1.0	295.97024607658386	
64	277.14025592803955	movie	1		300	62.0	2.5	blank	1.0	296.78698110580444	2.5000040531158447
64	277.92383885383606	pulse	1	t		62.0	2.5	blank	1.0	297.57056403160095	
64	279.5237648487091	pulse	1	t		62.0	2.5	blank	1.0	299.170490026474	
64	279.6402599811554	fix_post	2		12	62.0	2.5	blank	1.0	299.2869851589203	0.09997797012329102
65	279.7402379512787	fix_pre	0		120	63.0	2.5	/experiments/AOT/AOT_stimuli/rescaled_final/1511_rv.mp4	0.0	299.3869631290436	1.000058889389038
65	280.7402968406677	movie	1		243	63.0	2.5	/experiments/AOT/AOT_stimuli/rescaled_final/1511_rv.mp4	0.0	300.3870220184326	2.4999430179595947
65	281.12347197532654	pulse	1	t		63.0	2.5	/experiments/AOT/AOT_stimuli/rescaled_final/1511_rv.mp4	0.0	300.77019715309143	
65	282.72365283966064	pulse	1	t		63.0	2.5	/experiments/AOT/AOT_stimuli/rescaled_final/1511_rv.mp4	0.0	302.37037801742554	
65	283.2402398586273	fix_post	2		12	63.0	2.5	/experiments/AOT/AOT_stimuli/rescaled_final/1511_rv.mp4	0.0	302.8869650363922	0.10000801086425781
66	283.3402478694916	fix_pre	0		119	64.0	2.5	/experiments/AOT/AOT_stimuli/rescaled_final/1945_rv.mp4	0.0	302.98697304725647	0.9916141033172607
66	284.3236608505249	pulse	0	t		64.0	2.5	/experiments/AOT/AOT_stimuli/rescaled_final/1945_rv.mp4	0.0	303.9703860282898	
66	284.33186197280884	movie	1		248	64.0	2.5	/experiments/AOT/AOT_stimuli/rescaled_final/1945_rv.mp4	0.0	303.97858715057373	2.508327007293701
66	285.92386984825134	pulse	1	t		64.0	2.5	/experiments/AOT/AOT_stimuli/rescaled_final/1945_rv.mp4	0.0	305.57059502601624	
66	286.84018898010254	fix_post	2		12	64.0	2.5	/experiments/AOT/AOT_stimuli/rescaled_final/1945_rv.mp4	0.0	306.48691415786743	0.10003089904785156
67	286.9402198791504	fix_pre	0		120	65.0	2.5	/experiments/AOT/AOT_stimuli/rescaled_final/0207_fw.mp4	0.0	306.5869450569153	0.9999430179595947
67	287.5236828327179	pulse	0	t		65.0	2.5	/experiments/AOT/AOT_stimuli/rescaled_final/0207_fw.mp4	0.0	307.1704080104828	
67	287.94016289711	movie	1		245	65.0	2.5	/experiments/AOT/AOT_stimuli/rescaled_final/0207_fw.mp4	0.0	307.5868880748749	2.5000109672546387
67	289.1237699985504	pulse	1	t		65.0	2.5	/experiments/AOT/AOT_stimuli/rescaled_final/0207_fw.mp4	0.0	308.7704951763153	
67	290.4401738643646	fix_post	2		12	65.0	2.5	/experiments/AOT/AOT_stimuli/rescaled_final/0207_fw.mp4	0.0	310.0868990421295	0.10009908676147461
68	290.5402729511261	fix_pre	0		120	66.0	2.5	/experiments/AOT/AOT_stimuli/rescaled_final/0181_fw.mp4	0.0	310.186998128891	0.999845027923584
68	290.723680973053	pulse	0	t		66.0	2.5	/experiments/AOT/AOT_stimuli/rescaled_final/0181_fw.mp4	0.0	310.37040615081787	
68	291.5401179790497	movie	1		248	66.0	2.5	/experiments/AOT/AOT_stimuli/rescaled_final/0181_fw.mp4	0.0	311.1868431568146	2.5000948905944824
68	292.32370591163635	pulse	1	t		66.0	2.5	/experiments/AOT/AOT_stimuli/rescaled_final/0181_fw.mp4	0.0	311.97043108940125	
68	293.9236888885498	pulse	1	t		66.0	2.5	/experiments/AOT/AOT_stimuli/rescaled_final/0181_fw.mp4	0.0	313.5704140663147	
68	294.04021286964417	fix_post	2		12	66.0	2.5	/experiments/AOT/AOT_stimuli/rescaled_final/0181_fw.mp4	0.0	313.68693804740906	0.09999203681945801
69	294.1402049064636	fix_pre	0		120	67.0	2.5	/experiments/AOT/AOT_stimuli/rescaled_final/1116_fw.mp4	0.0	313.7869300842285	0.9999840259552002
69	295.1401889324188	movie	1		244	67.0	2.5	/experiments/AOT/AOT_stimuli/rescaled_final/1116_fw.mp4	0.0	314.7869141101837	2.499955892562866
69	295.52346301078796	pulse	1	t		67.0	2.5	/experiments/AOT/AOT_stimuli/rescaled_final/1116_fw.mp4	0.0	315.17018818855286	
69	297.1236619949341	pulse	1	t		67.0	2.5	/experiments/AOT/AOT_stimuli/rescaled_final/1116_fw.mp4	0.0	316.770387172699	
69	297.6401448249817	fix_post	2		12	67.0	2.5	/experiments/AOT/AOT_stimuli/rescaled_final/1116_fw.mp4	0.0	317.2868700027466	0.10004520416259766
70	297.7401900291443	fix_pre	0		119	68.0	2.5	blank	1.0	317.3869152069092	0.9916079044342041
70	298.7236499786377	pulse	0	t		68.0	2.5	blank	1.0	318.3703751564026	
70	298.7317979335785	movie	1		301	68.0	2.5	blank	1.0	318.3785231113434	2.5083320140838623
70	300.3237409591675	pulse	1	t		68.0	2.5	blank	1.0	319.9704661369324	
70	301.24012994766235	fix_post	2		12	68.0	2.5	blank	1.0	320.88685512542725	0.10000300407409668
71	301.34013295173645	fix_pre	0		120	69.0	2.5	/experiments/AOT/AOT_stimuli/rescaled_final/1784_rv.mp4	0.0	320.98685812950134	0.999626874923706
71	301.9236979484558	pulse	0	t		69.0	2.5	/experiments/AOT/AOT_stimuli/rescaled_final/1784_rv.mp4	0.0	321.5704231262207	
71	302.33975982666016	movie	1		243	69.0	2.5	/experiments/AOT/AOT_stimuli/rescaled_final/1784_rv.mp4	0.0	321.98648500442505	2.5003180503845215
71	303.5237920284271	pulse	1	t		69.0	2.5	/experiments/AOT/AOT_stimuli/rescaled_final/1784_rv.mp4	0.0	323.170517206192	
71	304.8400778770447	fix_post	2		12	69.0	2.5	/experiments/AOT/AOT_stimuli/rescaled_final/1784_rv.mp4	0.0	324.48680305480957	0.1000511646270752
72	304.94012904167175	fix_pre	0		120	70.0	2.5	/experiments/AOT/AOT_stimuli/rescaled_final/1345_fw.mp4	0.0	324.58685421943665	1.0000028610229492
72	305.12362599372864	pulse	0	t		70.0	2.5	/experiments/AOT/AOT_stimuli/rescaled_final/1345_fw.mp4	0.0	324.77035117149353	
72	305.9401319026947	movie	1		243	70.0	2.5	/experiments/AOT/AOT_stimuli/rescaled_final/1345_fw.mp4	0.0	325.5868570804596	2.499675989151001
72	306.7237038612366	pulse	1	t		70.0	2.5	/experiments/AOT/AOT_stimuli/rescaled_final/1345_fw.mp4	0.0	326.37042903900146	
72	308.3222930431366	pulse	1	t		70.0	2.5	/experiments/AOT/AOT_stimuli/rescaled_final/1345_fw.mp4	0.0	327.9690182209015	
72	308.4398078918457	fix_post	2		12	70.0	2.5	/experiments/AOT/AOT_stimuli/rescaled_final/1345_fw.mp4	0.0	328.0865330696106	0.10031914710998535
73	308.5401270389557	fix_pre	0		120	71.0	2.5	/experiments/AOT/AOT_stimuli/rescaled_final/0345_fw.mp4	0.0	328.1868522167206	1.0000298023223877
73	309.5401568412781	movie	1		245	71.0	2.5	/experiments/AOT/AOT_stimuli/rescaled_final/0345_fw.mp4	0.0	329.18688201904297	2.499981164932251
73	309.92366099357605	pulse	1	t		71.0	2.5	/experiments/AOT/AOT_stimuli/rescaled_final/0345_fw.mp4	0.0	329.57038617134094	
73	311.52360486984253	pulse	1	t		71.0	2.5	/experiments/AOT/AOT_stimuli/rescaled_final/0345_fw.mp4	0.0	331.1703300476074	
73	312.0401380062103	fix_post	2		12	71.0	2.5	/experiments/AOT/AOT_stimuli/rescaled_final/0345_fw.mp4	0.0	331.6868631839752	0.09993386268615723
74	312.1400718688965	fix_pre	0		119	72.0	2.5	/experiments/AOT/AOT_stimuli/rescaled_final/0579_rv.mp4	0.0	331.7867970466614	0.9918460845947266
74	313.12361884117126	pulse	0	t		72.0	2.5	/experiments/AOT/AOT_stimuli/rescaled_final/0579_rv.mp4	0.0	332.77034401893616	
74	313.1319179534912	movie	1		244	72.0	2.5	/experiments/AOT/AOT_stimuli/rescaled_final/0579_rv.mp4	0.0	332.7786431312561	2.5077240467071533
74	314.7248909473419	pulse	1	t		72.0	2.5	/experiments/AOT/AOT_stimuli/rescaled_final/0579_rv.mp4	0.0	334.3716161251068	
74	315.63964200019836	fix_post	2		12	72.0	2.5	/experiments/AOT/AOT_stimuli/rescaled_final/0579_rv.mp4	0.0	335.28636717796326	0.09997296333312988
75	315.7396149635315	fix_pre	0		120	73.0	2.5	/experiments/AOT/AOT_stimuli/rescaled_final/2176_fw.mp4	0.0	335.3863401412964	1.0004749298095703
75	316.3236949443817	pulse	0	t		73.0	2.5	/experiments/AOT/AOT_stimuli/rescaled_final/2176_fw.mp4	0.0	335.9704201221466	
75	316.74008989334106	movie	1		245	73.0	2.5	/experiments/AOT/AOT_stimuli/rescaled_final/2176_fw.mp4	0.0	336.38681507110596	2.4999589920043945
75	317.9236488342285	pulse	1	t		73.0	2.5	/experiments/AOT/AOT_stimuli/rescaled_final/2176_fw.mp4	0.0	337.5703740119934	
75	319.24004888534546	fix_post	2		12	73.0	2.5	/experiments/AOT/AOT_stimuli/rescaled_final/2176_fw.mp4	0.0	338.88677406311035	0.10001802444458008
76	319.34006690979004	fix_pre	0		120	74.0	2.5	/experiments/AOT/AOT_stimuli/rescaled_final/1545_rv.mp4	0.0	338.98679208755493	1.000020980834961
76	319.52358198165894	pulse	0	t		74.0	2.5	/experiments/AOT/AOT_stimuli/rescaled_final/1545_rv.mp4	0.0	339.1703071594238	
76	320.340087890625	movie	1		244	74.0	2.5	/experiments/AOT/AOT_stimuli/rescaled_final/1545_rv.mp4	0.0	339.9868130683899	2.4995341300964355
76	321.12354588508606	pulse	1	t		74.0	2.5	/experiments/AOT/AOT_stimuli/rescaled_final/1545_rv.mp4	0.0	340.77027106285095	
76	322.721923828125	pulse	1	t		74.0	2.5	/experiments/AOT/AOT_stimuli/rescaled_final/1545_rv.mp4	0.0	342.3686490058899	
76	322.83962202072144	fix_post	2		12	74.0	2.5	/experiments/AOT/AOT_stimuli/rescaled_final/1545_rv.mp4	0.0	342.4863471984863	0.10045385360717773
77	322.9400758743286	fix_pre	0		120	75.0	2.5	/experiments/AOT/AOT_stimuli/rescaled_final/0884_fw.mp4	0.0	342.5868010520935	1.0000240802764893
77	323.9400999546051	movie	1		244	75.0	2.5	/experiments/AOT/AOT_stimuli/rescaled_final/0884_fw.mp4	0.0	343.58682513237	2.4998819828033447
77	324.3232898712158	pulse	1	t		75.0	2.5	/experiments/AOT/AOT_stimuli/rescaled_final/0884_fw.mp4	0.0	343.9700150489807	
77	325.92351603507996	pulse	1	t		75.0	2.5	/experiments/AOT/AOT_stimuli/rescaled_final/0884_fw.mp4	0.0	345.57024121284485	
77	326.43998193740845	fix_post	2		12	75.0	2.5	/experiments/AOT/AOT_stimuli/rescaled_final/0884_fw.mp4	0.0	346.08670711517334	0.10008907318115234
78	326.5400710105896	fix_pre	0		119	76.0	2.5	/experiments/AOT/AOT_stimuli/rescaled_final/0714_fw.mp4	0.0	346.1867961883545	0.9916098117828369
78	327.5234830379486	pulse	0	t		76.0	2.5	/experiments/AOT/AOT_stimuli/rescaled_final/0714_fw.mp4	0.0	347.1702082157135	
78	327.53168082237244	movie	1		246	76.0	2.5	/experiments/AOT/AOT_stimuli/rescaled_final/0714_fw.mp4	0.0	347.17840600013733	2.507923126220703
78	329.1232509613037	pulse	1	t		76.0	2.5	/experiments/AOT/AOT_stimuli/rescaled_final/0714_fw.mp4	0.0	348.7699761390686	
78	330.03960394859314	fix_post	2		12	76.0	2.5	/experiments/AOT/AOT_stimuli/rescaled_final/0714_fw.mp4	0.0	349.68632912635803	0.10000109672546387
79	330.1396050453186	fix_pre	0		120	77.0	2.5	blank	1.0	349.7863302230835	1.0001468658447266
79	330.7235929965973	pulse	0	t		77.0	2.5	blank	1.0	350.3703181743622	
79	331.13975191116333	movie	1		300	77.0	2.5	blank	1.0	350.7864770889282	2.500246047973633
79	332.32380294799805	pulse	1	t		77.0	2.5	blank	1.0	351.97052812576294	
79	333.63999795913696	fix_post	2		12	77.0	2.5	blank	1.0	353.28672313690186	0.10007286071777344
80	333.74007081985474	fix_pre	0		120	78.0	2.5	/experiments/AOT/AOT_stimuli/rescaled_final/1943_fw.mp4	0.0	353.38679599761963	0.9999401569366455
80	333.9235908985138	pulse	0	t		78.0	2.5	/experiments/AOT/AOT_stimuli/rescaled_final/1943_fw.mp4	0.0	353.5703160762787	
80	334.7400109767914	movie	1		244	78.0	2.5	/experiments/AOT/AOT_stimuli/rescaled_final/1943_fw.mp4	0.0	354.3867361545563	2.4995510578155518
80	335.5233988761902	pulse	1	t		78.0	2.5	/experiments/AOT/AOT_stimuli/rescaled_final/1943_fw.mp4	0.0	355.1701240539551	
80	337.1219918727875	pulse	1	t		78.0	2.5	/experiments/AOT/AOT_stimuli/rescaled_final/1943_fw.mp4	0.0	356.76871705055237	
80	337.23956203460693	fix_post	2		12	78.0	2.5	/experiments/AOT/AOT_stimuli/rescaled_final/1943_fw.mp4	0.0	356.8862872123718	0.10040283203125
81	337.3399648666382	fix_pre	0		120	79.0	2.5	/experiments/AOT/AOT_stimuli/rescaled_final/0960_fw.mp4	0.0	356.9866900444031	1.000007152557373
81	338.33997201919556	movie	1		244	79.0	2.5	/experiments/AOT/AOT_stimuli/rescaled_final/0960_fw.mp4	0.0	357.98669719696045	2.4999659061431885
81	338.72369503974915	pulse	1	t		79.0	2.5	/experiments/AOT/AOT_stimuli/rescaled_final/0960_fw.mp4	0.0	358.37042021751404	
81	340.32343888282776	pulse	1	t		79.0	2.5	/experiments/AOT/AOT_stimuli/rescaled_final/0960_fw.mp4	0.0	359.97016406059265	
81	340.83993792533875	fix_post	2		12	79.0	2.5	/experiments/AOT/AOT_stimuli/rescaled_final/0960_fw.mp4	0.0	360.48666310310364	0.10002803802490234
82	340.93996596336365	fix_pre	0		119	80.0	2.5	/experiments/AOT/AOT_stimuli/rescaled_final/0141_rv.mp4	0.0	360.58669114112854	0.991602897644043
82	341.92346382141113	pulse	0	t		80.0	2.5	/experiments/AOT/AOT_stimuli/rescaled_final/0141_rv.mp4	0.0	361.570188999176	
82	341.9315688610077	movie	1		245	80.0	2.5	/experiments/AOT/AOT_stimuli/rescaled_final/0141_rv.mp4	0.0	361.5782940387726	2.508427143096924
82	343.5230050086975	pulse	1	t		80.0	2.5	/experiments/AOT/AOT_stimuli/rescaled_final/0141_rv.mp4	0.0	363.1697301864624	
82	344.4399960041046	fix_post	2		12	80.0	2.5	/experiments/AOT/AOT_stimuli/rescaled_final/0141_rv.mp4	0.0	364.0867211818695	0.09952688217163086
83	344.53952288627625	fix_pre	0		120	81.0	2.5	/experiments/AOT/AOT_stimuli/rescaled_final/0289_fw.mp4	0.0	364.18624806404114	1.0003819465637207
83	345.1234619617462	pulse	0	t		81.0	2.5	/experiments/AOT/AOT_stimuli/rescaled_final/0289_fw.mp4	0.0	364.7701871395111	
83	345.53990483283997	movie	1		245	81.0	2.5	/experiments/AOT/AOT_stimuli/rescaled_final/0289_fw.mp4	0.0	365.18663001060486	2.4995830059051514
83	346.7236349582672	pulse	1	t		81.0	2.5	/experiments/AOT/AOT_stimuli/rescaled_final/0289_fw.mp4	0.0	366.3703601360321	
83	348.0394878387451	fix_post	2		12	81.0	2.5	/experiments/AOT/AOT_stimuli/rescaled_final/0289_fw.mp4	0.0	367.68621301651	0.10039305686950684
84	348.1398808956146	fix_pre	0		120	82.0	2.5	/experiments/AOT/AOT_stimuli/rescaled_final/1647_fw.mp4	0.0	367.7866060733795	1.000014066696167
84	348.32345700263977	pulse	0	t		82.0	2.5	/experiments/AOT/AOT_stimuli/rescaled_final/1647_fw.mp4	0.0	367.97018218040466	
84	349.1398949623108	movie	1		244	82.0	2.5	/experiments/AOT/AOT_stimuli/rescaled_final/1647_fw.mp4	0.0	368.7866201400757	2.500001907348633
84	349.92347288131714	pulse	1	t		82.0	2.5	/experiments/AOT/AOT_stimuli/rescaled_final/1647_fw.mp4	0.0	369.57019805908203	
84	351.5220568180084	pulse	1	t		82.0	2.5	/experiments/AOT/AOT_stimuli/rescaled_final/1647_fw.mp4	0.0	371.1687819957733	
84	351.6398968696594	fix_post	2		12	82.0	2.5	/experiments/AOT/AOT_stimuli/rescaled_final/1647_fw.mp4	0.0	371.2866220474243	0.09995007514953613
85	351.73984694480896	fix_pre	0		120	83.0	2.5	blank	1.0	371.38657212257385	0.9995870590209961
85	352.73943400382996	movie	1		300	83.0	2.5	blank	1.0	372.38615918159485	2.5000698566436768
85	353.1233928203583	pulse	1	t		83.0	2.5	blank	1.0	372.77011799812317	
85	354.72340393066406	pulse	1	t		83.0	2.5	blank	1.0	374.37012910842896	
85	355.23950386047363	fix_post	2		12	83.0	2.5	blank	1.0	374.8862290382385	0.10032796859741211
87	355.33983182907104	stim	0		1716					374.98655700683594	14.300065994262695
87	356.32346987724304	pulse	0	t						375.97019505500793	
87	357.9233899116516	pulse	0	t						377.5701150894165	
87	359.5234389305115	pulse	0	t						379.17016410827637	
87	361.1233959197998	pulse	0	t						380.7701210975647	
87	362.72338581085205	pulse	0	t						382.37011098861694	
87	364.32333493232727	pulse	0	t						383.97006011009216	
87	365.9233729839325	pulse	0	t						385.5700981616974	
87	367.5232698917389	pulse	0	t						387.1699950695038	
87	369.1231999397278	pulse	0	t						388.7699251174927	
