trial_nr	onset	event_type	phase	response	nr_frames	movie_index	movie_duration	movie_file	blank	onset_abs	duration
0	0.1665034294128418	stim	0		20					46.48541283607483	0.1666545867919922
0	0.3251519203186035	response	0	space						46.64406132698059	
1	0.333158016204834	stim	0		4809					46.65206742286682	40.09114980697632
1	40.41447591781616	pulse	0	t						86.73338532447815	
1	40.42430782318115	stim	1		1716					86.74321722984314	14.308472633361816
1	42.00637722015381	pulse	1	t						88.3252866268158	
1	43.598506927490234	pulse	1	t						89.91741633415222	
1	45.199127435684204	pulse	1	t						91.51803684234619	
1	46.79872250556946	pulse	1	t						93.11763191223145	
1	48.39870524406433	pulse	1	t						94.71761465072632	
1	49.99898409843445	pulse	1	t						96.31789350509644	
1	51.59932065010071	pulse	1	t						97.9182300567627	
1	53.19944953918457	pulse	1	t						99.51835894584656	
2	54.73278045654297	fix_pre	0		9	0.0	2.5	/experiments/Knapen_AOT/AOT_stimuli/rescaled_final/0697_fw.mp4	0.0	101.05168986320496	0.09174418449401855
2	54.79978275299072	pulse	0	t		0.0	2.5	/experiments/Knapen_AOT/AOT_stimuli/rescaled_final/0697_fw.mp4	0.0	101.11869215965271	
2	54.82452464103699	movie	1		271	0.0	2.5	/experiments/Knapen_AOT/AOT_stimuli/rescaled_final/0697_fw.mp4	0.0	101.14343404769897	2.492039680480957
2	56.400015354156494	pulse	1	t		0.0	2.5	/experiments/Knapen_AOT/AOT_stimuli/rescaled_final/0697_fw.mp4	0.0	102.71892476081848	
2	57.316564321517944	fix_post	2		12	0.0	2.5	/experiments/Knapen_AOT/AOT_stimuli/rescaled_final/0697_fw.mp4	0.0	103.63547372817993	0.10007548332214355
3	57.41663980484009	fix_pre	0		120	1.0	2.5	/experiments/Knapen_AOT/AOT_stimuli/rescaled_final/2154_rv.mp4	0.0	103.73554921150208	1.0084643363952637
3	58.000202894210815	pulse	0	t		1.0	2.5	/experiments/Knapen_AOT/AOT_stimuli/rescaled_final/2154_rv.mp4	0.0	104.3191123008728	
3	58.42510414123535	movie	1		286	1.0	2.5	/experiments/Knapen_AOT/AOT_stimuli/rescaled_final/2154_rv.mp4	0.0	104.74401354789734	2.4919533729553223
3	59.600428104400635	pulse	1	t		1.0	2.5	/experiments/Knapen_AOT/AOT_stimuli/rescaled_final/2154_rv.mp4	0.0	105.91933751106262	
3	60.917057514190674	fix_post	2		12	1.0	2.5	/experiments/Knapen_AOT/AOT_stimuli/rescaled_final/2154_rv.mp4	0.0	107.23596692085266	0.10002446174621582
4	61.01708197593689	fix_pre	0		120	2.0	2.5	/experiments/Knapen_AOT/AOT_stimuli/rescaled_final/0429_rv.mp4	0.0	107.33599138259888	1.0085031986236572
4	61.20075345039368	pulse	0	t		2.0	2.5	/experiments/Knapen_AOT/AOT_stimuli/rescaled_final/0429_rv.mp4	0.0	107.51966285705566	
4	62.02558517456055	movie	1		284	2.0	2.5	/experiments/Knapen_AOT/AOT_stimuli/rescaled_final/0429_rv.mp4	0.0	108.34449458122253	2.492072343826294
4	62.798744201660156	pulse	1	t		2.0	2.5	/experiments/Knapen_AOT/AOT_stimuli/rescaled_final/0429_rv.mp4	0.0	109.11765360832214	
4	64.39899492263794	pulse	1	t		2.0	2.5	/experiments/Knapen_AOT/AOT_stimuli/rescaled_final/0429_rv.mp4	0.0	110.71790432929993	
4	64.51765751838684	fix_post	2		12	2.0	2.5	/experiments/Knapen_AOT/AOT_stimuli/rescaled_final/0429_rv.mp4	0.0	110.83656692504883	0.10011100769042969
5	64.61776852607727	fix_pre	0		120	3.0	2.5	/experiments/Knapen_AOT/AOT_stimuli/rescaled_final/0143_rv.mp4	0.0	110.93667793273926	1.0083608627319336
5	65.6261293888092	movie	1		282	3.0	2.5	/experiments/Knapen_AOT/AOT_stimuli/rescaled_final/0143_rv.mp4	0.0	111.94503879547119	2.49198317527771
5	65.99970746040344	pulse	1	t		3.0	2.5	/experiments/Knapen_AOT/AOT_stimuli/rescaled_final/0143_rv.mp4	0.0	112.31861686706543	
5	67.59956240653992	pulse	1	t		3.0	2.5	/experiments/Knapen_AOT/AOT_stimuli/rescaled_final/0143_rv.mp4	0.0	113.9184718132019	
5	68.11811256408691	fix_post	2		12	3.0	2.5	/experiments/Knapen_AOT/AOT_stimuli/rescaled_final/0143_rv.mp4	0.0	114.4370219707489	0.10003137588500977
6	68.21814393997192	fix_pre	0		119	4.0	2.5	/experiments/Knapen_AOT/AOT_stimuli/rescaled_final/0349_fw.mp4	0.0	114.53705334663391	1.000169038772583
6	69.20181560516357	pulse	0	t		4.0	2.5	/experiments/Knapen_AOT/AOT_stimuli/rescaled_final/0349_fw.mp4	0.0	115.52072501182556	
6	69.2183129787445	movie	1		288	4.0	2.5	/experiments/Knapen_AOT/AOT_stimuli/rescaled_final/0349_fw.mp4	0.0	115.5372223854065	2.500359296798706
6	70.80079245567322	pulse	1	t		4.0	2.5	/experiments/Knapen_AOT/AOT_stimuli/rescaled_final/0349_fw.mp4	0.0	117.1197018623352	
6	71.71867227554321	fix_post	2		12	4.0	2.5	/experiments/Knapen_AOT/AOT_stimuli/rescaled_final/0349_fw.mp4	0.0	118.0375816822052	0.10005855560302734
7	71.81873083114624	fix_pre	0		120	5.0	2.5	blank	1.0	118.13764023780823	1.0001072883605957
7	72.40234208106995	pulse	0	t		5.0	2.5	blank	1.0	118.72125148773193	
7	72.81883811950684	movie	1		300	5.0	2.5	blank	1.0	119.13774752616882	2.500429391860962
7	74.00257086753845	pulse	1	t		5.0	2.5	blank	1.0	120.32148027420044	
7	75.3192675113678	fix_post	2		12	5.0	2.5	blank	1.0	121.63817691802979	0.09998726844787598
8	75.41925477981567	fix_pre	0		120	6.0	2.5	/experiments/Knapen_AOT/AOT_stimuli/rescaled_final/1771_fw.mp4	0.0	121.73816418647766	1.0084822177886963
8	75.60277557373047	pulse	0	t		6.0	2.5	/experiments/Knapen_AOT/AOT_stimuli/rescaled_final/1771_fw.mp4	0.0	121.92168498039246	
8	76.42773699760437	movie	1		291	6.0	2.5	/experiments/Knapen_AOT/AOT_stimuli/rescaled_final/1771_fw.mp4	0.0	122.74664640426636	2.4920167922973633
8	77.20094752311707	pulse	1	t		6.0	2.5	/experiments/Knapen_AOT/AOT_stimuli/rescaled_final/1771_fw.mp4	0.0	123.51985692977905	
8	78.80162048339844	pulse	1	t		6.0	2.5	/experiments/Knapen_AOT/AOT_stimuli/rescaled_final/1771_fw.mp4	0.0	125.12052989006042	
8	78.91975378990173	fix_post	2		12	6.0	2.5	/experiments/Knapen_AOT/AOT_stimuli/rescaled_final/1771_fw.mp4	0.0	125.23866319656372	0.10000324249267578
9	79.01975703239441	fix_pre	0		120	7.0	2.5	/experiments/Knapen_AOT/AOT_stimuli/rescaled_final/1771_rv.mp4	0.0	125.3386664390564	1.0085022449493408
9	80.02825927734375	movie	1		282	7.0	2.5	/experiments/Knapen_AOT/AOT_stimuli/rescaled_final/1771_rv.mp4	0.0	126.34716868400574	2.492068290710449
9	80.4037766456604	pulse	1	t		7.0	2.5	/experiments/Knapen_AOT/AOT_stimuli/rescaled_final/1771_rv.mp4	0.0	126.72268605232239	
9	82.00180506706238	pulse	1	t		7.0	2.5	/experiments/Knapen_AOT/AOT_stimuli/rescaled_final/1771_rv.mp4	0.0	128.32071447372437	
9	82.5203275680542	fix_post	2		12	7.0	2.5	/experiments/Knapen_AOT/AOT_stimuli/rescaled_final/1771_rv.mp4	0.0	128.8392369747162	0.09998202323913574
10	82.62030959129333	fix_pre	0		119	8.0	2.5	/experiments/Knapen_AOT/AOT_stimuli/rescaled_final/0728_fw.mp4	0.0	128.93921899795532	1.00016188621521
10	83.60400652885437	pulse	0	t		8.0	2.5	/experiments/Knapen_AOT/AOT_stimuli/rescaled_final/0728_fw.mp4	0.0	129.92291593551636	
10	83.62047147750854	movie	1		289	8.0	2.5	/experiments/Knapen_AOT/AOT_stimuli/rescaled_final/0728_fw.mp4	0.0	129.93938088417053	2.500366687774658
10	85.20237708091736	pulse	1	t		8.0	2.5	/experiments/Knapen_AOT/AOT_stimuli/rescaled_final/0728_fw.mp4	0.0	131.52128648757935	
10	86.1208381652832	fix_post	2		12	8.0	2.5	/experiments/Knapen_AOT/AOT_stimuli/rescaled_final/0728_fw.mp4	0.0	132.4397475719452	0.10002374649047852
11	86.22086191177368	fix_pre	0		120	9.0	2.5	/experiments/Knapen_AOT/AOT_stimuli/rescaled_final/1383_rv.mp4	0.0	132.53977131843567	1.008528232574463
11	86.80447745323181	pulse	0	t		9.0	2.5	/experiments/Knapen_AOT/AOT_stimuli/rescaled_final/1383_rv.mp4	0.0	133.1233868598938	
11	87.22939014434814	movie	1		278	9.0	2.5	/experiments/Knapen_AOT/AOT_stimuli/rescaled_final/1383_rv.mp4	0.0	133.54829955101013	2.4919774532318115
11	88.4031445980072	pulse	1	t		9.0	2.5	/experiments/Knapen_AOT/AOT_stimuli/rescaled_final/1383_rv.mp4	0.0	134.7220540046692	
11	89.72136759757996	fix_post	2		12	9.0	2.5	/experiments/Knapen_AOT/AOT_stimuli/rescaled_final/1383_rv.mp4	0.0	136.04027700424194	0.10002899169921875
12	89.82139658927917	fix_pre	0		120	10.0	2.5	/experiments/Knapen_AOT/AOT_stimuli/rescaled_final/2082_fw.mp4	0.0	136.14030599594116	1.0086157321929932
12	90.00504565238953	pulse	0	t		10.0	2.5	/experiments/Knapen_AOT/AOT_stimuli/rescaled_final/2082_fw.mp4	0.0	136.3239550590515	
12	90.83001232147217	movie	1		275	10.0	2.5	/experiments/Knapen_AOT/AOT_stimuli/rescaled_final/2082_fw.mp4	0.0	137.14892172813416	2.491915464401245
12	91.60283613204956	pulse	1	t		10.0	2.5	/experiments/Knapen_AOT/AOT_stimuli/rescaled_final/2082_fw.mp4	0.0	137.92174553871155	
12	93.20513772964478	pulse	1	t		10.0	2.5	/experiments/Knapen_AOT/AOT_stimuli/rescaled_final/2082_fw.mp4	0.0	139.52404713630676	
12	93.32192778587341	fix_post	2		12	10.0	2.5	/experiments/Knapen_AOT/AOT_stimuli/rescaled_final/2082_fw.mp4	0.0	139.6408371925354	0.10007357597351074
13	93.42200136184692	fix_pre	0		120	11.0	2.5	/experiments/Knapen_AOT/AOT_stimuli/rescaled_final/0505_rv.mp4	0.0	139.7409107685089	1.008439540863037
13	94.43044090270996	movie	1		279	11.0	2.5	/experiments/Knapen_AOT/AOT_stimuli/rescaled_final/0505_rv.mp4	0.0	140.74935030937195	2.4921088218688965
13	94.80456876754761	pulse	1	t		11.0	2.5	/experiments/Knapen_AOT/AOT_stimuli/rescaled_final/0505_rv.mp4	0.0	141.1234781742096	
13	96.40402626991272	pulse	1	t		11.0	2.5	/experiments/Knapen_AOT/AOT_stimuli/rescaled_final/0505_rv.mp4	0.0	142.7229356765747	
13	96.92254972457886	fix_post	2		12	11.0	2.5	/experiments/Knapen_AOT/AOT_stimuli/rescaled_final/0505_rv.mp4	0.0	143.24145913124084	0.09993553161621094
14	97.02248525619507	fix_pre	0		119	12.0	2.5	blank	1.0	143.34139466285706	0.9918429851531982
14	98.0062358379364	pulse	0	t		12.0	2.5	blank	1.0	144.3251452445984	
14	98.01432824134827	movie	1		301	12.0	2.5	blank	1.0	144.33323764801025	2.5087192058563232
14	99.59906959533691	pulse	1	t		12.0	2.5	blank	1.0	145.9179790019989	
14	100.52304744720459	fix_post	2		12	12.0	2.5	blank	1.0	146.84195685386658	0.10002923011779785
15	100.62307667732239	fix_pre	0		120	13.0	2.5	/experiments/Knapen_AOT/AOT_stimuli/rescaled_final/0180_fw.mp4	0.0	146.94198608398438	1.0084288120269775
15	101.19925832748413	pulse	0	t		13.0	2.5	/experiments/Knapen_AOT/AOT_stimuli/rescaled_final/0180_fw.mp4	0.0	147.51816773414612	
15	101.63150548934937	movie	1		284	13.0	2.5	/experiments/Knapen_AOT/AOT_stimuli/rescaled_final/0180_fw.mp4	0.0	147.95041489601135	2.4920787811279297
15	102.80536317825317	pulse	1	t		13.0	2.5	/experiments/Knapen_AOT/AOT_stimuli/rescaled_final/0180_fw.mp4	0.0	149.12427258491516	
15	104.1235842704773	fix_post	2		12	13.0	2.5	/experiments/Knapen_AOT/AOT_stimuli/rescaled_final/0180_fw.mp4	0.0	150.44249367713928	0.09996891021728516
16	104.22355318069458	fix_pre	0		120	14.0	2.5	/experiments/Knapen_AOT/AOT_stimuli/rescaled_final/0907_fw.mp4	0.0	150.54246258735657	1.0085244178771973
16	104.39915585517883	pulse	0	t		14.0	2.5	/experiments/Knapen_AOT/AOT_stimuli/rescaled_final/0907_fw.mp4	0.0	150.71806526184082	
16	105.23207759857178	movie	1		277	14.0	2.5	/experiments/Knapen_AOT/AOT_stimuli/rescaled_final/0907_fw.mp4	0.0	151.55098700523376	2.4920687675476074
16	105.9993724822998	pulse	1	t		14.0	2.5	/experiments/Knapen_AOT/AOT_stimuli/rescaled_final/0907_fw.mp4	0.0	152.3182818889618	
16	107.59937834739685	pulse	1	t		14.0	2.5	/experiments/Knapen_AOT/AOT_stimuli/rescaled_final/0907_fw.mp4	0.0	153.91828775405884	
16	107.72414636611938	fix_post	2		12	14.0	2.5	/experiments/Knapen_AOT/AOT_stimuli/rescaled_final/0907_fw.mp4	0.0	154.04305577278137	0.10002017021179199
17	107.82416653633118	fix_pre	0		120	15.0	2.5	/experiments/Knapen_AOT/AOT_stimuli/rescaled_final/1969_fw.mp4	0.0	154.14307594299316	1.008451223373413
17	108.83261775970459	movie	1		279	15.0	2.5	/experiments/Knapen_AOT/AOT_stimuli/rescaled_final/1969_fw.mp4	0.0	155.15152716636658	2.492060661315918
17	109.19952845573425	pulse	1	t		15.0	2.5	/experiments/Knapen_AOT/AOT_stimuli/rescaled_final/1969_fw.mp4	0.0	155.51843786239624	
17	110.79979610443115	pulse	1	t		15.0	2.5	/experiments/Knapen_AOT/AOT_stimuli/rescaled_final/1969_fw.mp4	0.0	157.11870551109314	
17	111.32467842102051	fix_post	2		12	15.0	2.5	/experiments/Knapen_AOT/AOT_stimuli/rescaled_final/1969_fw.mp4	0.0	157.6435878276825	0.1000056266784668
18	111.42468404769897	fix_pre	0		118	16.0	2.5	/experiments/Knapen_AOT/AOT_stimuli/rescaled_final/1316_rv.mp4	0.0	157.74359345436096	0.9918015003204346
18	112.40010571479797	pulse	0	t		16.0	2.5	/experiments/Knapen_AOT/AOT_stimuli/rescaled_final/1316_rv.mp4	0.0	158.71901512145996	
18	112.41648554801941	movie	1		289	16.0	2.5	/experiments/Knapen_AOT/AOT_stimuli/rescaled_final/1316_rv.mp4	0.0	158.7353949546814	2.500354051589966
18	114.00041389465332	pulse	1	t		16.0	2.5	/experiments/Knapen_AOT/AOT_stimuli/rescaled_final/1316_rv.mp4	0.0	160.3193233013153	
18	114.91683959960938	fix_post	2		12	16.0	2.5	/experiments/Knapen_AOT/AOT_stimuli/rescaled_final/1316_rv.mp4	0.0	161.23574900627136	0.10002899169921875
19	115.0168685913086	fix_pre	0		120	17.0	2.5	/experiments/Knapen_AOT/AOT_stimuli/rescaled_final/1857_fw.mp4	0.0	161.33577799797058	1.008526086807251
19	115.60053205490112	pulse	0	t		17.0	2.5	/experiments/Knapen_AOT/AOT_stimuli/rescaled_final/1857_fw.mp4	0.0	161.9194414615631	
19	116.02539467811584	movie	1		283	17.0	2.5	/experiments/Knapen_AOT/AOT_stimuli/rescaled_final/1857_fw.mp4	0.0	162.34430408477783	2.491978406906128
19	117.1991708278656	pulse	1	t		17.0	2.5	/experiments/Knapen_AOT/AOT_stimuli/rescaled_final/1857_fw.mp4	0.0	163.5180802345276	
19	118.51737308502197	fix_post	2		12	17.0	2.5	/experiments/Knapen_AOT/AOT_stimuli/rescaled_final/1857_fw.mp4	0.0	164.83628249168396	0.10003256797790527
20	118.61740565299988	fix_pre	0		120	18.0	2.5	/experiments/Knapen_AOT/AOT_stimuli/rescaled_final/1443_rv.mp4	0.0	164.93631505966187	1.0085315704345703
20	118.80093622207642	pulse	0	t		18.0	2.5	/experiments/Knapen_AOT/AOT_stimuli/rescaled_final/1443_rv.mp4	0.0	165.1198456287384	
20	119.62593722343445	movie	1		288	18.0	2.5	/experiments/Knapen_AOT/AOT_stimuli/rescaled_final/1443_rv.mp4	0.0	165.94484663009644	2.500319004058838
20	120.40122032165527	pulse	1	t		18.0	2.5	/experiments/Knapen_AOT/AOT_stimuli/rescaled_final/1443_rv.mp4	0.0	166.72012972831726	
20	121.99957919120789	pulse	1	t		18.0	2.5	/experiments/Knapen_AOT/AOT_stimuli/rescaled_final/1443_rv.mp4	0.0	168.31848859786987	
20	122.12625622749329	fix_post	2		11	18.0	2.5	/experiments/Knapen_AOT/AOT_stimuli/rescaled_final/1443_rv.mp4	0.0	168.44516563415527	0.09173154830932617
21	122.21798777580261	fix_pre	0		120	19.0	2.5	/experiments/Knapen_AOT/AOT_stimuli/rescaled_final/1593_fw.mp4	0.0	168.5368971824646	1.0084421634674072
21	123.22642993927002	movie	1		275	19.0	2.5	/experiments/Knapen_AOT/AOT_stimuli/rescaled_final/1593_fw.mp4	0.0	169.545339345932	2.49200701713562
21	123.60051107406616	pulse	1	t		19.0	2.5	/experiments/Knapen_AOT/AOT_stimuli/rescaled_final/1593_fw.mp4	0.0	169.91942048072815	
21	125.19995498657227	pulse	1	t		19.0	2.5	/experiments/Knapen_AOT/AOT_stimuli/rescaled_final/1593_fw.mp4	0.0	171.51886439323425	
21	125.71843695640564	fix_post	2		12	19.0	2.5	/experiments/Knapen_AOT/AOT_stimuli/rescaled_final/1593_fw.mp4	0.0	172.03734636306763	0.10001969337463379
22	125.81845664978027	fix_pre	0		119	20.0	2.5	/experiments/Knapen_AOT/AOT_stimuli/rescaled_final/1393_rv.mp4	0.0	172.13736605644226	1.000230073928833
22	126.80243349075317	pulse	0	t		20.0	2.5	/experiments/Knapen_AOT/AOT_stimuli/rescaled_final/1393_rv.mp4	0.0	173.12134289741516	
22	126.8186867237091	movie	1		287	20.0	2.5	/experiments/Knapen_AOT/AOT_stimuli/rescaled_final/1393_rv.mp4	0.0	173.1375961303711	2.500344753265381
22	128.4022080898285	pulse	1	t		20.0	2.5	/experiments/Knapen_AOT/AOT_stimuli/rescaled_final/1393_rv.mp4	0.0	174.72111749649048	
22	129.3190314769745	fix_post	2		12	20.0	2.5	/experiments/Knapen_AOT/AOT_stimuli/rescaled_final/1393_rv.mp4	0.0	175.63794088363647	0.10005664825439453
23	129.41908812522888	fix_pre	0		120	21.0	2.5	blank	1.0	175.73799753189087	1.0000698566436768
23	130.00269412994385	pulse	0	t		21.0	2.5	blank	1.0	176.32160353660583	
23	130.41915798187256	movie	1		300	21.0	2.5	blank	1.0	176.73806738853455	2.5003714561462402
23	131.60293555259705	pulse	1	t		21.0	2.5	blank	1.0	177.92184495925903	
23	132.9195294380188	fix_post	2		12	21.0	2.5	blank	1.0	179.2384388446808	0.10000872611999512
24	133.0195381641388	fix_pre	0		120	22.0	2.5	/experiments/Knapen_AOT/AOT_stimuli/rescaled_final/2009_rv.mp4	0.0	179.33844757080078	1.00850510597229
24	133.20311522483826	pulse	0	t		22.0	2.5	/experiments/Knapen_AOT/AOT_stimuli/rescaled_final/2009_rv.mp4	0.0	179.52202463150024	
24	134.02804327011108	movie	1		289	22.0	2.5	/experiments/Knapen_AOT/AOT_stimuli/rescaled_final/2009_rv.mp4	0.0	180.34695267677307	2.4920785427093506
24	134.80464434623718	pulse	1	t		22.0	2.5	/experiments/Knapen_AOT/AOT_stimuli/rescaled_final/2009_rv.mp4	0.0	181.12355375289917	
24	136.40242505073547	pulse	1	t		22.0	2.5	/experiments/Knapen_AOT/AOT_stimuli/rescaled_final/2009_rv.mp4	0.0	182.72133445739746	
24	136.52012181282043	fix_post	2		12	22.0	2.5	/experiments/Knapen_AOT/AOT_stimuli/rescaled_final/2009_rv.mp4	0.0	182.83903121948242	0.09997010231018066
25	136.62009191513062	fix_pre	0		120	23.0	2.5	/experiments/Knapen_AOT/AOT_stimuli/rescaled_final/0535_fw.mp4	0.0	182.9390013217926	1.0084948539733887
25	137.628586769104	movie	1		281	23.0	2.5	/experiments/Knapen_AOT/AOT_stimuli/rescaled_final/0535_fw.mp4	0.0	183.947496175766	2.492051362991333
25	138.00344896316528	pulse	1	t		23.0	2.5	/experiments/Knapen_AOT/AOT_stimuli/rescaled_final/0535_fw.mp4	0.0	184.32235836982727	
25	139.60202717781067	pulse	1	t		23.0	2.5	/experiments/Knapen_AOT/AOT_stimuli/rescaled_final/0535_fw.mp4	0.0	185.92093658447266	
25	140.12063813209534	fix_post	2		12	23.0	2.5	/experiments/Knapen_AOT/AOT_stimuli/rescaled_final/0535_fw.mp4	0.0	186.43954753875732	0.0999753475189209
26	140.22061347961426	fix_pre	0		119	24.0	2.5	/experiments/Knapen_AOT/AOT_stimuli/rescaled_final/1475_fw.mp4	0.0	186.53952288627625	1.0002315044403076
26	141.2043948173523	pulse	0	t		24.0	2.5	/experiments/Knapen_AOT/AOT_stimuli/rescaled_final/1475_fw.mp4	0.0	187.52330422401428	
26	141.22084498405457	movie	1		282	24.0	2.5	/experiments/Knapen_AOT/AOT_stimuli/rescaled_final/1475_fw.mp4	0.0	187.53975439071655	2.500312089920044
26	142.80269646644592	pulse	1	t		24.0	2.5	/experiments/Knapen_AOT/AOT_stimuli/rescaled_final/1475_fw.mp4	0.0	189.1216058731079	
26	143.7211570739746	fix_post	2		12	24.0	2.5	/experiments/Knapen_AOT/AOT_stimuli/rescaled_final/1475_fw.mp4	0.0	190.0400664806366	0.10000896453857422
27	143.82116603851318	fix_pre	0		120	25.0	2.5	/experiments/Knapen_AOT/AOT_stimuli/rescaled_final/1313_fw.mp4	0.0	190.14007544517517	1.008509635925293
27	144.40484857559204	pulse	0	t		25.0	2.5	/experiments/Knapen_AOT/AOT_stimuli/rescaled_final/1313_fw.mp4	0.0	190.72375798225403	
27	144.82967567443848	movie	1		282	25.0	2.5	/experiments/Knapen_AOT/AOT_stimuli/rescaled_final/1313_fw.mp4	0.0	191.14858508110046	2.4920296669006348
27	146.00294184684753	pulse	1	t		25.0	2.5	/experiments/Knapen_AOT/AOT_stimuli/rescaled_final/1313_fw.mp4	0.0	192.32185125350952	
27	147.3217053413391	fix_post	2		12	25.0	2.5	/experiments/Knapen_AOT/AOT_stimuli/rescaled_final/1313_fw.mp4	0.0	193.6406147480011	0.10001158714294434
28	147.42171692848206	fix_pre	0		120	26.0	2.5	/experiments/Knapen_AOT/AOT_stimuli/rescaled_final/1191_fw.mp4	0.0	193.74062633514404	1.0085580348968506
28	147.6052680015564	pulse	0	t		26.0	2.5	/experiments/Knapen_AOT/AOT_stimuli/rescaled_final/1191_fw.mp4	0.0	193.92417740821838	
28	148.4302749633789	movie	1		279	26.0	2.5	/experiments/Knapen_AOT/AOT_stimuli/rescaled_final/1191_fw.mp4	0.0	194.7491843700409	2.492015838623047
28	149.20364093780518	pulse	1	t		26.0	2.5	/experiments/Knapen_AOT/AOT_stimuli/rescaled_final/1191_fw.mp4	0.0	195.52255034446716	
28	150.80384588241577	pulse	1	t		26.0	2.5	/experiments/Knapen_AOT/AOT_stimuli/rescaled_final/1191_fw.mp4	0.0	197.12275528907776	
28	150.92229080200195	fix_post	2		12	26.0	2.5	/experiments/Knapen_AOT/AOT_stimuli/rescaled_final/1191_fw.mp4	0.0	197.24120020866394	0.09996986389160156
29	151.02226066589355	fix_pre	0		120	27.0	2.5	/experiments/Knapen_AOT/AOT_stimuli/rescaled_final/1161_rv.mp4	0.0	197.34117007255554	1.0085062980651855
29	152.03076696395874	movie	1		284	27.0	2.5	/experiments/Knapen_AOT/AOT_stimuli/rescaled_final/1161_rv.mp4	0.0	198.34967637062073	2.492021322250366
29	152.40467286109924	pulse	1	t		27.0	2.5	/experiments/Knapen_AOT/AOT_stimuli/rescaled_final/1161_rv.mp4	0.0	198.72358226776123	
29	154.0051052570343	pulse	1	t		27.0	2.5	/experiments/Knapen_AOT/AOT_stimuli/rescaled_final/1161_rv.mp4	0.0	200.3240146636963	
29	154.5227882862091	fix_post	2		12	27.0	2.5	/experiments/Knapen_AOT/AOT_stimuli/rescaled_final/1161_rv.mp4	0.0	200.8416976928711	0.10001921653747559
30	154.62280750274658	fix_pre	0		119	28.0	2.5	blank	1.0	200.94171690940857	0.9918158054351807
30	155.60696697235107	pulse	0	t		28.0	2.5	blank	1.0	201.92587637901306	
30	155.61462330818176	movie	1		301	28.0	2.5	blank	1.0	201.93353271484375	2.5087010860443115
30	157.20709323883057	pulse	1	t		28.0	2.5	blank	1.0	203.52600264549255	
30	158.12332439422607	fix_post	2		12	28.0	2.5	blank	1.0	204.44223380088806	0.10001683235168457
31	158.22334122657776	fix_pre	0		120	29.0	2.5	/experiments/Knapen_AOT/AOT_stimuli/rescaled_final/1810_rv.mp4	0.0	204.54225063323975	1.0085093975067139
31	158.80707621574402	pulse	0	t		29.0	2.5	/experiments/Knapen_AOT/AOT_stimuli/rescaled_final/1810_rv.mp4	0.0	205.125985622406	
31	159.23185062408447	movie	1		279	29.0	2.5	/experiments/Knapen_AOT/AOT_stimuli/rescaled_final/1810_rv.mp4	0.0	205.55076003074646	2.492009162902832
31	160.39957761764526	pulse	1	t		29.0	2.5	/experiments/Knapen_AOT/AOT_stimuli/rescaled_final/1810_rv.mp4	0.0	206.71848702430725	
31	161.7238597869873	fix_post	2		12	29.0	2.5	/experiments/Knapen_AOT/AOT_stimuli/rescaled_final/1810_rv.mp4	0.0	208.0427691936493	0.10003900527954102
32	161.82389879226685	fix_pre	0		120	30.0	2.5	/experiments/Knapen_AOT/AOT_stimuli/rescaled_final/0910_rv.mp4	0.0	208.14280819892883	1.0084724426269531
32	162.00094509124756	pulse	0	t		30.0	2.5	/experiments/Knapen_AOT/AOT_stimuli/rescaled_final/0910_rv.mp4	0.0	208.31985449790955	
32	162.8323712348938	movie	1		277	30.0	2.5	/experiments/Knapen_AOT/AOT_stimuli/rescaled_final/0910_rv.mp4	0.0	209.1512806415558	2.4921762943267822
32	163.59974932670593	pulse	1	t		30.0	2.5	/experiments/Knapen_AOT/AOT_stimuli/rescaled_final/0910_rv.mp4	0.0	209.91865873336792	
32	165.19964599609375	pulse	1	t		30.0	2.5	/experiments/Knapen_AOT/AOT_stimuli/rescaled_final/0910_rv.mp4	0.0	211.51855540275574	
32	165.32454752922058	fix_post	2		12	30.0	2.5	/experiments/Knapen_AOT/AOT_stimuli/rescaled_final/0910_rv.mp4	0.0	211.64345693588257	0.09988117218017578
33	165.42442870140076	fix_pre	0		120	31.0	2.5	/experiments/Knapen_AOT/AOT_stimuli/rescaled_final/0401_fw.mp4	0.0	211.74333810806274	1.0085039138793945
33	166.43293261528015	movie	1		278	31.0	2.5	/experiments/Knapen_AOT/AOT_stimuli/rescaled_final/0401_fw.mp4	0.0	212.75184202194214	2.492020606994629
33	166.7999768257141	pulse	1	t		31.0	2.5	/experiments/Knapen_AOT/AOT_stimuli/rescaled_final/0401_fw.mp4	0.0	213.1188862323761	
33	168.40009355545044	pulse	1	t		31.0	2.5	/experiments/Knapen_AOT/AOT_stimuli/rescaled_final/0401_fw.mp4	0.0	214.71900296211243	
33	168.92495322227478	fix_post	2		12	31.0	2.5	/experiments/Knapen_AOT/AOT_stimuli/rescaled_final/0401_fw.mp4	0.0	215.24386262893677	0.1000220775604248
34	169.0249752998352	fix_pre	0		118	32.0	2.5	/experiments/Knapen_AOT/AOT_stimuli/rescaled_final/1884_fw.mp4	0.0	215.3438847064972	0.9918060302734375
34	170.00031876564026	pulse	0	t		32.0	2.5	/experiments/Knapen_AOT/AOT_stimuli/rescaled_final/1884_fw.mp4	0.0	216.31922817230225	
34	170.01678133010864	movie	1		273	32.0	2.5	/experiments/Knapen_AOT/AOT_stimuli/rescaled_final/1884_fw.mp4	0.0	216.33569073677063	2.5003886222839355
34	171.60061168670654	pulse	1	t		32.0	2.5	/experiments/Knapen_AOT/AOT_stimuli/rescaled_final/1884_fw.mp4	0.0	217.91952109336853	
34	172.51716995239258	fix_post	2		12	32.0	2.5	/experiments/Knapen_AOT/AOT_stimuli/rescaled_final/1884_fw.mp4	0.0	218.83607935905457	0.10001039505004883
35	172.61718034744263	fix_pre	0		120	33.0	2.5	/experiments/Knapen_AOT/AOT_stimuli/rescaled_final/0486_fw.mp4	0.0	218.93608975410461	1.008514165878296
35	173.20089960098267	pulse	0	t		33.0	2.5	/experiments/Knapen_AOT/AOT_stimuli/rescaled_final/0486_fw.mp4	0.0	219.51980900764465	
35	173.62569451332092	movie	1		281	33.0	2.5	/experiments/Knapen_AOT/AOT_stimuli/rescaled_final/0486_fw.mp4	0.0	219.9446039199829	2.492009401321411
35	174.80125427246094	pulse	1	t		33.0	2.5	/experiments/Knapen_AOT/AOT_stimuli/rescaled_final/0486_fw.mp4	0.0	221.12016367912292	
35	176.11770391464233	fix_post	2		12	33.0	2.5	/experiments/Knapen_AOT/AOT_stimuli/rescaled_final/0486_fw.mp4	0.0	222.43661332130432	0.10001182556152344
36	176.21771574020386	fix_pre	0		120	34.0	2.5	/experiments/Knapen_AOT/AOT_stimuli/rescaled_final/1249_rv.mp4	0.0	222.53662514686584	1.0084879398345947
36	176.40143966674805	pulse	0	t		34.0	2.5	/experiments/Knapen_AOT/AOT_stimuli/rescaled_final/1249_rv.mp4	0.0	222.72034907341003	
36	177.22620368003845	movie	1		289	34.0	2.5	/experiments/Knapen_AOT/AOT_stimuli/rescaled_final/1249_rv.mp4	0.0	223.54511308670044	2.4920270442962646
36	178.0017111301422	pulse	1	t		34.0	2.5	/experiments/Knapen_AOT/AOT_stimuli/rescaled_final/1249_rv.mp4	0.0	224.3206205368042	
36	179.59997606277466	pulse	1	t		34.0	2.5	/experiments/Knapen_AOT/AOT_stimuli/rescaled_final/1249_rv.mp4	0.0	225.91888546943665	
36	179.71823072433472	fix_post	2		12	34.0	2.5	/experiments/Knapen_AOT/AOT_stimuli/rescaled_final/1249_rv.mp4	0.0	226.0371401309967	0.10001015663146973
37	179.8182408809662	fix_pre	0		120	35.0	2.5	blank	1.0	226.13715028762817	1.0001611709594727
37	180.81840205192566	movie	1		300	35.0	2.5	blank	1.0	227.13731145858765	2.5003719329833984
37	181.20207738876343	pulse	1	t		35.0	2.5	blank	1.0	227.52098679542542	
37	182.80224204063416	pulse	1	t		35.0	2.5	blank	1.0	229.12115144729614	
37	183.31877398490906	fix_post	2		12	35.0	2.5	blank	1.0	229.63768339157104	0.10001945495605469
38	183.4187934398651	fix_pre	0		119	36.0	2.5	/experiments/Knapen_AOT/AOT_stimuli/rescaled_final/0642_rv.mp4	0.0	229.7377028465271	1.0001697540283203
38	184.40249609947205	pulse	0	t		36.0	2.5	/experiments/Knapen_AOT/AOT_stimuli/rescaled_final/0642_rv.mp4	0.0	230.72140550613403	
38	184.41896319389343	movie	1		277	36.0	2.5	/experiments/Knapen_AOT/AOT_stimuli/rescaled_final/0642_rv.mp4	0.0	230.73787260055542	2.500373125076294
38	186.00270128250122	pulse	1	t		36.0	2.5	/experiments/Knapen_AOT/AOT_stimuli/rescaled_final/0642_rv.mp4	0.0	232.3216106891632	
38	186.91933631896973	fix_post	2		12	36.0	2.5	/experiments/Knapen_AOT/AOT_stimuli/rescaled_final/0642_rv.mp4	0.0	233.2382457256317	0.1000375747680664
39	187.0193738937378	fix_pre	0		120	37.0	2.5	/experiments/Knapen_AOT/AOT_stimuli/rescaled_final/1286_fw.mp4	0.0	233.33828330039978	1.0084187984466553
39	187.60298705101013	pulse	0	t		37.0	2.5	/experiments/Knapen_AOT/AOT_stimuli/rescaled_final/1286_fw.mp4	0.0	233.92189645767212	
39	188.02779269218445	movie	1		277	37.0	2.5	/experiments/Knapen_AOT/AOT_stimuli/rescaled_final/1286_fw.mp4	0.0	234.34670209884644	2.492050886154175
39	189.20582842826843	pulse	1	t		37.0	2.5	/experiments/Knapen_AOT/AOT_stimuli/rescaled_final/1286_fw.mp4	0.0	235.52473783493042	
39	190.51984357833862	fix_post	2		12	37.0	2.5	/experiments/Knapen_AOT/AOT_stimuli/rescaled_final/1286_fw.mp4	0.0	236.8387529850006	0.10001707077026367
40	190.6198606491089	fix_pre	0		120	38.0	2.5	/experiments/Knapen_AOT/AOT_stimuli/rescaled_final/1827_fw.mp4	0.0	236.93877005577087	1.0085349082946777
40	190.80341792106628	pulse	0	t		38.0	2.5	/experiments/Knapen_AOT/AOT_stimuli/rescaled_final/1827_fw.mp4	0.0	237.12232732772827	
40	191.62839555740356	movie	1		269	38.0	2.5	/experiments/Knapen_AOT/AOT_stimuli/rescaled_final/1827_fw.mp4	0.0	237.94730496406555	2.491978406906128
40	192.40527033805847	pulse	1	t		38.0	2.5	/experiments/Knapen_AOT/AOT_stimuli/rescaled_final/1827_fw.mp4	0.0	238.72417974472046	
40	194.00191950798035	pulse	1	t		38.0	2.5	/experiments/Knapen_AOT/AOT_stimuli/rescaled_final/1827_fw.mp4	0.0	240.32082891464233	
40	194.1203739643097	fix_post	2		12	38.0	2.5	/experiments/Knapen_AOT/AOT_stimuli/rescaled_final/1827_fw.mp4	0.0	240.43928337097168	0.1002507209777832
41	194.22062468528748	fix_pre	0		120	39.0	2.5	/experiments/Knapen_AOT/AOT_stimuli/rescaled_final/1553_fw.mp4	0.0	240.53953409194946	1.0083718299865723
41	195.22899651527405	movie	1		278	39.0	2.5	/experiments/Knapen_AOT/AOT_stimuli/rescaled_final/1553_fw.mp4	0.0	241.54790592193604	2.4919443130493164
41	195.60254788398743	pulse	1	t		39.0	2.5	/experiments/Knapen_AOT/AOT_stimuli/rescaled_final/1553_fw.mp4	0.0	241.9214572906494	
41	197.2025864124298	pulse	1	t		39.0	2.5	/experiments/Knapen_AOT/AOT_stimuli/rescaled_final/1553_fw.mp4	0.0	243.5214958190918	
41	197.72094082832336	fix_post	2		12	39.0	2.5	/experiments/Knapen_AOT/AOT_stimuli/rescaled_final/1553_fw.mp4	0.0	244.03985023498535	0.10001444816589355
42	197.82095527648926	fix_pre	0		119	40.0	2.5	/experiments/Knapen_AOT/AOT_stimuli/rescaled_final/1146_rv.mp4	0.0	244.13986468315125	1.0001513957977295
42	198.804753780365	pulse	0	t		40.0	2.5	/experiments/Knapen_AOT/AOT_stimuli/rescaled_final/1146_rv.mp4	0.0	245.12366318702698	
42	198.821106672287	movie	1		290	40.0	2.5	/experiments/Knapen_AOT/AOT_stimuli/rescaled_final/1146_rv.mp4	0.0	245.14001607894897	2.500363826751709
42	200.4034824371338	pulse	1	t		40.0	2.5	/experiments/Knapen_AOT/AOT_stimuli/rescaled_final/1146_rv.mp4	0.0	246.72239184379578	
42	201.3214704990387	fix_post	2		12	40.0	2.5	/experiments/Knapen_AOT/AOT_stimuli/rescaled_final/1146_rv.mp4	0.0	247.64037990570068	0.10001158714294434
43	201.42148208618164	fix_pre	0		120	41.0	2.5	blank	1.0	247.74039149284363	1.000211238861084
43	202.00514483451843	pulse	0	t		41.0	2.5	blank	1.0	248.32405424118042	
43	202.42169332504272	movie	1		300	41.0	2.5	blank	1.0	248.7406027317047	2.500312566757202
43	203.60536217689514	pulse	1	t		41.0	2.5	blank	1.0	249.92427158355713	
43	204.92200589179993	fix_post	2		12	41.0	2.5	blank	1.0	251.2409152984619	0.10008978843688965
44	205.02209568023682	fix_pre	0		120	42.0	2.5	/experiments/Knapen_AOT/AOT_stimuli/rescaled_final/1517_fw.mp4	0.0	251.3410050868988	1.0084290504455566
44	205.20576739311218	pulse	0	t		42.0	2.5	/experiments/Knapen_AOT/AOT_stimuli/rescaled_final/1517_fw.mp4	0.0	251.52467679977417	
44	206.03052473068237	movie	1		283	42.0	2.5	/experiments/Knapen_AOT/AOT_stimuli/rescaled_final/1517_fw.mp4	0.0	252.34943413734436	2.4920270442962646
44	206.80422377586365	pulse	1	t		42.0	2.5	/experiments/Knapen_AOT/AOT_stimuli/rescaled_final/1517_fw.mp4	0.0	253.12313318252563	
44	208.40439081192017	pulse	1	t		42.0	2.5	/experiments/Knapen_AOT/AOT_stimuli/rescaled_final/1517_fw.mp4	0.0	254.72330021858215	
44	208.52255177497864	fix_post	2		12	42.0	2.5	/experiments/Knapen_AOT/AOT_stimuli/rescaled_final/1517_fw.mp4	0.0	254.84146118164062	0.10001254081726074
45	208.6225643157959	fix_pre	0		120	43.0	2.5	/experiments/Knapen_AOT/AOT_stimuli/rescaled_final/2155_rv.mp4	0.0	254.94147372245789	1.0085461139678955
45	209.6311104297638	movie	1		273	43.0	2.5	/experiments/Knapen_AOT/AOT_stimuli/rescaled_final/2155_rv.mp4	0.0	255.95001983642578	2.491974353790283
45	210.00486707687378	pulse	1	t		43.0	2.5	/experiments/Knapen_AOT/AOT_stimuli/rescaled_final/2155_rv.mp4	0.0	256.32377648353577	
45	211.60456228256226	pulse	1	t		43.0	2.5	/experiments/Knapen_AOT/AOT_stimuli/rescaled_final/2155_rv.mp4	0.0	257.92347168922424	
45	212.12308478355408	fix_post	2		12	43.0	2.5	/experiments/Knapen_AOT/AOT_stimuli/rescaled_final/2155_rv.mp4	0.0	258.44199419021606	0.1000669002532959
46	212.22315168380737	fix_pre	0		119	44.0	2.5	/experiments/Knapen_AOT/AOT_stimuli/rescaled_final/1498_rv.mp4	0.0	258.54206109046936	1.0001072883605957
46	213.1989450454712	pulse	0	t		44.0	2.5	/experiments/Knapen_AOT/AOT_stimuli/rescaled_final/1498_rv.mp4	0.0	259.5178544521332	
46	213.22325897216797	movie	1		279	44.0	2.5	/experiments/Knapen_AOT/AOT_stimuli/rescaled_final/1498_rv.mp4	0.0	259.54216837882996	2.5003743171691895
46	214.79910707473755	pulse	1	t		44.0	2.5	/experiments/Knapen_AOT/AOT_stimuli/rescaled_final/1498_rv.mp4	0.0	261.11801648139954	
46	215.72363328933716	fix_post	2		12	44.0	2.5	/experiments/Knapen_AOT/AOT_stimuli/rescaled_final/1498_rv.mp4	0.0	262.04254269599915	0.10001993179321289
47	215.82365322113037	fix_pre	0		120	45.0	2.5	/experiments/Knapen_AOT/AOT_stimuli/rescaled_final/0068_fw.mp4	0.0	262.14256262779236	1.0085792541503906
47	216.39897418022156	pulse	0	t		45.0	2.5	/experiments/Knapen_AOT/AOT_stimuli/rescaled_final/0068_fw.mp4	0.0	262.71788358688354	
47	216.83223247528076	movie	1		263	45.0	2.5	/experiments/Knapen_AOT/AOT_stimuli/rescaled_final/0068_fw.mp4	0.0	263.15114188194275	2.4919888973236084
47	217.9992434978485	pulse	1	t		45.0	2.5	/experiments/Knapen_AOT/AOT_stimuli/rescaled_final/0068_fw.mp4	0.0	264.3181529045105	
47	219.32422137260437	fix_post	2		12	45.0	2.5	/experiments/Knapen_AOT/AOT_stimuli/rescaled_final/0068_fw.mp4	0.0	265.64313077926636	0.10007572174072266
48	219.4242970943451	fix_pre	0		120	46.0	2.5	/experiments/Knapen_AOT/AOT_stimuli/rescaled_final/0401_rv.mp4	0.0	265.7432065010071	1.0084011554718018
48	219.59950017929077	pulse	0	t		46.0	2.5	/experiments/Knapen_AOT/AOT_stimuli/rescaled_final/0401_rv.mp4	0.0	265.91840958595276	
48	220.4326982498169	movie	1		283	46.0	2.5	/experiments/Knapen_AOT/AOT_stimuli/rescaled_final/0401_rv.mp4	0.0	266.7516076564789	2.4920215606689453
48	221.19965720176697	pulse	1	t		46.0	2.5	/experiments/Knapen_AOT/AOT_stimuli/rescaled_final/0401_rv.mp4	0.0	267.51856660842896	
48	222.8001172542572	pulse	1	t		46.0	2.5	/experiments/Knapen_AOT/AOT_stimuli/rescaled_final/0401_rv.mp4	0.0	269.1190266609192	
48	222.92471981048584	fix_post	2		12	46.0	2.5	/experiments/Knapen_AOT/AOT_stimuli/rescaled_final/0401_rv.mp4	0.0	269.2436292171478	0.10016036033630371
49	223.02488017082214	fix_pre	0		120	47.0	2.5	/experiments/Knapen_AOT/AOT_stimuli/rescaled_final/1164_fw.mp4	0.0	269.34378957748413	1.0083904266357422
49	224.03327059745789	movie	1		267	47.0	2.5	/experiments/Knapen_AOT/AOT_stimuli/rescaled_final/1164_fw.mp4	0.0	270.3521800041199	2.4919958114624023
49	224.40039348602295	pulse	1	t		47.0	2.5	/experiments/Knapen_AOT/AOT_stimuli/rescaled_final/1164_fw.mp4	0.0	270.71930289268494	
49	226.00040531158447	pulse	1	t		47.0	2.5	/experiments/Knapen_AOT/AOT_stimuli/rescaled_final/1164_fw.mp4	0.0	272.31931471824646	
49	226.5252664089203	fix_post	2		12	47.0	2.5	/experiments/Knapen_AOT/AOT_stimuli/rescaled_final/1164_fw.mp4	0.0	272.8441758155823	0.10004591941833496
50	226.62531232833862	fix_pre	0		118	48.0	2.5	blank	1.0	272.9442217350006	0.9834403991699219
50	227.60077714920044	pulse	0	t		48.0	2.5	blank	1.0	273.9196865558624	
50	227.60875272750854	movie	1		301	48.0	2.5	blank	1.0	273.92766213417053	2.5087339878082275
50	229.20120477676392	pulse	1	t		48.0	2.5	blank	1.0	275.5201141834259	
50	230.11748671531677	fix_post	2		12	48.0	2.5	blank	1.0	276.43639612197876	0.1000673770904541
51	230.21755409240723	fix_pre	0		120	49.0	2.5	/experiments/Knapen_AOT/AOT_stimuli/rescaled_final/0039_fw.mp4	0.0	276.5364634990692	1.0084304809570312
51	230.8015820980072	pulse	0	t		49.0	2.5	/experiments/Knapen_AOT/AOT_stimuli/rescaled_final/0039_fw.mp4	0.0	277.1204915046692	
51	231.22598457336426	movie	1		280	49.0	2.5	/experiments/Knapen_AOT/AOT_stimuli/rescaled_final/0039_fw.mp4	0.0	277.54489398002625	2.4920876026153564
51	232.39997172355652	pulse	1	t		49.0	2.5	/experiments/Knapen_AOT/AOT_stimuli/rescaled_final/0039_fw.mp4	0.0	278.7188811302185	
51	233.71807217597961	fix_post	2		12	49.0	2.5	/experiments/Knapen_AOT/AOT_stimuli/rescaled_final/0039_fw.mp4	0.0	280.0369815826416	0.09994959831237793
52	233.818021774292	fix_pre	0		120	50.0	2.5	/experiments/Knapen_AOT/AOT_stimuli/rescaled_final/0699_fw.mp4	0.0	280.136931180954	1.0086522102355957
52	234.00185918807983	pulse	0	t		50.0	2.5	/experiments/Knapen_AOT/AOT_stimuli/rescaled_final/0699_fw.mp4	0.0	280.3207685947418	
52	234.8266739845276	movie	1		284	50.0	2.5	/experiments/Knapen_AOT/AOT_stimuli/rescaled_final/0699_fw.mp4	0.0	281.1455833911896	2.4918856620788574
52	235.59972953796387	pulse	1	t		50.0	2.5	/experiments/Knapen_AOT/AOT_stimuli/rescaled_final/0699_fw.mp4	0.0	281.91863894462585	
52	237.20002484321594	pulse	1	t		50.0	2.5	/experiments/Knapen_AOT/AOT_stimuli/rescaled_final/0699_fw.mp4	0.0	283.51893424987793	
52	237.31855964660645	fix_post	2		12	50.0	2.5	/experiments/Knapen_AOT/AOT_stimuli/rescaled_final/0699_fw.mp4	0.0	283.63746905326843	0.10005474090576172
53	237.4186143875122	fix_pre	0		120	51.0	2.5	/experiments/Knapen_AOT/AOT_stimuli/rescaled_final/1727_fw.mp4	0.0	283.7375237941742	1.0084567070007324
53	238.42707109451294	movie	1		287	51.0	2.5	/experiments/Knapen_AOT/AOT_stimuli/rescaled_final/1727_fw.mp4	0.0	284.7459805011749	2.492041826248169
53	238.8005554676056	pulse	1	t		51.0	2.5	/experiments/Knapen_AOT/AOT_stimuli/rescaled_final/1727_fw.mp4	0.0	285.1194648742676	
53	240.40077924728394	pulse	1	t		51.0	2.5	/experiments/Knapen_AOT/AOT_stimuli/rescaled_final/1727_fw.mp4	0.0	286.7196886539459	
53	240.9191129207611	fix_post	2		12	51.0	2.5	/experiments/Knapen_AOT/AOT_stimuli/rescaled_final/1727_fw.mp4	0.0	287.2380223274231	0.10000014305114746
54	241.01911306381226	fix_pre	0		119	52.0	2.5	/experiments/Knapen_AOT/AOT_stimuli/rescaled_final/1476_fw.mp4	0.0	287.33802247047424	1.0001749992370605
54	242.0028417110443	pulse	0	t		52.0	2.5	/experiments/Knapen_AOT/AOT_stimuli/rescaled_final/1476_fw.mp4	0.0	288.3217511177063	
54	242.01928806304932	movie	1		271	52.0	2.5	/experiments/Knapen_AOT/AOT_stimuli/rescaled_final/1476_fw.mp4	0.0	288.3381974697113	2.5003442764282227
54	243.6012954711914	pulse	1	t		52.0	2.5	/experiments/Knapen_AOT/AOT_stimuli/rescaled_final/1476_fw.mp4	0.0	289.9202048778534	
54	244.51963233947754	fix_post	2		12	52.0	2.5	/experiments/Knapen_AOT/AOT_stimuli/rescaled_final/1476_fw.mp4	0.0	290.8385417461395	0.10002827644348145
55	244.61966061592102	fix_pre	0		120	53.0	2.5	/experiments/Knapen_AOT/AOT_stimuli/rescaled_final/0957_fw.mp4	0.0	290.938570022583	1.0084710121154785
55	245.20325255393982	pulse	0	t		53.0	2.5	/experiments/Knapen_AOT/AOT_stimuli/rescaled_final/0957_fw.mp4	0.0	291.5221619606018	
55	245.6281316280365	movie	1		278	53.0	2.5	/experiments/Knapen_AOT/AOT_stimuli/rescaled_final/0957_fw.mp4	0.0	291.9470410346985	2.492008924484253
55	246.8036551475525	pulse	1	t		53.0	2.5	/experiments/Knapen_AOT/AOT_stimuli/rescaled_final/0957_fw.mp4	0.0	293.1225645542145	
55	248.12014055252075	fix_post	2		12	53.0	2.5	/experiments/Knapen_AOT/AOT_stimuli/rescaled_final/0957_fw.mp4	0.0	294.43904995918274	0.1000967025756836
56	248.22023725509644	fix_pre	0		120	54.0	2.5	/experiments/Knapen_AOT/AOT_stimuli/rescaled_final/0012_fw.mp4	0.0	294.5391466617584	1.0085079669952393
56	248.403874874115	pulse	0	t		54.0	2.5	/experiments/Knapen_AOT/AOT_stimuli/rescaled_final/0012_fw.mp4	0.0	294.722784280777	
56	249.22874522209167	movie	1		276	54.0	2.5	/experiments/Knapen_AOT/AOT_stimuli/rescaled_final/0012_fw.mp4	0.0	295.54765462875366	2.491956949234009
56	250.00191831588745	pulse	1	t		54.0	2.5	/experiments/Knapen_AOT/AOT_stimuli/rescaled_final/0012_fw.mp4	0.0	296.32082772254944	
56	251.6022984981537	pulse	1	t		54.0	2.5	/experiments/Knapen_AOT/AOT_stimuli/rescaled_final/0012_fw.mp4	0.0	297.9212079048157	
56	251.72070217132568	fix_post	2		12	54.0	2.5	/experiments/Knapen_AOT/AOT_stimuli/rescaled_final/0012_fw.mp4	0.0	298.03961157798767	0.10004377365112305
57	251.8207459449768	fix_pre	0		120	55.0	2.5	blank	1.0	298.1396553516388	1.0001139640808105
57	252.82085990905762	movie	1		300	55.0	2.5	blank	1.0	299.1397693157196	2.500384569168091
57	253.2044756412506	pulse	1	t		55.0	2.5	blank	1.0	299.5233850479126	
57	254.80468821525574	pulse	1	t		55.0	2.5	blank	1.0	301.1235976219177	
57	255.3212444782257	fix_post	2		12	55.0	2.5	blank	1.0	301.6401538848877	0.10002493858337402
58	255.42126941680908	fix_pre	0		119	56.0	2.5	/experiments/Knapen_AOT/AOT_stimuli/rescaled_final/0414_rv.mp4	0.0	301.74017882347107	1.0088155269622803
58	256.4049687385559	pulse	0	t		56.0	2.5	/experiments/Knapen_AOT/AOT_stimuli/rescaled_final/0414_rv.mp4	0.0	302.7238781452179	
58	256.43008494377136	movie	1		281	56.0	2.5	/experiments/Knapen_AOT/AOT_stimuli/rescaled_final/0414_rv.mp4	0.0	302.74899435043335	2.491715908050537
58	258.00405859947205	pulse	1	t		56.0	2.5	/experiments/Knapen_AOT/AOT_stimuli/rescaled_final/0414_rv.mp4	0.0	304.32296800613403	
58	258.9218008518219	fix_post	2		12	56.0	2.5	/experiments/Knapen_AOT/AOT_stimuli/rescaled_final/0414_rv.mp4	0.0	305.2407102584839	0.10001087188720703
59	259.0218117237091	fix_pre	0		120	57.0	2.5	/experiments/Knapen_AOT/AOT_stimuli/rescaled_final/1854_rv.mp4	0.0	305.3407211303711	1.0084967613220215
59	259.6054539680481	pulse	0	t		57.0	2.5	/experiments/Knapen_AOT/AOT_stimuli/rescaled_final/1854_rv.mp4	0.0	305.9243633747101	
59	260.0303084850311	movie	1		289	57.0	2.5	/experiments/Knapen_AOT/AOT_stimuli/rescaled_final/1854_rv.mp4	0.0	306.3492178916931	2.5003676414489746
59	261.20419096946716	pulse	1	t		57.0	2.5	/experiments/Knapen_AOT/AOT_stimuli/rescaled_final/1854_rv.mp4	0.0	307.52310037612915	
59	262.5306761264801	fix_post	2		11	57.0	2.5	/experiments/Knapen_AOT/AOT_stimuli/rescaled_final/1854_rv.mp4	0.0	308.8495855331421	0.09168076515197754
60	262.6223568916321	fix_pre	0		120	58.0	2.5	/experiments/Knapen_AOT/AOT_stimuli/rescaled_final/0232_fw.mp4	0.0	308.94126629829407	1.008667230606079
60	262.8060007095337	pulse	0	t		58.0	2.5	/experiments/Knapen_AOT/AOT_stimuli/rescaled_final/0232_fw.mp4	0.0	309.1249101161957	
60	263.63102412223816	movie	1		289	58.0	2.5	/experiments/Knapen_AOT/AOT_stimuli/rescaled_final/0232_fw.mp4	0.0	309.94993352890015	2.4918432235717773
60	264.4047908782959	pulse	1	t		58.0	2.5	/experiments/Knapen_AOT/AOT_stimuli/rescaled_final/0232_fw.mp4	0.0	310.7237002849579	
60	266.00437092781067	pulse	1	t		58.0	2.5	/experiments/Knapen_AOT/AOT_stimuli/rescaled_final/0232_fw.mp4	0.0	312.32328033447266	
60	266.12286734580994	fix_post	2		12	58.0	2.5	/experiments/Knapen_AOT/AOT_stimuli/rescaled_final/0232_fw.mp4	0.0	312.4417767524719	0.10004544258117676
61	266.2229127883911	fix_pre	0		120	59.0	2.5	/experiments/Knapen_AOT/AOT_stimuli/rescaled_final/0440_rv.mp4	0.0	312.5418221950531	1.0084764957427979
61	267.2313892841339	movie	1		282	59.0	2.5	/experiments/Knapen_AOT/AOT_stimuli/rescaled_final/0440_rv.mp4	0.0	313.5502986907959	2.4920153617858887
61	267.60577726364136	pulse	1	t		59.0	2.5	/experiments/Knapen_AOT/AOT_stimuli/rescaled_final/0440_rv.mp4	0.0	313.92468667030334	
61	269.20513439178467	pulse	1	t		59.0	2.5	/experiments/Knapen_AOT/AOT_stimuli/rescaled_final/0440_rv.mp4	0.0	315.52404379844666	
61	269.7234046459198	fix_post	2		12	59.0	2.5	/experiments/Knapen_AOT/AOT_stimuli/rescaled_final/0440_rv.mp4	0.0	316.0423140525818	0.10001444816589355
62	269.8234190940857	fix_pre	0		119	60.0	2.5	/experiments/Knapen_AOT/AOT_stimuli/rescaled_final/0475_rv.mp4	0.0	316.1423285007477	1.000234842300415
62	270.7994930744171	pulse	0	t		60.0	2.5	/experiments/Knapen_AOT/AOT_stimuli/rescaled_final/0475_rv.mp4	0.0	317.1184024810791	
62	270.8236539363861	movie	1		280	60.0	2.5	/experiments/Knapen_AOT/AOT_stimuli/rescaled_final/0475_rv.mp4	0.0	317.1425633430481	2.5003063678741455
62	272.4074730873108	pulse	1	t		60.0	2.5	/experiments/Knapen_AOT/AOT_stimuli/rescaled_final/0475_rv.mp4	0.0	318.7263824939728	
62	273.32396030426025	fix_post	2		12	60.0	2.5	/experiments/Knapen_AOT/AOT_stimuli/rescaled_final/0475_rv.mp4	0.0	319.64286971092224	0.10002875328063965
63	273.4239890575409	fix_pre	0		120	61.0	2.5	/experiments/Knapen_AOT/AOT_stimuli/rescaled_final/0237_rv.mp4	0.0	319.7428984642029	1.0084764957427979
63	273.9993495941162	pulse	0	t		61.0	2.5	/experiments/Knapen_AOT/AOT_stimuli/rescaled_final/0237_rv.mp4	0.0	320.3182590007782	
63	274.4324655532837	movie	1		272	61.0	2.5	/experiments/Knapen_AOT/AOT_stimuli/rescaled_final/0237_rv.mp4	0.0	320.7513749599457	2.4920284748077393
63	275.5996594429016	pulse	1	t		61.0	2.5	/experiments/Knapen_AOT/AOT_stimuli/rescaled_final/0237_rv.mp4	0.0	321.9185688495636	
63	276.92449402809143	fix_post	2		12	61.0	2.5	/experiments/Knapen_AOT/AOT_stimuli/rescaled_final/0237_rv.mp4	0.0	323.2434034347534	0.10006928443908691
64	277.0245633125305	fix_pre	0		120	62.0	2.5	blank	1.0	323.3434727191925	1.0000810623168945
64	277.1998510360718	pulse	0	t		62.0	2.5	blank	1.0	323.51876044273376	
64	278.0246443748474	movie	1		300	62.0	2.5	blank	1.0	324.3435537815094	2.50040602684021
64	278.80012488365173	pulse	1	t		62.0	2.5	blank	1.0	325.1190342903137	
64	280.4003496170044	pulse	1	t		62.0	2.5	blank	1.0	326.7192590236664	
64	280.5250504016876	fix_post	2		12	62.0	2.5	blank	1.0	326.8439598083496	0.10000920295715332
65	280.6250596046448	fix_pre	0		120	63.0	2.5	/experiments/Knapen_AOT/AOT_stimuli/rescaled_final/0358_rv.mp4	0.0	326.94396901130676	1.0084681510925293
65	281.6335277557373	movie	1		277	63.0	2.5	/experiments/Knapen_AOT/AOT_stimuli/rescaled_final/0358_rv.mp4	0.0	327.9524371623993	2.4920549392700195
65	282.00059938430786	pulse	1	t		63.0	2.5	/experiments/Knapen_AOT/AOT_stimuli/rescaled_final/0358_rv.mp4	0.0	328.31950879096985	
65	283.6006672382355	pulse	1	t		63.0	2.5	/experiments/Knapen_AOT/AOT_stimuli/rescaled_final/0358_rv.mp4	0.0	329.91957664489746	
65	284.1255826950073	fix_post	2		12	63.0	2.5	/experiments/Knapen_AOT/AOT_stimuli/rescaled_final/0358_rv.mp4	0.0	330.4444921016693	0.10001850128173828
66	284.22560119628906	fix_pre	0		118	64.0	2.5	/experiments/Knapen_AOT/AOT_stimuli/rescaled_final/1760_fw.mp4	0.0	330.54451060295105	0.9919304847717285
66	285.20217204093933	pulse	0	t		64.0	2.5	/experiments/Knapen_AOT/AOT_stimuli/rescaled_final/1760_fw.mp4	0.0	331.5210814476013	
66	285.2175316810608	movie	1		281	64.0	2.5	/experiments/Knapen_AOT/AOT_stimuli/rescaled_final/1760_fw.mp4	0.0	331.5364410877228	2.5002694129943848
66	286.80032658576965	pulse	1	t		64.0	2.5	/experiments/Knapen_AOT/AOT_stimuli/rescaled_final/1760_fw.mp4	0.0	333.11923599243164	
66	287.7178010940552	fix_post	2		12	64.0	2.5	/experiments/Knapen_AOT/AOT_stimuli/rescaled_final/1760_fw.mp4	0.0	334.03671050071716	0.09999847412109375
67	287.81779956817627	fix_pre	0		120	65.0	2.5	/experiments/Knapen_AOT/AOT_stimuli/rescaled_final/1768_rv.mp4	0.0	334.13670897483826	1.008507251739502
67	288.4015123844147	pulse	0	t		65.0	2.5	/experiments/Knapen_AOT/AOT_stimuli/rescaled_final/1768_rv.mp4	0.0	334.72042179107666	
67	288.82630681991577	movie	1		262	65.0	2.5	/experiments/Knapen_AOT/AOT_stimuli/rescaled_final/1768_rv.mp4	0.0	335.14521622657776	2.4920237064361572
67	290.00003600120544	pulse	1	t		65.0	2.5	/experiments/Knapen_AOT/AOT_stimuli/rescaled_final/1768_rv.mp4	0.0	336.31894540786743	
67	291.31833052635193	fix_post	2		12	65.0	2.5	/experiments/Knapen_AOT/AOT_stimuli/rescaled_final/1768_rv.mp4	0.0	337.6372399330139	0.10006189346313477
68	291.41839241981506	fix_pre	0		120	66.0	2.5	/experiments/Knapen_AOT/AOT_stimuli/rescaled_final/0392_rv.mp4	0.0	337.73730182647705	1.008469820022583
68	291.60201144218445	pulse	0	t		66.0	2.5	/experiments/Knapen_AOT/AOT_stimuli/rescaled_final/0392_rv.mp4	0.0	337.92092084884644	
68	292.42686223983765	movie	1		294	66.0	2.5	/experiments/Knapen_AOT/AOT_stimuli/rescaled_final/0392_rv.mp4	0.0	338.74577164649963	2.492011785507202
68	293.20068979263306	pulse	1	t		66.0	2.5	/experiments/Knapen_AOT/AOT_stimuli/rescaled_final/0392_rv.mp4	0.0	339.51959919929504	
68	294.80030727386475	pulse	1	t		66.0	2.5	/experiments/Knapen_AOT/AOT_stimuli/rescaled_final/0392_rv.mp4	0.0	341.11921668052673	
68	294.91887402534485	fix_post	2		12	66.0	2.5	/experiments/Knapen_AOT/AOT_stimuli/rescaled_final/0392_rv.mp4	0.0	341.23778343200684	0.10000467300415039
69	295.018878698349	fix_pre	0		120	67.0	2.5	/experiments/Knapen_AOT/AOT_stimuli/rescaled_final/1602_fw.mp4	0.0	341.337788105011	1.0084877014160156
69	296.027366399765	movie	1		277	67.0	2.5	/experiments/Knapen_AOT/AOT_stimuli/rescaled_final/1602_fw.mp4	0.0	342.346275806427	2.4920430183410645
69	296.4009544849396	pulse	1	t		67.0	2.5	/experiments/Knapen_AOT/AOT_stimuli/rescaled_final/1602_fw.mp4	0.0	342.71986389160156	
69	298.0012159347534	pulse	1	t		67.0	2.5	/experiments/Knapen_AOT/AOT_stimuli/rescaled_final/1602_fw.mp4	0.0	344.3201253414154	
69	298.5194094181061	fix_post	2		12	67.0	2.5	/experiments/Knapen_AOT/AOT_stimuli/rescaled_final/1602_fw.mp4	0.0	344.83831882476807	0.10008931159973145
70	298.6194987297058	fix_pre	0		119	68.0	2.5	/experiments/Knapen_AOT/AOT_stimuli/rescaled_final/1146_fw.mp4	0.0	344.9384081363678	1.0000998973846436
70	299.6034007072449	pulse	0	t		68.0	2.5	/experiments/Knapen_AOT/AOT_stimuli/rescaled_final/1146_fw.mp4	0.0	345.92231011390686	
70	299.61959862709045	movie	1		276	68.0	2.5	/experiments/Knapen_AOT/AOT_stimuli/rescaled_final/1146_fw.mp4	0.0	345.93850803375244	2.500347375869751
70	301.20225071907043	pulse	1	t		68.0	2.5	/experiments/Knapen_AOT/AOT_stimuli/rescaled_final/1146_fw.mp4	0.0	347.5211601257324	
70	302.1199460029602	fix_post	2		12	68.0	2.5	/experiments/Knapen_AOT/AOT_stimuli/rescaled_final/1146_fw.mp4	0.0	348.4388554096222	0.10004663467407227
71	302.2199926376343	fix_pre	0		120	69.0	2.5	/experiments/Knapen_AOT/AOT_stimuli/rescaled_final/2059_rv.mp4	0.0	348.53890204429626	1.0085070133209229
71	302.8036632537842	pulse	0	t		69.0	2.5	/experiments/Knapen_AOT/AOT_stimuli/rescaled_final/2059_rv.mp4	0.0	349.12257266044617	
71	303.2284996509552	movie	1		272	69.0	2.5	/experiments/Knapen_AOT/AOT_stimuli/rescaled_final/2059_rv.mp4	0.0	349.5474090576172	2.4919869899749756
71	304.4026930332184	pulse	1	t		69.0	2.5	/experiments/Knapen_AOT/AOT_stimuli/rescaled_final/2059_rv.mp4	0.0	350.72160243988037	
71	305.7204866409302	fix_post	2		12	69.0	2.5	/experiments/Knapen_AOT/AOT_stimuli/rescaled_final/2059_rv.mp4	0.0	352.03939604759216	0.10003185272216797
72	305.82051849365234	fix_pre	0		120	70.0	2.5	blank	1.0	352.13942790031433	1.0001440048217773
72	306.00429916381836	pulse	0	t		70.0	2.5	blank	1.0	352.32320857048035	
72	306.8206624984741	movie	1		300	70.0	2.5	blank	1.0	353.1395719051361	2.5005033016204834
72	307.6045322418213	pulse	1	t		70.0	2.5	blank	1.0	353.9234416484833	
72	309.20452213287354	pulse	1	t		70.0	2.5	blank	1.0	355.5234315395355	
72	309.3211658000946	fix_post	2		12	70.0	2.5	blank	1.0	355.6400752067566	0.0998692512512207
73	309.4210350513458	fix_pre	0		120	71.0	2.5	/experiments/Knapen_AOT/AOT_stimuli/rescaled_final/0661_rv.mp4	0.0	355.7399444580078	1.0085089206695557
73	310.4295439720154	movie	1		271	71.0	2.5	/experiments/Knapen_AOT/AOT_stimuli/rescaled_final/0661_rv.mp4	0.0	356.74845337867737	2.4920127391815186
73	310.8032510280609	pulse	1	t		71.0	2.5	/experiments/Knapen_AOT/AOT_stimuli/rescaled_final/0661_rv.mp4	0.0	357.1221604347229	
73	312.4031548500061	pulse	1	t		71.0	2.5	/experiments/Knapen_AOT/AOT_stimuli/rescaled_final/0661_rv.mp4	0.0	358.7220642566681	
73	312.9215567111969	fix_post	2		12	71.0	2.5	/experiments/Knapen_AOT/AOT_stimuli/rescaled_final/0661_rv.mp4	0.0	359.2404661178589	0.10001850128173828
74	313.02157521247864	fix_pre	0		119	72.0	2.5	/experiments/Knapen_AOT/AOT_stimuli/rescaled_final/0655_rv.mp4	0.0	359.3404846191406	1.0085842609405518
74	314.0053286552429	pulse	0	t		72.0	2.5	/experiments/Knapen_AOT/AOT_stimuli/rescaled_final/0655_rv.mp4	0.0	360.3242380619049	
74	314.0301594734192	movie	1		271	72.0	2.5	/experiments/Knapen_AOT/AOT_stimuli/rescaled_final/0655_rv.mp4	0.0	360.3490688800812	2.49194598197937
74	315.60445761680603	pulse	1	t		72.0	2.5	/experiments/Knapen_AOT/AOT_stimuli/rescaled_final/0655_rv.mp4	0.0	361.923367023468	
74	316.52210545539856	fix_post	2		12	72.0	2.5	/experiments/Knapen_AOT/AOT_stimuli/rescaled_final/0655_rv.mp4	0.0	362.84101486206055	0.10005784034729004
75	316.62216329574585	fix_pre	0		120	73.0	2.5	/experiments/Knapen_AOT/AOT_stimuli/rescaled_final/0627_rv.mp4	0.0	362.94107270240784	1.008484125137329
75	317.2059121131897	pulse	0	t		73.0	2.5	/experiments/Knapen_AOT/AOT_stimuli/rescaled_final/0627_rv.mp4	0.0	363.5248215198517	
75	317.6306474208832	movie	1		277	73.0	2.5	/experiments/Knapen_AOT/AOT_stimuli/rescaled_final/0627_rv.mp4	0.0	363.94955682754517	2.4919912815093994
75	318.80591344833374	pulse	1	t		73.0	2.5	/experiments/Knapen_AOT/AOT_stimuli/rescaled_final/0627_rv.mp4	0.0	365.1248228549957	
75	320.1226387023926	fix_post	2		12	73.0	2.5	/experiments/Knapen_AOT/AOT_stimuli/rescaled_final/0627_rv.mp4	0.0	366.44154810905457	0.100067138671875
76	320.22270584106445	fix_pre	0		120	74.0	2.5	/experiments/Knapen_AOT/AOT_stimuli/rescaled_final/0375_rv.mp4	0.0	366.54161524772644	1.0085923671722412
76	320.406227350235	pulse	0	t		74.0	2.5	/experiments/Knapen_AOT/AOT_stimuli/rescaled_final/0375_rv.mp4	0.0	366.725136756897	
76	321.2312982082367	movie	1		269	74.0	2.5	/experiments/Knapen_AOT/AOT_stimuli/rescaled_final/0375_rv.mp4	0.0	367.5502076148987	2.4918768405914307
76	322.005158662796	pulse	1	t		74.0	2.5	/experiments/Knapen_AOT/AOT_stimuli/rescaled_final/0375_rv.mp4	0.0	368.324068069458	
76	323.605055809021	pulse	1	t		74.0	2.5	/experiments/Knapen_AOT/AOT_stimuli/rescaled_final/0375_rv.mp4	0.0	369.923965215683	
76	323.7231750488281	fix_post	2		12	74.0	2.5	/experiments/Knapen_AOT/AOT_stimuli/rescaled_final/0375_rv.mp4	0.0	370.0420844554901	0.10010266304016113
77	323.8232777118683	fix_pre	0		120	75.0	2.5	/experiments/Knapen_AOT/AOT_stimuli/rescaled_final/1078_rv.mp4	0.0	370.1421871185303	1.0084266662597656
77	324.83170437812805	movie	1		272	75.0	2.5	/experiments/Knapen_AOT/AOT_stimuli/rescaled_final/1078_rv.mp4	0.0	371.15061378479004	2.4920034408569336
77	325.20679783821106	pulse	1	t		75.0	2.5	/experiments/Knapen_AOT/AOT_stimuli/rescaled_final/1078_rv.mp4	0.0	371.52570724487305	
77	326.8057312965393	pulse	1	t		75.0	2.5	/experiments/Knapen_AOT/AOT_stimuli/rescaled_final/1078_rv.mp4	0.0	373.1246407032013	
77	327.323707818985	fix_post	2		12	75.0	2.5	/experiments/Knapen_AOT/AOT_stimuli/rescaled_final/1078_rv.mp4	0.0	373.642617225647	0.10003042221069336
78	327.4237382411957	fix_pre	0		119	76.0	2.5	blank	1.0	373.74264764785767	0.9917919635772705
78	328.4001386165619	pulse	0	t		76.0	2.5	blank	1.0	374.7190480232239	
78	328.41553020477295	movie	1		301	76.0	2.5	blank	1.0	374.73443961143494	2.508786916732788
78	330.0000731945038	pulse	1	t		76.0	2.5	blank	1.0	376.31898260116577	
78	330.92431712150574	fix_post	2		12	76.0	2.5	blank	1.0	377.2432265281677	0.09997749328613281
79	331.02429461479187	fix_pre	0		120	77.0	2.5	/experiments/Knapen_AOT/AOT_stimuli/rescaled_final/0349_fw.mp4	0.0	377.34320402145386	1.008516788482666
79	331.59987330436707	pulse	0	t		77.0	2.5	/experiments/Knapen_AOT/AOT_stimuli/rescaled_final/0349_fw.mp4	0.0	377.91878271102905	
79	332.03281140327454	movie	1		288	77.0	2.5	/experiments/Knapen_AOT/AOT_stimuli/rescaled_final/0349_fw.mp4	0.0	378.3517208099365	2.492029905319214
79	333.199914932251	pulse	1	t		77.0	2.5	/experiments/Knapen_AOT/AOT_stimuli/rescaled_final/0349_fw.mp4	0.0	379.51882433891296	
79	334.52484130859375	fix_post	2		12	77.0	2.5	/experiments/Knapen_AOT/AOT_stimuli/rescaled_final/0349_fw.mp4	0.0	380.84375071525574	0.10001492500305176
80	334.6248562335968	fix_pre	0		120	78.0	2.5	/experiments/Knapen_AOT/AOT_stimuli/rescaled_final/1498_fw.mp4	0.0	380.9437656402588	1.0084736347198486
80	334.8000874519348	pulse	0	t		78.0	2.5	/experiments/Knapen_AOT/AOT_stimuli/rescaled_final/1498_fw.mp4	0.0	381.1189968585968	
80	335.63332986831665	movie	1		278	78.0	2.5	/experiments/Knapen_AOT/AOT_stimuli/rescaled_final/1498_fw.mp4	0.0	381.95223927497864	2.4920670986175537
80	336.4004466533661	pulse	1	t		78.0	2.5	/experiments/Knapen_AOT/AOT_stimuli/rescaled_final/1498_fw.mp4	0.0	382.7193560600281	
80	338.0006203651428	pulse	1	t		78.0	2.5	/experiments/Knapen_AOT/AOT_stimuli/rescaled_final/1498_fw.mp4	0.0	384.3195297718048	
80	338.1253969669342	fix_post	2		12	78.0	2.5	/experiments/Knapen_AOT/AOT_stimuli/rescaled_final/1498_fw.mp4	0.0	384.4443063735962	0.10002684593200684
81	338.2254238128662	fix_pre	0		120	79.0	2.5	/experiments/Knapen_AOT/AOT_stimuli/rescaled_final/0012_rv.mp4	0.0	384.5443332195282	1.0085022449493408
81	339.23392605781555	movie	1		272	79.0	2.5	/experiments/Knapen_AOT/AOT_stimuli/rescaled_final/0012_rv.mp4	0.0	385.55283546447754	2.4919753074645996
81	339.60105323791504	pulse	1	t		79.0	2.5	/experiments/Knapen_AOT/AOT_stimuli/rescaled_final/0012_rv.mp4	0.0	385.919962644577	
81	341.2012588977814	pulse	1	t		79.0	2.5	/experiments/Knapen_AOT/AOT_stimuli/rescaled_final/0012_rv.mp4	0.0	387.52016830444336	
81	341.72590136528015	fix_post	2		12	79.0	2.5	/experiments/Knapen_AOT/AOT_stimuli/rescaled_final/0012_rv.mp4	0.0	388.04481077194214	0.10003805160522461
82	341.8259394168854	fix_pre	0		118	80.0	2.5	/experiments/Knapen_AOT/AOT_stimuli/rescaled_final/0627_rv.mp4	0.0	388.14484882354736	0.991811990737915
82	342.801340341568	pulse	0	t		80.0	2.5	/experiments/Knapen_AOT/AOT_stimuli/rescaled_final/0627_rv.mp4	0.0	389.12024974823	
82	342.8177514076233	movie	1		270	80.0	2.5	/experiments/Knapen_AOT/AOT_stimuli/rescaled_final/0627_rv.mp4	0.0	389.1366608142853	2.500347375869751
82	344.40018105506897	pulse	1	t		80.0	2.5	/experiments/Knapen_AOT/AOT_stimuli/rescaled_final/0627_rv.mp4	0.0	390.71909046173096	
82	345.31809878349304	fix_post	2		12	80.0	2.5	/experiments/Knapen_AOT/AOT_stimuli/rescaled_final/0627_rv.mp4	0.0	391.63700819015503	0.10001850128173828
83	345.4181172847748	fix_pre	0		120	81.0	2.5	/experiments/Knapen_AOT/AOT_stimuli/rescaled_final/1884_fw.mp4	0.0	391.73702669143677	1.0085170269012451
83	346.0017681121826	pulse	0	t		81.0	2.5	/experiments/Knapen_AOT/AOT_stimuli/rescaled_final/1884_fw.mp4	0.0	392.3206775188446	
83	346.426634311676	movie	1		265	81.0	2.5	/experiments/Knapen_AOT/AOT_stimuli/rescaled_final/1884_fw.mp4	0.0	392.745543718338	2.492077589035034
83	347.6010277271271	pulse	1	t		81.0	2.5	/experiments/Knapen_AOT/AOT_stimuli/rescaled_final/1884_fw.mp4	0.0	393.91993713378906	
83	348.91871190071106	fix_post	2		12	81.0	2.5	/experiments/Knapen_AOT/AOT_stimuli/rescaled_final/1884_fw.mp4	0.0	395.23762130737305	0.09998846054077148
84	349.01870036125183	fix_pre	0		120	82.0	2.5	/experiments/Knapen_AOT/AOT_stimuli/rescaled_final/1115_rv.mp4	0.0	395.3376097679138	1.0084211826324463
84	349.2022566795349	pulse	0	t		82.0	2.5	/experiments/Knapen_AOT/AOT_stimuli/rescaled_final/1115_rv.mp4	0.0	395.5211660861969	
84	350.0271215438843	movie	1		275	82.0	2.5	/experiments/Knapen_AOT/AOT_stimuli/rescaled_final/1115_rv.mp4	0.0	396.34603095054626	2.4920690059661865
84	350.80197072029114	pulse	1	t		82.0	2.5	/experiments/Knapen_AOT/AOT_stimuli/rescaled_final/1115_rv.mp4	0.0	397.1208801269531	
84	352.401362657547	pulse	1	t		82.0	2.5	/experiments/Knapen_AOT/AOT_stimuli/rescaled_final/1115_rv.mp4	0.0	398.720272064209	
84	352.51919054985046	fix_post	2		12	82.0	2.5	/experiments/Knapen_AOT/AOT_stimuli/rescaled_final/1115_rv.mp4	0.0	398.83809995651245	0.10001277923583984
85	352.6192033290863	fix_pre	0		120	83.0	2.5	blank	1.0	398.9381127357483	1.000157117843628
85	353.61936044692993	movie	1		300	83.0	2.5	blank	1.0	399.9382698535919	2.500519275665283
85	354.00309658050537	pulse	1	t		83.0	2.5	blank	1.0	400.32200598716736	
85	355.603239774704	pulse	1	t		83.0	2.5	blank	1.0	401.92214918136597	
85	356.1198797225952	fix_post	2		12	83.0	2.5	blank	1.0	402.4387891292572	0.09983444213867188
87	356.2197141647339	stim	0		1715					402.5386235713959	14.302309036254883
87	357.20382285118103	pulse	0	t						403.522732257843	
87	358.80367946624756	pulse	0	t						405.12258887290955	
87	360.4040184020996	pulse	0	t						406.7229278087616	
87	362.0041751861572	pulse	0	t						408.3230845928192	
87	363.60452914237976	pulse	0	t						409.92343854904175	
87	365.20468640327454	pulse	0	t						411.5235958099365	
87	366.8051190376282	pulse	0	t						413.12402844429016	
87	368.4051465988159	pulse	0	t						414.7240560054779	
87	370.0053913593292	pulse	0	t						416.3243007659912	
