trial_nr	onset	event_type	phase	response	nr_frames	movie_index	movie_duration	movie_file	blank	onset_abs	duration
0	0.15821242332458496	stim	0		1					35.00117230415344	0.00819706916809082
0	0.1077578067779541	response	0	space						34.95071768760681	
1	0.16640949249267578	stim	0		4785					35.00936937332153	39.89102792739868
1	40.04789662361145	pulse	0	t						74.89085650444031	
1	40.05743741989136	stim	1		1716					74.90039730072021	14.30877947807312
1	41.63968467712402	pulse	1	t						76.48264455795288	
1	43.23972678184509	pulse	1	t						78.08268666267395	
1	44.83993363380432	pulse	1	t						79.68289351463318	
1	46.44018054008484	pulse	1	t						81.2831404209137	
1	48.04043674468994	pulse	1	t						82.8833966255188	
1	49.64070463180542	pulse	1	t						84.48366451263428	
1	51.240943908691406	pulse	1	t						86.08390378952026	
1	52.841142416000366	pulse	1	t						87.68410229682922	
2	54.36621689796448	fix_pre	0		10	0.0	2.5	/experiments/Knapen_AOT/AOT_stimuli/rescaled_final/0477_rv.mp4	0.0	89.20917677879333	0.11676907539367676
2	54.44148850440979	pulse	0	t		0.0	2.5	/experiments/Knapen_AOT/AOT_stimuli/rescaled_final/0477_rv.mp4	0.0	89.28444838523865	
2	54.482985973358154	movie	1		269	0.0	2.5	/experiments/Knapen_AOT/AOT_stimuli/rescaled_final/0477_rv.mp4	0.0	89.32594585418701	2.4753000736236572
2	56.039764642715454	pulse	1	t		0.0	2.5	/experiments/Knapen_AOT/AOT_stimuli/rescaled_final/0477_rv.mp4	0.0	90.88272452354431	
2	56.95828604698181	fix_post	2		12	0.0	2.5	/experiments/Knapen_AOT/AOT_stimuli/rescaled_final/0477_rv.mp4	0.0	91.80124592781067	0.09998965263366699
3	57.05827569961548	fix_pre	0		120	1.0	2.5	/experiments/Knapen_AOT/AOT_stimuli/rescaled_final/1344_rv.mp4	0.0	91.90123558044434	1.0085809230804443
3	57.64190673828125	pulse	0	t		1.0	2.5	/experiments/Knapen_AOT/AOT_stimuli/rescaled_final/1344_rv.mp4	0.0	92.48486661911011	
3	58.06685662269592	movie	1		271	1.0	2.5	/experiments/Knapen_AOT/AOT_stimuli/rescaled_final/1344_rv.mp4	0.0	92.90981650352478	2.491992712020874
3	59.2430534362793	pulse	1	t		1.0	2.5	/experiments/Knapen_AOT/AOT_stimuli/rescaled_final/1344_rv.mp4	0.0	94.08601331710815	
3	60.5588493347168	fix_post	2		12	1.0	2.5	/experiments/Knapen_AOT/AOT_stimuli/rescaled_final/1344_rv.mp4	0.0	95.40180921554565	0.09999680519104004
4	60.65884613990784	fix_pre	0		120	2.0	2.5	/experiments/Knapen_AOT/AOT_stimuli/rescaled_final/0309_rv.mp4	0.0	95.5018060207367	1.008453369140625
4	60.84242630004883	pulse	0	t		2.0	2.5	/experiments/Knapen_AOT/AOT_stimuli/rescaled_final/0309_rv.mp4	0.0	95.68538618087769	
4	61.66729950904846	movie	1		265	2.0	2.5	/experiments/Knapen_AOT/AOT_stimuli/rescaled_final/0309_rv.mp4	0.0	96.51025938987732	2.4920389652252197
4	62.44115233421326	pulse	1	t		2.0	2.5	/experiments/Knapen_AOT/AOT_stimuli/rescaled_final/0309_rv.mp4	0.0	97.28411221504211	
4	64.04311513900757	pulse	1	t		2.0	2.5	/experiments/Knapen_AOT/AOT_stimuli/rescaled_final/0309_rv.mp4	0.0	98.88607501983643	
4	64.15933847427368	fix_post	2		12	2.0	2.5	/experiments/Knapen_AOT/AOT_stimuli/rescaled_final/0309_rv.mp4	0.0	99.00229835510254	0.10007143020629883
5	64.25940990447998	fix_pre	0		120	3.0	2.5	/experiments/Knapen_AOT/AOT_stimuli/rescaled_final/2146_fw.mp4	0.0	99.10236978530884	1.008467435836792
5	65.26787734031677	movie	1		283	3.0	2.5	/experiments/Knapen_AOT/AOT_stimuli/rescaled_final/2146_fw.mp4	0.0	100.11083722114563	2.4920806884765625
5	65.64108538627625	pulse	1	t		3.0	2.5	/experiments/Knapen_AOT/AOT_stimuli/rescaled_final/2146_fw.mp4	0.0	100.4840452671051	
5	67.24114632606506	pulse	1	t		3.0	2.5	/experiments/Knapen_AOT/AOT_stimuli/rescaled_final/2146_fw.mp4	0.0	102.08410620689392	
5	67.75995802879333	fix_post	2		12	3.0	2.5	/experiments/Knapen_AOT/AOT_stimuli/rescaled_final/2146_fw.mp4	0.0	102.60291790962219	0.09999608993530273
6	67.85995411872864	fix_pre	0		119	4.0	2.5	/experiments/Knapen_AOT/AOT_stimuli/rescaled_final/1480_fw.mp4	0.0	102.7029139995575	1.0000879764556885
6	68.84359884262085	pulse	0	t		4.0	2.5	/experiments/Knapen_AOT/AOT_stimuli/rescaled_final/1480_fw.mp4	0.0	103.6865587234497	
6	68.86004209518433	movie	1		269	4.0	2.5	/experiments/Knapen_AOT/AOT_stimuli/rescaled_final/1480_fw.mp4	0.0	103.70300197601318	2.50038480758667
6	70.44212412834167	pulse	1	t		4.0	2.5	/experiments/Knapen_AOT/AOT_stimuli/rescaled_final/1480_fw.mp4	0.0	105.28508400917053	
6	71.360426902771	fix_post	2		12	4.0	2.5	/experiments/Knapen_AOT/AOT_stimuli/rescaled_final/1480_fw.mp4	0.0	106.20338678359985	0.10006856918334961
7	71.46049547195435	fix_pre	0		120	5.0	2.5	blank	1.0	106.3034553527832	1.0001025199890137
7	72.03639125823975	pulse	0	t		5.0	2.5	blank	1.0	106.8793511390686	
7	72.46059799194336	movie	1		300	5.0	2.5	blank	1.0	107.30355787277222	2.5004329681396484
7	73.63626742362976	pulse	1	t		5.0	2.5	blank	1.0	108.47922730445862	
7	74.96103096008301	fix_post	2		12	5.0	2.5	blank	1.0	109.80399084091187	0.10000896453857422
8	75.06103992462158	fix_pre	0		120	6.0	2.5	/experiments/Knapen_AOT/AOT_stimuli/rescaled_final/2086_fw.mp4	0.0	109.90399980545044	1.0084450244903564
8	75.23627781867981	pulse	0	t		6.0	2.5	/experiments/Knapen_AOT/AOT_stimuli/rescaled_final/2086_fw.mp4	0.0	110.07923769950867	
8	76.06948494911194	movie	1		277	6.0	2.5	/experiments/Knapen_AOT/AOT_stimuli/rescaled_final/2086_fw.mp4	0.0	110.9124448299408	2.4920098781585693
8	76.83649015426636	pulse	1	t		6.0	2.5	/experiments/Knapen_AOT/AOT_stimuli/rescaled_final/2086_fw.mp4	0.0	111.67945003509521	
8	78.43669390678406	pulse	1	t		6.0	2.5	/experiments/Knapen_AOT/AOT_stimuli/rescaled_final/2086_fw.mp4	0.0	113.27965378761292	
8	78.56149482727051	fix_post	2		12	6.0	2.5	/experiments/Knapen_AOT/AOT_stimuli/rescaled_final/2086_fw.mp4	0.0	113.40445470809937	0.10002946853637695
9	78.66152429580688	fix_pre	0		120	7.0	2.5	/experiments/Knapen_AOT/AOT_stimuli/rescaled_final/0673_fw.mp4	0.0	113.50448417663574	1.0085232257843018
9	79.67004752159119	movie	1		279	7.0	2.5	/experiments/Knapen_AOT/AOT_stimuli/rescaled_final/0673_fw.mp4	0.0	114.51300740242004	2.492058515548706
9	80.03696846961975	pulse	1	t		7.0	2.5	/experiments/Knapen_AOT/AOT_stimuli/rescaled_final/0673_fw.mp4	0.0	114.87992835044861	
9	81.63721132278442	pulse	1	t		7.0	2.5	/experiments/Knapen_AOT/AOT_stimuli/rescaled_final/0673_fw.mp4	0.0	116.48017120361328	
9	82.16210603713989	fix_post	2		12	7.0	2.5	/experiments/Knapen_AOT/AOT_stimuli/rescaled_final/0673_fw.mp4	0.0	117.00506591796875	0.1000518798828125
10	82.2621579170227	fix_pre	0		118	8.0	2.5	/experiments/Knapen_AOT/AOT_stimuli/rescaled_final/0208_fw.mp4	0.0	117.10511779785156	0.9917702674865723
10	83.23745965957642	pulse	0	t		8.0	2.5	/experiments/Knapen_AOT/AOT_stimuli/rescaled_final/0208_fw.mp4	0.0	118.08041954040527	
10	83.25392818450928	movie	1		287	8.0	2.5	/experiments/Knapen_AOT/AOT_stimuli/rescaled_final/0208_fw.mp4	0.0	118.09688806533813	2.5003693103790283
10	84.83791589736938	pulse	1	t		8.0	2.5	/experiments/Knapen_AOT/AOT_stimuli/rescaled_final/0208_fw.mp4	0.0	119.68087577819824	
10	85.7542974948883	fix_post	2		12	8.0	2.5	/experiments/Knapen_AOT/AOT_stimuli/rescaled_final/0208_fw.mp4	0.0	120.59725737571716	0.10015225410461426
11	85.85444974899292	fix_pre	0		120	9.0	2.5	/experiments/Knapen_AOT/AOT_stimuli/rescaled_final/0871_fw.mp4	0.0	120.69740962982178	1.0083060264587402
11	86.43811392784119	pulse	0	t		9.0	2.5	/experiments/Knapen_AOT/AOT_stimuli/rescaled_final/0871_fw.mp4	0.0	121.28107380867004	
11	86.86275577545166	movie	1		270	9.0	2.5	/experiments/Knapen_AOT/AOT_stimuli/rescaled_final/0871_fw.mp4	0.0	121.70571565628052	2.492020606994629
11	88.03652095794678	pulse	1	t		9.0	2.5	/experiments/Knapen_AOT/AOT_stimuli/rescaled_final/0871_fw.mp4	0.0	122.87948083877563	
11	89.35477638244629	fix_post	2		12	9.0	2.5	/experiments/Knapen_AOT/AOT_stimuli/rescaled_final/0871_fw.mp4	0.0	124.19773626327515	0.10004043579101562
12	89.4548168182373	fix_pre	0		120	10.0	2.5	/experiments/Knapen_AOT/AOT_stimuli/rescaled_final/0270_rv.mp4	0.0	124.29777669906616	1.008629322052002
12	89.63869786262512	pulse	0	t		10.0	2.5	/experiments/Knapen_AOT/AOT_stimuli/rescaled_final/0270_rv.mp4	0.0	124.48165774345398	
12	90.4634461402893	movie	1		272	10.0	2.5	/experiments/Knapen_AOT/AOT_stimuli/rescaled_final/0270_rv.mp4	0.0	125.30640602111816	2.4919302463531494
12	91.23663330078125	pulse	1	t		10.0	2.5	/experiments/Knapen_AOT/AOT_stimuli/rescaled_final/0270_rv.mp4	0.0	126.07959318161011	
12	92.83704233169556	pulse	1	t		10.0	2.5	/experiments/Knapen_AOT/AOT_stimuli/rescaled_final/0270_rv.mp4	0.0	127.68000221252441	
12	92.95537638664246	fix_post	2		12	10.0	2.5	/experiments/Knapen_AOT/AOT_stimuli/rescaled_final/0270_rv.mp4	0.0	127.79833626747131	0.10007977485656738
13	93.05545616149902	fix_pre	0		120	11.0	2.5	/experiments/Knapen_AOT/AOT_stimuli/rescaled_final/1466_rv.mp4	0.0	127.89841604232788	1.0084068775177002
13	94.06386303901672	movie	1		269	11.0	2.5	/experiments/Knapen_AOT/AOT_stimuli/rescaled_final/1466_rv.mp4	0.0	128.90682291984558	2.4920034408569336
13	94.43757653236389	pulse	1	t		11.0	2.5	/experiments/Knapen_AOT/AOT_stimuli/rescaled_final/1466_rv.mp4	0.0	129.28053641319275	
13	96.03699827194214	pulse	1	t		11.0	2.5	/experiments/Knapen_AOT/AOT_stimuli/rescaled_final/1466_rv.mp4	0.0	130.879958152771	
13	96.55586647987366	fix_post	2		12	11.0	2.5	/experiments/Knapen_AOT/AOT_stimuli/rescaled_final/1466_rv.mp4	0.0	131.39882636070251	0.10002899169921875
14	96.65589547157288	fix_pre	0		119	12.0	2.5	/experiments/Knapen_AOT/AOT_stimuli/rescaled_final/1576_rv.mp4	0.0	131.49885535240173	1.0001821517944336
14	97.639573097229	pulse	0	t		12.0	2.5	/experiments/Knapen_AOT/AOT_stimuli/rescaled_final/1576_rv.mp4	0.0	132.48253297805786	
14	97.65607762336731	movie	1		284	12.0	2.5	/experiments/Knapen_AOT/AOT_stimuli/rescaled_final/1576_rv.mp4	0.0	132.49903750419617	2.500335454940796
14	99.23832678794861	pulse	1	t		12.0	2.5	/experiments/Knapen_AOT/AOT_stimuli/rescaled_final/1576_rv.mp4	0.0	134.08128666877747	
14	100.1564130783081	fix_post	2		12	12.0	2.5	/experiments/Knapen_AOT/AOT_stimuli/rescaled_final/1576_rv.mp4	0.0	134.99937295913696	0.10001683235168457
15	100.25642991065979	fix_pre	0		120	13.0	2.5	/experiments/Knapen_AOT/AOT_stimuli/rescaled_final/2132_rv.mp4	0.0	135.09938979148865	1.0085618495941162
15	100.84006643295288	pulse	0	t		13.0	2.5	/experiments/Knapen_AOT/AOT_stimuli/rescaled_final/2132_rv.mp4	0.0	135.68302631378174	
15	101.2649917602539	movie	1		275	13.0	2.5	/experiments/Knapen_AOT/AOT_stimuli/rescaled_final/2132_rv.mp4	0.0	136.10795164108276	2.5003392696380615
15	102.43859362602234	pulse	1	t		13.0	2.5	/experiments/Knapen_AOT/AOT_stimuli/rescaled_final/2132_rv.mp4	0.0	137.2815535068512	
15	103.76533102989197	fix_post	2		11	13.0	2.5	/experiments/Knapen_AOT/AOT_stimuli/rescaled_final/2132_rv.mp4	0.0	138.60829091072083	0.09165787696838379
16	103.85698890686035	fix_pre	0		120	14.0	2.5	blank	1.0	138.6999487876892	1.0003108978271484
16	104.04051899909973	pulse	0	t		14.0	2.5	blank	1.0	138.8834788799286	
16	104.8572998046875	movie	1		300	14.0	2.5	blank	1.0	139.70025968551636	2.500201463699341
16	105.64096903800964	pulse	1	t		14.0	2.5	blank	1.0	140.4839289188385	
16	107.24095225334167	pulse	1	t		14.0	2.5	blank	1.0	142.08391213417053	
16	107.35750126838684	fix_post	2		12	14.0	2.5	blank	1.0	142.2004611492157	0.10005784034729004
17	107.45755910873413	fix_pre	0		120	15.0	2.5	/experiments/Knapen_AOT/AOT_stimuli/rescaled_final/1543_fw.mp4	0.0	142.300518989563	1.0084586143493652
17	108.4660177230835	movie	1		280	15.0	2.5	/experiments/Knapen_AOT/AOT_stimuli/rescaled_final/1543_fw.mp4	0.0	143.30897760391235	2.4920969009399414
17	108.83952236175537	pulse	1	t		15.0	2.5	/experiments/Knapen_AOT/AOT_stimuli/rescaled_final/1543_fw.mp4	0.0	143.68248224258423	
17	110.44140148162842	pulse	1	t		15.0	2.5	/experiments/Knapen_AOT/AOT_stimuli/rescaled_final/1543_fw.mp4	0.0	145.28436136245728	
17	110.95811462402344	fix_post	2		12	15.0	2.5	/experiments/Knapen_AOT/AOT_stimuli/rescaled_final/1543_fw.mp4	0.0	145.8010745048523	0.09995055198669434
18	111.05806517601013	fix_pre	0		119	16.0	2.5	/experiments/Knapen_AOT/AOT_stimuli/rescaled_final/1364_fw.mp4	0.0	145.901025056839	1.0001795291900635
18	112.0417377948761	pulse	0	t		16.0	2.5	/experiments/Knapen_AOT/AOT_stimuli/rescaled_final/1364_fw.mp4	0.0	146.88469767570496	
18	112.0582447052002	movie	1		277	16.0	2.5	/experiments/Knapen_AOT/AOT_stimuli/rescaled_final/1364_fw.mp4	0.0	146.90120458602905	2.500330686569214
18	113.64033317565918	pulse	1	t		16.0	2.5	/experiments/Knapen_AOT/AOT_stimuli/rescaled_final/1364_fw.mp4	0.0	148.48329305648804	
18	114.55857539176941	fix_post	2		12	16.0	2.5	/experiments/Knapen_AOT/AOT_stimuli/rescaled_final/1364_fw.mp4	0.0	149.40153527259827	0.10001206398010254
19	114.65858745574951	fix_pre	0		120	17.0	2.5	/experiments/Knapen_AOT/AOT_stimuli/rescaled_final/0874_fw.mp4	0.0	149.50154733657837	1.008516550064087
19	115.24230337142944	pulse	0	t		17.0	2.5	/experiments/Knapen_AOT/AOT_stimuli/rescaled_final/0874_fw.mp4	0.0	150.0852632522583	
19	115.6671040058136	movie	1		265	17.0	2.5	/experiments/Knapen_AOT/AOT_stimuli/rescaled_final/0874_fw.mp4	0.0	150.51006388664246	2.4920401573181152
19	116.84073305130005	pulse	1	t		17.0	2.5	/experiments/Knapen_AOT/AOT_stimuli/rescaled_final/0874_fw.mp4	0.0	151.6836929321289	
19	118.15914416313171	fix_post	2		12	17.0	2.5	/experiments/Knapen_AOT/AOT_stimuli/rescaled_final/0874_fw.mp4	0.0	153.00210404396057	0.10002756118774414
20	118.25917172431946	fix_pre	0		120	18.0	2.5	/experiments/Knapen_AOT/AOT_stimuli/rescaled_final/0890_fw.mp4	0.0	153.10213160514832	1.0084550380706787
20	118.44271492958069	pulse	0	t		18.0	2.5	/experiments/Knapen_AOT/AOT_stimuli/rescaled_final/0890_fw.mp4	0.0	153.28567481040955	
20	119.26762676239014	movie	1		270	18.0	2.5	/experiments/Knapen_AOT/AOT_stimuli/rescaled_final/0890_fw.mp4	0.0	154.110586643219	2.4920787811279297
20	120.04092979431152	pulse	1	t		18.0	2.5	/experiments/Knapen_AOT/AOT_stimuli/rescaled_final/0890_fw.mp4	0.0	154.88388967514038	
20	121.64109635353088	pulse	1	t		18.0	2.5	/experiments/Knapen_AOT/AOT_stimuli/rescaled_final/0890_fw.mp4	0.0	156.48405623435974	
20	121.75970554351807	fix_post	2		12	18.0	2.5	/experiments/Knapen_AOT/AOT_stimuli/rescaled_final/0890_fw.mp4	0.0	156.60266542434692	0.10001373291015625
21	121.85971927642822	fix_pre	0		120	19.0	2.5	blank	1.0	156.70267915725708	1.0001194477081299
21	122.85983872413635	movie	1		300	19.0	2.5	blank	1.0	157.7027986049652	2.5003998279571533
21	123.24365735054016	pulse	1	t		19.0	2.5	blank	1.0	158.08661723136902	
21	124.84389758110046	pulse	1	t		19.0	2.5	blank	1.0	159.68685746192932	
21	125.3602385520935	fix_post	2		12	19.0	2.5	blank	1.0	160.20319843292236	0.10000491142272949
22	125.46024346351624	fix_pre	0		119	20.0	2.5	/experiments/Knapen_AOT/AOT_stimuli/rescaled_final/1949_rv.mp4	0.0	160.3032033443451	1.0001399517059326
22	126.44398760795593	pulse	0	t		20.0	2.5	/experiments/Knapen_AOT/AOT_stimuli/rescaled_final/1949_rv.mp4	0.0	161.2869474887848	
22	126.46038341522217	movie	1		273	20.0	2.5	/experiments/Knapen_AOT/AOT_stimuli/rescaled_final/1949_rv.mp4	0.0	161.30334329605103	2.500361204147339
22	128.04244804382324	pulse	1	t		20.0	2.5	/experiments/Knapen_AOT/AOT_stimuli/rescaled_final/1949_rv.mp4	0.0	162.8854079246521	
22	128.9607446193695	fix_post	2		12	20.0	2.5	/experiments/Knapen_AOT/AOT_stimuli/rescaled_final/1949_rv.mp4	0.0	163.80370450019836	0.10001635551452637
23	129.06076097488403	fix_pre	0		120	21.0	2.5	/experiments/Knapen_AOT/AOT_stimuli/rescaled_final/0345_fw.mp4	0.0	163.9037208557129	1.0085222721099854
23	129.636700630188	pulse	0	t		21.0	2.5	/experiments/Knapen_AOT/AOT_stimuli/rescaled_final/0345_fw.mp4	0.0	164.47966051101685	
23	130.06928324699402	movie	1		266	21.0	2.5	/experiments/Knapen_AOT/AOT_stimuli/rescaled_final/0345_fw.mp4	0.0	164.91224312782288	2.4920129776000977
23	131.2368392944336	pulse	1	t		21.0	2.5	/experiments/Knapen_AOT/AOT_stimuli/rescaled_final/0345_fw.mp4	0.0	166.07979917526245	
23	132.56129622459412	fix_post	2		12	21.0	2.5	/experiments/Knapen_AOT/AOT_stimuli/rescaled_final/0345_fw.mp4	0.0	167.40425610542297	0.10001254081726074
24	132.66130876541138	fix_pre	0		120	22.0	2.5	/experiments/Knapen_AOT/AOT_stimuli/rescaled_final/0495_fw.mp4	0.0	167.50426864624023	1.0085182189941406
24	132.83661651611328	pulse	0	t		22.0	2.5	/experiments/Knapen_AOT/AOT_stimuli/rescaled_final/0495_fw.mp4	0.0	167.67957639694214	
24	133.66982698440552	movie	1		274	22.0	2.5	/experiments/Knapen_AOT/AOT_stimuli/rescaled_final/0495_fw.mp4	0.0	168.51278686523438	2.4919939041137695
24	134.4367847442627	pulse	1	t		22.0	2.5	/experiments/Knapen_AOT/AOT_stimuli/rescaled_final/0495_fw.mp4	0.0	169.27974462509155	
24	136.03717851638794	pulse	1	t		22.0	2.5	/experiments/Knapen_AOT/AOT_stimuli/rescaled_final/0495_fw.mp4	0.0	170.8801383972168	
24	136.1618208885193	fix_post	2		12	22.0	2.5	/experiments/Knapen_AOT/AOT_stimuli/rescaled_final/0495_fw.mp4	0.0	171.00478076934814	0.10002541542053223
25	136.26184630393982	fix_pre	0		120	23.0	2.5	/experiments/Knapen_AOT/AOT_stimuli/rescaled_final/2056_rv.mp4	0.0	171.10480618476868	1.008500099182129
25	137.27034640312195	movie	1		276	23.0	2.5	/experiments/Knapen_AOT/AOT_stimuli/rescaled_final/2056_rv.mp4	0.0	172.1133062839508	2.492029905319214
25	137.63770031929016	pulse	1	t		23.0	2.5	/experiments/Knapen_AOT/AOT_stimuli/rescaled_final/2056_rv.mp4	0.0	172.48066020011902	
25	139.237877368927	pulse	1	t		23.0	2.5	/experiments/Knapen_AOT/AOT_stimuli/rescaled_final/2056_rv.mp4	0.0	174.08083724975586	
25	139.76237630844116	fix_post	2		12	23.0	2.5	/experiments/Knapen_AOT/AOT_stimuli/rescaled_final/2056_rv.mp4	0.0	174.60533618927002	0.10001730918884277
26	139.86239361763	fix_pre	0		118	24.0	2.5	/experiments/Knapen_AOT/AOT_stimuli/rescaled_final/0016_fw.mp4	0.0	174.70535349845886	0.9919018745422363
26	140.83779883384705	pulse	0	t		24.0	2.5	/experiments/Knapen_AOT/AOT_stimuli/rescaled_final/0016_fw.mp4	0.0	175.6807587146759	
26	140.85429549217224	movie	1		276	24.0	2.5	/experiments/Knapen_AOT/AOT_stimuli/rescaled_final/0016_fw.mp4	0.0	175.6972553730011	2.5086567401885986
26	142.43728017807007	pulse	1	t		24.0	2.5	/experiments/Knapen_AOT/AOT_stimuli/rescaled_final/0016_fw.mp4	0.0	177.28024005889893	
26	143.36295223236084	fix_post	2		11	24.0	2.5	/experiments/Knapen_AOT/AOT_stimuli/rescaled_final/0016_fw.mp4	0.0	178.2059121131897	0.09166193008422852
27	143.45461416244507	fix_pre	0		120	25.0	2.5	/experiments/Knapen_AOT/AOT_stimuli/rescaled_final/2087_rv.mp4	0.0	178.29757404327393	1.0085456371307373
27	144.03827667236328	pulse	0	t		25.0	2.5	/experiments/Knapen_AOT/AOT_stimuli/rescaled_final/2087_rv.mp4	0.0	178.88123655319214	
27	144.4631597995758	movie	1		276	25.0	2.5	/experiments/Knapen_AOT/AOT_stimuli/rescaled_final/2087_rv.mp4	0.0	179.30611968040466	2.4919846057891846
27	145.63679361343384	pulse	1	t		25.0	2.5	/experiments/Knapen_AOT/AOT_stimuli/rescaled_final/2087_rv.mp4	0.0	180.4797534942627	
27	146.955144405365	fix_post	2		12	25.0	2.5	/experiments/Knapen_AOT/AOT_stimuli/rescaled_final/2087_rv.mp4	0.0	181.79810428619385	0.1000051498413086
28	147.0551495552063	fix_pre	0		120	26.0	2.5	blank	1.0	181.89810943603516	1.0001239776611328
28	147.23873376846313	pulse	0	t		26.0	2.5	blank	1.0	182.081693649292	
28	148.05527353286743	movie	1		300	26.0	2.5	blank	1.0	182.8982334136963	2.5003879070281982
28	148.83896374702454	pulse	1	t		26.0	2.5	blank	1.0	183.6819236278534	
28	150.43934893608093	pulse	1	t		26.0	2.5	blank	1.0	185.2823088169098	
28	150.55566143989563	fix_post	2		12	26.0	2.5	blank	1.0	185.3986213207245	0.10001850128173828
29	150.65567994117737	fix_pre	0		120	27.0	2.5	/experiments/Knapen_AOT/AOT_stimuli/rescaled_final/0785_fw.mp4	0.0	185.49863982200623	1.0085365772247314
29	151.6642165184021	movie	1		279	27.0	2.5	/experiments/Knapen_AOT/AOT_stimuli/rescaled_final/0785_fw.mp4	0.0	186.50717639923096	2.492091655731201
29	152.0386245250702	pulse	1	t		27.0	2.5	/experiments/Knapen_AOT/AOT_stimuli/rescaled_final/0785_fw.mp4	0.0	186.88158440589905	
29	153.63762855529785	pulse	1	t		27.0	2.5	/experiments/Knapen_AOT/AOT_stimuli/rescaled_final/0785_fw.mp4	0.0	188.4805884361267	
29	154.1563081741333	fix_post	2		12	27.0	2.5	/experiments/Knapen_AOT/AOT_stimuli/rescaled_final/0785_fw.mp4	0.0	188.99926805496216	0.09990715980529785
30	154.2562153339386	fix_pre	0		119	28.0	2.5	/experiments/Knapen_AOT/AOT_stimuli/rescaled_final/1827_rv.mp4	0.0	189.09917521476746	1.0001459121704102
30	155.23993182182312	pulse	0	t		28.0	2.5	/experiments/Knapen_AOT/AOT_stimuli/rescaled_final/1827_rv.mp4	0.0	190.08289170265198	
30	155.256361246109	movie	1		283	28.0	2.5	/experiments/Knapen_AOT/AOT_stimuli/rescaled_final/1827_rv.mp4	0.0	190.09932112693787	2.5003912448883057
30	156.83831810951233	pulse	1	t		28.0	2.5	/experiments/Knapen_AOT/AOT_stimuli/rescaled_final/1827_rv.mp4	0.0	191.6812779903412	
30	157.75675249099731	fix_post	2		12	28.0	2.5	/experiments/Knapen_AOT/AOT_stimuli/rescaled_final/1827_rv.mp4	0.0	192.59971237182617	0.10024333000183105
31	157.85699582099915	fix_pre	0		120	29.0	2.5	/experiments/Knapen_AOT/AOT_stimuli/rescaled_final/0910_rv.mp4	0.0	192.699955701828	1.0083177089691162
31	158.44039344787598	pulse	0	t		29.0	2.5	/experiments/Knapen_AOT/AOT_stimuli/rescaled_final/0910_rv.mp4	0.0	193.28335332870483	
31	158.86531352996826	movie	1		281	29.0	2.5	/experiments/Knapen_AOT/AOT_stimuli/rescaled_final/0910_rv.mp4	0.0	193.70827341079712	2.5003199577331543
31	160.03872323036194	pulse	1	t		29.0	2.5	/experiments/Knapen_AOT/AOT_stimuli/rescaled_final/0910_rv.mp4	0.0	194.8816831111908	
31	161.36563348770142	fix_post	2		11	29.0	2.5	/experiments/Knapen_AOT/AOT_stimuli/rescaled_final/0910_rv.mp4	0.0	196.20859336853027	0.09169816970825195
32	161.45733165740967	fix_pre	0		120	30.0	2.5	/experiments/Knapen_AOT/AOT_stimuli/rescaled_final/0950_fw.mp4	0.0	196.30029153823853	1.0085067749023438
32	161.64087176322937	pulse	0	t		30.0	2.5	/experiments/Knapen_AOT/AOT_stimuli/rescaled_final/0950_fw.mp4	0.0	196.48383164405823	
32	162.465838432312	movie	1		274	30.0	2.5	/experiments/Knapen_AOT/AOT_stimuli/rescaled_final/0950_fw.mp4	0.0	197.30879831314087	2.4920058250427246
32	163.24047803878784	pulse	1	t		30.0	2.5	/experiments/Knapen_AOT/AOT_stimuli/rescaled_final/0950_fw.mp4	0.0	198.0834379196167	
32	164.83927869796753	pulse	1	t		30.0	2.5	/experiments/Knapen_AOT/AOT_stimuli/rescaled_final/0950_fw.mp4	0.0	199.6822385787964	
32	164.95784425735474	fix_post	2		12	30.0	2.5	/experiments/Knapen_AOT/AOT_stimuli/rescaled_final/0950_fw.mp4	0.0	199.8008041381836	0.10003232955932617
33	165.05787658691406	fix_pre	0		120	31.0	2.5	/experiments/Knapen_AOT/AOT_stimuli/rescaled_final/1285_rv.mp4	0.0	199.90083646774292	1.0085127353668213
33	166.06638932228088	movie	1		291	31.0	2.5	/experiments/Knapen_AOT/AOT_stimuli/rescaled_final/1285_rv.mp4	0.0	200.90934920310974	2.4920151233673096
33	166.44015502929688	pulse	1	t		31.0	2.5	/experiments/Knapen_AOT/AOT_stimuli/rescaled_final/1285_rv.mp4	0.0	201.28311491012573	
33	168.03981375694275	pulse	1	t		31.0	2.5	/experiments/Knapen_AOT/AOT_stimuli/rescaled_final/1285_rv.mp4	0.0	202.8827736377716	
33	168.5584044456482	fix_post	2		12	31.0	2.5	/experiments/Knapen_AOT/AOT_stimuli/rescaled_final/1285_rv.mp4	0.0	203.40136432647705	0.09998202323913574
34	168.65838646888733	fix_pre	0		119	32.0	2.5	/experiments/Knapen_AOT/AOT_stimuli/rescaled_final/1086_fw.mp4	0.0	203.5013463497162	1.0085599422454834
34	169.6423215866089	pulse	0	t		32.0	2.5	/experiments/Knapen_AOT/AOT_stimuli/rescaled_final/1086_fw.mp4	0.0	204.48528146743774	
34	169.6669464111328	movie	1		274	32.0	2.5	/experiments/Knapen_AOT/AOT_stimuli/rescaled_final/1086_fw.mp4	0.0	204.50990629196167	2.492021083831787
34	171.24161791801453	pulse	1	t		32.0	2.5	/experiments/Knapen_AOT/AOT_stimuli/rescaled_final/1086_fw.mp4	0.0	206.08457779884338	
34	172.1589674949646	fix_post	2		12	32.0	2.5	/experiments/Knapen_AOT/AOT_stimuli/rescaled_final/1086_fw.mp4	0.0	207.00192737579346	0.09996533393859863
35	172.2589328289032	fix_pre	0		120	33.0	2.5	/experiments/Knapen_AOT/AOT_stimuli/rescaled_final/0781_fw.mp4	0.0	207.10189270973206	1.0084965229034424
35	172.84256672859192	pulse	0	t		33.0	2.5	/experiments/Knapen_AOT/AOT_stimuli/rescaled_final/0781_fw.mp4	0.0	207.68552660942078	
35	173.26742935180664	movie	1		281	33.0	2.5	/experiments/Knapen_AOT/AOT_stimuli/rescaled_final/0781_fw.mp4	0.0	208.1103892326355	2.4920217990875244
35	174.44096541404724	pulse	1	t		33.0	2.5	/experiments/Knapen_AOT/AOT_stimuli/rescaled_final/0781_fw.mp4	0.0	209.2839252948761	
35	175.75945115089417	fix_post	2		12	33.0	2.5	/experiments/Knapen_AOT/AOT_stimuli/rescaled_final/0781_fw.mp4	0.0	210.60241103172302	0.10002660751342773
36	175.8594777584076	fix_pre	0		120	34.0	2.5	blank	1.0	210.70243763923645	1.0001544952392578
36	176.04305744171143	pulse	0	t		34.0	2.5	blank	1.0	210.88601732254028	
36	176.85963225364685	movie	1		300	34.0	2.5	blank	1.0	211.7025921344757	2.500373363494873
36	177.64333319664001	pulse	1	t		34.0	2.5	blank	1.0	212.48629307746887	
36	179.24358081817627	pulse	1	t		34.0	2.5	blank	1.0	214.08654069900513	
36	179.36000561714172	fix_post	2		12	34.0	2.5	blank	1.0	214.20296549797058	0.10002851486206055
37	179.46003413200378	fix_pre	0		120	35.0	2.5	/experiments/Knapen_AOT/AOT_stimuli/rescaled_final/0310_fw.mp4	0.0	214.30299401283264	1.0084824562072754
37	180.46851658821106	movie	1		271	35.0	2.5	/experiments/Knapen_AOT/AOT_stimuli/rescaled_final/0310_fw.mp4	0.0	215.31147646903992	2.492016315460205
37	180.84391832351685	pulse	1	t		35.0	2.5	/experiments/Knapen_AOT/AOT_stimuli/rescaled_final/0310_fw.mp4	0.0	215.6868782043457	
37	182.44216322898865	pulse	1	t		35.0	2.5	/experiments/Knapen_AOT/AOT_stimuli/rescaled_final/0310_fw.mp4	0.0	217.2851231098175	
37	182.96053290367126	fix_post	2		12	35.0	2.5	/experiments/Knapen_AOT/AOT_stimuli/rescaled_final/0310_fw.mp4	0.0	217.80349278450012	0.10005688667297363
38	183.06058979034424	fix_pre	0		119	36.0	2.5	/experiments/Knapen_AOT/AOT_stimuli/rescaled_final/1576_fw.mp4	0.0	217.9035496711731	1.0001177787780762
38	184.04439425468445	pulse	0	t		36.0	2.5	/experiments/Knapen_AOT/AOT_stimuli/rescaled_final/1576_fw.mp4	0.0	218.8873541355133	
38	184.06070756912231	movie	1		272	36.0	2.5	/experiments/Knapen_AOT/AOT_stimuli/rescaled_final/1576_fw.mp4	0.0	218.90366744995117	2.5004115104675293
38	185.6462972164154	pulse	1	t		36.0	2.5	/experiments/Knapen_AOT/AOT_stimuli/rescaled_final/1576_fw.mp4	0.0	220.48925709724426	
38	186.56111907958984	fix_post	2		12	36.0	2.5	/experiments/Knapen_AOT/AOT_stimuli/rescaled_final/1576_fw.mp4	0.0	221.4040789604187	0.09997200965881348
39	186.66109108924866	fix_pre	0		120	37.0	2.5	/experiments/Knapen_AOT/AOT_stimuli/rescaled_final/1560_rv.mp4	0.0	221.50405097007751	1.008497953414917
39	187.2370343208313	pulse	0	t		37.0	2.5	/experiments/Knapen_AOT/AOT_stimuli/rescaled_final/1560_rv.mp4	0.0	222.07999420166016	
39	187.66958904266357	movie	1		284	37.0	2.5	/experiments/Knapen_AOT/AOT_stimuli/rescaled_final/1560_rv.mp4	0.0	222.51254892349243	2.4920339584350586
39	188.83704113960266	pulse	1	t		37.0	2.5	/experiments/Knapen_AOT/AOT_stimuli/rescaled_final/1560_rv.mp4	0.0	223.68000102043152	
39	190.16162300109863	fix_post	2		12	37.0	2.5	/experiments/Knapen_AOT/AOT_stimuli/rescaled_final/1560_rv.mp4	0.0	225.0045828819275	0.10001420974731445
40	190.26163721084595	fix_pre	0		120	38.0	2.5	/experiments/Knapen_AOT/AOT_stimuli/rescaled_final/0882_fw.mp4	0.0	225.1045970916748	1.00850248336792
40	190.4369251728058	pulse	0	t		38.0	2.5	/experiments/Knapen_AOT/AOT_stimuli/rescaled_final/0882_fw.mp4	0.0	225.27988505363464	
40	191.27013969421387	movie	1		280	38.0	2.5	/experiments/Knapen_AOT/AOT_stimuli/rescaled_final/0882_fw.mp4	0.0	226.11309957504272	2.492109537124634
40	192.03718638420105	pulse	1	t		38.0	2.5	/experiments/Knapen_AOT/AOT_stimuli/rescaled_final/0882_fw.mp4	0.0	226.8801462650299	
40	193.63836932182312	pulse	1	t		38.0	2.5	/experiments/Knapen_AOT/AOT_stimuli/rescaled_final/0882_fw.mp4	0.0	228.48132920265198	
40	193.7622492313385	fix_post	2		12	38.0	2.5	/experiments/Knapen_AOT/AOT_stimuli/rescaled_final/0882_fw.mp4	0.0	228.60520911216736	0.09995579719543457
41	193.86220502853394	fix_pre	0		120	39.0	2.5	/experiments/Knapen_AOT/AOT_stimuli/rescaled_final/0544_rv.mp4	0.0	228.7051649093628	1.0084619522094727
41	194.8706669807434	movie	1		281	39.0	2.5	/experiments/Knapen_AOT/AOT_stimuli/rescaled_final/0544_rv.mp4	0.0	229.71362686157227	2.4920411109924316
41	195.23769545555115	pulse	1	t		39.0	2.5	/experiments/Knapen_AOT/AOT_stimuli/rescaled_final/0544_rv.mp4	0.0	230.08065533638	
41	196.83783149719238	pulse	1	t		39.0	2.5	/experiments/Knapen_AOT/AOT_stimuli/rescaled_final/0544_rv.mp4	0.0	231.68079137802124	
41	197.36270809173584	fix_post	2		12	39.0	2.5	/experiments/Knapen_AOT/AOT_stimuli/rescaled_final/0544_rv.mp4	0.0	232.2056679725647	0.1000065803527832
42	197.46271467208862	fix_pre	0		118	40.0	2.5	blank	1.0	232.30567455291748	0.9834952354431152
42	198.43829345703125	pulse	0	t		40.0	2.5	blank	1.0	233.2812533378601	
42	198.44620990753174	movie	1		301	40.0	2.5	blank	1.0	233.2891697883606	2.5086867809295654
42	200.03835487365723	pulse	1	t		40.0	2.5	blank	1.0	234.88131475448608	
42	200.9548966884613	fix_post	2		12	40.0	2.5	blank	1.0	235.79785656929016	0.10005640983581543
43	201.05495309829712	fix_pre	0		120	41.0	2.5	/experiments/Knapen_AOT/AOT_stimuli/rescaled_final/1560_fw.mp4	0.0	235.89791297912598	1.008518934249878
43	201.6385498046875	pulse	0	t		41.0	2.5	/experiments/Knapen_AOT/AOT_stimuli/rescaled_final/1560_fw.mp4	0.0	236.48150968551636	
43	202.063472032547	movie	1		284	41.0	2.5	/experiments/Knapen_AOT/AOT_stimuli/rescaled_final/1560_fw.mp4	0.0	236.90643191337585	2.4919753074645996
43	203.23696660995483	pulse	1	t		41.0	2.5	/experiments/Knapen_AOT/AOT_stimuli/rescaled_final/1560_fw.mp4	0.0	238.0799264907837	
43	204.5554473400116	fix_post	2		12	41.0	2.5	/experiments/Knapen_AOT/AOT_stimuli/rescaled_final/1560_fw.mp4	0.0	239.39840722084045	0.10002517700195312
44	204.65547251701355	fix_pre	0		120	42.0	2.5	/experiments/Knapen_AOT/AOT_stimuli/rescaled_final/1990_rv.mp4	0.0	239.4984323978424	1.008486270904541
44	204.83909034729004	pulse	0	t		42.0	2.5	/experiments/Knapen_AOT/AOT_stimuli/rescaled_final/1990_rv.mp4	0.0	239.6820502281189	
44	205.6639587879181	movie	1		279	42.0	2.5	/experiments/Knapen_AOT/AOT_stimuli/rescaled_final/1990_rv.mp4	0.0	240.50691866874695	2.492225408554077
44	206.43744921684265	pulse	1	t		42.0	2.5	/experiments/Knapen_AOT/AOT_stimuli/rescaled_final/1990_rv.mp4	0.0	241.2804090976715	
44	208.03733444213867	pulse	1	t		42.0	2.5	/experiments/Knapen_AOT/AOT_stimuli/rescaled_final/1990_rv.mp4	0.0	242.88029432296753	
44	208.15618419647217	fix_post	2		12	42.0	2.5	/experiments/Knapen_AOT/AOT_stimuli/rescaled_final/1990_rv.mp4	0.0	242.99914407730103	0.09982800483703613
45	208.2560122013092	fix_pre	0		120	43.0	2.5	/experiments/Knapen_AOT/AOT_stimuli/rescaled_final/0781_rv.mp4	0.0	243.09897208213806	1.0085103511810303
45	209.26452255249023	movie	1		274	43.0	2.5	/experiments/Knapen_AOT/AOT_stimuli/rescaled_final/0781_rv.mp4	0.0	244.1074824333191	2.492016315460205
45	209.63826656341553	pulse	1	t		43.0	2.5	/experiments/Knapen_AOT/AOT_stimuli/rescaled_final/0781_rv.mp4	0.0	244.48122644424438	
45	211.23792004585266	pulse	1	t		43.0	2.5	/experiments/Knapen_AOT/AOT_stimuli/rescaled_final/0781_rv.mp4	0.0	246.08087992668152	
45	211.75653886795044	fix_post	2		12	43.0	2.5	/experiments/Knapen_AOT/AOT_stimuli/rescaled_final/0781_rv.mp4	0.0	246.5994987487793	0.10003113746643066
46	211.85657000541687	fix_pre	0		119	44.0	2.5	/experiments/Knapen_AOT/AOT_stimuli/rescaled_final/0193_rv.mp4	0.0	246.69952988624573	1.000133752822876
46	212.8402624130249	pulse	0	t		44.0	2.5	/experiments/Knapen_AOT/AOT_stimuli/rescaled_final/0193_rv.mp4	0.0	247.68322229385376	
46	212.85670375823975	movie	1		275	44.0	2.5	/experiments/Knapen_AOT/AOT_stimuli/rescaled_final/0193_rv.mp4	0.0	247.6996636390686	2.500401258468628
46	214.43884587287903	pulse	1	t		44.0	2.5	/experiments/Knapen_AOT/AOT_stimuli/rescaled_final/0193_rv.mp4	0.0	249.28180575370789	
46	215.35710501670837	fix_post	2		12	44.0	2.5	/experiments/Knapen_AOT/AOT_stimuli/rescaled_final/0193_rv.mp4	0.0	250.20006489753723	0.10003042221069336
47	215.45713543891907	fix_pre	0		120	45.0	2.5	/experiments/Knapen_AOT/AOT_stimuli/rescaled_final/1841_rv.mp4	0.0	250.30009531974792	1.0084271430969238
47	216.04074096679688	pulse	0	t		45.0	2.5	/experiments/Knapen_AOT/AOT_stimuli/rescaled_final/1841_rv.mp4	0.0	250.88370084762573	
47	216.465562582016	movie	1		283	45.0	2.5	/experiments/Knapen_AOT/AOT_stimuli/rescaled_final/1841_rv.mp4	0.0	251.30852246284485	2.492341995239258
47	217.63954663276672	pulse	1	t		45.0	2.5	/experiments/Knapen_AOT/AOT_stimuli/rescaled_final/1841_rv.mp4	0.0	252.48250651359558	
47	218.95790457725525	fix_post	2		12	45.0	2.5	/experiments/Knapen_AOT/AOT_stimuli/rescaled_final/1841_rv.mp4	0.0	253.8008644580841	0.09973025321960449
48	219.05763483047485	fix_pre	0		120	46.0	2.5	/experiments/Knapen_AOT/AOT_stimuli/rescaled_final/1198_rv.mp4	0.0	253.9005947113037	1.0085370540618896
48	219.2412314414978	pulse	0	t		46.0	2.5	/experiments/Knapen_AOT/AOT_stimuli/rescaled_final/1198_rv.mp4	0.0	254.08419132232666	
48	220.06617188453674	movie	1		258	46.0	2.5	/experiments/Knapen_AOT/AOT_stimuli/rescaled_final/1198_rv.mp4	0.0	254.9091317653656	2.492016315460205
48	220.84188318252563	pulse	1	t		46.0	2.5	/experiments/Knapen_AOT/AOT_stimuli/rescaled_final/1198_rv.mp4	0.0	255.6848430633545	
48	222.442480802536	pulse	1	t		46.0	2.5	/experiments/Knapen_AOT/AOT_stimuli/rescaled_final/1198_rv.mp4	0.0	257.28544068336487	
48	222.55818819999695	fix_post	2		12	46.0	2.5	/experiments/Knapen_AOT/AOT_stimuli/rescaled_final/1198_rv.mp4	0.0	257.4011480808258	0.10015106201171875
49	222.65833926200867	fix_pre	0		120	47.0	2.5	blank	1.0	257.5012991428375	1.0000324249267578
49	223.65837168693542	movie	1		300	47.0	2.5	blank	1.0	258.5013315677643	2.500316858291626
49	224.04196453094482	pulse	1	t		47.0	2.5	blank	1.0	258.8849244117737	
49	225.6421558856964	pulse	1	t		47.0	2.5	blank	1.0	260.48511576652527	
49	226.15868854522705	fix_post	2		12	47.0	2.5	blank	1.0	261.0016484260559	0.0999910831451416
50	226.2586796283722	fix_pre	0		119	48.0	2.5	/experiments/Knapen_AOT/AOT_stimuli/rescaled_final/1678_fw.mp4	0.0	261.10163950920105	1.0002217292785645
50	227.24247479438782	pulse	0	t		48.0	2.5	/experiments/Knapen_AOT/AOT_stimuli/rescaled_final/1678_fw.mp4	0.0	262.0854346752167	
50	227.25890135765076	movie	1		278	48.0	2.5	/experiments/Knapen_AOT/AOT_stimuli/rescaled_final/1678_fw.mp4	0.0	262.1018612384796	2.5003573894500732
50	228.8417410850525	pulse	1	t		48.0	2.5	/experiments/Knapen_AOT/AOT_stimuli/rescaled_final/1678_fw.mp4	0.0	263.68470096588135	
50	229.75925874710083	fix_post	2		12	48.0	2.5	/experiments/Knapen_AOT/AOT_stimuli/rescaled_final/1678_fw.mp4	0.0	264.6022186279297	0.10000419616699219
51	229.85926294326782	fix_pre	0		120	49.0	2.5	/experiments/Knapen_AOT/AOT_stimuli/rescaled_final/0890_fw.mp4	0.0	264.7022228240967	1.0084893703460693
51	230.44291472434998	pulse	0	t		49.0	2.5	/experiments/Knapen_AOT/AOT_stimuli/rescaled_final/0890_fw.mp4	0.0	265.28587460517883	
51	230.8677523136139	movie	1		283	49.0	2.5	/experiments/Knapen_AOT/AOT_stimuli/rescaled_final/0890_fw.mp4	0.0	265.71071219444275	2.4921367168426514
51	232.04123854637146	pulse	1	t		49.0	2.5	/experiments/Knapen_AOT/AOT_stimuli/rescaled_final/0890_fw.mp4	0.0	266.8841984272003	
51	233.35988903045654	fix_post	2		12	49.0	2.5	/experiments/Knapen_AOT/AOT_stimuli/rescaled_final/0890_fw.mp4	0.0	268.2028489112854	0.0999748706817627
52	233.4598639011383	fix_pre	0		120	50.0	2.5	/experiments/Knapen_AOT/AOT_stimuli/rescaled_final/1285_rv.mp4	0.0	268.30282378196716	1.0084428787231445
52	233.6433928012848	pulse	0	t		50.0	2.5	/experiments/Knapen_AOT/AOT_stimuli/rescaled_final/1285_rv.mp4	0.0	268.48635268211365	
52	234.46830677986145	movie	1		289	50.0	2.5	/experiments/Knapen_AOT/AOT_stimuli/rescaled_final/1285_rv.mp4	0.0	269.3112666606903	2.492016315460205
52	235.24170303344727	pulse	1	t		50.0	2.5	/experiments/Knapen_AOT/AOT_stimuli/rescaled_final/1285_rv.mp4	0.0	270.0846629142761	
52	236.84192204475403	pulse	1	t		50.0	2.5	/experiments/Knapen_AOT/AOT_stimuli/rescaled_final/1285_rv.mp4	0.0	271.6848819255829	
52	236.96032309532166	fix_post	2		12	50.0	2.5	/experiments/Knapen_AOT/AOT_stimuli/rescaled_final/1285_rv.mp4	0.0	271.8032829761505	0.10002994537353516
53	237.0603530406952	fix_pre	0		120	51.0	2.5	/experiments/Knapen_AOT/AOT_stimuli/rescaled_final/1140_fw.mp4	0.0	271.90331292152405	1.0085396766662598
53	238.06889271736145	movie	1		280	51.0	2.5	/experiments/Knapen_AOT/AOT_stimuli/rescaled_final/1140_fw.mp4	0.0	272.9118525981903	2.492021083831787
53	238.4442789554596	pulse	1	t		51.0	2.5	/experiments/Knapen_AOT/AOT_stimuli/rescaled_final/1140_fw.mp4	0.0	273.28723883628845	
53	240.04235816001892	pulse	1	t		51.0	2.5	/experiments/Knapen_AOT/AOT_stimuli/rescaled_final/1140_fw.mp4	0.0	274.8853180408478	
53	240.56091380119324	fix_post	2		12	51.0	2.5	/experiments/Knapen_AOT/AOT_stimuli/rescaled_final/1140_fw.mp4	0.0	275.4038736820221	0.09997320175170898
54	240.66088700294495	fix_pre	0		119	52.0	2.5	/experiments/Knapen_AOT/AOT_stimuli/rescaled_final/1884_fw.mp4	0.0	275.5038468837738	1.0001604557037354
54	241.6446657180786	pulse	0	t		52.0	2.5	/experiments/Knapen_AOT/AOT_stimuli/rescaled_final/1884_fw.mp4	0.0	276.48762559890747	
54	241.66104745864868	movie	1		269	52.0	2.5	/experiments/Knapen_AOT/AOT_stimuli/rescaled_final/1884_fw.mp4	0.0	276.50400733947754	2.5003578662872314
54	243.24368834495544	pulse	1	t		52.0	2.5	/experiments/Knapen_AOT/AOT_stimuli/rescaled_final/1884_fw.mp4	0.0	278.0866482257843	
54	244.1614053249359	fix_post	2		12	52.0	2.5	/experiments/Knapen_AOT/AOT_stimuli/rescaled_final/1884_fw.mp4	0.0	279.00436520576477	0.10002017021179199
55	244.2614254951477	fix_pre	0		120	53.0	2.5	/experiments/Knapen_AOT/AOT_stimuli/rescaled_final/1841_fw.mp4	0.0	279.10438537597656	1.0085110664367676
55	244.8367314338684	pulse	0	t		53.0	2.5	/experiments/Knapen_AOT/AOT_stimuli/rescaled_final/1841_fw.mp4	0.0	279.67969131469727	
55	245.26993656158447	movie	1		277	53.0	2.5	/experiments/Knapen_AOT/AOT_stimuli/rescaled_final/1841_fw.mp4	0.0	280.11289644241333	2.4919936656951904
55	246.43709444999695	pulse	1	t		53.0	2.5	/experiments/Knapen_AOT/AOT_stimuli/rescaled_final/1841_fw.mp4	0.0	281.2800543308258	
55	247.76193022727966	fix_post	2		12	53.0	2.5	/experiments/Knapen_AOT/AOT_stimuli/rescaled_final/1841_fw.mp4	0.0	282.6048901081085	0.10004043579101562
56	247.86197066307068	fix_pre	0		120	54.0	2.5	/experiments/Knapen_AOT/AOT_stimuli/rescaled_final/0890_rv.mp4	0.0	282.70493054389954	1.0085060596466064
56	248.0373568534851	pulse	0	t		54.0	2.5	/experiments/Knapen_AOT/AOT_stimuli/rescaled_final/0890_rv.mp4	0.0	282.88031673431396	
56	248.87047672271729	movie	1		277	54.0	2.5	/experiments/Knapen_AOT/AOT_stimuli/rescaled_final/0890_rv.mp4	0.0	283.71343660354614	2.492018222808838
56	249.63749742507935	pulse	1	t		54.0	2.5	/experiments/Knapen_AOT/AOT_stimuli/rescaled_final/0890_rv.mp4	0.0	284.4804573059082	
56	251.23793029785156	pulse	1	t		54.0	2.5	/experiments/Knapen_AOT/AOT_stimuli/rescaled_final/0890_rv.mp4	0.0	286.0808901786804	
56	251.36249494552612	fix_post	2		12	54.0	2.5	/experiments/Knapen_AOT/AOT_stimuli/rescaled_final/0890_rv.mp4	0.0	286.205454826355	0.10001063346862793
57	251.46250557899475	fix_pre	0		120	55.0	2.5	/experiments/Knapen_AOT/AOT_stimuli/rescaled_final/0570_rv.mp4	0.0	286.3054654598236	1.0085132122039795
57	252.47101879119873	movie	1		284	55.0	2.5	/experiments/Knapen_AOT/AOT_stimuli/rescaled_final/0570_rv.mp4	0.0	287.3139786720276	2.4920172691345215
57	252.83626079559326	pulse	1	t		55.0	2.5	/experiments/Knapen_AOT/AOT_stimuli/rescaled_final/0570_rv.mp4	0.0	287.6792206764221	
57	254.43817949295044	pulse	1	t		55.0	2.5	/experiments/Knapen_AOT/AOT_stimuli/rescaled_final/0570_rv.mp4	0.0	289.2811393737793	
57	254.96303606033325	fix_post	2		12	55.0	2.5	/experiments/Knapen_AOT/AOT_stimuli/rescaled_final/0570_rv.mp4	0.0	289.8059959411621	0.10005664825439453
58	255.06309270858765	fix_pre	0		118	56.0	2.5	blank	1.0	289.9060525894165	0.9834051132202148
58	256.03844571113586	pulse	0	t		56.0	2.5	blank	1.0	290.8814055919647	
58	256.04649782180786	movie	1		301	56.0	2.5	blank	1.0	290.8894577026367	2.508744478225708
58	257.63865399360657	pulse	1	t		56.0	2.5	blank	1.0	292.4816138744354	
58	258.55524230003357	fix_post	2		12	56.0	2.5	blank	1.0	293.3982021808624	0.10003304481506348
59	258.65527534484863	fix_pre	0		120	57.0	2.5	/experiments/Knapen_AOT/AOT_stimuli/rescaled_final/2025_fw.mp4	0.0	293.4982352256775	1.0084750652313232
59	259.2388880252838	pulse	0	t		57.0	2.5	/experiments/Knapen_AOT/AOT_stimuli/rescaled_final/2025_fw.mp4	0.0	294.08184790611267	
59	259.66375041007996	movie	1		275	57.0	2.5	/experiments/Knapen_AOT/AOT_stimuli/rescaled_final/2025_fw.mp4	0.0	294.5067102909088	2.4920494556427
59	260.8375322818756	pulse	1	t		57.0	2.5	/experiments/Knapen_AOT/AOT_stimuli/rescaled_final/2025_fw.mp4	0.0	295.68049216270447	
59	262.15579986572266	fix_post	2		12	57.0	2.5	/experiments/Knapen_AOT/AOT_stimuli/rescaled_final/2025_fw.mp4	0.0	296.9987597465515	0.10001468658447266
60	262.25581455230713	fix_pre	0		120	58.0	2.5	/experiments/Knapen_AOT/AOT_stimuli/rescaled_final/0884_fw.mp4	0.0	297.098774433136	1.0084798336029053
60	262.4394176006317	pulse	0	t		58.0	2.5	/experiments/Knapen_AOT/AOT_stimuli/rescaled_final/0884_fw.mp4	0.0	297.28237748146057	
60	263.26429438591003	movie	1		282	58.0	2.5	/experiments/Knapen_AOT/AOT_stimuli/rescaled_final/0884_fw.mp4	0.0	298.1072542667389	2.4920122623443604
60	264.03780245780945	pulse	1	t		58.0	2.5	/experiments/Knapen_AOT/AOT_stimuli/rescaled_final/0884_fw.mp4	0.0	298.8807623386383	
60	265.63794016838074	pulse	1	t		58.0	2.5	/experiments/Knapen_AOT/AOT_stimuli/rescaled_final/0884_fw.mp4	0.0	300.4809000492096	
60	265.7563066482544	fix_post	2		12	58.0	2.5	/experiments/Knapen_AOT/AOT_stimuli/rescaled_final/0884_fw.mp4	0.0	300.59926652908325	0.1000373363494873
61	265.8563439846039	fix_pre	0		120	59.0	2.5	/experiments/Knapen_AOT/AOT_stimuli/rescaled_final/0270_fw.mp4	0.0	300.69930386543274	1.0084595680236816
61	266.86480355262756	movie	1		269	59.0	2.5	/experiments/Knapen_AOT/AOT_stimuli/rescaled_final/0270_fw.mp4	0.0	301.7077634334564	2.49202036857605
61	267.2383875846863	pulse	1	t		59.0	2.5	/experiments/Knapen_AOT/AOT_stimuli/rescaled_final/0270_fw.mp4	0.0	302.08134746551514	
61	268.83829951286316	pulse	1	t		59.0	2.5	/experiments/Knapen_AOT/AOT_stimuli/rescaled_final/0270_fw.mp4	0.0	303.681259393692	
61	269.3568239212036	fix_post	2		12	59.0	2.5	/experiments/Knapen_AOT/AOT_stimuli/rescaled_final/0270_fw.mp4	0.0	304.19978380203247	0.10005545616149902
62	269.4568793773651	fix_pre	0		119	60.0	2.5	/experiments/Knapen_AOT/AOT_stimuli/rescaled_final/0086_fw.mp4	0.0	304.29983925819397	1.0002613067626953
62	270.44060015678406	pulse	0	t		60.0	2.5	/experiments/Knapen_AOT/AOT_stimuli/rescaled_final/0086_fw.mp4	0.0	305.2835600376129	
62	270.4571406841278	movie	1		268	60.0	2.5	/experiments/Knapen_AOT/AOT_stimuli/rescaled_final/0086_fw.mp4	0.0	305.30010056495667	2.500261068344116
62	272.0392208099365	pulse	1	t		60.0	2.5	/experiments/Knapen_AOT/AOT_stimuli/rescaled_final/0086_fw.mp4	0.0	306.8821806907654	
62	272.9574017524719	fix_post	2		12	60.0	2.5	/experiments/Knapen_AOT/AOT_stimuli/rescaled_final/0086_fw.mp4	0.0	307.8003616333008	0.10001468658447266
63	273.0574164390564	fix_pre	0		120	61.0	2.5	/experiments/Knapen_AOT/AOT_stimuli/rescaled_final/0399_fw.mp4	0.0	307.90037631988525	1.0085303783416748
63	273.64110684394836	pulse	0	t		61.0	2.5	/experiments/Knapen_AOT/AOT_stimuli/rescaled_final/0399_fw.mp4	0.0	308.4840667247772	
63	274.06594681739807	movie	1		285	61.0	2.5	/experiments/Knapen_AOT/AOT_stimuli/rescaled_final/0399_fw.mp4	0.0	308.90890669822693	2.4920175075531006
63	275.23973417282104	pulse	1	t		61.0	2.5	/experiments/Knapen_AOT/AOT_stimuli/rescaled_final/0399_fw.mp4	0.0	310.0826940536499	
63	276.5579643249512	fix_post	2		12	61.0	2.5	/experiments/Knapen_AOT/AOT_stimuli/rescaled_final/0399_fw.mp4	0.0	311.40092420578003	0.1000211238861084
64	276.6579854488373	fix_pre	0		120	62.0	2.5	/experiments/Knapen_AOT/AOT_stimuli/rescaled_final/0995_rv.mp4	0.0	311.50094532966614	1.008519172668457
64	276.84154415130615	pulse	0	t		62.0	2.5	/experiments/Knapen_AOT/AOT_stimuli/rescaled_final/0995_rv.mp4	0.0	311.684504032135	
64	277.66650462150574	movie	1		276	62.0	2.5	/experiments/Knapen_AOT/AOT_stimuli/rescaled_final/0995_rv.mp4	0.0	312.5094645023346	2.491968870162964
64	278.43987226486206	pulse	1	t		62.0	2.5	/experiments/Knapen_AOT/AOT_stimuli/rescaled_final/0995_rv.mp4	0.0	313.2828321456909	
64	280.0421223640442	pulse	1	t		62.0	2.5	/experiments/Knapen_AOT/AOT_stimuli/rescaled_final/0995_rv.mp4	0.0	314.88508224487305	
64	280.1584734916687	fix_post	2		12	62.0	2.5	/experiments/Knapen_AOT/AOT_stimuli/rescaled_final/0995_rv.mp4	0.0	315.00143337249756	0.10008668899536133
65	280.25856018066406	fix_pre	0		120	63.0	2.5	blank	1.0	315.1015200614929	1.0001115798950195
65	281.2586717605591	movie	1		300	63.0	2.5	blank	1.0	316.10163164138794	2.5003459453582764
65	281.64227080345154	pulse	1	t		63.0	2.5	blank	1.0	316.4852306842804	
65	283.2425317764282	pulse	1	t		63.0	2.5	blank	1.0	318.0854916572571	
65	283.75901770591736	fix_post	2		12	63.0	2.5	blank	1.0	318.6019775867462	0.10004281997680664
66	283.85906052589417	fix_pre	0		119	64.0	2.5	/experiments/Knapen_AOT/AOT_stimuli/rescaled_final/0627_rv.mp4	0.0	318.702020406723	1.0001468658447266
66	284.8427677154541	pulse	0	t		64.0	2.5	/experiments/Knapen_AOT/AOT_stimuli/rescaled_final/0627_rv.mp4	0.0	319.68572759628296	
66	284.8592073917389	movie	1		268	64.0	2.5	/experiments/Knapen_AOT/AOT_stimuli/rescaled_final/0627_rv.mp4	0.0	319.70216727256775	2.5003626346588135
66	286.4420986175537	pulse	1	t		64.0	2.5	/experiments/Knapen_AOT/AOT_stimuli/rescaled_final/0627_rv.mp4	0.0	321.28505849838257	
66	287.3595700263977	fix_post	2		12	64.0	2.5	/experiments/Knapen_AOT/AOT_stimuli/rescaled_final/0627_rv.mp4	0.0	322.20252990722656	0.10001921653747559
67	287.4595892429352	fix_pre	0		120	65.0	2.5	/experiments/Knapen_AOT/AOT_stimuli/rescaled_final/0477_fw.mp4	0.0	322.30254912376404	1.0084929466247559
67	288.0432848930359	pulse	0	t		65.0	2.5	/experiments/Knapen_AOT/AOT_stimuli/rescaled_final/0477_fw.mp4	0.0	322.88624477386475	
67	288.46808218955994	movie	1		267	65.0	2.5	/experiments/Knapen_AOT/AOT_stimuli/rescaled_final/0477_fw.mp4	0.0	323.3110420703888	2.4920263290405273
67	289.6433484554291	pulse	1	t		65.0	2.5	/experiments/Knapen_AOT/AOT_stimuli/rescaled_final/0477_fw.mp4	0.0	324.48630833625793	
67	290.96010851860046	fix_post	2		12	65.0	2.5	/experiments/Knapen_AOT/AOT_stimuli/rescaled_final/0477_fw.mp4	0.0	325.8030683994293	0.1000363826751709
68	291.06014490127563	fix_pre	0		120	66.0	2.5	/experiments/Knapen_AOT/AOT_stimuli/rescaled_final/0349_fw.mp4	0.0	325.9031047821045	1.0084872245788574
68	291.2437901496887	pulse	0	t		66.0	2.5	/experiments/Knapen_AOT/AOT_stimuli/rescaled_final/0349_fw.mp4	0.0	326.0867500305176	
68	292.0686321258545	movie	1		288	66.0	2.5	/experiments/Knapen_AOT/AOT_stimuli/rescaled_final/0349_fw.mp4	0.0	326.91159200668335	2.492017984390259
68	292.8419072628021	pulse	1	t		66.0	2.5	/experiments/Knapen_AOT/AOT_stimuli/rescaled_final/0349_fw.mp4	0.0	327.684867143631	
68	294.44206714630127	pulse	1	t		66.0	2.5	/experiments/Knapen_AOT/AOT_stimuli/rescaled_final/0349_fw.mp4	0.0	329.2850270271301	
68	294.56065011024475	fix_post	2		12	66.0	2.5	/experiments/Knapen_AOT/AOT_stimuli/rescaled_final/0349_fw.mp4	0.0	329.4036099910736	0.09998250007629395
69	294.66063261032104	fix_pre	0		120	67.0	2.5	/experiments/Knapen_AOT/AOT_stimuli/rescaled_final/1747_rv.mp4	0.0	329.5035924911499	1.0085382461547852
69	295.66917085647583	movie	1		286	67.0	2.5	/experiments/Knapen_AOT/AOT_stimuli/rescaled_final/1747_rv.mp4	0.0	330.5121307373047	2.4921038150787354
69	296.04287672042847	pulse	1	t		67.0	2.5	/experiments/Knapen_AOT/AOT_stimuli/rescaled_final/1747_rv.mp4	0.0	330.8858366012573	
69	297.6426455974579	pulse	1	t		67.0	2.5	/experiments/Knapen_AOT/AOT_stimuli/rescaled_final/1747_rv.mp4	0.0	332.48560547828674	
69	298.16127467155457	fix_post	2		12	67.0	2.5	/experiments/Knapen_AOT/AOT_stimuli/rescaled_final/1747_rv.mp4	0.0	333.0042345523834	0.09994840621948242
70	298.26122307777405	fix_pre	0		118	68.0	2.5	/experiments/Knapen_AOT/AOT_stimuli/rescaled_final/0838_fw.mp4	0.0	333.1041829586029	0.9917995929718018
70	299.2367534637451	pulse	0	t		68.0	2.5	/experiments/Knapen_AOT/AOT_stimuli/rescaled_final/0838_fw.mp4	0.0	334.079713344574	
70	299.25302267074585	movie	1		280	68.0	2.5	/experiments/Knapen_AOT/AOT_stimuli/rescaled_final/0838_fw.mp4	0.0	334.0959825515747	2.5003769397735596
70	300.84591245651245	pulse	1	t		68.0	2.5	/experiments/Knapen_AOT/AOT_stimuli/rescaled_final/0838_fw.mp4	0.0	335.6888723373413	
70	301.7533996105194	fix_post	2		12	68.0	2.5	/experiments/Knapen_AOT/AOT_stimuli/rescaled_final/0838_fw.mp4	0.0	336.59635949134827	0.10003876686096191
71	301.85343837738037	fix_pre	0		120	69.0	2.5	blank	1.0	336.69639825820923	1.0001718997955322
71	302.4371199607849	pulse	0	t		69.0	2.5	blank	1.0	337.28007984161377	
71	302.8536102771759	movie	1		300	69.0	2.5	blank	1.0	337.69657015800476	2.5003421306610107
71	304.03750252723694	pulse	1	t		69.0	2.5	blank	1.0	338.8804624080658	
71	305.3539524078369	fix_post	2		12	69.0	2.5	blank	1.0	340.19691228866577	0.09997081756591797
72	305.45392322540283	fix_pre	0		120	70.0	2.5	/experiments/Knapen_AOT/AOT_stimuli/rescaled_final/2146_fw.mp4	0.0	340.2968831062317	1.0085246562957764
72	305.63746190071106	pulse	0	t		70.0	2.5	/experiments/Knapen_AOT/AOT_stimuli/rescaled_final/2146_fw.mp4	0.0	340.4804217815399	
72	306.4624478816986	movie	1		279	70.0	2.5	/experiments/Knapen_AOT/AOT_stimuli/rescaled_final/2146_fw.mp4	0.0	341.30540776252747	2.4920308589935303
72	307.2377290725708	pulse	1	t		70.0	2.5	/experiments/Knapen_AOT/AOT_stimuli/rescaled_final/2146_fw.mp4	0.0	342.08068895339966	
72	308.83802366256714	pulse	1	t		70.0	2.5	/experiments/Knapen_AOT/AOT_stimuli/rescaled_final/2146_fw.mp4	0.0	343.680983543396	
72	308.95447874069214	fix_post	2		12	70.0	2.5	/experiments/Knapen_AOT/AOT_stimuli/rescaled_final/2146_fw.mp4	0.0	343.797438621521	0.10003042221069336
73	309.05450916290283	fix_pre	0		120	71.0	2.5	/experiments/Knapen_AOT/AOT_stimuli/rescaled_final/1340_fw.mp4	0.0	343.8974690437317	1.0084922313690186
73	310.06300139427185	movie	1		267	71.0	2.5	/experiments/Knapen_AOT/AOT_stimuli/rescaled_final/1340_fw.mp4	0.0	344.9059612751007	2.4920222759246826
73	310.43677616119385	pulse	1	t		71.0	2.5	/experiments/Knapen_AOT/AOT_stimuli/rescaled_final/1340_fw.mp4	0.0	345.2797360420227	
73	312.03857588768005	pulse	1	t		71.0	2.5	/experiments/Knapen_AOT/AOT_stimuli/rescaled_final/1340_fw.mp4	0.0	346.8815357685089	
73	312.55502367019653	fix_post	2		12	71.0	2.5	/experiments/Knapen_AOT/AOT_stimuli/rescaled_final/1340_fw.mp4	0.0	347.3979835510254	0.10008358955383301
74	312.65510725975037	fix_pre	0		119	72.0	2.5	/experiments/Knapen_AOT/AOT_stimuli/rescaled_final/1741_rv.mp4	0.0	347.4980671405792	1.00010347366333
74	313.63881397247314	pulse	0	t		72.0	2.5	/experiments/Knapen_AOT/AOT_stimuli/rescaled_final/1741_rv.mp4	0.0	348.481773853302	
74	313.6552107334137	movie	1		286	72.0	2.5	/experiments/Knapen_AOT/AOT_stimuli/rescaled_final/1741_rv.mp4	0.0	348.49817061424255	2.5003576278686523
74	315.23747658729553	pulse	1	t		72.0	2.5	/experiments/Knapen_AOT/AOT_stimuli/rescaled_final/1741_rv.mp4	0.0	350.0804364681244	
74	316.15556836128235	fix_post	2		12	72.0	2.5	/experiments/Knapen_AOT/AOT_stimuli/rescaled_final/1741_rv.mp4	0.0	350.9985282421112	0.10002684593200684
75	316.25559520721436	fix_pre	0		120	73.0	2.5	/experiments/Knapen_AOT/AOT_stimuli/rescaled_final/0788_fw.mp4	0.0	351.0985550880432	1.008493185043335
75	316.839213848114	pulse	0	t		73.0	2.5	/experiments/Knapen_AOT/AOT_stimuli/rescaled_final/0788_fw.mp4	0.0	351.68217372894287	
75	317.2640883922577	movie	1		282	73.0	2.5	/experiments/Knapen_AOT/AOT_stimuli/rescaled_final/0788_fw.mp4	0.0	352.10704827308655	2.492050886154175
75	318.4380397796631	pulse	1	t		73.0	2.5	/experiments/Knapen_AOT/AOT_stimuli/rescaled_final/0788_fw.mp4	0.0	353.28099966049194	
75	319.75613927841187	fix_post	2		12	73.0	2.5	/experiments/Knapen_AOT/AOT_stimuli/rescaled_final/0788_fw.mp4	0.0	354.5990991592407	0.09998559951782227
76	319.8561248779297	fix_pre	0		120	74.0	2.5	/experiments/Knapen_AOT/AOT_stimuli/rescaled_final/2086_rv.mp4	0.0	354.69908475875854	1.0085959434509277
76	320.04007863998413	pulse	0	t		74.0	2.5	/experiments/Knapen_AOT/AOT_stimuli/rescaled_final/2086_rv.mp4	0.0	354.883038520813	
76	320.8647208213806	movie	1		281	74.0	2.5	/experiments/Knapen_AOT/AOT_stimuli/rescaled_final/2086_rv.mp4	0.0	355.7076807022095	2.4919188022613525
76	321.637574672699	pulse	1	t		74.0	2.5	/experiments/Knapen_AOT/AOT_stimuli/rescaled_final/2086_rv.mp4	0.0	356.48053455352783	
76	323.23978877067566	pulse	1	t		74.0	2.5	/experiments/Knapen_AOT/AOT_stimuli/rescaled_final/2086_rv.mp4	0.0	358.0827486515045	
76	323.35663962364197	fix_post	2		12	74.0	2.5	/experiments/Knapen_AOT/AOT_stimuli/rescaled_final/2086_rv.mp4	0.0	358.1995995044708	0.10002946853637695
77	323.45666909217834	fix_pre	0		120	75.0	2.5	/experiments/Knapen_AOT/AOT_stimuli/rescaled_final/1441_rv.mp4	0.0	358.2996289730072	1.0085515975952148
77	324.46522068977356	movie	1		285	75.0	2.5	/experiments/Knapen_AOT/AOT_stimuli/rescaled_final/1441_rv.mp4	0.0	359.3081805706024	2.491978883743286
77	324.83874249458313	pulse	1	t		75.0	2.5	/experiments/Knapen_AOT/AOT_stimuli/rescaled_final/1441_rv.mp4	0.0	359.681702375412	
77	326.44015622138977	pulse	1	t		75.0	2.5	/experiments/Knapen_AOT/AOT_stimuli/rescaled_final/1441_rv.mp4	0.0	361.2831161022186	
77	326.95719957351685	fix_post	2		12	75.0	2.5	/experiments/Knapen_AOT/AOT_stimuli/rescaled_final/1441_rv.mp4	0.0	361.8001594543457	0.10001087188720703
78	327.05721044540405	fix_pre	0		119	76.0	2.5	/experiments/Knapen_AOT/AOT_stimuli/rescaled_final/1606_rv.mp4	0.0	361.9001703262329	1.0001978874206543
78	328.0409779548645	pulse	0	t		76.0	2.5	/experiments/Knapen_AOT/AOT_stimuli/rescaled_final/1606_rv.mp4	0.0	362.88393783569336	
78	328.0574083328247	movie	1		282	76.0	2.5	/experiments/Knapen_AOT/AOT_stimuli/rescaled_final/1606_rv.mp4	0.0	362.90036821365356	2.500321865081787
78	329.64037799835205	pulse	1	t		76.0	2.5	/experiments/Knapen_AOT/AOT_stimuli/rescaled_final/1606_rv.mp4	0.0	364.4833378791809	
78	330.5577301979065	fix_post	2		12	76.0	2.5	/experiments/Knapen_AOT/AOT_stimuli/rescaled_final/1606_rv.mp4	0.0	365.40069007873535	0.10001277923583984
79	330.65774297714233	fix_pre	0		120	77.0	2.5	blank	1.0	365.5007028579712	1.0001842975616455
79	331.2416868209839	pulse	0	t		77.0	2.5	blank	1.0	366.08464670181274	
79	331.657927274704	movie	1		300	77.0	2.5	blank	1.0	366.50088715553284	2.5003583431243896
79	332.841854095459	pulse	1	t		77.0	2.5	blank	1.0	367.68481397628784	
79	334.15828561782837	fix_post	2		12	77.0	2.5	blank	1.0	369.0012454986572	0.1000528335571289
80	334.2583384513855	fix_pre	0		120	78.0	2.5	/experiments/Knapen_AOT/AOT_stimuli/rescaled_final/0505_rv.mp4	0.0	369.10129833221436	1.00846266746521
80	334.44179677963257	pulse	0	t		78.0	2.5	/experiments/Knapen_AOT/AOT_stimuli/rescaled_final/0505_rv.mp4	0.0	369.2847566604614	
80	335.2668011188507	movie	1		274	78.0	2.5	/experiments/Knapen_AOT/AOT_stimuli/rescaled_final/0505_rv.mp4	0.0	370.10976099967957	2.4921250343322754
80	336.04045057296753	pulse	1	t		78.0	2.5	/experiments/Knapen_AOT/AOT_stimuli/rescaled_final/0505_rv.mp4	0.0	370.8834104537964	
80	337.64026641845703	pulse	1	t		78.0	2.5	/experiments/Knapen_AOT/AOT_stimuli/rescaled_final/0505_rv.mp4	0.0	372.4832262992859	
80	337.758926153183	fix_post	2		12	78.0	2.5	/experiments/Knapen_AOT/AOT_stimuli/rescaled_final/0505_rv.mp4	0.0	372.60188603401184	0.09998559951782227
81	337.8589117527008	fix_pre	0		120	79.0	2.5	/experiments/Knapen_AOT/AOT_stimuli/rescaled_final/2026_rv.mp4	0.0	372.70187163352966	1.0083906650543213
81	338.8673024177551	movie	1		270	79.0	2.5	/experiments/Knapen_AOT/AOT_stimuli/rescaled_final/2026_rv.mp4	0.0	373.710262298584	2.4920642375946045
81	339.2427763938904	pulse	1	t		79.0	2.5	/experiments/Knapen_AOT/AOT_stimuli/rescaled_final/2026_rv.mp4	0.0	374.08573627471924	
81	340.84092831611633	pulse	1	t		79.0	2.5	/experiments/Knapen_AOT/AOT_stimuli/rescaled_final/2026_rv.mp4	0.0	375.6838881969452	
81	341.35936665534973	fix_post	2		12	79.0	2.5	/experiments/Knapen_AOT/AOT_stimuli/rescaled_final/2026_rv.mp4	0.0	376.2023265361786	0.10000205039978027
82	341.4593687057495	fix_pre	0		119	80.0	2.5	/experiments/Knapen_AOT/AOT_stimuli/rescaled_final/0673_rv.mp4	0.0	376.30232858657837	1.0001702308654785
82	342.443067073822	pulse	0	t		80.0	2.5	/experiments/Knapen_AOT/AOT_stimuli/rescaled_final/0673_rv.mp4	0.0	377.2860269546509	
82	342.459538936615	movie	1		278	80.0	2.5	/experiments/Knapen_AOT/AOT_stimuli/rescaled_final/0673_rv.mp4	0.0	377.30249881744385	2.500361680984497
82	344.0422203540802	pulse	1	t		80.0	2.5	/experiments/Knapen_AOT/AOT_stimuli/rescaled_final/0673_rv.mp4	0.0	378.88518023490906	
82	344.9599006175995	fix_post	2		12	80.0	2.5	/experiments/Knapen_AOT/AOT_stimuli/rescaled_final/0673_rv.mp4	0.0	379.80286049842834	0.10002660751342773
83	345.0599272251129	fix_pre	0		120	81.0	2.5	/experiments/Knapen_AOT/AOT_stimuli/rescaled_final/1906_rv.mp4	0.0	379.9028871059418	1.008530855178833
83	345.6435430049896	pulse	0	t		81.0	2.5	/experiments/Knapen_AOT/AOT_stimuli/rescaled_final/1906_rv.mp4	0.0	380.4865028858185	
83	346.06845808029175	movie	1		283	81.0	2.5	/experiments/Knapen_AOT/AOT_stimuli/rescaled_final/1906_rv.mp4	0.0	380.9114179611206	2.492029905319214
83	347.2421073913574	pulse	1	t		81.0	2.5	/experiments/Knapen_AOT/AOT_stimuli/rescaled_final/1906_rv.mp4	0.0	382.0850672721863	
83	348.56048798561096	fix_post	2		12	81.0	2.5	/experiments/Knapen_AOT/AOT_stimuli/rescaled_final/1906_rv.mp4	0.0	383.4034478664398	0.09997415542602539
84	348.660462141037	fix_pre	0		120	82.0	2.5	/experiments/Knapen_AOT/AOT_stimuli/rescaled_final/1296_fw.mp4	0.0	383.50342202186584	1.00850248336792
84	348.84400844573975	pulse	0	t		82.0	2.5	/experiments/Knapen_AOT/AOT_stimuli/rescaled_final/1296_fw.mp4	0.0	383.6869683265686	
84	349.6689646244049	movie	1		274	82.0	2.5	/experiments/Knapen_AOT/AOT_stimuli/rescaled_final/1296_fw.mp4	0.0	384.51192450523376	2.492011547088623
84	350.4427671432495	pulse	1	t		82.0	2.5	/experiments/Knapen_AOT/AOT_stimuli/rescaled_final/1296_fw.mp4	0.0	385.28572702407837	
84	352.0423743724823	pulse	1	t		82.0	2.5	/experiments/Knapen_AOT/AOT_stimuli/rescaled_final/1296_fw.mp4	0.0	386.88533425331116	
84	352.16097617149353	fix_post	2		12	82.0	2.5	/experiments/Knapen_AOT/AOT_stimuli/rescaled_final/1296_fw.mp4	0.0	387.0039360523224	0.10009622573852539
85	352.26107239723206	fix_pre	0		120	83.0	2.5	blank	1.0	387.1040322780609	1.000077724456787
85	353.26115012168884	movie	1		300	83.0	2.5	blank	1.0	388.1041100025177	2.500394582748413
85	353.6390817165375	pulse	1	t		83.0	2.5	blank	1.0	388.48204159736633	
85	355.2376341819763	pulse	1	t		83.0	2.5	blank	1.0	390.0805940628052	
85	355.76154470443726	fix_post	2		11	83.0	2.5	blank	1.0	390.6045045852661	0.10003209114074707
87	355.861576795578	stim	0		1715					390.70453667640686	14.293827533721924
87	356.83730936050415	pulse	0	t						391.680269241333	
87	358.43734884262085	pulse	0	t						393.2803087234497	
87	360.0373978614807	pulse	0	t						394.88035774230957	
87	361.63770937919617	pulse	0	t						396.480669260025	
87	363.237900018692	pulse	0	t						398.0808598995209	
87	364.8384518623352	pulse	0	t						399.68141174316406	
87	366.43834495544434	pulse	0	t						401.2813048362732	
87	368.03887009620667	pulse	0	t						402.8818299770355	
87	369.63887095451355	pulse	0	t						404.4818308353424	
