trial_nr	onset	event_type	phase	response	nr_frames	movie_index	movie_duration	movie_file	blank	onset_abs	duration
0	0.2082059383392334	stim	0		197					91.90572500228882	1.6418850421905518
0	1.842160940170288	response	0	space						93.53968000411987	
1	1.8500909805297852	stim	0		4456					93.54761004447937	37.151670932769775
1	38.98675799369812	pulse	0	t						130.6842770576477	
1	39.00176191329956	stim	1		1715					130.69928097724915	14.297722101211548
1	40.581050872802734	pulse	1	t						132.27856993675232	
1	42.181390047073364	pulse	1	t						133.87890911102295	
1	43.78146505355835	pulse	1	t						135.47898411750793	
1	45.381852865219116	pulse	1	t						137.0793719291687	
1	46.982012033462524	pulse	1	t						138.6795310974121	
1	48.582207918167114	pulse	1	t						140.2797269821167	
1	50.18242001533508	pulse	1	t						141.87993907928467	
1	51.78279495239258	pulse	1	t						143.48031401634216	
2	53.29948401451111	fix_pre	0		11	0.0	2.5	/experiments/knapen_AOT/AOT_stimuli/rescaled_final/1699_rv.mp4	0.0	144.9970030784607	0.10005998611450195
2	53.38297200202942	pulse	0	t		0.0	2.5	/experiments/knapen_AOT/AOT_stimuli/rescaled_final/1699_rv.mp4	0.0	145.080491065979	
2	53.39954400062561	movie	1		243	0.0	2.5	/experiments/knapen_AOT/AOT_stimuli/rescaled_final/1699_rv.mp4	0.0	145.0970630645752	2.500262975692749
2	54.983940839767456	pulse	1	t		0.0	2.5	/experiments/knapen_AOT/AOT_stimuli/rescaled_final/1699_rv.mp4	0.0	146.68145990371704	
2	55.89980697631836	fix_post	2		12	0.0	2.5	/experiments/knapen_AOT/AOT_stimuli/rescaled_final/1699_rv.mp4	0.0	147.59732604026794	0.1000208854675293
3	55.99982786178589	fix_pre	0		120	1.0	2.5	/experiments/knapen_AOT/AOT_stimuli/rescaled_final/0971_rv.mp4	0.0	147.69734692573547	1.0001590251922607
3	56.58340382575989	pulse	0	t		1.0	2.5	/experiments/knapen_AOT/AOT_stimuli/rescaled_final/0971_rv.mp4	0.0	148.28092288970947	
3	56.99998688697815	movie	1		244	1.0	2.5	/experiments/knapen_AOT/AOT_stimuli/rescaled_final/0971_rv.mp4	0.0	148.69750595092773	2.500349998474121
3	58.17660188674927	pulse	1	t		1.0	2.5	/experiments/knapen_AOT/AOT_stimuli/rescaled_final/0971_rv.mp4	0.0	149.87412095069885	
3	59.50033688545227	fix_post	2		12	1.0	2.5	/experiments/knapen_AOT/AOT_stimuli/rescaled_final/0971_rv.mp4	0.0	151.19785594940186	0.10002017021179199
4	59.60035705566406	fix_pre	0		120	2.0	2.5	/experiments/knapen_AOT/AOT_stimuli/rescaled_final/0613_fw.mp4	0.0	151.29787611961365	1.000175952911377
4	59.7840359210968	pulse	0	t		2.0	2.5	/experiments/knapen_AOT/AOT_stimuli/rescaled_final/0613_fw.mp4	0.0	151.4815549850464	
4	60.60053300857544	movie	1		243	2.0	2.5	/experiments/knapen_AOT/AOT_stimuli/rescaled_final/0613_fw.mp4	0.0	152.29805207252502	2.5003409385681152
4	61.37699604034424	pulse	1	t		2.0	2.5	/experiments/knapen_AOT/AOT_stimuli/rescaled_final/0613_fw.mp4	0.0	153.07451510429382	
4	62.984195947647095	pulse	1	t		2.0	2.5	/experiments/knapen_AOT/AOT_stimuli/rescaled_final/0613_fw.mp4	0.0	154.68171501159668	
4	63.100873947143555	fix_post	2		12	2.0	2.5	/experiments/knapen_AOT/AOT_stimuli/rescaled_final/0613_fw.mp4	0.0	154.79839301109314	0.10001993179321289
5	63.20089387893677	fix_pre	0		117	3.0	2.5	/experiments/knapen_AOT/AOT_stimuli/rescaled_final/1820_rv.mp4	0.0	154.89841294288635	1.0001790523529053
5	64.20107293128967	movie	1		243	3.0	2.5	/experiments/knapen_AOT/AOT_stimuli/rescaled_final/1820_rv.mp4	0.0	155.89859199523926	2.492000102996826
5	64.58522391319275	pulse	1	t		3.0	2.5	/experiments/knapen_AOT/AOT_stimuli/rescaled_final/1820_rv.mp4	0.0	156.28274297714233	
5	66.17744588851929	pulse	1	t		3.0	2.5	/experiments/knapen_AOT/AOT_stimuli/rescaled_final/1820_rv.mp4	0.0	157.87496495246887	
5	66.6930730342865	fix_post	2		12	3.0	2.5	/experiments/knapen_AOT/AOT_stimuli/rescaled_final/1820_rv.mp4	0.0	158.39059209823608	0.10002589225769043
6	66.79309892654419	fix_pre	0		119	4.0	2.5	/experiments/knapen_AOT/AOT_stimuli/rescaled_final/1621_fw.mp4	0.0	158.49061799049377	0.9918019771575928
6	67.77679300308228	pulse	0	t		4.0	2.5	/experiments/knapen_AOT/AOT_stimuli/rescaled_final/1621_fw.mp4	0.0	159.47431206703186	
6	67.78490090370178	movie	1		244	4.0	2.5	/experiments/knapen_AOT/AOT_stimuli/rescaled_final/1621_fw.mp4	0.0	159.48241996765137	2.5087549686431885
6	69.37812495231628	pulse	1	t		4.0	2.5	/experiments/knapen_AOT/AOT_stimuli/rescaled_final/1621_fw.mp4	0.0	161.07564401626587	
6	70.29365587234497	fix_post	2		12	4.0	2.5	/experiments/knapen_AOT/AOT_stimuli/rescaled_final/1621_fw.mp4	0.0	161.99117493629456	0.10001206398010254
7	70.39366793632507	fix_pre	0		120	5.0	2.5	/experiments/knapen_AOT/AOT_stimuli/rescaled_final/0517_fw.mp4	0.0	162.09118700027466	1.0001308917999268
7	70.97721886634827	pulse	0	t		5.0	2.5	/experiments/knapen_AOT/AOT_stimuli/rescaled_final/0517_fw.mp4	0.0	162.67473793029785	
7	71.393798828125	movie	1		244	5.0	2.5	/experiments/knapen_AOT/AOT_stimuli/rescaled_final/0517_fw.mp4	0.0	163.09131789207458	2.500343084335327
7	72.57751083374023	pulse	1	t		5.0	2.5	/experiments/knapen_AOT/AOT_stimuli/rescaled_final/0517_fw.mp4	0.0	164.27502989768982	
7	73.89414191246033	fix_post	2		12	5.0	2.5	/experiments/knapen_AOT/AOT_stimuli/rescaled_final/0517_fw.mp4	0.0	165.5916609764099	0.10003209114074707
8	73.99417400360107	fix_pre	0		120	6.0	2.5	/experiments/knapen_AOT/AOT_stimuli/rescaled_final/0839_fw.mp4	0.0	165.69169306755066	1.0001640319824219
8	74.17786288261414	pulse	0	t		6.0	2.5	/experiments/knapen_AOT/AOT_stimuli/rescaled_final/0839_fw.mp4	0.0	165.87538194656372	
8	74.9943380355835	movie	1		246	6.0	2.5	/experiments/knapen_AOT/AOT_stimuli/rescaled_final/0839_fw.mp4	0.0	166.69185709953308	2.500372886657715
8	75.77809286117554	pulse	1	t		6.0	2.5	/experiments/knapen_AOT/AOT_stimuli/rescaled_final/0839_fw.mp4	0.0	167.47561192512512	
8	77.37840294837952	pulse	1	t		6.0	2.5	/experiments/knapen_AOT/AOT_stimuli/rescaled_final/0839_fw.mp4	0.0	169.0759220123291	
8	77.49471092224121	fix_post	2		12	6.0	2.5	/experiments/knapen_AOT/AOT_stimuli/rescaled_final/0839_fw.mp4	0.0	169.1922299861908	0.10002303123474121
9	77.59473395347595	fix_pre	0		120	7.0	2.5	blank	1.0	169.29225301742554	1.0001189708709717
9	78.59485292434692	movie	1		299	7.0	2.5	blank	1.0	170.2923719882965	2.4920730590820312
9	78.97838497161865	pulse	1	t		7.0	2.5	blank	1.0	170.67590403556824	
9	80.57878994941711	pulse	1	t		7.0	2.5	blank	1.0	172.2763090133667	
9	81.08692598342896	fix_post	2		12	7.0	2.5	blank	1.0	172.78444504737854	0.1000518798828125
10	81.18697786331177	fix_pre	0		120	8.0	2.5	/experiments/knapen_AOT/AOT_stimuli/rescaled_final/1790_rv.mp4	0.0	172.88449692726135	1.0001041889190674
10	82.17903804779053	pulse	0	t		8.0	2.5	/experiments/knapen_AOT/AOT_stimuli/rescaled_final/1790_rv.mp4	0.0	173.8765571117401	
10	82.18708205223083	movie	1		245	8.0	2.5	/experiments/knapen_AOT/AOT_stimuli/rescaled_final/1790_rv.mp4	0.0	173.88460111618042	2.508671998977661
10	83.77983498573303	pulse	1	t		8.0	2.5	/experiments/knapen_AOT/AOT_stimuli/rescaled_final/1790_rv.mp4	0.0	175.47735404968262	
10	84.6957540512085	fix_post	2		12	8.0	2.5	/experiments/knapen_AOT/AOT_stimuli/rescaled_final/1790_rv.mp4	0.0	176.39327311515808	0.10003399848937988
11	84.79578804969788	fix_pre	0		120	9.0	2.5	/experiments/knapen_AOT/AOT_stimuli/rescaled_final/1054_rv.mp4	0.0	176.49330711364746	1.0001709461212158
11	85.37935495376587	pulse	0	t		9.0	2.5	/experiments/knapen_AOT/AOT_stimuli/rescaled_final/1054_rv.mp4	0.0	177.07687401771545	
11	85.79595899581909	movie	1		243	9.0	2.5	/experiments/knapen_AOT/AOT_stimuli/rescaled_final/1054_rv.mp4	0.0	177.49347805976868	2.5003249645233154
11	86.97969388961792	pulse	1	t		9.0	2.5	/experiments/knapen_AOT/AOT_stimuli/rescaled_final/1054_rv.mp4	0.0	178.6772129535675	
11	88.29628396034241	fix_post	2		12	9.0	2.5	/experiments/knapen_AOT/AOT_stimuli/rescaled_final/1054_rv.mp4	0.0	179.993803024292	0.10005807876586914
12	88.39634203910828	fix_pre	0		120	10.0	2.5	/experiments/knapen_AOT/AOT_stimuli/rescaled_final/0162_fw.mp4	0.0	180.09386110305786	1.0001349449157715
12	88.5799469947815	pulse	0	t		10.0	2.5	/experiments/knapen_AOT/AOT_stimuli/rescaled_final/0162_fw.mp4	0.0	180.27746605873108	
12	89.39647698402405	movie	1		244	10.0	2.5	/experiments/knapen_AOT/AOT_stimuli/rescaled_final/0162_fw.mp4	0.0	181.09399604797363	2.5003550052642822
12	90.18026304244995	pulse	1	t		10.0	2.5	/experiments/knapen_AOT/AOT_stimuli/rescaled_final/0162_fw.mp4	0.0	181.87778210639954	
12	91.78045392036438	pulse	1	t		10.0	2.5	/experiments/knapen_AOT/AOT_stimuli/rescaled_final/0162_fw.mp4	0.0	183.47797298431396	
12	91.89683198928833	fix_post	2		12	10.0	2.5	/experiments/knapen_AOT/AOT_stimuli/rescaled_final/0162_fw.mp4	0.0	183.59435105323792	0.10006403923034668
13	91.99689602851868	fix_pre	0		120	11.0	2.5	/experiments/knapen_AOT/AOT_stimuli/rescaled_final/1656_fw.mp4	0.0	183.69441509246826	1.000121831893921
13	92.9970178604126	movie	1		242	11.0	2.5	/experiments/knapen_AOT/AOT_stimuli/rescaled_final/1656_fw.mp4	0.0	184.69453692436218	2.492035150527954
13	93.3811469078064	pulse	1	t		11.0	2.5	/experiments/knapen_AOT/AOT_stimuli/rescaled_final/1656_fw.mp4	0.0	185.07866597175598	
13	94.9809000492096	pulse	1	t		11.0	2.5	/experiments/knapen_AOT/AOT_stimuli/rescaled_final/1656_fw.mp4	0.0	186.67841911315918	
13	95.48905301094055	fix_post	2		12	11.0	2.5	/experiments/knapen_AOT/AOT_stimuli/rescaled_final/1656_fw.mp4	0.0	187.18657207489014	0.10007381439208984
14	95.58912682533264	fix_pre	0		120	12.0	2.5	/experiments/knapen_AOT/AOT_stimuli/rescaled_final/0625_rv.mp4	0.0	187.28664588928223	1.0000970363616943
14	96.5811619758606	pulse	0	t		12.0	2.5	/experiments/knapen_AOT/AOT_stimuli/rescaled_final/0625_rv.mp4	0.0	188.27868103981018	
14	96.58922386169434	movie	1		244	12.0	2.5	/experiments/knapen_AOT/AOT_stimuli/rescaled_final/0625_rv.mp4	0.0	188.28674292564392	2.508714199066162
14	98.18200302124023	pulse	1	t		12.0	2.5	/experiments/knapen_AOT/AOT_stimuli/rescaled_final/0625_rv.mp4	0.0	189.87952208518982	
14	99.0979380607605	fix_post	2		12	12.0	2.5	/experiments/knapen_AOT/AOT_stimuli/rescaled_final/0625_rv.mp4	0.0	190.79545712471008	0.09998893737792969
15	99.19792699813843	fix_pre	0		120	13.0	2.5	/experiments/knapen_AOT/AOT_stimuli/rescaled_final/1970_fw.mp4	0.0	190.895446062088	1.000201940536499
15	99.78150200843811	pulse	0	t		13.0	2.5	/experiments/knapen_AOT/AOT_stimuli/rescaled_final/1970_fw.mp4	0.0	191.4790210723877	
15	100.19812893867493	movie	1		245	13.0	2.5	/experiments/knapen_AOT/AOT_stimuli/rescaled_final/1970_fw.mp4	0.0	191.8956480026245	2.500335931777954
15	101.38190793991089	pulse	1	t		13.0	2.5	/experiments/knapen_AOT/AOT_stimuli/rescaled_final/1970_fw.mp4	0.0	193.07942700386047	
15	102.69846487045288	fix_post	2		12	13.0	2.5	/experiments/knapen_AOT/AOT_stimuli/rescaled_final/1970_fw.mp4	0.0	194.39598393440247	0.10012316703796387
16	102.79858803749084	fix_pre	0		120	14.0	2.5	blank	1.0	194.49610710144043	1.0000219345092773
16	102.98214483261108	pulse	0	t		14.0	2.5	blank	1.0	194.67966389656067	
16	103.79860997200012	movie	1		300	14.0	2.5	blank	1.0	195.4961290359497	2.5003960132598877
16	104.58239698410034	pulse	1	t		14.0	2.5	blank	1.0	196.27991604804993	
16	106.18250894546509	pulse	1	t		14.0	2.5	blank	1.0	197.88002800941467	
16	106.29900598526001	fix_post	2		12	14.0	2.5	blank	1.0	197.9965250492096	0.10000395774841309
17	106.39900994300842	fix_pre	0		120	15.0	2.5	/experiments/knapen_AOT/AOT_stimuli/rescaled_final/1689_rv.mp4	0.0	198.096529006958	1.000133991241455
17	107.39914393424988	movie	1		245	15.0	2.5	/experiments/knapen_AOT/AOT_stimuli/rescaled_final/1689_rv.mp4	0.0	199.09666299819946	2.492047071456909
17	107.78332591056824	pulse	1	t		15.0	2.5	/experiments/knapen_AOT/AOT_stimuli/rescaled_final/1689_rv.mp4	0.0	199.48084497451782	
17	109.38307189941406	pulse	1	t		15.0	2.5	/experiments/knapen_AOT/AOT_stimuli/rescaled_final/1689_rv.mp4	0.0	201.08059096336365	
17	109.89119100570679	fix_post	2		12	15.0	2.5	/experiments/knapen_AOT/AOT_stimuli/rescaled_final/1689_rv.mp4	0.0	201.58871006965637	0.10000991821289062
18	109.99120092391968	fix_pre	0		120	16.0	2.5	/experiments/knapen_AOT/AOT_stimuli/rescaled_final/1495_fw.mp4	0.0	201.68871998786926	1.0001399517059326
18	110.98324298858643	pulse	0	t		16.0	2.5	/experiments/knapen_AOT/AOT_stimuli/rescaled_final/1495_fw.mp4	0.0	202.680762052536	
18	110.99134087562561	movie	1		245	16.0	2.5	/experiments/knapen_AOT/AOT_stimuli/rescaled_final/1495_fw.mp4	0.0	202.6888599395752	2.5088231563568115
18	112.5846529006958	pulse	1	t		16.0	2.5	/experiments/knapen_AOT/AOT_stimuli/rescaled_final/1495_fw.mp4	0.0	204.28217196464539	
18	113.50016403198242	fix_post	2		12	16.0	2.5	/experiments/knapen_AOT/AOT_stimuli/rescaled_final/1495_fw.mp4	0.0	205.197683095932	0.09991002082824707
19	113.60007405281067	fix_pre	0		120	17.0	2.5	/experiments/knapen_AOT/AOT_stimuli/rescaled_final/0086_fw.mp4	0.0	205.29759311676025	1.000175952911377
19	114.18369698524475	pulse	0	t		17.0	2.5	/experiments/knapen_AOT/AOT_stimuli/rescaled_final/0086_fw.mp4	0.0	205.88121604919434	
19	114.60025000572205	movie	1		243	17.0	2.5	/experiments/knapen_AOT/AOT_stimuli/rescaled_final/0086_fw.mp4	0.0	206.29776906967163	2.5003600120544434
19	115.78400802612305	pulse	1	t		17.0	2.5	/experiments/knapen_AOT/AOT_stimuli/rescaled_final/0086_fw.mp4	0.0	207.48152709007263	
19	117.10061001777649	fix_post	2		12	17.0	2.5	/experiments/knapen_AOT/AOT_stimuli/rescaled_final/0086_fw.mp4	0.0	208.79812908172607	0.10002303123474121
20	117.20063304901123	fix_pre	0		120	18.0	2.5	/experiments/knapen_AOT/AOT_stimuli/rescaled_final/1154_rv.mp4	0.0	208.89815211296082	1.000128984451294
20	117.38427805900574	pulse	0	t		18.0	2.5	/experiments/knapen_AOT/AOT_stimuli/rescaled_final/1154_rv.mp4	0.0	209.08179712295532	
20	118.20076203346252	movie	1		243	18.0	2.5	/experiments/knapen_AOT/AOT_stimuli/rescaled_final/1154_rv.mp4	0.0	209.8982810974121	2.5004398822784424
20	118.97696900367737	pulse	1	t		18.0	2.5	/experiments/knapen_AOT/AOT_stimuli/rescaled_final/1154_rv.mp4	0.0	210.67448806762695	
20	120.58446788787842	pulse	1	t		18.0	2.5	/experiments/knapen_AOT/AOT_stimuli/rescaled_final/1154_rv.mp4	0.0	212.281986951828	
20	120.70120191574097	fix_post	2		12	18.0	2.5	/experiments/knapen_AOT/AOT_stimuli/rescaled_final/1154_rv.mp4	0.0	212.39872097969055	0.0999751091003418
21	120.80117702484131	fix_pre	0		120	19.0	2.5	/experiments/knapen_AOT/AOT_stimuli/rescaled_final/0317_fw.mp4	0.0	212.4986960887909	1.000121831893921
21	121.80129885673523	movie	1		242	19.0	2.5	/experiments/knapen_AOT/AOT_stimuli/rescaled_final/0317_fw.mp4	0.0	213.49881792068481	2.492025136947632
21	122.17653584480286	pulse	1	t		19.0	2.5	/experiments/knapen_AOT/AOT_stimuli/rescaled_final/0317_fw.mp4	0.0	213.87405490875244	
21	123.77683401107788	pulse	1	t		19.0	2.5	/experiments/knapen_AOT/AOT_stimuli/rescaled_final/0317_fw.mp4	0.0	215.47435307502747	
21	124.29332399368286	fix_post	2		12	19.0	2.5	/experiments/knapen_AOT/AOT_stimuli/rescaled_final/0317_fw.mp4	0.0	215.99084305763245	0.10003304481506348
22	124.39335703849792	fix_pre	0		119	20.0	2.5	/experiments/knapen_AOT/AOT_stimuli/rescaled_final/1390_fw.mp4	0.0	216.0908761024475	0.9918489456176758
22	125.377032995224	pulse	0	t		20.0	2.5	/experiments/knapen_AOT/AOT_stimuli/rescaled_final/1390_fw.mp4	0.0	217.07455205917358	
22	125.3852059841156	movie	1		245	20.0	2.5	/experiments/knapen_AOT/AOT_stimuli/rescaled_final/1390_fw.mp4	0.0	217.08272504806519	2.5086829662323
22	126.9820990562439	pulse	1	t		20.0	2.5	/experiments/knapen_AOT/AOT_stimuli/rescaled_final/1390_fw.mp4	0.0	218.67961812019348	
22	127.8938889503479	fix_post	2		12	20.0	2.5	/experiments/knapen_AOT/AOT_stimuli/rescaled_final/1390_fw.mp4	0.0	219.59140801429749	0.10004210472106934
23	127.99393105506897	fix_pre	0		120	21.0	2.5	blank	1.0	219.69145011901855	1.0001249313354492
23	128.5775179862976	pulse	0	t		21.0	2.5	blank	1.0	220.2750370502472	
23	128.99405598640442	movie	1		300	21.0	2.5	blank	1.0	220.691575050354	2.5003559589385986
23	130.1778109073639	pulse	1	t		21.0	2.5	blank	1.0	221.87532997131348	
23	131.49441194534302	fix_post	2		12	21.0	2.5	blank	1.0	223.1919310092926	0.1000359058380127
24	131.59444785118103	fix_pre	0		120	22.0	2.5	/experiments/knapen_AOT/AOT_stimuli/rescaled_final/1860_fw.mp4	0.0	223.29196691513062	1.0001351833343506
24	131.77794790267944	pulse	0	t		22.0	2.5	/experiments/knapen_AOT/AOT_stimuli/rescaled_final/1860_fw.mp4	0.0	223.47546696662903	
24	132.59458303451538	movie	1		245	22.0	2.5	/experiments/knapen_AOT/AOT_stimuli/rescaled_final/1860_fw.mp4	0.0	224.29210209846497	2.500365972518921
24	133.37833094596863	pulse	1	t		22.0	2.5	/experiments/knapen_AOT/AOT_stimuli/rescaled_final/1860_fw.mp4	0.0	225.0758500099182	
24	134.97850394248962	pulse	1	t		22.0	2.5	/experiments/knapen_AOT/AOT_stimuli/rescaled_final/1860_fw.mp4	0.0	226.6760230064392	
24	135.0949490070343	fix_post	2		12	22.0	2.5	/experiments/knapen_AOT/AOT_stimuli/rescaled_final/1860_fw.mp4	0.0	226.7924680709839	0.10001683235168457
25	135.194965839386	fix_pre	0		119	23.0	2.5	/experiments/knapen_AOT/AOT_stimuli/rescaled_final/1775_fw.mp4	0.0	226.89248490333557	0.9918031692504883
25	136.18676900863647	movie	1		244	23.0	2.5	/experiments/knapen_AOT/AOT_stimuli/rescaled_final/1775_fw.mp4	0.0	227.88428807258606	2.5003998279571533
25	136.57885694503784	pulse	1	t		23.0	2.5	/experiments/knapen_AOT/AOT_stimuli/rescaled_final/1775_fw.mp4	0.0	228.27637600898743	
25	138.1789300441742	pulse	1	t		23.0	2.5	/experiments/knapen_AOT/AOT_stimuli/rescaled_final/1775_fw.mp4	0.0	229.87644910812378	
25	138.68716883659363	fix_post	2		12	23.0	2.5	/experiments/knapen_AOT/AOT_stimuli/rescaled_final/1775_fw.mp4	0.0	230.3846879005432	0.10000205039978027
26	138.7871708869934	fix_pre	0		120	24.0	2.5	/experiments/knapen_AOT/AOT_stimuli/rescaled_final/0683_fw.mp4	0.0	230.484689950943	1.0001380443572998
26	139.77916598320007	pulse	0	t		24.0	2.5	/experiments/knapen_AOT/AOT_stimuli/rescaled_final/0683_fw.mp4	0.0	231.47668504714966	
26	139.7873089313507	movie	1		244	24.0	2.5	/experiments/knapen_AOT/AOT_stimuli/rescaled_final/0683_fw.mp4	0.0	231.4848279953003	2.5087130069732666
26	141.38435983657837	pulse	1	t		24.0	2.5	/experiments/knapen_AOT/AOT_stimuli/rescaled_final/0683_fw.mp4	0.0	233.08187890052795	
26	142.29602193832397	fix_post	2		12	24.0	2.5	/experiments/knapen_AOT/AOT_stimuli/rescaled_final/0683_fw.mp4	0.0	233.99354100227356	0.10001897811889648
27	142.39604091644287	fix_pre	0		120	25.0	2.5	/experiments/knapen_AOT/AOT_stimuli/rescaled_final/0523_rv.mp4	0.0	234.09355998039246	1.0001349449157715
27	142.9797079563141	pulse	0	t		25.0	2.5	/experiments/knapen_AOT/AOT_stimuli/rescaled_final/0523_rv.mp4	0.0	234.67722702026367	
27	143.39617586135864	movie	1		244	25.0	2.5	/experiments/knapen_AOT/AOT_stimuli/rescaled_final/0523_rv.mp4	0.0	235.09369492530823	2.500404119491577
27	144.5800609588623	pulse	1	t		25.0	2.5	/experiments/knapen_AOT/AOT_stimuli/rescaled_final/0523_rv.mp4	0.0	236.2775800228119	
27	145.89657998085022	fix_post	2		12	25.0	2.5	/experiments/knapen_AOT/AOT_stimuli/rescaled_final/0523_rv.mp4	0.0	237.5940990447998	0.10001802444458008
28	145.9965980052948	fix_pre	0		120	26.0	2.5	/experiments/knapen_AOT/AOT_stimuli/rescaled_final/1979_rv.mp4	0.0	237.69411706924438	1.000121831893921
28	146.18019604682922	pulse	0	t		26.0	2.5	/experiments/knapen_AOT/AOT_stimuli/rescaled_final/1979_rv.mp4	0.0	237.8777151107788	
28	146.99671983718872	movie	1		243	26.0	2.5	/experiments/knapen_AOT/AOT_stimuli/rescaled_final/1979_rv.mp4	0.0	238.6942389011383	2.500359058380127
28	147.78040289878845	pulse	1	t		26.0	2.5	/experiments/knapen_AOT/AOT_stimuli/rescaled_final/1979_rv.mp4	0.0	239.47792196273804	
28	149.38228797912598	pulse	1	t		26.0	2.5	/experiments/knapen_AOT/AOT_stimuli/rescaled_final/1979_rv.mp4	0.0	241.07980704307556	
28	149.49707889556885	fix_post	2		12	26.0	2.5	/experiments/knapen_AOT/AOT_stimuli/rescaled_final/1979_rv.mp4	0.0	241.19459795951843	0.10003209114074707
29	149.5971109867096	fix_pre	0		120	27.0	2.5	/experiments/knapen_AOT/AOT_stimuli/rescaled_final/1094_fw.mp4	0.0	241.29463005065918	1.0001389980316162
29	150.5972499847412	movie	1		242	27.0	2.5	/experiments/knapen_AOT/AOT_stimuli/rescaled_final/1094_fw.mp4	0.0	242.2947690486908	2.4920449256896973
29	150.98128390312195	pulse	1	t		27.0	2.5	/experiments/knapen_AOT/AOT_stimuli/rescaled_final/1094_fw.mp4	0.0	242.67880296707153	
29	152.58115696907043	pulse	1	t		27.0	2.5	/experiments/knapen_AOT/AOT_stimuli/rescaled_final/1094_fw.mp4	0.0	244.27867603302002	
29	153.0892949104309	fix_post	2		12	27.0	2.5	/experiments/knapen_AOT/AOT_stimuli/rescaled_final/1094_fw.mp4	0.0	244.7868139743805	0.09999299049377441
30	153.18928790092468	fix_pre	0		120	28.0	2.5	blank	1.0	244.88680696487427	1.0001749992370605
30	154.18131303787231	pulse	0	t		28.0	2.5	blank	1.0	245.8788321018219	
30	154.18946290016174	movie	1		301	28.0	2.5	blank	1.0	245.88698196411133	2.5087220668792725
30	155.7814919948578	pulse	1	t		28.0	2.5	blank	1.0	247.47901105880737	
30	156.69818496704102	fix_post	2		12	28.0	2.5	blank	1.0	248.3957040309906	0.09999704360961914
31	156.79818201065063	fix_pre	0		120	29.0	2.5	/experiments/knapen_AOT/AOT_stimuli/rescaled_final/0887_rv.mp4	0.0	248.49570107460022	1.0001559257507324
31	157.38175892829895	pulse	0	t		29.0	2.5	/experiments/knapen_AOT/AOT_stimuli/rescaled_final/0887_rv.mp4	0.0	249.07927799224854	
31	157.79833793640137	movie	1		243	29.0	2.5	/experiments/knapen_AOT/AOT_stimuli/rescaled_final/0887_rv.mp4	0.0	249.49585700035095	2.5003929138183594
31	158.98224592208862	pulse	1	t		29.0	2.5	/experiments/knapen_AOT/AOT_stimuli/rescaled_final/0887_rv.mp4	0.0	250.6797649860382	
31	160.29873085021973	fix_post	2		12	29.0	2.5	/experiments/knapen_AOT/AOT_stimuli/rescaled_final/0887_rv.mp4	0.0	251.9962499141693	0.10001611709594727
32	160.39874696731567	fix_pre	0		120	30.0	2.5	/experiments/knapen_AOT/AOT_stimuli/rescaled_final/1979_rv.mp4	0.0	252.09626603126526	1.0001370906829834
32	160.5823209285736	pulse	0	t		30.0	2.5	/experiments/knapen_AOT/AOT_stimuli/rescaled_final/1979_rv.mp4	0.0	252.2798399925232	
32	161.39888405799866	movie	1		243	30.0	2.5	/experiments/knapen_AOT/AOT_stimuli/rescaled_final/1979_rv.mp4	0.0	253.09640312194824	2.500365972518921
32	162.1825089454651	pulse	1	t		30.0	2.5	/experiments/knapen_AOT/AOT_stimuli/rescaled_final/1979_rv.mp4	0.0	253.88002800941467	
32	163.7825949192047	pulse	1	t		30.0	2.5	/experiments/knapen_AOT/AOT_stimuli/rescaled_final/1979_rv.mp4	0.0	255.4801139831543	
32	163.89925003051758	fix_post	2		12	30.0	2.5	/experiments/knapen_AOT/AOT_stimuli/rescaled_final/1979_rv.mp4	0.0	255.59676909446716	0.10000801086425781
33	163.99925804138184	fix_pre	0		119	31.0	2.5	/experiments/knapen_AOT/AOT_stimuli/rescaled_final/0317_rv.mp4	0.0	255.69677710533142	0.9918229579925537
33	164.9910809993744	movie	1		245	31.0	2.5	/experiments/knapen_AOT/AOT_stimuli/rescaled_final/0317_rv.mp4	0.0	256.688600063324	2.500356912612915
33	165.38312697410583	pulse	1	t		31.0	2.5	/experiments/knapen_AOT/AOT_stimuli/rescaled_final/0317_rv.mp4	0.0	257.0806460380554	
33	166.9833118915558	pulse	1	t		31.0	2.5	/experiments/knapen_AOT/AOT_stimuli/rescaled_final/0317_rv.mp4	0.0	258.68083095550537	
33	167.4914379119873	fix_post	2		12	31.0	2.5	/experiments/knapen_AOT/AOT_stimuli/rescaled_final/0317_rv.mp4	0.0	259.1889569759369	0.10001802444458008
34	167.59145593643188	fix_pre	0		120	32.0	2.5	/experiments/knapen_AOT/AOT_stimuli/rescaled_final/1283_fw.mp4	0.0	259.28897500038147	1.000201940536499
34	168.58343291282654	pulse	0	t		32.0	2.5	/experiments/knapen_AOT/AOT_stimuli/rescaled_final/1283_fw.mp4	0.0	260.2809519767761	
34	168.59165787696838	movie	1		244	32.0	2.5	/experiments/knapen_AOT/AOT_stimuli/rescaled_final/1283_fw.mp4	0.0	260.28917694091797	2.5086441040039062
34	170.18426203727722	pulse	1	t		32.0	2.5	/experiments/knapen_AOT/AOT_stimuli/rescaled_final/1283_fw.mp4	0.0	261.8817811012268	
34	171.1003019809723	fix_post	2		12	32.0	2.5	/experiments/knapen_AOT/AOT_stimuli/rescaled_final/1283_fw.mp4	0.0	262.7978210449219	0.10002589225769043
35	171.20032787322998	fix_pre	0		120	33.0	2.5	/experiments/knapen_AOT/AOT_stimuli/rescaled_final/0086_rv.mp4	0.0	262.89784693717957	1.0001449584960938
35	171.78402996063232	pulse	0	t		33.0	2.5	/experiments/knapen_AOT/AOT_stimuli/rescaled_final/0086_rv.mp4	0.0	263.4815490245819	
35	172.20047283172607	movie	1		243	33.0	2.5	/experiments/knapen_AOT/AOT_stimuli/rescaled_final/0086_rv.mp4	0.0	263.89799189567566	2.5003840923309326
35	173.38439083099365	pulse	1	t		33.0	2.5	/experiments/knapen_AOT/AOT_stimuli/rescaled_final/0086_rv.mp4	0.0	265.08190989494324	
35	174.700856924057	fix_post	2		12	33.0	2.5	/experiments/knapen_AOT/AOT_stimuli/rescaled_final/0086_rv.mp4	0.0	266.3983759880066	0.10003805160522461
36	174.80089497566223	fix_pre	0		120	34.0	2.5	/experiments/knapen_AOT/AOT_stimuli/rescaled_final/1790_fw.mp4	0.0	266.4984140396118	1.000133991241455
36	174.976989030838	pulse	0	t		34.0	2.5	/experiments/knapen_AOT/AOT_stimuli/rescaled_final/1790_fw.mp4	0.0	266.6745080947876	
36	175.8010289669037	movie	1		244	34.0	2.5	/experiments/knapen_AOT/AOT_stimuli/rescaled_final/1790_fw.mp4	0.0	267.49854803085327	2.500356912612915
36	176.57729697227478	pulse	1	t		34.0	2.5	/experiments/knapen_AOT/AOT_stimuli/rescaled_final/1790_fw.mp4	0.0	268.27481603622437	
36	178.1850709915161	pulse	1	t		34.0	2.5	/experiments/knapen_AOT/AOT_stimuli/rescaled_final/1790_fw.mp4	0.0	269.8825900554657	
36	178.3013858795166	fix_post	2		12	34.0	2.5	/experiments/knapen_AOT/AOT_stimuli/rescaled_final/1790_fw.mp4	0.0	269.9989049434662	0.10004615783691406
37	178.40143203735352	fix_pre	0		119	35.0	2.5	blank	1.0	270.0989511013031	0.9918069839477539
37	179.39323902130127	movie	1		300	35.0	2.5	blank	1.0	271.09075808525085	2.5003600120544434
37	179.77777695655823	pulse	1	t		35.0	2.5	blank	1.0	271.4752960205078	
37	181.3779318332672	pulse	1	t		35.0	2.5	blank	1.0	273.0754508972168	
37	181.8935990333557	fix_post	2		12	35.0	2.5	blank	1.0	273.5911180973053	0.1000368595123291
38	181.99363589286804	fix_pre	0		119	36.0	2.5	/experiments/knapen_AOT/AOT_stimuli/rescaled_final/0404_fw.mp4	0.0	273.6911549568176	0.9917881488800049
38	182.97727584838867	pulse	0	t		36.0	2.5	/experiments/knapen_AOT/AOT_stimuli/rescaled_final/0404_fw.mp4	0.0	274.67479491233826	
38	182.98542404174805	movie	1		245	36.0	2.5	/experiments/knapen_AOT/AOT_stimuli/rescaled_final/0404_fw.mp4	0.0	274.68294310569763	2.5087218284606934
38	184.5780680179596	pulse	1	t		36.0	2.5	/experiments/knapen_AOT/AOT_stimuli/rescaled_final/0404_fw.mp4	0.0	276.2755870819092	
38	185.49414587020874	fix_post	2		12	36.0	2.5	/experiments/knapen_AOT/AOT_stimuli/rescaled_final/0404_fw.mp4	0.0	277.1916649341583	0.10000896453857422
39	185.59415483474731	fix_pre	0		118	37.0	2.5	/experiments/knapen_AOT/AOT_stimuli/rescaled_final/0488_fw.mp4	0.0	277.2916738986969	1.000157117843628
39	186.17783999443054	pulse	0	t		37.0	2.5	/experiments/knapen_AOT/AOT_stimuli/rescaled_final/0488_fw.mp4	0.0	277.8753590583801	
39	186.59431195259094	movie	1		244	37.0	2.5	/experiments/knapen_AOT/AOT_stimuli/rescaled_final/0488_fw.mp4	0.0	278.2918310165405	2.50032901763916
39	187.77821493148804	pulse	1	t		37.0	2.5	/experiments/knapen_AOT/AOT_stimuli/rescaled_final/0488_fw.mp4	0.0	279.4757339954376	
39	189.0946409702301	fix_post	2		12	37.0	2.5	/experiments/knapen_AOT/AOT_stimuli/rescaled_final/0488_fw.mp4	0.0	280.7921600341797	0.10005903244018555
40	189.1947000026703	fix_pre	0		120	38.0	2.5	/experiments/knapen_AOT/AOT_stimuli/rescaled_final/1054_fw.mp4	0.0	280.8922190666199	1.0001208782196045
40	189.3782458305359	pulse	0	t		38.0	2.5	/experiments/knapen_AOT/AOT_stimuli/rescaled_final/1054_fw.mp4	0.0	281.0757648944855	
40	190.1948208808899	movie	1		243	38.0	2.5	/experiments/knapen_AOT/AOT_stimuli/rescaled_final/1054_fw.mp4	0.0	281.8923399448395	2.5003950595855713
40	190.9784128665924	pulse	1	t		38.0	2.5	/experiments/knapen_AOT/AOT_stimuli/rescaled_final/1054_fw.mp4	0.0	282.675931930542	
40	192.5788278579712	pulse	1	t		38.0	2.5	/experiments/knapen_AOT/AOT_stimuli/rescaled_final/1054_fw.mp4	0.0	284.2763469219208	
40	192.69521594047546	fix_post	2		12	38.0	2.5	/experiments/knapen_AOT/AOT_stimuli/rescaled_final/1054_fw.mp4	0.0	284.39273500442505	0.10003399848937988
41	192.79524993896484	fix_pre	0		119	39.0	2.5	/experiments/knapen_AOT/AOT_stimuli/rescaled_final/0350_rv.mp4	0.0	284.49276900291443	0.991786003112793
41	193.78703594207764	movie	1		243	39.0	2.5	/experiments/knapen_AOT/AOT_stimuli/rescaled_final/0350_rv.mp4	0.0	285.4845550060272	2.500364065170288
41	194.17905187606812	pulse	1	t		39.0	2.5	/experiments/knapen_AOT/AOT_stimuli/rescaled_final/0350_rv.mp4	0.0	285.8765709400177	
41	195.779314994812	pulse	1	t		39.0	2.5	/experiments/knapen_AOT/AOT_stimuli/rescaled_final/0350_rv.mp4	0.0	287.4768340587616	
41	196.28740000724792	fix_post	2		12	39.0	2.5	/experiments/knapen_AOT/AOT_stimuli/rescaled_final/0350_rv.mp4	0.0	287.9849190711975	0.10000801086425781
42	196.38740801811218	fix_pre	0		120	40.0	2.5	/experiments/knapen_AOT/AOT_stimuli/rescaled_final/0695_fw.mp4	0.0	288.08492708206177	1.0001788139343262
42	197.3794128894806	pulse	0	t		40.0	2.5	/experiments/knapen_AOT/AOT_stimuli/rescaled_final/0695_fw.mp4	0.0	289.0769319534302	
42	197.3875868320465	movie	1		245	40.0	2.5	/experiments/knapen_AOT/AOT_stimuli/rescaled_final/0695_fw.mp4	0.0	289.0851058959961	2.508681058883667
42	198.9804549217224	pulse	1	t		40.0	2.5	/experiments/knapen_AOT/AOT_stimuli/rescaled_final/0695_fw.mp4	0.0	290.677973985672	
42	199.89626789093018	fix_post	2		12	40.0	2.5	/experiments/knapen_AOT/AOT_stimuli/rescaled_final/0695_fw.mp4	0.0	291.59378695487976	0.10004115104675293
43	199.99630904197693	fix_pre	0		120	41.0	2.5	/experiments/knapen_AOT/AOT_stimuli/rescaled_final/0201_fw.mp4	0.0	291.6938281059265	1.0001468658447266
43	200.580060005188	pulse	0	t		41.0	2.5	/experiments/knapen_AOT/AOT_stimuli/rescaled_final/0201_fw.mp4	0.0	292.2775790691376	
43	200.99645590782166	movie	1		245	41.0	2.5	/experiments/knapen_AOT/AOT_stimuli/rescaled_final/0201_fw.mp4	0.0	292.69397497177124	2.5003890991210938
43	202.18035888671875	pulse	1	t		41.0	2.5	/experiments/knapen_AOT/AOT_stimuli/rescaled_final/0201_fw.mp4	0.0	293.87787795066833	
43	203.49684500694275	fix_post	2		12	41.0	2.5	/experiments/knapen_AOT/AOT_stimuli/rescaled_final/0201_fw.mp4	0.0	295.19436407089233	0.09998703002929688
44	203.59683203697205	fix_pre	0		120	42.0	2.5	blank	1.0	295.29435110092163	1.0002379417419434
44	203.7803978919983	pulse	0	t		42.0	2.5	blank	1.0	295.4779169559479	
44	204.597069978714	movie	1		300	42.0	2.5	blank	1.0	296.2945890426636	2.500277042388916
44	205.38061904907227	pulse	1	t		42.0	2.5	blank	1.0	297.07813811302185	
44	206.98083090782166	pulse	1	t		42.0	2.5	blank	1.0	298.67834997177124	
44	207.0973470211029	fix_post	2		12	42.0	2.5	blank	1.0	298.7948660850525	0.09998798370361328
45	207.19733500480652	fix_pre	0		119	43.0	2.5	/experiments/knapen_AOT/AOT_stimuli/rescaled_final/1775_fw.mp4	0.0	298.8948540687561	0.9918398857116699
45	208.1891748905182	movie	1		244	43.0	2.5	/experiments/knapen_AOT/AOT_stimuli/rescaled_final/1775_fw.mp4	0.0	299.8866939544678	2.5003931522369385
45	208.58117985725403	pulse	1	t		43.0	2.5	/experiments/knapen_AOT/AOT_stimuli/rescaled_final/1775_fw.mp4	0.0	300.2786989212036	
45	210.18146204948425	pulse	1	t		43.0	2.5	/experiments/knapen_AOT/AOT_stimuli/rescaled_final/1775_fw.mp4	0.0	301.87898111343384	
45	210.68956804275513	fix_post	2		12	43.0	2.5	/experiments/knapen_AOT/AOT_stimuli/rescaled_final/1775_fw.mp4	0.0	302.3870871067047	0.10000991821289062
46	210.78957796096802	fix_pre	0		120	44.0	2.5	/experiments/knapen_AOT/AOT_stimuli/rescaled_final/0839_rv.mp4	0.0	302.4870970249176	1.0001509189605713
46	211.78156685829163	pulse	0	t		44.0	2.5	/experiments/knapen_AOT/AOT_stimuli/rescaled_final/0839_rv.mp4	0.0	303.4790859222412	
46	211.7897288799286	movie	1		246	44.0	2.5	/experiments/knapen_AOT/AOT_stimuli/rescaled_final/0839_rv.mp4	0.0	303.4872479438782	2.5086779594421387
46	213.38242483139038	pulse	1	t		44.0	2.5	/experiments/knapen_AOT/AOT_stimuli/rescaled_final/0839_rv.mp4	0.0	305.07994389533997	
46	214.29840683937073	fix_post	2		12	44.0	2.5	/experiments/knapen_AOT/AOT_stimuli/rescaled_final/0839_rv.mp4	0.0	305.9959259033203	0.10007309913635254
47	214.39847993850708	fix_pre	0		120	45.0	2.5	/experiments/knapen_AOT/AOT_stimuli/rescaled_final/0017_rv.mp4	0.0	306.09599900245667	1.0001709461212158
47	214.98210382461548	pulse	0	t		45.0	2.5	/experiments/knapen_AOT/AOT_stimuli/rescaled_final/0017_rv.mp4	0.0	306.67962288856506	
47	215.3986508846283	movie	1		245	45.0	2.5	/experiments/knapen_AOT/AOT_stimuli/rescaled_final/0017_rv.mp4	0.0	307.0961699485779	2.5002810955047607
47	216.58247900009155	pulse	1	t		45.0	2.5	/experiments/knapen_AOT/AOT_stimuli/rescaled_final/0017_rv.mp4	0.0	308.27999806404114	
47	217.89893198013306	fix_post	2		12	45.0	2.5	/experiments/knapen_AOT/AOT_stimuli/rescaled_final/0017_rv.mp4	0.0	309.59645104408264	0.10002803802490234
48	217.99896001815796	fix_pre	0		120	46.0	2.5	/experiments/knapen_AOT/AOT_stimuli/rescaled_final/1485_rv.mp4	0.0	309.69647908210754	1.0001988410949707
48	218.18250703811646	pulse	0	t		46.0	2.5	/experiments/knapen_AOT/AOT_stimuli/rescaled_final/1485_rv.mp4	0.0	309.88002610206604	
48	218.99915885925293	movie	1		244	46.0	2.5	/experiments/knapen_AOT/AOT_stimuli/rescaled_final/1485_rv.mp4	0.0	310.6966779232025	2.5003340244293213
48	219.78282189369202	pulse	1	t		46.0	2.5	/experiments/knapen_AOT/AOT_stimuli/rescaled_final/1485_rv.mp4	0.0	311.4803409576416	
48	221.38321995735168	pulse	1	t		46.0	2.5	/experiments/knapen_AOT/AOT_stimuli/rescaled_final/1485_rv.mp4	0.0	313.08073902130127	
48	221.49949288368225	fix_post	2		12	46.0	2.5	/experiments/knapen_AOT/AOT_stimuli/rescaled_final/1485_rv.mp4	0.0	313.19701194763184	0.10008811950683594
49	221.5995810031891	fix_pre	0		120	47.0	2.5	blank	1.0	313.2971000671387	1.000128984451294
49	222.59970998764038	movie	1		299	47.0	2.5	blank	1.0	314.29722905158997	2.4920060634613037
49	222.9833710193634	pulse	1	t		47.0	2.5	blank	1.0	314.680890083313	
49	224.5834460258484	pulse	1	t		47.0	2.5	blank	1.0	316.280965089798	
49	225.09171605110168	fix_post	2		12	47.0	2.5	blank	1.0	316.78923511505127	0.10000300407409668
50	225.19171905517578	fix_pre	0		120	48.0	2.5	/experiments/knapen_AOT/AOT_stimuli/rescaled_final/1048_rv.mp4	0.0	316.88923811912537	1.0001378059387207
50	226.18377995491028	pulse	0	t		48.0	2.5	/experiments/knapen_AOT/AOT_stimuli/rescaled_final/1048_rv.mp4	0.0	317.88129901885986	
50	226.1918568611145	movie	1		245	48.0	2.5	/experiments/knapen_AOT/AOT_stimuli/rescaled_final/1048_rv.mp4	0.0	317.8893759250641	2.5087180137634277
50	227.78519105911255	pulse	1	t		48.0	2.5	/experiments/knapen_AOT/AOT_stimuli/rescaled_final/1048_rv.mp4	0.0	319.48271012306213	
50	228.70057487487793	fix_post	2		12	48.0	2.5	/experiments/knapen_AOT/AOT_stimuli/rescaled_final/1048_rv.mp4	0.0	320.3980939388275	0.10001611709594727
51	228.80059099197388	fix_pre	0		120	49.0	2.5	/experiments/knapen_AOT/AOT_stimuli/rescaled_final/1106_rv.mp4	0.0	320.49811005592346	1.0001509189605713
51	229.37663984298706	pulse	0	t		49.0	2.5	/experiments/knapen_AOT/AOT_stimuli/rescaled_final/1106_rv.mp4	0.0	321.07415890693665	
51	229.80074191093445	movie	1		243	49.0	2.5	/experiments/knapen_AOT/AOT_stimuli/rescaled_final/1106_rv.mp4	0.0	321.49826097488403	2.500370979309082
51	230.97684383392334	pulse	1	t		49.0	2.5	/experiments/knapen_AOT/AOT_stimuli/rescaled_final/1106_rv.mp4	0.0	322.6743628978729	
51	232.30111289024353	fix_post	2		12	49.0	2.5	/experiments/knapen_AOT/AOT_stimuli/rescaled_final/1106_rv.mp4	0.0	323.9986319541931	0.10000300407409668
52	232.40111589431763	fix_pre	0		120	50.0	2.5	/experiments/knapen_AOT/AOT_stimuli/rescaled_final/0923_fw.mp4	0.0	324.0986349582672	1.0001540184020996
52	232.57716584205627	pulse	0	t		50.0	2.5	/experiments/knapen_AOT/AOT_stimuli/rescaled_final/0923_fw.mp4	0.0	324.27468490600586	
52	233.40126991271973	movie	1		244	50.0	2.5	/experiments/knapen_AOT/AOT_stimuli/rescaled_final/0923_fw.mp4	0.0	325.0987889766693	2.5003740787506104
52	234.1767919063568	pulse	1	t		50.0	2.5	/experiments/knapen_AOT/AOT_stimuli/rescaled_final/0923_fw.mp4	0.0	325.8743109703064	
52	235.77682495117188	pulse	1	t		50.0	2.5	/experiments/knapen_AOT/AOT_stimuli/rescaled_final/0923_fw.mp4	0.0	327.47434401512146	
52	235.90164399147034	fix_post	2		12	50.0	2.5	/experiments/knapen_AOT/AOT_stimuli/rescaled_final/0923_fw.mp4	0.0	327.5991630554199	0.10009503364562988
53	236.00173902511597	fix_pre	0		120	51.0	2.5	/experiments/knapen_AOT/AOT_stimuli/rescaled_final/0107_fw.mp4	0.0	327.69925808906555	1.0000970363616943
53	237.00183606147766	movie	1		244	51.0	2.5	/experiments/knapen_AOT/AOT_stimuli/rescaled_final/0107_fw.mp4	0.0	328.69935512542725	2.492017984390259
53	237.37700605392456	pulse	1	t		51.0	2.5	/experiments/knapen_AOT/AOT_stimuli/rescaled_final/0107_fw.mp4	0.0	329.07452511787415	
53	238.97737789154053	pulse	1	t		51.0	2.5	/experiments/knapen_AOT/AOT_stimuli/rescaled_final/0107_fw.mp4	0.0	330.6748969554901	
53	239.49385404586792	fix_post	2		12	51.0	2.5	/experiments/knapen_AOT/AOT_stimuli/rescaled_final/0107_fw.mp4	0.0	331.1913731098175	0.09999585151672363
54	239.59384989738464	fix_pre	0		119	52.0	2.5	/experiments/knapen_AOT/AOT_stimuli/rescaled_final/0986_fw.mp4	0.0	331.29136896133423	0.9918100833892822
54	240.57750582695007	pulse	0	t		52.0	2.5	/experiments/knapen_AOT/AOT_stimuli/rescaled_final/0986_fw.mp4	0.0	332.27502489089966	
54	240.58565998077393	movie	1		245	52.0	2.5	/experiments/knapen_AOT/AOT_stimuli/rescaled_final/0986_fw.mp4	0.0	332.2831790447235	2.508723020553589
54	242.17848992347717	pulse	1	t		52.0	2.5	/experiments/knapen_AOT/AOT_stimuli/rescaled_final/0986_fw.mp4	0.0	333.87600898742676	
54	243.09438300132751	fix_post	2		12	52.0	2.5	/experiments/knapen_AOT/AOT_stimuli/rescaled_final/0986_fw.mp4	0.0	334.7919020652771	0.10001993179321289
55	243.19440293312073	fix_pre	0		120	53.0	2.5	/experiments/knapen_AOT/AOT_stimuli/rescaled_final/0201_rv.mp4	0.0	334.8919219970703	1.000190019607544
55	243.77802991867065	pulse	0	t		53.0	2.5	/experiments/knapen_AOT/AOT_stimuli/rescaled_final/0201_rv.mp4	0.0	335.47554898262024	
55	244.19459295272827	movie	1		241	53.0	2.5	/experiments/knapen_AOT/AOT_stimuli/rescaled_final/0201_rv.mp4	0.0	335.89211201667786	2.5003349781036377
55	245.3782639503479	pulse	1	t		53.0	2.5	/experiments/knapen_AOT/AOT_stimuli/rescaled_final/0201_rv.mp4	0.0	337.0757830142975	
55	246.6949279308319	fix_post	2		12	53.0	2.5	/experiments/knapen_AOT/AOT_stimuli/rescaled_final/0201_rv.mp4	0.0	338.3924469947815	0.100006103515625
56	246.79493403434753	fix_pre	0		120	54.0	2.5	/experiments/knapen_AOT/AOT_stimuli/rescaled_final/0418_rv.mp4	0.0	338.4924530982971	1.0001459121704102
56	246.97845697402954	pulse	0	t		54.0	2.5	/experiments/knapen_AOT/AOT_stimuli/rescaled_final/0418_rv.mp4	0.0	338.6759760379791	
56	247.79507994651794	movie	1		244	54.0	2.5	/experiments/knapen_AOT/AOT_stimuli/rescaled_final/0418_rv.mp4	0.0	339.49259901046753	2.5003879070281982
56	248.5788140296936	pulse	1	t		54.0	2.5	/experiments/knapen_AOT/AOT_stimuli/rescaled_final/0418_rv.mp4	0.0	340.2763330936432	
56	250.17905187606812	pulse	1	t		54.0	2.5	/experiments/knapen_AOT/AOT_stimuli/rescaled_final/0418_rv.mp4	0.0	341.8765709400177	
56	250.29546785354614	fix_post	2		12	54.0	2.5	/experiments/knapen_AOT/AOT_stimuli/rescaled_final/0418_rv.mp4	0.0	341.9929869174957	0.10004806518554688
57	250.3955159187317	fix_pre	0		120	55.0	2.5	/experiments/knapen_AOT/AOT_stimuli/rescaled_final/1386_rv.mp4	0.0	342.0930349826813	1.0001311302185059
57	251.3956470489502	movie	1		242	55.0	2.5	/experiments/knapen_AOT/AOT_stimuli/rescaled_final/1386_rv.mp4	0.0	343.0931661128998	2.492006778717041
57	251.7837109565735	pulse	1	t		55.0	2.5	/experiments/knapen_AOT/AOT_stimuli/rescaled_final/1386_rv.mp4	0.0	343.48123002052307	
57	253.37937903404236	pulse	1	t		55.0	2.5	/experiments/knapen_AOT/AOT_stimuli/rescaled_final/1386_rv.mp4	0.0	345.07689809799194	
57	253.88765382766724	fix_post	2		12	55.0	2.5	/experiments/knapen_AOT/AOT_stimuli/rescaled_final/1386_rv.mp4	0.0	345.5851728916168	0.10004806518554688
58	253.98770189285278	fix_pre	0		120	56.0	2.5	blank	1.0	345.68522095680237	1.0001461505889893
58	254.97967386245728	pulse	0	t		56.0	2.5	blank	1.0	346.67719292640686	
58	254.98784804344177	movie	1		301	56.0	2.5	blank	1.0	346.68536710739136	2.5087499618530273
58	256.5799789428711	pulse	1	t		56.0	2.5	blank	1.0	348.2774980068207	
58	257.4965980052948	fix_post	2		12	56.0	2.5	blank	1.0	349.1941170692444	0.09992694854736328
59	257.59652495384216	fix_pre	0		120	57.0	2.5	/experiments/knapen_AOT/AOT_stimuli/rescaled_final/0207_fw.mp4	0.0	349.29404401779175	1.00022292137146
59	258.1802649497986	pulse	0	t		57.0	2.5	/experiments/knapen_AOT/AOT_stimuli/rescaled_final/0207_fw.mp4	0.0	349.87778401374817	
59	258.5967478752136	movie	1		243	57.0	2.5	/experiments/knapen_AOT/AOT_stimuli/rescaled_final/0207_fw.mp4	0.0	350.2942669391632	2.500317096710205
59	259.78047800064087	pulse	1	t		57.0	2.5	/experiments/knapen_AOT/AOT_stimuli/rescaled_final/0207_fw.mp4	0.0	351.47799706459045	
59	261.0970649719238	fix_post	2		12	57.0	2.5	/experiments/knapen_AOT/AOT_stimuli/rescaled_final/0207_fw.mp4	0.0	352.7945840358734	0.10003805160522461
60	261.19710302352905	fix_pre	0		120	58.0	2.5	/experiments/knapen_AOT/AOT_stimuli/rescaled_final/1922_fw.mp4	0.0	352.89462208747864	1.0001158714294434
60	261.3806519508362	pulse	0	t		58.0	2.5	/experiments/knapen_AOT/AOT_stimuli/rescaled_final/1922_fw.mp4	0.0	353.07817101478577	
60	262.1972188949585	movie	1		244	58.0	2.5	/experiments/knapen_AOT/AOT_stimuli/rescaled_final/1922_fw.mp4	0.0	353.8947379589081	2.5003790855407715
60	262.9809808731079	pulse	1	t		58.0	2.5	/experiments/knapen_AOT/AOT_stimuli/rescaled_final/1922_fw.mp4	0.0	354.6784999370575	
60	264.58114790916443	pulse	1	t		58.0	2.5	/experiments/knapen_AOT/AOT_stimuli/rescaled_final/1922_fw.mp4	0.0	356.278666973114	
60	264.69759798049927	fix_post	2		12	58.0	2.5	/experiments/knapen_AOT/AOT_stimuli/rescaled_final/1922_fw.mp4	0.0	356.39511704444885	0.10002398490905762
61	264.7976219654083	fix_pre	0		120	59.0	2.5	/experiments/knapen_AOT/AOT_stimuli/rescaled_final/0373_rv.mp4	0.0	356.4951410293579	1.0001850128173828
61	265.7978069782257	movie	1		244	59.0	2.5	/experiments/knapen_AOT/AOT_stimuli/rescaled_final/0373_rv.mp4	0.0	357.4953260421753	2.4920339584350586
61	266.1826958656311	pulse	1	t		59.0	2.5	/experiments/knapen_AOT/AOT_stimuli/rescaled_final/0373_rv.mp4	0.0	357.8802149295807	
61	267.7815990447998	pulse	1	t		59.0	2.5	/experiments/knapen_AOT/AOT_stimuli/rescaled_final/0373_rv.mp4	0.0	359.4791181087494	
61	268.28984093666077	fix_post	2		12	59.0	2.5	/experiments/knapen_AOT/AOT_stimuli/rescaled_final/0373_rv.mp4	0.0	359.98736000061035	0.10000395774841309
62	268.3898448944092	fix_pre	0		120	60.0	2.5	/experiments/knapen_AOT/AOT_stimuli/rescaled_final/1269_fw.mp4	0.0	360.08736395835876	1.0001130104064941
62	269.38183093070984	pulse	0	t		60.0	2.5	/experiments/knapen_AOT/AOT_stimuli/rescaled_final/1269_fw.mp4	0.0	361.0793499946594	
62	269.3899579048157	movie	1		245	60.0	2.5	/experiments/knapen_AOT/AOT_stimuli/rescaled_final/1269_fw.mp4	0.0	361.08747696876526	2.508674144744873
62	270.98343086242676	pulse	1	t		60.0	2.5	/experiments/knapen_AOT/AOT_stimuli/rescaled_final/1269_fw.mp4	0.0	362.68094992637634	
62	271.89863204956055	fix_post	2		12	60.0	2.5	/experiments/knapen_AOT/AOT_stimuli/rescaled_final/1269_fw.mp4	0.0	363.59615111351013	0.10008382797241211
63	271.99871587753296	fix_pre	0		120	61.0	2.5	/experiments/knapen_AOT/AOT_stimuli/rescaled_final/1495_rv.mp4	0.0	363.69623494148254	1.000136137008667
63	272.58234190940857	pulse	0	t		61.0	2.5	/experiments/knapen_AOT/AOT_stimuli/rescaled_final/1495_rv.mp4	0.0	364.27986097335815	
63	272.9988520145416	movie	1		244	61.0	2.5	/experiments/knapen_AOT/AOT_stimuli/rescaled_final/1495_rv.mp4	0.0	364.6963710784912	2.5003418922424316
63	274.1826539039612	pulse	1	t		61.0	2.5	/experiments/knapen_AOT/AOT_stimuli/rescaled_final/1495_rv.mp4	0.0	365.88017296791077	
63	275.49919390678406	fix_post	2		12	61.0	2.5	/experiments/knapen_AOT/AOT_stimuli/rescaled_final/1495_rv.mp4	0.0	367.19671297073364	0.10004305839538574
64	275.59923696517944	fix_pre	0		120	62.0	2.5	/experiments/knapen_AOT/AOT_stimuli/rescaled_final/1707_fw.mp4	0.0	367.296756029129	1.0001449584960938
64	275.7828059196472	pulse	0	t		62.0	2.5	/experiments/knapen_AOT/AOT_stimuli/rescaled_final/1707_fw.mp4	0.0	367.4803249835968	
64	276.59938192367554	movie	1		244	62.0	2.5	/experiments/knapen_AOT/AOT_stimuli/rescaled_final/1707_fw.mp4	0.0	368.2969009876251	2.5003509521484375
64	277.3831539154053	pulse	1	t		62.0	2.5	/experiments/knapen_AOT/AOT_stimuli/rescaled_final/1707_fw.mp4	0.0	369.08067297935486	
64	278.9836540222168	pulse	1	t		62.0	2.5	/experiments/knapen_AOT/AOT_stimuli/rescaled_final/1707_fw.mp4	0.0	370.6811730861664	
64	279.099732875824	fix_post	2		12	62.0	2.5	/experiments/knapen_AOT/AOT_stimuli/rescaled_final/1707_fw.mp4	0.0	370.79725193977356	0.10002899169921875
65	279.1997618675232	fix_pre	0		120	63.0	2.5	blank	1.0	370.8972809314728	1.0001859664916992
65	280.1999478340149	movie	1		299	63.0	2.5	blank	1.0	371.8974668979645	2.4920341968536377
65	280.5835449695587	pulse	1	t		63.0	2.5	blank	1.0	372.2810640335083	
65	282.18381786346436	pulse	1	t		63.0	2.5	blank	1.0	373.88133692741394	
65	282.69198203086853	fix_post	2		12	63.0	2.5	blank	1.0	374.3895010948181	0.09997081756591797
66	282.79195284843445	fix_pre	0		120	64.0	2.5	/experiments/knapen_AOT/AOT_stimuli/rescaled_final/1668_rv.mp4	0.0	374.48947191238403	1.0002021789550781
66	283.78406405448914	pulse	0	t		64.0	2.5	/experiments/knapen_AOT/AOT_stimuli/rescaled_final/1668_rv.mp4	0.0	375.4815831184387	
66	283.7921550273895	movie	1		245	64.0	2.5	/experiments/knapen_AOT/AOT_stimuli/rescaled_final/1668_rv.mp4	0.0	375.4896740913391	2.508654832839966
66	285.3889169692993	pulse	1	t		64.0	2.5	/experiments/knapen_AOT/AOT_stimuli/rescaled_final/1668_rv.mp4	0.0	377.0864360332489	
66	286.3008098602295	fix_post	2		12	64.0	2.5	/experiments/knapen_AOT/AOT_stimuli/rescaled_final/1668_rv.mp4	0.0	377.9983289241791	0.10003519058227539
67	286.40084505081177	fix_pre	0		120	65.0	2.5	/experiments/knapen_AOT/AOT_stimuli/rescaled_final/1958_rv.mp4	0.0	378.09836411476135	1.0001318454742432
67	286.98441886901855	pulse	0	t		65.0	2.5	/experiments/knapen_AOT/AOT_stimuli/rescaled_final/1958_rv.mp4	0.0	378.68193793296814	
67	287.400976896286	movie	1		244	65.0	2.5	/experiments/knapen_AOT/AOT_stimuli/rescaled_final/1958_rv.mp4	0.0	379.0984959602356	2.5003621578216553
67	288.58479285240173	pulse	1	t		65.0	2.5	/experiments/knapen_AOT/AOT_stimuli/rescaled_final/1958_rv.mp4	0.0	380.2823119163513	
67	289.90133905410767	fix_post	2		12	65.0	2.5	/experiments/knapen_AOT/AOT_stimuli/rescaled_final/1958_rv.mp4	0.0	381.59885811805725	0.10004091262817383
68	290.00137996673584	fix_pre	0		120	66.0	2.5	/experiments/knapen_AOT/AOT_stimuli/rescaled_final/0620_fw.mp4	0.0	381.6988990306854	1.0001399517059326
68	290.17735385894775	pulse	0	t		66.0	2.5	/experiments/knapen_AOT/AOT_stimuli/rescaled_final/0620_fw.mp4	0.0	381.87487292289734	
68	291.0015199184418	movie	1		244	66.0	2.5	/experiments/knapen_AOT/AOT_stimuli/rescaled_final/0620_fw.mp4	0.0	382.69903898239136	2.5003819465637207
68	291.777734041214	pulse	1	t		66.0	2.5	/experiments/knapen_AOT/AOT_stimuli/rescaled_final/0620_fw.mp4	0.0	383.4752531051636	
68	293.385440826416	pulse	1	t		66.0	2.5	/experiments/knapen_AOT/AOT_stimuli/rescaled_final/0620_fw.mp4	0.0	385.0829598903656	
68	293.5019018650055	fix_post	2		12	66.0	2.5	/experiments/knapen_AOT/AOT_stimuli/rescaled_final/0620_fw.mp4	0.0	385.1994209289551	0.10002517700195312
69	293.60192704200745	fix_pre	0		120	67.0	2.5	/experiments/knapen_AOT/AOT_stimuli/rescaled_final/0971_rv.mp4	0.0	385.29944610595703	1.0001788139343262
69	294.6021058559418	movie	1		244	67.0	2.5	/experiments/knapen_AOT/AOT_stimuli/rescaled_final/0971_rv.mp4	0.0	386.29962491989136	2.4920411109924316
69	294.99073100090027	pulse	1	t		67.0	2.5	/experiments/knapen_AOT/AOT_stimuli/rescaled_final/0971_rv.mp4	0.0	386.68825006484985	
69	296.5777268409729	pulse	1	t		67.0	2.5	/experiments/knapen_AOT/AOT_stimuli/rescaled_final/0971_rv.mp4	0.0	388.2752459049225	
69	297.0941469669342	fix_post	2		12	67.0	2.5	/experiments/knapen_AOT/AOT_stimuli/rescaled_final/0971_rv.mp4	0.0	388.7916660308838	0.09999608993530273
70	297.1941430568695	fix_pre	0		119	68.0	2.5	/experiments/knapen_AOT/AOT_stimuli/rescaled_final/1588_rv.mp4	0.0	388.8916621208191	0.9917848110198975
70	298.17773389816284	pulse	0	t		68.0	2.5	/experiments/knapen_AOT/AOT_stimuli/rescaled_final/1588_rv.mp4	0.0	389.8752529621124	
70	298.1859278678894	movie	1		247	68.0	2.5	/experiments/knapen_AOT/AOT_stimuli/rescaled_final/1588_rv.mp4	0.0	389.883446931839	2.508692979812622
70	299.77866792678833	pulse	1	t		68.0	2.5	/experiments/knapen_AOT/AOT_stimuli/rescaled_final/1588_rv.mp4	0.0	391.4761869907379	
70	300.694620847702	fix_post	2		12	68.0	2.5	/experiments/knapen_AOT/AOT_stimuli/rescaled_final/1588_rv.mp4	0.0	392.3921399116516	0.10005021095275879
71	300.7946710586548	fix_pre	0		120	69.0	2.5	blank	1.0	392.49219012260437	1.0001587867736816
71	301.3784010410309	pulse	0	t		69.0	2.5	blank	1.0	393.07592010498047	
71	301.79482984542847	movie	1		300	69.0	2.5	blank	1.0	393.49234890937805	2.5003650188446045
71	302.97849702835083	pulse	1	t		69.0	2.5	blank	1.0	394.6760160923004	
71	304.29519486427307	fix_post	2		12	69.0	2.5	blank	1.0	395.99271392822266	0.10001707077026367
72	304.39521193504333	fix_pre	0		120	70.0	2.5	/experiments/knapen_AOT/AOT_stimuli/rescaled_final/1464_rv.mp4	0.0	396.0927309989929	1.0001540184020996
72	304.5787789821625	pulse	0	t		70.0	2.5	/experiments/knapen_AOT/AOT_stimuli/rescaled_final/1464_rv.mp4	0.0	396.27629804611206	
72	305.39536595344543	movie	1		246	70.0	2.5	/experiments/knapen_AOT/AOT_stimuli/rescaled_final/1464_rv.mp4	0.0	397.092885017395	2.5007309913635254
72	306.1789770126343	pulse	1	t		70.0	2.5	/experiments/knapen_AOT/AOT_stimuli/rescaled_final/1464_rv.mp4	0.0	397.87649607658386	
72	307.7792658805847	pulse	1	t		70.0	2.5	/experiments/knapen_AOT/AOT_stimuli/rescaled_final/1464_rv.mp4	0.0	399.4767849445343	
72	307.89609694480896	fix_post	2		9	70.0	2.5	/experiments/knapen_AOT/AOT_stimuli/rescaled_final/1464_rv.mp4	0.0	399.59361600875854	0.09959602355957031
73	307.99569296836853	fix_pre	0		119	71.0	2.5	/experiments/knapen_AOT/AOT_stimuli/rescaled_final/0418_fw.mp4	0.0	399.6932120323181	0.9918529987335205
73	308.98754596710205	movie	1		248	71.0	2.5	/experiments/knapen_AOT/AOT_stimuli/rescaled_final/0418_fw.mp4	0.0	400.68506503105164	2.5003960132598877
73	309.3795528411865	pulse	1	t		71.0	2.5	/experiments/knapen_AOT/AOT_stimuli/rescaled_final/0418_fw.mp4	0.0	401.0770719051361	
73	310.9797148704529	pulse	1	t		71.0	2.5	/experiments/knapen_AOT/AOT_stimuli/rescaled_final/0418_fw.mp4	0.0	402.67723393440247	
73	311.48794198036194	fix_post	2		12	71.0	2.5	/experiments/knapen_AOT/AOT_stimuli/rescaled_final/0418_fw.mp4	0.0	403.1854610443115	0.09998202323913574
74	311.5879240036011	fix_pre	0		120	72.0	2.5	/experiments/knapen_AOT/AOT_stimuli/rescaled_final/1860_rv.mp4	0.0	403.28544306755066	1.0001909732818604
74	312.5799460411072	pulse	0	t		72.0	2.5	/experiments/knapen_AOT/AOT_stimuli/rescaled_final/1860_rv.mp4	0.0	404.27746510505676	
74	312.58811497688293	movie	1		248	72.0	2.5	/experiments/knapen_AOT/AOT_stimuli/rescaled_final/1860_rv.mp4	0.0	404.2856340408325	2.5086669921875
74	314.185035943985	pulse	1	t		72.0	2.5	/experiments/knapen_AOT/AOT_stimuli/rescaled_final/1860_rv.mp4	0.0	405.88255500793457	
74	315.09678196907043	fix_post	2		12	72.0	2.5	/experiments/knapen_AOT/AOT_stimuli/rescaled_final/1860_rv.mp4	0.0	406.79430103302	0.09999895095825195
75	315.1967809200287	fix_pre	0		120	73.0	2.5	/experiments/knapen_AOT/AOT_stimuli/rescaled_final/0783_rv.mp4	0.0	406.89429998397827	1.0001590251922607
75	315.7804000377655	pulse	0	t		73.0	2.5	/experiments/knapen_AOT/AOT_stimuli/rescaled_final/0783_rv.mp4	0.0	407.4779191017151	
75	316.19693994522095	movie	1		245	73.0	2.5	/experiments/knapen_AOT/AOT_stimuli/rescaled_final/0783_rv.mp4	0.0	407.89445900917053	2.5003700256347656
75	317.3808870315552	pulse	1	t		73.0	2.5	/experiments/knapen_AOT/AOT_stimuli/rescaled_final/0783_rv.mp4	0.0	409.07840609550476	
75	318.6973099708557	fix_post	2		12	73.0	2.5	/experiments/knapen_AOT/AOT_stimuli/rescaled_final/0783_rv.mp4	0.0	410.3948290348053	0.10002303123474121
76	318.79733300209045	fix_pre	0		120	74.0	2.5	/experiments/knapen_AOT/AOT_stimuli/rescaled_final/2114_fw.mp4	0.0	410.49485206604004	1.0001640319824219
76	318.9809868335724	pulse	0	t		74.0	2.5	/experiments/knapen_AOT/AOT_stimuli/rescaled_final/2114_fw.mp4	0.0	410.678505897522	
76	319.7974970340729	movie	1		245	74.0	2.5	/experiments/knapen_AOT/AOT_stimuli/rescaled_final/2114_fw.mp4	0.0	411.49501609802246	2.500377893447876
76	320.58114290237427	pulse	1	t		74.0	2.5	/experiments/knapen_AOT/AOT_stimuli/rescaled_final/2114_fw.mp4	0.0	412.27866196632385	
76	322.1789929866791	pulse	1	t		74.0	2.5	/experiments/knapen_AOT/AOT_stimuli/rescaled_final/2114_fw.mp4	0.0	413.87651205062866	
76	322.29787492752075	fix_post	2		12	74.0	2.5	/experiments/knapen_AOT/AOT_stimuli/rescaled_final/2114_fw.mp4	0.0	413.99539399147034	0.09998106956481934
77	322.39785599708557	fix_pre	0		120	75.0	2.5	/experiments/knapen_AOT/AOT_stimuli/rescaled_final/0035_rv.mp4	0.0	414.09537506103516	1.0001649856567383
77	323.3980209827423	movie	1		243	75.0	2.5	/experiments/knapen_AOT/AOT_stimuli/rescaled_final/0035_rv.mp4	0.0	415.0955400466919	2.49210786819458
77	323.7864508628845	pulse	1	t		75.0	2.5	/experiments/knapen_AOT/AOT_stimuli/rescaled_final/0035_rv.mp4	0.0	415.4839699268341	
77	325.3819830417633	pulse	1	t		75.0	2.5	/experiments/knapen_AOT/AOT_stimuli/rescaled_final/0035_rv.mp4	0.0	417.0795021057129	
77	325.8901288509369	fix_post	2		12	75.0	2.5	/experiments/knapen_AOT/AOT_stimuli/rescaled_final/0035_rv.mp4	0.0	417.5876479148865	0.0999441146850586
78	325.99007296562195	fix_pre	0		120	76.0	2.5	blank	1.0	417.68759202957153	1.0001819133758545
78	326.9821050167084	pulse	0	t		76.0	2.5	blank	1.0	418.67962408065796	
78	326.9902548789978	movie	1		301	76.0	2.5	blank	1.0	418.6877739429474	2.5086750984191895
78	328.5823998451233	pulse	1	t		76.0	2.5	blank	1.0	420.2799189090729	
78	329.498929977417	fix_post	2		12	76.0	2.5	blank	1.0	421.1964490413666	0.10000300407409668
79	329.5989329814911	fix_pre	0		120	77.0	2.5	/experiments/knapen_AOT/AOT_stimuli/rescaled_final/0154_rv.mp4	0.0	421.2964520454407	1.000148057937622
79	330.1825108528137	pulse	0	t		77.0	2.5	/experiments/knapen_AOT/AOT_stimuli/rescaled_final/0154_rv.mp4	0.0	421.8800299167633	
79	330.5990810394287	movie	1		245	77.0	2.5	/experiments/knapen_AOT/AOT_stimuli/rescaled_final/0154_rv.mp4	0.0	422.2966001033783	2.500372886657715
79	331.77894401550293	pulse	1	t		77.0	2.5	/experiments/knapen_AOT/AOT_stimuli/rescaled_final/0154_rv.mp4	0.0	423.4764630794525	
79	333.0994539260864	fix_post	2		12	77.0	2.5	/experiments/knapen_AOT/AOT_stimuli/rescaled_final/0154_rv.mp4	0.0	424.796972990036	0.10002803802490234
80	333.1994819641113	fix_pre	0		120	78.0	2.5	/experiments/knapen_AOT/AOT_stimuli/rescaled_final/1747_rv.mp4	0.0	424.8970010280609	1.0001800060272217
80	333.3830978870392	pulse	0	t		78.0	2.5	/experiments/knapen_AOT/AOT_stimuli/rescaled_final/1747_rv.mp4	0.0	425.08061695098877	
80	334.19966197013855	movie	1		243	78.0	2.5	/experiments/knapen_AOT/AOT_stimuli/rescaled_final/1747_rv.mp4	0.0	425.89718103408813	2.500307083129883
80	334.9832580089569	pulse	1	t		78.0	2.5	/experiments/knapen_AOT/AOT_stimuli/rescaled_final/1747_rv.mp4	0.0	426.6807770729065	
80	336.58340883255005	pulse	1	t		78.0	2.5	/experiments/knapen_AOT/AOT_stimuli/rescaled_final/1747_rv.mp4	0.0	428.28092789649963	
80	336.69996905326843	fix_post	2		12	78.0	2.5	/experiments/knapen_AOT/AOT_stimuli/rescaled_final/1747_rv.mp4	0.0	428.397488117218	0.10004591941833496
81	336.80001497268677	fix_pre	0		119	79.0	2.5	/experiments/knapen_AOT/AOT_stimuli/rescaled_final/0792_rv.mp4	0.0	428.49753403663635	0.9918379783630371
81	337.7918529510498	movie	1		244	79.0	2.5	/experiments/knapen_AOT/AOT_stimuli/rescaled_final/0792_rv.mp4	0.0	429.4893720149994	2.5003750324249268
81	338.1839828491211	pulse	1	t		79.0	2.5	/experiments/knapen_AOT/AOT_stimuli/rescaled_final/0792_rv.mp4	0.0	429.8815019130707	
81	339.78409004211426	pulse	1	t		79.0	2.5	/experiments/knapen_AOT/AOT_stimuli/rescaled_final/0792_rv.mp4	0.0	431.48160910606384	
81	340.29222798347473	fix_post	2		12	79.0	2.5	/experiments/knapen_AOT/AOT_stimuli/rescaled_final/0792_rv.mp4	0.0	431.9897470474243	0.09997987747192383
82	340.39220786094666	fix_pre	0		120	80.0	2.5	/experiments/knapen_AOT/AOT_stimuli/rescaled_final/2088_rv.mp4	0.0	432.08972692489624	1.0001580715179443
82	341.38425493240356	pulse	0	t		80.0	2.5	/experiments/knapen_AOT/AOT_stimuli/rescaled_final/2088_rv.mp4	0.0	433.08177399635315	
82	341.3923659324646	movie	1		246	80.0	2.5	/experiments/knapen_AOT/AOT_stimuli/rescaled_final/2088_rv.mp4	0.0	433.0898849964142	2.508739948272705
82	342.9849889278412	pulse	1	t		80.0	2.5	/experiments/knapen_AOT/AOT_stimuli/rescaled_final/2088_rv.mp4	0.0	434.68250799179077	
82	343.9011058807373	fix_post	2		12	80.0	2.5	/experiments/knapen_AOT/AOT_stimuli/rescaled_final/2088_rv.mp4	0.0	435.5986249446869	0.10001897811889648
83	344.0011248588562	fix_pre	0		120	81.0	2.5	/experiments/knapen_AOT/AOT_stimuli/rescaled_final/1245_rv.mp4	0.0	435.6986439228058	1.0001211166381836
83	344.5771608352661	pulse	0	t		81.0	2.5	/experiments/knapen_AOT/AOT_stimuli/rescaled_final/1245_rv.mp4	0.0	436.2746798992157	
83	345.0012459754944	movie	1		244	81.0	2.5	/experiments/knapen_AOT/AOT_stimuli/rescaled_final/1245_rv.mp4	0.0	436.69876503944397	2.5003650188446045
83	346.17792987823486	pulse	1	t		81.0	2.5	/experiments/knapen_AOT/AOT_stimuli/rescaled_final/1245_rv.mp4	0.0	437.87544894218445	
83	347.501610994339	fix_post	2		12	81.0	2.5	/experiments/knapen_AOT/AOT_stimuli/rescaled_final/1245_rv.mp4	0.0	439.1991300582886	0.10001492500305176
84	347.60162591934204	fix_pre	0		120	82.0	2.5	/experiments/knapen_AOT/AOT_stimuli/rescaled_final/1546_rv.mp4	0.0	439.2991449832916	1.000140905380249
84	347.777694940567	pulse	0	t		82.0	2.5	/experiments/knapen_AOT/AOT_stimuli/rescaled_final/1546_rv.mp4	0.0	439.4752140045166	
84	348.6017668247223	movie	1		244	82.0	2.5	/experiments/knapen_AOT/AOT_stimuli/rescaled_final/1546_rv.mp4	0.0	440.2992858886719	2.5003840923309326
84	349.3770878314972	pulse	1	t		82.0	2.5	/experiments/knapen_AOT/AOT_stimuli/rescaled_final/1546_rv.mp4	0.0	441.0746068954468	
84	350.977294921875	pulse	1	t		82.0	2.5	/experiments/knapen_AOT/AOT_stimuli/rescaled_final/1546_rv.mp4	0.0	442.6748139858246	
84	351.1021509170532	fix_post	2		12	82.0	2.5	/experiments/knapen_AOT/AOT_stimuli/rescaled_final/1546_rv.mp4	0.0	442.7996699810028	0.10000300407409668
85	351.2021539211273	fix_pre	0		120	83.0	2.5	blank	1.0	442.8996729850769	1.0001509189605713
85	352.2023048400879	movie	1		299	83.0	2.5	blank	1.0	443.8998239040375	2.4920361042022705
85	352.5774919986725	pulse	1	t		83.0	2.5	blank	1.0	444.27501106262207	
85	354.17782497406006	pulse	1	t		83.0	2.5	blank	1.0	445.87534403800964	
85	354.69434094429016	fix_post	2		12	83.0	2.5	blank	1.0	446.39186000823975	0.10005688667297363
87	354.79439783096313	stim	0		1716					446.4919168949127	14.3021821975708
87	355.7781980037689	pulse	0	t						447.4757170677185	
87	357.37829303741455	pulse	0	t						449.07581210136414	
87	358.97842597961426	pulse	0	t						450.67594504356384	
87	360.57874488830566	pulse	0	t						452.27626395225525	
87	362.17900705337524	pulse	0	t						453.87652611732483	
87	363.77929401397705	pulse	0	t						455.47681307792664	
87	365.3793580532074	pulse	0	t						457.076877117157	
87	366.97967004776	pulse	0	t						458.6771891117096	
87	368.57997584342957	pulse	0	t						460.27749490737915	
