trial_nr	onset	event_type	phase	response	nr_frames	movie_index	movie_duration	movie_file	blank	onset_abs	duration
0	0.16660022735595703	stim	0		7					14.285805225372314	0.058258771896362305
0	0.21669268608093262	response	0	space						14.33589768409729	
1	0.22485899925231934	stim	0		4513					14.344063997268677	37.62670683860779
1	37.836918354034424	pulse	0	t						51.95612335205078	
1	37.85156583786011	stim	1		1715					51.970770835876465	14.297718048095703
1	39.43082237243652	pulse	1	t						53.55002737045288	
1	41.03106665611267	pulse	1	t						55.15027165412903	
1	42.63128304481506	pulse	1	t						56.75048804283142	
1	44.231531858444214	pulse	1	t						58.35073685646057	
1	45.831782579422	pulse	1	t						59.950987577438354	
1	47.432005167007446	pulse	1	t						61.551210165023804	
1	49.03226923942566	pulse	1	t						63.15147423744202	
1	50.632479190826416	pulse	1	t						64.75168418884277	
2	52.14928388595581	fix_pre	0		11	0.0	2.5	/experiments/Knapen_AOT/AOT_stimuli/rescaled_final/0790_fw.mp4	0.0	66.26848888397217	0.10009145736694336
2	52.23275089263916	pulse	0	t		0.0	2.5	/experiments/Knapen_AOT/AOT_stimuli/rescaled_final/0790_fw.mp4	0.0	66.35195589065552	
2	52.249375343322754	movie	1		300	0.0	2.5	/experiments/Knapen_AOT/AOT_stimuli/rescaled_final/0790_fw.mp4	0.0	66.36858034133911	2.500293731689453
2	53.82916831970215	pulse	1	t		0.0	2.5	/experiments/Knapen_AOT/AOT_stimuli/rescaled_final/0790_fw.mp4	0.0	67.9483733177185	
2	54.74966907501221	fix_post	2		12	0.0	2.5	/experiments/Knapen_AOT/AOT_stimuli/rescaled_final/0790_fw.mp4	0.0	68.86887407302856	0.10002422332763672
3	54.849693298339844	fix_pre	0		120	1.0	2.5	/experiments/Knapen_AOT/AOT_stimuli/rescaled_final/1067_fw.mp4	0.0	68.9688982963562	1.0001609325408936
3	55.4332492351532	pulse	0	t		1.0	2.5	/experiments/Knapen_AOT/AOT_stimuli/rescaled_final/1067_fw.mp4	0.0	69.55245423316956	
3	55.84985423088074	movie	1		300	1.0	2.5	/experiments/Knapen_AOT/AOT_stimuli/rescaled_final/1067_fw.mp4	0.0	69.9690592288971	2.5003607273101807
3	57.029093503952026	pulse	1	t		1.0	2.5	/experiments/Knapen_AOT/AOT_stimuli/rescaled_final/1067_fw.mp4	0.0	71.14829850196838	
3	58.35021495819092	fix_post	2		12	1.0	2.5	/experiments/Knapen_AOT/AOT_stimuli/rescaled_final/1067_fw.mp4	0.0	72.46941995620728	0.10003042221069336
4	58.45024538040161	fix_pre	0		120	2.0	2.5	/experiments/Knapen_AOT/AOT_stimuli/rescaled_final/1294_rv.mp4	0.0	72.56945037841797	1.00016188621521
4	58.63374924659729	pulse	0	t		2.0	2.5	/experiments/Knapen_AOT/AOT_stimuli/rescaled_final/1294_rv.mp4	0.0	72.75295424461365	
4	59.45040726661682	movie	1		300	2.0	2.5	/experiments/Knapen_AOT/AOT_stimuli/rescaled_final/1294_rv.mp4	0.0	73.56961226463318	2.5003559589385986
4	60.22971773147583	pulse	1	t		2.0	2.5	/experiments/Knapen_AOT/AOT_stimuli/rescaled_final/1294_rv.mp4	0.0	74.34892272949219	
4	61.8298556804657	pulse	1	t		2.0	2.5	/experiments/Knapen_AOT/AOT_stimuli/rescaled_final/1294_rv.mp4	0.0	75.94906067848206	
4	61.95076322555542	fix_post	2		12	2.0	2.5	/experiments/Knapen_AOT/AOT_stimuli/rescaled_final/1294_rv.mp4	0.0	76.06996822357178	0.10003161430358887
5	62.05079483985901	fix_pre	0		120	3.0	2.5	/experiments/Knapen_AOT/AOT_stimuli/rescaled_final/0903_rv.mp4	0.0	76.16999983787537	1.0001280307769775
5	63.050922870635986	movie	1		299	3.0	2.5	/experiments/Knapen_AOT/AOT_stimuli/rescaled_final/0903_rv.mp4	0.0	77.17012786865234	2.4920620918273926
5	63.43042540550232	pulse	1	t		3.0	2.5	/experiments/Knapen_AOT/AOT_stimuli/rescaled_final/0903_rv.mp4	0.0	77.54963040351868	
5	65.03039050102234	pulse	1	t		3.0	2.5	/experiments/Knapen_AOT/AOT_stimuli/rescaled_final/0903_rv.mp4	0.0	79.1495954990387	
5	65.54298496246338	fix_post	2		12	3.0	2.5	/experiments/Knapen_AOT/AOT_stimuli/rescaled_final/0903_rv.mp4	0.0	79.66218996047974	0.09999680519104004
6	65.64298176765442	fix_pre	0		119	4.0	2.5	/experiments/Knapen_AOT/AOT_stimuli/rescaled_final/0710_rv.mp4	0.0	79.76218676567078	0.9921565055847168
6	66.62675380706787	pulse	0	t		4.0	2.5	/experiments/Knapen_AOT/AOT_stimuli/rescaled_final/0710_rv.mp4	0.0	80.74595880508423	
6	66.63513827323914	movie	1		301	4.0	2.5	/experiments/Knapen_AOT/AOT_stimuli/rescaled_final/0710_rv.mp4	0.0	80.7543432712555	2.508364200592041
6	68.22689723968506	pulse	1	t		4.0	2.5	/experiments/Knapen_AOT/AOT_stimuli/rescaled_final/0710_rv.mp4	0.0	82.34610223770142	
6	69.14350247383118	fix_post	2		12	4.0	2.5	/experiments/Knapen_AOT/AOT_stimuli/rescaled_final/0710_rv.mp4	0.0	83.26270747184753	0.1000204086303711
7	69.24352288246155	fix_pre	0		120	5.0	2.5	/experiments/Knapen_AOT/AOT_stimuli/rescaled_final/0472_fw.mp4	0.0	83.3627278804779	1.0001487731933594
7	69.8270845413208	pulse	0	t		5.0	2.5	/experiments/Knapen_AOT/AOT_stimuli/rescaled_final/0472_fw.mp4	0.0	83.94628953933716	
7	70.24367165565491	movie	1		300	5.0	2.5	/experiments/Knapen_AOT/AOT_stimuli/rescaled_final/0472_fw.mp4	0.0	84.36287665367126	2.5003998279571533
7	71.42744088172913	pulse	1	t		5.0	2.5	/experiments/Knapen_AOT/AOT_stimuli/rescaled_final/0472_fw.mp4	0.0	85.54664587974548	
7	72.74407148361206	fix_post	2		12	5.0	2.5	/experiments/Knapen_AOT/AOT_stimuli/rescaled_final/0472_fw.mp4	0.0	86.86327648162842	0.10000753402709961
8	72.84407901763916	fix_pre	0		120	6.0	2.5	blank	1.0	86.96328401565552	1.000187873840332
8	73.02755641937256	pulse	0	t		6.0	2.5	blank	1.0	87.14676141738892	
8	73.84426689147949	movie	1		300	6.0	2.5	blank	1.0	87.96347188949585	2.500319004058838
8	74.62778234481812	pulse	1	t		6.0	2.5	blank	1.0	88.74698734283447	
8	76.22802186012268	pulse	1	t		6.0	2.5	blank	1.0	90.34722685813904	
8	76.34458589553833	fix_post	2		12	6.0	2.5	blank	1.0	90.46379089355469	0.1000511646270752
9	76.4446370601654	fix_pre	0		120	7.0	2.5	/experiments/Knapen_AOT/AOT_stimuli/rescaled_final/0317_rv.mp4	0.0	90.56384205818176	1.0002408027648926
9	77.4448778629303	movie	1		300	7.0	2.5	/experiments/Knapen_AOT/AOT_stimuli/rescaled_final/0317_rv.mp4	0.0	91.56408286094666	2.5002505779266357
9	77.82831764221191	pulse	1	t		7.0	2.5	/experiments/Knapen_AOT/AOT_stimuli/rescaled_final/0317_rv.mp4	0.0	91.94752264022827	
9	79.42853617668152	pulse	1	t		7.0	2.5	/experiments/Knapen_AOT/AOT_stimuli/rescaled_final/0317_rv.mp4	0.0	93.54774117469788	
9	79.94512844085693	fix_post	2		12	7.0	2.5	/experiments/Knapen_AOT/AOT_stimuli/rescaled_final/0317_rv.mp4	0.0	94.06433343887329	0.10002398490905762
10	80.04515242576599	fix_pre	0		119	8.0	2.5	/experiments/Knapen_AOT/AOT_stimuli/rescaled_final/0794_fw.mp4	0.0	94.16435742378235	0.9921772480010986
10	81.02874302864075	pulse	0	t		8.0	2.5	/experiments/Knapen_AOT/AOT_stimuli/rescaled_final/0794_fw.mp4	0.0	95.1479480266571	
10	81.03732967376709	movie	1		301	8.0	2.5	/experiments/Knapen_AOT/AOT_stimuli/rescaled_final/0794_fw.mp4	0.0	95.15653467178345	2.50834321975708
10	82.62906050682068	pulse	1	t		8.0	2.5	/experiments/Knapen_AOT/AOT_stimuli/rescaled_final/0794_fw.mp4	0.0	96.74826550483704	
10	83.54567289352417	fix_post	2		12	8.0	2.5	/experiments/Knapen_AOT/AOT_stimuli/rescaled_final/0794_fw.mp4	0.0	97.66487789154053	0.100067138671875
11	83.64574003219604	fix_pre	0		120	9.0	2.5	/experiments/Knapen_AOT/AOT_stimuli/rescaled_final/2167_fw.mp4	0.0	97.7649450302124	1.000091791152954
11	84.22927641868591	pulse	0	t		9.0	2.5	/experiments/Knapen_AOT/AOT_stimuli/rescaled_final/2167_fw.mp4	0.0	98.34848141670227	
11	84.645831823349	movie	1		300	9.0	2.5	/experiments/Knapen_AOT/AOT_stimuli/rescaled_final/2167_fw.mp4	0.0	98.76503682136536	2.5003859996795654
11	85.82949042320251	pulse	1	t		9.0	2.5	/experiments/Knapen_AOT/AOT_stimuli/rescaled_final/2167_fw.mp4	0.0	99.94869542121887	
11	87.14621782302856	fix_post	2		12	9.0	2.5	/experiments/Knapen_AOT/AOT_stimuli/rescaled_final/2167_fw.mp4	0.0	101.26542282104492	0.10001540184020996
12	87.24623322486877	fix_pre	0		120	10.0	2.5	/experiments/Knapen_AOT/AOT_stimuli/rescaled_final/1661_rv.mp4	0.0	101.36543822288513	1.0001533031463623
12	87.42970180511475	pulse	0	t		10.0	2.5	/experiments/Knapen_AOT/AOT_stimuli/rescaled_final/1661_rv.mp4	0.0	101.5489068031311	
12	88.24638652801514	movie	1		300	10.0	2.5	/experiments/Knapen_AOT/AOT_stimuli/rescaled_final/1661_rv.mp4	0.0	102.3655915260315	2.500450611114502
12	89.02998447418213	pulse	1	t		10.0	2.5	/experiments/Knapen_AOT/AOT_stimuli/rescaled_final/1661_rv.mp4	0.0	103.14918947219849	
12	90.63021302223206	pulse	1	t		10.0	2.5	/experiments/Knapen_AOT/AOT_stimuli/rescaled_final/1661_rv.mp4	0.0	104.74941802024841	
12	90.74683713912964	fix_post	2		12	10.0	2.5	/experiments/Knapen_AOT/AOT_stimuli/rescaled_final/1661_rv.mp4	0.0	104.866042137146	0.09993267059326172
13	90.8467698097229	fix_pre	0		120	11.0	2.5	/experiments/Knapen_AOT/AOT_stimuli/rescaled_final/1391_rv.mp4	0.0	104.96597480773926	1.000150203704834
13	91.84692001342773	movie	1		298	11.0	2.5	/experiments/Knapen_AOT/AOT_stimuli/rescaled_final/1391_rv.mp4	0.0	105.96612501144409	2.4920473098754883
13	92.23058462142944	pulse	1	t		11.0	2.5	/experiments/Knapen_AOT/AOT_stimuli/rescaled_final/1391_rv.mp4	0.0	106.3497896194458	
13	93.83068919181824	pulse	1	t		11.0	2.5	/experiments/Knapen_AOT/AOT_stimuli/rescaled_final/1391_rv.mp4	0.0	107.9498941898346	
13	94.33896732330322	fix_post	2		12	11.0	2.5	/experiments/Knapen_AOT/AOT_stimuli/rescaled_final/1391_rv.mp4	0.0	108.45817232131958	0.10004305839538574
14	94.43901038169861	fix_pre	0		120	12.0	2.5	/experiments/Knapen_AOT/AOT_stimuli/rescaled_final/0903_rv.mp4	0.0	108.55821537971497	1.0002422332763672
14	95.43090796470642	pulse	0	t		12.0	2.5	/experiments/Knapen_AOT/AOT_stimuli/rescaled_final/0903_rv.mp4	0.0	109.55011296272278	
14	95.43925261497498	movie	1		301	12.0	2.5	/experiments/Knapen_AOT/AOT_stimuli/rescaled_final/0903_rv.mp4	0.0	109.55845761299133	2.508594274520874
14	97.02744555473328	pulse	1	t		12.0	2.5	/experiments/Knapen_AOT/AOT_stimuli/rescaled_final/0903_rv.mp4	0.0	111.14665055274963	
14	97.94784688949585	fix_post	2		12	12.0	2.5	/experiments/Knapen_AOT/AOT_stimuli/rescaled_final/0903_rv.mp4	0.0	112.0670518875122	0.10003209114074707
15	98.0478789806366	fix_pre	0		120	13.0	2.5	blank	1.0	112.16708397865295	1.0001225471496582
15	98.631432056427	pulse	0	t		13.0	2.5	blank	1.0	112.75063705444336	
15	99.04800152778625	movie	1		300	13.0	2.5	blank	1.0	113.16720652580261	2.5003888607025146
15	100.23162913322449	pulse	1	t		13.0	2.5	blank	1.0	114.35083413124084	
15	101.54839038848877	fix_post	2		12	13.0	2.5	blank	1.0	115.66759538650513	0.10003805160522461
16	101.648428440094	fix_pre	0		120	14.0	2.5	/experiments/Knapen_AOT/AOT_stimuli/rescaled_final/0230_fw.mp4	0.0	115.76763343811035	1.0001280307769775
16	101.831871509552	pulse	0	t		14.0	2.5	/experiments/Knapen_AOT/AOT_stimuli/rescaled_final/0230_fw.mp4	0.0	115.95107650756836	
16	102.64855647087097	movie	1		300	14.0	2.5	/experiments/Knapen_AOT/AOT_stimuli/rescaled_final/0230_fw.mp4	0.0	116.76776146888733	2.5004160404205322
16	103.42773842811584	pulse	1	t		14.0	2.5	/experiments/Knapen_AOT/AOT_stimuli/rescaled_final/0230_fw.mp4	0.0	117.5469434261322	
16	105.02806949615479	pulse	1	t		14.0	2.5	/experiments/Knapen_AOT/AOT_stimuli/rescaled_final/0230_fw.mp4	0.0	119.14727449417114	
16	105.1489725112915	fix_post	2		12	14.0	2.5	/experiments/Knapen_AOT/AOT_stimuli/rescaled_final/0230_fw.mp4	0.0	119.26817750930786	0.1000216007232666
17	105.24899411201477	fix_pre	0		120	15.0	2.5	/experiments/Knapen_AOT/AOT_stimuli/rescaled_final/1076_fw.mp4	0.0	119.36819911003113	1.0000712871551514
17	106.24906539916992	movie	1		298	15.0	2.5	/experiments/Knapen_AOT/AOT_stimuli/rescaled_final/1076_fw.mp4	0.0	120.36827039718628	2.492064952850342
17	106.62852954864502	pulse	1	t		15.0	2.5	/experiments/Knapen_AOT/AOT_stimuli/rescaled_final/1076_fw.mp4	0.0	120.74773454666138	
17	108.22850203514099	pulse	1	t		15.0	2.5	/experiments/Knapen_AOT/AOT_stimuli/rescaled_final/1076_fw.mp4	0.0	122.34770703315735	
17	108.74113035202026	fix_post	2		12	15.0	2.5	/experiments/Knapen_AOT/AOT_stimuli/rescaled_final/1076_fw.mp4	0.0	122.86033535003662	0.10004138946533203
18	108.8411717414856	fix_pre	0		120	16.0	2.5	/experiments/Knapen_AOT/AOT_stimuli/rescaled_final/0790_rv.mp4	0.0	122.96037673950195	1.000227451324463
18	109.83309578895569	pulse	0	t		16.0	2.5	/experiments/Knapen_AOT/AOT_stimuli/rescaled_final/0790_rv.mp4	0.0	123.95230078697205	
18	109.84139919281006	movie	1		301	16.0	2.5	/experiments/Knapen_AOT/AOT_stimuli/rescaled_final/0790_rv.mp4	0.0	123.96060419082642	2.508617639541626
18	111.42975997924805	pulse	1	t		16.0	2.5	/experiments/Knapen_AOT/AOT_stimuli/rescaled_final/0790_rv.mp4	0.0	125.5489649772644	
18	112.35001683235168	fix_post	2		12	16.0	2.5	/experiments/Knapen_AOT/AOT_stimuli/rescaled_final/0790_rv.mp4	0.0	126.46922183036804	0.10001993179321289
19	112.4500367641449	fix_pre	0		120	17.0	2.5	/experiments/Knapen_AOT/AOT_stimuli/rescaled_final/2020_rv.mp4	0.0	126.56924176216125	1.0001587867736816
19	113.03358268737793	pulse	0	t		17.0	2.5	/experiments/Knapen_AOT/AOT_stimuli/rescaled_final/2020_rv.mp4	0.0	127.15278768539429	
19	113.45019555091858	movie	1		299	17.0	2.5	/experiments/Knapen_AOT/AOT_stimuli/rescaled_final/2020_rv.mp4	0.0	127.56940054893494	2.500361680984497
19	114.62955856323242	pulse	1	t		17.0	2.5	/experiments/Knapen_AOT/AOT_stimuli/rescaled_final/2020_rv.mp4	0.0	128.74876356124878	
19	115.95055723190308	fix_post	2		12	17.0	2.5	/experiments/Knapen_AOT/AOT_stimuli/rescaled_final/2020_rv.mp4	0.0	130.06976222991943	0.10001349449157715
20	116.05057072639465	fix_pre	0		120	18.0	2.5	/experiments/Knapen_AOT/AOT_stimuli/rescaled_final/0998_rv.mp4	0.0	130.169775724411	1.0001697540283203
20	116.23408007621765	pulse	0	t		18.0	2.5	/experiments/Knapen_AOT/AOT_stimuli/rescaled_final/0998_rv.mp4	0.0	130.353285074234	
20	117.05074048042297	movie	1		300	18.0	2.5	/experiments/Knapen_AOT/AOT_stimuli/rescaled_final/0998_rv.mp4	0.0	131.16994547843933	2.5003550052642822
20	117.83002161979675	pulse	1	t		18.0	2.5	/experiments/Knapen_AOT/AOT_stimuli/rescaled_final/0998_rv.mp4	0.0	131.9492266178131	
20	119.43020796775818	pulse	1	t		18.0	2.5	/experiments/Knapen_AOT/AOT_stimuli/rescaled_final/0998_rv.mp4	0.0	133.54941296577454	
20	119.55109548568726	fix_post	2		12	18.0	2.5	/experiments/Knapen_AOT/AOT_stimuli/rescaled_final/0998_rv.mp4	0.0	133.6703004837036	0.10001873970031738
21	119.65111422538757	fix_pre	0		120	19.0	2.5	/experiments/Knapen_AOT/AOT_stimuli/rescaled_final/0998_fw.mp4	0.0	133.77031922340393	1.0001485347747803
21	120.65126276016235	movie	1		299	19.0	2.5	/experiments/Knapen_AOT/AOT_stimuli/rescaled_final/0998_fw.mp4	0.0	134.7704677581787	2.492042064666748
21	121.03072881698608	pulse	1	t		19.0	2.5	/experiments/Knapen_AOT/AOT_stimuli/rescaled_final/0998_fw.mp4	0.0	135.14993381500244	
21	122.63091278076172	pulse	1	t		19.0	2.5	/experiments/Knapen_AOT/AOT_stimuli/rescaled_final/0998_fw.mp4	0.0	136.75011777877808	
21	123.1433048248291	fix_post	2		12	19.0	2.5	/experiments/Knapen_AOT/AOT_stimuli/rescaled_final/0998_fw.mp4	0.0	137.26250982284546	0.10001826286315918
22	123.24332308769226	fix_pre	0		120	20.0	2.5	blank	1.0	137.36252808570862	1.0001494884490967
22	124.22747540473938	pulse	0	t		20.0	2.5	blank	1.0	138.34668040275574	
22	124.24347257614136	movie	1		301	20.0	2.5	blank	1.0	138.36267757415771	2.5086982250213623
22	125.827157497406	pulse	1	t		20.0	2.5	blank	1.0	139.94636249542236	
22	126.75217080116272	fix_post	2		12	20.0	2.5	blank	1.0	140.87137579917908	0.1000213623046875
23	126.85219216346741	fix_pre	0		120	21.0	2.5	/experiments/Knapen_AOT/AOT_stimuli/rescaled_final/1895_rv.mp4	0.0	140.97139716148376	1.0001542568206787
23	127.42741918563843	pulse	0	t		21.0	2.5	/experiments/Knapen_AOT/AOT_stimuli/rescaled_final/1895_rv.mp4	0.0	141.54662418365479	
23	127.85234642028809	movie	1		300	21.0	2.5	/experiments/Knapen_AOT/AOT_stimuli/rescaled_final/1895_rv.mp4	0.0	141.97155141830444	2.500373363494873
23	129.0276792049408	pulse	1	t		21.0	2.5	/experiments/Knapen_AOT/AOT_stimuli/rescaled_final/1895_rv.mp4	0.0	143.14688420295715	
23	130.35271978378296	fix_post	2		12	21.0	2.5	/experiments/Knapen_AOT/AOT_stimuli/rescaled_final/1895_rv.mp4	0.0	144.47192478179932	0.10001468658447266
24	130.45273447036743	fix_pre	0		120	22.0	2.5	/experiments/Knapen_AOT/AOT_stimuli/rescaled_final/1510_rv.mp4	0.0	144.5719394683838	1.0001773834228516
24	130.62789106369019	pulse	0	t		22.0	2.5	/experiments/Knapen_AOT/AOT_stimuli/rescaled_final/1510_rv.mp4	0.0	144.74709606170654	
24	131.45291185379028	movie	1		300	22.0	2.5	/experiments/Knapen_AOT/AOT_stimuli/rescaled_final/1510_rv.mp4	0.0	145.57211685180664	2.5003738403320312
24	132.22816443443298	pulse	1	t		22.0	2.5	/experiments/Knapen_AOT/AOT_stimuli/rescaled_final/1510_rv.mp4	0.0	146.34736943244934	
24	133.82846236228943	pulse	1	t		22.0	2.5	/experiments/Knapen_AOT/AOT_stimuli/rescaled_final/1510_rv.mp4	0.0	147.9476673603058	
24	133.95328569412231	fix_post	2		12	22.0	2.5	/experiments/Knapen_AOT/AOT_stimuli/rescaled_final/1510_rv.mp4	0.0	148.07249069213867	0.1000216007232666
25	134.05330729484558	fix_pre	0		120	23.0	2.5	/experiments/Knapen_AOT/AOT_stimuli/rescaled_final/0257_rv.mp4	0.0	148.17251229286194	1.0001249313354492
25	135.05343222618103	movie	1		299	23.0	2.5	/experiments/Knapen_AOT/AOT_stimuli/rescaled_final/0257_rv.mp4	0.0	149.1726372241974	2.4920570850372314
25	135.42869901657104	pulse	1	t		23.0	2.5	/experiments/Knapen_AOT/AOT_stimuli/rescaled_final/0257_rv.mp4	0.0	149.5479040145874	
25	137.02887392044067	pulse	1	t		23.0	2.5	/experiments/Knapen_AOT/AOT_stimuli/rescaled_final/0257_rv.mp4	0.0	151.14807891845703	
25	137.54548931121826	fix_post	2		12	23.0	2.5	/experiments/Knapen_AOT/AOT_stimuli/rescaled_final/0257_rv.mp4	0.0	151.66469430923462	0.09999489784240723
26	137.64548420906067	fix_pre	0		119	24.0	2.5	/experiments/Knapen_AOT/AOT_stimuli/rescaled_final/0268_rv.mp4	0.0	151.76468920707703	1.0002086162567139
26	138.62911772727966	pulse	0	t		24.0	2.5	/experiments/Knapen_AOT/AOT_stimuli/rescaled_final/0268_rv.mp4	0.0	152.74832272529602	
26	138.64569282531738	movie	1		300	24.0	2.5	/experiments/Knapen_AOT/AOT_stimuli/rescaled_final/0268_rv.mp4	0.0	152.76489782333374	2.500328779220581
26	140.2294089794159	pulse	1	t		24.0	2.5	/experiments/Knapen_AOT/AOT_stimuli/rescaled_final/0268_rv.mp4	0.0	154.34861397743225	
26	141.14602160453796	fix_post	2		12	24.0	2.5	/experiments/Knapen_AOT/AOT_stimuli/rescaled_final/0268_rv.mp4	0.0	155.26522660255432	0.10000777244567871
27	141.24602937698364	fix_pre	0		120	25.0	2.5	/experiments/Knapen_AOT/AOT_stimuli/rescaled_final/0890_rv.mp4	0.0	155.365234375	1.0001776218414307
27	141.82955932617188	pulse	0	t		25.0	2.5	/experiments/Knapen_AOT/AOT_stimuli/rescaled_final/0890_rv.mp4	0.0	155.94876432418823	
27	142.24620699882507	movie	1		300	25.0	2.5	/experiments/Knapen_AOT/AOT_stimuli/rescaled_final/0890_rv.mp4	0.0	156.36541199684143	2.5003719329833984
27	143.42983055114746	pulse	1	t		25.0	2.5	/experiments/Knapen_AOT/AOT_stimuli/rescaled_final/0890_rv.mp4	0.0	157.54903554916382	
27	144.74657893180847	fix_post	2		12	25.0	2.5	/experiments/Knapen_AOT/AOT_stimuli/rescaled_final/0890_rv.mp4	0.0	158.86578392982483	0.09999704360961914
28	144.8465759754181	fix_pre	0		120	26.0	2.5	/experiments/Knapen_AOT/AOT_stimuli/rescaled_final/1391_fw.mp4	0.0	158.96578097343445	1.0001449584960938
28	145.0301387310028	pulse	0	t		26.0	2.5	/experiments/Knapen_AOT/AOT_stimuli/rescaled_final/1391_fw.mp4	0.0	159.14934372901917	
28	145.84672093391418	movie	1		300	26.0	2.5	/experiments/Knapen_AOT/AOT_stimuli/rescaled_final/1391_fw.mp4	0.0	159.96592593193054	2.500455141067505
28	146.63030314445496	pulse	1	t		26.0	2.5	/experiments/Knapen_AOT/AOT_stimuli/rescaled_final/1391_fw.mp4	0.0	160.7495081424713	
28	148.23060941696167	pulse	1	t		26.0	2.5	/experiments/Knapen_AOT/AOT_stimuli/rescaled_final/1391_fw.mp4	0.0	162.34981441497803	
28	148.3471760749817	fix_post	2		12	26.0	2.5	/experiments/Knapen_AOT/AOT_stimuli/rescaled_final/1391_fw.mp4	0.0	162.46638107299805	0.09994244575500488
29	148.4471185207367	fix_pre	0		120	27.0	2.5	/experiments/Knapen_AOT/AOT_stimuli/rescaled_final/0091_fw.mp4	0.0	162.56632351875305	1.0001494884490967
29	149.4472680091858	movie	1		300	27.0	2.5	/experiments/Knapen_AOT/AOT_stimuli/rescaled_final/0091_fw.mp4	0.0	163.56647300720215	2.5003838539123535
29	149.8308560848236	pulse	1	t		27.0	2.5	/experiments/Knapen_AOT/AOT_stimuli/rescaled_final/0091_fw.mp4	0.0	163.95006108283997	
29	151.43107914924622	pulse	1	t		27.0	2.5	/experiments/Knapen_AOT/AOT_stimuli/rescaled_final/0091_fw.mp4	0.0	165.55028414726257	
29	151.94765186309814	fix_post	2		12	27.0	2.5	/experiments/Knapen_AOT/AOT_stimuli/rescaled_final/0091_fw.mp4	0.0	166.0668568611145	0.1000068187713623
30	152.0476586818695	fix_pre	0		119	28.0	2.5	blank	1.0	166.16686367988586	0.9918205738067627
30	153.0312557220459	pulse	0	t		28.0	2.5	blank	1.0	167.15046072006226	
30	153.03947925567627	movie	1		301	28.0	2.5	blank	1.0	167.15868425369263	2.508713483810425
30	154.63148641586304	pulse	1	t		28.0	2.5	blank	1.0	168.7506914138794	
30	155.5481927394867	fix_post	2		12	28.0	2.5	blank	1.0	169.66739773750305	0.10001111030578613
31	155.64820384979248	fix_pre	0		120	29.0	2.5	/experiments/Knapen_AOT/AOT_stimuli/rescaled_final/0717_rv.mp4	0.0	169.76740884780884	1.0003361701965332
31	156.23178505897522	pulse	0	t		29.0	2.5	/experiments/Knapen_AOT/AOT_stimuli/rescaled_final/0717_rv.mp4	0.0	170.35099005699158	
31	156.648540019989	movie	1		300	29.0	2.5	/experiments/Knapen_AOT/AOT_stimuli/rescaled_final/0717_rv.mp4	0.0	170.76774501800537	2.5001819133758545
31	157.8276927471161	pulse	1	t		29.0	2.5	/experiments/Knapen_AOT/AOT_stimuli/rescaled_final/0717_rv.mp4	0.0	171.94689774513245	
31	159.14872193336487	fix_post	2		12	29.0	2.5	/experiments/Knapen_AOT/AOT_stimuli/rescaled_final/0717_rv.mp4	0.0	173.26792693138123	0.1000356674194336
32	159.2487576007843	fix_pre	0		120	30.0	2.5	/experiments/Knapen_AOT/AOT_stimuli/rescaled_final/1598_rv.mp4	0.0	173.36796259880066	1.0001320838928223
32	159.43223476409912	pulse	0	t		30.0	2.5	/experiments/Knapen_AOT/AOT_stimuli/rescaled_final/1598_rv.mp4	0.0	173.55143976211548	
32	160.24888968467712	movie	1		300	30.0	2.5	/experiments/Knapen_AOT/AOT_stimuli/rescaled_final/1598_rv.mp4	0.0	174.36809468269348	2.500375509262085
32	161.02804827690125	pulse	1	t		30.0	2.5	/experiments/Knapen_AOT/AOT_stimuli/rescaled_final/1598_rv.mp4	0.0	175.1472532749176	
32	162.62843418121338	pulse	1	t		30.0	2.5	/experiments/Knapen_AOT/AOT_stimuli/rescaled_final/1598_rv.mp4	0.0	176.74763917922974	
32	162.7492651939392	fix_post	2		12	30.0	2.5	/experiments/Knapen_AOT/AOT_stimuli/rescaled_final/1598_rv.mp4	0.0	176.86847019195557	0.1000206470489502
33	162.84928584098816	fix_pre	0		120	31.0	2.5	/experiments/Knapen_AOT/AOT_stimuli/rescaled_final/0496_rv.mp4	0.0	176.96849083900452	1.000145435333252
33	163.8494312763214	movie	1		299	31.0	2.5	/experiments/Knapen_AOT/AOT_stimuli/rescaled_final/0496_rv.mp4	0.0	177.96863627433777	2.4920434951782227
33	164.228853225708	pulse	1	t		31.0	2.5	/experiments/Knapen_AOT/AOT_stimuli/rescaled_final/0496_rv.mp4	0.0	178.34805822372437	
33	165.82874178886414	pulse	1	t		31.0	2.5	/experiments/Knapen_AOT/AOT_stimuli/rescaled_final/0496_rv.mp4	0.0	179.9479467868805	
33	166.34147477149963	fix_post	2		12	31.0	2.5	/experiments/Knapen_AOT/AOT_stimuli/rescaled_final/0496_rv.mp4	0.0	180.460679769516	0.1000068187713623
34	166.441481590271	fix_pre	0		120	32.0	2.5	/experiments/Knapen_AOT/AOT_stimuli/rescaled_final/0940_fw.mp4	0.0	180.56068658828735	1.0006144046783447
34	167.43342471122742	pulse	0	t		32.0	2.5	/experiments/Knapen_AOT/AOT_stimuli/rescaled_final/0940_fw.mp4	0.0	181.55262970924377	
34	167.44209599494934	movie	1		301	32.0	2.5	/experiments/Knapen_AOT/AOT_stimuli/rescaled_final/0940_fw.mp4	0.0	181.5613009929657	2.508258104324341
34	169.02988004684448	pulse	1	t		32.0	2.5	/experiments/Knapen_AOT/AOT_stimuli/rescaled_final/0940_fw.mp4	0.0	183.14908504486084	
34	169.95035409927368	fix_post	2		12	32.0	2.5	/experiments/Knapen_AOT/AOT_stimuli/rescaled_final/0940_fw.mp4	0.0	184.06955909729004	0.10004210472106934
35	170.05039620399475	fix_pre	0		120	33.0	2.5	blank	1.0	184.1696012020111	1.0001142024993896
35	170.63391518592834	pulse	0	t		33.0	2.5	blank	1.0	184.7531201839447	
35	171.05051040649414	movie	1		300	33.0	2.5	blank	1.0	185.1697154045105	2.5003790855407715
35	172.2341513633728	pulse	1	t		33.0	2.5	blank	1.0	186.35335636138916	
35	173.5508894920349	fix_post	2		12	33.0	2.5	blank	1.0	187.67009449005127	0.10001754760742188
36	173.65090703964233	fix_pre	0		120	34.0	2.5	/experiments/Knapen_AOT/AOT_stimuli/rescaled_final/0743_rv.mp4	0.0	187.7701120376587	1.0003972053527832
36	173.8343915939331	pulse	0	t		34.0	2.5	/experiments/Knapen_AOT/AOT_stimuli/rescaled_final/0743_rv.mp4	0.0	187.95359659194946	
36	174.65130424499512	movie	1		300	34.0	2.5	/experiments/Knapen_AOT/AOT_stimuli/rescaled_final/0743_rv.mp4	0.0	188.77050924301147	2.5001299381256104
36	175.43026518821716	pulse	1	t		34.0	2.5	/experiments/Knapen_AOT/AOT_stimuli/rescaled_final/0743_rv.mp4	0.0	189.54947018623352	
36	177.0304548740387	pulse	1	t		34.0	2.5	/experiments/Knapen_AOT/AOT_stimuli/rescaled_final/0743_rv.mp4	0.0	191.14965987205505	
36	177.15143418312073	fix_post	2		12	34.0	2.5	/experiments/Knapen_AOT/AOT_stimuli/rescaled_final/0743_rv.mp4	0.0	191.27063918113708	0.10003662109375
37	177.25147080421448	fix_pre	0		120	35.0	2.5	/experiments/Knapen_AOT/AOT_stimuli/rescaled_final/0614_rv.mp4	0.0	191.37067580223083	1.0001380443572998
37	178.25160884857178	movie	1		299	35.0	2.5	/experiments/Knapen_AOT/AOT_stimuli/rescaled_final/0614_rv.mp4	0.0	192.37081384658813	2.4920265674591064
37	178.6313292980194	pulse	1	t		35.0	2.5	/experiments/Knapen_AOT/AOT_stimuli/rescaled_final/0614_rv.mp4	0.0	192.75053429603577	
37	180.23094391822815	pulse	1	t		35.0	2.5	/experiments/Knapen_AOT/AOT_stimuli/rescaled_final/0614_rv.mp4	0.0	194.3501489162445	
37	180.74363541603088	fix_post	2		12	35.0	2.5	/experiments/Knapen_AOT/AOT_stimuli/rescaled_final/0614_rv.mp4	0.0	194.86284041404724	0.10001254081726074
38	180.84364795684814	fix_pre	0		120	36.0	2.5	/experiments/Knapen_AOT/AOT_stimuli/rescaled_final/0998_rv.mp4	0.0	194.9628529548645	1.0004897117614746
38	181.82771635055542	pulse	0	t		36.0	2.5	/experiments/Knapen_AOT/AOT_stimuli/rescaled_final/0998_rv.mp4	0.0	195.94692134857178	
38	181.84413766860962	movie	1		301	36.0	2.5	/experiments/Knapen_AOT/AOT_stimuli/rescaled_final/0998_rv.mp4	0.0	195.96334266662598	2.508380889892578
38	183.42782187461853	pulse	1	t		36.0	2.5	/experiments/Knapen_AOT/AOT_stimuli/rescaled_final/0998_rv.mp4	0.0	197.5470268726349	
38	184.3525185585022	fix_post	2		12	36.0	2.5	/experiments/Knapen_AOT/AOT_stimuli/rescaled_final/0998_rv.mp4	0.0	198.47172355651855	0.10001397132873535
39	184.45253252983093	fix_pre	0		120	37.0	2.5	/experiments/Knapen_AOT/AOT_stimuli/rescaled_final/1818_rv.mp4	0.0	198.5717375278473	1.0001635551452637
39	185.02774357795715	pulse	0	t		37.0	2.5	/experiments/Knapen_AOT/AOT_stimuli/rescaled_final/1818_rv.mp4	0.0	199.1469485759735	
39	185.4526960849762	movie	1		300	37.0	2.5	/experiments/Knapen_AOT/AOT_stimuli/rescaled_final/1818_rv.mp4	0.0	199.57190108299255	2.500356674194336
39	186.62802743911743	pulse	1	t		37.0	2.5	/experiments/Knapen_AOT/AOT_stimuli/rescaled_final/1818_rv.mp4	0.0	200.7472324371338	
39	187.95305275917053	fix_post	2		12	37.0	2.5	/experiments/Knapen_AOT/AOT_stimuli/rescaled_final/1818_rv.mp4	0.0	202.0722577571869	0.10002875328063965
40	188.05308151245117	fix_pre	0		120	38.0	2.5	/experiments/Knapen_AOT/AOT_stimuli/rescaled_final/1034_fw.mp4	0.0	202.17228651046753	1.0001869201660156
40	188.22825169563293	pulse	0	t		38.0	2.5	/experiments/Knapen_AOT/AOT_stimuli/rescaled_final/1034_fw.mp4	0.0	202.3474566936493	
40	189.0532684326172	movie	1		300	38.0	2.5	/experiments/Knapen_AOT/AOT_stimuli/rescaled_final/1034_fw.mp4	0.0	203.17247343063354	2.5003416538238525
40	189.8284993171692	pulse	1	t		38.0	2.5	/experiments/Knapen_AOT/AOT_stimuli/rescaled_final/1034_fw.mp4	0.0	203.94770431518555	
40	191.42871975898743	pulse	1	t		38.0	2.5	/experiments/Knapen_AOT/AOT_stimuli/rescaled_final/1034_fw.mp4	0.0	205.54792475700378	
40	191.55361008644104	fix_post	2		12	38.0	2.5	/experiments/Knapen_AOT/AOT_stimuli/rescaled_final/1034_fw.mp4	0.0	205.6728150844574	0.10001134872436523
41	191.6536214351654	fix_pre	0		120	39.0	2.5	/experiments/Knapen_AOT/AOT_stimuli/rescaled_final/0317_fw.mp4	0.0	205.77282643318176	1.0001530647277832
41	192.6537744998932	movie	1		299	39.0	2.5	/experiments/Knapen_AOT/AOT_stimuli/rescaled_final/0317_fw.mp4	0.0	206.77297949790955	2.4920358657836914
41	193.02908039093018	pulse	1	t		39.0	2.5	/experiments/Knapen_AOT/AOT_stimuli/rescaled_final/0317_fw.mp4	0.0	207.14828538894653	
41	194.62922859191895	pulse	1	t		39.0	2.5	/experiments/Knapen_AOT/AOT_stimuli/rescaled_final/0317_fw.mp4	0.0	208.7484335899353	
41	195.14581036567688	fix_post	2		12	39.0	2.5	/experiments/Knapen_AOT/AOT_stimuli/rescaled_final/0317_fw.mp4	0.0	209.26501536369324	0.10001611709594727
42	195.24582648277283	fix_pre	0		119	40.0	2.5	/experiments/Knapen_AOT/AOT_stimuli/rescaled_final/0693_rv.mp4	0.0	209.36503148078918	1.0001647472381592
42	196.2294638156891	pulse	0	t		40.0	2.5	/experiments/Knapen_AOT/AOT_stimuli/rescaled_final/0693_rv.mp4	0.0	210.34866881370544	
42	196.245991230011	movie	1		300	40.0	2.5	/experiments/Knapen_AOT/AOT_stimuli/rescaled_final/0693_rv.mp4	0.0	210.36519622802734	2.500391721725464
42	197.82977962493896	pulse	1	t		40.0	2.5	/experiments/Knapen_AOT/AOT_stimuli/rescaled_final/0693_rv.mp4	0.0	211.94898462295532	
42	198.74638295173645	fix_post	2		12	40.0	2.5	/experiments/Knapen_AOT/AOT_stimuli/rescaled_final/0693_rv.mp4	0.0	212.8655879497528	0.1000053882598877
43	198.84638833999634	fix_pre	0		120	41.0	2.5	blank	1.0	212.9655933380127	1.0001516342163086
43	199.4299237728119	pulse	0	t		41.0	2.5	blank	1.0	213.54912877082825	
43	199.84653997421265	movie	1		300	41.0	2.5	blank	1.0	213.965744972229	2.5003597736358643
43	201.03016233444214	pulse	1	t		41.0	2.5	blank	1.0	215.1493673324585	
43	202.3468997478485	fix_post	2		12	41.0	2.5	blank	1.0	216.46610474586487	0.10000896453857422
44	202.44690871238708	fix_pre	0		120	42.0	2.5	/experiments/Knapen_AOT/AOT_stimuli/rescaled_final/1818_fw.mp4	0.0	216.56611371040344	1.0002992153167725
44	202.63045167922974	pulse	0	t		42.0	2.5	/experiments/Knapen_AOT/AOT_stimuli/rescaled_final/1818_fw.mp4	0.0	216.7496566772461	
44	203.44720792770386	movie	1		300	42.0	2.5	/experiments/Knapen_AOT/AOT_stimuli/rescaled_final/1818_fw.mp4	0.0	217.56641292572021	2.500237226486206
44	204.23064851760864	pulse	1	t		42.0	2.5	/experiments/Knapen_AOT/AOT_stimuli/rescaled_final/1818_fw.mp4	0.0	218.349853515625	
44	205.83088397979736	pulse	1	t		42.0	2.5	/experiments/Knapen_AOT/AOT_stimuli/rescaled_final/1818_fw.mp4	0.0	219.95008897781372	
44	205.94744515419006	fix_post	2		12	42.0	2.5	/experiments/Knapen_AOT/AOT_stimuli/rescaled_final/1818_fw.mp4	0.0	220.06665015220642	0.10002660751342773
45	206.0474717617035	fix_pre	0		120	43.0	2.5	/experiments/Knapen_AOT/AOT_stimuli/rescaled_final/1087_fw.mp4	0.0	220.16667675971985	1.0001375675201416
45	207.04760932922363	movie	1		299	43.0	2.5	/experiments/Knapen_AOT/AOT_stimuli/rescaled_final/1087_fw.mp4	0.0	221.16681432724	2.492044687271118
45	207.42727422714233	pulse	1	t		43.0	2.5	/experiments/Knapen_AOT/AOT_stimuli/rescaled_final/1087_fw.mp4	0.0	221.5464792251587	
45	209.0270073413849	pulse	1	t		43.0	2.5	/experiments/Knapen_AOT/AOT_stimuli/rescaled_final/1087_fw.mp4	0.0	223.14621233940125	
45	209.53965401649475	fix_post	2		12	43.0	2.5	/experiments/Knapen_AOT/AOT_stimuli/rescaled_final/1087_fw.mp4	0.0	223.6588590145111	0.10001659393310547
46	209.63967061042786	fix_pre	0		120	44.0	2.5	/experiments/Knapen_AOT/AOT_stimuli/rescaled_final/2084_rv.mp4	0.0	223.7588756084442	1.000417709350586
46	210.63164925575256	pulse	0	t		44.0	2.5	/experiments/Knapen_AOT/AOT_stimuli/rescaled_final/2084_rv.mp4	0.0	224.75085425376892	
46	210.64008831977844	movie	1		288	44.0	2.5	/experiments/Knapen_AOT/AOT_stimuli/rescaled_final/2084_rv.mp4	0.0	224.7592933177948	2.5084428787231445
46	212.22796726226807	pulse	1	t		44.0	2.5	/experiments/Knapen_AOT/AOT_stimuli/rescaled_final/2084_rv.mp4	0.0	226.34717226028442	
46	213.1485311985016	fix_post	2		12	44.0	2.5	/experiments/Knapen_AOT/AOT_stimuli/rescaled_final/2084_rv.mp4	0.0	227.26773619651794	0.10003471374511719
47	213.2485659122467	fix_pre	0		120	45.0	2.5	/experiments/Knapen_AOT/AOT_stimuli/rescaled_final/0084_rv.mp4	0.0	227.36777091026306	1.0001609325408936
47	213.83207392692566	pulse	0	t		45.0	2.5	/experiments/Knapen_AOT/AOT_stimuli/rescaled_final/0084_rv.mp4	0.0	227.95127892494202	
47	214.2487268447876	movie	1		300	45.0	2.5	/experiments/Knapen_AOT/AOT_stimuli/rescaled_final/0084_rv.mp4	0.0	228.36793184280396	2.5003774166107178
47	215.42809224128723	pulse	1	t		45.0	2.5	/experiments/Knapen_AOT/AOT_stimuli/rescaled_final/0084_rv.mp4	0.0	229.5472972393036	
47	216.74910426139832	fix_post	2		12	45.0	2.5	/experiments/Knapen_AOT/AOT_stimuli/rescaled_final/0084_rv.mp4	0.0	230.86830925941467	0.09997773170471191
48	216.84908199310303	fix_pre	0		120	46.0	2.5	/experiments/Knapen_AOT/AOT_stimuli/rescaled_final/0200_rv.mp4	0.0	230.96828699111938	1.000138521194458
48	217.03260946273804	pulse	0	t		46.0	2.5	/experiments/Knapen_AOT/AOT_stimuli/rescaled_final/0200_rv.mp4	0.0	231.1518144607544	
48	217.84922051429749	movie	1		300	46.0	2.5	/experiments/Knapen_AOT/AOT_stimuli/rescaled_final/0200_rv.mp4	0.0	231.96842551231384	2.500406503677368
48	218.62841773033142	pulse	1	t		46.0	2.5	/experiments/Knapen_AOT/AOT_stimuli/rescaled_final/0200_rv.mp4	0.0	232.74762272834778	
48	220.22887110710144	pulse	1	t		46.0	2.5	/experiments/Knapen_AOT/AOT_stimuli/rescaled_final/0200_rv.mp4	0.0	234.3480761051178	
48	220.34962701797485	fix_post	2		12	46.0	2.5	/experiments/Knapen_AOT/AOT_stimuli/rescaled_final/0200_rv.mp4	0.0	234.4688320159912	0.10000419616699219
49	220.44963121414185	fix_pre	0		120	47.0	2.5	/experiments/Knapen_AOT/AOT_stimuli/rescaled_final/1042_rv.mp4	0.0	234.5688362121582	1.00016188621521
49	221.44979310035706	movie	1		299	47.0	2.5	/experiments/Knapen_AOT/AOT_stimuli/rescaled_final/1042_rv.mp4	0.0	235.5689980983734	2.4921159744262695
49	221.82966685295105	pulse	1	t		47.0	2.5	/experiments/Knapen_AOT/AOT_stimuli/rescaled_final/1042_rv.mp4	0.0	235.9488718509674	
49	223.4291126728058	pulse	1	t		47.0	2.5	/experiments/Knapen_AOT/AOT_stimuli/rescaled_final/1042_rv.mp4	0.0	237.54831767082214	
49	223.94190907478333	fix_post	2		12	47.0	2.5	/experiments/Knapen_AOT/AOT_stimuli/rescaled_final/1042_rv.mp4	0.0	238.06111407279968	0.09994912147521973
50	224.04185819625854	fix_pre	0		120	48.0	2.5	blank	1.0	238.1610631942749	1.0001220703125
50	225.03376603126526	pulse	0	t		48.0	2.5	blank	1.0	239.15297102928162	
50	225.04198026657104	movie	1		301	48.0	2.5	blank	1.0	239.1611852645874	2.508735418319702
50	226.63400220870972	pulse	1	t		48.0	2.5	blank	1.0	240.75320720672607	
50	227.55071568489075	fix_post	2		12	48.0	2.5	blank	1.0	241.6699206829071	0.1000056266784668
51	227.6507213115692	fix_pre	0		120	49.0	2.5	/experiments/Knapen_AOT/AOT_stimuli/rescaled_final/0568_fw.mp4	0.0	241.76992630958557	1.0001397132873535
51	228.2342426776886	pulse	0	t		49.0	2.5	/experiments/Knapen_AOT/AOT_stimuli/rescaled_final/0568_fw.mp4	0.0	242.35344767570496	
51	228.65086102485657	movie	1		299	49.0	2.5	/experiments/Knapen_AOT/AOT_stimuli/rescaled_final/0568_fw.mp4	0.0	242.77006602287292	2.500375509262085
51	229.83041667938232	pulse	1	t		49.0	2.5	/experiments/Knapen_AOT/AOT_stimuli/rescaled_final/0568_fw.mp4	0.0	243.94962167739868	
51	231.15123653411865	fix_post	2		12	49.0	2.5	/experiments/Knapen_AOT/AOT_stimuli/rescaled_final/0568_fw.mp4	0.0	245.270441532135	0.10001683235168457
52	231.25125336647034	fix_pre	0		120	50.0	2.5	/experiments/Knapen_AOT/AOT_stimuli/rescaled_final/2084_fw.mp4	0.0	245.3704583644867	1.0001287460327148
52	231.43472576141357	pulse	0	t		50.0	2.5	/experiments/Knapen_AOT/AOT_stimuli/rescaled_final/2084_fw.mp4	0.0	245.55393075942993	
52	232.25138211250305	movie	1		299	50.0	2.5	/experiments/Knapen_AOT/AOT_stimuli/rescaled_final/2084_fw.mp4	0.0	246.3705871105194	2.5003981590270996
52	233.03055906295776	pulse	1	t		50.0	2.5	/experiments/Knapen_AOT/AOT_stimuli/rescaled_final/2084_fw.mp4	0.0	247.14976406097412	
52	234.62710809707642	pulse	1	t		50.0	2.5	/experiments/Knapen_AOT/AOT_stimuli/rescaled_final/2084_fw.mp4	0.0	248.74631309509277	
52	234.75178027153015	fix_post	2		12	50.0	2.5	/experiments/Knapen_AOT/AOT_stimuli/rescaled_final/2084_fw.mp4	0.0	248.8709852695465	0.10002493858337402
53	234.85180521011353	fix_pre	0		120	51.0	2.5	/experiments/Knapen_AOT/AOT_stimuli/rescaled_final/1056_rv.mp4	0.0	248.97101020812988	1.0001184940338135
53	235.85192370414734	movie	1		298	51.0	2.5	/experiments/Knapen_AOT/AOT_stimuli/rescaled_final/1056_rv.mp4	0.0	249.9711287021637	2.4920828342437744
53	236.22719979286194	pulse	1	t		51.0	2.5	/experiments/Knapen_AOT/AOT_stimuli/rescaled_final/1056_rv.mp4	0.0	250.3464047908783	
53	237.8273901939392	pulse	1	t		51.0	2.5	/experiments/Knapen_AOT/AOT_stimuli/rescaled_final/1056_rv.mp4	0.0	251.94659519195557	
53	238.3440065383911	fix_post	2		12	51.0	2.5	/experiments/Knapen_AOT/AOT_stimuli/rescaled_final/1056_rv.mp4	0.0	252.46321153640747	0.09999752044677734
54	238.4440040588379	fix_pre	0		119	52.0	2.5	/experiments/Knapen_AOT/AOT_stimuli/rescaled_final/2137_rv.mp4	0.0	252.56320905685425	0.991797924041748
54	239.42763924598694	pulse	0	t		52.0	2.5	/experiments/Knapen_AOT/AOT_stimuli/rescaled_final/2137_rv.mp4	0.0	253.5468442440033	
54	239.43580198287964	movie	1		301	52.0	2.5	/experiments/Knapen_AOT/AOT_stimuli/rescaled_final/2137_rv.mp4	0.0	253.555006980896	2.508730173110962
54	241.02796268463135	pulse	1	t		52.0	2.5	/experiments/Knapen_AOT/AOT_stimuli/rescaled_final/2137_rv.mp4	0.0	255.1471676826477	
54	241.9445321559906	fix_post	2		12	52.0	2.5	/experiments/Knapen_AOT/AOT_stimuli/rescaled_final/2137_rv.mp4	0.0	256.06373715400696	0.10001373291015625
55	242.04454588890076	fix_pre	0		120	53.0	2.5	/experiments/Knapen_AOT/AOT_stimuli/rescaled_final/1429_fw.mp4	0.0	256.1637508869171	1.0001473426818848
55	242.6280915737152	pulse	0	t		53.0	2.5	/experiments/Knapen_AOT/AOT_stimuli/rescaled_final/1429_fw.mp4	0.0	256.74729657173157	
55	243.04469323158264	movie	1		300	53.0	2.5	/experiments/Knapen_AOT/AOT_stimuli/rescaled_final/1429_fw.mp4	0.0	257.163898229599	2.500380754470825
55	244.22838521003723	pulse	1	t		53.0	2.5	/experiments/Knapen_AOT/AOT_stimuli/rescaled_final/1429_fw.mp4	0.0	258.3475902080536	
55	245.54507398605347	fix_post	2		12	53.0	2.5	/experiments/Knapen_AOT/AOT_stimuli/rescaled_final/1429_fw.mp4	0.0	259.6642789840698	0.1000220775604248
56	245.6450960636139	fix_pre	0		120	54.0	2.5	/experiments/Knapen_AOT/AOT_stimuli/rescaled_final/1700_rv.mp4	0.0	259.76430106163025	1.0001325607299805
56	245.82861804962158	pulse	0	t		54.0	2.5	/experiments/Knapen_AOT/AOT_stimuli/rescaled_final/1700_rv.mp4	0.0	259.94782304763794	
56	246.64522862434387	movie	1		300	54.0	2.5	/experiments/Knapen_AOT/AOT_stimuli/rescaled_final/1700_rv.mp4	0.0	260.76443362236023	2.500382900238037
56	247.42882442474365	pulse	1	t		54.0	2.5	/experiments/Knapen_AOT/AOT_stimuli/rescaled_final/1700_rv.mp4	0.0	261.54802942276	
56	249.02907252311707	pulse	1	t		54.0	2.5	/experiments/Knapen_AOT/AOT_stimuli/rescaled_final/1700_rv.mp4	0.0	263.1482775211334	
56	249.1456115245819	fix_post	2		12	54.0	2.5	/experiments/Knapen_AOT/AOT_stimuli/rescaled_final/1700_rv.mp4	0.0	263.26481652259827	0.10004258155822754
57	249.24565410614014	fix_pre	0		120	55.0	2.5	/experiments/Knapen_AOT/AOT_stimuli/rescaled_final/0710_fw.mp4	0.0	263.3648591041565	1.0001277923583984
57	250.24578189849854	movie	1		298	55.0	2.5	/experiments/Knapen_AOT/AOT_stimuli/rescaled_final/0710_fw.mp4	0.0	264.3649868965149	2.4920308589935303
57	250.62937355041504	pulse	1	t		55.0	2.5	/experiments/Knapen_AOT/AOT_stimuli/rescaled_final/0710_fw.mp4	0.0	264.7485785484314	
57	252.2295913696289	pulse	1	t		55.0	2.5	/experiments/Knapen_AOT/AOT_stimuli/rescaled_final/0710_fw.mp4	0.0	266.34879636764526	
57	252.73781275749207	fix_post	2		12	55.0	2.5	/experiments/Knapen_AOT/AOT_stimuli/rescaled_final/0710_fw.mp4	0.0	266.8570177555084	0.10005068778991699
58	252.83786344528198	fix_pre	0		120	56.0	2.5	blank	1.0	266.95706844329834	1.0001416206359863
58	253.82975935935974	pulse	0	t		56.0	2.5	blank	1.0	267.9489643573761	
58	253.83800506591797	movie	1		301	56.0	2.5	blank	1.0	267.9572100639343	2.5086829662323
58	255.43000674247742	pulse	1	t		56.0	2.5	blank	1.0	269.5492117404938	
58	256.34668803215027	fix_post	2		12	56.0	2.5	blank	1.0	270.4658930301666	0.10002374649047852
59	256.44671177864075	fix_pre	0		120	57.0	2.5	/experiments/Knapen_AOT/AOT_stimuli/rescaled_final/0716_rv.mp4	0.0	270.5659167766571	1.000154733657837
59	257.0302469730377	pulse	0	t		57.0	2.5	/experiments/Knapen_AOT/AOT_stimuli/rescaled_final/0716_rv.mp4	0.0	271.1494519710541	
59	257.4468665122986	movie	1		300	57.0	2.5	/experiments/Knapen_AOT/AOT_stimuli/rescaled_final/0716_rv.mp4	0.0	271.56607151031494	2.500380039215088
59	258.630508184433	pulse	1	t		57.0	2.5	/experiments/Knapen_AOT/AOT_stimuli/rescaled_final/0716_rv.mp4	0.0	272.74971318244934	
59	259.9472465515137	fix_post	2		12	57.0	2.5	/experiments/Knapen_AOT/AOT_stimuli/rescaled_final/0716_rv.mp4	0.0	274.06645154953003	0.10001349449157715
60	260.04726004600525	fix_pre	0		120	58.0	2.5	/experiments/Knapen_AOT/AOT_stimuli/rescaled_final/1412_fw.mp4	0.0	274.1664650440216	1.0001919269561768
60	260.2307698726654	pulse	0	t		58.0	2.5	/experiments/Knapen_AOT/AOT_stimuli/rescaled_final/1412_fw.mp4	0.0	274.34997487068176	
60	261.0474519729614	movie	1		300	58.0	2.5	/experiments/Knapen_AOT/AOT_stimuli/rescaled_final/1412_fw.mp4	0.0	275.1666569709778	2.5003244876861572
60	261.8310296535492	pulse	1	t		58.0	2.5	/experiments/Knapen_AOT/AOT_stimuli/rescaled_final/1412_fw.mp4	0.0	275.95023465156555	
60	263.4313278198242	pulse	1	t		58.0	2.5	/experiments/Knapen_AOT/AOT_stimuli/rescaled_final/1412_fw.mp4	0.0	277.5505328178406	
60	263.5477764606476	fix_post	2		12	58.0	2.5	/experiments/Knapen_AOT/AOT_stimuli/rescaled_final/1412_fw.mp4	0.0	277.66698145866394	0.10004019737243652
61	263.64781665802	fix_pre	0		120	59.0	2.5	/experiments/Knapen_AOT/AOT_stimuli/rescaled_final/0574_rv.mp4	0.0	277.7670216560364	1.0001451969146729
61	264.6479618549347	movie	1		299	59.0	2.5	/experiments/Knapen_AOT/AOT_stimuli/rescaled_final/0574_rv.mp4	0.0	278.76716685295105	2.4920217990875244
61	265.0274772644043	pulse	1	t		59.0	2.5	/experiments/Knapen_AOT/AOT_stimuli/rescaled_final/0574_rv.mp4	0.0	279.14668226242065	
61	266.6274161338806	pulse	1	t		59.0	2.5	/experiments/Knapen_AOT/AOT_stimuli/rescaled_final/0574_rv.mp4	0.0	280.746621131897	
61	267.1399836540222	fix_post	2		12	59.0	2.5	/experiments/Knapen_AOT/AOT_stimuli/rescaled_final/0574_rv.mp4	0.0	281.2591886520386	0.10001254081726074
62	267.2399961948395	fix_pre	0		120	60.0	2.5	/experiments/Knapen_AOT/AOT_stimuli/rescaled_final/1412_fw.mp4	0.0	281.35920119285583	1.008547306060791
62	268.23198986053467	pulse	0	t		60.0	2.5	/experiments/Knapen_AOT/AOT_stimuli/rescaled_final/1412_fw.mp4	0.0	282.351194858551	
62	268.24854350090027	movie	1		300	60.0	2.5	/experiments/Knapen_AOT/AOT_stimuli/rescaled_final/1412_fw.mp4	0.0	282.3677484989166	2.500314950942993
62	269.8285675048828	pulse	1	t		60.0	2.5	/experiments/Knapen_AOT/AOT_stimuli/rescaled_final/1412_fw.mp4	0.0	283.94777250289917	
62	270.74885845184326	fix_post	2		12	60.0	2.5	/experiments/Knapen_AOT/AOT_stimuli/rescaled_final/1412_fw.mp4	0.0	284.8680634498596	0.10001564025878906
63	270.84887409210205	fix_pre	0		120	61.0	2.5	/experiments/Knapen_AOT/AOT_stimuli/rescaled_final/1001_fw.mp4	0.0	284.9680790901184	1.0001685619354248
63	271.43248677253723	pulse	0	t		61.0	2.5	/experiments/Knapen_AOT/AOT_stimuli/rescaled_final/1001_fw.mp4	0.0	285.5516917705536	
63	271.8490426540375	movie	1		300	61.0	2.5	/experiments/Knapen_AOT/AOT_stimuli/rescaled_final/1001_fw.mp4	0.0	285.96824765205383	2.5003838539123535
63	273.0285949707031	pulse	1	t		61.0	2.5	/experiments/Knapen_AOT/AOT_stimuli/rescaled_final/1001_fw.mp4	0.0	287.1477999687195	
63	274.34942650794983	fix_post	2		12	61.0	2.5	/experiments/Knapen_AOT/AOT_stimuli/rescaled_final/1001_fw.mp4	0.0	288.4686315059662	0.09999585151672363
64	274.44942235946655	fix_pre	0		120	62.0	2.5	blank	1.0	288.5686273574829	1.0001368522644043
64	274.6328966617584	pulse	0	t		62.0	2.5	blank	1.0	288.7521016597748	
64	275.44955921173096	movie	1		300	62.0	2.5	blank	1.0	289.5687642097473	2.500385284423828
64	276.2332122325897	pulse	1	t		62.0	2.5	blank	1.0	290.3524172306061	
64	277.8333945274353	pulse	1	t		62.0	2.5	blank	1.0	291.95259952545166	
64	277.9499444961548	fix_post	2		12	62.0	2.5	blank	1.0	292.06914949417114	0.10001516342163086
65	278.0499596595764	fix_pre	0		120	63.0	2.5	/experiments/Knapen_AOT/AOT_stimuli/rescaled_final/0135_fw.mp4	0.0	292.1691646575928	1.0001654624938965
65	279.0501251220703	movie	1		299	63.0	2.5	/experiments/Knapen_AOT/AOT_stimuli/rescaled_final/0135_fw.mp4	0.0	293.16933012008667	2.4920332431793213
65	279.42945647239685	pulse	1	t		63.0	2.5	/experiments/Knapen_AOT/AOT_stimuli/rescaled_final/0135_fw.mp4	0.0	293.5486614704132	
65	281.02996301651	pulse	1	t		63.0	2.5	/experiments/Knapen_AOT/AOT_stimuli/rescaled_final/0135_fw.mp4	0.0	295.14916801452637	
65	281.54215836524963	fix_post	2		12	63.0	2.5	/experiments/Knapen_AOT/AOT_stimuli/rescaled_final/0135_fw.mp4	0.0	295.661363363266	0.10001373291015625
66	281.6421720981598	fix_pre	0		120	64.0	2.5	/experiments/Knapen_AOT/AOT_stimuli/rescaled_final/0009_fw.mp4	0.0	295.76137709617615	1.0001296997070312
66	282.63409209251404	pulse	0	t		64.0	2.5	/experiments/Knapen_AOT/AOT_stimuli/rescaled_final/0009_fw.mp4	0.0	296.7532970905304	
66	282.6423017978668	movie	1		301	64.0	2.5	/experiments/Knapen_AOT/AOT_stimuli/rescaled_final/0009_fw.mp4	0.0	296.7615067958832	2.5087342262268066
66	284.23053908348083	pulse	1	t		64.0	2.5	/experiments/Knapen_AOT/AOT_stimuli/rescaled_final/0009_fw.mp4	0.0	298.3497440814972	
66	285.1510360240936	fix_post	2		12	64.0	2.5	/experiments/Knapen_AOT/AOT_stimuli/rescaled_final/0009_fw.mp4	0.0	299.27024102211	0.10001850128173828
67	285.25105452537537	fix_pre	0		120	65.0	2.5	/experiments/Knapen_AOT/AOT_stimuli/rescaled_final/0194_rv.mp4	0.0	299.3702595233917	1.0001680850982666
67	285.8345990180969	pulse	0	t		65.0	2.5	/experiments/Knapen_AOT/AOT_stimuli/rescaled_final/0194_rv.mp4	0.0	299.9538040161133	
67	286.25122261047363	movie	1		300	65.0	2.5	/experiments/Knapen_AOT/AOT_stimuli/rescaled_final/0194_rv.mp4	0.0	300.37042760849	2.5003843307495117
67	287.4304919242859	pulse	1	t		65.0	2.5	/experiments/Knapen_AOT/AOT_stimuli/rescaled_final/0194_rv.mp4	0.0	301.54969692230225	
67	288.75160694122314	fix_post	2		12	65.0	2.5	/experiments/Knapen_AOT/AOT_stimuli/rescaled_final/0194_rv.mp4	0.0	302.8708119392395	0.10005521774291992
68	288.85166215896606	fix_pre	0		120	66.0	2.5	/experiments/Knapen_AOT/AOT_stimuli/rescaled_final/1391_rv.mp4	0.0	302.9708671569824	1.0000858306884766
68	289.0351459980011	pulse	0	t		66.0	2.5	/experiments/Knapen_AOT/AOT_stimuli/rescaled_final/1391_rv.mp4	0.0	303.15435099601746	
68	289.85174798965454	movie	1		300	66.0	2.5	/experiments/Knapen_AOT/AOT_stimuli/rescaled_final/1391_rv.mp4	0.0	303.9709529876709	2.5003700256347656
68	290.6309537887573	pulse	1	t		66.0	2.5	/experiments/Knapen_AOT/AOT_stimuli/rescaled_final/1391_rv.mp4	0.0	304.7501587867737	
68	292.2314381599426	pulse	1	t		66.0	2.5	/experiments/Knapen_AOT/AOT_stimuli/rescaled_final/1391_rv.mp4	0.0	306.350643157959	
68	292.3521180152893	fix_post	2		12	66.0	2.5	/experiments/Knapen_AOT/AOT_stimuli/rescaled_final/1391_rv.mp4	0.0	306.47132301330566	0.10001826286315918
69	292.45213627815247	fix_pre	0		120	67.0	2.5	/experiments/Knapen_AOT/AOT_stimuli/rescaled_final/1224_fw.mp4	0.0	306.5713412761688	1.0001771450042725
69	293.45231342315674	movie	1		298	67.0	2.5	/experiments/Knapen_AOT/AOT_stimuli/rescaled_final/1224_fw.mp4	0.0	307.5715184211731	2.4920103549957275
69	293.82760858535767	pulse	1	t		67.0	2.5	/experiments/Knapen_AOT/AOT_stimuli/rescaled_final/1224_fw.mp4	0.0	307.946813583374	
69	295.4277334213257	pulse	1	t		67.0	2.5	/experiments/Knapen_AOT/AOT_stimuli/rescaled_final/1224_fw.mp4	0.0	309.54693841934204	
69	295.94432377815247	fix_post	2		12	67.0	2.5	/experiments/Knapen_AOT/AOT_stimuli/rescaled_final/1224_fw.mp4	0.0	310.0635287761688	0.10001540184020996
70	296.0443391799927	fix_pre	0		119	68.0	2.5	/experiments/Knapen_AOT/AOT_stimuli/rescaled_final/1255_fw.mp4	0.0	310.16354417800903	0.9918704032897949
70	297.0279703140259	pulse	0	t		68.0	2.5	/experiments/Knapen_AOT/AOT_stimuli/rescaled_final/1255_fw.mp4	0.0	311.14717531204224	
70	297.03620958328247	movie	1		301	68.0	2.5	/experiments/Knapen_AOT/AOT_stimuli/rescaled_final/1255_fw.mp4	0.0	311.1554145812988	2.508653163909912
70	298.6282799243927	pulse	1	t		68.0	2.5	/experiments/Knapen_AOT/AOT_stimuli/rescaled_final/1255_fw.mp4	0.0	312.74748492240906	
70	299.5448627471924	fix_post	2		12	68.0	2.5	/experiments/Knapen_AOT/AOT_stimuli/rescaled_final/1255_fw.mp4	0.0	313.66406774520874	0.10003900527954102
71	299.6449017524719	fix_pre	0		120	69.0	2.5	/experiments/Knapen_AOT/AOT_stimuli/rescaled_final/2044_rv.mp4	0.0	313.7641067504883	1.000129222869873
71	300.2284080982208	pulse	0	t		69.0	2.5	/experiments/Knapen_AOT/AOT_stimuli/rescaled_final/2044_rv.mp4	0.0	314.3476130962372	
71	300.6450309753418	movie	1		300	69.0	2.5	/experiments/Knapen_AOT/AOT_stimuli/rescaled_final/2044_rv.mp4	0.0	314.76423597335815	2.500373601913452
71	301.8286921977997	pulse	1	t		69.0	2.5	/experiments/Knapen_AOT/AOT_stimuli/rescaled_final/2044_rv.mp4	0.0	315.94789719581604	
71	303.14540457725525	fix_post	2		12	69.0	2.5	/experiments/Knapen_AOT/AOT_stimuli/rescaled_final/2044_rv.mp4	0.0	317.2646095752716	0.1000204086303711
72	303.2454249858856	fix_pre	0		120	70.0	2.5	blank	1.0	317.364629983902	1.0001552104949951
72	303.4288980960846	pulse	0	t		70.0	2.5	blank	1.0	317.54810309410095	
72	304.2455801963806	movie	1		300	70.0	2.5	blank	1.0	318.364785194397	2.5003669261932373
72	305.0291950702667	pulse	1	t		70.0	2.5	blank	1.0	319.1484000682831	
72	306.6294150352478	pulse	1	t		70.0	2.5	blank	1.0	320.74862003326416	
72	306.74594712257385	fix_post	2		12	70.0	2.5	blank	1.0	320.8651521205902	0.10001802444458008
73	306.84596514701843	fix_pre	0		120	71.0	2.5	/experiments/Knapen_AOT/AOT_stimuli/rescaled_final/0646_fw.mp4	0.0	320.9651701450348	1.0001471042633057
73	307.84611225128174	movie	1		299	71.0	2.5	/experiments/Knapen_AOT/AOT_stimuli/rescaled_final/0646_fw.mp4	0.0	321.9653172492981	2.4921226501464844
73	308.2297146320343	pulse	1	t		71.0	2.5	/experiments/Knapen_AOT/AOT_stimuli/rescaled_final/0646_fw.mp4	0.0	322.34891963005066	
73	309.8298888206482	pulse	1	t		71.0	2.5	/experiments/Knapen_AOT/AOT_stimuli/rescaled_final/0646_fw.mp4	0.0	323.94909381866455	
73	310.3382349014282	fix_post	2		12	71.0	2.5	/experiments/Knapen_AOT/AOT_stimuli/rescaled_final/0646_fw.mp4	0.0	324.4574398994446	0.09993577003479004
74	310.438170671463	fix_pre	0		120	72.0	2.5	/experiments/Knapen_AOT/AOT_stimuli/rescaled_final/1819_rv.mp4	0.0	324.55737566947937	1.0085277557373047
74	311.4301218986511	pulse	0	t		72.0	2.5	/experiments/Knapen_AOT/AOT_stimuli/rescaled_final/1819_rv.mp4	0.0	325.5493268966675	
74	311.4466984272003	movie	1		300	72.0	2.5	/experiments/Knapen_AOT/AOT_stimuli/rescaled_final/1819_rv.mp4	0.0	325.5659034252167	2.5003507137298584
74	313.0304329395294	pulse	1	t		72.0	2.5	/experiments/Knapen_AOT/AOT_stimuli/rescaled_final/1819_rv.mp4	0.0	327.1496379375458	
74	313.9470491409302	fix_post	2		12	72.0	2.5	/experiments/Knapen_AOT/AOT_stimuli/rescaled_final/1819_rv.mp4	0.0	328.06625413894653	0.10002732276916504
75	314.04707646369934	fix_pre	0		120	73.0	2.5	/experiments/Knapen_AOT/AOT_stimuli/rescaled_final/1221_rv.mp4	0.0	328.1662814617157	1.0003266334533691
75	314.63059186935425	pulse	0	t		73.0	2.5	/experiments/Knapen_AOT/AOT_stimuli/rescaled_final/1221_rv.mp4	0.0	328.7497968673706	
75	315.0474030971527	movie	1		299	73.0	2.5	/experiments/Knapen_AOT/AOT_stimuli/rescaled_final/1221_rv.mp4	0.0	329.16660809516907	2.5001721382141113
75	316.2309248447418	pulse	1	t		73.0	2.5	/experiments/Knapen_AOT/AOT_stimuli/rescaled_final/1221_rv.mp4	0.0	330.3501298427582	
75	317.5475752353668	fix_post	2		12	73.0	2.5	/experiments/Knapen_AOT/AOT_stimuli/rescaled_final/1221_rv.mp4	0.0	331.6667802333832	0.1000206470489502
76	317.64759588241577	fix_pre	0		120	74.0	2.5	/experiments/Knapen_AOT/AOT_stimuli/rescaled_final/2137_rv.mp4	0.0	331.76680088043213	1.0001451969146729
76	317.8311047554016	pulse	0	t		74.0	2.5	/experiments/Knapen_AOT/AOT_stimuli/rescaled_final/2137_rv.mp4	0.0	331.95030975341797	
76	318.64774107933044	movie	1		300	74.0	2.5	/experiments/Knapen_AOT/AOT_stimuli/rescaled_final/2137_rv.mp4	0.0	332.7669460773468	2.5005040168762207
76	319.4313759803772	pulse	1	t		74.0	2.5	/experiments/Knapen_AOT/AOT_stimuli/rescaled_final/2137_rv.mp4	0.0	333.55058097839355	
76	321.0316812992096	pulse	1	t		74.0	2.5	/experiments/Knapen_AOT/AOT_stimuli/rescaled_final/2137_rv.mp4	0.0	335.15088629722595	
76	321.14824509620667	fix_post	2		12	74.0	2.5	/experiments/Knapen_AOT/AOT_stimuli/rescaled_final/2137_rv.mp4	0.0	335.267450094223	0.09992265701293945
77	321.2481677532196	fix_pre	0		120	75.0	2.5	/experiments/Knapen_AOT/AOT_stimuli/rescaled_final/0292_fw.mp4	0.0	335.36737275123596	1.0001392364501953
77	322.2483069896698	movie	1		299	75.0	2.5	/experiments/Knapen_AOT/AOT_stimuli/rescaled_final/0292_fw.mp4	0.0	336.36751198768616	2.4920198917388916
77	322.62822222709656	pulse	1	t		75.0	2.5	/experiments/Knapen_AOT/AOT_stimuli/rescaled_final/0292_fw.mp4	0.0	336.7474272251129	
77	324.22790908813477	pulse	1	t		75.0	2.5	/experiments/Knapen_AOT/AOT_stimuli/rescaled_final/0292_fw.mp4	0.0	338.3471140861511	
77	324.7403268814087	fix_post	2		12	75.0	2.5	/experiments/Knapen_AOT/AOT_stimuli/rescaled_final/0292_fw.mp4	0.0	338.85953187942505	0.10004901885986328
78	324.84037590026855	fix_pre	0		120	76.0	2.5	/experiments/Knapen_AOT/AOT_stimuli/rescaled_final/0230_rv.mp4	0.0	338.9595808982849	1.008535385131836
78	325.83235001564026	pulse	0	t		76.0	2.5	/experiments/Knapen_AOT/AOT_stimuli/rescaled_final/0230_rv.mp4	0.0	339.9515550136566	
78	325.8489112854004	movie	1		300	76.0	2.5	/experiments/Knapen_AOT/AOT_stimuli/rescaled_final/0230_rv.mp4	0.0	339.96811628341675	2.5002942085266113
78	327.4287323951721	pulse	1	t		76.0	2.5	/experiments/Knapen_AOT/AOT_stimuli/rescaled_final/0230_rv.mp4	0.0	341.5479373931885	
78	328.349205493927	fix_post	2		12	76.0	2.5	/experiments/Knapen_AOT/AOT_stimuli/rescaled_final/0230_rv.mp4	0.0	342.46841049194336	0.10004186630249023
79	328.4492473602295	fix_pre	0		120	77.0	2.5	blank	1.0	342.56845235824585	1.0001068115234375
79	329.0327491760254	pulse	0	t		77.0	2.5	blank	1.0	343.15195417404175	
79	329.44935417175293	movie	1		300	77.0	2.5	blank	1.0	343.5685591697693	2.5003890991210938
79	330.63304114341736	pulse	1	t		77.0	2.5	blank	1.0	344.7522461414337	
79	331.949743270874	fix_post	2		12	77.0	2.5	blank	1.0	346.0689482688904	0.10002422332763672
80	332.04976749420166	fix_pre	0		120	78.0	2.5	/experiments/Knapen_AOT/AOT_stimuli/rescaled_final/0743_fw.mp4	0.0	346.168972492218	1.0003077983856201
80	332.2332544326782	pulse	0	t		78.0	2.5	/experiments/Knapen_AOT/AOT_stimuli/rescaled_final/0743_fw.mp4	0.0	346.3524594306946	
80	333.0500752925873	movie	1		300	78.0	2.5	/experiments/Knapen_AOT/AOT_stimuli/rescaled_final/0743_fw.mp4	0.0	347.16928029060364	2.5002105236053467
80	333.8290824890137	pulse	1	t		78.0	2.5	/experiments/Knapen_AOT/AOT_stimuli/rescaled_final/0743_fw.mp4	0.0	347.94828748703003	
80	335.42945194244385	pulse	1	t		78.0	2.5	/experiments/Knapen_AOT/AOT_stimuli/rescaled_final/0743_fw.mp4	0.0	349.5486569404602	
80	335.5502858161926	fix_post	2		12	78.0	2.5	/experiments/Knapen_AOT/AOT_stimuli/rescaled_final/0743_fw.mp4	0.0	349.669490814209	0.10001683235168457
81	335.6503026485443	fix_pre	0		120	79.0	2.5	/experiments/Knapen_AOT/AOT_stimuli/rescaled_final/2061_fw.mp4	0.0	349.76950764656067	1.000152826309204
81	336.6504554748535	movie	1		298	79.0	2.5	/experiments/Knapen_AOT/AOT_stimuli/rescaled_final/2061_fw.mp4	0.0	350.7696604728699	2.492027997970581
81	337.02995204925537	pulse	1	t		79.0	2.5	/experiments/Knapen_AOT/AOT_stimuli/rescaled_final/2061_fw.mp4	0.0	351.14915704727173	
81	338.6298477649689	pulse	1	t		79.0	2.5	/experiments/Knapen_AOT/AOT_stimuli/rescaled_final/2061_fw.mp4	0.0	352.74905276298523	
81	339.1424834728241	fix_post	2		12	79.0	2.5	/experiments/Knapen_AOT/AOT_stimuli/rescaled_final/2061_fw.mp4	0.0	353.26168847084045	0.10002756118774414
82	339.24251103401184	fix_pre	0		120	80.0	2.5	/experiments/Knapen_AOT/AOT_stimuli/rescaled_final/0277_rv.mp4	0.0	353.3617160320282	1.0085365772247314
82	340.23448753356934	pulse	0	t		80.0	2.5	/experiments/Knapen_AOT/AOT_stimuli/rescaled_final/0277_rv.mp4	0.0	354.3536925315857	
82	340.2510476112366	movie	1		300	80.0	2.5	/experiments/Knapen_AOT/AOT_stimuli/rescaled_final/0277_rv.mp4	0.0	354.37025260925293	2.50032639503479
82	341.8307228088379	pulse	1	t		80.0	2.5	/experiments/Knapen_AOT/AOT_stimuli/rescaled_final/0277_rv.mp4	0.0	355.94992780685425	
82	342.75137400627136	fix_post	2		12	80.0	2.5	/experiments/Knapen_AOT/AOT_stimuli/rescaled_final/0277_rv.mp4	0.0	356.8705790042877	0.10002017021179199
83	342.85139417648315	fix_pre	0		120	81.0	2.5	/experiments/Knapen_AOT/AOT_stimuli/rescaled_final/1117_fw.mp4	0.0	356.9705991744995	1.0001459121704102
83	343.4349191188812	pulse	0	t		81.0	2.5	/experiments/Knapen_AOT/AOT_stimuli/rescaled_final/1117_fw.mp4	0.0	357.5541241168976	
83	343.85154008865356	movie	1		300	81.0	2.5	/experiments/Knapen_AOT/AOT_stimuli/rescaled_final/1117_fw.mp4	0.0	357.9707450866699	2.5003809928894043
83	345.030880689621	pulse	1	t		81.0	2.5	/experiments/Knapen_AOT/AOT_stimuli/rescaled_final/1117_fw.mp4	0.0	359.15008568763733	
83	346.35192108154297	fix_post	2		12	81.0	2.5	/experiments/Knapen_AOT/AOT_stimuli/rescaled_final/1117_fw.mp4	0.0	360.4711260795593	0.10000944137573242
84	346.4519305229187	fix_pre	0		120	82.0	2.5	/experiments/Knapen_AOT/AOT_stimuli/rescaled_final/0693_fw.mp4	0.0	360.57113552093506	1.000314474105835
84	346.6354250907898	pulse	0	t		82.0	2.5	/experiments/Knapen_AOT/AOT_stimuli/rescaled_final/0693_fw.mp4	0.0	360.75463008880615	
84	347.45224499702454	movie	1		300	82.0	2.5	/experiments/Knapen_AOT/AOT_stimuli/rescaled_final/0693_fw.mp4	0.0	361.5714499950409	2.500232219696045
84	348.231281042099	pulse	1	t		82.0	2.5	/experiments/Knapen_AOT/AOT_stimuli/rescaled_final/0693_fw.mp4	0.0	362.35048604011536	
84	349.8317377567291	pulse	1	t		82.0	2.5	/experiments/Knapen_AOT/AOT_stimuli/rescaled_final/0693_fw.mp4	0.0	363.9509427547455	
84	349.9524772167206	fix_post	2		12	82.0	2.5	/experiments/Knapen_AOT/AOT_stimuli/rescaled_final/0693_fw.mp4	0.0	364.07168221473694	0.10002732276916504
85	350.05250453948975	fix_pre	0		120	83.0	2.5	blank	1.0	364.1717095375061	1.000114917755127
85	351.0526194572449	movie	1		299	83.0	2.5	blank	1.0	365.17182445526123	2.492042064666748
85	351.4278953075409	pulse	1	t		83.0	2.5	blank	1.0	365.54710030555725	
85	353.02802777290344	pulse	1	t		83.0	2.5	blank	1.0	367.1472327709198	
85	353.5446615219116	fix_post	2		12	83.0	2.5	blank	1.0	367.663866519928	0.1250903606414795
87	353.6697518825531	stim	0		1713					367.78895688056946	14.277072668075562
87	354.62829327583313	pulse	0	t						368.7474982738495	
87	356.22870922088623	pulse	0	t						370.3479142189026	
87	357.82889103889465	pulse	0	t						371.948096036911	
87	359.4291365146637	pulse	0	t						373.54834151268005	
87	361.0293929576874	pulse	0	t						375.14859795570374	
87	362.6295030117035	pulse	0	t						376.74870800971985	
87	364.22969365119934	pulse	0	t						378.3488986492157	
87	365.829980134964	pulse	0	t						379.94918513298035	
87	367.4302022457123	pulse	0	t						381.54940724372864	
