trial_nr	onset	event_type	phase	response	nr_frames	movie_index	movie_duration	movie_file	blank	onset_abs	duration
0	0.14979791641235352	stim	0		95					20.596855878829956	0.791754961013794
0	0.9335618019104004	response	0	space						21.380619764328003	
1	0.9415528774261475	stim	0		2564					21.38861083984375	21.3665189743042
1	22.300693035125732	pulse	0	t						42.747750997543335	
1	22.308071851730347	stim	1		1717					42.75512981414795	14.308238983154297
1	23.899967908859253	pulse	1	t						44.347025871276855	
1	25.499948024749756	pulse	1	t						45.94700598716736	
1	27.099854946136475	pulse	1	t						47.54691290855408	
1	28.69988989830017	pulse	1	t						49.14694786071777	
1	30.299875020980835	pulse	1	t						50.74693298339844	
1	31.899834871292114	pulse	1	t						52.34689283370972	
1	33.49991798400879	pulse	1	t						53.94697594642639	
1	35.09997296333313	pulse	1	t						55.54703092575073	
2	36.616310834884644	fix_pre	0		11	0.0	2.5	/experiments/AOT/AOT_stimuli/rescaled_final/1721_rv.mp4	0.0	57.063368797302246	0.09174799919128418
2	36.69978880882263	pulse	0	t		0.0	2.5	/experiments/AOT/AOT_stimuli/rescaled_final/1721_rv.mp4	0.0	57.146846771240234	
2	36.70805883407593	movie	1		244	0.0	2.5	/experiments/AOT/AOT_stimuli/rescaled_final/1721_rv.mp4	0.0	57.15511679649353	2.508254051208496
2	38.299394845962524	pulse	1	t		0.0	2.5	/experiments/AOT/AOT_stimuli/rescaled_final/1721_rv.mp4	0.0	58.74645280838013	
2	39.216312885284424	fix_post	2		12	0.0	2.5	/experiments/AOT/AOT_stimuli/rescaled_final/1721_rv.mp4	0.0	59.663370847702026	0.10006093978881836
3	39.31637382507324	fix_pre	0		120	1.0	2.5	/experiments/AOT/AOT_stimuli/rescaled_final/0868_rv.mp4	0.0	59.763431787490845	1.0000040531158447
3	39.89984202384949	pulse	0	t		1.0	2.5	/experiments/AOT/AOT_stimuli/rescaled_final/0868_rv.mp4	0.0	60.34689998626709	
3	40.31637787818909	movie	1		243	1.0	2.5	/experiments/AOT/AOT_stimuli/rescaled_final/0868_rv.mp4	0.0	60.76343584060669	2.4994959831237793
3	41.49991488456726	pulse	1	t		1.0	2.5	/experiments/AOT/AOT_stimuli/rescaled_final/0868_rv.mp4	0.0	61.94697284698486	
3	42.815873861312866	fix_post	2		12	1.0	2.5	/experiments/AOT/AOT_stimuli/rescaled_final/0868_rv.mp4	0.0	63.26293182373047	0.10049104690551758
4	42.916364908218384	fix_pre	0		120	2.0	2.5	/experiments/AOT/AOT_stimuli/rescaled_final/1801_rv.mp4	0.0	63.363422870635986	0.9999959468841553
4	43.0997998714447	pulse	0	t		2.0	2.5	/experiments/AOT/AOT_stimuli/rescaled_final/1801_rv.mp4	0.0	63.546857833862305	
4	43.91636085510254	movie	1		242	2.0	2.5	/experiments/AOT/AOT_stimuli/rescaled_final/1801_rv.mp4	0.0	64.36341881752014	2.4999561309814453
4	44.699824810028076	pulse	1	t		2.0	2.5	/experiments/AOT/AOT_stimuli/rescaled_final/1801_rv.mp4	0.0	65.14688277244568	
4	46.298197984695435	pulse	1	t		2.0	2.5	/experiments/AOT/AOT_stimuli/rescaled_final/1801_rv.mp4	0.0	66.74525594711304	
4	46.416316986083984	fix_post	2		12	2.0	2.5	/experiments/AOT/AOT_stimuli/rescaled_final/1801_rv.mp4	0.0	66.86337494850159	0.1000509262084961
5	46.51636791229248	fix_pre	0		120	3.0	2.5	/experiments/AOT/AOT_stimuli/rescaled_final/1165_rv.mp4	0.0	66.96342587471008	0.9999489784240723
5	47.51631689071655	movie	1		244	3.0	2.5	/experiments/AOT/AOT_stimuli/rescaled_final/1165_rv.mp4	0.0	67.96337485313416	2.5000109672546387
5	47.89948582649231	pulse	1	t		3.0	2.5	/experiments/AOT/AOT_stimuli/rescaled_final/1165_rv.mp4	0.0	68.34654378890991	
5	49.499764919281006	pulse	1	t		3.0	2.5	/experiments/AOT/AOT_stimuli/rescaled_final/1165_rv.mp4	0.0	69.94682288169861	
5	50.01632785797119	fix_post	2		12	3.0	2.5	/experiments/AOT/AOT_stimuli/rescaled_final/1165_rv.mp4	0.0	70.4633858203888	0.10001897811889648
6	50.11634683609009	fix_pre	0		119	4.0	2.5	/experiments/AOT/AOT_stimuli/rescaled_final/1018_rv.mp4	0.0	70.56340479850769	0.9916541576385498
6	51.099766969680786	pulse	0	t		4.0	2.5	/experiments/AOT/AOT_stimuli/rescaled_final/1018_rv.mp4	0.0	71.54682493209839	
6	51.10800099372864	movie	1		247	4.0	2.5	/experiments/AOT/AOT_stimuli/rescaled_final/1018_rv.mp4	0.0	71.55505895614624	2.5083348751068115
6	52.699440002441406	pulse	1	t		4.0	2.5	/experiments/AOT/AOT_stimuli/rescaled_final/1018_rv.mp4	0.0	73.14649796485901	
6	53.61633586883545	fix_post	2		12	4.0	2.5	/experiments/AOT/AOT_stimuli/rescaled_final/1018_rv.mp4	0.0	74.06339383125305	0.09999394416809082
7	53.71632981300354	fix_pre	0		120	5.0	2.5	/experiments/AOT/AOT_stimuli/rescaled_final/1928_rv.mp4	0.0	74.16338777542114	0.9999430179595947
7	54.30105996131897	pulse	0	t		5.0	2.5	/experiments/AOT/AOT_stimuli/rescaled_final/1928_rv.mp4	0.0	74.74811792373657	
7	54.716272830963135	movie	1		244	5.0	2.5	/experiments/AOT/AOT_stimuli/rescaled_final/1928_rv.mp4	0.0	75.16333079338074	2.4999890327453613
7	55.89983296394348	pulse	1	t		5.0	2.5	/experiments/AOT/AOT_stimuli/rescaled_final/1928_rv.mp4	0.0	76.34689092636108	
7	57.216261863708496	fix_post	2		12	5.0	2.5	/experiments/AOT/AOT_stimuli/rescaled_final/1928_rv.mp4	0.0	77.6633198261261	0.1000521183013916
8	57.31631398200989	fix_pre	0		120	6.0	2.5	/experiments/AOT/AOT_stimuli/rescaled_final/1386_fw.mp4	0.0	77.76337194442749	0.9999189376831055
8	57.49980401992798	pulse	0	t		6.0	2.5	/experiments/AOT/AOT_stimuli/rescaled_final/1386_fw.mp4	0.0	77.94686198234558	
8	58.31623291969299	movie	1		244	6.0	2.5	/experiments/AOT/AOT_stimuli/rescaled_final/1386_fw.mp4	0.0	78.7632908821106	2.499738931655884
8	59.099342823028564	pulse	1	t		6.0	2.5	/experiments/AOT/AOT_stimuli/rescaled_final/1386_fw.mp4	0.0	79.54640078544617	
8	60.69834589958191	pulse	1	t		6.0	2.5	/experiments/AOT/AOT_stimuli/rescaled_final/1386_fw.mp4	0.0	81.14540386199951	
8	60.81597185134888	fix_post	2		12	6.0	2.5	/experiments/AOT/AOT_stimuli/rescaled_final/1386_fw.mp4	0.0	81.26302981376648	0.10004115104675293
9	60.91601300239563	fix_pre	0		120	7.0	2.5	blank	1.0	81.36307096481323	1.0000967979431152
9	61.916109800338745	movie	1		300	7.0	2.5	blank	1.0	82.36316776275635	2.500157117843628
9	62.29968786239624	pulse	1	t		7.0	2.5	blank	1.0	82.74674582481384	
9	63.89969182014465	pulse	1	t		7.0	2.5	blank	1.0	84.34674978256226	
9	64.41626691818237	fix_post	2		12	7.0	2.5	blank	1.0	84.86332488059998	0.10000801086425781
10	64.51627492904663	fix_pre	0		119	8.0	2.5	/experiments/AOT/AOT_stimuli/rescaled_final/0413_rv.mp4	0.0	84.96333289146423	0.9916179180145264
10	65.49976086616516	pulse	0	t		8.0	2.5	/experiments/AOT/AOT_stimuli/rescaled_final/0413_rv.mp4	0.0	85.94681882858276	
10	65.50789284706116	movie	1		245	8.0	2.5	/experiments/AOT/AOT_stimuli/rescaled_final/0413_rv.mp4	0.0	85.95495080947876	2.5082590579986572
10	67.0991837978363	pulse	1	t		8.0	2.5	/experiments/AOT/AOT_stimuli/rescaled_final/0413_rv.mp4	0.0	87.5462417602539	
10	68.01615190505981	fix_post	2		12	8.0	2.5	/experiments/AOT/AOT_stimuli/rescaled_final/0413_rv.mp4	0.0	88.46320986747742	0.09999704360961914
11	68.11614894866943	fix_pre	0		120	9.0	2.5	/experiments/AOT/AOT_stimuli/rescaled_final/0936_fw.mp4	0.0	88.56320691108704	1.0000250339508057
11	68.69966387748718	pulse	0	t		9.0	2.5	/experiments/AOT/AOT_stimuli/rescaled_final/0936_fw.mp4	0.0	89.14672183990479	
11	69.11617398262024	movie	1		244	9.0	2.5	/experiments/AOT/AOT_stimuli/rescaled_final/0936_fw.mp4	0.0	89.56323194503784	2.500013828277588
11	70.29967999458313	pulse	1	t		9.0	2.5	/experiments/AOT/AOT_stimuli/rescaled_final/0936_fw.mp4	0.0	90.74673795700073	
11	71.61618781089783	fix_post	2		12	9.0	2.5	/experiments/AOT/AOT_stimuli/rescaled_final/0936_fw.mp4	0.0	92.06324577331543	0.09993314743041992
12	71.71612095832825	fix_pre	0		120	10.0	2.5	/experiments/AOT/AOT_stimuli/rescaled_final/0889_fw.mp4	0.0	92.16317892074585	1.0000050067901611
12	71.89963603019714	pulse	0	t		10.0	2.5	/experiments/AOT/AOT_stimuli/rescaled_final/0889_fw.mp4	0.0	92.34669399261475	
12	72.71612596511841	movie	1		243	10.0	2.5	/experiments/AOT/AOT_stimuli/rescaled_final/0889_fw.mp4	0.0	93.16318392753601	2.4995930194854736
12	73.49965286254883	pulse	1	t		10.0	2.5	/experiments/AOT/AOT_stimuli/rescaled_final/0889_fw.mp4	0.0	93.94671082496643	
12	75.0982928276062	pulse	1	t		10.0	2.5	/experiments/AOT/AOT_stimuli/rescaled_final/0889_fw.mp4	0.0	95.5453507900238	
12	75.21571898460388	fix_post	2		12	10.0	2.5	/experiments/AOT/AOT_stimuli/rescaled_final/0889_fw.mp4	0.0	95.66277694702148	0.1003730297088623
13	75.31609201431274	fix_pre	0		120	11.0	2.5	/experiments/AOT/AOT_stimuli/rescaled_final/1086_rv.mp4	0.0	95.76314997673035	0.9996509552001953
13	76.31574296951294	movie	1		246	11.0	2.5	/experiments/AOT/AOT_stimuli/rescaled_final/1086_rv.mp4	0.0	96.76280093193054	2.5003819465637207
13	76.69924402236938	pulse	1	t		11.0	2.5	/experiments/AOT/AOT_stimuli/rescaled_final/1086_rv.mp4	0.0	97.14630198478699	
13	78.29959297180176	pulse	1	t		11.0	2.5	/experiments/AOT/AOT_stimuli/rescaled_final/1086_rv.mp4	0.0	98.74665093421936	
13	78.81612491607666	fix_post	2		12	11.0	2.5	/experiments/AOT/AOT_stimuli/rescaled_final/1086_rv.mp4	0.0	99.26318287849426	0.1000370979309082
14	78.91616201400757	fix_pre	0		119	12.0	2.5	blank	1.0	99.36321997642517	0.9916768074035645
14	79.89964294433594	pulse	0	t		12.0	2.5	blank	1.0	100.34670090675354	
14	79.90783882141113	movie	1		301	12.0	2.5	blank	1.0	100.35489678382874	2.5083131790161133
14	81.49964594841003	pulse	1	t		12.0	2.5	blank	1.0	101.94670391082764	
14	82.41615200042725	fix_post	2		12	12.0	2.5	blank	1.0	102.86320996284485	0.10002303123474121
15	82.51617503166199	fix_pre	0		120	13.0	2.5	/experiments/AOT/AOT_stimuli/rescaled_final/0272_fw.mp4	0.0	102.96323299407959	0.9999878406524658
15	83.09964489936829	pulse	0	t		13.0	2.5	/experiments/AOT/AOT_stimuli/rescaled_final/0272_fw.mp4	0.0	103.54670286178589	
15	83.51616287231445	movie	1		243	13.0	2.5	/experiments/AOT/AOT_stimuli/rescaled_final/0272_fw.mp4	0.0	103.96322083473206	2.5000360012054443
15	84.6997458934784	pulse	1	t		13.0	2.5	/experiments/AOT/AOT_stimuli/rescaled_final/0272_fw.mp4	0.0	105.146803855896	
15	86.0161988735199	fix_post	2		12	13.0	2.5	/experiments/AOT/AOT_stimuli/rescaled_final/0272_fw.mp4	0.0	106.4632568359375	0.09996604919433594
16	86.11616492271423	fix_pre	0		120	14.0	2.5	/experiments/AOT/AOT_stimuli/rescaled_final/0991_rv.mp4	0.0	106.56322288513184	0.9994709491729736
16	86.29965782165527	pulse	0	t		14.0	2.5	/experiments/AOT/AOT_stimuli/rescaled_final/0991_rv.mp4	0.0	106.74671578407288	
16	87.1156358718872	movie	1		243	14.0	2.5	/experiments/AOT/AOT_stimuli/rescaled_final/0991_rv.mp4	0.0	107.56269383430481	2.500417947769165
16	87.89954686164856	pulse	1	t		14.0	2.5	/experiments/AOT/AOT_stimuli/rescaled_final/0991_rv.mp4	0.0	108.34660482406616	
16	89.49785494804382	pulse	1	t		14.0	2.5	/experiments/AOT/AOT_stimuli/rescaled_final/0991_rv.mp4	0.0	109.94491291046143	
16	89.61605381965637	fix_post	2		12	14.0	2.5	/experiments/AOT/AOT_stimuli/rescaled_final/0991_rv.mp4	0.0	110.06311178207397	0.10005402565002441
17	89.7161078453064	fix_pre	0		120	15.0	2.5	/experiments/AOT/AOT_stimuli/rescaled_final/0269_rv.mp4	0.0	110.163165807724	0.9999001026153564
17	90.71600794792175	movie	1		244	15.0	2.5	/experiments/AOT/AOT_stimuli/rescaled_final/0269_rv.mp4	0.0	111.16306591033936	2.5001220703125
17	91.09916496276855	pulse	1	t		15.0	2.5	/experiments/AOT/AOT_stimuli/rescaled_final/0269_rv.mp4	0.0	111.54622292518616	
17	92.6995198726654	pulse	1	t		15.0	2.5	/experiments/AOT/AOT_stimuli/rescaled_final/0269_rv.mp4	0.0	113.14657783508301	
17	93.21613001823425	fix_post	2		12	15.0	2.5	/experiments/AOT/AOT_stimuli/rescaled_final/0269_rv.mp4	0.0	113.66318798065186	0.09990692138671875
18	93.31603693962097	fix_pre	0		119	16.0	2.5	/experiments/AOT/AOT_stimuli/rescaled_final/0807_fw.mp4	0.0	113.76309490203857	0.9917449951171875
18	94.29956102371216	pulse	0	t		16.0	2.5	/experiments/AOT/AOT_stimuli/rescaled_final/0807_fw.mp4	0.0	114.74661898612976	
18	94.30778193473816	movie	1		242	16.0	2.5	/experiments/AOT/AOT_stimuli/rescaled_final/0807_fw.mp4	0.0	114.75483989715576	2.508234977722168
18	95.90068197250366	pulse	1	t		16.0	2.5	/experiments/AOT/AOT_stimuli/rescaled_final/0807_fw.mp4	0.0	116.34773993492126	
18	96.81601691246033	fix_post	2		12	16.0	2.5	/experiments/AOT/AOT_stimuli/rescaled_final/0807_fw.mp4	0.0	117.26307487487793	0.0999760627746582
19	96.91599297523499	fix_pre	0		120	17.0	2.5	/experiments/AOT/AOT_stimuli/rescaled_final/0367_fw.mp4	0.0	117.36305093765259	0.9999809265136719
19	97.49955892562866	pulse	0	t		17.0	2.5	/experiments/AOT/AOT_stimuli/rescaled_final/0367_fw.mp4	0.0	117.94661688804626	
19	97.91597390174866	movie	1		245	17.0	2.5	/experiments/AOT/AOT_stimuli/rescaled_final/0367_fw.mp4	0.0	118.36303186416626	2.500066041946411
19	99.09955096244812	pulse	1	t		17.0	2.5	/experiments/AOT/AOT_stimuli/rescaled_final/0367_fw.mp4	0.0	119.54660892486572	
19	100.41603994369507	fix_post	2		12	17.0	2.5	/experiments/AOT/AOT_stimuli/rescaled_final/0367_fw.mp4	0.0	120.86309790611267	0.09995603561401367
20	100.51599597930908	fix_pre	0		120	18.0	2.5	/experiments/AOT/AOT_stimuli/rescaled_final/0516_rv.mp4	0.0	120.96305394172668	1.0000920295715332
20	100.69956398010254	pulse	0	t		18.0	2.5	/experiments/AOT/AOT_stimuli/rescaled_final/0516_rv.mp4	0.0	121.14662194252014	
20	101.51608800888062	movie	1		246	18.0	2.5	/experiments/AOT/AOT_stimuli/rescaled_final/0516_rv.mp4	0.0	121.96314597129822	2.499894857406616
20	102.29951095581055	pulse	1	t		18.0	2.5	/experiments/AOT/AOT_stimuli/rescaled_final/0516_rv.mp4	0.0	122.74656891822815	
20	103.89816188812256	pulse	1	t		18.0	2.5	/experiments/AOT/AOT_stimuli/rescaled_final/0516_rv.mp4	0.0	124.34521985054016	
20	104.01598286628723	fix_post	2		12	18.0	2.5	/experiments/AOT/AOT_stimuli/rescaled_final/0516_rv.mp4	0.0	124.46304082870483	0.10015511512756348
21	104.1161379814148	fix_pre	0		120	19.0	2.5	/experiments/AOT/AOT_stimuli/rescaled_final/0640_rv.mp4	0.0	124.5631959438324	0.9999229907989502
21	105.11606097221375	movie	1		243	19.0	2.5	/experiments/AOT/AOT_stimuli/rescaled_final/0640_rv.mp4	0.0	125.56311893463135	2.4999899864196777
21	105.50041699409485	pulse	1	t		19.0	2.5	/experiments/AOT/AOT_stimuli/rescaled_final/0640_rv.mp4	0.0	125.94747495651245	
21	107.09942984580994	pulse	1	t		19.0	2.5	/experiments/AOT/AOT_stimuli/rescaled_final/0640_rv.mp4	0.0	127.54648780822754	
21	107.61605095863342	fix_post	2		12	19.0	2.5	/experiments/AOT/AOT_stimuli/rescaled_final/0640_rv.mp4	0.0	128.06310892105103	0.09998893737792969
22	107.71603989601135	fix_pre	0		119	20.0	2.5	/experiments/AOT/AOT_stimuli/rescaled_final/1706_fw.mp4	0.0	128.16309785842896	0.9915311336517334
22	108.69950580596924	pulse	0	t		20.0	2.5	/experiments/AOT/AOT_stimuli/rescaled_final/1706_fw.mp4	0.0	129.14656376838684	
22	108.70757102966309	movie	1		245	20.0	2.5	/experiments/AOT/AOT_stimuli/rescaled_final/1706_fw.mp4	0.0	129.1546289920807	2.5085058212280273
22	110.29905891418457	pulse	1	t		20.0	2.5	/experiments/AOT/AOT_stimuli/rescaled_final/1706_fw.mp4	0.0	130.74611687660217	
22	111.21607685089111	fix_post	2		12	20.0	2.5	/experiments/AOT/AOT_stimuli/rescaled_final/1706_fw.mp4	0.0	131.66313481330872	0.09984207153320312
23	111.31591892242432	fix_pre	0		120	21.0	2.5	blank	1.0	131.76297688484192	1.0002219676971436
23	111.89940285682678	pulse	0	t		21.0	2.5	blank	1.0	132.34646081924438	
23	112.31614089012146	movie	1		300	21.0	2.5	blank	1.0	132.76319885253906	2.49944806098938
23	113.499431848526	pulse	1	t		21.0	2.5	blank	1.0	133.9464898109436	
23	114.81558895111084	fix_post	2		12	21.0	2.5	blank	1.0	135.26264691352844	0.10044288635253906
24	114.91603183746338	fix_pre	0		120	22.0	2.5	/experiments/AOT/AOT_stimuli/rescaled_final/0027_fw.mp4	0.0	135.36308979988098	1.0000271797180176
24	115.09948492050171	pulse	0	t		22.0	2.5	/experiments/AOT/AOT_stimuli/rescaled_final/0027_fw.mp4	0.0	135.5465428829193	
24	115.9160590171814	movie	1		243	22.0	2.5	/experiments/AOT/AOT_stimuli/rescaled_final/0027_fw.mp4	0.0	136.363116979599	2.499915838241577
24	116.69957900047302	pulse	1	t		22.0	2.5	/experiments/AOT/AOT_stimuli/rescaled_final/0027_fw.mp4	0.0	137.14663696289062	
24	118.2974898815155	pulse	1	t		22.0	2.5	/experiments/AOT/AOT_stimuli/rescaled_final/0027_fw.mp4	0.0	138.7445478439331	
24	118.41597485542297	fix_post	2		12	22.0	2.5	/experiments/AOT/AOT_stimuli/rescaled_final/0027_fw.mp4	0.0	138.86303281784058	0.10003495216369629
25	118.51600980758667	fix_pre	0		120	23.0	2.5	/experiments/AOT/AOT_stimuli/rescaled_final/0072_rv.mp4	0.0	138.96306777000427	0.9999980926513672
25	119.51600790023804	movie	1		244	23.0	2.5	/experiments/AOT/AOT_stimuli/rescaled_final/0072_rv.mp4	0.0	139.96306586265564	2.5000181198120117
25	119.89894080162048	pulse	1	t		23.0	2.5	/experiments/AOT/AOT_stimuli/rescaled_final/0072_rv.mp4	0.0	140.3459987640381	
25	121.49943399429321	pulse	1	t		23.0	2.5	/experiments/AOT/AOT_stimuli/rescaled_final/0072_rv.mp4	0.0	141.94649195671082	
25	122.01602602005005	fix_post	2		12	23.0	2.5	/experiments/AOT/AOT_stimuli/rescaled_final/0072_rv.mp4	0.0	142.46308398246765	0.09993195533752441
26	122.11595797538757	fix_pre	0		119	24.0	2.5	/experiments/AOT/AOT_stimuli/rescaled_final/0178_rv.mp4	0.0	142.56301593780518	0.9916009902954102
26	123.09932088851929	pulse	0	t		24.0	2.5	/experiments/AOT/AOT_stimuli/rescaled_final/0178_rv.mp4	0.0	143.5463788509369	
26	123.10755896568298	movie	1		246	24.0	2.5	/experiments/AOT/AOT_stimuli/rescaled_final/0178_rv.mp4	0.0	143.5546169281006	2.508307933807373
26	124.69895792007446	pulse	1	t		24.0	2.5	/experiments/AOT/AOT_stimuli/rescaled_final/0178_rv.mp4	0.0	145.14601588249207	
26	125.61586689949036	fix_post	2		12	24.0	2.5	/experiments/AOT/AOT_stimuli/rescaled_final/0178_rv.mp4	0.0	146.06292486190796	0.10007691383361816
27	125.71594381332397	fix_pre	0		120	25.0	2.5	/experiments/AOT/AOT_stimuli/rescaled_final/0285_fw.mp4	0.0	146.16300177574158	0.9999680519104004
27	126.2994270324707	pulse	0	t		25.0	2.5	/experiments/AOT/AOT_stimuli/rescaled_final/0285_fw.mp4	0.0	146.7464849948883	
27	126.71591186523438	movie	1		245	25.0	2.5	/experiments/AOT/AOT_stimuli/rescaled_final/0285_fw.mp4	0.0	147.16296982765198	2.4999351501464844
27	127.89945387840271	pulse	1	t		25.0	2.5	/experiments/AOT/AOT_stimuli/rescaled_final/0285_fw.mp4	0.0	148.3465118408203	
27	129.21584701538086	fix_post	2		12	25.0	2.5	/experiments/AOT/AOT_stimuli/rescaled_final/0285_fw.mp4	0.0	149.66290497779846	0.10001993179321289
28	129.31586694717407	fix_pre	0		120	26.0	2.5	/experiments/AOT/AOT_stimuli/rescaled_final/0855_rv.mp4	0.0	149.76292490959167	0.9999768733978271
28	129.49938201904297	pulse	0	t		26.0	2.5	/experiments/AOT/AOT_stimuli/rescaled_final/0855_rv.mp4	0.0	149.94643998146057	
28	130.3158438205719	movie	1		245	26.0	2.5	/experiments/AOT/AOT_stimuli/rescaled_final/0855_rv.mp4	0.0	150.7629017829895	2.500070095062256
28	131.09934091567993	pulse	1	t		26.0	2.5	/experiments/AOT/AOT_stimuli/rescaled_final/0855_rv.mp4	0.0	151.54639887809753	
28	132.69808197021484	pulse	1	t		26.0	2.5	/experiments/AOT/AOT_stimuli/rescaled_final/0855_rv.mp4	0.0	153.14513993263245	
28	132.81591391563416	fix_post	2		12	26.0	2.5	/experiments/AOT/AOT_stimuli/rescaled_final/0855_rv.mp4	0.0	153.26297187805176	0.09989500045776367
29	132.91580891609192	fix_pre	0		120	27.0	2.5	blank	1.0	153.36286687850952	1.0001590251922607
29	133.91596794128418	movie	1		300	27.0	2.5	blank	1.0	154.36302590370178	2.4998390674591064
29	134.29950284957886	pulse	1	t		27.0	2.5	blank	1.0	154.74656081199646	
29	135.8993968963623	pulse	1	t		27.0	2.5	blank	1.0	156.3464548587799	
29	136.4158070087433	fix_post	2		12	27.0	2.5	blank	1.0	156.8628649711609	0.09999990463256836
30	136.51580691337585	fix_pre	0		119	28.0	2.5	/experiments/AOT/AOT_stimuli/rescaled_final/0256_fw.mp4	0.0	156.96286487579346	0.9917850494384766
30	137.49935388565063	pulse	0	t		28.0	2.5	/experiments/AOT/AOT_stimuli/rescaled_final/0256_fw.mp4	0.0	157.94641184806824	
30	137.50759196281433	movie	1		243	28.0	2.5	/experiments/AOT/AOT_stimuli/rescaled_final/0256_fw.mp4	0.0	157.95464992523193	2.508228063583374
30	139.10043382644653	pulse	1	t		28.0	2.5	/experiments/AOT/AOT_stimuli/rescaled_final/0256_fw.mp4	0.0	159.54749178886414	
30	140.0158200263977	fix_post	2		12	28.0	2.5	/experiments/AOT/AOT_stimuli/rescaled_final/0256_fw.mp4	0.0	160.4628779888153	0.10001587867736816
31	140.11583590507507	fix_pre	0		120	29.0	2.5	/experiments/AOT/AOT_stimuli/rescaled_final/0645_rv.mp4	0.0	160.56289386749268	1.000096082687378
31	140.69934487342834	pulse	0	t		29.0	2.5	/experiments/AOT/AOT_stimuli/rescaled_final/0645_rv.mp4	0.0	161.14640283584595	
31	141.11593198776245	movie	1		245	29.0	2.5	/experiments/AOT/AOT_stimuli/rescaled_final/0645_rv.mp4	0.0	161.56298995018005	2.5000758171081543
31	142.2993609905243	pulse	1	t		29.0	2.5	/experiments/AOT/AOT_stimuli/rescaled_final/0645_rv.mp4	0.0	162.7464189529419	
31	143.6160078048706	fix_post	2		12	29.0	2.5	/experiments/AOT/AOT_stimuli/rescaled_final/0645_rv.mp4	0.0	164.0630657672882	0.09978222846984863
32	143.71579003334045	fix_pre	0		120	30.0	2.5	/experiments/AOT/AOT_stimuli/rescaled_final/1955_rv.mp4	0.0	164.16284799575806	1.000013828277588
32	143.89934301376343	pulse	0	t		30.0	2.5	/experiments/AOT/AOT_stimuli/rescaled_final/1955_rv.mp4	0.0	164.34640097618103	
32	144.71580386161804	movie	1		243	30.0	2.5	/experiments/AOT/AOT_stimuli/rescaled_final/1955_rv.mp4	0.0	165.16286182403564	2.499997138977051
32	145.49925303459167	pulse	1	t		30.0	2.5	/experiments/AOT/AOT_stimuli/rescaled_final/1955_rv.mp4	0.0	165.94631099700928	
32	147.09756183624268	pulse	1	t		30.0	2.5	/experiments/AOT/AOT_stimuli/rescaled_final/1955_rv.mp4	0.0	167.54461979866028	
32	147.2158010005951	fix_post	2		12	30.0	2.5	/experiments/AOT/AOT_stimuli/rescaled_final/1955_rv.mp4	0.0	167.6628589630127	0.10015296936035156
33	147.31595396995544	fix_pre	0		120	31.0	2.5	/experiments/AOT/AOT_stimuli/rescaled_final/0268_rv.mp4	0.0	167.76301193237305	0.9998960494995117
33	148.31585001945496	movie	1		246	31.0	2.5	/experiments/AOT/AOT_stimuli/rescaled_final/0268_rv.mp4	0.0	168.76290798187256	2.499570846557617
33	148.69928002357483	pulse	1	t		31.0	2.5	/experiments/AOT/AOT_stimuli/rescaled_final/0268_rv.mp4	0.0	169.14633798599243	
33	150.29922795295715	pulse	1	t		31.0	2.5	/experiments/AOT/AOT_stimuli/rescaled_final/0268_rv.mp4	0.0	170.74628591537476	
33	150.81542086601257	fix_post	2		12	31.0	2.5	/experiments/AOT/AOT_stimuli/rescaled_final/0268_rv.mp4	0.0	171.26247882843018	0.10037398338317871
34	150.91579484939575	fix_pre	0		119	32.0	2.5	/experiments/AOT/AOT_stimuli/rescaled_final/1795_rv.mp4	0.0	171.36285281181335	0.9916090965270996
34	151.89927101135254	pulse	0	t		32.0	2.5	/experiments/AOT/AOT_stimuli/rescaled_final/1795_rv.mp4	0.0	172.34632897377014	
34	151.90740394592285	movie	1		246	32.0	2.5	/experiments/AOT/AOT_stimuli/rescaled_final/1795_rv.mp4	0.0	172.35446190834045	2.5084290504455566
34	153.50038194656372	pulse	1	t		32.0	2.5	/experiments/AOT/AOT_stimuli/rescaled_final/1795_rv.mp4	0.0	173.94743990898132	
34	154.4158329963684	fix_post	2		12	32.0	2.5	/experiments/AOT/AOT_stimuli/rescaled_final/1795_rv.mp4	0.0	174.862890958786	0.09997987747192383
35	154.51581287384033	fix_pre	0		120	33.0	2.5	/experiments/AOT/AOT_stimuli/rescaled_final/1034_fw.mp4	0.0	174.96287083625793	0.9999940395355225
35	155.0992670059204	pulse	0	t		33.0	2.5	/experiments/AOT/AOT_stimuli/rescaled_final/1034_fw.mp4	0.0	175.546324968338	
35	155.51580691337585	movie	1		245	33.0	2.5	/experiments/AOT/AOT_stimuli/rescaled_final/1034_fw.mp4	0.0	175.96286487579346	2.500030994415283
35	156.6993110179901	pulse	1	t		33.0	2.5	/experiments/AOT/AOT_stimuli/rescaled_final/1034_fw.mp4	0.0	177.14636898040771	
35	158.01583790779114	fix_post	2		12	33.0	2.5	/experiments/AOT/AOT_stimuli/rescaled_final/1034_fw.mp4	0.0	178.46289587020874	0.09983611106872559
36	158.11567401885986	fix_pre	0		120	34.0	2.5	/experiments/AOT/AOT_stimuli/rescaled_final/1209_fw.mp4	0.0	178.56273198127747	1.000152826309204
36	158.29923796653748	pulse	0	t		34.0	2.5	/experiments/AOT/AOT_stimuli/rescaled_final/1209_fw.mp4	0.0	178.74629592895508	
36	159.11582684516907	movie	1		244	34.0	2.5	/experiments/AOT/AOT_stimuli/rescaled_final/1209_fw.mp4	0.0	179.56288480758667	2.4999539852142334
36	159.89927196502686	pulse	1	t		34.0	2.5	/experiments/AOT/AOT_stimuli/rescaled_final/1209_fw.mp4	0.0	180.34632992744446	
36	161.49818587303162	pulse	1	t		34.0	2.5	/experiments/AOT/AOT_stimuli/rescaled_final/1209_fw.mp4	0.0	181.94524383544922	
36	161.6157808303833	fix_post	2		12	34.0	2.5	/experiments/AOT/AOT_stimuli/rescaled_final/1209_fw.mp4	0.0	182.0628387928009	0.09994101524353027
37	161.71572184562683	fix_pre	0		120	35.0	2.5	blank	1.0	182.16277980804443	0.9999840259552002
37	162.71570587158203	movie	1		300	35.0	2.5	blank	1.0	183.16276383399963	2.499943971633911
37	163.09921598434448	pulse	1	t		35.0	2.5	blank	1.0	183.54627394676208	
37	164.69927883148193	pulse	1	t		35.0	2.5	blank	1.0	185.14633679389954	
37	165.21564984321594	fix_post	2		12	35.0	2.5	blank	1.0	185.66270780563354	0.10003900527954102
38	165.31568884849548	fix_pre	0		119	36.0	2.5	/experiments/AOT/AOT_stimuli/rescaled_final/1762_fw.mp4	0.0	185.7627468109131	0.9917101860046387
38	166.2992069721222	pulse	0	t		36.0	2.5	/experiments/AOT/AOT_stimuli/rescaled_final/1762_fw.mp4	0.0	186.7462649345398	
38	166.30739903450012	movie	1		244	36.0	2.5	/experiments/AOT/AOT_stimuli/rescaled_final/1762_fw.mp4	0.0	186.75445699691772	2.5083518028259277
38	167.8988528251648	pulse	1	t		36.0	2.5	/experiments/AOT/AOT_stimuli/rescaled_final/1762_fw.mp4	0.0	188.3459107875824	
38	168.81575083732605	fix_post	2		12	36.0	2.5	/experiments/AOT/AOT_stimuli/rescaled_final/1762_fw.mp4	0.0	189.26280879974365	0.09990811347961426
39	168.91565895080566	fix_pre	0		120	37.0	2.5	/experiments/AOT/AOT_stimuli/rescaled_final/0295_rv.mp4	0.0	189.36271691322327	1.0000810623168945
39	169.49920988082886	pulse	0	t		37.0	2.5	/experiments/AOT/AOT_stimuli/rescaled_final/0295_rv.mp4	0.0	189.94626784324646	
39	169.91574001312256	movie	1		245	37.0	2.5	/experiments/AOT/AOT_stimuli/rescaled_final/0295_rv.mp4	0.0	190.36279797554016	2.4996449947357178
39	171.09882402420044	pulse	1	t		37.0	2.5	/experiments/AOT/AOT_stimuli/rescaled_final/0295_rv.mp4	0.0	191.54588198661804	
39	172.41538500785828	fix_post	2		12	37.0	2.5	/experiments/AOT/AOT_stimuli/rescaled_final/0295_rv.mp4	0.0	192.86244297027588	0.10007596015930176
40	172.51546096801758	fix_pre	0		120	38.0	2.5	/experiments/AOT/AOT_stimuli/rescaled_final/1034_rv.mp4	0.0	192.96251893043518	1.0001349449157715
40	172.69934391975403	pulse	0	t		38.0	2.5	/experiments/AOT/AOT_stimuli/rescaled_final/1034_rv.mp4	0.0	193.14640188217163	
40	173.51559591293335	movie	1		247	38.0	2.5	/experiments/AOT/AOT_stimuli/rescaled_final/1034_rv.mp4	0.0	193.96265387535095	2.500092029571533
40	174.29926681518555	pulse	1	t		38.0	2.5	/experiments/AOT/AOT_stimuli/rescaled_final/1034_rv.mp4	0.0	194.74632477760315	
40	175.8987159729004	pulse	1	t		38.0	2.5	/experiments/AOT/AOT_stimuli/rescaled_final/1034_rv.mp4	0.0	196.345773935318	
40	176.01568794250488	fix_post	2		12	38.0	2.5	/experiments/AOT/AOT_stimuli/rescaled_final/1034_rv.mp4	0.0	196.46274590492249	0.09997105598449707
41	176.11565899848938	fix_pre	0		120	39.0	2.5	/experiments/AOT/AOT_stimuli/rescaled_final/1216_rv.mp4	0.0	196.56271696090698	1.0000598430633545
41	177.11571884155273	movie	1		243	39.0	2.5	/experiments/AOT/AOT_stimuli/rescaled_final/1216_rv.mp4	0.0	197.56277680397034	2.4999101161956787
41	177.49870896339417	pulse	1	t		39.0	2.5	/experiments/AOT/AOT_stimuli/rescaled_final/1216_rv.mp4	0.0	197.94576692581177	
41	179.09912586212158	pulse	1	t		39.0	2.5	/experiments/AOT/AOT_stimuli/rescaled_final/1216_rv.mp4	0.0	199.54618382453918	
41	179.6156289577484	fix_post	2		12	39.0	2.5	/experiments/AOT/AOT_stimuli/rescaled_final/1216_rv.mp4	0.0	200.06268692016602	0.10002899169921875
42	179.71565794944763	fix_pre	0		119	40.0	2.5	/experiments/AOT/AOT_stimuli/rescaled_final/0812_rv.mp4	0.0	200.16271591186523	0.9916129112243652
42	180.69912886619568	pulse	0	t		40.0	2.5	/experiments/AOT/AOT_stimuli/rescaled_final/0812_rv.mp4	0.0	201.14618682861328	
42	180.707270860672	movie	1		243	40.0	2.5	/experiments/AOT/AOT_stimuli/rescaled_final/0812_rv.mp4	0.0	201.1543288230896	2.5083680152893066
42	182.3000259399414	pulse	1	t		40.0	2.5	/experiments/AOT/AOT_stimuli/rescaled_final/0812_rv.mp4	0.0	202.747083902359	
42	183.2156388759613	fix_post	2		12	40.0	2.5	/experiments/AOT/AOT_stimuli/rescaled_final/0812_rv.mp4	0.0	203.6626968383789	0.09992504119873047
43	183.31556391716003	fix_pre	0		120	41.0	2.5	blank	1.0	203.76262187957764	1.000067949295044
43	183.89910888671875	pulse	0	t		41.0	2.5	blank	1.0	204.34616684913635	
43	184.31563186645508	movie	1		300	41.0	2.5	blank	1.0	204.76268982887268	2.4999749660491943
43	185.4991569519043	pulse	1	t		41.0	2.5	blank	1.0	205.9462149143219	
43	186.81560683250427	fix_post	2		12	41.0	2.5	blank	1.0	207.26266479492188	0.10001397132873535
44	186.915620803833	fix_pre	0		120	42.0	2.5	/experiments/AOT/AOT_stimuli/rescaled_final/0664_fw.mp4	0.0	207.3626787662506	1.0000522136688232
44	187.0991678237915	pulse	0	t		42.0	2.5	/experiments/AOT/AOT_stimuli/rescaled_final/0664_fw.mp4	0.0	207.5462257862091	
44	187.91567301750183	movie	1		246	42.0	2.5	/experiments/AOT/AOT_stimuli/rescaled_final/0664_fw.mp4	0.0	208.36273097991943	2.4999029636383057
44	188.6991159915924	pulse	1	t		42.0	2.5	/experiments/AOT/AOT_stimuli/rescaled_final/0664_fw.mp4	0.0	209.14617395401	
44	190.29788780212402	pulse	1	t		42.0	2.5	/experiments/AOT/AOT_stimuli/rescaled_final/0664_fw.mp4	0.0	210.74494576454163	
44	190.41557598114014	fix_post	2		12	42.0	2.5	/experiments/AOT/AOT_stimuli/rescaled_final/0664_fw.mp4	0.0	210.86263394355774	0.09998202323913574
45	190.51555800437927	fix_pre	0		120	43.0	2.5	/experiments/AOT/AOT_stimuli/rescaled_final/1701_rv.mp4	0.0	210.96261596679688	1.0001189708709717
45	191.51567697525024	movie	1		244	43.0	2.5	/experiments/AOT/AOT_stimuli/rescaled_final/1701_rv.mp4	0.0	211.96273493766785	2.500002861022949
45	191.90010499954224	pulse	1	t		43.0	2.5	/experiments/AOT/AOT_stimuli/rescaled_final/1701_rv.mp4	0.0	212.34716296195984	
45	193.49903988838196	pulse	1	t		43.0	2.5	/experiments/AOT/AOT_stimuli/rescaled_final/1701_rv.mp4	0.0	213.94609785079956	
45	194.0156798362732	fix_post	2		12	43.0	2.5	/experiments/AOT/AOT_stimuli/rescaled_final/1701_rv.mp4	0.0	214.4627377986908	0.09991216659545898
46	194.11559200286865	fix_pre	0		118	44.0	2.5	/experiments/AOT/AOT_stimuli/rescaled_final/1964_rv.mp4	0.0	214.56264996528625	0.9916138648986816
46	195.09907698631287	pulse	0	t		44.0	2.5	/experiments/AOT/AOT_stimuli/rescaled_final/1964_rv.mp4	0.0	215.54613494873047	
46	195.10720586776733	movie	1		247	44.0	2.5	/experiments/AOT/AOT_stimuli/rescaled_final/1964_rv.mp4	0.0	215.55426383018494	2.5083560943603516
46	196.698716878891	pulse	1	t		44.0	2.5	/experiments/AOT/AOT_stimuli/rescaled_final/1964_rv.mp4	0.0	217.1457748413086	
46	197.61556196212769	fix_post	2		12	44.0	2.5	/experiments/AOT/AOT_stimuli/rescaled_final/1964_rv.mp4	0.0	218.0626199245453	0.10004186630249023
47	197.71560382843018	fix_pre	0		120	45.0	2.5	/experiments/AOT/AOT_stimuli/rescaled_final/0237_rv.mp4	0.0	218.16266179084778	0.9999690055847168
47	198.29909801483154	pulse	0	t		45.0	2.5	/experiments/AOT/AOT_stimuli/rescaled_final/0237_rv.mp4	0.0	218.74615597724915	
47	198.7155728340149	movie	1		245	45.0	2.5	/experiments/AOT/AOT_stimuli/rescaled_final/0237_rv.mp4	0.0	219.1626307964325	2.4999070167541504
47	199.89918780326843	pulse	1	t		45.0	2.5	/experiments/AOT/AOT_stimuli/rescaled_final/0237_rv.mp4	0.0	220.34624576568604	
47	201.21547985076904	fix_post	2		12	45.0	2.5	/experiments/AOT/AOT_stimuli/rescaled_final/0237_rv.mp4	0.0	221.66253781318665	0.10024809837341309
48	201.31572794914246	fix_pre	0		120	46.0	2.5	/experiments/AOT/AOT_stimuli/rescaled_final/0868_rv.mp4	0.0	221.76278591156006	0.9997410774230957
48	201.4990599155426	pulse	0	t		46.0	2.5	/experiments/AOT/AOT_stimuli/rescaled_final/0868_rv.mp4	0.0	221.9461178779602	
48	202.31546902656555	movie	1		244	46.0	2.5	/experiments/AOT/AOT_stimuli/rescaled_final/0868_rv.mp4	0.0	222.76252698898315	2.5000548362731934
48	203.09903287887573	pulse	1	t		46.0	2.5	/experiments/AOT/AOT_stimuli/rescaled_final/0868_rv.mp4	0.0	223.54609084129333	
48	204.69774389266968	pulse	1	t		46.0	2.5	/experiments/AOT/AOT_stimuli/rescaled_final/0868_rv.mp4	0.0	225.14480185508728	
48	204.81552386283875	fix_post	2		12	46.0	2.5	/experiments/AOT/AOT_stimuli/rescaled_final/0868_rv.mp4	0.0	225.26258182525635	0.09991216659545898
49	204.9154360294342	fix_pre	0		120	47.0	2.5	/experiments/AOT/AOT_stimuli/rescaled_final/0765_fw.mp4	0.0	225.3624939918518	1.0000979900360107
49	205.91553401947021	movie	1		247	47.0	2.5	/experiments/AOT/AOT_stimuli/rescaled_final/0765_fw.mp4	0.0	226.36259198188782	2.5000128746032715
49	206.29875898361206	pulse	1	t		47.0	2.5	/experiments/AOT/AOT_stimuli/rescaled_final/0765_fw.mp4	0.0	226.74581694602966	
49	207.89910292625427	pulse	1	t		47.0	2.5	/experiments/AOT/AOT_stimuli/rescaled_final/0765_fw.mp4	0.0	228.34616088867188	
49	208.4155468940735	fix_post	2		12	47.0	2.5	/experiments/AOT/AOT_stimuli/rescaled_final/0765_fw.mp4	0.0	228.8626048564911	0.0999751091003418
50	208.51552200317383	fix_pre	0		119	48.0	2.5	/experiments/AOT/AOT_stimuli/rescaled_final/1529_fw.mp4	0.0	228.96257996559143	0.9916658401489258
50	209.49899101257324	pulse	0	t		48.0	2.5	/experiments/AOT/AOT_stimuli/rescaled_final/1529_fw.mp4	0.0	229.94604897499084	
50	209.50718784332275	movie	1		244	48.0	2.5	/experiments/AOT/AOT_stimuli/rescaled_final/1529_fw.mp4	0.0	229.95424580574036	2.5078890323638916
50	211.0988428592682	pulse	1	t		48.0	2.5	/experiments/AOT/AOT_stimuli/rescaled_final/1529_fw.mp4	0.0	231.5459008216858	
50	212.01507687568665	fix_post	2		12	48.0	2.5	/experiments/AOT/AOT_stimuli/rescaled_final/1529_fw.mp4	0.0	232.46213483810425	0.1004190444946289
51	212.11549592018127	fix_pre	0		120	49.0	2.5	blank	1.0	232.56255388259888	1.0000219345092773
51	212.69901084899902	pulse	0	t		49.0	2.5	blank	1.0	233.14606881141663	
51	213.11551785469055	movie	1		300	49.0	2.5	blank	1.0	233.56257581710815	2.4999990463256836
51	214.2990758419037	pulse	1	t		49.0	2.5	blank	1.0	234.7461338043213	
51	215.61551690101624	fix_post	2		12	49.0	2.5	blank	1.0	236.06257486343384	0.10002899169921875
52	215.71554589271545	fix_pre	0		120	50.0	2.5	/experiments/AOT/AOT_stimuli/rescaled_final/1101_rv.mp4	0.0	236.16260385513306	0.9999740123748779
52	215.8989908695221	pulse	0	t		50.0	2.5	/experiments/AOT/AOT_stimuli/rescaled_final/1101_rv.mp4	0.0	236.3460488319397	
52	216.71551990509033	movie	1		243	50.0	2.5	/experiments/AOT/AOT_stimuli/rescaled_final/1101_rv.mp4	0.0	237.16257786750793	2.49995493888855
52	217.49905586242676	pulse	1	t		50.0	2.5	/experiments/AOT/AOT_stimuli/rescaled_final/1101_rv.mp4	0.0	237.94611382484436	
52	219.09728980064392	pulse	1	t		50.0	2.5	/experiments/AOT/AOT_stimuli/rescaled_final/1101_rv.mp4	0.0	239.54434776306152	
52	219.21547484397888	fix_post	2		12	50.0	2.5	/experiments/AOT/AOT_stimuli/rescaled_final/1101_rv.mp4	0.0	239.66253280639648	0.09997701644897461
53	219.31545186042786	fix_pre	0		120	51.0	2.5	/experiments/AOT/AOT_stimuli/rescaled_final/0516_fw.mp4	0.0	239.76250982284546	0.9999780654907227
53	220.31542992591858	movie	1		243	51.0	2.5	/experiments/AOT/AOT_stimuli/rescaled_final/0516_fw.mp4	0.0	240.76248788833618	2.499969959259033
53	220.69870400428772	pulse	1	t		51.0	2.5	/experiments/AOT/AOT_stimuli/rescaled_final/0516_fw.mp4	0.0	241.14576196670532	
53	222.29896593093872	pulse	1	t		51.0	2.5	/experiments/AOT/AOT_stimuli/rescaled_final/0516_fw.mp4	0.0	242.74602389335632	
53	222.8153998851776	fix_post	2		12	51.0	2.5	/experiments/AOT/AOT_stimuli/rescaled_final/0516_fw.mp4	0.0	243.26245784759521	0.10008502006530762
54	222.91548490524292	fix_pre	0		119	52.0	2.5	/experiments/AOT/AOT_stimuli/rescaled_final/0069_rv.mp4	0.0	243.36254286766052	0.9916579723358154
54	223.89901494979858	pulse	0	t		52.0	2.5	/experiments/AOT/AOT_stimuli/rescaled_final/0069_rv.mp4	0.0	244.3460729122162	
54	223.90714287757874	movie	1		248	52.0	2.5	/experiments/AOT/AOT_stimuli/rescaled_final/0069_rv.mp4	0.0	244.35420083999634	2.5082449913024902
54	225.49835085868835	pulse	1	t		52.0	2.5	/experiments/AOT/AOT_stimuli/rescaled_final/0069_rv.mp4	0.0	245.94540882110596	
54	226.41538786888123	fix_post	2		12	52.0	2.5	/experiments/AOT/AOT_stimuli/rescaled_final/0069_rv.mp4	0.0	246.86244583129883	0.10003805160522461
55	226.51542592048645	fix_pre	0		120	53.0	2.5	/experiments/AOT/AOT_stimuli/rescaled_final/2112_fw.mp4	0.0	246.96248388290405	0.9997448921203613
55	227.09850883483887	pulse	0	t		53.0	2.5	/experiments/AOT/AOT_stimuli/rescaled_final/2112_fw.mp4	0.0	247.54556679725647	
55	227.5151708126068	movie	1		246	53.0	2.5	/experiments/AOT/AOT_stimuli/rescaled_final/2112_fw.mp4	0.0	247.9622287750244	2.5002729892730713
55	228.69927287101746	pulse	1	t		53.0	2.5	/experiments/AOT/AOT_stimuli/rescaled_final/2112_fw.mp4	0.0	249.14633083343506	
55	230.01544380187988	fix_post	2		12	53.0	2.5	/experiments/AOT/AOT_stimuli/rescaled_final/2112_fw.mp4	0.0	250.46250176429749	0.10001921653747559
56	230.11546301841736	fix_pre	0		120	54.0	2.5	/experiments/AOT/AOT_stimuli/rescaled_final/0110_rv.mp4	0.0	250.56252098083496	0.9999809265136719
56	230.2989799976349	pulse	0	t		54.0	2.5	/experiments/AOT/AOT_stimuli/rescaled_final/0110_rv.mp4	0.0	250.7460379600525	
56	231.11544394493103	movie	1		243	54.0	2.5	/experiments/AOT/AOT_stimuli/rescaled_final/0110_rv.mp4	0.0	251.56250190734863	2.4999279975891113
56	231.89890885353088	pulse	1	t		54.0	2.5	/experiments/AOT/AOT_stimuli/rescaled_final/0110_rv.mp4	0.0	252.3459668159485	
56	233.49710297584534	pulse	1	t		54.0	2.5	/experiments/AOT/AOT_stimuli/rescaled_final/0110_rv.mp4	0.0	253.94416093826294	
56	233.61537194252014	fix_post	2		12	54.0	2.5	/experiments/AOT/AOT_stimuli/rescaled_final/0110_rv.mp4	0.0	254.06242990493774	0.10003399848937988
57	233.71540594100952	fix_pre	0		120	55.0	2.5	/experiments/AOT/AOT_stimuli/rescaled_final/0626_rv.mp4	0.0	254.16246390342712	0.9999630451202393
57	234.71536898612976	movie	1		246	55.0	2.5	/experiments/AOT/AOT_stimuli/rescaled_final/0626_rv.mp4	0.0	255.16242694854736	2.4999279975891113
57	235.09843397140503	pulse	1	t		55.0	2.5	/experiments/AOT/AOT_stimuli/rescaled_final/0626_rv.mp4	0.0	255.54549193382263	
57	236.698814868927	pulse	1	t		55.0	2.5	/experiments/AOT/AOT_stimuli/rescaled_final/0626_rv.mp4	0.0	257.1458728313446	
57	237.21529698371887	fix_post	2		12	55.0	2.5	/experiments/AOT/AOT_stimuli/rescaled_final/0626_rv.mp4	0.0	257.6623549461365	0.1000359058380127
58	237.31533288955688	fix_pre	0		119	56.0	2.5	blank	1.0	257.7623908519745	0.9917190074920654
58	238.29880380630493	pulse	0	t		56.0	2.5	blank	1.0	258.74586176872253	
58	238.30705189704895	movie	1		301	56.0	2.5	blank	1.0	258.75410985946655	2.507966995239258
58	239.89889097213745	pulse	1	t		56.0	2.5	blank	1.0	260.34594893455505	
58	240.8150188922882	fix_post	2		12	56.0	2.5	blank	1.0	261.2620768547058	0.10040497779846191
59	240.91542387008667	fix_pre	0		120	57.0	2.5	/experiments/AOT/AOT_stimuli/rescaled_final/2014_rv.mp4	0.0	261.3624818325043	0.9999771118164062
59	241.49881100654602	pulse	0	t		57.0	2.5	/experiments/AOT/AOT_stimuli/rescaled_final/2014_rv.mp4	0.0	261.9458689689636	
59	241.91540098190308	movie	1		246	57.0	2.5	/experiments/AOT/AOT_stimuli/rescaled_final/2014_rv.mp4	0.0	262.3624589443207	2.4999189376831055
59	243.09893989562988	pulse	1	t		57.0	2.5	/experiments/AOT/AOT_stimuli/rescaled_final/2014_rv.mp4	0.0	263.5459978580475	
59	244.41531991958618	fix_post	2		12	57.0	2.5	/experiments/AOT/AOT_stimuli/rescaled_final/2014_rv.mp4	0.0	264.8623778820038	0.10005998611450195
60	244.51537990570068	fix_pre	0		120	58.0	2.5	/experiments/AOT/AOT_stimuli/rescaled_final/2050_fw.mp4	0.0	264.9624378681183	0.9999709129333496
60	244.69885182380676	pulse	0	t		58.0	2.5	/experiments/AOT/AOT_stimuli/rescaled_final/2050_fw.mp4	0.0	265.14590978622437	
60	245.51535081863403	movie	1		243	58.0	2.5	/experiments/AOT/AOT_stimuli/rescaled_final/2050_fw.mp4	0.0	265.96240878105164	2.5000381469726562
60	246.29886603355408	pulse	1	t		58.0	2.5	/experiments/AOT/AOT_stimuli/rescaled_final/2050_fw.mp4	0.0	266.7459239959717	
60	247.89732098579407	pulse	1	t		58.0	2.5	/experiments/AOT/AOT_stimuli/rescaled_final/2050_fw.mp4	0.0	268.34437894821167	
60	248.0153889656067	fix_post	2		12	58.0	2.5	/experiments/AOT/AOT_stimuli/rescaled_final/2050_fw.mp4	0.0	268.4624469280243	0.09990787506103516
61	248.11529684066772	fix_pre	0		120	59.0	2.5	/experiments/AOT/AOT_stimuli/rescaled_final/0452_fw.mp4	0.0	268.5623548030853	1.000040054321289
61	249.115336894989	movie	1		244	59.0	2.5	/experiments/AOT/AOT_stimuli/rescaled_final/0452_fw.mp4	0.0	269.5623948574066	2.500088930130005
61	249.49890279769897	pulse	1	t		59.0	2.5	/experiments/AOT/AOT_stimuli/rescaled_final/0452_fw.mp4	0.0	269.9459607601166	
61	251.0987389087677	pulse	1	t		59.0	2.5	/experiments/AOT/AOT_stimuli/rescaled_final/0452_fw.mp4	0.0	271.5457968711853	
61	251.61542582511902	fix_post	2		12	59.0	2.5	/experiments/AOT/AOT_stimuli/rescaled_final/0452_fw.mp4	0.0	272.0624837875366	0.09995698928833008
62	251.71538281440735	fix_pre	0		119	60.0	2.5	/experiments/AOT/AOT_stimuli/rescaled_final/2130_rv.mp4	0.0	272.16244077682495	0.9916591644287109
62	252.698814868927	pulse	0	t		60.0	2.5	/experiments/AOT/AOT_stimuli/rescaled_final/2130_rv.mp4	0.0	273.1458728313446	
62	252.70704197883606	movie	1		246	60.0	2.5	/experiments/AOT/AOT_stimuli/rescaled_final/2130_rv.mp4	0.0	273.15409994125366	2.508323907852173
62	254.29850101470947	pulse	1	t		60.0	2.5	/experiments/AOT/AOT_stimuli/rescaled_final/2130_rv.mp4	0.0	274.7455589771271	
62	255.21536588668823	fix_post	2		12	60.0	2.5	/experiments/AOT/AOT_stimuli/rescaled_final/2130_rv.mp4	0.0	275.66242384910583	0.09985613822937012
63	255.3152220249176	fix_pre	0		120	61.0	2.5	/experiments/AOT/AOT_stimuli/rescaled_final/0645_fw.mp4	0.0	275.7622799873352	1.000119924545288
63	255.89881801605225	pulse	0	t		61.0	2.5	/experiments/AOT/AOT_stimuli/rescaled_final/0645_fw.mp4	0.0	276.34587597846985	
63	256.3153419494629	movie	1		244	61.0	2.5	/experiments/AOT/AOT_stimuli/rescaled_final/0645_fw.mp4	0.0	276.7623999118805	2.499937057495117
63	257.49886894226074	pulse	1	t		61.0	2.5	/experiments/AOT/AOT_stimuli/rescaled_final/0645_fw.mp4	0.0	277.94592690467834	
63	258.815279006958	fix_post	2		12	61.0	2.5	/experiments/AOT/AOT_stimuli/rescaled_final/0645_fw.mp4	0.0	279.2623369693756	0.09998488426208496
64	258.9152638912201	fix_pre	0		120	62.0	2.5	/experiments/AOT/AOT_stimuli/rescaled_final/1513_fw.mp4	0.0	279.3623218536377	1.0000309944152832
64	259.0988128185272	pulse	0	t		62.0	2.5	/experiments/AOT/AOT_stimuli/rescaled_final/1513_fw.mp4	0.0	279.5458707809448	
64	259.9152948856354	movie	1		248	62.0	2.5	/experiments/AOT/AOT_stimuli/rescaled_final/1513_fw.mp4	0.0	280.362352848053	2.4995291233062744
64	260.6988859176636	pulse	1	t		62.0	2.5	/experiments/AOT/AOT_stimuli/rescaled_final/1513_fw.mp4	0.0	281.1459438800812	
64	262.2987480163574	pulse	1	t		62.0	2.5	/experiments/AOT/AOT_stimuli/rescaled_final/1513_fw.mp4	0.0	282.745805978775	
64	262.41482400894165	fix_post	2		12	62.0	2.5	/experiments/AOT/AOT_stimuli/rescaled_final/1513_fw.mp4	0.0	282.86188197135925	0.10038995742797852
65	262.51521396636963	fix_pre	0		120	63.0	2.5	blank	1.0	282.96227192878723	0.9996368885040283
65	263.51485085487366	movie	1		300	63.0	2.5	blank	1.0	283.96190881729126	2.5004429817199707
65	263.8988239765167	pulse	1	t		63.0	2.5	blank	1.0	284.3458819389343	
65	265.49874091148376	pulse	1	t		63.0	2.5	blank	1.0	285.94579887390137	
65	266.0152938365936	fix_post	2		12	63.0	2.5	blank	1.0	286.46235179901123	0.09988903999328613
66	266.1151828765869	fix_pre	0		119	64.0	2.5	/experiments/AOT/AOT_stimuli/rescaled_final/0953_fw.mp4	0.0	286.5622408390045	0.9916720390319824
66	267.0987148284912	pulse	0	t		64.0	2.5	/experiments/AOT/AOT_stimuli/rescaled_final/0953_fw.mp4	0.0	287.5457727909088	
66	267.1068549156189	movie	1		244	64.0	2.5	/experiments/AOT/AOT_stimuli/rescaled_final/0953_fw.mp4	0.0	287.5539128780365	2.5083839893341064
66	268.6984210014343	pulse	1	t		64.0	2.5	/experiments/AOT/AOT_stimuli/rescaled_final/0953_fw.mp4	0.0	289.14547896385193	
66	269.615238904953	fix_post	2		12	64.0	2.5	/experiments/AOT/AOT_stimuli/rescaled_final/0953_fw.mp4	0.0	290.0622968673706	0.09999299049377441
67	269.7152318954468	fix_pre	0		120	65.0	2.5	/experiments/AOT/AOT_stimuli/rescaled_final/2130_fw.mp4	0.0	290.1622898578644	0.9999549388885498
67	270.2988200187683	pulse	0	t		65.0	2.5	/experiments/AOT/AOT_stimuli/rescaled_final/2130_fw.mp4	0.0	290.7458779811859	
67	270.7151868343353	movie	1		246	65.0	2.5	/experiments/AOT/AOT_stimuli/rescaled_final/2130_fw.mp4	0.0	291.16224479675293	2.500019073486328
67	271.89871191978455	pulse	1	t		65.0	2.5	/experiments/AOT/AOT_stimuli/rescaled_final/2130_fw.mp4	0.0	292.34576988220215	
67	273.21520590782166	fix_post	2		12	65.0	2.5	/experiments/AOT/AOT_stimuli/rescaled_final/2130_fw.mp4	0.0	293.66226387023926	0.09995508193969727
68	273.31516098976135	fix_pre	0		120	66.0	2.5	/experiments/AOT/AOT_stimuli/rescaled_final/1955_fw.mp4	0.0	293.76221895217896	1.000044822692871
68	273.49867391586304	pulse	0	t		66.0	2.5	/experiments/AOT/AOT_stimuli/rescaled_final/1955_fw.mp4	0.0	293.94573187828064	
68	274.3152058124542	movie	1		243	66.0	2.5	/experiments/AOT/AOT_stimuli/rescaled_final/1955_fw.mp4	0.0	294.7622637748718	2.499502182006836
68	275.09874296188354	pulse	1	t		66.0	2.5	/experiments/AOT/AOT_stimuli/rescaled_final/1955_fw.mp4	0.0	295.54580092430115	
68	276.6971960067749	pulse	1	t		66.0	2.5	/experiments/AOT/AOT_stimuli/rescaled_final/1955_fw.mp4	0.0	297.1442539691925	
68	276.81470799446106	fix_post	2		12	66.0	2.5	/experiments/AOT/AOT_stimuli/rescaled_final/1955_fw.mp4	0.0	297.26176595687866	0.10053396224975586
69	276.9152419567108	fix_pre	0		120	67.0	2.5	/experiments/AOT/AOT_stimuli/rescaled_final/2027_fw.mp4	0.0	297.3622999191284	0.9995570182800293
69	277.91479897499084	movie	1		243	67.0	2.5	/experiments/AOT/AOT_stimuli/rescaled_final/2027_fw.mp4	0.0	298.36185693740845	2.5003418922424316
69	278.29838490486145	pulse	1	t		67.0	2.5	/experiments/AOT/AOT_stimuli/rescaled_final/2027_fw.mp4	0.0	298.74544286727905	
69	279.8986918926239	pulse	1	t		67.0	2.5	/experiments/AOT/AOT_stimuli/rescaled_final/2027_fw.mp4	0.0	300.3457498550415	
69	280.4151408672333	fix_post	2		12	67.0	2.5	/experiments/AOT/AOT_stimuli/rescaled_final/2027_fw.mp4	0.0	300.8621988296509	0.10005903244018555
70	280.51519989967346	fix_pre	0		119	68.0	2.5	blank	1.0	300.96225786209106	0.9916079044342041
70	281.49864387512207	pulse	0	t		68.0	2.5	blank	1.0	301.9457018375397	
70	281.50680780410767	movie	1		301	68.0	2.5	blank	1.0	301.95386576652527	2.5085370540618896
70	283.098268032074	pulse	1	t		68.0	2.5	blank	1.0	303.5453259944916	
70	284.01534485816956	fix_post	2		12	68.0	2.5	blank	1.0	304.46240282058716	0.09994912147521973
71	284.1152939796448	fix_pre	0		120	69.0	2.5	/experiments/AOT/AOT_stimuli/rescaled_final/0909_fw.mp4	0.0	304.5623519420624	0.9997389316558838
71	284.69895195961	pulse	0	t		69.0	2.5	/experiments/AOT/AOT_stimuli/rescaled_final/0909_fw.mp4	0.0	305.1460099220276	
71	285.11503291130066	movie	1		247	69.0	2.5	/experiments/AOT/AOT_stimuli/rescaled_final/0909_fw.mp4	0.0	305.56209087371826	2.5001730918884277
71	286.29882884025574	pulse	1	t		69.0	2.5	/experiments/AOT/AOT_stimuli/rescaled_final/0909_fw.mp4	0.0	306.74588680267334	
71	287.6152060031891	fix_post	2		12	69.0	2.5	/experiments/AOT/AOT_stimuli/rescaled_final/0909_fw.mp4	0.0	308.0622639656067	0.0999908447265625
72	287.71519684791565	fix_pre	0		120	70.0	2.5	/experiments/AOT/AOT_stimuli/rescaled_final/1250_fw.mp4	0.0	308.16225481033325	1.0000360012054443
72	287.89867186546326	pulse	0	t		70.0	2.5	/experiments/AOT/AOT_stimuli/rescaled_final/1250_fw.mp4	0.0	308.34572982788086	
72	288.7152328491211	movie	1		246	70.0	2.5	/experiments/AOT/AOT_stimuli/rescaled_final/1250_fw.mp4	0.0	309.1622908115387	2.4998559951782227
72	289.49860286712646	pulse	1	t		70.0	2.5	/experiments/AOT/AOT_stimuli/rescaled_final/1250_fw.mp4	0.0	309.94566082954407	
72	291.09867000579834	pulse	1	t		70.0	2.5	/experiments/AOT/AOT_stimuli/rescaled_final/1250_fw.mp4	0.0	311.54572796821594	
72	291.2150888442993	fix_post	2		12	70.0	2.5	/experiments/AOT/AOT_stimuli/rescaled_final/1250_fw.mp4	0.0	311.6621468067169	0.09999918937683105
73	291.31508803367615	fix_pre	0		120	71.0	2.5	/experiments/AOT/AOT_stimuli/rescaled_final/0516_rv.mp4	0.0	311.76214599609375	0.9999938011169434
73	292.3150818347931	movie	1		244	71.0	2.5	/experiments/AOT/AOT_stimuli/rescaled_final/0516_rv.mp4	0.0	312.7621397972107	2.5000150203704834
73	292.6984179019928	pulse	1	t		71.0	2.5	/experiments/AOT/AOT_stimuli/rescaled_final/0516_rv.mp4	0.0	313.1454758644104	
73	294.29852390289307	pulse	1	t		71.0	2.5	/experiments/AOT/AOT_stimuli/rescaled_final/0516_rv.mp4	0.0	314.74558186531067	
73	294.8150968551636	fix_post	2		12	71.0	2.5	/experiments/AOT/AOT_stimuli/rescaled_final/0516_rv.mp4	0.0	315.2621548175812	0.09995412826538086
74	294.91505098342896	fix_pre	0		119	72.0	2.5	/experiments/AOT/AOT_stimuli/rescaled_final/1846_rv.mp4	0.0	315.36210894584656	0.9917290210723877
74	295.8986120223999	pulse	0	t		72.0	2.5	/experiments/AOT/AOT_stimuli/rescaled_final/1846_rv.mp4	0.0	316.3456699848175	
74	295.90678000450134	movie	1		245	72.0	2.5	/experiments/AOT/AOT_stimuli/rescaled_final/1846_rv.mp4	0.0	316.35383796691895	2.507863998413086
74	297.4982569217682	pulse	1	t		72.0	2.5	/experiments/AOT/AOT_stimuli/rescaled_final/1846_rv.mp4	0.0	317.9453148841858	
74	298.41464400291443	fix_post	2		12	72.0	2.5	/experiments/AOT/AOT_stimuli/rescaled_final/1846_rv.mp4	0.0	318.86170196533203	0.10040998458862305
75	298.51505398750305	fix_pre	0		120	73.0	2.5	/experiments/AOT/AOT_stimuli/rescaled_final/0955_rv.mp4	0.0	318.96211194992065	1.0000758171081543
75	299.0985949039459	pulse	0	t		73.0	2.5	/experiments/AOT/AOT_stimuli/rescaled_final/0955_rv.mp4	0.0	319.5456528663635	
75	299.5151298046112	movie	1		245	73.0	2.5	/experiments/AOT/AOT_stimuli/rescaled_final/0955_rv.mp4	0.0	319.9621877670288	2.5000360012054443
75	300.69862699508667	pulse	1	t		73.0	2.5	/experiments/AOT/AOT_stimuli/rescaled_final/0955_rv.mp4	0.0	321.1456849575043	
75	302.01516580581665	fix_post	2		12	73.0	2.5	/experiments/AOT/AOT_stimuli/rescaled_final/0955_rv.mp4	0.0	322.46222376823425	0.09988808631896973
76	302.1150538921356	fix_pre	0		120	74.0	2.5	/experiments/AOT/AOT_stimuli/rescaled_final/1122_fw.mp4	0.0	322.5621118545532	1.0001220703125
76	302.29860281944275	pulse	0	t		74.0	2.5	/experiments/AOT/AOT_stimuli/rescaled_final/1122_fw.mp4	0.0	322.74566078186035	
76	303.1151759624481	movie	1		245	74.0	2.5	/experiments/AOT/AOT_stimuli/rescaled_final/1122_fw.mp4	0.0	323.5622339248657	2.4999139308929443
76	303.898530960083	pulse	1	t		74.0	2.5	/experiments/AOT/AOT_stimuli/rescaled_final/1122_fw.mp4	0.0	324.3455889225006	
76	305.4970598220825	pulse	1	t		74.0	2.5	/experiments/AOT/AOT_stimuli/rescaled_final/1122_fw.mp4	0.0	325.9441177845001	
76	305.61508989334106	fix_post	2		12	74.0	2.5	/experiments/AOT/AOT_stimuli/rescaled_final/1122_fw.mp4	0.0	326.06214785575867	0.0999460220336914
77	305.71503591537476	fix_pre	0		120	75.0	2.5	/experiments/AOT/AOT_stimuli/rescaled_final/0679_rv.mp4	0.0	326.16209387779236	0.9999430179595947
77	306.71497893333435	movie	1		246	75.0	2.5	/experiments/AOT/AOT_stimuli/rescaled_final/0679_rv.mp4	0.0	327.16203689575195	2.500062942504883
77	307.0985999107361	pulse	1	t		75.0	2.5	/experiments/AOT/AOT_stimuli/rescaled_final/0679_rv.mp4	0.0	327.5456578731537	
77	308.69855093955994	pulse	1	t		75.0	2.5	/experiments/AOT/AOT_stimuli/rescaled_final/0679_rv.mp4	0.0	329.14560890197754	
77	309.21504187583923	fix_post	2		12	75.0	2.5	/experiments/AOT/AOT_stimuli/rescaled_final/0679_rv.mp4	0.0	329.66209983825684	0.10006999969482422
78	309.31511187553406	fix_pre	0		119	76.0	2.5	blank	1.0	329.76216983795166	0.9916000366210938
78	310.2985608577728	pulse	0	t		76.0	2.5	blank	1.0	330.74561882019043	
78	310.30671191215515	movie	1		301	76.0	2.5	blank	1.0	330.75376987457275	2.5083200931549072
78	311.89854097366333	pulse	1	t		76.0	2.5	blank	1.0	332.34559893608093	
78	312.81503200531006	fix_post	2		12	76.0	2.5	blank	1.0	333.26208996772766	0.10005879402160645
79	312.91509079933167	fix_pre	0		120	77.0	2.5	/experiments/AOT/AOT_stimuli/rescaled_final/2027_rv.mp4	0.0	333.36214876174927	0.9999940395355225
79	313.49851298332214	pulse	0	t		77.0	2.5	/experiments/AOT/AOT_stimuli/rescaled_final/2027_rv.mp4	0.0	333.94557094573975	
79	313.9150848388672	movie	1		244	77.0	2.5	/experiments/AOT/AOT_stimuli/rescaled_final/2027_rv.mp4	0.0	334.3621428012848	2.499897003173828
79	315.09851002693176	pulse	1	t		77.0	2.5	/experiments/AOT/AOT_stimuli/rescaled_final/2027_rv.mp4	0.0	335.54556798934937	
79	316.414981842041	fix_post	2		12	77.0	2.5	/experiments/AOT/AOT_stimuli/rescaled_final/2027_rv.mp4	0.0	336.8620398044586	0.09998297691345215
80	316.51496481895447	fix_pre	0		120	78.0	2.5	/experiments/AOT/AOT_stimuli/rescaled_final/0944_fw.mp4	0.0	336.96202278137207	1.0000970363616943
80	316.69850993156433	pulse	0	t		78.0	2.5	/experiments/AOT/AOT_stimuli/rescaled_final/0944_fw.mp4	0.0	337.14556789398193	
80	317.51506185531616	movie	1		242	78.0	2.5	/experiments/AOT/AOT_stimuli/rescaled_final/0944_fw.mp4	0.0	337.96211981773376	2.499979019165039
80	318.29847288131714	pulse	1	t		78.0	2.5	/experiments/AOT/AOT_stimuli/rescaled_final/0944_fw.mp4	0.0	338.74553084373474	
80	319.8967318534851	pulse	1	t		78.0	2.5	/experiments/AOT/AOT_stimuli/rescaled_final/0944_fw.mp4	0.0	340.3437898159027	
80	320.0150408744812	fix_post	2		12	78.0	2.5	/experiments/AOT/AOT_stimuli/rescaled_final/0944_fw.mp4	0.0	340.4620988368988	0.09997010231018066
81	320.1150109767914	fix_pre	0		120	79.0	2.5	/experiments/AOT/AOT_stimuli/rescaled_final/0340_rv.mp4	0.0	340.562068939209	1.000140905380249
81	321.11515188217163	movie	1		245	79.0	2.5	/experiments/AOT/AOT_stimuli/rescaled_final/0340_rv.mp4	0.0	341.56220984458923	2.4997940063476562
81	321.49788784980774	pulse	1	t		79.0	2.5	/experiments/AOT/AOT_stimuli/rescaled_final/0340_rv.mp4	0.0	341.94494581222534	
81	323.0984408855438	pulse	1	t		79.0	2.5	/experiments/AOT/AOT_stimuli/rescaled_final/0340_rv.mp4	0.0	343.5454988479614	
81	323.6149458885193	fix_post	2		12	79.0	2.5	/experiments/AOT/AOT_stimuli/rescaled_final/0340_rv.mp4	0.0	344.0620038509369	0.10010004043579102
82	323.7150459289551	fix_pre	0		119	80.0	2.5	/experiments/AOT/AOT_stimuli/rescaled_final/2112_fw.mp4	0.0	344.1621038913727	0.9915719032287598
82	324.6984829902649	pulse	0	t		80.0	2.5	/experiments/AOT/AOT_stimuli/rescaled_final/2112_fw.mp4	0.0	345.1455409526825	
82	324.70661783218384	movie	1		249	80.0	2.5	/experiments/AOT/AOT_stimuli/rescaled_final/2112_fw.mp4	0.0	345.15367579460144	2.5083510875701904
82	326.2982668876648	pulse	1	t		80.0	2.5	/experiments/AOT/AOT_stimuli/rescaled_final/2112_fw.mp4	0.0	346.7453248500824	
82	327.214968919754	fix_post	2		12	80.0	2.5	/experiments/AOT/AOT_stimuli/rescaled_final/2112_fw.mp4	0.0	347.66202688217163	0.09999489784240723
83	327.31496381759644	fix_pre	0		120	81.0	2.5	/experiments/AOT/AOT_stimuli/rescaled_final/1948_rv.mp4	0.0	347.76202178001404	0.9999721050262451
83	327.8986279964447	pulse	0	t		81.0	2.5	/experiments/AOT/AOT_stimuli/rescaled_final/1948_rv.mp4	0.0	348.3456859588623	
83	328.3149359226227	movie	1		245	81.0	2.5	/experiments/AOT/AOT_stimuli/rescaled_final/1948_rv.mp4	0.0	348.7619938850403	2.5000200271606445
83	329.49845790863037	pulse	1	t		81.0	2.5	/experiments/AOT/AOT_stimuli/rescaled_final/1948_rv.mp4	0.0	349.945515871048	
83	330.8149559497833	fix_post	2		12	81.0	2.5	/experiments/AOT/AOT_stimuli/rescaled_final/1948_rv.mp4	0.0	351.2620139122009	0.09999203681945801
84	330.9149479866028	fix_pre	0		120	82.0	2.5	/experiments/AOT/AOT_stimuli/rescaled_final/1386_rv.mp4	0.0	351.3620059490204	1.000046968460083
84	331.0984709262848	pulse	0	t		82.0	2.5	/experiments/AOT/AOT_stimuli/rescaled_final/1386_rv.mp4	0.0	351.5455288887024	
84	331.91499495506287	movie	1		243	82.0	2.5	/experiments/AOT/AOT_stimuli/rescaled_final/1386_rv.mp4	0.0	352.36205291748047	2.5000288486480713
84	332.6984329223633	pulse	1	t		82.0	2.5	/experiments/AOT/AOT_stimuli/rescaled_final/1386_rv.mp4	0.0	353.1454908847809	
84	334.29670882225037	pulse	1	t		82.0	2.5	/experiments/AOT/AOT_stimuli/rescaled_final/1386_rv.mp4	0.0	354.74376678466797	
84	334.41502380371094	fix_post	2		12	82.0	2.5	/experiments/AOT/AOT_stimuli/rescaled_final/1386_rv.mp4	0.0	354.86208176612854	0.0999150276184082
85	334.51493883132935	fix_pre	0		120	83.0	2.5	blank	1.0	354.96199679374695	1.0000801086425781
85	335.5150189399719	movie	1		300	83.0	2.5	blank	1.0	355.9620769023895	2.499466896057129
85	335.89840602874756	pulse	1	t		83.0	2.5	blank	1.0	356.34546399116516	
85	337.498361825943	pulse	1	t		83.0	2.5	blank	1.0	357.9454197883606	
85	338.01448583602905	fix_post	2		12	83.0	2.5	blank	1.0	358.46154379844666	0.10042214393615723
87	338.1149079799652	stim	0		1716					358.5619659423828	14.299907922744751
87	339.0981979370117	pulse	0	t						359.5452558994293	
87	340.69825196266174	pulse	0	t						361.14530992507935	
87	342.2983899116516	pulse	0	t						362.7454478740692	
87	343.89832401275635	pulse	0	t						364.34538197517395	
87	345.4983308315277	pulse	0	t						365.9453887939453	
87	347.0983040332794	pulse	0	t						367.545361995697	
87	348.698264837265	pulse	0	t						369.1453227996826	
87	350.2983808517456	pulse	0	t						370.7454388141632	
87	351.8982620239258	pulse	0	t						372.3453199863434	
