trial_nr	onset	event_type	phase	response	nr_frames	movie_index	movie_duration	movie_file	blank	onset_abs	duration
0	0.17479491233825684	stim	0		77					19.00712251663208	0.6415886878967285
0	0.808312177658081	response	0	space						19.640639781951904	
1	0.8163836002349854	stim	0		4446					19.64871120452881	37.068103075027466
1	37.86924862861633	pulse	0	t						56.701576232910156	
1	37.88448667526245	stim	1		1714					56.716814279556274	14.298014163970947
1	39.46428942680359	pulse	1	t						58.29661703109741	
1	41.06438660621643	pulse	1	t						59.896714210510254	
1	42.66461181640625	pulse	1	t						61.49693942070007	
1	44.26483917236328	pulse	1	t						63.097166776657104	
1	45.865100622177124	pulse	1	t						64.69742822647095	
1	47.46537494659424	pulse	1	t						66.29770255088806	
1	49.06567740440369	pulse	1	t						67.89800500869751	
1	50.66581726074219	pulse	1	t						69.49814486503601	
2	52.1825008392334	fix_pre	0		11	0.0	2.5	/experiments/Knapen_AOT/AOT_stimuli/rescaled_final/1409_fw.mp4	0.0	71.01482844352722	0.10839390754699707
2	52.266398906707764	pulse	0	t		0.0	2.5	/experiments/Knapen_AOT/AOT_stimuli/rescaled_final/1409_fw.mp4	0.0	71.09872651100159	
2	52.290894746780396	movie	1		277	0.0	2.5	/experiments/Knapen_AOT/AOT_stimuli/rescaled_final/1409_fw.mp4	0.0	71.12322235107422	2.491990804672241
2	53.86503744125366	pulse	1	t		0.0	2.5	/experiments/Knapen_AOT/AOT_stimuli/rescaled_final/1409_fw.mp4	0.0	72.69736504554749	
2	54.78288555145264	fix_post	2		12	0.0	2.5	/experiments/Knapen_AOT/AOT_stimuli/rescaled_final/1409_fw.mp4	0.0	73.61521315574646	0.09999656677246094
3	54.8828821182251	fix_pre	0		120	1.0	2.5	/experiments/Knapen_AOT/AOT_stimuli/rescaled_final/1283_rv.mp4	0.0	73.71520972251892	1.0086092948913574
3	55.466513872146606	pulse	0	t		1.0	2.5	/experiments/Knapen_AOT/AOT_stimuli/rescaled_final/1283_rv.mp4	0.0	74.29884147644043	
3	55.891491413116455	movie	1		286	1.0	2.5	/experiments/Knapen_AOT/AOT_stimuli/rescaled_final/1283_rv.mp4	0.0	74.72381901741028	2.491931676864624
3	57.06469941139221	pulse	1	t		1.0	2.5	/experiments/Knapen_AOT/AOT_stimuli/rescaled_final/1283_rv.mp4	0.0	75.89702701568604	
3	58.38342308998108	fix_post	2		12	1.0	2.5	/experiments/Knapen_AOT/AOT_stimuli/rescaled_final/1283_rv.mp4	0.0	77.2157506942749	0.10000896453857422
4	58.48343205451965	fix_pre	0		120	2.0	2.5	/experiments/Knapen_AOT/AOT_stimuli/rescaled_final/1455_rv.mp4	0.0	77.31575965881348	1.008549451828003
4	58.66728138923645	pulse	0	t		2.0	2.5	/experiments/Knapen_AOT/AOT_stimuli/rescaled_final/1455_rv.mp4	0.0	77.49960899353027	
4	59.491981506347656	movie	1		280	2.0	2.5	/experiments/Knapen_AOT/AOT_stimuli/rescaled_final/1455_rv.mp4	0.0	78.32430911064148	2.4919843673706055
4	60.265355348587036	pulse	1	t		2.0	2.5	/experiments/Knapen_AOT/AOT_stimuli/rescaled_final/1455_rv.mp4	0.0	79.09768295288086	
4	61.86535167694092	pulse	1	t		2.0	2.5	/experiments/Knapen_AOT/AOT_stimuli/rescaled_final/1455_rv.mp4	0.0	80.69767928123474	
4	61.98396587371826	fix_post	2		12	2.0	2.5	/experiments/Knapen_AOT/AOT_stimuli/rescaled_final/1455_rv.mp4	0.0	80.81629347801208	0.10001516342163086
5	62.08398103713989	fix_pre	0		120	3.0	2.5	/experiments/Knapen_AOT/AOT_stimuli/rescaled_final/2148_fw.mp4	0.0	80.91630864143372	1.0084865093231201
5	63.09246754646301	movie	1		281	3.0	2.5	/experiments/Knapen_AOT/AOT_stimuli/rescaled_final/2148_fw.mp4	0.0	81.92479515075684	2.49204421043396
5	63.46796131134033	pulse	1	t		3.0	2.5	/experiments/Knapen_AOT/AOT_stimuli/rescaled_final/2148_fw.mp4	0.0	82.30028891563416	
5	65.06608176231384	pulse	1	t		3.0	2.5	/experiments/Knapen_AOT/AOT_stimuli/rescaled_final/2148_fw.mp4	0.0	83.89840936660767	
5	65.58451175689697	fix_post	2		12	3.0	2.5	/experiments/Knapen_AOT/AOT_stimuli/rescaled_final/2148_fw.mp4	0.0	84.4168393611908	0.10002779960632324
6	65.6845395565033	fix_pre	0		119	4.0	2.5	/experiments/Knapen_AOT/AOT_stimuli/rescaled_final/1728_rv.mp4	0.0	84.51686716079712	1.0001420974731445
6	66.6682596206665	pulse	0	t		4.0	2.5	/experiments/Knapen_AOT/AOT_stimuli/rescaled_final/1728_rv.mp4	0.0	85.50058722496033	
6	66.68468165397644	movie	1		280	4.0	2.5	/experiments/Knapen_AOT/AOT_stimuli/rescaled_final/1728_rv.mp4	0.0	85.51700925827026	2.500380754470825
6	68.26877093315125	pulse	1	t		4.0	2.5	/experiments/Knapen_AOT/AOT_stimuli/rescaled_final/1728_rv.mp4	0.0	87.10109853744507	
6	69.18506240844727	fix_post	2		12	4.0	2.5	/experiments/Knapen_AOT/AOT_stimuli/rescaled_final/1728_rv.mp4	0.0	88.01739001274109	0.09999871253967285
7	69.28506112098694	fix_pre	0		120	5.0	2.5	/experiments/Knapen_AOT/AOT_stimuli/rescaled_final/1668_fw.mp4	0.0	88.11738872528076	1.0085923671722412
7	69.86874461174011	pulse	0	t		5.0	2.5	/experiments/Knapen_AOT/AOT_stimuli/rescaled_final/1668_fw.mp4	0.0	88.70107221603394	
7	70.29365348815918	movie	1		289	5.0	2.5	/experiments/Knapen_AOT/AOT_stimuli/rescaled_final/1668_fw.mp4	0.0	89.125981092453	2.491938829421997
7	71.46723628044128	pulse	1	t		5.0	2.5	/experiments/Knapen_AOT/AOT_stimuli/rescaled_final/1668_fw.mp4	0.0	90.29956388473511	
7	72.78559231758118	fix_post	2		12	5.0	2.5	/experiments/Knapen_AOT/AOT_stimuli/rescaled_final/1668_fw.mp4	0.0	91.617919921875	0.10003113746643066
8	72.88562345504761	fix_pre	0		120	6.0	2.5	/experiments/Knapen_AOT/AOT_stimuli/rescaled_final/0885_fw.mp4	0.0	91.71795105934143	1.008507490158081
8	73.06954169273376	pulse	0	t		6.0	2.5	/experiments/Knapen_AOT/AOT_stimuli/rescaled_final/0885_fw.mp4	0.0	91.90186929702759	
8	73.89413094520569	movie	1		289	6.0	2.5	/experiments/Knapen_AOT/AOT_stimuli/rescaled_final/0885_fw.mp4	0.0	92.72645854949951	2.4919979572296143
8	74.66745257377625	pulse	1	t		6.0	2.5	/experiments/Knapen_AOT/AOT_stimuli/rescaled_final/0885_fw.mp4	0.0	93.49978017807007	
8	76.26785945892334	pulse	1	t		6.0	2.5	/experiments/Knapen_AOT/AOT_stimuli/rescaled_final/0885_fw.mp4	0.0	95.10018706321716	
8	76.3861289024353	fix_post	2		12	6.0	2.5	/experiments/Knapen_AOT/AOT_stimuli/rescaled_final/0885_fw.mp4	0.0	95.21845650672913	0.10015583038330078
9	76.4862847328186	fix_pre	0		120	7.0	2.5	blank	1.0	95.31861233711243	0.9999992847442627
9	77.48628401756287	movie	1		300	7.0	2.5	blank	1.0	96.31861162185669	2.5003864765167236
9	77.8699882030487	pulse	1	t		7.0	2.5	blank	1.0	96.70231580734253	
9	79.47013568878174	pulse	1	t		7.0	2.5	blank	1.0	98.30246329307556	
9	79.98667049407959	fix_post	2		12	7.0	2.5	blank	1.0	98.81899809837341	0.10002803802490234
10	80.08669853210449	fix_pre	0		119	8.0	2.5	/experiments/Knapen_AOT/AOT_stimuli/rescaled_final/0126_rv.mp4	0.0	98.91902613639832	1.000138282775879
10	81.07040500640869	pulse	0	t		8.0	2.5	/experiments/Knapen_AOT/AOT_stimuli/rescaled_final/0126_rv.mp4	0.0	99.90273261070251	
10	81.08683681488037	movie	1		278	8.0	2.5	/experiments/Knapen_AOT/AOT_stimuli/rescaled_final/0126_rv.mp4	0.0	99.9191644191742	2.5003867149353027
10	82.67030119895935	pulse	1	t		8.0	2.5	/experiments/Knapen_AOT/AOT_stimuli/rescaled_final/0126_rv.mp4	0.0	101.50262880325317	
10	83.58722352981567	fix_post	2		12	8.0	2.5	/experiments/Knapen_AOT/AOT_stimuli/rescaled_final/0126_rv.mp4	0.0	102.4195511341095	0.10000038146972656
11	83.6872239112854	fix_pre	0		120	9.0	2.5	/experiments/Knapen_AOT/AOT_stimuli/rescaled_final/0234_rv.mp4	0.0	102.51955151557922	1.008573293685913
11	84.27087640762329	pulse	0	t		9.0	2.5	/experiments/Knapen_AOT/AOT_stimuli/rescaled_final/0234_rv.mp4	0.0	103.10320401191711	
11	84.69579720497131	movie	1		281	9.0	2.5	/experiments/Knapen_AOT/AOT_stimuli/rescaled_final/0234_rv.mp4	0.0	103.52812480926514	2.492003917694092
11	85.8690619468689	pulse	1	t		9.0	2.5	/experiments/Knapen_AOT/AOT_stimuli/rescaled_final/0234_rv.mp4	0.0	104.70138955116272	
11	87.1878011226654	fix_post	2		12	9.0	2.5	/experiments/Knapen_AOT/AOT_stimuli/rescaled_final/0234_rv.mp4	0.0	106.02012872695923	0.10018348693847656
12	87.28798460960388	fix_pre	0		120	10.0	2.5	/experiments/Knapen_AOT/AOT_stimuli/rescaled_final/1234_rv.mp4	0.0	106.1203122138977	1.0083954334259033
12	87.47179818153381	pulse	0	t		10.0	2.5	/experiments/Knapen_AOT/AOT_stimuli/rescaled_final/1234_rv.mp4	0.0	106.30412578582764	
12	88.29638004302979	movie	1		282	10.0	2.5	/experiments/Knapen_AOT/AOT_stimuli/rescaled_final/1234_rv.mp4	0.0	107.12870764732361	2.491919755935669
12	89.06938171386719	pulse	1	t		10.0	2.5	/experiments/Knapen_AOT/AOT_stimuli/rescaled_final/1234_rv.mp4	0.0	107.90170931816101	
12	90.66996645927429	pulse	1	t		10.0	2.5	/experiments/Knapen_AOT/AOT_stimuli/rescaled_final/1234_rv.mp4	0.0	109.50229406356812	
12	90.78829979896545	fix_post	2		12	10.0	2.5	/experiments/Knapen_AOT/AOT_stimuli/rescaled_final/1234_rv.mp4	0.0	109.62062740325928	0.10003423690795898
13	90.88833403587341	fix_pre	0		120	11.0	2.5	/experiments/Knapen_AOT/AOT_stimuli/rescaled_final/0748_rv.mp4	0.0	109.72066164016724	1.0085110664367676
13	91.89684510231018	movie	1		285	11.0	2.5	/experiments/Knapen_AOT/AOT_stimuli/rescaled_final/0748_rv.mp4	0.0	110.729172706604	2.4920029640197754
13	92.2640027999878	pulse	1	t		11.0	2.5	/experiments/Knapen_AOT/AOT_stimuli/rescaled_final/0748_rv.mp4	0.0	111.09633040428162	
13	93.86403799057007	pulse	1	t		11.0	2.5	/experiments/Knapen_AOT/AOT_stimuli/rescaled_final/0748_rv.mp4	0.0	112.69636559486389	
13	94.38884806632996	fix_post	2		12	11.0	2.5	/experiments/Knapen_AOT/AOT_stimuli/rescaled_final/0748_rv.mp4	0.0	113.22117567062378	0.10000824928283691
14	94.4888563156128	fix_pre	0		118	12.0	2.5	/experiments/Knapen_AOT/AOT_stimuli/rescaled_final/1546_fw.mp4	0.0	113.32118391990662	0.991919994354248
14	95.46426892280579	pulse	0	t		12.0	2.5	/experiments/Knapen_AOT/AOT_stimuli/rescaled_final/1546_fw.mp4	0.0	114.29659652709961	
14	95.48077630996704	movie	1		285	12.0	2.5	/experiments/Knapen_AOT/AOT_stimuli/rescaled_final/1546_fw.mp4	0.0	114.31310391426086	2.500319480895996
14	97.06396627426147	pulse	1	t		12.0	2.5	/experiments/Knapen_AOT/AOT_stimuli/rescaled_final/1546_fw.mp4	0.0	115.8962938785553	
14	97.98109579086304	fix_post	2		12	12.0	2.5	/experiments/Knapen_AOT/AOT_stimuli/rescaled_final/1546_fw.mp4	0.0	116.81342339515686	0.09997320175170898
15	98.08106899261475	fix_pre	0		120	13.0	2.5	blank	1.0	116.91339659690857	1.0001628398895264
15	98.66473770141602	pulse	0	t		13.0	2.5	blank	1.0	117.49706530570984	
15	99.08123183250427	movie	1		300	13.0	2.5	blank	1.0	117.9135594367981	2.5003979206085205
15	100.26494932174683	pulse	1	t		13.0	2.5	blank	1.0	119.09727692604065	
15	101.5816297531128	fix_post	2		12	13.0	2.5	blank	1.0	120.41395735740662	0.10000371932983398
16	101.68163347244263	fix_pre	0		120	14.0	2.5	/experiments/Knapen_AOT/AOT_stimuli/rescaled_final/0822_fw.mp4	0.0	120.51396107673645	1.0084500312805176
16	101.86517977714539	pulse	0	t		14.0	2.5	/experiments/Knapen_AOT/AOT_stimuli/rescaled_final/0822_fw.mp4	0.0	120.69750738143921	
16	102.69008350372314	movie	1		277	14.0	2.5	/experiments/Knapen_AOT/AOT_stimuli/rescaled_final/0822_fw.mp4	0.0	121.52241110801697	2.492048978805542
16	103.46581506729126	pulse	1	t		14.0	2.5	/experiments/Knapen_AOT/AOT_stimuli/rescaled_final/0822_fw.mp4	0.0	122.29814267158508	
16	105.06567120552063	pulse	1	t		14.0	2.5	/experiments/Knapen_AOT/AOT_stimuli/rescaled_final/0822_fw.mp4	0.0	123.89799880981445	
16	105.18213248252869	fix_post	2		12	14.0	2.5	/experiments/Knapen_AOT/AOT_stimuli/rescaled_final/0822_fw.mp4	0.0	124.01446008682251	0.10002517700195312
17	105.28215765953064	fix_pre	0		120	15.0	2.5	/experiments/Knapen_AOT/AOT_stimuli/rescaled_final/2055_fw.mp4	0.0	124.11448526382446	1.0085599422454834
17	106.29071760177612	movie	1		279	15.0	2.5	/experiments/Knapen_AOT/AOT_stimuli/rescaled_final/2055_fw.mp4	0.0	125.12304520606995	2.4919509887695312
17	106.6642382144928	pulse	1	t		15.0	2.5	/experiments/Knapen_AOT/AOT_stimuli/rescaled_final/2055_fw.mp4	0.0	125.49656581878662	
17	108.26593327522278	pulse	1	t		15.0	2.5	/experiments/Knapen_AOT/AOT_stimuli/rescaled_final/2055_fw.mp4	0.0	127.0982608795166	
17	108.78266859054565	fix_post	2		12	15.0	2.5	/experiments/Knapen_AOT/AOT_stimuli/rescaled_final/2055_fw.mp4	0.0	127.61499619483948	0.10002756118774414
18	108.8826961517334	fix_pre	0		119	16.0	2.5	/experiments/Knapen_AOT/AOT_stimuli/rescaled_final/1229_rv.mp4	0.0	127.71502375602722	1.000173807144165
18	109.86669182777405	pulse	0	t		16.0	2.5	/experiments/Knapen_AOT/AOT_stimuli/rescaled_final/1229_rv.mp4	0.0	128.69901943206787	
18	109.88286995887756	movie	1		286	16.0	2.5	/experiments/Knapen_AOT/AOT_stimuli/rescaled_final/1229_rv.mp4	0.0	128.7151975631714	2.5003421306610107
18	111.46523237228394	pulse	1	t		16.0	2.5	/experiments/Knapen_AOT/AOT_stimuli/rescaled_final/1229_rv.mp4	0.0	130.29755997657776	
18	112.38321208953857	fix_post	2		12	16.0	2.5	/experiments/Knapen_AOT/AOT_stimuli/rescaled_final/1229_rv.mp4	0.0	131.2155396938324	0.10004663467407227
19	112.48325872421265	fix_pre	0		120	17.0	2.5	/experiments/Knapen_AOT/AOT_stimuli/rescaled_final/0294_fw.mp4	0.0	131.31558632850647	1.0085561275482178
19	113.06686568260193	pulse	0	t		17.0	2.5	/experiments/Knapen_AOT/AOT_stimuli/rescaled_final/0294_fw.mp4	0.0	131.89919328689575	
19	113.49181485176086	movie	1		276	17.0	2.5	/experiments/Knapen_AOT/AOT_stimuli/rescaled_final/0294_fw.mp4	0.0	132.3241424560547	2.491985321044922
19	114.66536068916321	pulse	1	t		17.0	2.5	/experiments/Knapen_AOT/AOT_stimuli/rescaled_final/0294_fw.mp4	0.0	133.49768829345703	
19	115.98380017280579	fix_post	2		12	17.0	2.5	/experiments/Knapen_AOT/AOT_stimuli/rescaled_final/0294_fw.mp4	0.0	134.8161277770996	0.09996676445007324
20	116.08376693725586	fix_pre	0		120	18.0	2.5	/experiments/Knapen_AOT/AOT_stimuli/rescaled_final/1041_fw.mp4	0.0	134.91609454154968	1.0085093975067139
20	116.26733255386353	pulse	0	t		18.0	2.5	/experiments/Knapen_AOT/AOT_stimuli/rescaled_final/1041_fw.mp4	0.0	135.09966015815735	
20	117.09227633476257	movie	1		284	18.0	2.5	/experiments/Knapen_AOT/AOT_stimuli/rescaled_final/1041_fw.mp4	0.0	135.9246039390564	2.492018699645996
20	117.86693143844604	pulse	1	t		18.0	2.5	/experiments/Knapen_AOT/AOT_stimuli/rescaled_final/1041_fw.mp4	0.0	136.69925904273987	
20	119.4661214351654	pulse	1	t		18.0	2.5	/experiments/Knapen_AOT/AOT_stimuli/rescaled_final/1041_fw.mp4	0.0	138.29844903945923	
20	119.58429503440857	fix_post	2		12	18.0	2.5	/experiments/Knapen_AOT/AOT_stimuli/rescaled_final/1041_fw.mp4	0.0	138.4166226387024	0.10003328323364258
21	119.68432831764221	fix_pre	0		120	19.0	2.5	/experiments/Knapen_AOT/AOT_stimuli/rescaled_final/1048_fw.mp4	0.0	138.51665592193604	1.0084896087646484
21	120.69281792640686	movie	1		274	19.0	2.5	/experiments/Knapen_AOT/AOT_stimuli/rescaled_final/1048_fw.mp4	0.0	139.52514553070068	2.492044448852539
21	121.06654691696167	pulse	1	t		19.0	2.5	/experiments/Knapen_AOT/AOT_stimuli/rescaled_final/1048_fw.mp4	0.0	139.8988745212555	
21	122.66685819625854	pulse	1	t		19.0	2.5	/experiments/Knapen_AOT/AOT_stimuli/rescaled_final/1048_fw.mp4	0.0	141.49918580055237	
21	123.1848623752594	fix_post	2		12	19.0	2.5	/experiments/Knapen_AOT/AOT_stimuli/rescaled_final/1048_fw.mp4	0.0	142.01718997955322	0.10013556480407715
22	123.28499794006348	fix_pre	0		119	20.0	2.5	blank	1.0	142.1173255443573	0.9916868209838867
22	124.26857686042786	pulse	0	t		20.0	2.5	blank	1.0	143.10090446472168	
22	124.27668476104736	movie	1		301	20.0	2.5	blank	1.0	143.1090123653412	2.508695602416992
22	125.86877083778381	pulse	1	t		20.0	2.5	blank	1.0	144.70109844207764	
22	126.78538036346436	fix_post	2		12	20.0	2.5	blank	1.0	145.61770796775818	0.10007905960083008
23	126.88545942306519	fix_pre	0		120	21.0	2.5	/experiments/Knapen_AOT/AOT_stimuli/rescaled_final/0557_fw.mp4	0.0	145.717787027359	1.0084240436553955
23	127.46906518936157	pulse	0	t		21.0	2.5	/experiments/Knapen_AOT/AOT_stimuli/rescaled_final/0557_fw.mp4	0.0	146.3013927936554	
23	127.89388346672058	movie	1		280	21.0	2.5	/experiments/Knapen_AOT/AOT_stimuli/rescaled_final/0557_fw.mp4	0.0	146.7262110710144	2.49204158782959
23	129.06754064559937	pulse	1	t		21.0	2.5	/experiments/Knapen_AOT/AOT_stimuli/rescaled_final/0557_fw.mp4	0.0	147.8998682498932	
23	130.38592505455017	fix_post	2		12	21.0	2.5	/experiments/Knapen_AOT/AOT_stimuli/rescaled_final/0557_fw.mp4	0.0	149.218252658844	0.10004806518554688
24	130.48597311973572	fix_pre	0		120	22.0	2.5	/experiments/Knapen_AOT/AOT_stimuli/rescaled_final/1140_fw.mp4	0.0	149.31830072402954	1.0084655284881592
24	130.66959595680237	pulse	0	t		22.0	2.5	/experiments/Knapen_AOT/AOT_stimuli/rescaled_final/1140_fw.mp4	0.0	149.5019235610962	
24	131.49443864822388	movie	1		273	22.0	2.5	/experiments/Knapen_AOT/AOT_stimuli/rescaled_final/1140_fw.mp4	0.0	150.3267662525177	2.4920170307159424
24	132.26770496368408	pulse	1	t		22.0	2.5	/experiments/Knapen_AOT/AOT_stimuli/rescaled_final/1140_fw.mp4	0.0	151.1000325679779	
24	133.86835598945618	pulse	1	t		22.0	2.5	/experiments/Knapen_AOT/AOT_stimuli/rescaled_final/1140_fw.mp4	0.0	152.70068359375	
24	133.98645567893982	fix_post	2		12	22.0	2.5	/experiments/Knapen_AOT/AOT_stimuli/rescaled_final/1140_fw.mp4	0.0	152.81878328323364	0.10002326965332031
25	134.08647894859314	fix_pre	0		120	23.0	2.5	/experiments/Knapen_AOT/AOT_stimuli/rescaled_final/1794_fw.mp4	0.0	152.91880655288696	1.0169224739074707
25	135.1034014225006	movie	1		279	23.0	2.5	/experiments/Knapen_AOT/AOT_stimuli/rescaled_final/1794_fw.mp4	0.0	153.93572902679443	2.483644962310791
25	135.46854376792908	pulse	1	t		23.0	2.5	/experiments/Knapen_AOT/AOT_stimuli/rescaled_final/1794_fw.mp4	0.0	154.3008713722229	
25	137.070862531662	pulse	1	t		23.0	2.5	/experiments/Knapen_AOT/AOT_stimuli/rescaled_final/1794_fw.mp4	0.0	155.9031901359558	
25	137.5870463848114	fix_post	2		12	23.0	2.5	/experiments/Knapen_AOT/AOT_stimuli/rescaled_final/1794_fw.mp4	0.0	156.41937398910522	0.10002994537353516
26	137.68707633018494	fix_pre	0		119	24.0	2.5	/experiments/Knapen_AOT/AOT_stimuli/rescaled_final/1686_rv.mp4	0.0	156.51940393447876	1.0000972747802734
26	138.67080783843994	pulse	0	t		24.0	2.5	/experiments/Knapen_AOT/AOT_stimuli/rescaled_final/1686_rv.mp4	0.0	157.50313544273376	
26	138.6871736049652	movie	1		278	24.0	2.5	/experiments/Knapen_AOT/AOT_stimuli/rescaled_final/1686_rv.mp4	0.0	157.51950120925903	2.500385046005249
26	140.269225358963	pulse	1	t		24.0	2.5	/experiments/Knapen_AOT/AOT_stimuli/rescaled_final/1686_rv.mp4	0.0	159.10155296325684	
26	141.18755865097046	fix_post	2		12	24.0	2.5	/experiments/Knapen_AOT/AOT_stimuli/rescaled_final/1686_rv.mp4	0.0	160.01988625526428	0.10001945495605469
27	141.2875781059265	fix_pre	0		120	25.0	2.5	/experiments/Knapen_AOT/AOT_stimuli/rescaled_final/0400_fw.mp4	0.0	160.11990571022034	1.0085008144378662
27	141.8713185787201	pulse	0	t		25.0	2.5	/experiments/Knapen_AOT/AOT_stimuli/rescaled_final/0400_fw.mp4	0.0	160.70364618301392	
27	142.29607892036438	movie	1		271	25.0	2.5	/experiments/Knapen_AOT/AOT_stimuli/rescaled_final/0400_fw.mp4	0.0	161.1284065246582	2.4920082092285156
27	143.4699809551239	pulse	1	t		25.0	2.5	/experiments/Knapen_AOT/AOT_stimuli/rescaled_final/0400_fw.mp4	0.0	162.30230855941772	
27	144.7880871295929	fix_post	2		12	25.0	2.5	/experiments/Knapen_AOT/AOT_stimuli/rescaled_final/0400_fw.mp4	0.0	163.62041473388672	0.10011625289916992
28	144.88820338249207	fix_pre	0		120	26.0	2.5	blank	1.0	163.7205309867859	1.0000371932983398
28	145.07189798355103	pulse	0	t		26.0	2.5	blank	1.0	163.90422558784485	
28	145.8882405757904	movie	1		300	26.0	2.5	blank	1.0	164.72056818008423	2.500443696975708
28	146.6719150543213	pulse	1	t		26.0	2.5	blank	1.0	165.5042426586151	
28	148.26442790031433	pulse	1	t		26.0	2.5	blank	1.0	167.09675550460815	
28	148.3886842727661	fix_post	2		12	26.0	2.5	blank	1.0	167.22101187705994	0.10001397132873535
29	148.48869824409485	fix_pre	0		120	27.0	2.5	/experiments/Knapen_AOT/AOT_stimuli/rescaled_final/0126_rv.mp4	0.0	167.32102584838867	1.0084445476531982
29	149.49714279174805	movie	1		292	27.0	2.5	/experiments/Knapen_AOT/AOT_stimuli/rescaled_final/0126_rv.mp4	0.0	168.32947039604187	2.492084264755249
29	149.86447024345398	pulse	1	t		27.0	2.5	/experiments/Knapen_AOT/AOT_stimuli/rescaled_final/0126_rv.mp4	0.0	168.6967978477478	
29	151.46447658538818	pulse	1	t		27.0	2.5	/experiments/Knapen_AOT/AOT_stimuli/rescaled_final/0126_rv.mp4	0.0	170.296804189682	
29	151.9892270565033	fix_post	2		12	27.0	2.5	/experiments/Knapen_AOT/AOT_stimuli/rescaled_final/0126_rv.mp4	0.0	170.82155466079712	0.10001778602600098
30	152.0892448425293	fix_pre	0		118	28.0	2.5	/experiments/Knapen_AOT/AOT_stimuli/rescaled_final/1229_fw.mp4	0.0	170.92157244682312	0.9917387962341309
30	153.06463718414307	pulse	0	t		28.0	2.5	/experiments/Knapen_AOT/AOT_stimuli/rescaled_final/1229_fw.mp4	0.0	171.8969647884369	
30	153.08098363876343	movie	1		284	28.0	2.5	/experiments/Knapen_AOT/AOT_stimuli/rescaled_final/1229_fw.mp4	0.0	171.91331124305725	2.5003886222839355
30	154.6649158000946	pulse	1	t		28.0	2.5	/experiments/Knapen_AOT/AOT_stimuli/rescaled_final/1229_fw.mp4	0.0	173.49724340438843	
30	155.58137226104736	fix_post	2		12	28.0	2.5	/experiments/Knapen_AOT/AOT_stimuli/rescaled_final/1229_fw.mp4	0.0	174.4136998653412	0.10001730918884277
31	155.6813895702362	fix_pre	0		120	29.0	2.5	/experiments/Knapen_AOT/AOT_stimuli/rescaled_final/0483_fw.mp4	0.0	174.51371717453003	1.0085222721099854
31	156.2651388645172	pulse	0	t		29.0	2.5	/experiments/Knapen_AOT/AOT_stimuli/rescaled_final/0483_fw.mp4	0.0	175.09746646881104	
31	156.6899118423462	movie	1		284	29.0	2.5	/experiments/Knapen_AOT/AOT_stimuli/rescaled_final/0483_fw.mp4	0.0	175.52223944664001	2.492008924484253
31	157.86532354354858	pulse	1	t		29.0	2.5	/experiments/Knapen_AOT/AOT_stimuli/rescaled_final/0483_fw.mp4	0.0	176.6976511478424	
31	159.18192076683044	fix_post	2		12	29.0	2.5	/experiments/Knapen_AOT/AOT_stimuli/rescaled_final/0483_fw.mp4	0.0	178.01424837112427	0.10004281997680664
32	159.28196358680725	fix_pre	0		120	30.0	2.5	/experiments/Knapen_AOT/AOT_stimuli/rescaled_final/1250_fw.mp4	0.0	178.11429119110107	1.0084648132324219
32	159.46558260917664	pulse	0	t		30.0	2.5	/experiments/Knapen_AOT/AOT_stimuli/rescaled_final/1250_fw.mp4	0.0	178.29791021347046	
32	160.29042840003967	movie	1		287	30.0	2.5	/experiments/Knapen_AOT/AOT_stimuli/rescaled_final/1250_fw.mp4	0.0	179.1227560043335	2.492140531539917
32	161.06577134132385	pulse	1	t		30.0	2.5	/experiments/Knapen_AOT/AOT_stimuli/rescaled_final/1250_fw.mp4	0.0	179.89809894561768	
32	162.66594886779785	pulse	1	t		30.0	2.5	/experiments/Knapen_AOT/AOT_stimuli/rescaled_final/1250_fw.mp4	0.0	181.49827647209167	
32	162.7825689315796	fix_post	2		12	30.0	2.5	/experiments/Knapen_AOT/AOT_stimuli/rescaled_final/1250_fw.mp4	0.0	181.6148965358734	0.0999138355255127
33	162.8824827671051	fix_pre	0		120	31.0	2.5	/experiments/Knapen_AOT/AOT_stimuli/rescaled_final/0588_rv.mp4	0.0	181.71481037139893	1.0086090564727783
33	163.89109182357788	movie	1		276	31.0	2.5	/experiments/Knapen_AOT/AOT_stimuli/rescaled_final/0588_rv.mp4	0.0	182.7234194278717	2.4919140338897705
33	164.26637268066406	pulse	1	t		31.0	2.5	/experiments/Knapen_AOT/AOT_stimuli/rescaled_final/0588_rv.mp4	0.0	183.09870028495789	
33	165.86473727226257	pulse	1	t		31.0	2.5	/experiments/Knapen_AOT/AOT_stimuli/rescaled_final/0588_rv.mp4	0.0	184.6970648765564	
33	166.38300585746765	fix_post	2		12	31.0	2.5	/experiments/Knapen_AOT/AOT_stimuli/rescaled_final/0588_rv.mp4	0.0	185.21533346176147	0.10001778602600098
34	166.48302364349365	fix_pre	0		119	32.0	2.5	/experiments/Knapen_AOT/AOT_stimuli/rescaled_final/0988_fw.mp4	0.0	185.31535124778748	1.0001916885375977
34	167.46711492538452	pulse	0	t		32.0	2.5	/experiments/Knapen_AOT/AOT_stimuli/rescaled_final/0988_fw.mp4	0.0	186.29944252967834	
34	167.48321533203125	movie	1		259	32.0	2.5	/experiments/Knapen_AOT/AOT_stimuli/rescaled_final/0988_fw.mp4	0.0	186.31554293632507	2.508732795715332
34	169.0670828819275	pulse	1	t		32.0	2.5	/experiments/Knapen_AOT/AOT_stimuli/rescaled_final/0988_fw.mp4	0.0	187.8994104862213	
34	169.99194812774658	fix_post	2		11	32.0	2.5	/experiments/Knapen_AOT/AOT_stimuli/rescaled_final/0988_fw.mp4	0.0	188.8242757320404	0.09179377555847168
35	170.08374190330505	fix_pre	0		120	33.0	2.5	/experiments/Knapen_AOT/AOT_stimuli/rescaled_final/1459_fw.mp4	0.0	188.91606950759888	1.0083563327789307
35	170.6671702861786	pulse	0	t		33.0	2.5	/experiments/Knapen_AOT/AOT_stimuli/rescaled_final/1459_fw.mp4	0.0	189.4994978904724	
35	171.09209823608398	movie	1		290	33.0	2.5	/experiments/Knapen_AOT/AOT_stimuli/rescaled_final/1459_fw.mp4	0.0	189.9244258403778	2.492063283920288
35	172.26579880714417	pulse	1	t		33.0	2.5	/experiments/Knapen_AOT/AOT_stimuli/rescaled_final/1459_fw.mp4	0.0	191.098126411438	
35	173.58416152000427	fix_post	2		12	33.0	2.5	/experiments/Knapen_AOT/AOT_stimuli/rescaled_final/1459_fw.mp4	0.0	192.4164891242981	0.09990215301513672
36	173.6840636730194	fix_pre	0		120	34.0	2.5	/experiments/Knapen_AOT/AOT_stimuli/rescaled_final/1976_fw.mp4	0.0	192.51639127731323	1.0085890293121338
36	173.86775612831116	pulse	0	t		34.0	2.5	/experiments/Knapen_AOT/AOT_stimuli/rescaled_final/1976_fw.mp4	0.0	192.70008373260498	
36	174.69265270233154	movie	1		262	34.0	2.5	/experiments/Knapen_AOT/AOT_stimuli/rescaled_final/1976_fw.mp4	0.0	193.52498030662537	2.5003180503845215
36	175.46573448181152	pulse	1	t		34.0	2.5	/experiments/Knapen_AOT/AOT_stimuli/rescaled_final/1976_fw.mp4	0.0	194.29806208610535	
36	177.06628322601318	pulse	1	t		34.0	2.5	/experiments/Knapen_AOT/AOT_stimuli/rescaled_final/1976_fw.mp4	0.0	195.898610830307	
36	177.19297075271606	fix_post	2		11	34.0	2.5	/experiments/Knapen_AOT/AOT_stimuli/rescaled_final/1976_fw.mp4	0.0	196.0252983570099	0.09167671203613281
37	177.2846474647522	fix_pre	0		120	35.0	2.5	blank	1.0	196.11697506904602	1.000169277191162
37	178.28481674194336	movie	1		300	35.0	2.5	blank	1.0	197.11714434623718	2.500391960144043
37	178.6684067249298	pulse	1	t		35.0	2.5	blank	1.0	197.50073432922363	
37	180.26869869232178	pulse	1	t		35.0	2.5	blank	1.0	199.1010262966156	
37	180.7852087020874	fix_post	2		12	35.0	2.5	blank	1.0	199.61753630638123	0.0999760627746582
38	180.88518476486206	fix_pre	0		119	36.0	2.5	/experiments/Knapen_AOT/AOT_stimuli/rescaled_final/1223_fw.mp4	0.0	199.71751236915588	1.000169038772583
38	181.86895370483398	pulse	0	t		36.0	2.5	/experiments/Knapen_AOT/AOT_stimuli/rescaled_final/1223_fw.mp4	0.0	200.7012813091278	
38	181.88535380363464	movie	1		279	36.0	2.5	/experiments/Knapen_AOT/AOT_stimuli/rescaled_final/1223_fw.mp4	0.0	200.71768140792847	2.5003650188446045
38	183.46809601783752	pulse	1	t		36.0	2.5	/experiments/Knapen_AOT/AOT_stimuli/rescaled_final/1223_fw.mp4	0.0	202.30042362213135	
38	184.38571882247925	fix_post	2		12	36.0	2.5	/experiments/Knapen_AOT/AOT_stimuli/rescaled_final/1223_fw.mp4	0.0	203.21804642677307	0.10002779960632324
39	184.48574662208557	fix_pre	0		120	37.0	2.5	/experiments/Knapen_AOT/AOT_stimuli/rescaled_final/0319_fw.mp4	0.0	203.3180742263794	1.0084941387176514
39	185.0693554878235	pulse	0	t		37.0	2.5	/experiments/Knapen_AOT/AOT_stimuli/rescaled_final/0319_fw.mp4	0.0	203.9016830921173	
39	185.49424076080322	movie	1		275	37.0	2.5	/experiments/Knapen_AOT/AOT_stimuli/rescaled_final/0319_fw.mp4	0.0	204.32656836509705	2.4920010566711426
39	186.66787433624268	pulse	1	t		37.0	2.5	/experiments/Knapen_AOT/AOT_stimuli/rescaled_final/0319_fw.mp4	0.0	205.5002019405365	
39	187.98624181747437	fix_post	2		12	37.0	2.5	/experiments/Knapen_AOT/AOT_stimuli/rescaled_final/0319_fw.mp4	0.0	206.8185694217682	0.10003662109375
40	188.08627843856812	fix_pre	0		120	38.0	2.5	/experiments/Knapen_AOT/AOT_stimuli/rescaled_final/1229_fw.mp4	0.0	206.91860604286194	1.0085110664367676
40	188.26994705200195	pulse	0	t		38.0	2.5	/experiments/Knapen_AOT/AOT_stimuli/rescaled_final/1229_fw.mp4	0.0	207.10227465629578	
40	189.09478950500488	movie	1		277	38.0	2.5	/experiments/Knapen_AOT/AOT_stimuli/rescaled_final/1229_fw.mp4	0.0	207.9271171092987	2.4920127391815186
40	189.8705177307129	pulse	1	t		38.0	2.5	/experiments/Knapen_AOT/AOT_stimuli/rescaled_final/1229_fw.mp4	0.0	208.7028453350067	
40	191.46848034858704	pulse	1	t		38.0	2.5	/experiments/Knapen_AOT/AOT_stimuli/rescaled_final/1229_fw.mp4	0.0	210.30080795288086	
40	191.5868022441864	fix_post	2		12	38.0	2.5	/experiments/Knapen_AOT/AOT_stimuli/rescaled_final/1229_fw.mp4	0.0	210.41912984848022	0.10001540184020996
41	191.6868176460266	fix_pre	0		120	39.0	2.5	/experiments/Knapen_AOT/AOT_stimuli/rescaled_final/1660_fw.mp4	0.0	210.51914525032043	1.0085124969482422
41	192.69533014297485	movie	1		288	39.0	2.5	/experiments/Knapen_AOT/AOT_stimuli/rescaled_final/1660_fw.mp4	0.0	211.52765774726868	2.4920547008514404
41	193.0689971446991	pulse	1	t		39.0	2.5	/experiments/Knapen_AOT/AOT_stimuli/rescaled_final/1660_fw.mp4	0.0	211.90132474899292	
41	194.668851852417	pulse	1	t		39.0	2.5	/experiments/Knapen_AOT/AOT_stimuli/rescaled_final/1660_fw.mp4	0.0	213.50117945671082	
41	195.1873848438263	fix_post	2		12	39.0	2.5	/experiments/Knapen_AOT/AOT_stimuli/rescaled_final/1660_fw.mp4	0.0	214.01971244812012	0.09997391700744629
42	195.28735876083374	fix_pre	0		119	40.0	2.5	blank	1.0	214.11968636512756	0.9919178485870361
42	196.27113938331604	pulse	0	t		40.0	2.5	blank	1.0	215.10346698760986	
42	196.27927660942078	movie	1		301	40.0	2.5	blank	1.0	215.1116042137146	2.508657217025757
42	197.8646686077118	pulse	1	t		40.0	2.5	blank	1.0	216.69699621200562	
42	198.78793382644653	fix_post	2		12	40.0	2.5	blank	1.0	217.62026143074036	0.09999775886535645
43	198.8879315853119	fix_pre	0		120	41.0	2.5	/experiments/Knapen_AOT/AOT_stimuli/rescaled_final/1728_fw.mp4	0.0	217.7202591896057	1.0085129737854004
43	199.46422457695007	pulse	0	t		41.0	2.5	/experiments/Knapen_AOT/AOT_stimuli/rescaled_final/1728_fw.mp4	0.0	218.2965521812439	
43	199.8964445590973	movie	1		282	41.0	2.5	/experiments/Knapen_AOT/AOT_stimuli/rescaled_final/1728_fw.mp4	0.0	218.7287721633911	2.4919753074645996
43	201.06391787528992	pulse	1	t		41.0	2.5	/experiments/Knapen_AOT/AOT_stimuli/rescaled_final/1728_fw.mp4	0.0	219.89624547958374	
43	202.3884198665619	fix_post	2		12	41.0	2.5	/experiments/Knapen_AOT/AOT_stimuli/rescaled_final/1728_fw.mp4	0.0	221.2207474708557	0.1000981330871582
44	202.48851799964905	fix_pre	0		120	42.0	2.5	/experiments/Knapen_AOT/AOT_stimuli/rescaled_final/0458_rv.mp4	0.0	221.32084560394287	1.008479118347168
44	202.6637785434723	pulse	0	t		42.0	2.5	/experiments/Knapen_AOT/AOT_stimuli/rescaled_final/0458_rv.mp4	0.0	221.4961061477661	
44	203.49699711799622	movie	1		277	42.0	2.5	/experiments/Knapen_AOT/AOT_stimuli/rescaled_final/0458_rv.mp4	0.0	222.32932472229004	2.491964340209961
44	204.26388549804688	pulse	1	t		42.0	2.5	/experiments/Knapen_AOT/AOT_stimuli/rescaled_final/0458_rv.mp4	0.0	223.0962131023407	
44	205.86426091194153	pulse	1	t		42.0	2.5	/experiments/Knapen_AOT/AOT_stimuli/rescaled_final/0458_rv.mp4	0.0	224.69658851623535	
44	205.98896145820618	fix_post	2		12	42.0	2.5	/experiments/Knapen_AOT/AOT_stimuli/rescaled_final/0458_rv.mp4	0.0	224.8212890625	0.10003089904785156
45	206.08899235725403	fix_pre	0		120	43.0	2.5	/experiments/Knapen_AOT/AOT_stimuli/rescaled_final/0712_rv.mp4	0.0	224.92131996154785	1.008495807647705
45	207.09748816490173	movie	1		268	43.0	2.5	/experiments/Knapen_AOT/AOT_stimuli/rescaled_final/0712_rv.mp4	0.0	225.92981576919556	2.492023468017578
45	207.4644968509674	pulse	1	t		43.0	2.5	/experiments/Knapen_AOT/AOT_stimuli/rescaled_final/0712_rv.mp4	0.0	226.29682445526123	
45	209.06483435630798	pulse	1	t		43.0	2.5	/experiments/Knapen_AOT/AOT_stimuli/rescaled_final/0712_rv.mp4	0.0	227.8971619606018	
45	209.5895116329193	fix_post	2		12	43.0	2.5	/experiments/Knapen_AOT/AOT_stimuli/rescaled_final/0712_rv.mp4	0.0	228.42183923721313	0.10003447532653809
46	209.68954610824585	fix_pre	0		118	44.0	2.5	/experiments/Knapen_AOT/AOT_stimuli/rescaled_final/1722_fw.mp4	0.0	228.52187371253967	0.9918148517608643
46	210.66498184204102	pulse	0	t		44.0	2.5	/experiments/Knapen_AOT/AOT_stimuli/rescaled_final/1722_fw.mp4	0.0	229.49730944633484	
46	210.6813609600067	movie	1		280	44.0	2.5	/experiments/Knapen_AOT/AOT_stimuli/rescaled_final/1722_fw.mp4	0.0	229.51368856430054	2.500340461730957
46	212.26462292671204	pulse	1	t		44.0	2.5	/experiments/Knapen_AOT/AOT_stimuli/rescaled_final/1722_fw.mp4	0.0	231.09695053100586	
46	213.18170142173767	fix_post	2		12	44.0	2.5	/experiments/Knapen_AOT/AOT_stimuli/rescaled_final/1722_fw.mp4	0.0	232.0140290260315	0.10002827644348145
47	213.28172969818115	fix_pre	0		120	45.0	2.5	/experiments/Knapen_AOT/AOT_stimuli/rescaled_final/0557_rv.mp4	0.0	232.11405730247498	1.0085251331329346
47	213.86552453041077	pulse	0	t		45.0	2.5	/experiments/Knapen_AOT/AOT_stimuli/rescaled_final/0557_rv.mp4	0.0	232.6978521347046	
47	214.2902548313141	movie	1		281	45.0	2.5	/experiments/Knapen_AOT/AOT_stimuli/rescaled_final/0557_rv.mp4	0.0	233.1225824356079	2.4920408725738525
47	215.4657964706421	pulse	1	t		45.0	2.5	/experiments/Knapen_AOT/AOT_stimuli/rescaled_final/0557_rv.mp4	0.0	234.2981240749359	
47	216.78229570388794	fix_post	2		12	45.0	2.5	/experiments/Knapen_AOT/AOT_stimuli/rescaled_final/0557_rv.mp4	0.0	235.61462330818176	0.09998083114624023
48	216.88227653503418	fix_pre	0		120	46.0	2.5	/experiments/Knapen_AOT/AOT_stimuli/rescaled_final/1455_fw.mp4	0.0	235.714604139328	1.0084888935089111
48	217.06589603424072	pulse	0	t		46.0	2.5	/experiments/Knapen_AOT/AOT_stimuli/rescaled_final/1455_fw.mp4	0.0	235.89822363853455	
48	217.8907654285431	movie	1		258	46.0	2.5	/experiments/Knapen_AOT/AOT_stimuli/rescaled_final/1455_fw.mp4	0.0	236.7230930328369	2.492061138153076
48	218.66585969924927	pulse	1	t		46.0	2.5	/experiments/Knapen_AOT/AOT_stimuli/rescaled_final/1455_fw.mp4	0.0	237.4981873035431	
48	220.264164686203	pulse	1	t		46.0	2.5	/experiments/Knapen_AOT/AOT_stimuli/rescaled_final/1455_fw.mp4	0.0	239.09649229049683	
48	220.38282656669617	fix_post	2		12	46.0	2.5	/experiments/Knapen_AOT/AOT_stimuli/rescaled_final/1455_fw.mp4	0.0	239.21515417099	0.0999910831451416
49	220.4828176498413	fix_pre	0		120	47.0	2.5	blank	1.0	239.31514525413513	1.0001521110534668
49	221.48296976089478	movie	1		300	47.0	2.5	blank	1.0	240.3152973651886	2.5003514289855957
49	221.86662530899048	pulse	1	t		47.0	2.5	blank	1.0	240.6989529132843	
49	223.46679377555847	pulse	1	t		47.0	2.5	blank	1.0	242.2991213798523	
49	223.98332118988037	fix_post	2		12	47.0	2.5	blank	1.0	242.8156487941742	0.10003805160522461
50	224.0833592414856	fix_pre	0		119	48.0	2.5	/experiments/Knapen_AOT/AOT_stimuli/rescaled_final/0055_fw.mp4	0.0	242.91568684577942	1.0001790523529053
50	225.06708884239197	pulse	0	t		48.0	2.5	/experiments/Knapen_AOT/AOT_stimuli/rescaled_final/0055_fw.mp4	0.0	243.8994164466858	
50	225.0835382938385	movie	1		284	48.0	2.5	/experiments/Knapen_AOT/AOT_stimuli/rescaled_final/0055_fw.mp4	0.0	243.91586589813232	2.5003485679626465
50	226.6658000946045	pulse	1	t		48.0	2.5	/experiments/Knapen_AOT/AOT_stimuli/rescaled_final/0055_fw.mp4	0.0	245.49812769889832	
50	227.58388686180115	fix_post	2		12	48.0	2.5	/experiments/Knapen_AOT/AOT_stimuli/rescaled_final/0055_fw.mp4	0.0	246.41621446609497	0.10001468658447266
51	227.68390154838562	fix_pre	0		120	49.0	2.5	/experiments/Knapen_AOT/AOT_stimuli/rescaled_final/1338_rv.mp4	0.0	246.51622915267944	1.0085585117340088
51	228.26762557029724	pulse	0	t		49.0	2.5	/experiments/Knapen_AOT/AOT_stimuli/rescaled_final/1338_rv.mp4	0.0	247.09995317459106	
51	228.69246006011963	movie	1		289	49.0	2.5	/experiments/Knapen_AOT/AOT_stimuli/rescaled_final/1338_rv.mp4	0.0	247.52478766441345	2.4919683933258057
51	229.86644864082336	pulse	1	t		49.0	2.5	/experiments/Knapen_AOT/AOT_stimuli/rescaled_final/1338_rv.mp4	0.0	248.6987762451172	
51	231.18442845344543	fix_post	2		12	49.0	2.5	/experiments/Knapen_AOT/AOT_stimuli/rescaled_final/1338_rv.mp4	0.0	250.01675605773926	0.10001015663146973
52	231.2844386100769	fix_pre	0		120	50.0	2.5	/experiments/Knapen_AOT/AOT_stimuli/rescaled_final/0491_rv.mp4	0.0	250.11676621437073	1.0085093975067139
52	231.46804451942444	pulse	0	t		50.0	2.5	/experiments/Knapen_AOT/AOT_stimuli/rescaled_final/0491_rv.mp4	0.0	250.30037212371826	
52	232.29294800758362	movie	1		279	50.0	2.5	/experiments/Knapen_AOT/AOT_stimuli/rescaled_final/0491_rv.mp4	0.0	251.12527561187744	2.491999387741089
52	233.06835436820984	pulse	1	t		50.0	2.5	/experiments/Knapen_AOT/AOT_stimuli/rescaled_final/0491_rv.mp4	0.0	251.90068197250366	
52	234.66693234443665	pulse	1	t		50.0	2.5	/experiments/Knapen_AOT/AOT_stimuli/rescaled_final/0491_rv.mp4	0.0	253.49925994873047	
52	234.7849473953247	fix_post	2		12	50.0	2.5	/experiments/Knapen_AOT/AOT_stimuli/rescaled_final/0491_rv.mp4	0.0	253.61727499961853	0.1000509262084961
53	234.8849983215332	fix_pre	0		120	51.0	2.5	/experiments/Knapen_AOT/AOT_stimuli/rescaled_final/0682_rv.mp4	0.0	253.71732592582703	1.0085015296936035
53	235.8934998512268	movie	1		271	51.0	2.5	/experiments/Knapen_AOT/AOT_stimuli/rescaled_final/0682_rv.mp4	0.0	254.72582745552063	2.4920079708099365
53	236.26739525794983	pulse	1	t		51.0	2.5	/experiments/Knapen_AOT/AOT_stimuli/rescaled_final/0682_rv.mp4	0.0	255.09972286224365	
53	237.86718344688416	pulse	1	t		51.0	2.5	/experiments/Knapen_AOT/AOT_stimuli/rescaled_final/0682_rv.mp4	0.0	256.699511051178	
53	238.38550782203674	fix_post	2		12	51.0	2.5	/experiments/Knapen_AOT/AOT_stimuli/rescaled_final/0682_rv.mp4	0.0	257.21783542633057	0.10003089904785156
54	238.4855387210846	fix_pre	0		119	52.0	2.5	/experiments/Knapen_AOT/AOT_stimuli/rescaled_final/0808_fw.mp4	0.0	257.3178663253784	1.0002119541168213
54	239.46936655044556	pulse	0	t		52.0	2.5	/experiments/Knapen_AOT/AOT_stimuli/rescaled_final/0808_fw.mp4	0.0	258.3016941547394	
54	239.48575067520142	movie	1		285	52.0	2.5	/experiments/Knapen_AOT/AOT_stimuli/rescaled_final/0808_fw.mp4	0.0	258.31807827949524	2.500296115875244
54	241.06796550750732	pulse	1	t		52.0	2.5	/experiments/Knapen_AOT/AOT_stimuli/rescaled_final/0808_fw.mp4	0.0	259.90029311180115	
54	241.98604679107666	fix_post	2		12	52.0	2.5	/experiments/Knapen_AOT/AOT_stimuli/rescaled_final/0808_fw.mp4	0.0	260.8183743953705	0.10001993179321289
55	242.08606672286987	fix_pre	0		120	53.0	2.5	/experiments/Knapen_AOT/AOT_stimuli/rescaled_final/0418_rv.mp4	0.0	260.9183943271637	1.008542776107788
55	242.66971731185913	pulse	0	t		53.0	2.5	/experiments/Knapen_AOT/AOT_stimuli/rescaled_final/0418_rv.mp4	0.0	261.50204491615295	
55	243.09460949897766	movie	1		279	53.0	2.5	/experiments/Knapen_AOT/AOT_stimuli/rescaled_final/0418_rv.mp4	0.0	261.9269371032715	2.4919819831848145
55	244.26876068115234	pulse	1	t		53.0	2.5	/experiments/Knapen_AOT/AOT_stimuli/rescaled_final/0418_rv.mp4	0.0	263.10108828544617	
55	245.58659148216248	fix_post	2		12	53.0	2.5	/experiments/Knapen_AOT/AOT_stimuli/rescaled_final/0418_rv.mp4	0.0	264.4189190864563	0.10007572174072266
56	245.6866672039032	fix_pre	0		120	54.0	2.5	/experiments/Knapen_AOT/AOT_stimuli/rescaled_final/0036_rv.mp4	0.0	264.518994808197	1.0084609985351562
56	245.87024307250977	pulse	0	t		54.0	2.5	/experiments/Knapen_AOT/AOT_stimuli/rescaled_final/0036_rv.mp4	0.0	264.7025706768036	
56	246.69512820243835	movie	1		289	54.0	2.5	/experiments/Knapen_AOT/AOT_stimuli/rescaled_final/0036_rv.mp4	0.0	265.5274558067322	2.4920153617858887
56	247.4684510231018	pulse	1	t		54.0	2.5	/experiments/Knapen_AOT/AOT_stimuli/rescaled_final/0036_rv.mp4	0.0	266.30077862739563	
56	249.06891107559204	pulse	1	t		54.0	2.5	/experiments/Knapen_AOT/AOT_stimuli/rescaled_final/0036_rv.mp4	0.0	267.90123867988586	
56	249.18714356422424	fix_post	2		12	54.0	2.5	/experiments/Knapen_AOT/AOT_stimuli/rescaled_final/0036_rv.mp4	0.0	268.01947116851807	0.10001850128173828
57	249.28716206550598	fix_pre	0		120	55.0	2.5	blank	1.0	268.1194896697998	1.0001275539398193
57	250.2872896194458	movie	1		300	55.0	2.5	blank	1.0	269.1196172237396	2.500408411026001
57	250.66412782669067	pulse	1	t		55.0	2.5	blank	1.0	269.4964554309845	
57	252.27124547958374	pulse	1	t		55.0	2.5	blank	1.0	271.10357308387756	
57	252.7876980304718	fix_post	2		12	55.0	2.5	blank	1.0	271.6200256347656	0.10003185272216797
58	252.88772988319397	fix_pre	0		119	56.0	2.5	/experiments/Knapen_AOT/AOT_stimuli/rescaled_final/0088_rv.mp4	0.0	271.7200574874878	1.0085523128509521
58	253.871910572052	pulse	0	t		56.0	2.5	/experiments/Knapen_AOT/AOT_stimuli/rescaled_final/0088_rv.mp4	0.0	272.7042381763458	
58	253.89628219604492	movie	1		267	56.0	2.5	/experiments/Knapen_AOT/AOT_stimuli/rescaled_final/0088_rv.mp4	0.0	272.72860980033875	2.4920005798339844
58	255.46989846229553	pulse	1	t		56.0	2.5	/experiments/Knapen_AOT/AOT_stimuli/rescaled_final/0088_rv.mp4	0.0	274.30222606658936	
58	256.3882827758789	fix_post	2		12	56.0	2.5	/experiments/Knapen_AOT/AOT_stimuli/rescaled_final/0088_rv.mp4	0.0	275.22061038017273	0.09995198249816895
59	256.4882347583771	fix_pre	0		120	57.0	2.5	/experiments/Knapen_AOT/AOT_stimuli/rescaled_final/2148_fw.mp4	0.0	275.3205623626709	1.0085582733154297
59	257.07193994522095	pulse	0	t		57.0	2.5	/experiments/Knapen_AOT/AOT_stimuli/rescaled_final/2148_fw.mp4	0.0	275.90426754951477	
59	257.4967930316925	movie	1		265	57.0	2.5	/experiments/Knapen_AOT/AOT_stimuli/rescaled_final/2148_fw.mp4	0.0	276.3291206359863	2.4919779300689697
59	258.67017436027527	pulse	1	t		57.0	2.5	/experiments/Knapen_AOT/AOT_stimuli/rescaled_final/2148_fw.mp4	0.0	277.5025019645691	
59	259.9887709617615	fix_post	2		12	57.0	2.5	/experiments/Knapen_AOT/AOT_stimuli/rescaled_final/2148_fw.mp4	0.0	278.8210985660553	0.10001158714294434
60	260.0887825489044	fix_pre	0		120	58.0	2.5	/experiments/Knapen_AOT/AOT_stimuli/rescaled_final/1737_fw.mp4	0.0	278.92111015319824	1.0084781646728516
60	260.2642629146576	pulse	0	t		58.0	2.5	/experiments/Knapen_AOT/AOT_stimuli/rescaled_final/1737_fw.mp4	0.0	279.0965905189514	
60	261.09726071357727	movie	1		278	58.0	2.5	/experiments/Knapen_AOT/AOT_stimuli/rescaled_final/1737_fw.mp4	0.0	279.9295883178711	2.492025136947632
60	261.86433029174805	pulse	1	t		58.0	2.5	/experiments/Knapen_AOT/AOT_stimuli/rescaled_final/1737_fw.mp4	0.0	280.69665789604187	
60	263.4645731449127	pulse	1	t		58.0	2.5	/experiments/Knapen_AOT/AOT_stimuli/rescaled_final/1737_fw.mp4	0.0	282.29690074920654	
60	263.5892858505249	fix_post	2		12	58.0	2.5	/experiments/Knapen_AOT/AOT_stimuli/rescaled_final/1737_fw.mp4	0.0	282.4216134548187	0.1000969409942627
61	263.68938279151917	fix_pre	0		120	59.0	2.5	/experiments/Knapen_AOT/AOT_stimuli/rescaled_final/2001_rv.mp4	0.0	282.521710395813	1.008446216583252
61	264.6978290081024	movie	1		268	59.0	2.5	/experiments/Knapen_AOT/AOT_stimuli/rescaled_final/2001_rv.mp4	0.0	283.53015661239624	2.4920263290405273
61	265.06442189216614	pulse	1	t		59.0	2.5	/experiments/Knapen_AOT/AOT_stimuli/rescaled_final/2001_rv.mp4	0.0	283.89674949645996	
61	266.664963722229	pulse	1	t		59.0	2.5	/experiments/Knapen_AOT/AOT_stimuli/rescaled_final/2001_rv.mp4	0.0	285.4972913265228	
61	267.18985533714294	fix_post	2		12	59.0	2.5	/experiments/Knapen_AOT/AOT_stimuli/rescaled_final/2001_rv.mp4	0.0	286.02218294143677	0.10000276565551758
62	267.28985810279846	fix_pre	0		118	60.0	2.5	/experiments/Knapen_AOT/AOT_stimuli/rescaled_final/0137_fw.mp4	0.0	286.1221857070923	0.9919755458831787
62	268.26546812057495	pulse	0	t		60.0	2.5	/experiments/Knapen_AOT/AOT_stimuli/rescaled_final/0137_fw.mp4	0.0	287.0977957248688	
62	268.28183364868164	movie	1		261	60.0	2.5	/experiments/Knapen_AOT/AOT_stimuli/rescaled_final/0137_fw.mp4	0.0	287.11416125297546	2.5002756118774414
62	269.86555194854736	pulse	1	t		60.0	2.5	/experiments/Knapen_AOT/AOT_stimuli/rescaled_final/0137_fw.mp4	0.0	288.6978795528412	
62	270.7821092605591	fix_post	2		12	60.0	2.5	/experiments/Knapen_AOT/AOT_stimuli/rescaled_final/0137_fw.mp4	0.0	289.6144368648529	0.09998369216918945
63	270.88209295272827	fix_pre	0		120	61.0	2.5	blank	1.0	289.7144205570221	1.0001225471496582
63	271.46572732925415	pulse	0	t		61.0	2.5	blank	1.0	290.298054933548	
63	271.88221549987793	movie	1		300	61.0	2.5	blank	1.0	290.71454310417175	2.500379800796509
63	273.06612610816956	pulse	1	t		61.0	2.5	blank	1.0	291.8984537124634	
63	274.38259530067444	fix_post	2		12	61.0	2.5	blank	1.0	293.21492290496826	0.10002636909484863
64	274.4826216697693	fix_pre	0		120	62.0	2.5	/experiments/Knapen_AOT/AOT_stimuli/rescaled_final/0926_rv.mp4	0.0	293.3149492740631	1.0084614753723145
64	274.6661801338196	pulse	0	t		62.0	2.5	/experiments/Knapen_AOT/AOT_stimuli/rescaled_final/0926_rv.mp4	0.0	293.4985077381134	
64	275.4910831451416	movie	1		280	62.0	2.5	/experiments/Knapen_AOT/AOT_stimuli/rescaled_final/0926_rv.mp4	0.0	294.3234107494354	2.4920520782470703
64	276.26473927497864	pulse	1	t		62.0	2.5	/experiments/Knapen_AOT/AOT_stimuli/rescaled_final/0926_rv.mp4	0.0	295.09706687927246	
64	277.8650133609772	pulse	1	t		62.0	2.5	/experiments/Knapen_AOT/AOT_stimuli/rescaled_final/0926_rv.mp4	0.0	296.697340965271	
64	277.9831352233887	fix_post	2		12	62.0	2.5	/experiments/Knapen_AOT/AOT_stimuli/rescaled_final/0926_rv.mp4	0.0	296.8154628276825	0.1000213623046875
65	278.08315658569336	fix_pre	0		120	63.0	2.5	/experiments/Knapen_AOT/AOT_stimuli/rescaled_final/0462_rv.mp4	0.0	296.9154841899872	1.0084953308105469
65	279.0916519165039	movie	1		275	63.0	2.5	/experiments/Knapen_AOT/AOT_stimuli/rescaled_final/0462_rv.mp4	0.0	297.92397952079773	2.4920623302459717
65	279.467262506485	pulse	1	t		63.0	2.5	/experiments/Knapen_AOT/AOT_stimuli/rescaled_final/0462_rv.mp4	0.0	298.2995901107788	
65	281.0673813819885	pulse	1	t		63.0	2.5	/experiments/Knapen_AOT/AOT_stimuli/rescaled_final/0462_rv.mp4	0.0	299.89970898628235	
65	281.5837142467499	fix_post	2		12	63.0	2.5	/experiments/Knapen_AOT/AOT_stimuli/rescaled_final/0462_rv.mp4	0.0	300.4160418510437	0.0999917984008789
66	281.68370604515076	fix_pre	0		119	64.0	2.5	/experiments/Knapen_AOT/AOT_stimuli/rescaled_final/2149_rv.mp4	0.0	300.5160336494446	1.0001137256622314
66	282.6674702167511	pulse	0	t		64.0	2.5	/experiments/Knapen_AOT/AOT_stimuli/rescaled_final/2149_rv.mp4	0.0	301.4997978210449	
66	282.683819770813	movie	1		273	64.0	2.5	/experiments/Knapen_AOT/AOT_stimuli/rescaled_final/2149_rv.mp4	0.0	301.5161473751068	2.5003933906555176
66	284.2660894393921	pulse	1	t		64.0	2.5	/experiments/Knapen_AOT/AOT_stimuli/rescaled_final/2149_rv.mp4	0.0	303.0984170436859	
66	285.1842131614685	fix_post	2		12	64.0	2.5	/experiments/Knapen_AOT/AOT_stimuli/rescaled_final/2149_rv.mp4	0.0	304.01654076576233	0.10002636909484863
67	285.28423953056335	fix_pre	0		120	65.0	2.5	/experiments/Knapen_AOT/AOT_stimuli/rescaled_final/0808_fw.mp4	0.0	304.1165671348572	1.0085241794586182
67	285.86790776252747	pulse	0	t		65.0	2.5	/experiments/Knapen_AOT/AOT_stimuli/rescaled_final/0808_fw.mp4	0.0	304.7002353668213	
67	286.292763710022	movie	1		281	65.0	2.5	/experiments/Knapen_AOT/AOT_stimuli/rescaled_final/0808_fw.mp4	0.0	305.1250913143158	2.4921672344207764
67	287.4662284851074	pulse	1	t		65.0	2.5	/experiments/Knapen_AOT/AOT_stimuli/rescaled_final/0808_fw.mp4	0.0	306.29855608940125	
67	288.78493094444275	fix_post	2		12	65.0	2.5	/experiments/Knapen_AOT/AOT_stimuli/rescaled_final/0808_fw.mp4	0.0	307.6172585487366	0.09996891021728516
68	288.88489985466003	fix_pre	0		120	66.0	2.5	/experiments/Knapen_AOT/AOT_stimuli/rescaled_final/0289_fw.mp4	0.0	307.71722745895386	1.0083954334259033
68	289.06835174560547	pulse	0	t		66.0	2.5	/experiments/Knapen_AOT/AOT_stimuli/rescaled_final/0289_fw.mp4	0.0	307.9006793498993	
68	289.89329528808594	movie	1		289	66.0	2.5	/experiments/Knapen_AOT/AOT_stimuli/rescaled_final/0289_fw.mp4	0.0	308.72562289237976	2.4920170307159424
68	290.6673698425293	pulse	1	t		66.0	2.5	/experiments/Knapen_AOT/AOT_stimuli/rescaled_final/0289_fw.mp4	0.0	309.4996974468231	
68	292.2671375274658	pulse	1	t		66.0	2.5	/experiments/Knapen_AOT/AOT_stimuli/rescaled_final/0289_fw.mp4	0.0	311.09946513175964	
68	292.3853123188019	fix_post	2		12	66.0	2.5	/experiments/Knapen_AOT/AOT_stimuli/rescaled_final/0289_fw.mp4	0.0	311.2176399230957	0.10002684593200684
69	292.4853391647339	fix_pre	0		120	67.0	2.5	/experiments/Knapen_AOT/AOT_stimuli/rescaled_final/0528_fw.mp4	0.0	311.3176667690277	1.0084888935089111
69	293.4938280582428	movie	1		277	67.0	2.5	/experiments/Knapen_AOT/AOT_stimuli/rescaled_final/0528_fw.mp4	0.0	312.3261556625366	2.4920248985290527
69	293.8673965930939	pulse	1	t		67.0	2.5	/experiments/Knapen_AOT/AOT_stimuli/rescaled_final/0528_fw.mp4	0.0	312.6997241973877	
69	295.4675374031067	pulse	1	t		67.0	2.5	/experiments/Knapen_AOT/AOT_stimuli/rescaled_final/0528_fw.mp4	0.0	314.2998650074005	
69	295.98585295677185	fix_post	2		12	67.0	2.5	/experiments/Knapen_AOT/AOT_stimuli/rescaled_final/0528_fw.mp4	0.0	314.8181805610657	0.10002613067626953
70	296.0858790874481	fix_pre	0		119	68.0	2.5	/experiments/Knapen_AOT/AOT_stimuli/rescaled_final/1737_rv.mp4	0.0	314.91820669174194	1.000129222869873
70	297.069620847702	pulse	0	t		68.0	2.5	/experiments/Knapen_AOT/AOT_stimuli/rescaled_final/1737_rv.mp4	0.0	315.90194845199585	
70	297.086008310318	movie	1		274	68.0	2.5	/experiments/Knapen_AOT/AOT_stimuli/rescaled_final/1737_rv.mp4	0.0	315.9183359146118	2.500396728515625
70	298.6683723926544	pulse	1	t		68.0	2.5	/experiments/Knapen_AOT/AOT_stimuli/rescaled_final/1737_rv.mp4	0.0	317.50069999694824	
70	299.5864050388336	fix_post	2		12	68.0	2.5	/experiments/Knapen_AOT/AOT_stimuli/rescaled_final/1737_rv.mp4	0.0	318.41873264312744	0.10000300407409668
71	299.6864080429077	fix_pre	0		120	69.0	2.5	/experiments/Knapen_AOT/AOT_stimuli/rescaled_final/0222_rv.mp4	0.0	318.51873564720154	1.0085136890411377
71	300.2701222896576	pulse	0	t		69.0	2.5	/experiments/Knapen_AOT/AOT_stimuli/rescaled_final/0222_rv.mp4	0.0	319.1024498939514	
71	300.69492173194885	movie	1		282	69.0	2.5	/experiments/Knapen_AOT/AOT_stimuli/rescaled_final/0222_rv.mp4	0.0	319.5272493362427	2.4920268058776855
71	301.8693091869354	pulse	1	t		69.0	2.5	/experiments/Knapen_AOT/AOT_stimuli/rescaled_final/0222_rv.mp4	0.0	320.70163679122925	
71	303.18694853782654	fix_post	2		12	69.0	2.5	/experiments/Knapen_AOT/AOT_stimuli/rescaled_final/0222_rv.mp4	0.0	322.01927614212036	0.10001897811889648
72	303.28696751594543	fix_pre	0		120	70.0	2.5	blank	1.0	322.11929512023926	1.0001683235168457
72	303.4705638885498	pulse	0	t		70.0	2.5	blank	1.0	322.3028914928436	
72	304.2871358394623	movie	1		300	70.0	2.5	blank	1.0	323.1194634437561	2.5003292560577393
72	305.07096576690674	pulse	1	t		70.0	2.5	blank	1.0	323.90329337120056	
72	306.67104387283325	pulse	1	t		70.0	2.5	blank	1.0	325.5033714771271	
72	306.78746509552	fix_post	2		12	70.0	2.5	blank	1.0	325.61979269981384	0.10002660751342773
73	306.88749170303345	fix_pre	0		120	71.0	2.5	/experiments/Knapen_AOT/AOT_stimuli/rescaled_final/1250_fw.mp4	0.0	325.71981930732727	1.0084481239318848
73	307.89593982696533	movie	1		289	71.0	2.5	/experiments/Knapen_AOT/AOT_stimuli/rescaled_final/1250_fw.mp4	0.0	326.72826743125916	2.4921395778656006
73	308.26977491378784	pulse	1	t		71.0	2.5	/experiments/Knapen_AOT/AOT_stimuli/rescaled_final/1250_fw.mp4	0.0	327.10210251808167	
73	309.8695213794708	pulse	1	t		71.0	2.5	/experiments/Knapen_AOT/AOT_stimuli/rescaled_final/1250_fw.mp4	0.0	328.70184898376465	
73	310.38807940483093	fix_post	2		12	71.0	2.5	/experiments/Knapen_AOT/AOT_stimuli/rescaled_final/1250_fw.mp4	0.0	329.22040700912476	0.09998798370361328
74	310.48806738853455	fix_pre	0		119	72.0	2.5	/experiments/Knapen_AOT/AOT_stimuli/rescaled_final/0877_rv.mp4	0.0	329.32039499282837	1.0001397132873535
74	311.4717392921448	pulse	0	t		72.0	2.5	/experiments/Knapen_AOT/AOT_stimuli/rescaled_final/0877_rv.mp4	0.0	330.3040668964386	
74	311.4882071018219	movie	1		280	72.0	2.5	/experiments/Knapen_AOT/AOT_stimuli/rescaled_final/0877_rv.mp4	0.0	330.3205347061157	2.5003461837768555
74	313.07033467292786	pulse	1	t		72.0	2.5	/experiments/Knapen_AOT/AOT_stimuli/rescaled_final/0877_rv.mp4	0.0	331.9026622772217	
74	313.98855328559875	fix_post	2		12	72.0	2.5	/experiments/Knapen_AOT/AOT_stimuli/rescaled_final/0877_rv.mp4	0.0	332.8208808898926	0.10003280639648438
75	314.08858609199524	fix_pre	0		120	73.0	2.5	/experiments/Knapen_AOT/AOT_stimuli/rescaled_final/0150_fw.mp4	0.0	332.92091369628906	1.0085270404815674
75	314.66459703445435	pulse	0	t		73.0	2.5	/experiments/Knapen_AOT/AOT_stimuli/rescaled_final/0150_fw.mp4	0.0	333.49692463874817	
75	315.0971131324768	movie	1		274	73.0	2.5	/experiments/Knapen_AOT/AOT_stimuli/rescaled_final/0150_fw.mp4	0.0	333.92944073677063	2.4919931888580322
75	316.27110838890076	pulse	1	t		73.0	2.5	/experiments/Knapen_AOT/AOT_stimuli/rescaled_final/0150_fw.mp4	0.0	335.1034359931946	
75	317.58910632133484	fix_post	2		12	73.0	2.5	/experiments/Knapen_AOT/AOT_stimuli/rescaled_final/0150_fw.mp4	0.0	336.42143392562866	0.09999799728393555
76	317.6891043186188	fix_pre	0		120	74.0	2.5	/experiments/Knapen_AOT/AOT_stimuli/rescaled_final/1766_fw.mp4	0.0	336.5214319229126	1.008521556854248
76	317.8646972179413	pulse	0	t		74.0	2.5	/experiments/Knapen_AOT/AOT_stimuli/rescaled_final/1766_fw.mp4	0.0	336.6970248222351	
76	318.697625875473	movie	1		264	74.0	2.5	/experiments/Knapen_AOT/AOT_stimuli/rescaled_final/1766_fw.mp4	0.0	337.52995347976685	2.492037296295166
76	319.46479511260986	pulse	1	t		74.0	2.5	/experiments/Knapen_AOT/AOT_stimuli/rescaled_final/1766_fw.mp4	0.0	338.2971227169037	
76	321.07110261917114	pulse	1	t		74.0	2.5	/experiments/Knapen_AOT/AOT_stimuli/rescaled_final/1766_fw.mp4	0.0	339.90343022346497	
76	321.1896631717682	fix_post	2		12	74.0	2.5	/experiments/Knapen_AOT/AOT_stimuli/rescaled_final/1766_fw.mp4	0.0	340.021990776062	0.1000068187713623
77	321.28966999053955	fix_pre	0		120	75.0	2.5	blank	1.0	340.1219975948334	1.0001225471496582
77	322.2897925376892	movie	1		300	75.0	2.5	blank	1.0	341.12212014198303	2.50039005279541
77	322.6654748916626	pulse	1	t		75.0	2.5	blank	1.0	341.4978024959564	
77	324.2656774520874	pulse	1	t		75.0	2.5	blank	1.0	343.0980050563812	
77	324.7901825904846	fix_post	2		12	75.0	2.5	blank	1.0	343.62251019477844	0.10001134872436523
78	324.890193939209	fix_pre	0		118	76.0	2.5	/experiments/Knapen_AOT/AOT_stimuli/rescaled_final/1794_rv.mp4	0.0	343.7225215435028	1.0002920627593994
78	325.8657212257385	pulse	0	t		76.0	2.5	/experiments/Knapen_AOT/AOT_stimuli/rescaled_final/1794_rv.mp4	0.0	344.69804883003235	
78	325.8904860019684	movie	1		257	76.0	2.5	/experiments/Knapen_AOT/AOT_stimuli/rescaled_final/1794_rv.mp4	0.0	344.7228136062622	2.4919097423553467
78	327.46605944633484	pulse	1	t		76.0	2.5	/experiments/Knapen_AOT/AOT_stimuli/rescaled_final/1794_rv.mp4	0.0	346.29838705062866	
78	328.38239574432373	fix_post	2		12	76.0	2.5	/experiments/Knapen_AOT/AOT_stimuli/rescaled_final/1794_rv.mp4	0.0	347.21472334861755	0.10000872611999512
79	328.4824044704437	fix_pre	0		120	77.0	2.5	/experiments/Knapen_AOT/AOT_stimuli/rescaled_final/0477_fw.mp4	0.0	347.31473207473755	1.0084805488586426
79	329.0660548210144	pulse	0	t		77.0	2.5	/experiments/Knapen_AOT/AOT_stimuli/rescaled_final/0477_fw.mp4	0.0	347.8983824253082	
79	329.49088501930237	movie	1		285	77.0	2.5	/experiments/Knapen_AOT/AOT_stimuli/rescaled_final/0477_fw.mp4	0.0	348.3232126235962	2.492039442062378
79	330.6651051044464	pulse	1	t		77.0	2.5	/experiments/Knapen_AOT/AOT_stimuli/rescaled_final/0477_fw.mp4	0.0	349.49743270874023	
79	331.98292446136475	fix_post	2		12	77.0	2.5	/experiments/Knapen_AOT/AOT_stimuli/rescaled_final/0477_fw.mp4	0.0	350.81525206565857	0.10001897811889648
80	332.08294343948364	fix_pre	0		120	78.0	2.5	/experiments/Knapen_AOT/AOT_stimuli/rescaled_final/1300_fw.mp4	0.0	350.91527104377747	1.0085413455963135
80	332.26674342155457	pulse	0	t		78.0	2.5	/experiments/Knapen_AOT/AOT_stimuli/rescaled_final/1300_fw.mp4	0.0	351.0990710258484	
80	333.09148478507996	movie	1		267	78.0	2.5	/experiments/Knapen_AOT/AOT_stimuli/rescaled_final/1300_fw.mp4	0.0	351.9238123893738	2.4920263290405273
80	333.86545729637146	pulse	1	t		78.0	2.5	/experiments/Knapen_AOT/AOT_stimuli/rescaled_final/1300_fw.mp4	0.0	352.6977849006653	
80	335.46507000923157	pulse	1	t		78.0	2.5	/experiments/Knapen_AOT/AOT_stimuli/rescaled_final/1300_fw.mp4	0.0	354.2973976135254	
80	335.5835111141205	fix_post	2		12	78.0	2.5	/experiments/Knapen_AOT/AOT_stimuli/rescaled_final/1300_fw.mp4	0.0	354.4158387184143	0.09998917579650879
81	335.683500289917	fix_pre	0		120	79.0	2.5	/experiments/Knapen_AOT/AOT_stimuli/rescaled_final/1239_fw.mp4	0.0	354.5158278942108	1.0085010528564453
81	336.69200134277344	movie	1		279	79.0	2.5	/experiments/Knapen_AOT/AOT_stimuli/rescaled_final/1239_fw.mp4	0.0	355.52432894706726	2.4920012950897217
81	337.0656633377075	pulse	1	t		79.0	2.5	/experiments/Knapen_AOT/AOT_stimuli/rescaled_final/1239_fw.mp4	0.0	355.89799094200134	
81	338.6655206680298	pulse	1	t		79.0	2.5	/experiments/Knapen_AOT/AOT_stimuli/rescaled_final/1239_fw.mp4	0.0	357.4978482723236	
81	339.18400263786316	fix_post	2		12	79.0	2.5	/experiments/Knapen_AOT/AOT_stimuli/rescaled_final/1239_fw.mp4	0.0	358.016330242157	0.10024571418762207
82	339.2842483520508	fix_pre	0		119	80.0	2.5	/experiments/Knapen_AOT/AOT_stimuli/rescaled_final/0125_rv.mp4	0.0	358.1165759563446	0.9998748302459717
82	340.26776361465454	pulse	0	t		80.0	2.5	/experiments/Knapen_AOT/AOT_stimuli/rescaled_final/0125_rv.mp4	0.0	359.10009121894836	
82	340.28412318229675	movie	1		282	80.0	2.5	/experiments/Knapen_AOT/AOT_stimuli/rescaled_final/0125_rv.mp4	0.0	359.1164507865906	2.5004706382751465
82	341.86820220947266	pulse	1	t		80.0	2.5	/experiments/Knapen_AOT/AOT_stimuli/rescaled_final/0125_rv.mp4	0.0	360.7005298137665	
82	342.7845938205719	fix_post	2		12	80.0	2.5	/experiments/Knapen_AOT/AOT_stimuli/rescaled_final/0125_rv.mp4	0.0	361.6169214248657	0.1000070571899414
83	342.88460087776184	fix_pre	0		120	81.0	2.5	/experiments/Knapen_AOT/AOT_stimuli/rescaled_final/1928_fw.mp4	0.0	361.71692848205566	1.008465051651001
83	343.468297958374	pulse	0	t		81.0	2.5	/experiments/Knapen_AOT/AOT_stimuli/rescaled_final/1928_fw.mp4	0.0	362.30062556266785	
83	343.89306592941284	movie	1		272	81.0	2.5	/experiments/Knapen_AOT/AOT_stimuli/rescaled_final/1928_fw.mp4	0.0	362.72539353370667	2.49202299118042
83	345.067355632782	pulse	1	t		81.0	2.5	/experiments/Knapen_AOT/AOT_stimuli/rescaled_final/1928_fw.mp4	0.0	363.8996832370758	
83	346.38508892059326	fix_post	2		12	81.0	2.5	/experiments/Knapen_AOT/AOT_stimuli/rescaled_final/1928_fw.mp4	0.0	365.2174165248871	0.10007286071777344
84	346.48516178131104	fix_pre	0		120	82.0	2.5	/experiments/Knapen_AOT/AOT_stimuli/rescaled_final/2072_fw.mp4	0.0	365.31748938560486	1.008533239364624
84	346.6686854362488	pulse	0	t		82.0	2.5	/experiments/Knapen_AOT/AOT_stimuli/rescaled_final/2072_fw.mp4	0.0	365.5010130405426	
84	347.49369502067566	movie	1		263	82.0	2.5	/experiments/Knapen_AOT/AOT_stimuli/rescaled_final/2072_fw.mp4	0.0	366.3260226249695	2.492025136947632
84	348.2672655582428	pulse	1	t		82.0	2.5	/experiments/Knapen_AOT/AOT_stimuli/rescaled_final/2072_fw.mp4	0.0	367.0995931625366	
84	349.8674330711365	pulse	1	t		82.0	2.5	/experiments/Knapen_AOT/AOT_stimuli/rescaled_final/2072_fw.mp4	0.0	368.6997606754303	
84	349.9857201576233	fix_post	2		12	82.0	2.5	/experiments/Knapen_AOT/AOT_stimuli/rescaled_final/2072_fw.mp4	0.0	368.8180477619171	0.09998178482055664
85	350.08570194244385	fix_pre	0		120	83.0	2.5	blank	1.0	368.91802954673767	1.0000841617584229
85	351.08578610420227	movie	1		300	83.0	2.5	blank	1.0	369.9181137084961	2.500382423400879
85	351.4694414138794	pulse	1	t		83.0	2.5	blank	1.0	370.3017690181732	
85	353.06983041763306	pulse	1	t		83.0	2.5	blank	1.0	371.9021580219269	
85	353.58616852760315	fix_post	2		12	83.0	2.5	blank	1.0	372.418496131897	0.12507057189941406
87	353.71123909950256	stim	0		1712					372.5435667037964	14.268773078918457
87	354.6699266433716	pulse	0	t						373.5022542476654	
87	356.2701721191406	pulse	0	t						375.10249972343445	
87	357.8703680038452	pulse	0	t						376.70269560813904	
87	359.4707520008087	pulse	0	t						378.30307960510254	
87	361.07124638557434	pulse	0	t						379.90357398986816	
87	362.67110323905945	pulse	0	t						381.50343084335327	
87	364.2714190483093	pulse	0	t						383.10374665260315	
87	365.86392760276794	pulse	0	t						384.69625520706177	
87	367.4640762805939	pulse	0	t						386.2964038848877	
