trial_nr	onset	event_type	phase	response	nr_frames	movie_index	movie_duration	movie_file	blank	onset_abs	duration
0	0.20828580856323242	stim	0		16					22.625748872756958	0.13323116302490234
0	0.32628297805786133	response	0	space						22.743746042251587	
1	0.34151697158813477	stim	0		4912					22.75898003578186	40.94844102859497
1	41.28040289878845	pulse	0	t						63.69786596298218	
1	41.289958000183105	stim	1		1716					63.70742106437683	14.30150294303894
1	42.87307286262512	pulse	1	t						65.29053592681885	
1	44.47336196899414	pulse	1	t						66.89082503318787	
1	46.07363200187683	pulse	1	t						68.49109506607056	
1	47.67380690574646	pulse	1	t						70.09126996994019	
1	49.27403783798218	pulse	1	t						71.6915009021759	
1	50.87426400184631	pulse	1	t						73.29172706604004	
1	52.47457981109619	pulse	1	t						74.89204287528992	
1	54.07479786872864	pulse	1	t						76.49226093292236	
2	55.591460943222046	fix_pre	0		11	0.0	2.5	/experiments/knapen_AOT/AOT_stimuli/rescaled_final/1191_rv.mp4	0.0	78.00892400741577	0.10850191116333008
2	55.67500400543213	pulse	0	t		0.0	2.5	/experiments/knapen_AOT/AOT_stimuli/rescaled_final/1191_rv.mp4	0.0	78.09246706962585	
2	55.699962854385376	movie	1		243	0.0	2.5	/experiments/knapen_AOT/AOT_stimuli/rescaled_final/1191_rv.mp4	0.0	78.1174259185791	2.4919190406799316
2	57.275694847106934	pulse	1	t		0.0	2.5	/experiments/knapen_AOT/AOT_stimuli/rescaled_final/1191_rv.mp4	0.0	79.69315791130066	
2	58.19188189506531	fix_post	2		12	0.0	2.5	/experiments/knapen_AOT/AOT_stimuli/rescaled_final/1191_rv.mp4	0.0	80.60934495925903	0.09996414184570312
3	58.29184603691101	fix_pre	0		120	1.0	2.5	/experiments/knapen_AOT/AOT_stimuli/rescaled_final/0075_rv.mp4	0.0	80.70930910110474	1.0001389980316162
3	58.8755898475647	pulse	0	t		1.0	2.5	/experiments/knapen_AOT/AOT_stimuli/rescaled_final/0075_rv.mp4	0.0	81.29305291175842	
3	59.29198503494263	movie	1		244	1.0	2.5	/experiments/knapen_AOT/AOT_stimuli/rescaled_final/0075_rv.mp4	0.0	81.70944809913635	2.5004239082336426
3	60.47588396072388	pulse	1	t		1.0	2.5	/experiments/knapen_AOT/AOT_stimuli/rescaled_final/0075_rv.mp4	0.0	82.8933470249176	
3	61.79240894317627	fix_post	2		12	1.0	2.5	/experiments/knapen_AOT/AOT_stimuli/rescaled_final/0075_rv.mp4	0.0	84.20987200737	0.10002994537353516
4	61.892438888549805	fix_pre	0		120	2.0	2.5	/experiments/knapen_AOT/AOT_stimuli/rescaled_final/0468_rv.mp4	0.0	84.30990195274353	1.000148057937622
4	62.0760018825531	pulse	0	t		2.0	2.5	/experiments/knapen_AOT/AOT_stimuli/rescaled_final/0468_rv.mp4	0.0	84.49346494674683	
4	62.89258694648743	movie	1		245	2.0	2.5	/experiments/knapen_AOT/AOT_stimuli/rescaled_final/0468_rv.mp4	0.0	85.31005001068115	2.5003390312194824
4	63.676146030426025	pulse	1	t		2.0	2.5	/experiments/knapen_AOT/AOT_stimuli/rescaled_final/0468_rv.mp4	0.0	86.09360909461975	
4	65.27384781837463	pulse	1	t		2.0	2.5	/experiments/knapen_AOT/AOT_stimuli/rescaled_final/0468_rv.mp4	0.0	87.69131088256836	
4	65.39292597770691	fix_post	2		12	2.0	2.5	/experiments/knapen_AOT/AOT_stimuli/rescaled_final/0468_rv.mp4	0.0	87.81038904190063	0.10000085830688477
5	65.4929268360138	fix_pre	0		119	3.0	2.5	/experiments/knapen_AOT/AOT_stimuli/rescaled_final/0973_rv.mp4	0.0	87.91038990020752	0.991814136505127
5	66.48474097251892	movie	1		244	3.0	2.5	/experiments/knapen_AOT/AOT_stimuli/rescaled_final/0973_rv.mp4	0.0	88.90220403671265	2.5003418922424316
5	66.87687587738037	pulse	1	t		3.0	2.5	/experiments/knapen_AOT/AOT_stimuli/rescaled_final/0973_rv.mp4	0.0	89.2943389415741	
5	68.47700190544128	pulse	1	t		3.0	2.5	/experiments/knapen_AOT/AOT_stimuli/rescaled_final/0973_rv.mp4	0.0	90.89446496963501	
5	68.98508286476135	fix_post	2		12	3.0	2.5	/experiments/knapen_AOT/AOT_stimuli/rescaled_final/0973_rv.mp4	0.0	91.40254592895508	0.10008907318115234
6	69.0851719379425	fix_pre	0		120	4.0	2.5	/experiments/knapen_AOT/AOT_stimuli/rescaled_final/1334_fw.mp4	0.0	91.50263500213623	1.0001599788665771
6	70.07715392112732	pulse	0	t		4.0	2.5	/experiments/knapen_AOT/AOT_stimuli/rescaled_final/1334_fw.mp4	0.0	92.49461698532104	
6	70.08533191680908	movie	1		245	4.0	2.5	/experiments/knapen_AOT/AOT_stimuli/rescaled_final/1334_fw.mp4	0.0	92.50279498100281	2.5086240768432617
6	71.6786618232727	pulse	1	t		4.0	2.5	/experiments/knapen_AOT/AOT_stimuli/rescaled_final/1334_fw.mp4	0.0	94.09612488746643	
6	72.59395599365234	fix_post	2		12	4.0	2.5	/experiments/knapen_AOT/AOT_stimuli/rescaled_final/1334_fw.mp4	0.0	95.01141905784607	0.10007882118225098
7	72.6940348148346	fix_pre	0		120	5.0	2.5	/experiments/knapen_AOT/AOT_stimuli/rescaled_final/1306_fw.mp4	0.0	95.11149787902832	1.0001192092895508
7	73.27005982398987	pulse	0	t		5.0	2.5	/experiments/knapen_AOT/AOT_stimuli/rescaled_final/1306_fw.mp4	0.0	95.6875228881836	
7	73.69415402412415	movie	1		244	5.0	2.5	/experiments/knapen_AOT/AOT_stimuli/rescaled_final/1306_fw.mp4	0.0	96.11161708831787	2.5004329681396484
7	74.87045788764954	pulse	1	t		5.0	2.5	/experiments/knapen_AOT/AOT_stimuli/rescaled_final/1306_fw.mp4	0.0	97.28792095184326	
7	76.1945869922638	fix_post	2		12	5.0	2.5	/experiments/knapen_AOT/AOT_stimuli/rescaled_final/1306_fw.mp4	0.0	98.61205005645752	0.09993886947631836
8	76.29452586174011	fix_pre	0		120	6.0	2.5	blank	1.0	98.71198892593384	1.0001580715179443
8	76.47054481506348	pulse	0	t		6.0	2.5	blank	1.0	98.8880078792572	
8	77.29468393325806	movie	1		300	6.0	2.5	blank	1.0	99.71214699745178	2.500377893447876
8	78.07072401046753	pulse	1	t		6.0	2.5	blank	1.0	100.48818707466125	
8	79.67014288902283	pulse	1	t		6.0	2.5	blank	1.0	102.08760595321655	
8	79.79506182670593	fix_post	2		12	6.0	2.5	blank	1.0	102.21252489089966	0.10004806518554688
9	79.89510989189148	fix_pre	0		119	7.0	2.5	/experiments/knapen_AOT/AOT_stimuli/rescaled_final/1846_rv.mp4	0.0	102.3125729560852	0.9917559623718262
9	80.8868658542633	movie	1		244	7.0	2.5	/experiments/knapen_AOT/AOT_stimuli/rescaled_final/1846_rv.mp4	0.0	103.30432891845703	2.500385046005249
9	81.27101588249207	pulse	1	t		7.0	2.5	/experiments/knapen_AOT/AOT_stimuli/rescaled_final/1846_rv.mp4	0.0	103.68847894668579	
9	82.8708918094635	pulse	1	t		7.0	2.5	/experiments/knapen_AOT/AOT_stimuli/rescaled_final/1846_rv.mp4	0.0	105.28835487365723	
9	83.38725090026855	fix_post	2		12	7.0	2.5	/experiments/knapen_AOT/AOT_stimuli/rescaled_final/1846_rv.mp4	0.0	105.80471396446228	0.10003209114074707
10	83.4872829914093	fix_pre	0		119	8.0	2.5	/experiments/knapen_AOT/AOT_stimuli/rescaled_final/1228_rv.mp4	0.0	105.90474605560303	0.9918198585510254
10	84.47102785110474	pulse	0	t		8.0	2.5	/experiments/knapen_AOT/AOT_stimuli/rescaled_final/1228_rv.mp4	0.0	106.88849091529846	
10	84.47910284996033	movie	1		245	8.0	2.5	/experiments/knapen_AOT/AOT_stimuli/rescaled_final/1228_rv.mp4	0.0	106.89656591415405	2.5087521076202393
10	86.07189202308655	pulse	1	t		8.0	2.5	/experiments/knapen_AOT/AOT_stimuli/rescaled_final/1228_rv.mp4	0.0	108.48935508728027	
10	86.98785495758057	fix_post	2		12	8.0	2.5	/experiments/knapen_AOT/AOT_stimuli/rescaled_final/1228_rv.mp4	0.0	109.40531802177429	0.09994697570800781
11	87.08780193328857	fix_pre	0		120	9.0	2.5	/experiments/knapen_AOT/AOT_stimuli/rescaled_final/2145_fw.mp4	0.0	109.5052649974823	1.0001590251922607
11	87.67141485214233	pulse	0	t		9.0	2.5	/experiments/knapen_AOT/AOT_stimuli/rescaled_final/2145_fw.mp4	0.0	110.08887791633606	
11	88.08796095848083	movie	1		245	9.0	2.5	/experiments/knapen_AOT/AOT_stimuli/rescaled_final/2145_fw.mp4	0.0	110.50542402267456	2.5003418922424316
11	89.27174091339111	pulse	1	t		9.0	2.5	/experiments/knapen_AOT/AOT_stimuli/rescaled_final/2145_fw.mp4	0.0	111.68920397758484	
11	90.58830285072327	fix_post	2		12	9.0	2.5	/experiments/knapen_AOT/AOT_stimuli/rescaled_final/2145_fw.mp4	0.0	113.00576591491699	0.10008811950683594
12	90.6883909702301	fix_pre	0		120	10.0	2.5	/experiments/knapen_AOT/AOT_stimuli/rescaled_final/0165_rv.mp4	0.0	113.10585403442383	1.0001099109649658
12	90.87187385559082	pulse	0	t		10.0	2.5	/experiments/knapen_AOT/AOT_stimuli/rescaled_final/0165_rv.mp4	0.0	113.28933691978455	
12	91.68850088119507	movie	1		243	10.0	2.5	/experiments/knapen_AOT/AOT_stimuli/rescaled_final/0165_rv.mp4	0.0	114.1059639453888	2.500386953353882
12	92.47213387489319	pulse	1	t		10.0	2.5	/experiments/knapen_AOT/AOT_stimuli/rescaled_final/0165_rv.mp4	0.0	114.88959693908691	
12	94.07215595245361	pulse	1	t		10.0	2.5	/experiments/knapen_AOT/AOT_stimuli/rescaled_final/0165_rv.mp4	0.0	116.48961901664734	
12	94.18888783454895	fix_post	2		12	10.0	2.5	/experiments/knapen_AOT/AOT_stimuli/rescaled_final/0165_rv.mp4	0.0	116.60635089874268	0.09998798370361328
13	94.28887581825256	fix_pre	0		120	11.0	2.5	/experiments/knapen_AOT/AOT_stimuli/rescaled_final/1497_fw.mp4	0.0	116.70633888244629	1.0001540184020996
13	95.28902983665466	movie	1		244	11.0	2.5	/experiments/knapen_AOT/AOT_stimuli/rescaled_final/1497_fw.mp4	0.0	117.70649290084839	2.492058038711548
13	95.67323398590088	pulse	1	t		11.0	2.5	/experiments/knapen_AOT/AOT_stimuli/rescaled_final/1497_fw.mp4	0.0	118.0906970500946	
13	97.27285981178284	pulse	1	t		11.0	2.5	/experiments/knapen_AOT/AOT_stimuli/rescaled_final/1497_fw.mp4	0.0	119.69032287597656	
13	97.78108787536621	fix_post	2		12	11.0	2.5	/experiments/knapen_AOT/AOT_stimuli/rescaled_final/1497_fw.mp4	0.0	120.19855093955994	0.0999760627746582
14	97.88106393814087	fix_pre	0		120	12.0	2.5	/experiments/knapen_AOT/AOT_stimuli/rescaled_final/0173_rv.mp4	0.0	120.2985270023346	1.0001909732818604
14	98.87310194969177	pulse	0	t		12.0	2.5	/experiments/knapen_AOT/AOT_stimuli/rescaled_final/0173_rv.mp4	0.0	121.2905650138855	
14	98.88125491142273	movie	1		246	12.0	2.5	/experiments/knapen_AOT/AOT_stimuli/rescaled_final/0173_rv.mp4	0.0	121.29871797561646	2.508678913116455
14	100.4739978313446	pulse	1	t		12.0	2.5	/experiments/knapen_AOT/AOT_stimuli/rescaled_final/0173_rv.mp4	0.0	122.89146089553833	
14	101.38993382453918	fix_post	2		12	12.0	2.5	/experiments/knapen_AOT/AOT_stimuli/rescaled_final/0173_rv.mp4	0.0	123.80739688873291	0.10001015663146973
15	101.48994398117065	fix_pre	0		120	13.0	2.5	blank	1.0	123.90740704536438	1.0001819133758545
15	102.07355189323425	pulse	0	t		13.0	2.5	blank	1.0	124.49101495742798	
15	102.49012589454651	movie	1		300	13.0	2.5	blank	1.0	124.90758895874023	2.500438928604126
15	103.67394495010376	pulse	1	t		13.0	2.5	blank	1.0	126.09140801429749	
15	104.99056482315063	fix_post	2		12	13.0	2.5	blank	1.0	127.40802788734436	0.09993219375610352
16	105.09049701690674	fix_pre	0		118	14.0	2.5	/experiments/knapen_AOT/AOT_stimuli/rescaled_final/1764_fw.mp4	0.0	127.50796008110046	1.0001440048217773
16	105.27407002449036	pulse	0	t		14.0	2.5	/experiments/knapen_AOT/AOT_stimuli/rescaled_final/1764_fw.mp4	0.0	127.69153308868408	
16	106.09064102172852	movie	1		245	14.0	2.5	/experiments/knapen_AOT/AOT_stimuli/rescaled_final/1764_fw.mp4	0.0	128.50810408592224	2.500432014465332
16	106.87429094314575	pulse	1	t		14.0	2.5	/experiments/knapen_AOT/AOT_stimuli/rescaled_final/1764_fw.mp4	0.0	129.29175400733948	
16	108.47206902503967	pulse	1	t		14.0	2.5	/experiments/knapen_AOT/AOT_stimuli/rescaled_final/1764_fw.mp4	0.0	130.8895320892334	
16	108.59107303619385	fix_post	2		12	14.0	2.5	/experiments/knapen_AOT/AOT_stimuli/rescaled_final/1764_fw.mp4	0.0	131.00853610038757	0.09995889663696289
17	108.69103193283081	fix_pre	0		120	15.0	2.5	/experiments/knapen_AOT/AOT_stimuli/rescaled_final/0672_rv.mp4	0.0	131.10849499702454	1.0001740455627441
17	109.69120597839355	movie	1		243	15.0	2.5	/experiments/knapen_AOT/AOT_stimuli/rescaled_final/0672_rv.mp4	0.0	132.10866904258728	2.4920690059661865
17	110.07529497146606	pulse	1	t		15.0	2.5	/experiments/knapen_AOT/AOT_stimuli/rescaled_final/0672_rv.mp4	0.0	132.4927580356598	
17	111.67498302459717	pulse	1	t		15.0	2.5	/experiments/knapen_AOT/AOT_stimuli/rescaled_final/0672_rv.mp4	0.0	134.0924460887909	
17	112.18327498435974	fix_post	2		12	15.0	2.5	/experiments/knapen_AOT/AOT_stimuli/rescaled_final/0672_rv.mp4	0.0	134.60073804855347	0.09996700286865234
18	112.2832419872284	fix_pre	0		120	16.0	2.5	/experiments/knapen_AOT/AOT_stimuli/rescaled_final/0123_fw.mp4	0.0	134.70070505142212	1.0001590251922607
18	113.27521800994873	pulse	0	t		16.0	2.5	/experiments/knapen_AOT/AOT_stimuli/rescaled_final/0123_fw.mp4	0.0	135.69268107414246	
18	113.28340101242065	movie	1		245	16.0	2.5	/experiments/knapen_AOT/AOT_stimuli/rescaled_final/0123_fw.mp4	0.0	135.70086407661438	2.5086939334869385
18	114.87696385383606	pulse	1	t		16.0	2.5	/experiments/knapen_AOT/AOT_stimuli/rescaled_final/0123_fw.mp4	0.0	137.29442691802979	
18	115.79209494590759	fix_post	2		12	16.0	2.5	/experiments/knapen_AOT/AOT_stimuli/rescaled_final/0123_fw.mp4	0.0	138.20955801010132	0.09999489784240723
19	115.89208984375	fix_pre	0		120	17.0	2.5	/experiments/knapen_AOT/AOT_stimuli/rescaled_final/2134_fw.mp4	0.0	138.30955290794373	1.0002350807189941
19	116.47579383850098	pulse	0	t		17.0	2.5	/experiments/knapen_AOT/AOT_stimuli/rescaled_final/2134_fw.mp4	0.0	138.8932569026947	
19	116.892324924469	movie	1		245	17.0	2.5	/experiments/knapen_AOT/AOT_stimuli/rescaled_final/2134_fw.mp4	0.0	139.30978798866272	2.500335931777954
19	118.07608985900879	pulse	1	t		17.0	2.5	/experiments/knapen_AOT/AOT_stimuli/rescaled_final/2134_fw.mp4	0.0	140.49355292320251	
19	119.39266085624695	fix_post	2		12	17.0	2.5	/experiments/knapen_AOT/AOT_stimuli/rescaled_final/2134_fw.mp4	0.0	141.81012392044067	0.0999910831451416
20	119.49265193939209	fix_pre	0		120	18.0	2.5	/experiments/knapen_AOT/AOT_stimuli/rescaled_final/0075_fw.mp4	0.0	141.91011500358582	1.0001649856567383
20	119.67624688148499	pulse	0	t		18.0	2.5	/experiments/knapen_AOT/AOT_stimuli/rescaled_final/0075_fw.mp4	0.0	142.0937099456787	
20	120.49281692504883	movie	1		245	18.0	2.5	/experiments/knapen_AOT/AOT_stimuli/rescaled_final/0075_fw.mp4	0.0	142.91027998924255	2.500339984893799
20	121.27656602859497	pulse	1	t		18.0	2.5	/experiments/knapen_AOT/AOT_stimuli/rescaled_final/0075_fw.mp4	0.0	143.6940290927887	
20	122.87679195404053	pulse	1	t		18.0	2.5	/experiments/knapen_AOT/AOT_stimuli/rescaled_final/0075_fw.mp4	0.0	145.29425501823425	
20	122.99315690994263	fix_post	2		12	18.0	2.5	/experiments/knapen_AOT/AOT_stimuli/rescaled_final/0075_fw.mp4	0.0	145.41061997413635	0.10002493858337402
21	123.093181848526	fix_pre	0		120	19.0	2.5	/experiments/knapen_AOT/AOT_stimuli/rescaled_final/1385_rv.mp4	0.0	145.51064491271973	1.0001471042633057
21	124.0933289527893	movie	1		244	19.0	2.5	/experiments/knapen_AOT/AOT_stimuli/rescaled_final/1385_rv.mp4	0.0	146.51079201698303	2.492081880569458
21	124.48127889633179	pulse	1	t		19.0	2.5	/experiments/knapen_AOT/AOT_stimuli/rescaled_final/1385_rv.mp4	0.0	146.8987419605255	
21	126.06984090805054	pulse	1	t		19.0	2.5	/experiments/knapen_AOT/AOT_stimuli/rescaled_final/1385_rv.mp4	0.0	148.48730397224426	
21	126.58541083335876	fix_post	2		12	19.0	2.5	/experiments/knapen_AOT/AOT_stimuli/rescaled_final/1385_rv.mp4	0.0	149.0028738975525	0.10001516342163086
22	126.6854259967804	fix_pre	0		120	20.0	2.5	blank	1.0	149.10288906097412	1.0001888275146484
22	127.66989994049072	pulse	0	t		20.0	2.5	blank	1.0	150.08736300468445	
22	127.68561482429504	movie	1		301	20.0	2.5	blank	1.0	150.10307788848877	2.5086851119995117
22	129.27026295661926	pulse	1	t		20.0	2.5	blank	1.0	151.687726020813	
22	130.19429993629456	fix_post	2		12	20.0	2.5	blank	1.0	152.61176300048828	0.09998798370361328
23	130.29428791999817	fix_pre	0		120	21.0	2.5	/experiments/knapen_AOT/AOT_stimuli/rescaled_final/2066_rv.mp4	0.0	152.7117509841919	1.000201940536499
23	130.87033200263977	pulse	0	t		21.0	2.5	/experiments/knapen_AOT/AOT_stimuli/rescaled_final/2066_rv.mp4	0.0	153.2877950668335	
23	131.29448986053467	movie	1		243	21.0	2.5	/experiments/knapen_AOT/AOT_stimuli/rescaled_final/2066_rv.mp4	0.0	153.7119529247284	2.500354051589966
23	132.47030901908875	pulse	1	t		21.0	2.5	/experiments/knapen_AOT/AOT_stimuli/rescaled_final/2066_rv.mp4	0.0	154.88777208328247	
23	133.79484391212463	fix_post	2		12	21.0	2.5	/experiments/knapen_AOT/AOT_stimuli/rescaled_final/2066_rv.mp4	0.0	156.21230697631836	0.09998011589050293
24	133.89482402801514	fix_pre	0		120	22.0	2.5	/experiments/knapen_AOT/AOT_stimuli/rescaled_final/1441_fw.mp4	0.0	156.31228709220886	1.00016188621521
24	134.069993019104	pulse	0	t		22.0	2.5	/experiments/knapen_AOT/AOT_stimuli/rescaled_final/1441_fw.mp4	0.0	156.48745608329773	
24	134.89498591423035	movie	1		244	22.0	2.5	/experiments/knapen_AOT/AOT_stimuli/rescaled_final/1441_fw.mp4	0.0	157.31244897842407	2.500396966934204
24	135.67024993896484	pulse	1	t		22.0	2.5	/experiments/knapen_AOT/AOT_stimuli/rescaled_final/1441_fw.mp4	0.0	158.08771300315857	
24	137.2705729007721	pulse	1	t		22.0	2.5	/experiments/knapen_AOT/AOT_stimuli/rescaled_final/1441_fw.mp4	0.0	159.68803596496582	
24	137.39538288116455	fix_post	2		12	22.0	2.5	/experiments/knapen_AOT/AOT_stimuli/rescaled_final/1441_fw.mp4	0.0	159.81284594535828	0.09997010231018066
25	137.49535298347473	fix_pre	0		120	23.0	2.5	/experiments/knapen_AOT/AOT_stimuli/rescaled_final/2177_rv.mp4	0.0	159.91281604766846	1.0001628398895264
25	138.49551582336426	movie	1		244	23.0	2.5	/experiments/knapen_AOT/AOT_stimuli/rescaled_final/2177_rv.mp4	0.0	160.91297888755798	2.492056131362915
25	138.87082600593567	pulse	1	t		23.0	2.5	/experiments/knapen_AOT/AOT_stimuli/rescaled_final/2177_rv.mp4	0.0	161.2882890701294	
25	140.4711618423462	pulse	1	t		23.0	2.5	/experiments/knapen_AOT/AOT_stimuli/rescaled_final/2177_rv.mp4	0.0	162.88862490653992	
25	140.98757195472717	fix_post	2		12	23.0	2.5	/experiments/knapen_AOT/AOT_stimuli/rescaled_final/2177_rv.mp4	0.0	163.4050350189209	0.10002589225769043
26	141.08759784698486	fix_pre	0		119	24.0	2.5	/experiments/knapen_AOT/AOT_stimuli/rescaled_final/2062_fw.mp4	0.0	163.5050609111786	0.9917809963226318
26	142.07122492790222	pulse	0	t		24.0	2.5	/experiments/knapen_AOT/AOT_stimuli/rescaled_final/2062_fw.mp4	0.0	164.48868799209595	
26	142.0793788433075	movie	1		245	24.0	2.5	/experiments/knapen_AOT/AOT_stimuli/rescaled_final/2062_fw.mp4	0.0	164.49684190750122	2.5087690353393555
26	143.67284297943115	pulse	1	t		24.0	2.5	/experiments/knapen_AOT/AOT_stimuli/rescaled_final/2062_fw.mp4	0.0	166.09030604362488	
26	144.58814787864685	fix_post	2		12	24.0	2.5	/experiments/knapen_AOT/AOT_stimuli/rescaled_final/2062_fw.mp4	0.0	167.00561094284058	0.09995794296264648
27	144.6881058216095	fix_pre	0		120	25.0	2.5	/experiments/knapen_AOT/AOT_stimuli/rescaled_final/0453_fw.mp4	0.0	167.10556888580322	1.000176191329956
27	145.2718448638916	pulse	0	t		25.0	2.5	/experiments/knapen_AOT/AOT_stimuli/rescaled_final/0453_fw.mp4	0.0	167.68930792808533	
27	145.68828201293945	movie	1		245	25.0	2.5	/experiments/knapen_AOT/AOT_stimuli/rescaled_final/0453_fw.mp4	0.0	168.10574507713318	2.500455856323242
27	146.87208580970764	pulse	1	t		25.0	2.5	/experiments/knapen_AOT/AOT_stimuli/rescaled_final/0453_fw.mp4	0.0	169.28954887390137	
27	148.1887378692627	fix_post	2		12	25.0	2.5	/experiments/knapen_AOT/AOT_stimuli/rescaled_final/0453_fw.mp4	0.0	170.60620093345642	0.09990596771240234
28	148.2886438369751	fix_pre	0		120	26.0	2.5	blank	1.0	170.70610690116882	1.0001530647277832
28	148.47216391563416	pulse	0	t		26.0	2.5	blank	1.0	170.88962697982788	
28	149.28879690170288	movie	1		300	26.0	2.5	blank	1.0	171.7062599658966	2.5008370876312256
28	150.07254695892334	pulse	1	t		26.0	2.5	blank	1.0	172.49001002311707	
28	151.67262887954712	pulse	1	t		26.0	2.5	blank	1.0	174.09009194374084	
28	151.7896339893341	fix_post	2		12	26.0	2.5	blank	1.0	174.20709705352783	0.09954690933227539
29	151.88918089866638	fix_pre	0		119	27.0	2.5	/experiments/knapen_AOT/AOT_stimuli/rescaled_final/0503_rv.mp4	0.0	174.3066439628601	0.991832971572876
29	152.88101387023926	movie	1		245	27.0	2.5	/experiments/knapen_AOT/AOT_stimuli/rescaled_final/0503_rv.mp4	0.0	175.29847693443298	2.500385046005249
29	153.27300000190735	pulse	1	t		27.0	2.5	/experiments/knapen_AOT/AOT_stimuli/rescaled_final/0503_rv.mp4	0.0	175.69046306610107	
29	154.8731620311737	pulse	1	t		27.0	2.5	/experiments/knapen_AOT/AOT_stimuli/rescaled_final/0503_rv.mp4	0.0	177.29062509536743	
29	155.3813989162445	fix_post	2		12	27.0	2.5	/experiments/knapen_AOT/AOT_stimuli/rescaled_final/0503_rv.mp4	0.0	177.79886198043823	0.09997892379760742
30	155.48137784004211	fix_pre	0		120	28.0	2.5	/experiments/knapen_AOT/AOT_stimuli/rescaled_final/0675_fw.mp4	0.0	177.89884090423584	1.0001640319824219
30	156.47348403930664	pulse	0	t		28.0	2.5	/experiments/knapen_AOT/AOT_stimuli/rescaled_final/0675_fw.mp4	0.0	178.89094710350037	
30	156.48154187202454	movie	1		245	28.0	2.5	/experiments/knapen_AOT/AOT_stimuli/rescaled_final/0675_fw.mp4	0.0	178.89900493621826	2.5087971687316895
30	158.07824397087097	pulse	1	t		28.0	2.5	/experiments/knapen_AOT/AOT_stimuli/rescaled_final/0675_fw.mp4	0.0	180.4957070350647	
30	158.99033904075623	fix_post	2		12	28.0	2.5	/experiments/knapen_AOT/AOT_stimuli/rescaled_final/0675_fw.mp4	0.0	181.40780210494995	0.09990787506103516
31	159.09024691581726	fix_pre	0		117	29.0	2.5	/experiments/knapen_AOT/AOT_stimuli/rescaled_final/1608_fw.mp4	0.0	181.507709980011	1.0001740455627441
31	159.67404985427856	pulse	0	t		29.0	2.5	/experiments/knapen_AOT/AOT_stimuli/rescaled_final/1608_fw.mp4	0.0	182.0915129184723	
31	160.09042096138	movie	1		245	29.0	2.5	/experiments/knapen_AOT/AOT_stimuli/rescaled_final/1608_fw.mp4	0.0	182.50788402557373	2.50044584274292
31	161.27422881126404	pulse	1	t		29.0	2.5	/experiments/knapen_AOT/AOT_stimuli/rescaled_final/1608_fw.mp4	0.0	183.69169187545776	
31	162.59086680412292	fix_post	2		12	29.0	2.5	/experiments/knapen_AOT/AOT_stimuli/rescaled_final/1608_fw.mp4	0.0	185.00832986831665	0.09995007514953613
32	162.69081687927246	fix_pre	0		120	30.0	2.5	/experiments/knapen_AOT/AOT_stimuli/rescaled_final/0816_rv.mp4	0.0	185.1082799434662	1.0001709461212158
32	162.87435698509216	pulse	0	t		30.0	2.5	/experiments/knapen_AOT/AOT_stimuli/rescaled_final/0816_rv.mp4	0.0	185.2918200492859	
32	163.69098782539368	movie	1		244	30.0	2.5	/experiments/knapen_AOT/AOT_stimuli/rescaled_final/0816_rv.mp4	0.0	186.1084508895874	2.5003621578216553
32	164.47472095489502	pulse	1	t		30.0	2.5	/experiments/knapen_AOT/AOT_stimuli/rescaled_final/0816_rv.mp4	0.0	186.89218401908875	
32	166.07502603530884	pulse	1	t		30.0	2.5	/experiments/knapen_AOT/AOT_stimuli/rescaled_final/0816_rv.mp4	0.0	188.49248909950256	
32	166.19134998321533	fix_post	2		12	30.0	2.5	/experiments/knapen_AOT/AOT_stimuli/rescaled_final/0816_rv.mp4	0.0	188.60881304740906	0.10001492500305176
33	166.29136490821838	fix_pre	0		120	31.0	2.5	/experiments/knapen_AOT/AOT_stimuli/rescaled_final/1228_fw.mp4	0.0	188.7088279724121	1.000157117843628
33	167.291522026062	movie	1		243	31.0	2.5	/experiments/knapen_AOT/AOT_stimuli/rescaled_final/1228_fw.mp4	0.0	189.70898509025574	2.4921069145202637
33	167.67578601837158	pulse	1	t		31.0	2.5	/experiments/knapen_AOT/AOT_stimuli/rescaled_final/1228_fw.mp4	0.0	190.0932490825653	
33	169.27532291412354	pulse	1	t		31.0	2.5	/experiments/knapen_AOT/AOT_stimuli/rescaled_final/1228_fw.mp4	0.0	191.69278597831726	
33	169.78362894058228	fix_post	2		12	31.0	2.5	/experiments/knapen_AOT/AOT_stimuli/rescaled_final/1228_fw.mp4	0.0	192.201092004776	0.09988903999328613
34	169.88351798057556	fix_pre	0		120	32.0	2.5	/experiments/knapen_AOT/AOT_stimuli/rescaled_final/0489_rv.mp4	0.0	192.3009810447693	1.0002529621124268
34	170.87562799453735	pulse	0	t		32.0	2.5	/experiments/knapen_AOT/AOT_stimuli/rescaled_final/0489_rv.mp4	0.0	193.29309105873108	
34	170.883770942688	movie	1		246	32.0	2.5	/experiments/knapen_AOT/AOT_stimuli/rescaled_final/0489_rv.mp4	0.0	193.3012340068817	2.5086569786071777
34	172.4764199256897	pulse	1	t		32.0	2.5	/experiments/knapen_AOT/AOT_stimuli/rescaled_final/0489_rv.mp4	0.0	194.89388298988342	
34	173.39242792129517	fix_post	2		12	32.0	2.5	/experiments/knapen_AOT/AOT_stimuli/rescaled_final/0489_rv.mp4	0.0	195.8098909854889	0.09997010231018066
35	173.49239802360535	fix_pre	0		120	33.0	2.5	blank	1.0	195.90986108779907	1.0002059936523438
35	174.07606601715088	pulse	0	t		33.0	2.5	blank	1.0	196.4935290813446	
35	174.4926040172577	movie	1		300	33.0	2.5	blank	1.0	196.91006708145142	2.50038480758667
35	175.67628383636475	pulse	1	t		33.0	2.5	blank	1.0	198.09374690055847	
35	176.99298882484436	fix_post	2		12	33.0	2.5	blank	1.0	199.4104518890381	0.09998607635498047
36	177.09297490119934	fix_pre	0		120	34.0	2.5	/experiments/knapen_AOT/AOT_stimuli/rescaled_final/0051_fw.mp4	0.0	199.51043796539307	1.0001499652862549
36	177.276526927948	pulse	0	t		34.0	2.5	/experiments/knapen_AOT/AOT_stimuli/rescaled_final/0051_fw.mp4	0.0	199.69398999214172	
36	178.0931248664856	movie	1		245	34.0	2.5	/experiments/knapen_AOT/AOT_stimuli/rescaled_final/0051_fw.mp4	0.0	200.51058793067932	2.500499963760376
36	178.8768618106842	pulse	1	t		34.0	2.5	/experiments/knapen_AOT/AOT_stimuli/rescaled_final/0051_fw.mp4	0.0	201.29432487487793	
36	180.4771330356598	pulse	1	t		34.0	2.5	/experiments/knapen_AOT/AOT_stimuli/rescaled_final/0051_fw.mp4	0.0	202.89459609985352	
36	180.59362483024597	fix_post	2		12	34.0	2.5	/experiments/knapen_AOT/AOT_stimuli/rescaled_final/0051_fw.mp4	0.0	203.0110878944397	0.09985017776489258
37	180.69347500801086	fix_pre	0		120	35.0	2.5	/experiments/knapen_AOT/AOT_stimuli/rescaled_final/0348_rv.mp4	0.0	203.1109380722046	1.0002110004425049
37	181.69368600845337	movie	1		243	35.0	2.5	/experiments/knapen_AOT/AOT_stimuli/rescaled_final/0348_rv.mp4	0.0	204.1111490726471	2.4921069145202637
37	182.0820758342743	pulse	1	t		35.0	2.5	/experiments/knapen_AOT/AOT_stimuli/rescaled_final/0348_rv.mp4	0.0	204.49953889846802	
37	183.670254945755	pulse	1	t		35.0	2.5	/experiments/knapen_AOT/AOT_stimuli/rescaled_final/0348_rv.mp4	0.0	206.08771800994873	
37	184.18579292297363	fix_post	2		12	35.0	2.5	/experiments/knapen_AOT/AOT_stimuli/rescaled_final/0348_rv.mp4	0.0	206.60325598716736	0.0999760627746582
38	184.2857689857483	fix_pre	0		120	36.0	2.5	/experiments/knapen_AOT/AOT_stimuli/rescaled_final/1225_fw.mp4	0.0	206.70323204994202	1.0001039505004883
38	185.27040886878967	pulse	0	t		36.0	2.5	/experiments/knapen_AOT/AOT_stimuli/rescaled_final/1225_fw.mp4	0.0	207.6878719329834	
38	185.28587293624878	movie	1		246	36.0	2.5	/experiments/knapen_AOT/AOT_stimuli/rescaled_final/1225_fw.mp4	0.0	207.7033360004425	2.508711099624634
38	186.87870001792908	pulse	1	t		36.0	2.5	/experiments/knapen_AOT/AOT_stimuli/rescaled_final/1225_fw.mp4	0.0	209.2961630821228	
38	187.7945840358734	fix_post	2		12	36.0	2.5	/experiments/knapen_AOT/AOT_stimuli/rescaled_final/1225_fw.mp4	0.0	210.21204710006714	0.10000991821289062
39	187.8945939540863	fix_pre	0		120	37.0	2.5	/experiments/knapen_AOT/AOT_stimuli/rescaled_final/0019_rv.mp4	0.0	210.31205701828003	1.0002079010009766
39	188.47073888778687	pulse	0	t		37.0	2.5	/experiments/knapen_AOT/AOT_stimuli/rescaled_final/0019_rv.mp4	0.0	210.8882019519806	
39	188.89480185508728	movie	1		245	37.0	2.5	/experiments/knapen_AOT/AOT_stimuli/rescaled_final/0019_rv.mp4	0.0	211.312264919281	2.5003299713134766
39	190.0706868171692	pulse	1	t		37.0	2.5	/experiments/knapen_AOT/AOT_stimuli/rescaled_final/0019_rv.mp4	0.0	212.48814988136292	
39	191.39513182640076	fix_post	2		12	37.0	2.5	/experiments/knapen_AOT/AOT_stimuli/rescaled_final/0019_rv.mp4	0.0	213.81259489059448	0.10002398490905762
40	191.49515581130981	fix_pre	0		120	38.0	2.5	/experiments/knapen_AOT/AOT_stimuli/rescaled_final/0800_rv.mp4	0.0	213.91261887550354	1.0002470016479492
40	191.67048001289368	pulse	0	t		38.0	2.5	/experiments/knapen_AOT/AOT_stimuli/rescaled_final/0800_rv.mp4	0.0	214.0879430770874	
40	192.49540281295776	movie	1		245	38.0	2.5	/experiments/knapen_AOT/AOT_stimuli/rescaled_final/0800_rv.mp4	0.0	214.9128658771515	2.500312089920044
40	193.27053785324097	pulse	1	t		38.0	2.5	/experiments/knapen_AOT/AOT_stimuli/rescaled_final/0800_rv.mp4	0.0	215.6880009174347	
40	194.8708028793335	pulse	1	t		38.0	2.5	/experiments/knapen_AOT/AOT_stimuli/rescaled_final/0800_rv.mp4	0.0	217.28826594352722	
40	194.9957149028778	fix_post	2		12	38.0	2.5	/experiments/knapen_AOT/AOT_stimuli/rescaled_final/0800_rv.mp4	0.0	217.41317796707153	0.09992504119873047
41	195.09563994407654	fix_pre	0		119	39.0	2.5	/experiments/knapen_AOT/AOT_stimuli/rescaled_final/0203_fw.mp4	0.0	217.51310300827026	0.9918830394744873
41	196.08752298355103	movie	1		245	39.0	2.5	/experiments/knapen_AOT/AOT_stimuli/rescaled_final/0203_fw.mp4	0.0	218.50498604774475	2.500335931777954
41	196.47146892547607	pulse	1	t		39.0	2.5	/experiments/knapen_AOT/AOT_stimuli/rescaled_final/0203_fw.mp4	0.0	218.8889319896698	
41	198.0713369846344	pulse	1	t		39.0	2.5	/experiments/knapen_AOT/AOT_stimuli/rescaled_final/0203_fw.mp4	0.0	220.48880004882812	
41	198.58785891532898	fix_post	2		12	39.0	2.5	/experiments/knapen_AOT/AOT_stimuli/rescaled_final/0203_fw.mp4	0.0	221.0053219795227	0.10003399848937988
42	198.68789291381836	fix_pre	0		119	40.0	2.5	blank	1.0	221.10535597801208	0.9918069839477539
42	199.67163681983948	pulse	0	t		40.0	2.5	blank	1.0	222.0890998840332	
42	199.6796998977661	movie	1		301	40.0	2.5	blank	1.0	222.09716296195984	2.5087220668792725
42	201.27182388305664	pulse	1	t		40.0	2.5	blank	1.0	223.68928694725037	
42	202.18842196464539	fix_post	2		12	40.0	2.5	blank	1.0	224.6058850288391	0.09998607635498047
43	202.28840804100037	fix_pre	0		120	41.0	2.5	/experiments/knapen_AOT/AOT_stimuli/rescaled_final/0786_fw.mp4	0.0	224.7058711051941	1.0001988410949707
43	202.8720920085907	pulse	0	t		41.0	2.5	/experiments/knapen_AOT/AOT_stimuli/rescaled_final/0786_fw.mp4	0.0	225.28955507278442	
43	203.28860688209534	movie	1		245	41.0	2.5	/experiments/knapen_AOT/AOT_stimuli/rescaled_final/0786_fw.mp4	0.0	225.70606994628906	2.5003621578216553
43	204.47234201431274	pulse	1	t		41.0	2.5	/experiments/knapen_AOT/AOT_stimuli/rescaled_final/0786_fw.mp4	0.0	226.88980507850647	
43	205.788969039917	fix_post	2		12	41.0	2.5	/experiments/knapen_AOT/AOT_stimuli/rescaled_final/0786_fw.mp4	0.0	228.20643210411072	0.09998798370361328
44	205.8889570236206	fix_pre	0		120	42.0	2.5	/experiments/knapen_AOT/AOT_stimuli/rescaled_final/0990_fw.mp4	0.0	228.30642008781433	1.0002038478851318
44	206.07257890701294	pulse	0	t		42.0	2.5	/experiments/knapen_AOT/AOT_stimuli/rescaled_final/0990_fw.mp4	0.0	228.49004197120667	
44	206.88916087150574	movie	1		244	42.0	2.5	/experiments/knapen_AOT/AOT_stimuli/rescaled_final/0990_fw.mp4	0.0	229.30662393569946	2.5003581047058105
44	207.67284989356995	pulse	1	t		42.0	2.5	/experiments/knapen_AOT/AOT_stimuli/rescaled_final/0990_fw.mp4	0.0	230.09031295776367	
44	209.27307081222534	pulse	1	t		42.0	2.5	/experiments/knapen_AOT/AOT_stimuli/rescaled_final/0990_fw.mp4	0.0	231.69053387641907	
44	209.38951897621155	fix_post	2		12	42.0	2.5	/experiments/knapen_AOT/AOT_stimuli/rescaled_final/0990_fw.mp4	0.0	231.80698204040527	0.09998703002929688
45	209.48950600624084	fix_pre	0		120	43.0	2.5	/experiments/knapen_AOT/AOT_stimuli/rescaled_final/0076_rv.mp4	0.0	231.90696907043457	1.0001308917999268
45	210.48963689804077	movie	1		244	43.0	2.5	/experiments/knapen_AOT/AOT_stimuli/rescaled_final/0076_rv.mp4	0.0	232.9070999622345	2.492093086242676
45	210.87373185157776	pulse	1	t		43.0	2.5	/experiments/knapen_AOT/AOT_stimuli/rescaled_final/0076_rv.mp4	0.0	233.29119491577148	
45	212.47360682487488	pulse	1	t		43.0	2.5	/experiments/knapen_AOT/AOT_stimuli/rescaled_final/0076_rv.mp4	0.0	234.8910698890686	
45	212.98172998428345	fix_post	2		12	43.0	2.5	/experiments/knapen_AOT/AOT_stimuli/rescaled_final/0076_rv.mp4	0.0	235.39919304847717	0.09999799728393555
46	213.08172798156738	fix_pre	0		120	44.0	2.5	/experiments/knapen_AOT/AOT_stimuli/rescaled_final/1648_rv.mp4	0.0	235.4991910457611	1.0001318454742432
46	214.07379484176636	pulse	0	t		44.0	2.5	/experiments/knapen_AOT/AOT_stimuli/rescaled_final/1648_rv.mp4	0.0	236.49125790596008	
46	214.08185982704163	movie	1		245	44.0	2.5	/experiments/knapen_AOT/AOT_stimuli/rescaled_final/1648_rv.mp4	0.0	236.49932289123535	2.508716106414795
46	215.67460083961487	pulse	1	t		44.0	2.5	/experiments/knapen_AOT/AOT_stimuli/rescaled_final/1648_rv.mp4	0.0	238.0920639038086	
46	216.59057593345642	fix_post	2		12	44.0	2.5	/experiments/knapen_AOT/AOT_stimuli/rescaled_final/1648_rv.mp4	0.0	239.00803899765015	0.10004806518554688
47	216.69062399864197	fix_pre	0		120	45.0	2.5	/experiments/knapen_AOT/AOT_stimuli/rescaled_final/1155_fw.mp4	0.0	239.1080870628357	1.000152826309204
47	217.27417588233948	pulse	0	t		45.0	2.5	/experiments/knapen_AOT/AOT_stimuli/rescaled_final/1155_fw.mp4	0.0	239.6916389465332	
47	217.69077682495117	movie	1		245	45.0	2.5	/experiments/knapen_AOT/AOT_stimuli/rescaled_final/1155_fw.mp4	0.0	240.1082398891449	2.500369071960449
47	218.87461590766907	pulse	1	t		45.0	2.5	/experiments/knapen_AOT/AOT_stimuli/rescaled_final/1155_fw.mp4	0.0	241.2920789718628	
47	220.19114589691162	fix_post	2		12	45.0	2.5	/experiments/knapen_AOT/AOT_stimuli/rescaled_final/1155_fw.mp4	0.0	242.60860896110535	0.099945068359375
48	220.291090965271	fix_pre	0		120	46.0	2.5	/experiments/knapen_AOT/AOT_stimuli/rescaled_final/0591_rv.mp4	0.0	242.70855402946472	1.0002150535583496
48	220.47478795051575	pulse	0	t		46.0	2.5	/experiments/knapen_AOT/AOT_stimuli/rescaled_final/0591_rv.mp4	0.0	242.89225101470947	
48	221.29130601882935	movie	1		244	46.0	2.5	/experiments/knapen_AOT/AOT_stimuli/rescaled_final/0591_rv.mp4	0.0	243.70876908302307	2.500454902648926
48	222.07493782043457	pulse	1	t		46.0	2.5	/experiments/knapen_AOT/AOT_stimuli/rescaled_final/0591_rv.mp4	0.0	244.4924008846283	
48	223.6750988960266	pulse	1	t		46.0	2.5	/experiments/knapen_AOT/AOT_stimuli/rescaled_final/0591_rv.mp4	0.0	246.09256196022034	
48	223.79176092147827	fix_post	2		12	46.0	2.5	/experiments/knapen_AOT/AOT_stimuli/rescaled_final/0591_rv.mp4	0.0	246.209223985672	0.09991598129272461
49	223.891676902771	fix_pre	0		120	47.0	2.5	/experiments/knapen_AOT/AOT_stimuli/rescaled_final/1584_fw.mp4	0.0	246.30913996696472	1.000136137008667
49	224.89181303977966	movie	1		244	47.0	2.5	/experiments/knapen_AOT/AOT_stimuli/rescaled_final/1584_fw.mp4	0.0	247.3092761039734	2.4922618865966797
49	225.27645683288574	pulse	1	t		47.0	2.5	/experiments/knapen_AOT/AOT_stimuli/rescaled_final/1584_fw.mp4	0.0	247.69391989707947	
49	226.87572598457336	pulse	1	t		47.0	2.5	/experiments/knapen_AOT/AOT_stimuli/rescaled_final/1584_fw.mp4	0.0	249.2931890487671	
49	227.38407492637634	fix_post	2		11	47.0	2.5	/experiments/knapen_AOT/AOT_stimuli/rescaled_final/1584_fw.mp4	0.0	249.80153799057007	0.09978199005126953
50	227.4838569164276	fix_pre	0		120	48.0	2.5	/experiments/knapen_AOT/AOT_stimuli/rescaled_final/0075_rv.mp4	0.0	249.90131998062134	1.000143051147461
50	228.47592186927795	pulse	0	t		48.0	2.5	/experiments/knapen_AOT/AOT_stimuli/rescaled_final/0075_rv.mp4	0.0	250.89338493347168	
50	228.48399996757507	movie	1		245	48.0	2.5	/experiments/knapen_AOT/AOT_stimuli/rescaled_final/0075_rv.mp4	0.0	250.9014630317688	2.5088000297546387
50	230.07657504081726	pulse	1	t		48.0	2.5	/experiments/knapen_AOT/AOT_stimuli/rescaled_final/0075_rv.mp4	0.0	252.494038105011	
50	230.9927999973297	fix_post	2		12	48.0	2.5	/experiments/knapen_AOT/AOT_stimuli/rescaled_final/0075_rv.mp4	0.0	253.41026306152344	0.09993100166320801
51	231.09273099899292	fix_pre	0		120	49.0	2.5	blank	1.0	253.51019406318665	1.0001778602600098
51	231.67642998695374	pulse	0	t		49.0	2.5	blank	1.0	254.09389305114746	
51	232.09290885925293	movie	1		300	49.0	2.5	blank	1.0	254.51037192344666	2.50040602684021
51	233.27667593955994	pulse	1	t		49.0	2.5	blank	1.0	255.69413900375366	
51	234.59331488609314	fix_post	2		12	49.0	2.5	blank	1.0	257.01077795028687	0.09994006156921387
52	234.69325494766235	fix_pre	0		120	50.0	2.5	/experiments/knapen_AOT/AOT_stimuli/rescaled_final/1149_fw.mp4	0.0	257.1107180118561	1.0002388954162598
52	234.87696480751038	pulse	0	t		50.0	2.5	/experiments/knapen_AOT/AOT_stimuli/rescaled_final/1149_fw.mp4	0.0	257.2944278717041	
52	235.6934938430786	movie	1		244	50.0	2.5	/experiments/knapen_AOT/AOT_stimuli/rescaled_final/1149_fw.mp4	0.0	258.11095690727234	2.500322103500366
52	236.47708702087402	pulse	1	t		50.0	2.5	/experiments/knapen_AOT/AOT_stimuli/rescaled_final/1149_fw.mp4	0.0	258.89455008506775	
52	238.07738304138184	pulse	1	t		50.0	2.5	/experiments/knapen_AOT/AOT_stimuli/rescaled_final/1149_fw.mp4	0.0	260.49484610557556	
52	238.19381594657898	fix_post	2		12	50.0	2.5	/experiments/knapen_AOT/AOT_stimuli/rescaled_final/1149_fw.mp4	0.0	260.6112790107727	0.10001492500305176
53	238.29383087158203	fix_pre	0		120	51.0	2.5	/experiments/knapen_AOT/AOT_stimuli/rescaled_final/1698_fw.mp4	0.0	260.71129393577576	1.0001370906829834
53	239.29396796226501	movie	1		243	51.0	2.5	/experiments/knapen_AOT/AOT_stimuli/rescaled_final/1698_fw.mp4	0.0	261.71143102645874	2.492063045501709
53	239.67803192138672	pulse	1	t		51.0	2.5	/experiments/knapen_AOT/AOT_stimuli/rescaled_final/1698_fw.mp4	0.0	262.09549498558044	
53	241.27050685882568	pulse	1	t		51.0	2.5	/experiments/knapen_AOT/AOT_stimuli/rescaled_final/1698_fw.mp4	0.0	263.6879699230194	
53	241.78603100776672	fix_post	2		12	51.0	2.5	/experiments/knapen_AOT/AOT_stimuli/rescaled_final/1698_fw.mp4	0.0	264.20349407196045	0.09998703002929688
54	241.88601803779602	fix_pre	0		120	52.0	2.5	/experiments/knapen_AOT/AOT_stimuli/rescaled_final/1453_fw.mp4	0.0	264.30348110198975	1.0002009868621826
54	242.870600938797	pulse	0	t		52.0	2.5	/experiments/knapen_AOT/AOT_stimuli/rescaled_final/1453_fw.mp4	0.0	265.2880640029907	
54	242.8862190246582	movie	1		246	52.0	2.5	/experiments/knapen_AOT/AOT_stimuli/rescaled_final/1453_fw.mp4	0.0	265.30368208885193	2.508694887161255
54	244.4787678718567	pulse	1	t		52.0	2.5	/experiments/knapen_AOT/AOT_stimuli/rescaled_final/1453_fw.mp4	0.0	266.8962309360504	
54	245.39491391181946	fix_post	2		12	52.0	2.5	/experiments/knapen_AOT/AOT_stimuli/rescaled_final/1453_fw.mp4	0.0	267.8123769760132	0.10000300407409668
55	245.49491691589355	fix_pre	0		120	53.0	2.5	/experiments/knapen_AOT/AOT_stimuli/rescaled_final/1194_fw.mp4	0.0	267.9123799800873	1.0001659393310547
55	246.07032203674316	pulse	0	t		53.0	2.5	/experiments/knapen_AOT/AOT_stimuli/rescaled_final/1194_fw.mp4	0.0	268.4877851009369	
55	246.4950828552246	movie	1		248	53.0	2.5	/experiments/knapen_AOT/AOT_stimuli/rescaled_final/1194_fw.mp4	0.0	268.91254591941833	2.500364065170288
55	247.6709499359131	pulse	1	t		53.0	2.5	/experiments/knapen_AOT/AOT_stimuli/rescaled_final/1194_fw.mp4	0.0	270.0884130001068	
55	248.9954469203949	fix_post	2		12	53.0	2.5	/experiments/knapen_AOT/AOT_stimuli/rescaled_final/1194_fw.mp4	0.0	271.4129099845886	0.10002803802490234
56	249.0954749584198	fix_pre	0		120	54.0	2.5	/experiments/knapen_AOT/AOT_stimuli/rescaled_final/1414_fw.mp4	0.0	271.5129380226135	1.0001440048217773
56	249.27071595191956	pulse	0	t		54.0	2.5	/experiments/knapen_AOT/AOT_stimuli/rescaled_final/1414_fw.mp4	0.0	271.6881790161133	
56	250.09561896324158	movie	1		244	54.0	2.5	/experiments/knapen_AOT/AOT_stimuli/rescaled_final/1414_fw.mp4	0.0	272.5130820274353	2.50039005279541
56	250.87100100517273	pulse	1	t		54.0	2.5	/experiments/knapen_AOT/AOT_stimuli/rescaled_final/1414_fw.mp4	0.0	273.28846406936646	
56	252.4710988998413	pulse	1	t		54.0	2.5	/experiments/knapen_AOT/AOT_stimuli/rescaled_final/1414_fw.mp4	0.0	274.88856196403503	
56	252.596009016037	fix_post	2		12	54.0	2.5	/experiments/knapen_AOT/AOT_stimuli/rescaled_final/1414_fw.mp4	0.0	275.0134720802307	0.10009193420410156
57	252.6961009502411	fix_pre	0		119	55.0	2.5	/experiments/knapen_AOT/AOT_stimuli/rescaled_final/0591_fw.mp4	0.0	275.1135640144348	0.9917500019073486
57	253.68785095214844	movie	1		244	55.0	2.5	/experiments/knapen_AOT/AOT_stimuli/rescaled_final/0591_fw.mp4	0.0	276.10531401634216	2.5003299713134766
57	254.07193398475647	pulse	1	t		55.0	2.5	/experiments/knapen_AOT/AOT_stimuli/rescaled_final/0591_fw.mp4	0.0	276.4893970489502	
57	255.67165398597717	pulse	1	t		55.0	2.5	/experiments/knapen_AOT/AOT_stimuli/rescaled_final/0591_fw.mp4	0.0	278.0891170501709	
57	256.1881809234619	fix_post	2		12	55.0	2.5	/experiments/knapen_AOT/AOT_stimuli/rescaled_final/0591_fw.mp4	0.0	278.60564398765564	0.0999910831451416
58	256.28817200660706	fix_pre	0		119	56.0	2.5	blank	1.0	278.7056350708008	0.9918348789215088
58	257.27185893058777	pulse	0	t		56.0	2.5	blank	1.0	279.6893219947815	
58	257.28000688552856	movie	1		301	56.0	2.5	blank	1.0	279.6974699497223	2.5087170600891113
58	258.87207102775574	pulse	1	t		56.0	2.5	blank	1.0	281.28953409194946	
58	259.7887239456177	fix_post	2		12	56.0	2.5	blank	1.0	282.2061870098114	0.10001087188720703
59	259.8887348175049	fix_pre	0		120	57.0	2.5	/experiments/knapen_AOT/AOT_stimuli/rescaled_final/0980_fw.mp4	0.0	282.3061978816986	1.0001261234283447
59	260.47231793403625	pulse	0	t		57.0	2.5	/experiments/knapen_AOT/AOT_stimuli/rescaled_final/0980_fw.mp4	0.0	282.88978099823	
59	260.8888609409332	movie	1		244	57.0	2.5	/experiments/knapen_AOT/AOT_stimuli/rescaled_final/0980_fw.mp4	0.0	283.30632400512695	2.5003769397735596
59	262.07265400886536	pulse	1	t		57.0	2.5	/experiments/knapen_AOT/AOT_stimuli/rescaled_final/0980_fw.mp4	0.0	284.4901170730591	
59	263.3892378807068	fix_post	2		12	57.0	2.5	/experiments/knapen_AOT/AOT_stimuli/rescaled_final/0980_fw.mp4	0.0	285.8067009449005	0.10001492500305176
60	263.48925280570984	fix_pre	0		120	58.0	2.5	/experiments/knapen_AOT/AOT_stimuli/rescaled_final/2062_rv.mp4	0.0	285.90671586990356	1.0001590251922607
60	263.67285799980164	pulse	0	t		58.0	2.5	/experiments/knapen_AOT/AOT_stimuli/rescaled_final/2062_rv.mp4	0.0	286.09032106399536	
60	264.4894118309021	movie	1		244	58.0	2.5	/experiments/knapen_AOT/AOT_stimuli/rescaled_final/2062_rv.mp4	0.0	286.9068748950958	2.5004241466522217
60	265.2730498313904	pulse	1	t		58.0	2.5	/experiments/knapen_AOT/AOT_stimuli/rescaled_final/2062_rv.mp4	0.0	287.6905128955841	
60	266.8732240200043	pulse	1	t		58.0	2.5	/experiments/knapen_AOT/AOT_stimuli/rescaled_final/2062_rv.mp4	0.0	289.290687084198	
60	266.9898359775543	fix_post	2		12	58.0	2.5	/experiments/knapen_AOT/AOT_stimuli/rescaled_final/2062_rv.mp4	0.0	289.40729904174805	0.0999598503112793
61	267.0897958278656	fix_pre	0		120	59.0	2.5	/experiments/knapen_AOT/AOT_stimuli/rescaled_final/1349_rv.mp4	0.0	289.5072588920593	1.0001740455627441
61	268.08996987342834	movie	1		244	59.0	2.5	/experiments/knapen_AOT/AOT_stimuli/rescaled_final/1349_rv.mp4	0.0	290.50743293762207	2.492037057876587
61	268.4741358757019	pulse	1	t		59.0	2.5	/experiments/knapen_AOT/AOT_stimuli/rescaled_final/1349_rv.mp4	0.0	290.89159893989563	
61	270.0737979412079	pulse	1	t		59.0	2.5	/experiments/knapen_AOT/AOT_stimuli/rescaled_final/1349_rv.mp4	0.0	292.4912610054016	
61	270.58200693130493	fix_post	2		12	59.0	2.5	/experiments/knapen_AOT/AOT_stimuli/rescaled_final/1349_rv.mp4	0.0	292.99946999549866	0.09998893737792969
62	270.68199586868286	fix_pre	0		120	60.0	2.5	/experiments/knapen_AOT/AOT_stimuli/rescaled_final/0342_rv.mp4	0.0	293.0994589328766	1.00018310546875
62	271.67404103279114	pulse	0	t		60.0	2.5	/experiments/knapen_AOT/AOT_stimuli/rescaled_final/0342_rv.mp4	0.0	294.09150409698486	
62	271.6821789741516	movie	1		246	60.0	2.5	/experiments/knapen_AOT/AOT_stimuli/rescaled_final/0342_rv.mp4	0.0	294.09964203834534	2.5087318420410156
62	273.27519702911377	pulse	1	t		60.0	2.5	/experiments/knapen_AOT/AOT_stimuli/rescaled_final/0342_rv.mp4	0.0	295.6926600933075	
62	274.1909108161926	fix_post	2		12	60.0	2.5	/experiments/knapen_AOT/AOT_stimuli/rescaled_final/0342_rv.mp4	0.0	296.60837388038635	0.0999751091003418
63	274.29088592529297	fix_pre	0		120	61.0	2.5	/experiments/knapen_AOT/AOT_stimuli/rescaled_final/0680_fw.mp4	0.0	296.7083489894867	1.000169038772583
63	274.87455201148987	pulse	0	t		61.0	2.5	/experiments/knapen_AOT/AOT_stimuli/rescaled_final/0680_fw.mp4	0.0	297.2920150756836	
63	275.29105496406555	movie	1		244	61.0	2.5	/experiments/knapen_AOT/AOT_stimuli/rescaled_final/0680_fw.mp4	0.0	297.7085180282593	2.5003609657287598
63	276.47489285469055	pulse	1	t		61.0	2.5	/experiments/knapen_AOT/AOT_stimuli/rescaled_final/0680_fw.mp4	0.0	298.8923559188843	
63	277.7914159297943	fix_post	2		12	61.0	2.5	/experiments/knapen_AOT/AOT_stimuli/rescaled_final/0680_fw.mp4	0.0	300.20887899398804	0.09998393058776855
64	277.8913998603821	fix_pre	0		120	62.0	2.5	/experiments/knapen_AOT/AOT_stimuli/rescaled_final/1313_fw.mp4	0.0	300.3088629245758	1.0001649856567383
64	278.0750470161438	pulse	0	t		62.0	2.5	/experiments/knapen_AOT/AOT_stimuli/rescaled_final/1313_fw.mp4	0.0	300.4925100803375	
64	278.8915648460388	movie	1		244	62.0	2.5	/experiments/knapen_AOT/AOT_stimuli/rescaled_final/1313_fw.mp4	0.0	301.30902791023254	2.5003821849823
64	279.6752378940582	pulse	1	t		62.0	2.5	/experiments/knapen_AOT/AOT_stimuli/rescaled_final/1313_fw.mp4	0.0	302.09270095825195	
64	281.2755069732666	pulse	1	t		62.0	2.5	/experiments/knapen_AOT/AOT_stimuli/rescaled_final/1313_fw.mp4	0.0	303.6929700374603	
64	281.3919470310211	fix_post	2		12	62.0	2.5	/experiments/knapen_AOT/AOT_stimuli/rescaled_final/1313_fw.mp4	0.0	303.80941009521484	0.10001587867736816
65	281.4919629096985	fix_pre	0		120	63.0	2.5	blank	1.0	303.9094259738922	1.000190019607544
65	282.49215292930603	movie	1		299	63.0	2.5	blank	1.0	304.90961599349976	2.492037057876587
65	282.8757128715515	pulse	1	t		63.0	2.5	blank	1.0	305.29317593574524	
65	284.4759728908539	pulse	1	t		63.0	2.5	blank	1.0	306.8934359550476	
65	284.9841899871826	fix_post	2		12	63.0	2.5	blank	1.0	307.40165305137634	0.10001587867736816
66	285.08420586586	fix_pre	0		120	64.0	2.5	/experiments/knapen_AOT/AOT_stimuli/rescaled_final/1228_fw.mp4	0.0	307.5016689300537	1.0001649856567383
66	286.07617688179016	pulse	0	t		64.0	2.5	/experiments/knapen_AOT/AOT_stimuli/rescaled_final/1228_fw.mp4	0.0	308.4936399459839	
66	286.0843708515167	movie	1		245	64.0	2.5	/experiments/knapen_AOT/AOT_stimuli/rescaled_final/1228_fw.mp4	0.0	308.50183391571045	2.508679151535034
66	287.67785692214966	pulse	1	t		64.0	2.5	/experiments/knapen_AOT/AOT_stimuli/rescaled_final/1228_fw.mp4	0.0	310.0953199863434	
66	288.59305000305176	fix_post	2		12	64.0	2.5	/experiments/knapen_AOT/AOT_stimuli/rescaled_final/1228_fw.mp4	0.0	311.0105130672455	0.10116887092590332
67	288.69421887397766	fix_pre	0		118	65.0	2.5	/experiments/knapen_AOT/AOT_stimuli/rescaled_final/1497_rv.mp4	0.0	311.1116819381714	0.9990229606628418
67	289.27668499946594	pulse	0	t		65.0	2.5	/experiments/knapen_AOT/AOT_stimuli/rescaled_final/1497_rv.mp4	0.0	311.69414806365967	
67	289.6932418346405	movie	1		245	65.0	2.5	/experiments/knapen_AOT/AOT_stimuli/rescaled_final/1497_rv.mp4	0.0	312.11070489883423	2.5003790855407715
67	290.87317180633545	pulse	1	t		65.0	2.5	/experiments/knapen_AOT/AOT_stimuli/rescaled_final/1497_rv.mp4	0.0	313.2906348705292	
67	292.1936209201813	fix_post	2		12	65.0	2.5	/experiments/knapen_AOT/AOT_stimuli/rescaled_final/1497_rv.mp4	0.0	314.611083984375	0.09995198249816895
68	292.29357290267944	fix_pre	0		120	66.0	2.5	/experiments/knapen_AOT/AOT_stimuli/rescaled_final/0065_fw.mp4	0.0	314.71103596687317	1.0001769065856934
68	292.47711396217346	pulse	0	t		66.0	2.5	/experiments/knapen_AOT/AOT_stimuli/rescaled_final/0065_fw.mp4	0.0	314.8945770263672	
68	293.29374980926514	movie	1		245	66.0	2.5	/experiments/knapen_AOT/AOT_stimuli/rescaled_final/0065_fw.mp4	0.0	315.71121287345886	2.5003490447998047
68	294.07748889923096	pulse	1	t		66.0	2.5	/experiments/knapen_AOT/AOT_stimuli/rescaled_final/0065_fw.mp4	0.0	316.4949519634247	
68	295.6777539253235	pulse	1	t		66.0	2.5	/experiments/knapen_AOT/AOT_stimuli/rescaled_final/0065_fw.mp4	0.0	318.0952169895172	
68	295.79409885406494	fix_post	2		12	66.0	2.5	/experiments/knapen_AOT/AOT_stimuli/rescaled_final/0065_fw.mp4	0.0	318.21156191825867	0.10002517700195312
69	295.8941240310669	fix_pre	0		120	67.0	2.5	/experiments/knapen_AOT/AOT_stimuli/rescaled_final/1739_rv.mp4	0.0	318.3115870952606	1.000201940536499
69	296.8943259716034	movie	1		243	67.0	2.5	/experiments/knapen_AOT/AOT_stimuli/rescaled_final/1739_rv.mp4	0.0	319.3117890357971	2.4920248985290527
69	297.2783479690552	pulse	1	t		67.0	2.5	/experiments/knapen_AOT/AOT_stimuli/rescaled_final/1739_rv.mp4	0.0	319.6958110332489	
69	298.8708608150482	pulse	1	t		67.0	2.5	/experiments/knapen_AOT/AOT_stimuli/rescaled_final/1739_rv.mp4	0.0	321.28832387924194	
69	299.38635087013245	fix_post	2		12	67.0	2.5	/experiments/knapen_AOT/AOT_stimuli/rescaled_final/1739_rv.mp4	0.0	321.8038139343262	0.10003495216369629
70	299.48638582229614	fix_pre	0		120	68.0	2.5	/experiments/knapen_AOT/AOT_stimuli/rescaled_final/1155_rv.mp4	0.0	321.90384888648987	1.0001270771026611
70	300.47082781791687	pulse	0	t		68.0	2.5	/experiments/knapen_AOT/AOT_stimuli/rescaled_final/1155_rv.mp4	0.0	322.8882908821106	
70	300.4865128993988	movie	1		246	68.0	2.5	/experiments/knapen_AOT/AOT_stimuli/rescaled_final/1155_rv.mp4	0.0	322.90397596359253	2.5087051391601562
70	302.0792098045349	pulse	1	t		68.0	2.5	/experiments/knapen_AOT/AOT_stimuli/rescaled_final/1155_rv.mp4	0.0	324.49667286872864	
70	302.99521803855896	fix_post	2		12	68.0	2.5	/experiments/knapen_AOT/AOT_stimuli/rescaled_final/1155_rv.mp4	0.0	325.4126811027527	0.10000181198120117
71	303.09521985054016	fix_pre	0		120	69.0	2.5	blank	1.0	325.5126829147339	1.0001931190490723
71	303.67141103744507	pulse	0	t		69.0	2.5	blank	1.0	326.0888741016388	
71	304.09541296958923	movie	1		300	69.0	2.5	blank	1.0	326.51287603378296	2.500359058380127
71	305.27159690856934	pulse	1	t		69.0	2.5	blank	1.0	327.68905997276306	
71	306.59577202796936	fix_post	2		12	69.0	2.5	blank	1.0	329.0132350921631	0.1000068187713623
72	306.6957788467407	fix_pre	0		120	70.0	2.5	/experiments/knapen_AOT/AOT_stimuli/rescaled_final/0083_rv.mp4	0.0	329.11324191093445	1.000157117843628
72	306.8710868358612	pulse	0	t		70.0	2.5	/experiments/knapen_AOT/AOT_stimuli/rescaled_final/0083_rv.mp4	0.0	329.28854990005493	
72	307.69593596458435	movie	1		244	70.0	2.5	/experiments/knapen_AOT/AOT_stimuli/rescaled_final/0083_rv.mp4	0.0	330.1133990287781	2.500324010848999
72	308.47119092941284	pulse	1	t		70.0	2.5	/experiments/knapen_AOT/AOT_stimuli/rescaled_final/0083_rv.mp4	0.0	330.88865399360657	
72	310.07143998146057	pulse	1	t		70.0	2.5	/experiments/knapen_AOT/AOT_stimuli/rescaled_final/0083_rv.mp4	0.0	332.4889030456543	
72	310.19625997543335	fix_post	2		12	70.0	2.5	/experiments/knapen_AOT/AOT_stimuli/rescaled_final/0083_rv.mp4	0.0	332.6137230396271	0.1000359058380127
73	310.29629588127136	fix_pre	0		120	71.0	2.5	/experiments/knapen_AOT/AOT_stimuli/rescaled_final/1633_fw.mp4	0.0	332.7137589454651	1.0001630783081055
73	311.29645895957947	movie	1		244	71.0	2.5	/experiments/knapen_AOT/AOT_stimuli/rescaled_final/1633_fw.mp4	0.0	333.7139220237732	2.492060899734497
73	311.6716949939728	pulse	1	t		71.0	2.5	/experiments/knapen_AOT/AOT_stimuli/rescaled_final/1633_fw.mp4	0.0	334.0891580581665	
73	313.27203583717346	pulse	1	t		71.0	2.5	/experiments/knapen_AOT/AOT_stimuli/rescaled_final/1633_fw.mp4	0.0	335.6894989013672	
73	313.78851985931396	fix_post	2		12	71.0	2.5	/experiments/knapen_AOT/AOT_stimuli/rescaled_final/1633_fw.mp4	0.0	336.2059829235077	0.1001119613647461
74	313.8886318206787	fix_pre	0		119	72.0	2.5	/experiments/knapen_AOT/AOT_stimuli/rescaled_final/0786_fw.mp4	0.0	336.30609488487244	0.9917211532592773
74	314.87214183807373	pulse	0	t		72.0	2.5	/experiments/knapen_AOT/AOT_stimuli/rescaled_final/0786_fw.mp4	0.0	337.28960490226746	
74	314.880352973938	movie	1		246	72.0	2.5	/experiments/knapen_AOT/AOT_stimuli/rescaled_final/0786_fw.mp4	0.0	337.2978160381317	2.508699893951416
74	316.4728968143463	pulse	1	t		72.0	2.5	/experiments/knapen_AOT/AOT_stimuli/rescaled_final/0786_fw.mp4	0.0	338.89035987854004	
74	317.3890528678894	fix_post	2		12	72.0	2.5	/experiments/knapen_AOT/AOT_stimuli/rescaled_final/0786_fw.mp4	0.0	339.80651593208313	0.09997296333312988
75	317.48902583122253	fix_pre	0		120	73.0	2.5	/experiments/knapen_AOT/AOT_stimuli/rescaled_final/2145_fw.mp4	0.0	339.90648889541626	1.0001871585845947
75	318.07265400886536	pulse	0	t		73.0	2.5	/experiments/knapen_AOT/AOT_stimuli/rescaled_final/2145_fw.mp4	0.0	340.4901170730591	
75	318.48921298980713	movie	1		244	73.0	2.5	/experiments/knapen_AOT/AOT_stimuli/rescaled_final/2145_fw.mp4	0.0	340.90667605400085	2.5003678798675537
75	319.67299580574036	pulse	1	t		73.0	2.5	/experiments/knapen_AOT/AOT_stimuli/rescaled_final/2145_fw.mp4	0.0	342.0904588699341	
75	320.9895808696747	fix_post	2		12	73.0	2.5	/experiments/knapen_AOT/AOT_stimuli/rescaled_final/2145_fw.mp4	0.0	343.4070439338684	0.10000896453857422
76	321.08958983421326	fix_pre	0		120	74.0	2.5	/experiments/knapen_AOT/AOT_stimuli/rescaled_final/1233_rv.mp4	0.0	343.507052898407	1.0001721382141113
76	321.2730848789215	pulse	0	t		74.0	2.5	/experiments/knapen_AOT/AOT_stimuli/rescaled_final/1233_rv.mp4	0.0	343.69054794311523	
76	322.08976197242737	movie	1		244	74.0	2.5	/experiments/knapen_AOT/AOT_stimuli/rescaled_final/1233_rv.mp4	0.0	344.5072250366211	2.500380039215088
76	322.87346291542053	pulse	1	t		74.0	2.5	/experiments/knapen_AOT/AOT_stimuli/rescaled_final/1233_rv.mp4	0.0	345.29092597961426	
76	324.4736559391022	pulse	1	t		74.0	2.5	/experiments/knapen_AOT/AOT_stimuli/rescaled_final/1233_rv.mp4	0.0	346.8911190032959	
76	324.59014201164246	fix_post	2		12	74.0	2.5	/experiments/knapen_AOT/AOT_stimuli/rescaled_final/1233_rv.mp4	0.0	347.0076050758362	0.09997391700744629
77	324.6901159286499	fix_pre	0		119	75.0	2.5	blank	1.0	347.1075789928436	0.9918889999389648
77	325.68200492858887	movie	1		300	75.0	2.5	blank	1.0	348.0994679927826	2.5003089904785156
77	326.073930978775	pulse	1	t		75.0	2.5	blank	1.0	348.49139404296875	
77	327.6740698814392	pulse	1	t		75.0	2.5	blank	1.0	350.09153294563293	
77	328.1823139190674	fix_post	2		12	75.0	2.5	blank	1.0	350.5997769832611	0.09999489784240723
78	328.2823088169098	fix_pre	0		120	76.0	2.5	/experiments/knapen_AOT/AOT_stimuli/rescaled_final/1286_rv.mp4	0.0	350.6997718811035	1.000169038772583
78	329.27432584762573	pulse	0	t		76.0	2.5	/experiments/knapen_AOT/AOT_stimuli/rescaled_final/1286_rv.mp4	0.0	351.69178891181946	
78	329.2824778556824	movie	1		245	76.0	2.5	/experiments/knapen_AOT/AOT_stimuli/rescaled_final/1286_rv.mp4	0.0	351.6999409198761	2.5087571144104004
78	330.87561798095703	pulse	1	t		76.0	2.5	/experiments/knapen_AOT/AOT_stimuli/rescaled_final/1286_rv.mp4	0.0	353.29308104515076	
78	331.7912349700928	fix_post	2		12	76.0	2.5	/experiments/knapen_AOT/AOT_stimuli/rescaled_final/1286_rv.mp4	0.0	354.2086980342865	0.09997701644897461
79	331.89121198654175	fix_pre	0		120	77.0	2.5	/experiments/knapen_AOT/AOT_stimuli/rescaled_final/0260_rv.mp4	0.0	354.3086750507355	1.000147819519043
79	332.4749219417572	pulse	0	t		77.0	2.5	/experiments/knapen_AOT/AOT_stimuli/rescaled_final/0260_rv.mp4	0.0	354.8923850059509	
79	332.8913598060608	movie	1		246	77.0	2.5	/experiments/knapen_AOT/AOT_stimuli/rescaled_final/0260_rv.mp4	0.0	355.3088228702545	2.50039005279541
79	334.07512497901917	pulse	1	t		77.0	2.5	/experiments/knapen_AOT/AOT_stimuli/rescaled_final/0260_rv.mp4	0.0	356.4925880432129	
79	335.3917498588562	fix_post	2		12	77.0	2.5	/experiments/knapen_AOT/AOT_stimuli/rescaled_final/0260_rv.mp4	0.0	357.8092129230499	0.1000220775604248
80	335.4917719364166	fix_pre	0		120	78.0	2.5	/experiments/knapen_AOT/AOT_stimuli/rescaled_final/0103_rv.mp4	0.0	357.90923500061035	1.0001680850982666
80	335.6752300262451	pulse	0	t		78.0	2.5	/experiments/knapen_AOT/AOT_stimuli/rescaled_final/0103_rv.mp4	0.0	358.09269309043884	
80	336.4919400215149	movie	1		244	78.0	2.5	/experiments/knapen_AOT/AOT_stimuli/rescaled_final/0103_rv.mp4	0.0	358.9094030857086	2.500361919403076
80	337.2755968570709	pulse	1	t		78.0	2.5	/experiments/knapen_AOT/AOT_stimuli/rescaled_final/0103_rv.mp4	0.0	359.69305992126465	
80	338.8760030269623	pulse	1	t		78.0	2.5	/experiments/knapen_AOT/AOT_stimuli/rescaled_final/0103_rv.mp4	0.0	361.293466091156	
80	338.99230194091797	fix_post	2		12	78.0	2.5	/experiments/knapen_AOT/AOT_stimuli/rescaled_final/0103_rv.mp4	0.0	361.4097650051117	0.10002493858337402
81	339.09232687950134	fix_pre	0		119	79.0	2.5	/experiments/knapen_AOT/AOT_stimuli/rescaled_final/1490_fw.mp4	0.0	361.50978994369507	0.9917709827423096
81	340.08409786224365	movie	1		244	79.0	2.5	/experiments/knapen_AOT/AOT_stimuli/rescaled_final/1490_fw.mp4	0.0	362.5015609264374	2.500378131866455
81	340.4761309623718	pulse	1	t		79.0	2.5	/experiments/knapen_AOT/AOT_stimuli/rescaled_final/1490_fw.mp4	0.0	362.89359402656555	
81	342.0762138366699	pulse	1	t		79.0	2.5	/experiments/knapen_AOT/AOT_stimuli/rescaled_final/1490_fw.mp4	0.0	364.49367690086365	
81	342.5844759941101	fix_post	2		12	79.0	2.5	/experiments/knapen_AOT/AOT_stimuli/rescaled_final/1490_fw.mp4	0.0	365.00193905830383	0.09997892379760742
82	342.6844549179077	fix_pre	0		120	80.0	2.5	/experiments/knapen_AOT/AOT_stimuli/rescaled_final/0505_rv.mp4	0.0	365.10191798210144	1.0002000331878662
82	343.67656898498535	pulse	0	t		80.0	2.5	/experiments/knapen_AOT/AOT_stimuli/rescaled_final/0505_rv.mp4	0.0	366.0940320491791	
82	343.6846549510956	movie	1		246	80.0	2.5	/experiments/knapen_AOT/AOT_stimuli/rescaled_final/0505_rv.mp4	0.0	366.1021180152893	2.5087149143218994
82	345.27786087989807	pulse	1	t		80.0	2.5	/experiments/knapen_AOT/AOT_stimuli/rescaled_final/0505_rv.mp4	0.0	367.6953239440918	
82	346.1933698654175	fix_post	2		12	80.0	2.5	/experiments/knapen_AOT/AOT_stimuli/rescaled_final/0505_rv.mp4	0.0	368.6108329296112	0.09996604919433594
83	346.2933359146118	fix_pre	0		120	81.0	2.5	/experiments/knapen_AOT/AOT_stimuli/rescaled_final/1497_fw.mp4	0.0	368.71079897880554	1.0002150535583496
83	346.8770959377289	pulse	0	t		81.0	2.5	/experiments/knapen_AOT/AOT_stimuli/rescaled_final/1497_fw.mp4	0.0	369.2945590019226	
83	347.29355096817017	movie	1		245	81.0	2.5	/experiments/knapen_AOT/AOT_stimuli/rescaled_final/1497_fw.mp4	0.0	369.7110140323639	2.5003609657287598
83	348.47730588912964	pulse	1	t		81.0	2.5	/experiments/knapen_AOT/AOT_stimuli/rescaled_final/1497_fw.mp4	0.0	370.89476895332336	
83	349.7939119338989	fix_post	2		12	81.0	2.5	/experiments/knapen_AOT/AOT_stimuli/rescaled_final/1497_fw.mp4	0.0	372.21137499809265	0.09999394416809082
84	349.893905878067	fix_pre	0		120	82.0	2.5	blank	1.0	372.31136894226074	1.0001490116119385
84	350.07748889923096	pulse	0	t		82.0	2.5	blank	1.0	372.4949519634247	
84	350.89405488967896	movie	1		300	82.0	2.5	blank	1.0	373.3115179538727	2.5004100799560547
84	351.6776919364929	pulse	1	t		82.0	2.5	blank	1.0	374.09515500068665	
84	353.27052092552185	pulse	1	t		82.0	2.5	blank	1.0	375.6879839897156	
84	353.394464969635	fix_post	2		12	82.0	2.5	blank	1.0	375.81192803382874	0.10000896453857422
85	353.4944739341736	fix_pre	0		120	83.0	2.5	/experiments/knapen_AOT/AOT_stimuli/rescaled_final/0454_fw.mp4	0.0	375.9119369983673	1.0001709461212158
85	354.4946448802948	movie	1		244	83.0	2.5	/experiments/knapen_AOT/AOT_stimuli/rescaled_final/0454_fw.mp4	0.0	376.9121079444885	2.4920899868011475
85	354.8796548843384	pulse	1	t		83.0	2.5	/experiments/knapen_AOT/AOT_stimuli/rescaled_final/0454_fw.mp4	0.0	377.2971179485321	
85	356.4713089466095	pulse	1	t		83.0	2.5	/experiments/knapen_AOT/AOT_stimuli/rescaled_final/0454_fw.mp4	0.0	378.8887720108032	
85	356.98673486709595	fix_post	2		12	83.0	2.5	/experiments/knapen_AOT/AOT_stimuli/rescaled_final/0454_fw.mp4	0.0	379.4041979312897	0.09993410110473633
87	357.0866689682007	stim	0		1716					379.5041320323944	14.302196979522705
87	358.07132387161255	pulse	0	t						380.4887869358063	
87	359.67055583000183	pulse	0	t						382.08801889419556	
87	361.27076292037964	pulse	0	t						383.68822598457336	
87	362.8710160255432	pulse	0	t						385.28847908973694	
87	364.4712989330292	pulse	0	t						386.8887619972229	
87	366.0715708732605	pulse	0	t						388.4890339374542	
87	367.671835899353	pulse	0	t						390.08929896354675	
87	369.2720069885254	pulse	0	t						391.6894700527191	
87	370.87220883369446	pulse	0	t						393.2896718978882	
