trial_nr	onset	event_type	phase	response	nr_frames	movie_index	movie_duration	movie_file	blank	onset_abs	duration
0	0.20846009254455566	stim	0		67					39.604007959365845	0.5583109855651855
0	0.7512929439544678	response	0	space						40.14684081077576	
1	0.7667710781097412	stim	0		4166					40.16231894493103	34.73084092140198
1	35.487690925598145	pulse	0	t						74.88323879241943	
1	35.49761199951172	stim	1		1716					74.89315986633301	14.301530122756958
1	37.080657958984375	pulse	1	t						76.47620582580566	
1	38.68106198310852	pulse	1	t						78.07660984992981	
1	40.28128409385681	pulse	1	t						79.6768319606781	
1	41.881458044052124	pulse	1	t						81.27700591087341	
1	43.48160409927368	pulse	1	t						82.87715196609497	
1	45.081921100616455	pulse	1	t						84.47746896743774	
1	46.68223690986633	pulse	1	t						86.07778477668762	
1	48.2824010848999	pulse	1	t						87.67794895172119	
2	49.79914212226868	fix_pre	0		11	0.0	2.5	/experiments/knapen_AOT/AOT_stimuli/rescaled_final/1287_fw.mp4	0.0	89.19468998908997	0.09161591529846191
2	49.8826789855957	pulse	0	t		0.0	2.5	/experiments/knapen_AOT/AOT_stimuli/rescaled_final/1287_fw.mp4	0.0	89.27822685241699	
2	49.89075803756714	movie	1		244	0.0	2.5	/experiments/knapen_AOT/AOT_stimuli/rescaled_final/1287_fw.mp4	0.0	89.28630590438843	2.5086820125579834
2	51.48320007324219	pulse	1	t		0.0	2.5	/experiments/knapen_AOT/AOT_stimuli/rescaled_final/1287_fw.mp4	0.0	90.87874794006348	
2	52.39944005012512	fix_post	2		12	0.0	2.5	/experiments/knapen_AOT/AOT_stimuli/rescaled_final/1287_fw.mp4	0.0	91.79498791694641	0.10004687309265137
3	52.49948692321777	fix_pre	0		120	1.0	2.5	/experiments/knapen_AOT/AOT_stimuli/rescaled_final/0381_rv.mp4	0.0	91.89503479003906	1.0001401901245117
3	53.08314108848572	pulse	0	t		1.0	2.5	/experiments/knapen_AOT/AOT_stimuli/rescaled_final/0381_rv.mp4	0.0	92.478688955307	
3	53.499627113342285	movie	1		245	1.0	2.5	/experiments/knapen_AOT/AOT_stimuli/rescaled_final/0381_rv.mp4	0.0	92.89517498016357	2.5003879070281982
3	54.67953896522522	pulse	1	t		1.0	2.5	/experiments/knapen_AOT/AOT_stimuli/rescaled_final/0381_rv.mp4	0.0	94.07508683204651	
3	56.00001502037048	fix_post	2		12	1.0	2.5	/experiments/knapen_AOT/AOT_stimuli/rescaled_final/0381_rv.mp4	0.0	95.39556288719177	0.10001993179321289
4	56.100034952163696	fix_pre	0		120	2.0	2.5	/experiments/knapen_AOT/AOT_stimuli/rescaled_final/0497_rv.mp4	0.0	95.49558281898499	1.0001270771026611
4	56.28353190422058	pulse	0	t		2.0	2.5	/experiments/knapen_AOT/AOT_stimuli/rescaled_final/0497_rv.mp4	0.0	95.67907977104187	
4	57.10016202926636	movie	1		244	2.0	2.5	/experiments/knapen_AOT/AOT_stimuli/rescaled_final/0497_rv.mp4	0.0	96.49570989608765	2.500380039215088
4	57.883798122406006	pulse	1	t		2.0	2.5	/experiments/knapen_AOT/AOT_stimuli/rescaled_final/0497_rv.mp4	0.0	97.2793459892273	
4	59.486616134643555	pulse	1	t		2.0	2.5	/experiments/knapen_AOT/AOT_stimuli/rescaled_final/0497_rv.mp4	0.0	98.88216400146484	
4	59.600542068481445	fix_post	2		12	2.0	2.5	/experiments/knapen_AOT/AOT_stimuli/rescaled_final/0497_rv.mp4	0.0	98.99608993530273	0.09998488426208496
5	59.70052695274353	fix_pre	0		120	3.0	2.5	/experiments/knapen_AOT/AOT_stimuli/rescaled_final/1997_rv.mp4	0.0	99.09607481956482	1.0001649856567383
5	60.70069193840027	movie	1		242	3.0	2.5	/experiments/knapen_AOT/AOT_stimuli/rescaled_final/1997_rv.mp4	0.0	100.09623980522156	2.492063045501709
5	61.084840059280396	pulse	1	t		3.0	2.5	/experiments/knapen_AOT/AOT_stimuli/rescaled_final/1997_rv.mp4	0.0	100.48038792610168	
5	62.68453407287598	pulse	1	t		3.0	2.5	/experiments/knapen_AOT/AOT_stimuli/rescaled_final/1997_rv.mp4	0.0	102.08008193969727	
5	63.19275498390198	fix_post	2		12	3.0	2.5	/experiments/knapen_AOT/AOT_stimuli/rescaled_final/1997_rv.mp4	0.0	102.58830285072327	0.09999513626098633
6	63.292750120162964	fix_pre	0		120	4.0	2.5	/experiments/knapen_AOT/AOT_stimuli/rescaled_final/1528_fw.mp4	0.0	102.68829798698425	1.000166893005371
6	64.28483009338379	pulse	0	t		4.0	2.5	/experiments/knapen_AOT/AOT_stimuli/rescaled_final/1528_fw.mp4	0.0	103.68037796020508	
6	64.29291701316833	movie	1		248	4.0	2.5	/experiments/knapen_AOT/AOT_stimuli/rescaled_final/1528_fw.mp4	0.0	103.68846487998962	2.5086801052093506
6	65.8890380859375	pulse	1	t		4.0	2.5	/experiments/knapen_AOT/AOT_stimuli/rescaled_final/1528_fw.mp4	0.0	105.28458595275879	
6	66.80159711837769	fix_post	2		12	4.0	2.5	/experiments/knapen_AOT/AOT_stimuli/rescaled_final/1528_fw.mp4	0.0	106.19714498519897	0.10007882118225098
7	66.90167593955994	fix_pre	0		120	5.0	2.5	blank	1.0	106.29722380638123	1.000115156173706
7	67.47781705856323	pulse	0	t		5.0	2.5	blank	1.0	106.87336492538452	
7	67.90179109573364	movie	1		300	5.0	2.5	blank	1.0	107.29733896255493	2.500361919403076
7	69.07809209823608	pulse	1	t		5.0	2.5	blank	1.0	108.47363996505737	
7	70.40215301513672	fix_post	2		12	5.0	2.5	blank	1.0	109.79770088195801	0.09998488426208496
8	70.5021378993988	fix_pre	0		120	6.0	2.5	/experiments/knapen_AOT/AOT_stimuli/rescaled_final/1978_fw.mp4	0.0	109.89768576622009	1.0001771450042725
8	70.67814207077026	pulse	0	t		6.0	2.5	/experiments/knapen_AOT/AOT_stimuli/rescaled_final/1978_fw.mp4	0.0	110.07368993759155	
8	71.50231504440308	movie	1		243	6.0	2.5	/experiments/knapen_AOT/AOT_stimuli/rescaled_final/1978_fw.mp4	0.0	110.89786291122437	2.5003819465637207
8	72.27770209312439	pulse	1	t		6.0	2.5	/experiments/knapen_AOT/AOT_stimuli/rescaled_final/1978_fw.mp4	0.0	111.67324995994568	
8	73.87783193588257	pulse	1	t		6.0	2.5	/experiments/knapen_AOT/AOT_stimuli/rescaled_final/1978_fw.mp4	0.0	113.27337980270386	
8	74.0026969909668	fix_post	2		12	6.0	2.5	/experiments/knapen_AOT/AOT_stimuli/rescaled_final/1978_fw.mp4	0.0	113.39824485778809	0.10001301765441895
9	74.10271000862122	fix_pre	0		119	7.0	2.5	/experiments/knapen_AOT/AOT_stimuli/rescaled_final/0563_rv.mp4	0.0	113.4982578754425	0.9918179512023926
9	75.09452795982361	movie	1		243	7.0	2.5	/experiments/knapen_AOT/AOT_stimuli/rescaled_final/0563_rv.mp4	0.0	114.4900758266449	2.5003581047058105
9	75.47872805595398	pulse	1	t		7.0	2.5	/experiments/knapen_AOT/AOT_stimuli/rescaled_final/0563_rv.mp4	0.0	114.87427592277527	
9	77.07837510108948	pulse	1	t		7.0	2.5	/experiments/knapen_AOT/AOT_stimuli/rescaled_final/0563_rv.mp4	0.0	116.47392296791077	
9	77.59488606452942	fix_post	2		12	7.0	2.5	/experiments/knapen_AOT/AOT_stimuli/rescaled_final/0563_rv.mp4	0.0	116.99043393135071	0.10007500648498535
10	77.6949610710144	fix_pre	0		119	8.0	2.5	/experiments/knapen_AOT/AOT_stimuli/rescaled_final/0767_rv.mp4	0.0	117.0905089378357	0.9917628765106201
10	78.6785249710083	pulse	0	t		8.0	2.5	/experiments/knapen_AOT/AOT_stimuli/rescaled_final/0767_rv.mp4	0.0	118.07407283782959	
10	78.68672394752502	movie	1		245	8.0	2.5	/experiments/knapen_AOT/AOT_stimuli/rescaled_final/0767_rv.mp4	0.0	118.08227181434631	2.5086891651153564
10	80.2795181274414	pulse	1	t		8.0	2.5	/experiments/knapen_AOT/AOT_stimuli/rescaled_final/0767_rv.mp4	0.0	119.6750659942627	
10	81.19541311264038	fix_post	2		9	8.0	2.5	/experiments/knapen_AOT/AOT_stimuli/rescaled_final/0767_rv.mp4	0.0	120.59096097946167	0.10001182556152344
11	81.2954249382019	fix_pre	0		120	9.0	2.5	/experiments/knapen_AOT/AOT_stimuli/rescaled_final/1819_fw.mp4	0.0	120.6909728050232	1.0001680850982666
11	81.87903499603271	pulse	0	t		9.0	2.5	/experiments/knapen_AOT/AOT_stimuli/rescaled_final/1819_fw.mp4	0.0	121.274582862854	
11	82.29559302330017	movie	1		244	9.0	2.5	/experiments/knapen_AOT/AOT_stimuli/rescaled_final/1819_fw.mp4	0.0	121.69114089012146	2.500354051589966
11	83.47937202453613	pulse	1	t		9.0	2.5	/experiments/knapen_AOT/AOT_stimuli/rescaled_final/1819_fw.mp4	0.0	122.87491989135742	
11	84.79594707489014	fix_post	2		12	9.0	2.5	/experiments/knapen_AOT/AOT_stimuli/rescaled_final/1819_fw.mp4	0.0	124.19149494171143	0.10002303123474121
12	84.89597010612488	fix_pre	0		120	10.0	2.5	/experiments/knapen_AOT/AOT_stimuli/rescaled_final/0109_fw.mp4	0.0	124.29151797294617	1.0001850128173828
12	85.07951498031616	pulse	0	t		10.0	2.5	/experiments/knapen_AOT/AOT_stimuli/rescaled_final/0109_fw.mp4	0.0	124.47506284713745	
12	85.89615511894226	movie	1		243	10.0	2.5	/experiments/knapen_AOT/AOT_stimuli/rescaled_final/0109_fw.mp4	0.0	125.29170298576355	2.500339984893799
12	86.67984390258789	pulse	1	t		10.0	2.5	/experiments/knapen_AOT/AOT_stimuli/rescaled_final/0109_fw.mp4	0.0	126.07539176940918	
12	88.27978992462158	pulse	1	t		10.0	2.5	/experiments/knapen_AOT/AOT_stimuli/rescaled_final/0109_fw.mp4	0.0	127.67533779144287	
12	88.39649510383606	fix_post	2		12	10.0	2.5	/experiments/knapen_AOT/AOT_stimuli/rescaled_final/0109_fw.mp4	0.0	127.79204297065735	0.10000300407409668
13	88.49649810791016	fix_pre	0		120	11.0	2.5	/experiments/knapen_AOT/AOT_stimuli/rescaled_final/0567_fw.mp4	0.0	127.89204597473145	1.000196933746338
13	89.4966950416565	movie	1		243	11.0	2.5	/experiments/knapen_AOT/AOT_stimuli/rescaled_final/0567_fw.mp4	0.0	128.89224290847778	2.492011070251465
13	89.88470005989075	pulse	1	t		11.0	2.5	/experiments/knapen_AOT/AOT_stimuli/rescaled_final/0567_fw.mp4	0.0	129.28024792671204	
13	91.48049807548523	pulse	1	t		11.0	2.5	/experiments/knapen_AOT/AOT_stimuli/rescaled_final/0567_fw.mp4	0.0	130.87604594230652	
13	91.98870611190796	fix_post	2		12	11.0	2.5	/experiments/knapen_AOT/AOT_stimuli/rescaled_final/0567_fw.mp4	0.0	131.38425397872925	0.10008692741394043
14	92.0887930393219	fix_pre	0		120	12.0	2.5	/experiments/knapen_AOT/AOT_stimuli/rescaled_final/2000_rv.mp4	0.0	131.4843409061432	1.0000948905944824
14	93.08072400093079	pulse	0	t		12.0	2.5	/experiments/knapen_AOT/AOT_stimuli/rescaled_final/2000_rv.mp4	0.0	132.47627186775208	
14	93.08888792991638	movie	1		244	12.0	2.5	/experiments/knapen_AOT/AOT_stimuli/rescaled_final/2000_rv.mp4	0.0	132.48443579673767	2.5087502002716064
14	94.68215107917786	pulse	1	t		12.0	2.5	/experiments/knapen_AOT/AOT_stimuli/rescaled_final/2000_rv.mp4	0.0	134.07769894599915	
14	95.59763813018799	fix_post	2		12	12.0	2.5	/experiments/knapen_AOT/AOT_stimuli/rescaled_final/2000_rv.mp4	0.0	134.99318599700928	0.10001683235168457
15	95.69765496253967	fix_pre	0		120	13.0	2.5	/experiments/knapen_AOT/AOT_stimuli/rescaled_final/1022_fw.mp4	0.0	135.09320282936096	1.0001029968261719
15	96.28121709823608	pulse	0	t		13.0	2.5	/experiments/knapen_AOT/AOT_stimuli/rescaled_final/1022_fw.mp4	0.0	135.67676496505737	
15	96.69775795936584	movie	1		244	13.0	2.5	/experiments/knapen_AOT/AOT_stimuli/rescaled_final/1022_fw.mp4	0.0	136.09330582618713	2.5003409385681152
15	97.88159990310669	pulse	1	t		13.0	2.5	/experiments/knapen_AOT/AOT_stimuli/rescaled_final/1022_fw.mp4	0.0	137.27714776992798	
15	99.19809889793396	fix_post	2		12	13.0	2.5	/experiments/knapen_AOT/AOT_stimuli/rescaled_final/1022_fw.mp4	0.0	138.59364676475525	0.10010600090026855
16	99.29820489883423	fix_pre	0		120	14.0	2.5	blank	1.0	138.69375276565552	1.0000851154327393
16	99.48165512084961	pulse	0	t		14.0	2.5	blank	1.0	138.8772029876709	
16	100.29829001426697	movie	1		300	14.0	2.5	blank	1.0	139.69383788108826	2.5004570484161377
16	101.08202004432678	pulse	1	t		14.0	2.5	blank	1.0	140.47756791114807	
16	102.68226099014282	pulse	1	t		14.0	2.5	blank	1.0	142.0778088569641	
16	102.7987470626831	fix_post	2		12	14.0	2.5	blank	1.0	142.1942949295044	0.09992384910583496
17	102.89867091178894	fix_pre	0		120	15.0	2.5	/experiments/knapen_AOT/AOT_stimuli/rescaled_final/0644_fw.mp4	0.0	142.29421877861023	1.0001590251922607
17	103.8988299369812	movie	1		242	15.0	2.5	/experiments/knapen_AOT/AOT_stimuli/rescaled_final/0644_fw.mp4	0.0	143.2943778038025	2.4920361042022705
17	104.28310990333557	pulse	1	t		15.0	2.5	/experiments/knapen_AOT/AOT_stimuli/rescaled_final/0644_fw.mp4	0.0	143.67865777015686	
17	105.8825900554657	pulse	1	t		15.0	2.5	/experiments/knapen_AOT/AOT_stimuli/rescaled_final/0644_fw.mp4	0.0	145.278137922287	
17	106.39086604118347	fix_post	2		12	15.0	2.5	/experiments/knapen_AOT/AOT_stimuli/rescaled_final/0644_fw.mp4	0.0	145.78641390800476	0.10007095336914062
18	106.49093699455261	fix_pre	0		120	16.0	2.5	/experiments/knapen_AOT/AOT_stimuli/rescaled_final/0823_rv.mp4	0.0	145.8864848613739	1.0000569820404053
18	107.48301410675049	pulse	0	t		16.0	2.5	/experiments/knapen_AOT/AOT_stimuli/rescaled_final/0823_rv.mp4	0.0	146.87856197357178	
18	107.49099397659302	movie	1		245	16.0	2.5	/experiments/knapen_AOT/AOT_stimuli/rescaled_final/0823_rv.mp4	0.0	146.8865418434143	2.508739948272705
18	109.08358597755432	pulse	1	t		16.0	2.5	/experiments/knapen_AOT/AOT_stimuli/rescaled_final/0823_rv.mp4	0.0	148.4791338443756	
18	109.99973392486572	fix_post	2		12	16.0	2.5	/experiments/knapen_AOT/AOT_stimuli/rescaled_final/0823_rv.mp4	0.0	149.395281791687	0.10001015663146973
19	110.09974408149719	fix_pre	0		120	17.0	2.5	/experiments/knapen_AOT/AOT_stimuli/rescaled_final/2037_fw.mp4	0.0	149.49529194831848	1.000147819519043
19	110.68340611457825	pulse	0	t		17.0	2.5	/experiments/knapen_AOT/AOT_stimuli/rescaled_final/2037_fw.mp4	0.0	150.07895398139954	
19	111.09989190101624	movie	1		244	17.0	2.5	/experiments/knapen_AOT/AOT_stimuli/rescaled_final/2037_fw.mp4	0.0	150.49543976783752	2.5003771781921387
19	112.28366494178772	pulse	1	t		17.0	2.5	/experiments/knapen_AOT/AOT_stimuli/rescaled_final/2037_fw.mp4	0.0	151.679212808609	
19	113.60026907920837	fix_post	2		12	17.0	2.5	/experiments/knapen_AOT/AOT_stimuli/rescaled_final/2037_fw.mp4	0.0	152.99581694602966	0.1000208854675293
20	113.7002899646759	fix_pre	0		120	18.0	2.5	/experiments/knapen_AOT/AOT_stimuli/rescaled_final/0463_rv.mp4	0.0	153.0958378314972	1.0001370906829834
20	113.88386011123657	pulse	0	t		18.0	2.5	/experiments/knapen_AOT/AOT_stimuli/rescaled_final/0463_rv.mp4	0.0	153.27940797805786	
20	114.70042705535889	movie	1		243	18.0	2.5	/experiments/knapen_AOT/AOT_stimuli/rescaled_final/0463_rv.mp4	0.0	154.09597492218018	2.500377893447876
20	115.4842369556427	pulse	1	t		18.0	2.5	/experiments/knapen_AOT/AOT_stimuli/rescaled_final/0463_rv.mp4	0.0	154.879784822464	
20	117.08480310440063	pulse	1	t		18.0	2.5	/experiments/knapen_AOT/AOT_stimuli/rescaled_final/0463_rv.mp4	0.0	156.48035097122192	
20	117.20080494880676	fix_post	2		12	18.0	2.5	/experiments/knapen_AOT/AOT_stimuli/rescaled_final/0463_rv.mp4	0.0	156.59635281562805	0.10000395774841309
21	117.30080890655518	fix_pre	0		120	19.0	2.5	/experiments/knapen_AOT/AOT_stimuli/rescaled_final/1235_fw.mp4	0.0	156.69635677337646	1.0001800060272217
21	118.3009889125824	movie	1		243	19.0	2.5	/experiments/knapen_AOT/AOT_stimuli/rescaled_final/1235_fw.mp4	0.0	157.6965367794037	2.492002010345459
21	118.68506503105164	pulse	1	t		19.0	2.5	/experiments/knapen_AOT/AOT_stimuli/rescaled_final/1235_fw.mp4	0.0	158.08061289787292	
21	120.28484201431274	pulse	1	t		19.0	2.5	/experiments/knapen_AOT/AOT_stimuli/rescaled_final/1235_fw.mp4	0.0	159.68038988113403	
21	120.79299092292786	fix_post	2		12	19.0	2.5	/experiments/knapen_AOT/AOT_stimuli/rescaled_final/1235_fw.mp4	0.0	160.18853878974915	0.10005617141723633
22	120.89304709434509	fix_pre	0		120	20.0	2.5	/experiments/knapen_AOT/AOT_stimuli/rescaled_final/0767_fw.mp4	0.0	160.28859496116638	1.0001280307769775
22	121.88516211509705	pulse	0	t		20.0	2.5	/experiments/knapen_AOT/AOT_stimuli/rescaled_final/0767_fw.mp4	0.0	161.28070998191833	
22	121.89317512512207	movie	1		245	20.0	2.5	/experiments/knapen_AOT/AOT_stimuli/rescaled_final/0767_fw.mp4	0.0	161.28872299194336	2.5087058544158936
22	123.48587203025818	pulse	1	t		20.0	2.5	/experiments/knapen_AOT/AOT_stimuli/rescaled_final/0767_fw.mp4	0.0	162.88141989707947	
22	124.40188097953796	fix_post	2		12	20.0	2.5	/experiments/knapen_AOT/AOT_stimuli/rescaled_final/0767_fw.mp4	0.0	163.79742884635925	0.10000896453857422
23	124.50188994407654	fix_pre	0		120	21.0	2.5	blank	1.0	163.89743781089783	1.0001449584960938
23	125.07732892036438	pulse	0	t		21.0	2.5	blank	1.0	164.47287678718567	
23	125.50203490257263	movie	1		300	21.0	2.5	blank	1.0	164.89758276939392	2.500397205352783
23	126.67828392982483	pulse	1	t		21.0	2.5	blank	1.0	166.07383179664612	
23	128.00243210792542	fix_post	2		12	21.0	2.5	blank	1.0	167.3979799747467	0.10000395774841309
24	128.10243606567383	fix_pre	0		120	22.0	2.5	/experiments/knapen_AOT/AOT_stimuli/rescaled_final/0649_fw.mp4	0.0	167.49798393249512	1.0001308917999268
24	128.2775731086731	pulse	0	t		22.0	2.5	/experiments/knapen_AOT/AOT_stimuli/rescaled_final/0649_fw.mp4	0.0	167.67312097549438	
24	129.10256695747375	movie	1		244	22.0	2.5	/experiments/knapen_AOT/AOT_stimuli/rescaled_final/0649_fw.mp4	0.0	168.49811482429504	2.5003740787506104
24	129.87800312042236	pulse	1	t		22.0	2.5	/experiments/knapen_AOT/AOT_stimuli/rescaled_final/0649_fw.mp4	0.0	169.27355098724365	
24	131.47823810577393	pulse	1	t		22.0	2.5	/experiments/knapen_AOT/AOT_stimuli/rescaled_final/0649_fw.mp4	0.0	170.87378597259521	
24	131.60294103622437	fix_post	2		12	22.0	2.5	/experiments/knapen_AOT/AOT_stimuli/rescaled_final/0649_fw.mp4	0.0	170.99848890304565	0.1000220775604248
25	131.7029631137848	fix_pre	0		120	23.0	2.5	/experiments/knapen_AOT/AOT_stimuli/rescaled_final/1285_rv.mp4	0.0	171.09851098060608	1.000114917755127
25	132.70307803153992	movie	1		243	23.0	2.5	/experiments/knapen_AOT/AOT_stimuli/rescaled_final/1285_rv.mp4	0.0	172.0986258983612	2.4920740127563477
25	133.07847094535828	pulse	1	t		23.0	2.5	/experiments/knapen_AOT/AOT_stimuli/rescaled_final/1285_rv.mp4	0.0	172.47401881217957	
25	134.67869400978088	pulse	1	t		23.0	2.5	/experiments/knapen_AOT/AOT_stimuli/rescaled_final/1285_rv.mp4	0.0	174.07424187660217	
25	135.19515204429626	fix_post	2		12	23.0	2.5	/experiments/knapen_AOT/AOT_stimuli/rescaled_final/1285_rv.mp4	0.0	174.59069991111755	0.10007286071777344
26	135.29522490501404	fix_pre	0		119	24.0	2.5	/experiments/knapen_AOT/AOT_stimuli/rescaled_final/0841_rv.mp4	0.0	174.69077277183533	0.991767168045044
26	136.27881813049316	pulse	0	t		24.0	2.5	/experiments/knapen_AOT/AOT_stimuli/rescaled_final/0841_rv.mp4	0.0	175.67436599731445	
26	136.28699207305908	movie	1		247	24.0	2.5	/experiments/knapen_AOT/AOT_stimuli/rescaled_final/0841_rv.mp4	0.0	175.68253993988037	2.508678913116455
26	137.87940502166748	pulse	1	t		24.0	2.5	/experiments/knapen_AOT/AOT_stimuli/rescaled_final/0841_rv.mp4	0.0	177.27495288848877	
26	138.79567098617554	fix_post	2		12	24.0	2.5	/experiments/knapen_AOT/AOT_stimuli/rescaled_final/0841_rv.mp4	0.0	178.19121885299683	0.10001397132873535
27	138.89568495750427	fix_pre	0		120	25.0	2.5	/experiments/knapen_AOT/AOT_stimuli/rescaled_final/0768_fw.mp4	0.0	178.29123282432556	1.0001630783081055
27	139.47946691513062	pulse	0	t		25.0	2.5	/experiments/knapen_AOT/AOT_stimuli/rescaled_final/0768_fw.mp4	0.0	178.8750147819519	
27	139.89584803581238	movie	1		242	25.0	2.5	/experiments/knapen_AOT/AOT_stimuli/rescaled_final/0768_fw.mp4	0.0	179.29139590263367	2.500369071960449
27	141.07964396476746	pulse	1	t		25.0	2.5	/experiments/knapen_AOT/AOT_stimuli/rescaled_final/0768_fw.mp4	0.0	180.47519183158875	
27	142.39621710777283	fix_post	2		12	25.0	2.5	/experiments/knapen_AOT/AOT_stimuli/rescaled_final/0768_fw.mp4	0.0	181.79176497459412	0.1000368595123291
28	142.49625396728516	fix_pre	0		120	26.0	2.5	/experiments/knapen_AOT/AOT_stimuli/rescaled_final/1307_fw.mp4	0.0	181.89180183410645	1.0001521110534668
28	142.67985606193542	pulse	0	t		26.0	2.5	/experiments/knapen_AOT/AOT_stimuli/rescaled_final/1307_fw.mp4	0.0	182.0754039287567	
28	143.49640607833862	movie	1		245	26.0	2.5	/experiments/knapen_AOT/AOT_stimuli/rescaled_final/1307_fw.mp4	0.0	182.8919539451599	2.5003678798675537
28	144.28009796142578	pulse	1	t		26.0	2.5	/experiments/knapen_AOT/AOT_stimuli/rescaled_final/1307_fw.mp4	0.0	183.67564582824707	
28	145.8803050518036	pulse	1	t		26.0	2.5	/experiments/knapen_AOT/AOT_stimuli/rescaled_final/1307_fw.mp4	0.0	185.27585291862488	
28	145.99677395820618	fix_post	2		12	26.0	2.5	/experiments/knapen_AOT/AOT_stimuli/rescaled_final/1307_fw.mp4	0.0	185.39232182502747	0.1000070571899414
29	146.09678101539612	fix_pre	0		120	27.0	2.5	/experiments/knapen_AOT/AOT_stimuli/rescaled_final/1956_fw.mp4	0.0	185.4923288822174	1.0001919269561768
29	147.0969729423523	movie	1		242	27.0	2.5	/experiments/knapen_AOT/AOT_stimuli/rescaled_final/1956_fw.mp4	0.0	186.49252080917358	2.4919891357421875
29	147.48186492919922	pulse	1	t		27.0	2.5	/experiments/knapen_AOT/AOT_stimuli/rescaled_final/1956_fw.mp4	0.0	186.8774127960205	
29	149.08081698417664	pulse	1	t		27.0	2.5	/experiments/knapen_AOT/AOT_stimuli/rescaled_final/1956_fw.mp4	0.0	188.47636485099792	
29	149.58896207809448	fix_post	2		12	27.0	2.5	/experiments/knapen_AOT/AOT_stimuli/rescaled_final/1956_fw.mp4	0.0	188.98450994491577	0.10001993179321289
30	149.6889820098877	fix_pre	0		120	28.0	2.5	blank	1.0	189.08452987670898	1.0001530647277832
30	150.6810610294342	pulse	0	t		28.0	2.5	blank	1.0	190.0766088962555	
30	150.68913507461548	movie	1		301	28.0	2.5	blank	1.0	190.08468294143677	2.50872802734375
30	152.28137612342834	pulse	1	t		28.0	2.5	blank	1.0	191.67692399024963	
30	153.19786310195923	fix_post	2		12	28.0	2.5	blank	1.0	192.59341096878052	0.10003089904785156
31	153.29789400100708	fix_pre	0		120	29.0	2.5	/experiments/knapen_AOT/AOT_stimuli/rescaled_final/0836_fw.mp4	0.0	192.69344186782837	1.0001089572906494
31	153.8815541267395	pulse	0	t		29.0	2.5	/experiments/knapen_AOT/AOT_stimuli/rescaled_final/0836_fw.mp4	0.0	193.2771019935608	
31	154.29800295829773	movie	1		244	29.0	2.5	/experiments/knapen_AOT/AOT_stimuli/rescaled_final/0836_fw.mp4	0.0	193.69355082511902	2.5003769397735596
31	155.48175811767578	pulse	1	t		29.0	2.5	/experiments/knapen_AOT/AOT_stimuli/rescaled_final/0836_fw.mp4	0.0	194.87730598449707	
31	156.7983798980713	fix_post	2		12	29.0	2.5	/experiments/knapen_AOT/AOT_stimuli/rescaled_final/0836_fw.mp4	0.0	196.19392776489258	0.10007119178771973
32	156.898451089859	fix_pre	0		120	30.0	2.5	/experiments/knapen_AOT/AOT_stimuli/rescaled_final/0384_fw.mp4	0.0	196.2939989566803	1.0000979900360107
32	157.08201599121094	pulse	0	t		30.0	2.5	/experiments/knapen_AOT/AOT_stimuli/rescaled_final/0384_fw.mp4	0.0	196.47756385803223	
32	157.89854907989502	movie	1		243	30.0	2.5	/experiments/knapen_AOT/AOT_stimuli/rescaled_final/0384_fw.mp4	0.0	197.2940969467163	2.5003838539123535
32	158.68225598335266	pulse	1	t		30.0	2.5	/experiments/knapen_AOT/AOT_stimuli/rescaled_final/0384_fw.mp4	0.0	198.07780385017395	
32	160.28248500823975	pulse	1	t		30.0	2.5	/experiments/knapen_AOT/AOT_stimuli/rescaled_final/0384_fw.mp4	0.0	199.67803287506104	
32	160.39893293380737	fix_post	2		12	30.0	2.5	/experiments/knapen_AOT/AOT_stimuli/rescaled_final/0384_fw.mp4	0.0	199.79448080062866	0.0999751091003418
33	160.49890804290771	fix_pre	0		120	31.0	2.5	/experiments/knapen_AOT/AOT_stimuli/rescaled_final/1260_rv.mp4	0.0	199.894455909729	1.0002360343933105
33	161.49914407730103	movie	1		244	31.0	2.5	/experiments/knapen_AOT/AOT_stimuli/rescaled_final/1260_rv.mp4	0.0	200.89469194412231	2.4919610023498535
33	161.8832859992981	pulse	1	t		31.0	2.5	/experiments/knapen_AOT/AOT_stimuli/rescaled_final/1260_rv.mp4	0.0	201.27883386611938	
33	163.48296213150024	pulse	1	t		31.0	2.5	/experiments/knapen_AOT/AOT_stimuli/rescaled_final/1260_rv.mp4	0.0	202.87850999832153	
33	163.99110507965088	fix_post	2		12	31.0	2.5	/experiments/knapen_AOT/AOT_stimuli/rescaled_final/1260_rv.mp4	0.0	203.38665294647217	0.10007786750793457
34	164.0911829471588	fix_pre	0		120	32.0	2.5	/experiments/knapen_AOT/AOT_stimuli/rescaled_final/0109_rv.mp4	0.0	203.4867308139801	1.0000829696655273
34	165.08319902420044	pulse	0	t		32.0	2.5	/experiments/knapen_AOT/AOT_stimuli/rescaled_final/0109_rv.mp4	0.0	204.47874689102173	
34	165.09126591682434	movie	1		244	32.0	2.5	/experiments/knapen_AOT/AOT_stimuli/rescaled_final/0109_rv.mp4	0.0	204.48681378364563	2.5086960792541504
34	166.68406105041504	pulse	1	t		32.0	2.5	/experiments/knapen_AOT/AOT_stimuli/rescaled_final/0109_rv.mp4	0.0	206.07960891723633	
34	167.5999619960785	fix_post	2		12	32.0	2.5	/experiments/knapen_AOT/AOT_stimuli/rescaled_final/0109_rv.mp4	0.0	206.99550986289978	0.1000359058380127
35	167.6999979019165	fix_pre	0		120	33.0	2.5	/experiments/knapen_AOT/AOT_stimuli/rescaled_final/0451_fw.mp4	0.0	207.0955457687378	1.0002021789550781
35	168.28358507156372	pulse	0	t		33.0	2.5	/experiments/knapen_AOT/AOT_stimuli/rescaled_final/0451_fw.mp4	0.0	207.679132938385	
35	168.70020008087158	movie	1		243	33.0	2.5	/experiments/knapen_AOT/AOT_stimuli/rescaled_final/0451_fw.mp4	0.0	208.09574794769287	2.5003180503845215
35	169.88397002220154	pulse	1	t		33.0	2.5	/experiments/knapen_AOT/AOT_stimuli/rescaled_final/0451_fw.mp4	0.0	209.27951788902283	
35	171.2005181312561	fix_post	2		12	33.0	2.5	/experiments/knapen_AOT/AOT_stimuli/rescaled_final/0451_fw.mp4	0.0	210.5960659980774	0.10000777244567871
36	171.30052590370178	fix_pre	0		120	34.0	2.5	blank	1.0	210.69607377052307	1.0001749992370605
36	171.48405599594116	pulse	0	t		34.0	2.5	blank	1.0	210.87960386276245	
36	172.30070090293884	movie	1		300	34.0	2.5	blank	1.0	211.69624876976013	2.500378131866455
36	173.084321975708	pulse	1	t		34.0	2.5	blank	1.0	212.4798698425293	
36	174.68454003334045	pulse	1	t		34.0	2.5	blank	1.0	214.08008790016174	
36	174.8010790348053	fix_post	2		12	34.0	2.5	blank	1.0	214.1966269016266	0.10004186630249023
37	174.9011209011078	fix_pre	0		120	35.0	2.5	/experiments/knapen_AOT/AOT_stimuli/rescaled_final/1509_rv.mp4	0.0	214.29666876792908	1.0001342296600342
37	175.90125513076782	movie	1		244	35.0	2.5	/experiments/knapen_AOT/AOT_stimuli/rescaled_final/1509_rv.mp4	0.0	215.2968029975891	2.492020845413208
37	176.28897905349731	pulse	1	t		35.0	2.5	/experiments/knapen_AOT/AOT_stimuli/rescaled_final/1509_rv.mp4	0.0	215.6845269203186	
37	177.87779307365417	pulse	1	t		35.0	2.5	/experiments/knapen_AOT/AOT_stimuli/rescaled_final/1509_rv.mp4	0.0	217.27334094047546	
37	178.39327597618103	fix_post	2		12	35.0	2.5	/experiments/knapen_AOT/AOT_stimuli/rescaled_final/1509_rv.mp4	0.0	217.78882384300232	0.09999895095825195
38	178.49327492713928	fix_pre	0		120	36.0	2.5	/experiments/knapen_AOT/AOT_stimuli/rescaled_final/2035_rv.mp4	0.0	217.88882279396057	1.0001440048217773
38	179.4778048992157	pulse	0	t		36.0	2.5	/experiments/knapen_AOT/AOT_stimuli/rescaled_final/2035_rv.mp4	0.0	218.873352766037	
38	179.49341893196106	movie	1		245	36.0	2.5	/experiments/knapen_AOT/AOT_stimuli/rescaled_final/2035_rv.mp4	0.0	218.88896679878235	2.5086851119995117
38	181.08603501319885	pulse	1	t		36.0	2.5	/experiments/knapen_AOT/AOT_stimuli/rescaled_final/2035_rv.mp4	0.0	220.48158288002014	
38	182.00210404396057	fix_post	2		12	36.0	2.5	/experiments/knapen_AOT/AOT_stimuli/rescaled_final/2035_rv.mp4	0.0	221.39765191078186	0.10006499290466309
39	182.10216903686523	fix_pre	0		120	37.0	2.5	/experiments/knapen_AOT/AOT_stimuli/rescaled_final/0816_rv.mp4	0.0	221.49771690368652	1.0001299381256104
39	182.6782341003418	pulse	0	t		37.0	2.5	/experiments/knapen_AOT/AOT_stimuli/rescaled_final/0816_rv.mp4	0.0	222.0737819671631	
39	183.10229897499084	movie	1		243	37.0	2.5	/experiments/knapen_AOT/AOT_stimuli/rescaled_final/0816_rv.mp4	0.0	222.49784684181213	2.5003931522369385
39	184.27828192710876	pulse	1	t		37.0	2.5	/experiments/knapen_AOT/AOT_stimuli/rescaled_final/0816_rv.mp4	0.0	223.67382979393005	
39	185.60269212722778	fix_post	2		12	37.0	2.5	/experiments/knapen_AOT/AOT_stimuli/rescaled_final/0816_rv.mp4	0.0	224.99823999404907	0.10007882118225098
40	185.70277094841003	fix_pre	0		120	38.0	2.5	/experiments/knapen_AOT/AOT_stimuli/rescaled_final/2035_fw.mp4	0.0	225.09831881523132	1.0000951290130615
40	185.87801694869995	pulse	0	t		38.0	2.5	/experiments/knapen_AOT/AOT_stimuli/rescaled_final/2035_fw.mp4	0.0	225.27356481552124	
40	186.7028660774231	movie	1		244	38.0	2.5	/experiments/knapen_AOT/AOT_stimuli/rescaled_final/2035_fw.mp4	0.0	226.09841394424438	2.5003550052642822
40	187.47811007499695	pulse	1	t		38.0	2.5	/experiments/knapen_AOT/AOT_stimuli/rescaled_final/2035_fw.mp4	0.0	226.87365794181824	
40	189.07838797569275	pulse	1	t		38.0	2.5	/experiments/knapen_AOT/AOT_stimuli/rescaled_final/2035_fw.mp4	0.0	228.47393584251404	
40	189.20322108268738	fix_post	2		12	38.0	2.5	/experiments/knapen_AOT/AOT_stimuli/rescaled_final/2035_fw.mp4	0.0	228.59876894950867	0.10000991821289062
41	189.30323100090027	fix_pre	0		119	39.0	2.5	/experiments/knapen_AOT/AOT_stimuli/rescaled_final/1978_rv.mp4	0.0	228.69877886772156	0.9918379783630371
41	190.2950689792633	movie	1		243	39.0	2.5	/experiments/knapen_AOT/AOT_stimuli/rescaled_final/1978_rv.mp4	0.0	229.6906168460846	2.5003440380096436
41	190.67933297157288	pulse	1	t		39.0	2.5	/experiments/knapen_AOT/AOT_stimuli/rescaled_final/1978_rv.mp4	0.0	230.07488083839417	
41	192.27897000312805	pulse	1	t		39.0	2.5	/experiments/knapen_AOT/AOT_stimuli/rescaled_final/1978_rv.mp4	0.0	231.67451786994934	
41	192.79541301727295	fix_post	2		12	39.0	2.5	/experiments/knapen_AOT/AOT_stimuli/rescaled_final/1978_rv.mp4	0.0	232.19096088409424	0.1000521183013916
42	192.89546513557434	fix_pre	0		119	40.0	2.5	/experiments/knapen_AOT/AOT_stimuli/rescaled_final/0941_fw.mp4	0.0	232.29101300239563	0.991811990737915
42	193.87918090820312	pulse	0	t		40.0	2.5	/experiments/knapen_AOT/AOT_stimuli/rescaled_final/0941_fw.mp4	0.0	233.2747287750244	
42	193.88727712631226	movie	1		246	40.0	2.5	/experiments/knapen_AOT/AOT_stimuli/rescaled_final/0941_fw.mp4	0.0	233.28282499313354	2.5086779594421387
42	195.47989797592163	pulse	1	t		40.0	2.5	/experiments/knapen_AOT/AOT_stimuli/rescaled_final/0941_fw.mp4	0.0	234.87544584274292	
42	196.3959550857544	fix_post	2		12	40.0	2.5	/experiments/knapen_AOT/AOT_stimuli/rescaled_final/0941_fw.mp4	0.0	235.79150295257568	0.10002803802490234
43	196.4959831237793	fix_pre	0		120	41.0	2.5	/experiments/knapen_AOT/AOT_stimuli/rescaled_final/1778_fw.mp4	0.0	235.8915309906006	1.0001599788665771
43	197.0795509815216	pulse	0	t		41.0	2.5	/experiments/knapen_AOT/AOT_stimuli/rescaled_final/1778_fw.mp4	0.0	236.4750988483429	
43	197.49614310264587	movie	1		244	41.0	2.5	/experiments/knapen_AOT/AOT_stimuli/rescaled_final/1778_fw.mp4	0.0	236.89169096946716	2.5003468990325928
43	198.68003106117249	pulse	1	t		41.0	2.5	/experiments/knapen_AOT/AOT_stimuli/rescaled_final/1778_fw.mp4	0.0	238.07557892799377	
43	199.99649000167847	fix_post	2		12	41.0	2.5	/experiments/knapen_AOT/AOT_stimuli/rescaled_final/1778_fw.mp4	0.0	239.39203786849976	0.09999990463256836
44	200.09648990631104	fix_pre	0		120	42.0	2.5	blank	1.0	239.49203777313232	1.0001862049102783
44	200.28018498420715	pulse	0	t		42.0	2.5	blank	1.0	239.67573285102844	
44	201.0966761112213	movie	1		300	42.0	2.5	blank	1.0	240.4922239780426	2.500370979309082
44	201.8802900314331	pulse	1	t		42.0	2.5	blank	1.0	241.2758378982544	
44	203.48049592971802	pulse	1	t		42.0	2.5	blank	1.0	242.8760437965393	
44	203.5970470905304	fix_post	2		9	42.0	2.5	blank	1.0	242.99259495735168	0.10003995895385742
45	203.69708704948425	fix_pre	0		120	43.0	2.5	/experiments/knapen_AOT/AOT_stimuli/rescaled_final/1919_rv.mp4	0.0	243.09263491630554	1.0000920295715332
45	204.6971790790558	movie	1		243	43.0	2.5	/experiments/knapen_AOT/AOT_stimuli/rescaled_final/1919_rv.mp4	0.0	244.09272694587708	2.4920449256896973
45	205.08196997642517	pulse	1	t		43.0	2.5	/experiments/knapen_AOT/AOT_stimuli/rescaled_final/1919_rv.mp4	0.0	244.47751784324646	
45	206.6810851097107	pulse	1	t		43.0	2.5	/experiments/knapen_AOT/AOT_stimuli/rescaled_final/1919_rv.mp4	0.0	246.07663297653198	
45	207.18922400474548	fix_post	2		12	43.0	2.5	/experiments/knapen_AOT/AOT_stimuli/rescaled_final/1919_rv.mp4	0.0	246.58477187156677	0.10002803802490234
46	207.28925204277039	fix_pre	0		120	44.0	2.5	/experiments/knapen_AOT/AOT_stimuli/rescaled_final/1051_rv.mp4	0.0	246.68479990959167	1.000133991241455
46	208.28131890296936	pulse	0	t		44.0	2.5	/experiments/knapen_AOT/AOT_stimuli/rescaled_final/1051_rv.mp4	0.0	247.67686676979065	
46	208.28938603401184	movie	1		245	44.0	2.5	/experiments/knapen_AOT/AOT_stimuli/rescaled_final/1051_rv.mp4	0.0	247.68493390083313	2.5087199211120605
46	209.88191103935242	pulse	1	t		44.0	2.5	/experiments/knapen_AOT/AOT_stimuli/rescaled_final/1051_rv.mp4	0.0	249.2774589061737	
46	210.7981059551239	fix_post	2		12	44.0	2.5	/experiments/knapen_AOT/AOT_stimuli/rescaled_final/1051_rv.mp4	0.0	250.1936538219452	0.10004997253417969
47	210.89815592765808	fix_pre	0		120	45.0	2.5	/experiments/knapen_AOT/AOT_stimuli/rescaled_final/0644_rv.mp4	0.0	250.29370379447937	1.0001821517944336
47	211.48181009292603	pulse	0	t		45.0	2.5	/experiments/knapen_AOT/AOT_stimuli/rescaled_final/0644_rv.mp4	0.0	250.87735795974731	
47	211.89833807945251	movie	1		243	45.0	2.5	/experiments/knapen_AOT/AOT_stimuli/rescaled_final/0644_rv.mp4	0.0	251.2938859462738	2.5003108978271484
47	213.08220911026	pulse	1	t		45.0	2.5	/experiments/knapen_AOT/AOT_stimuli/rescaled_final/0644_rv.mp4	0.0	252.4777569770813	
47	214.39864897727966	fix_post	2		12	45.0	2.5	/experiments/knapen_AOT/AOT_stimuli/rescaled_final/0644_rv.mp4	0.0	253.79419684410095	0.10002493858337402
48	214.49867391586304	fix_pre	0		120	46.0	2.5	/experiments/knapen_AOT/AOT_stimuli/rescaled_final/2141_fw.mp4	0.0	253.89422178268433	1.0001590251922607
48	214.68233799934387	pulse	0	t		46.0	2.5	/experiments/knapen_AOT/AOT_stimuli/rescaled_final/2141_fw.mp4	0.0	254.07788586616516	
48	215.4988329410553	movie	1		243	46.0	2.5	/experiments/knapen_AOT/AOT_stimuli/rescaled_final/2141_fw.mp4	0.0	254.8943808078766	2.5003740787506104
48	216.28251099586487	pulse	1	t		46.0	2.5	/experiments/knapen_AOT/AOT_stimuli/rescaled_final/2141_fw.mp4	0.0	255.67805886268616	
48	217.88259601593018	pulse	1	t		46.0	2.5	/experiments/knapen_AOT/AOT_stimuli/rescaled_final/2141_fw.mp4	0.0	257.27814388275146	
48	217.9992070198059	fix_post	2		12	46.0	2.5	/experiments/knapen_AOT/AOT_stimuli/rescaled_final/2141_fw.mp4	0.0	257.3947548866272	0.10003304481506348
49	218.09924006462097	fix_pre	0		120	47.0	2.5	/experiments/knapen_AOT/AOT_stimuli/rescaled_final/1115_rv.mp4	0.0	257.49478793144226	1.0000848770141602
49	219.09932494163513	movie	1		242	47.0	2.5	/experiments/knapen_AOT/AOT_stimuli/rescaled_final/1115_rv.mp4	0.0	258.4948728084564	2.4920380115509033
49	219.48335194587708	pulse	1	t		47.0	2.5	/experiments/knapen_AOT/AOT_stimuli/rescaled_final/1115_rv.mp4	0.0	258.87889981269836	
49	221.08318305015564	pulse	1	t		47.0	2.5	/experiments/knapen_AOT/AOT_stimuli/rescaled_final/1115_rv.mp4	0.0	260.47873091697693	
49	221.59136295318604	fix_post	2		12	47.0	2.5	/experiments/knapen_AOT/AOT_stimuli/rescaled_final/1115_rv.mp4	0.0	260.9869108200073	0.10002994537353516
50	221.69139289855957	fix_pre	0		120	48.0	2.5	blank	1.0	261.08694076538086	1.0001451969146729
50	222.68345308303833	pulse	0	t		48.0	2.5	blank	1.0	262.0790009498596	
50	222.69153809547424	movie	1		301	48.0	2.5	blank	1.0	262.08708596229553	2.508715867996216
50	224.28361105918884	pulse	1	t		48.0	2.5	blank	1.0	263.67915892601013	
50	225.20025396347046	fix_post	2		12	48.0	2.5	blank	1.0	264.59580183029175	0.10003805160522461
51	225.30029201507568	fix_pre	0		120	49.0	2.5	/experiments/knapen_AOT/AOT_stimuli/rescaled_final/1971_fw.mp4	0.0	264.695839881897	1.0001509189605713
51	225.88391709327698	pulse	0	t		49.0	2.5	/experiments/knapen_AOT/AOT_stimuli/rescaled_final/1971_fw.mp4	0.0	265.27946496009827	
51	226.30044293403625	movie	1		244	49.0	2.5	/experiments/knapen_AOT/AOT_stimuli/rescaled_final/1971_fw.mp4	0.0	265.69599080085754	2.500339984893799
51	227.48432803153992	pulse	1	t		49.0	2.5	/experiments/knapen_AOT/AOT_stimuli/rescaled_final/1971_fw.mp4	0.0	266.8798758983612	
51	228.80078291893005	fix_post	2		12	49.0	2.5	/experiments/knapen_AOT/AOT_stimuli/rescaled_final/1971_fw.mp4	0.0	268.19633078575134	0.10002708435058594
52	228.90081000328064	fix_pre	0		120	50.0	2.5	/experiments/knapen_AOT/AOT_stimuli/rescaled_final/1021_fw.mp4	0.0	268.29635787010193	1.0001420974731445
52	229.08459091186523	pulse	0	t		50.0	2.5	/experiments/knapen_AOT/AOT_stimuli/rescaled_final/1021_fw.mp4	0.0	268.4801387786865	
52	229.90095210075378	movie	1		244	50.0	2.5	/experiments/knapen_AOT/AOT_stimuli/rescaled_final/1021_fw.mp4	0.0	269.2964999675751	2.500422954559326
52	230.68454504013062	pulse	1	t		50.0	2.5	/experiments/knapen_AOT/AOT_stimuli/rescaled_final/1021_fw.mp4	0.0	270.0800929069519	
52	232.28480005264282	pulse	1	t		50.0	2.5	/experiments/knapen_AOT/AOT_stimuli/rescaled_final/1021_fw.mp4	0.0	271.6803479194641	
52	232.4013750553131	fix_post	2		12	50.0	2.5	/experiments/knapen_AOT/AOT_stimuli/rescaled_final/1021_fw.mp4	0.0	271.7969229221344	0.09996604919433594
53	232.50134110450745	fix_pre	0		120	51.0	2.5	/experiments/knapen_AOT/AOT_stimuli/rescaled_final/0041_fw.mp4	0.0	271.89688897132874	1.0001509189605713
53	233.50149202346802	movie	1		246	51.0	2.5	/experiments/knapen_AOT/AOT_stimuli/rescaled_final/0041_fw.mp4	0.0	272.8970398902893	2.492033004760742
53	233.8855700492859	pulse	1	t		51.0	2.5	/experiments/knapen_AOT/AOT_stimuli/rescaled_final/0041_fw.mp4	0.0	273.2811179161072	
53	235.4780149459839	pulse	1	t		51.0	2.5	/experiments/knapen_AOT/AOT_stimuli/rescaled_final/0041_fw.mp4	0.0	274.8735628128052	
53	235.99352502822876	fix_post	2		12	51.0	2.5	/experiments/knapen_AOT/AOT_stimuli/rescaled_final/0041_fw.mp4	0.0	275.38907289505005	0.10002493858337402
54	236.09354996681213	fix_pre	0		120	52.0	2.5	/experiments/knapen_AOT/AOT_stimuli/rescaled_final/1999_fw.mp4	0.0	275.4890978336334	1.000169038772583
54	237.0780680179596	pulse	0	t		52.0	2.5	/experiments/knapen_AOT/AOT_stimuli/rescaled_final/1999_fw.mp4	0.0	276.4736158847809	
54	237.09371900558472	movie	1		244	52.0	2.5	/experiments/knapen_AOT/AOT_stimuli/rescaled_final/1999_fw.mp4	0.0	276.489266872406	2.508687973022461
54	238.68633890151978	pulse	1	t		52.0	2.5	/experiments/knapen_AOT/AOT_stimuli/rescaled_final/1999_fw.mp4	0.0	278.08188676834106	
54	239.60240697860718	fix_post	2		12	52.0	2.5	/experiments/knapen_AOT/AOT_stimuli/rescaled_final/1999_fw.mp4	0.0	278.99795484542847	0.10004401206970215
55	239.70245099067688	fix_pre	0		120	53.0	2.5	/experiments/knapen_AOT/AOT_stimuli/rescaled_final/0649_fw.mp4	0.0	279.09799885749817	1.0001180171966553
55	240.2777020931244	pulse	0	t		53.0	2.5	/experiments/knapen_AOT/AOT_stimuli/rescaled_final/0649_fw.mp4	0.0	279.6732499599457	
55	240.70256900787354	movie	1		244	53.0	2.5	/experiments/knapen_AOT/AOT_stimuli/rescaled_final/0649_fw.mp4	0.0	280.0981168746948	2.500411033630371
55	241.87845611572266	pulse	1	t		53.0	2.5	/experiments/knapen_AOT/AOT_stimuli/rescaled_final/0649_fw.mp4	0.0	281.27400398254395	
55	243.2029800415039	fix_post	2		12	53.0	2.5	/experiments/knapen_AOT/AOT_stimuli/rescaled_final/0649_fw.mp4	0.0	282.5985279083252	0.09996795654296875
56	243.30294799804688	fix_pre	0		120	54.0	2.5	/experiments/knapen_AOT/AOT_stimuli/rescaled_final/1550_rv.mp4	0.0	282.69849586486816	1.00018310546875
56	243.47827696800232	pulse	0	t		54.0	2.5	/experiments/knapen_AOT/AOT_stimuli/rescaled_final/1550_rv.mp4	0.0	282.8738248348236	
56	244.30313110351562	movie	1		245	54.0	2.5	/experiments/knapen_AOT/AOT_stimuli/rescaled_final/1550_rv.mp4	0.0	283.6986789703369	2.500321865081787
56	245.07845997810364	pulse	1	t		54.0	2.5	/experiments/knapen_AOT/AOT_stimuli/rescaled_final/1550_rv.mp4	0.0	284.4740078449249	
56	246.6785910129547	pulse	1	t		54.0	2.5	/experiments/knapen_AOT/AOT_stimuli/rescaled_final/1550_rv.mp4	0.0	286.074138879776	
56	246.8034529685974	fix_post	2		11	54.0	2.5	/experiments/knapen_AOT/AOT_stimuli/rescaled_final/1550_rv.mp4	0.0	286.1990008354187	0.09174895286560059
57	246.895201921463	fix_pre	0		120	55.0	2.5	blank	1.0	286.2907497882843	1.000133991241455
57	247.89533591270447	movie	1		300	55.0	2.5	blank	1.0	287.29088377952576	2.500343084335327
57	248.27889394760132	pulse	1	t		55.0	2.5	blank	1.0	287.6744418144226	
57	249.87910509109497	pulse	1	t		55.0	2.5	blank	1.0	289.27465295791626	
57	250.3956789970398	fix_post	2		12	55.0	2.5	blank	1.0	289.7912268638611	0.10006594657897949
58	250.49574494361877	fix_pre	0		119	56.0	2.5	/experiments/knapen_AOT/AOT_stimuli/rescaled_final/2068_fw.mp4	0.0	289.89129281044006	0.9917571544647217
58	251.4794569015503	pulse	0	t		56.0	2.5	/experiments/knapen_AOT/AOT_stimuli/rescaled_final/2068_fw.mp4	0.0	290.8750047683716	
58	251.4875020980835	movie	1		245	56.0	2.5	/experiments/knapen_AOT/AOT_stimuli/rescaled_final/2068_fw.mp4	0.0	290.8830499649048	2.5087039470672607
58	253.08046698570251	pulse	1	t		56.0	2.5	/experiments/knapen_AOT/AOT_stimuli/rescaled_final/2068_fw.mp4	0.0	292.4760148525238	
58	253.99620604515076	fix_post	2		12	56.0	2.5	/experiments/knapen_AOT/AOT_stimuli/rescaled_final/2068_fw.mp4	0.0	293.39175391197205	0.10001206398010254
59	254.09621810913086	fix_pre	0		120	57.0	2.5	/experiments/knapen_AOT/AOT_stimuli/rescaled_final/1200_fw.mp4	0.0	293.49176597595215	1.0001838207244873
59	254.6799120903015	pulse	0	t		57.0	2.5	/experiments/knapen_AOT/AOT_stimuli/rescaled_final/1200_fw.mp4	0.0	294.0754599571228	
59	255.09640192985535	movie	1		243	57.0	2.5	/experiments/knapen_AOT/AOT_stimuli/rescaled_final/1200_fw.mp4	0.0	294.49194979667664	2.5003461837768555
59	256.28018498420715	pulse	1	t		57.0	2.5	/experiments/knapen_AOT/AOT_stimuli/rescaled_final/1200_fw.mp4	0.0	295.67573285102844	
59	257.5967481136322	fix_post	2		12	57.0	2.5	/experiments/knapen_AOT/AOT_stimuli/rescaled_final/1200_fw.mp4	0.0	296.9922959804535	0.10005593299865723
60	257.69680404663086	fix_pre	0		120	58.0	2.5	/experiments/knapen_AOT/AOT_stimuli/rescaled_final/1740_rv.mp4	0.0	297.09235191345215	1.0001039505004883
60	257.88031792640686	pulse	0	t		58.0	2.5	/experiments/knapen_AOT/AOT_stimuli/rescaled_final/1740_rv.mp4	0.0	297.27586579322815	
60	258.69690799713135	movie	1		243	58.0	2.5	/experiments/knapen_AOT/AOT_stimuli/rescaled_final/1740_rv.mp4	0.0	298.09245586395264	2.500375986099243
60	259.4805669784546	pulse	1	t		58.0	2.5	/experiments/knapen_AOT/AOT_stimuli/rescaled_final/1740_rv.mp4	0.0	298.8761148452759	
60	261.08097791671753	pulse	1	t		58.0	2.5	/experiments/knapen_AOT/AOT_stimuli/rescaled_final/1740_rv.mp4	0.0	300.4765257835388	
60	261.1972839832306	fix_post	2		12	58.0	2.5	/experiments/knapen_AOT/AOT_stimuli/rescaled_final/1740_rv.mp4	0.0	300.5928318500519	0.10004305839538574
61	261.297327041626	fix_pre	0		120	59.0	2.5	/experiments/knapen_AOT/AOT_stimuli/rescaled_final/0992_rv.mp4	0.0	300.69287490844727	1.0001389980316162
61	262.2974660396576	movie	1		238	59.0	2.5	/experiments/knapen_AOT/AOT_stimuli/rescaled_final/0992_rv.mp4	0.0	301.6930139064789	2.4920520782470703
61	262.6825261116028	pulse	1	t		59.0	2.5	/experiments/knapen_AOT/AOT_stimuli/rescaled_final/0992_rv.mp4	0.0	302.0780739784241	
61	264.281436920166	pulse	1	t		59.0	2.5	/experiments/knapen_AOT/AOT_stimuli/rescaled_final/0992_rv.mp4	0.0	303.6769847869873	
61	264.78951811790466	fix_post	2		12	59.0	2.5	/experiments/knapen_AOT/AOT_stimuli/rescaled_final/0992_rv.mp4	0.0	304.18506598472595	0.09998798370361328
62	264.8895061016083	fix_pre	0		120	60.0	2.5	/experiments/knapen_AOT/AOT_stimuli/rescaled_final/1971_rv.mp4	0.0	304.28505396842957	1.000173807144165
62	265.88151001930237	pulse	0	t		60.0	2.5	/experiments/knapen_AOT/AOT_stimuli/rescaled_final/1971_rv.mp4	0.0	305.27705788612366	
62	265.88967990875244	movie	1		245	60.0	2.5	/experiments/knapen_AOT/AOT_stimuli/rescaled_final/1971_rv.mp4	0.0	305.28522777557373	2.508679151535034
62	267.48259592056274	pulse	1	t		60.0	2.5	/experiments/knapen_AOT/AOT_stimuli/rescaled_final/1971_rv.mp4	0.0	306.87814378738403	
62	268.3983590602875	fix_post	2		12	60.0	2.5	/experiments/knapen_AOT/AOT_stimuli/rescaled_final/1971_rv.mp4	0.0	307.79390692710876	0.10001707077026367
63	268.49837613105774	fix_pre	0		120	61.0	2.5	/experiments/knapen_AOT/AOT_stimuli/rescaled_final/0292_fw.mp4	0.0	307.893923997879	1.0001659393310547
63	269.082053899765	pulse	0	t		61.0	2.5	/experiments/knapen_AOT/AOT_stimuli/rescaled_final/0292_fw.mp4	0.0	308.4776017665863	
63	269.4985420703888	movie	1		245	61.0	2.5	/experiments/knapen_AOT/AOT_stimuli/rescaled_final/0292_fw.mp4	0.0	308.8940899372101	2.5004189014434814
63	270.68232893943787	pulse	1	t		61.0	2.5	/experiments/knapen_AOT/AOT_stimuli/rescaled_final/0292_fw.mp4	0.0	310.07787680625916	
63	271.9989609718323	fix_post	2		12	61.0	2.5	/experiments/knapen_AOT/AOT_stimuli/rescaled_final/0292_fw.mp4	0.0	311.39450883865356	0.10000205039978027
64	272.09896302223206	fix_pre	0		120	62.0	2.5	blank	1.0	311.49451088905334	1.000082015991211
64	272.28250098228455	pulse	0	t		62.0	2.5	blank	1.0	311.67804884910583	
64	273.09904503822327	movie	1		300	62.0	2.5	blank	1.0	312.49459290504456	2.500422954559326
64	273.8826689720154	pulse	1	t		62.0	2.5	blank	1.0	313.27821683883667	
64	275.4830241203308	pulse	1	t		62.0	2.5	blank	1.0	314.8785719871521	
64	275.5994679927826	fix_post	2		12	62.0	2.5	blank	1.0	314.9950158596039	0.09997701644897461
65	275.69944500923157	fix_pre	0		119	63.0	2.5	/experiments/knapen_AOT/AOT_stimuli/rescaled_final/1997_rv.mp4	0.0	315.09499287605286	0.9918620586395264
65	276.6913070678711	movie	1		243	63.0	2.5	/experiments/knapen_AOT/AOT_stimuli/rescaled_final/1997_rv.mp4	0.0	316.0868549346924	2.5004329681396484
65	277.08328795433044	pulse	1	t		63.0	2.5	/experiments/knapen_AOT/AOT_stimuli/rescaled_final/1997_rv.mp4	0.0	316.47883582115173	
65	278.68343901634216	pulse	1	t		63.0	2.5	/experiments/knapen_AOT/AOT_stimuli/rescaled_final/1997_rv.mp4	0.0	318.07898688316345	
65	279.19174003601074	fix_post	2		12	63.0	2.5	/experiments/knapen_AOT/AOT_stimuli/rescaled_final/1997_rv.mp4	0.0	318.58728790283203	0.09999203681945801
66	279.2917320728302	fix_pre	0		120	64.0	2.5	/experiments/knapen_AOT/AOT_stimuli/rescaled_final/1528_rv.mp4	0.0	318.6872799396515	1.0001029968261719
66	280.2836010456085	pulse	0	t		64.0	2.5	/experiments/knapen_AOT/AOT_stimuli/rescaled_final/1528_rv.mp4	0.0	319.6791489124298	
66	280.2918350696564	movie	1		248	64.0	2.5	/experiments/knapen_AOT/AOT_stimuli/rescaled_final/1528_rv.mp4	0.0	319.68738293647766	2.508678913116455
66	281.88447403907776	pulse	1	t		64.0	2.5	/experiments/knapen_AOT/AOT_stimuli/rescaled_final/1528_rv.mp4	0.0	321.28002190589905	
66	282.8005139827728	fix_post	2		12	64.0	2.5	/experiments/knapen_AOT/AOT_stimuli/rescaled_final/1528_rv.mp4	0.0	322.1960618495941	0.10001897811889648
67	282.9005329608917	fix_pre	0		120	65.0	2.5	/experiments/knapen_AOT/AOT_stimuli/rescaled_final/1045_fw.mp4	0.0	322.296080827713	1.0001440048217773
67	283.48420310020447	pulse	0	t		65.0	2.5	/experiments/knapen_AOT/AOT_stimuli/rescaled_final/1045_fw.mp4	0.0	322.87975096702576	
67	283.9006769657135	movie	1		244	65.0	2.5	/experiments/knapen_AOT/AOT_stimuli/rescaled_final/1045_fw.mp4	0.0	323.2962248325348	2.5003840923309326
67	285.08443212509155	pulse	1	t		65.0	2.5	/experiments/knapen_AOT/AOT_stimuli/rescaled_final/1045_fw.mp4	0.0	324.47997999191284	
67	286.40106105804443	fix_post	2		12	65.0	2.5	/experiments/knapen_AOT/AOT_stimuli/rescaled_final/1045_fw.mp4	0.0	325.7966089248657	0.10006189346313477
68	286.50112295150757	fix_pre	0		120	66.0	2.5	/experiments/knapen_AOT/AOT_stimuli/rescaled_final/0864_fw.mp4	0.0	325.89667081832886	1.0000970363616943
68	286.6845750808716	pulse	0	t		66.0	2.5	/experiments/knapen_AOT/AOT_stimuli/rescaled_final/0864_fw.mp4	0.0	326.08012294769287	
68	287.50121998786926	movie	1		244	66.0	2.5	/experiments/knapen_AOT/AOT_stimuli/rescaled_final/0864_fw.mp4	0.0	326.89676785469055	2.5003600120544434
68	288.28494691848755	pulse	1	t		66.0	2.5	/experiments/knapen_AOT/AOT_stimuli/rescaled_final/0864_fw.mp4	0.0	327.68049478530884	
68	289.88531494140625	pulse	1	t		66.0	2.5	/experiments/knapen_AOT/AOT_stimuli/rescaled_final/0864_fw.mp4	0.0	329.28086280822754	
68	290.0015799999237	fix_post	2		12	66.0	2.5	/experiments/knapen_AOT/AOT_stimuli/rescaled_final/0864_fw.mp4	0.0	329.397127866745	0.10001707077026367
69	290.10159707069397	fix_pre	0		119	67.0	2.5	/experiments/knapen_AOT/AOT_stimuli/rescaled_final/2068_fw.mp4	0.0	329.49714493751526	0.9918229579925537
69	291.0934200286865	movie	1		244	67.0	2.5	/experiments/knapen_AOT/AOT_stimuli/rescaled_final/2068_fw.mp4	0.0	330.4889678955078	2.50039005279541
69	291.48544096946716	pulse	1	t		67.0	2.5	/experiments/knapen_AOT/AOT_stimuli/rescaled_final/2068_fw.mp4	0.0	330.88098883628845	
69	293.07833099365234	pulse	1	t		67.0	2.5	/experiments/knapen_AOT/AOT_stimuli/rescaled_final/2068_fw.mp4	0.0	332.47387886047363	
69	293.59381008148193	fix_post	2		12	67.0	2.5	/experiments/knapen_AOT/AOT_stimuli/rescaled_final/2068_fw.mp4	0.0	332.9893579483032	0.10000085830688477
70	293.6938109397888	fix_pre	0		120	68.0	2.5	blank	1.0	333.0893588066101	1.0001511573791504
70	294.67823600769043	pulse	0	t		68.0	2.5	blank	1.0	334.0737838745117	
70	294.69396209716797	movie	1		301	68.0	2.5	blank	1.0	334.08950996398926	2.508699893951416
70	296.27855491638184	pulse	1	t		68.0	2.5	blank	1.0	335.6741027832031	
70	297.2026619911194	fix_post	2		12	68.0	2.5	blank	1.0	336.5982098579407	0.10000491142272949
71	297.3026669025421	fix_pre	0		120	69.0	2.5	/experiments/knapen_AOT/AOT_stimuli/rescaled_final/1722_fw.mp4	0.0	336.6982147693634	1.0001680850982666
71	297.87881803512573	pulse	0	t		69.0	2.5	/experiments/knapen_AOT/AOT_stimuli/rescaled_final/1722_fw.mp4	0.0	337.274365901947	
71	298.3028349876404	movie	1		243	69.0	2.5	/experiments/knapen_AOT/AOT_stimuli/rescaled_final/1722_fw.mp4	0.0	337.69838285446167	2.500425100326538
71	299.4790461063385	pulse	1	t		69.0	2.5	/experiments/knapen_AOT/AOT_stimuli/rescaled_final/1722_fw.mp4	0.0	338.8745939731598	
71	300.8032600879669	fix_post	2		12	69.0	2.5	/experiments/knapen_AOT/AOT_stimuli/rescaled_final/1722_fw.mp4	0.0	340.1988079547882	0.09999489784240723
72	300.9032549858093	fix_pre	0		120	70.0	2.5	/experiments/knapen_AOT/AOT_stimuli/rescaled_final/1089_rv.mp4	0.0	340.2988028526306	1.0001449584960938
72	301.07842898368835	pulse	0	t		70.0	2.5	/experiments/knapen_AOT/AOT_stimuli/rescaled_final/1089_rv.mp4	0.0	340.47397685050964	
72	301.9033999443054	movie	1		245	70.0	2.5	/experiments/knapen_AOT/AOT_stimuli/rescaled_final/1089_rv.mp4	0.0	341.2989478111267	2.5003349781036377
72	302.67860293388367	pulse	1	t		70.0	2.5	/experiments/knapen_AOT/AOT_stimuli/rescaled_final/1089_rv.mp4	0.0	342.07415080070496	
72	304.27898502349854	pulse	1	t		70.0	2.5	/experiments/knapen_AOT/AOT_stimuli/rescaled_final/1089_rv.mp4	0.0	343.6745328903198	
72	304.40373492240906	fix_post	2		12	70.0	2.5	/experiments/knapen_AOT/AOT_stimuli/rescaled_final/1089_rv.mp4	0.0	343.79928278923035	0.1000220775604248
73	304.5037569999695	fix_pre	0		120	71.0	2.5	/experiments/knapen_AOT/AOT_stimuli/rescaled_final/1285_rv.mp4	0.0	343.89930486679077	1.0001320838928223
73	305.5038890838623	movie	1		243	71.0	2.5	/experiments/knapen_AOT/AOT_stimuli/rescaled_final/1285_rv.mp4	0.0	344.8994369506836	2.4920599460601807
73	305.8791310787201	pulse	1	t		71.0	2.5	/experiments/knapen_AOT/AOT_stimuli/rescaled_final/1285_rv.mp4	0.0	345.2746789455414	
73	307.47951102256775	pulse	1	t		71.0	2.5	/experiments/knapen_AOT/AOT_stimuli/rescaled_final/1285_rv.mp4	0.0	346.87505888938904	
73	307.9959490299225	fix_post	2		12	71.0	2.5	/experiments/knapen_AOT/AOT_stimuli/rescaled_final/1285_rv.mp4	0.0	347.3914968967438	0.10002994537353516
74	308.095978975296	fix_pre	0		119	72.0	2.5	/experiments/knapen_AOT/AOT_stimuli/rescaled_final/0381_fw.mp4	0.0	347.4915268421173	0.9918150901794434
74	309.0795810222626	pulse	0	t		72.0	2.5	/experiments/knapen_AOT/AOT_stimuli/rescaled_final/0381_fw.mp4	0.0	348.47512888908386	
74	309.08779406547546	movie	1		247	72.0	2.5	/experiments/knapen_AOT/AOT_stimuli/rescaled_final/0381_fw.mp4	0.0	348.48334193229675	2.5086779594421387
74	310.68046402931213	pulse	1	t		72.0	2.5	/experiments/knapen_AOT/AOT_stimuli/rescaled_final/0381_fw.mp4	0.0	350.0760118961334	
74	311.5964720249176	fix_post	2		12	72.0	2.5	/experiments/knapen_AOT/AOT_stimuli/rescaled_final/0381_fw.mp4	0.0	350.9920198917389	0.10001206398010254
75	311.6964840888977	fix_pre	0		120	73.0	2.5	/experiments/knapen_AOT/AOT_stimuli/rescaled_final/0307_rv.mp4	0.0	351.092031955719	1.000216007232666
75	312.2801079750061	pulse	0	t		73.0	2.5	/experiments/knapen_AOT/AOT_stimuli/rescaled_final/0307_rv.mp4	0.0	351.6756558418274	
75	312.69670009613037	movie	1		244	73.0	2.5	/experiments/knapen_AOT/AOT_stimuli/rescaled_final/0307_rv.mp4	0.0	352.09224796295166	2.5003440380096436
75	313.8804440498352	pulse	1	t		73.0	2.5	/experiments/knapen_AOT/AOT_stimuli/rescaled_final/0307_rv.mp4	0.0	353.2759919166565	
75	315.19704413414	fix_post	2		12	73.0	2.5	/experiments/knapen_AOT/AOT_stimuli/rescaled_final/0307_rv.mp4	0.0	354.5925920009613	0.1000208854675293
76	315.29706501960754	fix_pre	0		120	74.0	2.5	/experiments/knapen_AOT/AOT_stimuli/rescaled_final/0560_rv.mp4	0.0	354.69261288642883	1.0001599788665771
76	315.48057198524475	pulse	0	t		74.0	2.5	/experiments/knapen_AOT/AOT_stimuli/rescaled_final/0560_rv.mp4	0.0	354.87611985206604	
76	316.2972249984741	movie	1		245	74.0	2.5	/experiments/knapen_AOT/AOT_stimuli/rescaled_final/0560_rv.mp4	0.0	355.6927728652954	2.500308036804199
76	317.0809209346771	pulse	1	t		74.0	2.5	/experiments/knapen_AOT/AOT_stimuli/rescaled_final/0560_rv.mp4	0.0	356.4764688014984	
76	318.6811430454254	pulse	1	t		74.0	2.5	/experiments/knapen_AOT/AOT_stimuli/rescaled_final/0560_rv.mp4	0.0	358.0766909122467	
76	318.7975330352783	fix_post	2		12	74.0	2.5	/experiments/knapen_AOT/AOT_stimuli/rescaled_final/0560_rv.mp4	0.0	358.1930809020996	0.10004305839538574
77	318.8975760936737	fix_pre	0		119	75.0	2.5	/experiments/knapen_AOT/AOT_stimuli/rescaled_final/0919_fw.mp4	0.0	358.293123960495	0.9918019771575928
77	319.8893780708313	movie	1		243	75.0	2.5	/experiments/knapen_AOT/AOT_stimuli/rescaled_final/0919_fw.mp4	0.0	359.2849259376526	2.5003809928894043
77	320.2814829349518	pulse	1	t		75.0	2.5	/experiments/knapen_AOT/AOT_stimuli/rescaled_final/0919_fw.mp4	0.0	359.67703080177307	
77	321.88153195381165	pulse	1	t		75.0	2.5	/experiments/knapen_AOT/AOT_stimuli/rescaled_final/0919_fw.mp4	0.0	361.27707982063293	
77	322.3897590637207	fix_post	2		12	75.0	2.5	/experiments/knapen_AOT/AOT_stimuli/rescaled_final/0919_fw.mp4	0.0	361.785306930542	0.10004401206970215
78	322.4898030757904	fix_pre	0		117	76.0	2.5	/experiments/knapen_AOT/AOT_stimuli/rescaled_final/1692_fw.mp4	0.0	361.8853509426117	1.0001070499420166
78	323.4817440509796	pulse	0	t		76.0	2.5	/experiments/knapen_AOT/AOT_stimuli/rescaled_final/1692_fw.mp4	0.0	362.8772919178009	
78	323.4899101257324	movie	1		244	76.0	2.5	/experiments/knapen_AOT/AOT_stimuli/rescaled_final/1692_fw.mp4	0.0	362.8854579925537	2.508697986602783
78	325.08278608322144	pulse	1	t		76.0	2.5	/experiments/knapen_AOT/AOT_stimuli/rescaled_final/1692_fw.mp4	0.0	364.4783339500427	
78	325.9986081123352	fix_post	2		12	76.0	2.5	/experiments/knapen_AOT/AOT_stimuli/rescaled_final/1692_fw.mp4	0.0	365.3941559791565	0.1000368595123291
79	326.09864497184753	fix_pre	0		120	77.0	2.5	blank	1.0	365.4941928386688	1.00018310546875
79	326.6823229789734	pulse	0	t		77.0	2.5	blank	1.0	366.0778708457947	
79	327.0988280773163	movie	1		300	77.0	2.5	blank	1.0	366.4943759441376	2.5003559589385986
79	328.2824881076813	pulse	1	t		77.0	2.5	blank	1.0	367.67803597450256	
79	329.5991840362549	fix_post	2		12	77.0	2.5	blank	1.0	368.9947319030762	0.10003900527954102
80	329.6992230415344	fix_pre	0		120	78.0	2.5	/experiments/knapen_AOT/AOT_stimuli/rescaled_final/0577_rv.mp4	0.0	369.0947709083557	1.0001449584960938
80	329.88285994529724	pulse	0	t		78.0	2.5	/experiments/knapen_AOT/AOT_stimuli/rescaled_final/0577_rv.mp4	0.0	369.27840781211853	
80	330.6993680000305	movie	1		243	78.0	2.5	/experiments/knapen_AOT/AOT_stimuli/rescaled_final/0577_rv.mp4	0.0	370.0949158668518	2.5003209114074707
80	331.48310804367065	pulse	1	t		78.0	2.5	/experiments/knapen_AOT/AOT_stimuli/rescaled_final/0577_rv.mp4	0.0	370.87865591049194	
80	333.0831730365753	pulse	1	t		78.0	2.5	/experiments/knapen_AOT/AOT_stimuli/rescaled_final/0577_rv.mp4	0.0	372.4787209033966	
80	333.199688911438	fix_post	2		12	78.0	2.5	/experiments/knapen_AOT/AOT_stimuli/rescaled_final/0577_rv.mp4	0.0	372.5952367782593	0.10006213188171387
81	333.2997510433197	fix_pre	0		119	79.0	2.5	/experiments/knapen_AOT/AOT_stimuli/rescaled_final/0122_rv.mp4	0.0	372.695298910141	0.9917969703674316
81	334.29154801368713	movie	1		243	79.0	2.5	/experiments/knapen_AOT/AOT_stimuli/rescaled_final/0122_rv.mp4	0.0	373.6870958805084	2.5003929138183594
81	334.68359208106995	pulse	1	t		79.0	2.5	/experiments/knapen_AOT/AOT_stimuli/rescaled_final/0122_rv.mp4	0.0	374.07913994789124	
81	336.28371596336365	pulse	1	t		79.0	2.5	/experiments/knapen_AOT/AOT_stimuli/rescaled_final/0122_rv.mp4	0.0	375.67926383018494	
81	336.7919409275055	fix_post	2		12	79.0	2.5	/experiments/knapen_AOT/AOT_stimuli/rescaled_final/0122_rv.mp4	0.0	376.1874887943268	0.10004997253417969
82	336.8919909000397	fix_pre	0		120	80.0	2.5	/experiments/knapen_AOT/AOT_stimuli/rescaled_final/2142_rv.mp4	0.0	376.28753876686096	1.0000710487365723
82	337.8839340209961	pulse	0	t		80.0	2.5	/experiments/knapen_AOT/AOT_stimuli/rescaled_final/2142_rv.mp4	0.0	377.2794818878174	
82	337.89206194877625	movie	1		245	80.0	2.5	/experiments/knapen_AOT/AOT_stimuli/rescaled_final/2142_rv.mp4	0.0	377.28760981559753	2.5086991786956787
82	339.48474311828613	pulse	1	t		80.0	2.5	/experiments/knapen_AOT/AOT_stimuli/rescaled_final/2142_rv.mp4	0.0	378.8802909851074	
82	340.4007611274719	fix_post	2		12	80.0	2.5	/experiments/knapen_AOT/AOT_stimuli/rescaled_final/2142_rv.mp4	0.0	379.7963089942932	0.10000491142272949
83	340.50076603889465	fix_pre	0		120	81.0	2.5	/experiments/knapen_AOT/AOT_stimuli/rescaled_final/0463_fw.mp4	0.0	379.89631390571594	1.0002310276031494
83	341.08448100090027	pulse	0	t		81.0	2.5	/experiments/knapen_AOT/AOT_stimuli/rescaled_final/0463_fw.mp4	0.0	380.48002886772156	
83	341.5009970664978	movie	1		244	81.0	2.5	/experiments/knapen_AOT/AOT_stimuli/rescaled_final/0463_fw.mp4	0.0	380.8965449333191	2.500316858291626
83	342.6847059726715	pulse	1	t		81.0	2.5	/experiments/knapen_AOT/AOT_stimuli/rescaled_final/0463_fw.mp4	0.0	382.0802538394928	
83	344.00131392478943	fix_post	2		12	81.0	2.5	/experiments/knapen_AOT/AOT_stimuli/rescaled_final/0463_fw.mp4	0.0	383.3968617916107	0.10000801086425781
84	344.1013219356537	fix_pre	0		120	82.0	2.5	blank	1.0	383.496869802475	1.0001530647277832
84	344.28491497039795	pulse	0	t		82.0	2.5	blank	1.0	383.68046283721924	
84	345.10147500038147	movie	1		300	82.0	2.5	blank	1.0	384.49702286720276	2.5003840923309326
84	345.88519406318665	pulse	1	t		82.0	2.5	blank	1.0	385.28074193000793	
84	347.47775197029114	pulse	1	t		82.0	2.5	blank	1.0	386.8732998371124	
84	347.6018590927124	fix_post	2		12	82.0	2.5	blank	1.0	386.9974069595337	0.1000528335571289
85	347.70191192626953	fix_pre	0		120	83.0	2.5	/experiments/knapen_AOT/AOT_stimuli/rescaled_final/2118_rv.mp4	0.0	387.0974597930908	1.0000901222229004
85	348.70200204849243	movie	1		244	83.0	2.5	/experiments/knapen_AOT/AOT_stimuli/rescaled_final/2118_rv.mp4	0.0	388.0975499153137	2.49208402633667
85	349.0861270427704	pulse	1	t		83.0	2.5	/experiments/knapen_AOT/AOT_stimuli/rescaled_final/2118_rv.mp4	0.0	388.4816749095917	
85	350.67849612236023	pulse	1	t		83.0	2.5	/experiments/knapen_AOT/AOT_stimuli/rescaled_final/2118_rv.mp4	0.0	390.0740439891815	
85	351.1940860748291	fix_post	2		12	83.0	2.5	/experiments/knapen_AOT/AOT_stimuli/rescaled_final/2118_rv.mp4	0.0	390.5896339416504	0.10001683235168457
87	351.2941029071808	stim	0		1716					390.6896507740021	14.302159070968628
87	352.27862095832825	pulse	0	t						391.67416882514954	
87	353.877907037735	pulse	0	t						393.2734549045563	
87	355.4781880378723	pulse	0	t						394.8737359046936	
87	357.0784890651703	pulse	0	t						396.4740369319916	
87	358.6786239147186	pulse	0	t						398.0741717815399	
87	360.27893900871277	pulse	0	t						399.67448687553406	
87	361.87909603118896	pulse	0	t						401.27464389801025	
87	363.47933197021484	pulse	0	t						402.87487983703613	
87	365.07960295677185	pulse	0	t						404.47515082359314	
