trial_nr	onset	event_type	phase	response	nr_frames	movie_index	movie_duration	movie_file	blank	onset_abs	duration
0	0.20815491676330566	stim	0		18					21.89583396911621	0.15001511573791504
0	0.35015106201171875	response	0	space						22.037830114364624	
1	0.3581700325012207	stim	0		4525					22.045849084854126	37.72344994544983
1	38.07170295715332	pulse	0	t						59.759382009506226	
1	38.08161997795105	stim	1		1715					59.769299030303955	14.300879001617432
1	39.66422486305237	pulse	1	t						61.35190391540527	
1	41.264508962631226	pulse	1	t						62.95218801498413	
1	42.864569902420044	pulse	1	t						64.55224895477295	
1	44.464853048324585	pulse	1	t						66.15253210067749	
1	46.0651490688324	pulse	1	t						67.7528281211853	
1	47.66536092758179	pulse	1	t						69.35303997993469	
1	49.26556897163391	pulse	1	t						70.95324802398682	
1	50.865803956985474	pulse	1	t						72.55348300933838	
2	52.38249897956848	fix_pre	0		11	0.0	2.5	/experiments/knapen_AOT/AOT_stimuli/rescaled_final/1860_rv.mp4	0.0	74.07017803192139	0.09172487258911133
2	52.46606683731079	pulse	0	t		0.0	2.5	/experiments/knapen_AOT/AOT_stimuli/rescaled_final/1860_rv.mp4	0.0	74.1537458896637	
2	52.47422385215759	movie	1		244	0.0	2.5	/experiments/knapen_AOT/AOT_stimuli/rescaled_final/1860_rv.mp4	0.0	74.1619029045105	2.508665084838867
2	54.06686091423035	pulse	1	t		0.0	2.5	/experiments/knapen_AOT/AOT_stimuli/rescaled_final/1860_rv.mp4	0.0	75.75453996658325	
2	54.98288893699646	fix_post	2		12	0.0	2.5	/experiments/knapen_AOT/AOT_stimuli/rescaled_final/1860_rv.mp4	0.0	76.67056798934937	0.10000896453857422
3	55.082897901535034	fix_pre	0		120	1.0	2.5	/experiments/knapen_AOT/AOT_stimuli/rescaled_final/1110_rv.mp4	0.0	76.77057695388794	1.0001599788665771
3	55.66659688949585	pulse	0	t		1.0	2.5	/experiments/knapen_AOT/AOT_stimuli/rescaled_final/1110_rv.mp4	0.0	77.35427594184875	
3	56.08305788040161	movie	1		244	1.0	2.5	/experiments/knapen_AOT/AOT_stimuli/rescaled_final/1110_rv.mp4	0.0	77.77073693275452	2.500373125076294
3	57.266902923583984	pulse	1	t		1.0	2.5	/experiments/knapen_AOT/AOT_stimuli/rescaled_final/1110_rv.mp4	0.0	78.95458197593689	
3	58.583431005477905	fix_post	2		12	1.0	2.5	/experiments/knapen_AOT/AOT_stimuli/rescaled_final/1110_rv.mp4	0.0	80.27111005783081	0.10002398490905762
4	58.68345499038696	fix_pre	0		120	2.0	2.5	/experiments/knapen_AOT/AOT_stimuli/rescaled_final/1113_fw.mp4	0.0	80.37113404273987	1.0001699924468994
4	58.8670380115509	pulse	0	t		2.0	2.5	/experiments/knapen_AOT/AOT_stimuli/rescaled_final/1113_fw.mp4	0.0	80.55471706390381	
4	59.68362498283386	movie	1		243	2.0	2.5	/experiments/knapen_AOT/AOT_stimuli/rescaled_final/1113_fw.mp4	0.0	81.37130403518677	2.5003418922424316
4	60.4673068523407	pulse	1	t		2.0	2.5	/experiments/knapen_AOT/AOT_stimuli/rescaled_final/1113_fw.mp4	0.0	82.1549859046936	
4	62.067633867263794	pulse	1	t		2.0	2.5	/experiments/knapen_AOT/AOT_stimuli/rescaled_final/1113_fw.mp4	0.0	83.7553129196167	
4	62.183966875076294	fix_post	2		12	2.0	2.5	/experiments/knapen_AOT/AOT_stimuli/rescaled_final/1113_fw.mp4	0.0	83.8716459274292	0.10004615783691406
5	62.28401303291321	fix_pre	0		120	3.0	2.5	/experiments/knapen_AOT/AOT_stimuli/rescaled_final/1460_rv.mp4	0.0	83.97169208526611	1.0001490116119385
5	63.28416204452515	movie	1		245	3.0	2.5	/experiments/knapen_AOT/AOT_stimuli/rescaled_final/1460_rv.mp4	0.0	84.97184109687805	2.49200701713562
5	63.668423891067505	pulse	1	t		3.0	2.5	/experiments/knapen_AOT/AOT_stimuli/rescaled_final/1460_rv.mp4	0.0	85.35610294342041	
5	65.26803302764893	pulse	1	t		3.0	2.5	/experiments/knapen_AOT/AOT_stimuli/rescaled_final/1460_rv.mp4	0.0	86.95571208000183	
5	65.77616906166077	fix_post	2		12	3.0	2.5	/experiments/knapen_AOT/AOT_stimuli/rescaled_final/1460_rv.mp4	0.0	87.46384811401367	0.10003185272216797
6	65.87620091438293	fix_pre	0		120	4.0	2.5	/experiments/knapen_AOT/AOT_stimuli/rescaled_final/0513_rv.mp4	0.0	87.56387996673584	1.0001490116119385
6	66.8682210445404	pulse	0	t		4.0	2.5	/experiments/knapen_AOT/AOT_stimuli/rescaled_final/0513_rv.mp4	0.0	88.55590009689331	
6	66.87634992599487	movie	1		245	4.0	2.5	/experiments/knapen_AOT/AOT_stimuli/rescaled_final/0513_rv.mp4	0.0	88.56402897834778	2.5087249279022217
6	68.46879196166992	pulse	1	t		4.0	2.5	/experiments/knapen_AOT/AOT_stimuli/rescaled_final/0513_rv.mp4	0.0	90.15647101402283	
6	69.3850748538971	fix_post	2		12	4.0	2.5	/experiments/knapen_AOT/AOT_stimuli/rescaled_final/0513_rv.mp4	0.0	91.07275390625	0.10003805160522461
7	69.48511290550232	fix_pre	0		120	5.0	2.5	blank	1.0	91.17279195785522	1.0001111030578613
7	70.06871294975281	pulse	0	t		5.0	2.5	blank	1.0	91.75639200210571	
7	70.48522400856018	movie	1		300	5.0	2.5	blank	1.0	92.17290306091309	2.500356912612915
7	71.66898202896118	pulse	1	t		5.0	2.5	blank	1.0	93.35666108131409	
7	72.9855809211731	fix_post	2		12	5.0	2.5	blank	1.0	94.673259973526	0.10003995895385742
8	73.08562088012695	fix_pre	0		120	6.0	2.5	/experiments/knapen_AOT/AOT_stimuli/rescaled_final/1449_rv.mp4	0.0	94.77329993247986	1.0001261234283447
8	73.26163983345032	pulse	0	t		6.0	2.5	/experiments/knapen_AOT/AOT_stimuli/rescaled_final/1449_rv.mp4	0.0	94.94931888580322	
8	74.0857470035553	movie	1		245	6.0	2.5	/experiments/knapen_AOT/AOT_stimuli/rescaled_final/1449_rv.mp4	0.0	95.7734260559082	2.500364065170288
8	74.86192798614502	pulse	1	t		6.0	2.5	/experiments/knapen_AOT/AOT_stimuli/rescaled_final/1449_rv.mp4	0.0	96.54960703849792	
8	76.46229290962219	pulse	1	t		6.0	2.5	/experiments/knapen_AOT/AOT_stimuli/rescaled_final/1449_rv.mp4	0.0	98.1499719619751	
8	76.58611106872559	fix_post	2		12	6.0	2.5	/experiments/knapen_AOT/AOT_stimuli/rescaled_final/1449_rv.mp4	0.0	98.27379012107849	0.10001277923583984
9	76.68612384796143	fix_pre	0		119	7.0	2.5	/experiments/knapen_AOT/AOT_stimuli/rescaled_final/0913_rv.mp4	0.0	98.37380290031433	0.9918680191040039
9	77.67799186706543	movie	1		245	7.0	2.5	/experiments/knapen_AOT/AOT_stimuli/rescaled_final/0913_rv.mp4	0.0	99.36567091941833	2.500317096710205
9	78.062264919281	pulse	1	t		7.0	2.5	/experiments/knapen_AOT/AOT_stimuli/rescaled_final/0913_rv.mp4	0.0	99.74994397163391	
9	79.66190004348755	pulse	1	t		7.0	2.5	/experiments/knapen_AOT/AOT_stimuli/rescaled_final/0913_rv.mp4	0.0	101.34957909584045	
9	80.17830896377563	fix_post	2		12	7.0	2.5	/experiments/knapen_AOT/AOT_stimuli/rescaled_final/0913_rv.mp4	0.0	101.86598801612854	0.10001897811889648
10	80.27832794189453	fix_pre	0		119	8.0	2.5	/experiments/knapen_AOT/AOT_stimuli/rescaled_final/0488_fw.mp4	0.0	101.96600699424744	0.9918360710144043
10	81.26193499565125	pulse	0	t		8.0	2.5	/experiments/knapen_AOT/AOT_stimuli/rescaled_final/0488_fw.mp4	0.0	102.94961404800415	
10	81.27016401290894	movie	1		246	8.0	2.5	/experiments/knapen_AOT/AOT_stimuli/rescaled_final/0488_fw.mp4	0.0	102.95784306526184	2.5086848735809326
10	82.86299204826355	pulse	1	t		8.0	2.5	/experiments/knapen_AOT/AOT_stimuli/rescaled_final/0488_fw.mp4	0.0	104.55067110061646	
10	83.77884888648987	fix_post	2		12	8.0	2.5	/experiments/knapen_AOT/AOT_stimuli/rescaled_final/0488_fw.mp4	0.0	105.46652793884277	0.10000801086425781
11	83.87885689735413	fix_pre	0		120	9.0	2.5	/experiments/knapen_AOT/AOT_stimuli/rescaled_final/0135_fw.mp4	0.0	105.56653594970703	1.0001800060272217
11	84.46250987052917	pulse	0	t		9.0	2.5	/experiments/knapen_AOT/AOT_stimuli/rescaled_final/0135_fw.mp4	0.0	106.15018892288208	
11	84.87903690338135	movie	1		243	9.0	2.5	/experiments/knapen_AOT/AOT_stimuli/rescaled_final/0135_fw.mp4	0.0	106.56671595573425	2.5003550052642822
11	86.06284499168396	pulse	1	t		9.0	2.5	/experiments/knapen_AOT/AOT_stimuli/rescaled_final/0135_fw.mp4	0.0	107.75052404403687	
11	87.37939190864563	fix_post	2		12	9.0	2.5	/experiments/knapen_AOT/AOT_stimuli/rescaled_final/0135_fw.mp4	0.0	109.06707096099854	0.10005807876586914
12	87.4794499874115	fix_pre	0		120	10.0	2.5	/experiments/knapen_AOT/AOT_stimuli/rescaled_final/1375_rv.mp4	0.0	109.1671290397644	1.0001108646392822
12	87.663076877594	pulse	0	t		10.0	2.5	/experiments/knapen_AOT/AOT_stimuli/rescaled_final/1375_rv.mp4	0.0	109.3507559299469	
12	88.47956085205078	movie	1		243	10.0	2.5	/experiments/knapen_AOT/AOT_stimuli/rescaled_final/1375_rv.mp4	0.0	110.16723990440369	2.500364065170288
12	89.26319193840027	pulse	1	t		10.0	2.5	/experiments/knapen_AOT/AOT_stimuli/rescaled_final/1375_rv.mp4	0.0	110.95087099075317	
12	90.8633348941803	pulse	1	t		10.0	2.5	/experiments/knapen_AOT/AOT_stimuli/rescaled_final/1375_rv.mp4	0.0	112.5510139465332	
12	90.97992491722107	fix_post	2		12	10.0	2.5	/experiments/knapen_AOT/AOT_stimuli/rescaled_final/1375_rv.mp4	0.0	112.66760396957397	0.1000521183013916
13	91.07997703552246	fix_pre	0		120	11.0	2.5	/experiments/knapen_AOT/AOT_stimuli/rescaled_final/0805_fw.mp4	0.0	112.76765608787537	1.0001189708709717
13	92.08009600639343	movie	1		244	11.0	2.5	/experiments/knapen_AOT/AOT_stimuli/rescaled_final/0805_fw.mp4	0.0	113.76777505874634	2.4921040534973145
13	92.46505284309387	pulse	1	t		11.0	2.5	/experiments/knapen_AOT/AOT_stimuli/rescaled_final/0805_fw.mp4	0.0	114.15273189544678	
13	94.06409096717834	pulse	1	t		11.0	2.5	/experiments/knapen_AOT/AOT_stimuli/rescaled_final/0805_fw.mp4	0.0	115.75177001953125	
13	94.57220005989075	fix_post	2		12	11.0	2.5	/experiments/knapen_AOT/AOT_stimuli/rescaled_final/0805_fw.mp4	0.0	116.25987911224365	0.10000395774841309
14	94.67220401763916	fix_pre	0		120	12.0	2.5	/experiments/knapen_AOT/AOT_stimuli/rescaled_final/0484_rv.mp4	0.0	116.35988306999207	1.0000998973846436
14	95.66426491737366	pulse	0	t		12.0	2.5	/experiments/knapen_AOT/AOT_stimuli/rescaled_final/0484_rv.mp4	0.0	117.35194396972656	
14	95.6723039150238	movie	1		244	12.0	2.5	/experiments/knapen_AOT/AOT_stimuli/rescaled_final/0484_rv.mp4	0.0	117.35998296737671	2.5087029933929443
14	97.264976978302	pulse	1	t		12.0	2.5	/experiments/knapen_AOT/AOT_stimuli/rescaled_final/0484_rv.mp4	0.0	118.95265603065491	
14	98.18100690841675	fix_post	2		12	12.0	2.5	/experiments/knapen_AOT/AOT_stimuli/rescaled_final/0484_rv.mp4	0.0	119.86868596076965	0.10002708435058594
15	98.28103399276733	fix_pre	0		120	13.0	2.5	/experiments/knapen_AOT/AOT_stimuli/rescaled_final/0162_rv.mp4	0.0	119.96871304512024	1.0001399517059326
15	98.86456394195557	pulse	0	t		13.0	2.5	/experiments/knapen_AOT/AOT_stimuli/rescaled_final/0162_rv.mp4	0.0	120.55224299430847	
15	99.28117394447327	movie	1		245	13.0	2.5	/experiments/knapen_AOT/AOT_stimuli/rescaled_final/0162_rv.mp4	0.0	120.96885299682617	2.500351905822754
15	100.46510195732117	pulse	1	t		13.0	2.5	/experiments/knapen_AOT/AOT_stimuli/rescaled_final/0162_rv.mp4	0.0	122.15278100967407	
15	101.78152585029602	fix_post	2		12	13.0	2.5	/experiments/knapen_AOT/AOT_stimuli/rescaled_final/0162_rv.mp4	0.0	123.46920490264893	0.10001611709594727
16	101.88154196739197	fix_pre	0		120	14.0	2.5	blank	1.0	123.56922101974487	1.000180959701538
16	102.06520891189575	pulse	0	t		14.0	2.5	blank	1.0	123.75288796424866	
16	102.8817229270935	movie	1		300	14.0	2.5	blank	1.0	124.56940197944641	2.5003600120544434
16	103.66541385650635	pulse	1	t		14.0	2.5	blank	1.0	125.35309290885925	
16	105.26561784744263	pulse	1	t		14.0	2.5	blank	1.0	126.95329689979553	
16	105.38208293914795	fix_post	2		12	14.0	2.5	blank	1.0	127.06976199150085	0.10001707077026367
17	105.48210000991821	fix_pre	0		120	15.0	2.5	/experiments/knapen_AOT/AOT_stimuli/rescaled_final/0385_rv.mp4	0.0	127.16977906227112	1.000133991241455
17	106.48223400115967	movie	1		243	15.0	2.5	/experiments/knapen_AOT/AOT_stimuli/rescaled_final/0385_rv.mp4	0.0	128.16991305351257	2.4920458793640137
17	106.866544008255	pulse	1	t		15.0	2.5	/experiments/knapen_AOT/AOT_stimuli/rescaled_final/0385_rv.mp4	0.0	128.5542230606079	
17	108.4660758972168	pulse	1	t		15.0	2.5	/experiments/knapen_AOT/AOT_stimuli/rescaled_final/0385_rv.mp4	0.0	130.1537549495697	
17	108.97427988052368	fix_post	2		12	15.0	2.5	/experiments/knapen_AOT/AOT_stimuli/rescaled_final/0385_rv.mp4	0.0	130.6619589328766	0.10004615783691406
18	109.0743260383606	fix_pre	0		120	16.0	2.5	/experiments/knapen_AOT/AOT_stimuli/rescaled_final/1979_fw.mp4	0.0	130.7620050907135	1.0001239776611328
18	110.06637907028198	pulse	0	t		16.0	2.5	/experiments/knapen_AOT/AOT_stimuli/rescaled_final/1979_fw.mp4	0.0	131.7540581226349	
18	110.07445001602173	movie	1		244	16.0	2.5	/experiments/knapen_AOT/AOT_stimuli/rescaled_final/1979_fw.mp4	0.0	131.76212906837463	2.5087578296661377
18	111.6671199798584	pulse	1	t		16.0	2.5	/experiments/knapen_AOT/AOT_stimuli/rescaled_final/1979_fw.mp4	0.0	133.3547990322113	
18	112.58320784568787	fix_post	2		12	16.0	2.5	/experiments/knapen_AOT/AOT_stimuli/rescaled_final/1979_fw.mp4	0.0	134.27088689804077	0.09996819496154785
19	112.68317604064941	fix_pre	0		120	17.0	2.5	/experiments/knapen_AOT/AOT_stimuli/rescaled_final/0425_fw.mp4	0.0	134.37085509300232	1.0001399517059326
19	113.2667589187622	pulse	0	t		17.0	2.5	/experiments/knapen_AOT/AOT_stimuli/rescaled_final/0425_fw.mp4	0.0	134.9544379711151	
19	113.68331599235535	movie	1		244	17.0	2.5	/experiments/knapen_AOT/AOT_stimuli/rescaled_final/0425_fw.mp4	0.0	135.37099504470825	2.50039005279541
19	114.86726689338684	pulse	1	t		17.0	2.5	/experiments/knapen_AOT/AOT_stimuli/rescaled_final/0425_fw.mp4	0.0	136.55494594573975	
19	116.18370604515076	fix_post	2		12	17.0	2.5	/experiments/knapen_AOT/AOT_stimuli/rescaled_final/0425_fw.mp4	0.0	137.87138509750366	0.10000991821289062
20	116.28371596336365	fix_pre	0		120	18.0	2.5	/experiments/knapen_AOT/AOT_stimuli/rescaled_final/1113_rv.mp4	0.0	137.97139501571655	1.0001349449157715
20	116.46727299690247	pulse	0	t		18.0	2.5	/experiments/knapen_AOT/AOT_stimuli/rescaled_final/1113_rv.mp4	0.0	138.15495204925537	
20	117.28385090827942	movie	1		244	18.0	2.5	/experiments/knapen_AOT/AOT_stimuli/rescaled_final/1113_rv.mp4	0.0	138.97152996063232	2.5003581047058105
20	118.06752586364746	pulse	1	t		18.0	2.5	/experiments/knapen_AOT/AOT_stimuli/rescaled_final/1113_rv.mp4	0.0	139.75520491600037	
20	119.66813588142395	pulse	1	t		18.0	2.5	/experiments/knapen_AOT/AOT_stimuli/rescaled_final/1113_rv.mp4	0.0	141.35581493377686	
20	119.78420901298523	fix_post	2		12	18.0	2.5	/experiments/knapen_AOT/AOT_stimuli/rescaled_final/1113_rv.mp4	0.0	141.47188806533813	0.10004186630249023
21	119.88425087928772	fix_pre	0		120	19.0	2.5	/experiments/knapen_AOT/AOT_stimuli/rescaled_final/1588_rv.mp4	0.0	141.57192993164062	1.0001330375671387
21	120.88438391685486	movie	1		246	19.0	2.5	/experiments/knapen_AOT/AOT_stimuli/rescaled_final/1588_rv.mp4	0.0	142.57206296920776	2.4920499324798584
21	121.26838994026184	pulse	1	t		19.0	2.5	/experiments/knapen_AOT/AOT_stimuli/rescaled_final/1588_rv.mp4	0.0	142.95606899261475	
21	122.86838006973267	pulse	1	t		19.0	2.5	/experiments/knapen_AOT/AOT_stimuli/rescaled_final/1588_rv.mp4	0.0	144.55605912208557	
21	123.37643384933472	fix_post	2		12	19.0	2.5	/experiments/knapen_AOT/AOT_stimuli/rescaled_final/1588_rv.mp4	0.0	145.06411290168762	0.10001921653747559
22	123.47645306587219	fix_pre	0		120	20.0	2.5	/experiments/knapen_AOT/AOT_stimuli/rescaled_final/0202_fw.mp4	0.0	145.1641321182251	1.0001299381256104
22	124.46847200393677	pulse	0	t		20.0	2.5	/experiments/knapen_AOT/AOT_stimuli/rescaled_final/0202_fw.mp4	0.0	146.15615105628967	
22	124.4765830039978	movie	1		248	20.0	2.5	/experiments/knapen_AOT/AOT_stimuli/rescaled_final/0202_fw.mp4	0.0	146.1642620563507	2.508708953857422
22	126.0699110031128	pulse	1	t		20.0	2.5	/experiments/knapen_AOT/AOT_stimuli/rescaled_final/0202_fw.mp4	0.0	147.7575900554657	
22	126.98529195785522	fix_post	2		12	20.0	2.5	/experiments/knapen_AOT/AOT_stimuli/rescaled_final/0202_fw.mp4	0.0	148.67297101020813	0.10004591941833496
23	127.08533787727356	fix_pre	0		120	21.0	2.5	blank	1.0	148.77301692962646	1.0001120567321777
23	127.66136288642883	pulse	0	t		21.0	2.5	blank	1.0	149.34904193878174	
23	128.08544993400574	movie	1		300	21.0	2.5	blank	1.0	149.77312898635864	2.5003719329833984
23	129.2616319656372	pulse	1	t		21.0	2.5	blank	1.0	150.9493110179901	
23	130.58582186698914	fix_post	2		12	21.0	2.5	blank	1.0	152.27350091934204	0.1000361442565918
24	130.68585801124573	fix_pre	0		120	22.0	2.5	/experiments/knapen_AOT/AOT_stimuli/rescaled_final/1410_rv.mp4	0.0	152.37353706359863	1.0001249313354492
24	130.86187100410461	pulse	0	t		22.0	2.5	/experiments/knapen_AOT/AOT_stimuli/rescaled_final/1410_rv.mp4	0.0	152.54955005645752	
24	131.68598294258118	movie	1		245	22.0	2.5	/experiments/knapen_AOT/AOT_stimuli/rescaled_final/1410_rv.mp4	0.0	153.37366199493408	2.5003809928894043
24	132.46215391159058	pulse	1	t		22.0	2.5	/experiments/knapen_AOT/AOT_stimuli/rescaled_final/1410_rv.mp4	0.0	154.14983296394348	
24	134.06160187721252	pulse	1	t		22.0	2.5	/experiments/knapen_AOT/AOT_stimuli/rescaled_final/1410_rv.mp4	0.0	155.74928092956543	
24	134.18636393547058	fix_post	2		12	22.0	2.5	/experiments/knapen_AOT/AOT_stimuli/rescaled_final/1410_rv.mp4	0.0	155.8740429878235	0.1000211238861084
25	134.2863850593567	fix_pre	0		120	23.0	2.5	/experiments/knapen_AOT/AOT_stimuli/rescaled_final/1838_fw.mp4	0.0	155.9740641117096	1.0001637935638428
25	135.28654885292053	movie	1		244	23.0	2.5	/experiments/knapen_AOT/AOT_stimuli/rescaled_final/1838_fw.mp4	0.0	156.97422790527344	2.4920191764831543
25	135.66170692443848	pulse	1	t		23.0	2.5	/experiments/knapen_AOT/AOT_stimuli/rescaled_final/1838_fw.mp4	0.0	157.34938597679138	
25	137.26211285591125	pulse	1	t		23.0	2.5	/experiments/knapen_AOT/AOT_stimuli/rescaled_final/1838_fw.mp4	0.0	158.94979190826416	
25	137.7785680294037	fix_post	2		12	23.0	2.5	/experiments/knapen_AOT/AOT_stimuli/rescaled_final/1838_fw.mp4	0.0	159.4662470817566	0.10001683235168457
26	137.87858486175537	fix_pre	0		119	24.0	2.5	/experiments/knapen_AOT/AOT_stimuli/rescaled_final/0457_rv.mp4	0.0	159.56626391410828	0.9918131828308105
26	138.86240887641907	pulse	0	t		24.0	2.5	/experiments/knapen_AOT/AOT_stimuli/rescaled_final/0457_rv.mp4	0.0	160.55008792877197	
26	138.87039804458618	movie	1		245	24.0	2.5	/experiments/knapen_AOT/AOT_stimuli/rescaled_final/0457_rv.mp4	0.0	160.5580770969391	2.5087108612060547
26	140.46292686462402	pulse	1	t		24.0	2.5	/experiments/knapen_AOT/AOT_stimuli/rescaled_final/0457_rv.mp4	0.0	162.15060591697693	
26	141.37910890579224	fix_post	2		12	24.0	2.5	/experiments/knapen_AOT/AOT_stimuli/rescaled_final/0457_rv.mp4	0.0	163.06678795814514	0.10001397132873535
27	141.47912287712097	fix_pre	0		120	25.0	2.5	/experiments/knapen_AOT/AOT_stimuli/rescaled_final/1779_rv.mp4	0.0	163.16680192947388	1.0001661777496338
27	142.06276106834412	pulse	0	t		25.0	2.5	/experiments/knapen_AOT/AOT_stimuli/rescaled_final/1779_rv.mp4	0.0	163.75044012069702	
27	142.4792890548706	movie	1		245	25.0	2.5	/experiments/knapen_AOT/AOT_stimuli/rescaled_final/1779_rv.mp4	0.0	164.1669681072235	2.5003437995910645
27	143.66308283805847	pulse	1	t		25.0	2.5	/experiments/knapen_AOT/AOT_stimuli/rescaled_final/1779_rv.mp4	0.0	165.35076189041138	
27	144.97963285446167	fix_post	2		12	25.0	2.5	/experiments/knapen_AOT/AOT_stimuli/rescaled_final/1779_rv.mp4	0.0	166.66731190681458	0.10004520416259766
28	145.07967805862427	fix_pre	0		120	26.0	2.5	/experiments/knapen_AOT/AOT_stimuli/rescaled_final/1048_fw.mp4	0.0	166.76735711097717	1.0001368522644043
28	145.26329588890076	pulse	0	t		26.0	2.5	/experiments/knapen_AOT/AOT_stimuli/rescaled_final/1048_fw.mp4	0.0	166.95097494125366	
28	146.07981491088867	movie	1		243	26.0	2.5	/experiments/knapen_AOT/AOT_stimuli/rescaled_final/1048_fw.mp4	0.0	167.76749396324158	2.500401020050049
28	146.86367297172546	pulse	1	t		26.0	2.5	/experiments/knapen_AOT/AOT_stimuli/rescaled_final/1048_fw.mp4	0.0	168.55135202407837	
28	148.4640350341797	pulse	1	t		26.0	2.5	/experiments/knapen_AOT/AOT_stimuli/rescaled_final/1048_fw.mp4	0.0	170.1517140865326	
28	148.58021593093872	fix_post	2		12	26.0	2.5	/experiments/knapen_AOT/AOT_stimuli/rescaled_final/1048_fw.mp4	0.0	170.26789498329163	0.09998106956481934
29	148.68019700050354	fix_pre	0		120	27.0	2.5	/experiments/knapen_AOT/AOT_stimuli/rescaled_final/1689_fw.mp4	0.0	170.36787605285645	1.0002110004425049
29	149.68040800094604	movie	1		246	27.0	2.5	/experiments/knapen_AOT/AOT_stimuli/rescaled_final/1689_fw.mp4	0.0	171.36808705329895	2.5003018379211426
29	150.0647258758545	pulse	1	t		27.0	2.5	/experiments/knapen_AOT/AOT_stimuli/rescaled_final/1689_fw.mp4	0.0	171.7524049282074	
29	151.664165019989	pulse	1	t		27.0	2.5	/experiments/knapen_AOT/AOT_stimuli/rescaled_final/1689_fw.mp4	0.0	173.35184407234192	
29	152.1807098388672	fix_post	2		11	27.0	2.5	/experiments/knapen_AOT/AOT_stimuli/rescaled_final/1689_fw.mp4	0.0	173.8683888912201	0.09172606468200684
30	152.2724359035492	fix_pre	0		120	28.0	2.5	blank	1.0	173.9601149559021	1.0000989437103271
30	153.26447296142578	pulse	0	t		28.0	2.5	blank	1.0	174.9521520137787	
30	153.27253484725952	movie	1		301	28.0	2.5	blank	1.0	174.96021389961243	2.508725166320801
30	154.8646080493927	pulse	1	t		28.0	2.5	blank	1.0	176.5522871017456	
30	155.78126001358032	fix_post	2		12	28.0	2.5	blank	1.0	177.46893906593323	0.10005497932434082
31	155.88131499290466	fix_pre	0		120	29.0	2.5	/experiments/knapen_AOT/AOT_stimuli/rescaled_final/1283_fw.mp4	0.0	177.56899404525757	1.0007309913635254
31	156.4649748802185	pulse	0	t		29.0	2.5	/experiments/knapen_AOT/AOT_stimuli/rescaled_final/1283_fw.mp4	0.0	178.1526539325714	
31	156.8820459842682	movie	1		239	29.0	2.5	/experiments/knapen_AOT/AOT_stimuli/rescaled_final/1283_fw.mp4	0.0	178.5697250366211	2.499750852584839
31	158.0652129650116	pulse	1	t		29.0	2.5	/experiments/knapen_AOT/AOT_stimuli/rescaled_final/1283_fw.mp4	0.0	179.7528920173645	
31	159.38179683685303	fix_post	2		12	29.0	2.5	/experiments/knapen_AOT/AOT_stimuli/rescaled_final/1283_fw.mp4	0.0	181.06947588920593	0.10005402565002441
32	159.48185086250305	fix_pre	0		120	30.0	2.5	/experiments/knapen_AOT/AOT_stimuli/rescaled_final/0730_fw.mp4	0.0	181.16952991485596	1.0000951290130615
32	159.665433883667	pulse	0	t		30.0	2.5	/experiments/knapen_AOT/AOT_stimuli/rescaled_final/0730_fw.mp4	0.0	181.3531129360199	
32	160.4819459915161	movie	1		243	30.0	2.5	/experiments/knapen_AOT/AOT_stimuli/rescaled_final/0730_fw.mp4	0.0	182.16962504386902	2.500382900238037
32	161.2656090259552	pulse	1	t		30.0	2.5	/experiments/knapen_AOT/AOT_stimuli/rescaled_final/0730_fw.mp4	0.0	182.9532880783081	
32	162.86594796180725	pulse	1	t		30.0	2.5	/experiments/knapen_AOT/AOT_stimuli/rescaled_final/0730_fw.mp4	0.0	184.55362701416016	
32	162.98232889175415	fix_post	2		12	30.0	2.5	/experiments/knapen_AOT/AOT_stimuli/rescaled_final/0730_fw.mp4	0.0	184.67000794410706	0.10001897811889648
33	163.08234786987305	fix_pre	0		120	31.0	2.5	/experiments/knapen_AOT/AOT_stimuli/rescaled_final/1007_rv.mp4	0.0	184.77002692222595	1.0002081394195557
33	164.0825560092926	movie	1		244	31.0	2.5	/experiments/knapen_AOT/AOT_stimuli/rescaled_final/1007_rv.mp4	0.0	185.7702350616455	2.491999864578247
33	164.46672201156616	pulse	1	t		31.0	2.5	/experiments/knapen_AOT/AOT_stimuli/rescaled_final/1007_rv.mp4	0.0	186.15440106391907	
33	166.0663549900055	pulse	1	t		31.0	2.5	/experiments/knapen_AOT/AOT_stimuli/rescaled_final/1007_rv.mp4	0.0	187.7540340423584	
33	166.57455587387085	fix_post	2		12	31.0	2.5	/experiments/knapen_AOT/AOT_stimuli/rescaled_final/1007_rv.mp4	0.0	188.26223492622375	0.09998202323913574
34	166.67453789710999	fix_pre	0		120	32.0	2.5	/experiments/knapen_AOT/AOT_stimuli/rescaled_final/1079_fw.mp4	0.0	188.3622169494629	1.0001440048217773
34	167.66654205322266	pulse	0	t		32.0	2.5	/experiments/knapen_AOT/AOT_stimuli/rescaled_final/1079_fw.mp4	0.0	189.35422110557556	
34	167.67468190193176	movie	1		244	32.0	2.5	/experiments/knapen_AOT/AOT_stimuli/rescaled_final/1079_fw.mp4	0.0	189.36236095428467	2.5087170600891113
34	169.26833486557007	pulse	1	t		32.0	2.5	/experiments/knapen_AOT/AOT_stimuli/rescaled_final/1079_fw.mp4	0.0	190.95601391792297	
34	170.18339896202087	fix_post	2		12	32.0	2.5	/experiments/knapen_AOT/AOT_stimuli/rescaled_final/1079_fw.mp4	0.0	191.87107801437378	0.10002398490905762
35	170.28342294692993	fix_pre	0		120	33.0	2.5	blank	1.0	191.97110199928284	1.0001599788665771
35	170.86716198921204	pulse	0	t		33.0	2.5	blank	1.0	192.55484104156494	
35	171.2835829257965	movie	1		300	33.0	2.5	blank	1.0	192.9712619781494	2.5003609657287598
35	172.46729493141174	pulse	1	t		33.0	2.5	blank	1.0	194.15497398376465	
35	173.78394389152527	fix_post	2		12	33.0	2.5	blank	1.0	195.47162294387817	0.10005402565002441
36	173.8839979171753	fix_pre	0		120	34.0	2.5	/experiments/knapen_AOT/AOT_stimuli/rescaled_final/1154_fw.mp4	0.0	195.5716769695282	1.000093936920166
36	174.06751585006714	pulse	0	t		34.0	2.5	/experiments/knapen_AOT/AOT_stimuli/rescaled_final/1154_fw.mp4	0.0	195.75519490242004	
36	174.88409185409546	movie	1		244	34.0	2.5	/experiments/knapen_AOT/AOT_stimuli/rescaled_final/1154_fw.mp4	0.0	196.57177090644836	2.5003981590270996
36	175.66773986816406	pulse	1	t		34.0	2.5	/experiments/knapen_AOT/AOT_stimuli/rescaled_final/1154_fw.mp4	0.0	197.35541892051697	
36	177.2680468559265	pulse	1	t		34.0	2.5	/experiments/knapen_AOT/AOT_stimuli/rescaled_final/1154_fw.mp4	0.0	198.95572590827942	
36	177.38449001312256	fix_post	2		12	34.0	2.5	/experiments/knapen_AOT/AOT_stimuli/rescaled_final/1154_fw.mp4	0.0	199.07216906547546	0.09999299049377441
37	177.48448300361633	fix_pre	0		119	35.0	2.5	/experiments/knapen_AOT/AOT_stimuli/rescaled_final/1054_fw.mp4	0.0	199.17216205596924	0.9918138980865479
37	178.47629690170288	movie	1		243	35.0	2.5	/experiments/knapen_AOT/AOT_stimuli/rescaled_final/1054_fw.mp4	0.0	200.1639759540558	2.5004000663757324
37	178.8683898448944	pulse	1	t		35.0	2.5	/experiments/knapen_AOT/AOT_stimuli/rescaled_final/1054_fw.mp4	0.0	200.55606889724731	
37	180.4684979915619	pulse	1	t		35.0	2.5	/experiments/knapen_AOT/AOT_stimuli/rescaled_final/1054_fw.mp4	0.0	202.1561770439148	
37	180.9766969680786	fix_post	2		12	35.0	2.5	/experiments/knapen_AOT/AOT_stimuli/rescaled_final/1054_fw.mp4	0.0	202.66437602043152	0.1000370979309082
38	181.07673406600952	fix_pre	0		120	36.0	2.5	/experiments/knapen_AOT/AOT_stimuli/rescaled_final/0138_fw.mp4	0.0	202.76441311836243	1.0001769065856934
38	182.06872391700745	pulse	0	t		36.0	2.5	/experiments/knapen_AOT/AOT_stimuli/rescaled_final/0138_fw.mp4	0.0	203.75640296936035	
38	182.07691097259521	movie	1		244	36.0	2.5	/experiments/knapen_AOT/AOT_stimuli/rescaled_final/0138_fw.mp4	0.0	203.76459002494812	2.5086538791656494
38	183.66943883895874	pulse	1	t		36.0	2.5	/experiments/knapen_AOT/AOT_stimuli/rescaled_final/0138_fw.mp4	0.0	205.35711789131165	
38	184.58556485176086	fix_post	2		12	36.0	2.5	/experiments/knapen_AOT/AOT_stimuli/rescaled_final/0138_fw.mp4	0.0	206.27324390411377	0.09998512268066406
39	184.68554997444153	fix_pre	0		120	37.0	2.5	/experiments/knapen_AOT/AOT_stimuli/rescaled_final/0599_rv.mp4	0.0	206.37322902679443	1.0001530647277832
39	185.26930785179138	pulse	0	t		37.0	2.5	/experiments/knapen_AOT/AOT_stimuli/rescaled_final/0599_rv.mp4	0.0	206.9569869041443	
39	185.6857030391693	movie	1		244	37.0	2.5	/experiments/knapen_AOT/AOT_stimuli/rescaled_final/0599_rv.mp4	0.0	207.37338209152222	2.5004689693450928
39	186.86948585510254	pulse	1	t		37.0	2.5	/experiments/knapen_AOT/AOT_stimuli/rescaled_final/0599_rv.mp4	0.0	208.55716490745544	
39	188.1861720085144	fix_post	2		12	37.0	2.5	/experiments/knapen_AOT/AOT_stimuli/rescaled_final/0599_rv.mp4	0.0	209.8738510608673	0.09994697570800781
40	188.2861189842224	fix_pre	0		120	38.0	2.5	/experiments/knapen_AOT/AOT_stimuli/rescaled_final/1358_rv.mp4	0.0	209.97379803657532	1.000140905380249
40	188.46209597587585	pulse	0	t		38.0	2.5	/experiments/knapen_AOT/AOT_stimuli/rescaled_final/1358_rv.mp4	0.0	210.14977502822876	
40	189.28625988960266	movie	1		243	38.0	2.5	/experiments/knapen_AOT/AOT_stimuli/rescaled_final/1358_rv.mp4	0.0	210.97393894195557	2.500357151031494
40	190.06258702278137	pulse	1	t		38.0	2.5	/experiments/knapen_AOT/AOT_stimuli/rescaled_final/1358_rv.mp4	0.0	211.75026607513428	
40	191.66988897323608	pulse	1	t		38.0	2.5	/experiments/knapen_AOT/AOT_stimuli/rescaled_final/1358_rv.mp4	0.0	213.357568025589	
40	191.78661704063416	fix_post	2		12	38.0	2.5	/experiments/knapen_AOT/AOT_stimuli/rescaled_final/1358_rv.mp4	0.0	213.47429609298706	0.10007786750793457
41	191.8866949081421	fix_pre	0		119	39.0	2.5	/experiments/knapen_AOT/AOT_stimuli/rescaled_final/2043_rv.mp4	0.0	213.574373960495	0.9917681217193604
41	192.87846302986145	movie	1		244	39.0	2.5	/experiments/knapen_AOT/AOT_stimuli/rescaled_final/2043_rv.mp4	0.0	214.56614208221436	2.5003550052642822
41	193.2624430656433	pulse	1	t		39.0	2.5	/experiments/knapen_AOT/AOT_stimuli/rescaled_final/2043_rv.mp4	0.0	214.95012211799622	
41	194.86237597465515	pulse	1	t		39.0	2.5	/experiments/knapen_AOT/AOT_stimuli/rescaled_final/2043_rv.mp4	0.0	216.55005502700806	
41	195.37881803512573	fix_post	2		12	39.0	2.5	/experiments/knapen_AOT/AOT_stimuli/rescaled_final/2043_rv.mp4	0.0	217.06649708747864	0.10000085830688477
42	195.47881889343262	fix_pre	0		119	40.0	2.5	/experiments/knapen_AOT/AOT_stimuli/rescaled_final/2075_fw.mp4	0.0	217.16649794578552	0.9918279647827148
42	196.4624400138855	pulse	0	t		40.0	2.5	/experiments/knapen_AOT/AOT_stimuli/rescaled_final/2075_fw.mp4	0.0	218.1501190662384	
42	196.47064685821533	movie	1		245	40.0	2.5	/experiments/knapen_AOT/AOT_stimuli/rescaled_final/2075_fw.mp4	0.0	218.15832591056824	2.5087201595306396
42	198.06678795814514	pulse	1	t		40.0	2.5	/experiments/knapen_AOT/AOT_stimuli/rescaled_final/2075_fw.mp4	0.0	219.75446701049805	
42	198.97936701774597	fix_post	2		12	40.0	2.5	/experiments/knapen_AOT/AOT_stimuli/rescaled_final/2075_fw.mp4	0.0	220.66704607009888	0.10001897811889648
43	199.07938599586487	fix_pre	0		120	41.0	2.5	/experiments/knapen_AOT/AOT_stimuli/rescaled_final/0038_fw.mp4	0.0	220.76706504821777	1.0001468658447266
43	199.66312384605408	pulse	0	t		41.0	2.5	/experiments/knapen_AOT/AOT_stimuli/rescaled_final/0038_fw.mp4	0.0	221.35080289840698	
43	200.0795328617096	movie	1		244	41.0	2.5	/experiments/knapen_AOT/AOT_stimuli/rescaled_final/0038_fw.mp4	0.0	221.7672119140625	2.5003490447998047
43	201.263356924057	pulse	1	t		41.0	2.5	/experiments/knapen_AOT/AOT_stimuli/rescaled_final/0038_fw.mp4	0.0	222.9510359764099	
43	202.5798819065094	fix_post	2		12	41.0	2.5	/experiments/knapen_AOT/AOT_stimuli/rescaled_final/0038_fw.mp4	0.0	224.2675609588623	0.1000821590423584
44	202.67996406555176	fix_pre	0		120	42.0	2.5	blank	1.0	224.36764311790466	1.0001029968261719
44	202.86349487304688	pulse	0	t		42.0	2.5	blank	1.0	224.55117392539978	
44	203.68006706237793	movie	1		300	42.0	2.5	blank	1.0	225.36774611473083	2.500403881072998
44	204.46364903450012	pulse	1	t		42.0	2.5	blank	1.0	226.15132808685303	
44	206.06407499313354	pulse	1	t		42.0	2.5	blank	1.0	227.75175404548645	
44	206.18047094345093	fix_post	2		12	42.0	2.5	blank	1.0	227.86814999580383	0.09998607635498047
45	206.2804570198059	fix_pre	0		119	43.0	2.5	/experiments/knapen_AOT/AOT_stimuli/rescaled_final/1486_fw.mp4	0.0	227.9681360721588	0.9917948246002197
45	207.27225184440613	movie	1		245	43.0	2.5	/experiments/knapen_AOT/AOT_stimuli/rescaled_final/1486_fw.mp4	0.0	228.95993089675903	2.500397205352783
45	207.66432905197144	pulse	1	t		43.0	2.5	/experiments/knapen_AOT/AOT_stimuli/rescaled_final/1486_fw.mp4	0.0	229.35200810432434	
45	209.26446890830994	pulse	1	t		43.0	2.5	/experiments/knapen_AOT/AOT_stimuli/rescaled_final/1486_fw.mp4	0.0	230.95214796066284	
45	209.7726490497589	fix_post	2		12	43.0	2.5	/experiments/knapen_AOT/AOT_stimuli/rescaled_final/1486_fw.mp4	0.0	231.46032810211182	0.10001897811889648
46	209.8726680278778	fix_pre	0		120	44.0	2.5	/experiments/knapen_AOT/AOT_stimuli/rescaled_final/1048_fw.mp4	0.0	231.5603470802307	1.0001909732818604
46	210.86471390724182	pulse	0	t		44.0	2.5	/experiments/knapen_AOT/AOT_stimuli/rescaled_final/1048_fw.mp4	0.0	232.55239295959473	
46	210.87285900115967	movie	1		245	44.0	2.5	/experiments/knapen_AOT/AOT_stimuli/rescaled_final/1048_fw.mp4	0.0	232.56053805351257	2.5086770057678223
46	212.4692668914795	pulse	1	t		44.0	2.5	/experiments/knapen_AOT/AOT_stimuli/rescaled_final/1048_fw.mp4	0.0	234.1569459438324	
46	213.3815360069275	fix_post	2		12	44.0	2.5	/experiments/knapen_AOT/AOT_stimuli/rescaled_final/1048_fw.mp4	0.0	235.0692150592804	0.09999203681945801
47	213.48152804374695	fix_pre	0		120	45.0	2.5	/experiments/knapen_AOT/AOT_stimuli/rescaled_final/1702_rv.mp4	0.0	235.16920709609985	1.000173807144165
47	214.065269947052	pulse	0	t		45.0	2.5	/experiments/knapen_AOT/AOT_stimuli/rescaled_final/1702_rv.mp4	0.0	235.7529489994049	
47	214.4817018508911	movie	1		240	45.0	2.5	/experiments/knapen_AOT/AOT_stimuli/rescaled_final/1702_rv.mp4	0.0	236.16938090324402	2.500415086746216
47	215.66557788848877	pulse	1	t		45.0	2.5	/experiments/knapen_AOT/AOT_stimuli/rescaled_final/1702_rv.mp4	0.0	237.35325694084167	
47	216.98211693763733	fix_post	2		12	45.0	2.5	/experiments/knapen_AOT/AOT_stimuli/rescaled_final/1702_rv.mp4	0.0	238.66979598999023	0.09993195533752441
48	217.08204889297485	fix_pre	0		120	46.0	2.5	/experiments/knapen_AOT/AOT_stimuli/rescaled_final/0168_rv.mp4	0.0	238.76972794532776	1.000154972076416
48	217.26560997962952	pulse	0	t		46.0	2.5	/experiments/knapen_AOT/AOT_stimuli/rescaled_final/0168_rv.mp4	0.0	238.95328903198242	
48	218.08220386505127	movie	1		244	46.0	2.5	/experiments/knapen_AOT/AOT_stimuli/rescaled_final/0168_rv.mp4	0.0	239.76988291740417	2.5003600120544434
48	218.86596298217773	pulse	1	t		46.0	2.5	/experiments/knapen_AOT/AOT_stimuli/rescaled_final/0168_rv.mp4	0.0	240.55364203453064	
48	220.46604084968567	pulse	1	t		46.0	2.5	/experiments/knapen_AOT/AOT_stimuli/rescaled_final/0168_rv.mp4	0.0	242.15371990203857	
48	220.5825638771057	fix_post	2		12	46.0	2.5	/experiments/knapen_AOT/AOT_stimuli/rescaled_final/0168_rv.mp4	0.0	242.27024292945862	0.10004901885986328
49	220.68261289596558	fix_pre	0		120	47.0	2.5	/experiments/knapen_AOT/AOT_stimuli/rescaled_final/0523_fw.mp4	0.0	242.37029194831848	1.0001590251922607
49	221.68277192115784	movie	1		243	47.0	2.5	/experiments/knapen_AOT/AOT_stimuli/rescaled_final/0523_fw.mp4	0.0	243.37045097351074	2.4920010566711426
49	222.06666088104248	pulse	1	t		47.0	2.5	/experiments/knapen_AOT/AOT_stimuli/rescaled_final/0523_fw.mp4	0.0	243.75433993339539	
49	223.66655683517456	pulse	1	t		47.0	2.5	/experiments/knapen_AOT/AOT_stimuli/rescaled_final/0523_fw.mp4	0.0	245.35423588752747	
49	224.17477297782898	fix_post	2		12	47.0	2.5	/experiments/knapen_AOT/AOT_stimuli/rescaled_final/0523_fw.mp4	0.0	245.86245203018188	0.10003089904785156
50	224.27480387687683	fix_pre	0		120	48.0	2.5	/experiments/knapen_AOT/AOT_stimuli/rescaled_final/2088_rv.mp4	0.0	245.96248292922974	1.0001680850982666
50	225.26678586006165	pulse	0	t		48.0	2.5	/experiments/knapen_AOT/AOT_stimuli/rescaled_final/2088_rv.mp4	0.0	246.95446491241455	
50	225.2749719619751	movie	1		246	48.0	2.5	/experiments/knapen_AOT/AOT_stimuli/rescaled_final/2088_rv.mp4	0.0	246.962651014328	2.5086910724639893
50	226.87151789665222	pulse	1	t		48.0	2.5	/experiments/knapen_AOT/AOT_stimuli/rescaled_final/2088_rv.mp4	0.0	248.55919694900513	
50	227.7836630344391	fix_post	2		12	48.0	2.5	/experiments/knapen_AOT/AOT_stimuli/rescaled_final/2088_rv.mp4	0.0	249.471342086792	0.09998798370361328
51	227.8836510181427	fix_pre	0		120	49.0	2.5	blank	1.0	249.5713300704956	1.000175952911377
51	228.46728205680847	pulse	0	t		49.0	2.5	blank	1.0	250.15496110916138	
51	228.88382697105408	movie	1		300	49.0	2.5	blank	1.0	250.57150602340698	2.5004429817199707
51	230.06752395629883	pulse	1	t		49.0	2.5	blank	1.0	251.75520300865173	
51	231.38426995277405	fix_post	2		12	49.0	2.5	blank	1.0	253.07194900512695	0.10001492500305176
52	231.4842848777771	fix_pre	0		120	50.0	2.5	/experiments/knapen_AOT/AOT_stimuli/rescaled_final/1838_fw.mp4	0.0	253.17196393013	1.000063180923462
52	231.66778898239136	pulse	0	t		50.0	2.5	/experiments/knapen_AOT/AOT_stimuli/rescaled_final/1838_fw.mp4	0.0	253.35546803474426	
52	232.48434805870056	movie	1		244	50.0	2.5	/experiments/knapen_AOT/AOT_stimuli/rescaled_final/1838_fw.mp4	0.0	254.17202711105347	2.500405788421631
52	233.26802492141724	pulse	1	t		50.0	2.5	/experiments/knapen_AOT/AOT_stimuli/rescaled_final/1838_fw.mp4	0.0	254.95570397377014	
52	234.86825895309448	pulse	1	t		50.0	2.5	/experiments/knapen_AOT/AOT_stimuli/rescaled_final/1838_fw.mp4	0.0	256.5559380054474	
52	234.9847538471222	fix_post	2		12	50.0	2.5	/experiments/knapen_AOT/AOT_stimuli/rescaled_final/1838_fw.mp4	0.0	256.6724328994751	0.09997701644897461
53	235.08473086357117	fix_pre	0		120	51.0	2.5	/experiments/knapen_AOT/AOT_stimuli/rescaled_final/2088_fw.mp4	0.0	256.7724099159241	1.0001561641693115
53	236.08488702774048	movie	1		243	51.0	2.5	/experiments/knapen_AOT/AOT_stimuli/rescaled_final/2088_fw.mp4	0.0	257.7725660800934	2.4920458793640137
53	236.46919798851013	pulse	1	t		51.0	2.5	/experiments/knapen_AOT/AOT_stimuli/rescaled_final/2088_fw.mp4	0.0	258.15687704086304	
53	238.06870794296265	pulse	1	t		51.0	2.5	/experiments/knapen_AOT/AOT_stimuli/rescaled_final/2088_fw.mp4	0.0	259.75638699531555	
53	238.5769329071045	fix_post	2		12	51.0	2.5	/experiments/knapen_AOT/AOT_stimuli/rescaled_final/2088_fw.mp4	0.0	260.2646119594574	0.10000896453857422
54	238.67694187164307	fix_pre	0		120	52.0	2.5	/experiments/knapen_AOT/AOT_stimuli/rescaled_final/0895_fw.mp4	0.0	260.364620923996	1.0001599788665771
54	239.66897988319397	pulse	0	t		52.0	2.5	/experiments/knapen_AOT/AOT_stimuli/rescaled_final/0895_fw.mp4	0.0	261.3566589355469	
54	239.67710185050964	movie	1		244	52.0	2.5	/experiments/knapen_AOT/AOT_stimuli/rescaled_final/0895_fw.mp4	0.0	261.36478090286255	2.508669137954712
54	241.26984000205994	pulse	1	t		52.0	2.5	/experiments/knapen_AOT/AOT_stimuli/rescaled_final/0895_fw.mp4	0.0	262.95751905441284	
54	242.18577098846436	fix_post	2		12	52.0	2.5	/experiments/knapen_AOT/AOT_stimuli/rescaled_final/0895_fw.mp4	0.0	263.87345004081726	0.10003399848937988
55	242.28580498695374	fix_pre	0		120	53.0	2.5	/experiments/knapen_AOT/AOT_stimuli/rescaled_final/1564_fw.mp4	0.0	263.97348403930664	1.0001718997955322
55	242.8619430065155	pulse	0	t		53.0	2.5	/experiments/knapen_AOT/AOT_stimuli/rescaled_final/1564_fw.mp4	0.0	264.5496220588684	
55	243.28597688674927	movie	1		244	53.0	2.5	/experiments/knapen_AOT/AOT_stimuli/rescaled_final/1564_fw.mp4	0.0	264.9736559391022	2.500359058380127
55	244.46194195747375	pulse	1	t		53.0	2.5	/experiments/knapen_AOT/AOT_stimuli/rescaled_final/1564_fw.mp4	0.0	266.14962100982666	
55	245.7863359451294	fix_post	2		12	53.0	2.5	/experiments/knapen_AOT/AOT_stimuli/rescaled_final/1564_fw.mp4	0.0	267.4740149974823	0.0999910831451416
56	245.88632702827454	fix_pre	0		120	54.0	2.5	blank	1.0	267.57400608062744	1.0001778602600098
56	246.06239700317383	pulse	0	t		54.0	2.5	blank	1.0	267.75007605552673	
56	246.88650488853455	movie	1		300	54.0	2.5	blank	1.0	268.57418394088745	2.500417947769165
56	247.6619348526001	pulse	1	t		54.0	2.5	blank	1.0	269.349613904953	
56	249.26200485229492	pulse	1	t		54.0	2.5	blank	1.0	270.9496839046478	
56	249.3869228363037	fix_post	2		12	54.0	2.5	blank	1.0	271.0746018886566	0.10003209114074707
57	249.48695492744446	fix_pre	0		120	55.0	2.5	/experiments/knapen_AOT/AOT_stimuli/rescaled_final/1329_fw.mp4	0.0	271.17463397979736	1.0000910758972168
57	250.48704600334167	movie	1		243	55.0	2.5	/experiments/knapen_AOT/AOT_stimuli/rescaled_final/1329_fw.mp4	0.0	272.1747250556946	2.4920849800109863
57	250.8622908592224	pulse	1	t		55.0	2.5	/experiments/knapen_AOT/AOT_stimuli/rescaled_final/1329_fw.mp4	0.0	272.5499699115753	
57	252.46263694763184	pulse	1	t		55.0	2.5	/experiments/knapen_AOT/AOT_stimuli/rescaled_final/1329_fw.mp4	0.0	274.15031599998474	
57	252.97913098335266	fix_post	2		12	55.0	2.5	/experiments/knapen_AOT/AOT_stimuli/rescaled_final/1329_fw.mp4	0.0	274.66681003570557	0.09997987747192383
58	253.07911086082458	fix_pre	0		119	56.0	2.5	/experiments/knapen_AOT/AOT_stimuli/rescaled_final/0433_fw.mp4	0.0	274.7667899131775	0.9917891025543213
58	254.06278586387634	pulse	0	t		56.0	2.5	/experiments/knapen_AOT/AOT_stimuli/rescaled_final/0433_fw.mp4	0.0	275.75046491622925	
58	254.0708999633789	movie	1		246	56.0	2.5	/experiments/knapen_AOT/AOT_stimuli/rescaled_final/0433_fw.mp4	0.0	275.7585790157318	2.5087199211120605
58	255.66356492042542	pulse	1	t		56.0	2.5	/experiments/knapen_AOT/AOT_stimuli/rescaled_final/0433_fw.mp4	0.0	277.3512439727783	
58	256.57961988449097	fix_post	2		12	56.0	2.5	/experiments/knapen_AOT/AOT_stimuli/rescaled_final/0433_fw.mp4	0.0	278.2672989368439	0.10002517700195312
59	256.6796450614929	fix_pre	0		120	57.0	2.5	/experiments/knapen_AOT/AOT_stimuli/rescaled_final/2078_rv.mp4	0.0	278.3673241138458	1.0001819133758545
59	257.26327085494995	pulse	0	t		57.0	2.5	/experiments/knapen_AOT/AOT_stimuli/rescaled_final/2078_rv.mp4	0.0	278.95094990730286	
59	257.6798269748688	movie	1		243	57.0	2.5	/experiments/knapen_AOT/AOT_stimuli/rescaled_final/2078_rv.mp4	0.0	279.3675060272217	2.500333070755005
59	258.8635449409485	pulse	1	t		57.0	2.5	/experiments/knapen_AOT/AOT_stimuli/rescaled_final/2078_rv.mp4	0.0	280.5512239933014	
59	260.1801600456238	fix_post	2		12	57.0	2.5	/experiments/knapen_AOT/AOT_stimuli/rescaled_final/2078_rv.mp4	0.0	281.8678390979767	0.10001182556152344
60	260.2801718711853	fix_pre	0		120	58.0	2.5	/experiments/knapen_AOT/AOT_stimuli/rescaled_final/0535_rv.mp4	0.0	281.9678509235382	1.0001490116119385
60	260.4637498855591	pulse	0	t		58.0	2.5	/experiments/knapen_AOT/AOT_stimuli/rescaled_final/0535_rv.mp4	0.0	282.151428937912	
60	261.28032088279724	movie	1		243	58.0	2.5	/experiments/knapen_AOT/AOT_stimuli/rescaled_final/0535_rv.mp4	0.0	282.96799993515015	2.5004351139068604
60	262.0639979839325	pulse	1	t		58.0	2.5	/experiments/knapen_AOT/AOT_stimuli/rescaled_final/0535_rv.mp4	0.0	283.7516770362854	
60	263.66419887542725	pulse	1	t		58.0	2.5	/experiments/knapen_AOT/AOT_stimuli/rescaled_final/0535_rv.mp4	0.0	285.35187792778015	
60	263.7807559967041	fix_post	2		12	58.0	2.5	/experiments/knapen_AOT/AOT_stimuli/rescaled_final/0535_rv.mp4	0.0	285.468435049057	0.09992790222167969
61	263.8806838989258	fix_pre	0		120	59.0	2.5	/experiments/knapen_AOT/AOT_stimuli/rescaled_final/0335_fw.mp4	0.0	285.5683629512787	1.000169038772583
61	264.88085293769836	movie	1		243	59.0	2.5	/experiments/knapen_AOT/AOT_stimuli/rescaled_final/0335_fw.mp4	0.0	286.56853199005127	2.492032051086426
61	265.2651300430298	pulse	1	t		59.0	2.5	/experiments/knapen_AOT/AOT_stimuli/rescaled_final/0335_fw.mp4	0.0	286.9528090953827	
61	266.8646340370178	pulse	1	t		59.0	2.5	/experiments/knapen_AOT/AOT_stimuli/rescaled_final/0335_fw.mp4	0.0	288.5523130893707	
61	267.3728849887848	fix_post	2		12	59.0	2.5	/experiments/knapen_AOT/AOT_stimuli/rescaled_final/0335_fw.mp4	0.0	289.0605640411377	0.1000509262084961
62	267.4729359149933	fix_pre	0		120	60.0	2.5	/experiments/knapen_AOT/AOT_stimuli/rescaled_final/1568_fw.mp4	0.0	289.1606149673462	1.0001189708709717
62	268.46492886543274	pulse	0	t		60.0	2.5	/experiments/knapen_AOT/AOT_stimuli/rescaled_final/1568_fw.mp4	0.0	290.15260791778564	
62	268.47305488586426	movie	1		245	60.0	2.5	/experiments/knapen_AOT/AOT_stimuli/rescaled_final/1568_fw.mp4	0.0	290.16073393821716	2.508686065673828
62	270.0661869049072	pulse	1	t		60.0	2.5	/experiments/knapen_AOT/AOT_stimuli/rescaled_final/1568_fw.mp4	0.0	291.75386595726013	
62	270.9817409515381	fix_post	2		12	60.0	2.5	/experiments/knapen_AOT/AOT_stimuli/rescaled_final/1568_fw.mp4	0.0	292.669420003891	0.1000070571899414
63	271.081748008728	fix_pre	0		120	61.0	2.5	blank	1.0	292.76942706108093	1.0002000331878662
63	271.66543984413147	pulse	0	t		61.0	2.5	blank	1.0	293.3531188964844	
63	272.0819480419159	movie	1		300	61.0	2.5	blank	1.0	293.7696270942688	2.5003600120544434
63	273.26561093330383	pulse	1	t		61.0	2.5	blank	1.0	294.95328998565674	
63	274.58230805397034	fix_post	2		12	61.0	2.5	blank	1.0	296.26998710632324	0.0999898910522461
64	274.6822979450226	fix_pre	0		120	62.0	2.5	/experiments/knapen_AOT/AOT_stimuli/rescaled_final/0024_fw.mp4	0.0	296.3699769973755	1.0001521110534668
64	274.8660569190979	pulse	0	t		62.0	2.5	/experiments/knapen_AOT/AOT_stimuli/rescaled_final/0024_fw.mp4	0.0	296.5537359714508	
64	275.68245005607605	movie	1		241	62.0	2.5	/experiments/knapen_AOT/AOT_stimuli/rescaled_final/0024_fw.mp4	0.0	297.37012910842896	2.5003809928894043
64	276.46624398231506	pulse	1	t		62.0	2.5	/experiments/knapen_AOT/AOT_stimuli/rescaled_final/0024_fw.mp4	0.0	298.15392303466797	
64	278.06397795677185	pulse	1	t		62.0	2.5	/experiments/knapen_AOT/AOT_stimuli/rescaled_final/0024_fw.mp4	0.0	299.75165700912476	
64	278.18283104896545	fix_post	2		12	62.0	2.5	/experiments/knapen_AOT/AOT_stimuli/rescaled_final/0024_fw.mp4	0.0	299.87051010131836	0.10000896453857422
65	278.282840013504	fix_pre	0		120	63.0	2.5	/experiments/knapen_AOT/AOT_stimuli/rescaled_final/0556_fw.mp4	0.0	299.97051906585693	1.0001888275146484
65	279.2830288410187	movie	1		243	63.0	2.5	/experiments/knapen_AOT/AOT_stimuli/rescaled_final/0556_fw.mp4	0.0	300.9707078933716	2.49204421043396
65	279.66727805137634	pulse	1	t		63.0	2.5	/experiments/knapen_AOT/AOT_stimuli/rescaled_final/0556_fw.mp4	0.0	301.35495710372925	
65	281.2669439315796	pulse	1	t		63.0	2.5	/experiments/knapen_AOT/AOT_stimuli/rescaled_final/0556_fw.mp4	0.0	302.9546229839325	
65	281.77507305145264	fix_post	2		12	63.0	2.5	/experiments/knapen_AOT/AOT_stimuli/rescaled_final/0556_fw.mp4	0.0	303.46275210380554	0.10005378723144531
66	281.8751268386841	fix_pre	0		120	64.0	2.5	/experiments/knapen_AOT/AOT_stimuli/rescaled_final/0901_rv.mp4	0.0	303.562805891037	1.0001552104949951
66	282.86718487739563	pulse	0	t		64.0	2.5	/experiments/knapen_AOT/AOT_stimuli/rescaled_final/0901_rv.mp4	0.0	304.55486392974854	
66	282.8752820491791	movie	1		249	64.0	2.5	/experiments/knapen_AOT/AOT_stimuli/rescaled_final/0901_rv.mp4	0.0	304.562961101532	2.5086379051208496
66	284.4687719345093	pulse	1	t		64.0	2.5	/experiments/knapen_AOT/AOT_stimuli/rescaled_final/0901_rv.mp4	0.0	306.1564509868622	
66	285.3839199542999	fix_post	2		12	64.0	2.5	/experiments/knapen_AOT/AOT_stimuli/rescaled_final/0901_rv.mp4	0.0	307.07159900665283	0.09997892379760742
67	285.48389887809753	fix_pre	0		120	65.0	2.5	/experiments/knapen_AOT/AOT_stimuli/rescaled_final/0811_fw.mp4	0.0	307.17157793045044	1.0001990795135498
67	286.0674948692322	pulse	0	t		65.0	2.5	/experiments/knapen_AOT/AOT_stimuli/rescaled_final/0811_fw.mp4	0.0	307.7551739215851	
67	286.4840979576111	movie	1		245	65.0	2.5	/experiments/knapen_AOT/AOT_stimuli/rescaled_final/0811_fw.mp4	0.0	308.171777009964	2.5003468990325928
67	287.6678469181061	pulse	1	t		65.0	2.5	/experiments/knapen_AOT/AOT_stimuli/rescaled_final/0811_fw.mp4	0.0	309.355525970459	
67	288.9844448566437	fix_post	2		12	65.0	2.5	/experiments/knapen_AOT/AOT_stimuli/rescaled_final/0811_fw.mp4	0.0	310.6721239089966	0.10003399848937988
68	289.08447885513306	fix_pre	0		120	66.0	2.5	/experiments/knapen_AOT/AOT_stimuli/rescaled_final/1730_rv.mp4	0.0	310.77215790748596	1.0001599788665771
68	289.26813793182373	pulse	0	t		66.0	2.5	/experiments/knapen_AOT/AOT_stimuli/rescaled_final/1730_rv.mp4	0.0	310.95581698417664	
68	290.08463883399963	movie	1		244	66.0	2.5	/experiments/knapen_AOT/AOT_stimuli/rescaled_final/1730_rv.mp4	0.0	311.77231788635254	2.5003271102905273
68	290.8683559894562	pulse	1	t		66.0	2.5	/experiments/knapen_AOT/AOT_stimuli/rescaled_final/1730_rv.mp4	0.0	312.5560350418091	
68	292.4684970378876	pulse	1	t		66.0	2.5	/experiments/knapen_AOT/AOT_stimuli/rescaled_final/1730_rv.mp4	0.0	314.1561760902405	
68	292.58496594429016	fix_post	2		12	66.0	2.5	/experiments/knapen_AOT/AOT_stimuli/rescaled_final/1730_rv.mp4	0.0	314.27264499664307	0.10001206398010254
69	292.68497800827026	fix_pre	0		120	67.0	2.5	/experiments/knapen_AOT/AOT_stimuli/rescaled_final/1621_rv.mp4	0.0	314.37265706062317	1.0002200603485107
69	293.6851980686188	movie	1		242	67.0	2.5	/experiments/knapen_AOT/AOT_stimuli/rescaled_final/1621_rv.mp4	0.0	315.3728771209717	2.491978883743286
69	294.0693998336792	pulse	1	t		67.0	2.5	/experiments/knapen_AOT/AOT_stimuli/rescaled_final/1621_rv.mp4	0.0	315.7570788860321	
69	295.6689670085907	pulse	1	t		67.0	2.5	/experiments/knapen_AOT/AOT_stimuli/rescaled_final/1621_rv.mp4	0.0	317.3566460609436	
69	296.17717695236206	fix_post	2		12	67.0	2.5	/experiments/knapen_AOT/AOT_stimuli/rescaled_final/1621_rv.mp4	0.0	317.86485600471497	0.10005903244018555
70	296.27723598480225	fix_pre	0		120	68.0	2.5	/experiments/knapen_AOT/AOT_stimuli/rescaled_final/0935_rv.mp4	0.0	317.96491503715515	1.0001130104064941
70	297.261656999588	pulse	0	t		68.0	2.5	/experiments/knapen_AOT/AOT_stimuli/rescaled_final/0935_rv.mp4	0.0	318.9493360519409	
70	297.27734899520874	movie	1		244	68.0	2.5	/experiments/knapen_AOT/AOT_stimuli/rescaled_final/0935_rv.mp4	0.0	318.96502804756165	2.5086939334869385
70	298.870689868927	pulse	1	t		68.0	2.5	/experiments/knapen_AOT/AOT_stimuli/rescaled_final/0935_rv.mp4	0.0	320.5583689212799	
70	299.7860429286957	fix_post	2		12	68.0	2.5	/experiments/knapen_AOT/AOT_stimuli/rescaled_final/0935_rv.mp4	0.0	321.4737219810486	0.10002803802490234
71	299.8860709667206	fix_pre	0		120	69.0	2.5	/experiments/knapen_AOT/AOT_stimuli/rescaled_final/2075_rv.mp4	0.0	321.5737500190735	1.0001940727233887
71	300.46212005615234	pulse	0	t		69.0	2.5	/experiments/knapen_AOT/AOT_stimuli/rescaled_final/2075_rv.mp4	0.0	322.14979910850525	
71	300.88626503944397	movie	1		245	69.0	2.5	/experiments/knapen_AOT/AOT_stimuli/rescaled_final/2075_rv.mp4	0.0	322.5739440917969	2.5004358291625977
71	302.0622088909149	pulse	1	t		69.0	2.5	/experiments/knapen_AOT/AOT_stimuli/rescaled_final/2075_rv.mp4	0.0	323.7498879432678	
71	303.38670086860657	fix_post	2		12	69.0	2.5	/experiments/knapen_AOT/AOT_stimuli/rescaled_final/2075_rv.mp4	0.0	325.0743799209595	0.09993219375610352
72	303.48663306236267	fix_pre	0		120	70.0	2.5	blank	1.0	325.1743121147156	1.0001258850097656
72	303.66174507141113	pulse	0	t		70.0	2.5	blank	1.0	325.34942412376404	
72	304.48675894737244	movie	1		300	70.0	2.5	blank	1.0	326.17443799972534	2.5003719329833984
72	305.2620429992676	pulse	1	t		70.0	2.5	blank	1.0	326.9497220516205	
72	306.8623230457306	pulse	1	t		70.0	2.5	blank	1.0	328.5500020980835	
72	306.98713088035583	fix_post	2		12	70.0	2.5	blank	1.0	328.67480993270874	0.09999704360961914
73	307.08712792396545	fix_pre	0		120	71.0	2.5	/experiments/knapen_AOT/AOT_stimuli/rescaled_final/1169_rv.mp4	0.0	328.77480697631836	1.000162124633789
73	308.08729004859924	movie	1		243	71.0	2.5	/experiments/knapen_AOT/AOT_stimuli/rescaled_final/1169_rv.mp4	0.0	329.77496910095215	2.49204683303833
73	308.46250104904175	pulse	1	t		71.0	2.5	/experiments/knapen_AOT/AOT_stimuli/rescaled_final/1169_rv.mp4	0.0	330.15018010139465	
73	310.0628650188446	pulse	1	t		71.0	2.5	/experiments/knapen_AOT/AOT_stimuli/rescaled_final/1169_rv.mp4	0.0	331.7505440711975	
73	310.5793368816376	fix_post	2		12	71.0	2.5	/experiments/knapen_AOT/AOT_stimuli/rescaled_final/1169_rv.mp4	0.0	332.2670159339905	0.10000014305114746
74	310.6793370246887	fix_pre	0		119	72.0	2.5	/experiments/knapen_AOT/AOT_stimuli/rescaled_final/0457_fw.mp4	0.0	332.3670160770416	0.9918339252471924
74	311.66300201416016	pulse	0	t		72.0	2.5	/experiments/knapen_AOT/AOT_stimuli/rescaled_final/0457_fw.mp4	0.0	333.35068106651306	
74	311.6711709499359	movie	1		246	72.0	2.5	/experiments/knapen_AOT/AOT_stimuli/rescaled_final/0457_fw.mp4	0.0	333.3588500022888	2.5086750984191895
74	313.2639570236206	pulse	1	t		72.0	2.5	/experiments/knapen_AOT/AOT_stimuli/rescaled_final/0457_fw.mp4	0.0	334.9516360759735	
74	314.1798460483551	fix_post	2		12	72.0	2.5	/experiments/knapen_AOT/AOT_stimuli/rescaled_final/0457_fw.mp4	0.0	335.867525100708	0.10002779960632324
75	314.2798738479614	fix_pre	0		120	73.0	2.5	/experiments/knapen_AOT/AOT_stimuli/rescaled_final/1113_rv.mp4	0.0	335.96755290031433	1.0002620220184326
75	314.86354398727417	pulse	0	t		73.0	2.5	/experiments/knapen_AOT/AOT_stimuli/rescaled_final/1113_rv.mp4	0.0	336.5512230396271	
75	315.28013586997986	movie	1		243	73.0	2.5	/experiments/knapen_AOT/AOT_stimuli/rescaled_final/1113_rv.mp4	0.0	336.96781492233276	2.500253200531006
75	316.46379685401917	pulse	1	t		73.0	2.5	/experiments/knapen_AOT/AOT_stimuli/rescaled_final/1113_rv.mp4	0.0	338.15147590637207	
75	317.78038907051086	fix_post	2		12	73.0	2.5	/experiments/knapen_AOT/AOT_stimuli/rescaled_final/1113_rv.mp4	0.0	339.46806812286377	0.10007476806640625
76	317.88046383857727	fix_pre	0		120	74.0	2.5	/experiments/knapen_AOT/AOT_stimuli/rescaled_final/1939_fw.mp4	0.0	339.5681428909302	1.0001611709594727
76	318.0639579296112	pulse	0	t		74.0	2.5	/experiments/knapen_AOT/AOT_stimuli/rescaled_final/1939_fw.mp4	0.0	339.7516369819641	
76	318.88062500953674	movie	1		245	74.0	2.5	/experiments/knapen_AOT/AOT_stimuli/rescaled_final/1939_fw.mp4	0.0	340.56830406188965	2.500293016433716
76	319.6642119884491	pulse	1	t		74.0	2.5	/experiments/knapen_AOT/AOT_stimuli/rescaled_final/1939_fw.mp4	0.0	341.351891040802	
76	321.26454997062683	pulse	1	t		74.0	2.5	/experiments/knapen_AOT/AOT_stimuli/rescaled_final/1939_fw.mp4	0.0	342.95222902297974	
76	321.38091802597046	fix_post	2		12	74.0	2.5	/experiments/knapen_AOT/AOT_stimuli/rescaled_final/1939_fw.mp4	0.0	343.06859707832336	0.10005688667297363
77	321.48097491264343	fix_pre	0		120	75.0	2.5	/experiments/knapen_AOT/AOT_stimuli/rescaled_final/1143_rv.mp4	0.0	343.16865396499634	1.0001380443572998
77	322.48111295700073	movie	1		244	75.0	2.5	/experiments/knapen_AOT/AOT_stimuli/rescaled_final/1143_rv.mp4	0.0	344.16879200935364	2.4920520782470703
77	322.86562490463257	pulse	1	t		75.0	2.5	/experiments/knapen_AOT/AOT_stimuli/rescaled_final/1143_rv.mp4	0.0	344.5533039569855	
77	324.4649188518524	pulse	1	t		75.0	2.5	/experiments/knapen_AOT/AOT_stimuli/rescaled_final/1143_rv.mp4	0.0	346.1525979042053	
77	324.9731650352478	fix_post	2		12	75.0	2.5	/experiments/knapen_AOT/AOT_stimuli/rescaled_final/1143_rv.mp4	0.0	346.6608440876007	0.09998893737792969
78	325.07315397262573	fix_pre	0		120	76.0	2.5	blank	1.0	346.76083302497864	1.0001709461212158
78	326.06525206565857	pulse	0	t		76.0	2.5	blank	1.0	347.7529311180115	
78	326.07332491874695	movie	1		301	76.0	2.5	blank	1.0	347.76100397109985	2.5086870193481445
78	327.66555094718933	pulse	1	t		76.0	2.5	blank	1.0	349.35322999954224	
78	328.5820119380951	fix_post	2		12	76.0	2.5	blank	1.0	350.269690990448	0.10003089904785156
79	328.68204283714294	fix_pre	0		120	77.0	2.5	/experiments/knapen_AOT/AOT_stimuli/rescaled_final/0261_fw.mp4	0.0	350.36972188949585	1.0001230239868164
79	329.2655749320984	pulse	0	t		77.0	2.5	/experiments/knapen_AOT/AOT_stimuli/rescaled_final/0261_fw.mp4	0.0	350.9532539844513	
79	329.68216586112976	movie	1		246	77.0	2.5	/experiments/knapen_AOT/AOT_stimuli/rescaled_final/0261_fw.mp4	0.0	351.36984491348267	2.5003671646118164
79	330.86596488952637	pulse	1	t		77.0	2.5	/experiments/knapen_AOT/AOT_stimuli/rescaled_final/0261_fw.mp4	0.0	352.5536439418793	
79	332.1825330257416	fix_post	2		12	77.0	2.5	/experiments/knapen_AOT/AOT_stimuli/rescaled_final/0261_fw.mp4	0.0	353.8702120780945	0.1000218391418457
80	332.2825548648834	fix_pre	0		120	78.0	2.5	/experiments/knapen_AOT/AOT_stimuli/rescaled_final/0910_fw.mp4	0.0	353.9702339172363	1.0001401901245117
80	332.4660789966583	pulse	0	t		78.0	2.5	/experiments/knapen_AOT/AOT_stimuli/rescaled_final/0910_fw.mp4	0.0	354.15375804901123	
80	333.28269505500793	movie	1		243	78.0	2.5	/experiments/knapen_AOT/AOT_stimuli/rescaled_final/0910_fw.mp4	0.0	354.97037410736084	2.500377893447876
80	334.06635785102844	pulse	1	t		78.0	2.5	/experiments/knapen_AOT/AOT_stimuli/rescaled_final/0910_fw.mp4	0.0	355.75403690338135	
80	335.6667149066925	pulse	1	t		78.0	2.5	/experiments/knapen_AOT/AOT_stimuli/rescaled_final/0910_fw.mp4	0.0	357.3543939590454	
80	335.7830729484558	fix_post	2		12	78.0	2.5	/experiments/knapen_AOT/AOT_stimuli/rescaled_final/0910_fw.mp4	0.0	357.4707520008087	0.10003209114074707
81	335.88310503959656	fix_pre	0		120	79.0	2.5	/experiments/knapen_AOT/AOT_stimuli/rescaled_final/0086_rv.mp4	0.0	357.57078409194946	1.0001578330993652
81	336.8832628726959	movie	1		240	79.0	2.5	/experiments/knapen_AOT/AOT_stimuli/rescaled_final/0086_rv.mp4	0.0	358.5709419250488	2.492048978805542
81	337.2681128978729	pulse	1	t		79.0	2.5	/experiments/knapen_AOT/AOT_stimuli/rescaled_final/0086_rv.mp4	0.0	358.95579195022583	
81	338.8670859336853	pulse	1	t		79.0	2.5	/experiments/knapen_AOT/AOT_stimuli/rescaled_final/0086_rv.mp4	0.0	360.5547649860382	
81	339.37531185150146	fix_post	2		12	79.0	2.5	/experiments/knapen_AOT/AOT_stimuli/rescaled_final/0086_rv.mp4	0.0	361.06299090385437	0.10000300407409668
82	339.47531485557556	fix_pre	0		120	80.0	2.5	/experiments/knapen_AOT/AOT_stimuli/rescaled_final/0189_rv.mp4	0.0	361.16299390792847	1.0001270771026611
82	340.46738600730896	pulse	0	t		80.0	2.5	/experiments/knapen_AOT/AOT_stimuli/rescaled_final/0189_rv.mp4	0.0	362.15506505966187	
82	340.4754419326782	movie	1		244	80.0	2.5	/experiments/knapen_AOT/AOT_stimuli/rescaled_final/0189_rv.mp4	0.0	362.1631209850311	2.508759021759033
82	342.06797099113464	pulse	1	t		80.0	2.5	/experiments/knapen_AOT/AOT_stimuli/rescaled_final/0189_rv.mp4	0.0	363.75565004348755	
82	342.98420095443726	fix_post	2		12	80.0	2.5	/experiments/knapen_AOT/AOT_stimuli/rescaled_final/0189_rv.mp4	0.0	364.67188000679016	0.099945068359375
83	343.08414602279663	fix_pre	0		120	81.0	2.5	/experiments/knapen_AOT/AOT_stimuli/rescaled_final/1564_rv.mp4	0.0	364.77182507514954	1.0001859664916992
83	343.667809009552	pulse	0	t		81.0	2.5	/experiments/knapen_AOT/AOT_stimuli/rescaled_final/1564_rv.mp4	0.0	365.3554880619049	
83	344.08433198928833	movie	1		244	81.0	2.5	/experiments/knapen_AOT/AOT_stimuli/rescaled_final/1564_rv.mp4	0.0	365.77201104164124	2.500349998474121
83	345.2646589279175	pulse	1	t		81.0	2.5	/experiments/knapen_AOT/AOT_stimuli/rescaled_final/1564_rv.mp4	0.0	366.9523379802704	
83	346.58468198776245	fix_post	2		12	81.0	2.5	/experiments/knapen_AOT/AOT_stimuli/rescaled_final/1564_rv.mp4	0.0	368.27236104011536	0.10002994537353516
84	346.684711933136	fix_pre	0		120	82.0	2.5	blank	1.0	368.3723909854889	1.0001399517059326
84	346.8682849407196	pulse	0	t		82.0	2.5	blank	1.0	368.5559639930725	
84	347.6848518848419	movie	1		300	82.0	2.5	blank	1.0	369.3725309371948	2.500427007675171
84	348.46846890449524	pulse	1	t		82.0	2.5	blank	1.0	370.15614795684814	
84	350.06873893737793	pulse	1	t		82.0	2.5	blank	1.0	371.75641798973083	
84	350.1852788925171	fix_post	2		12	82.0	2.5	blank	1.0	371.87295794487	0.1000051498413086
85	350.2852840423584	fix_pre	0		120	83.0	2.5	/experiments/knapen_AOT/AOT_stimuli/rescaled_final/2165_rv.mp4	0.0	371.9729630947113	1.0000889301300049
85	351.2853729724884	movie	1		243	83.0	2.5	/experiments/knapen_AOT/AOT_stimuli/rescaled_final/2165_rv.mp4	0.0	372.9730520248413	2.4920458793640137
85	351.67400789260864	pulse	1	t		83.0	2.5	/experiments/knapen_AOT/AOT_stimuli/rescaled_final/2165_rv.mp4	0.0	373.36168694496155	
85	353.2619800567627	pulse	1	t		83.0	2.5	/experiments/knapen_AOT/AOT_stimuli/rescaled_final/2165_rv.mp4	0.0	374.9496591091156	
85	353.7774188518524	fix_post	2		12	83.0	2.5	/experiments/knapen_AOT/AOT_stimuli/rescaled_final/2165_rv.mp4	0.0	375.4650979042053	0.10004806518554688
87	353.87746691703796	stim	0		1716					375.56514596939087	14.302197933197021
87	354.8621609210968	pulse	0	t						376.5498399734497	
87	356.46236991882324	pulse	0	t						378.15004897117615	
87	358.0625488758087	pulse	0	t						379.7502279281616	
87	359.66279888153076	pulse	0	t						381.35047793388367	
87	361.26212787628174	pulse	0	t						382.94980692863464	
87	362.86219787597656	pulse	0	t						384.54987692832947	
87	364.4624319076538	pulse	0	t						386.1501109600067	
87	366.06278800964355	pulse	0	t						387.75046706199646	
87	367.66305804252625	pulse	0	t						389.35073709487915	
