trial_nr	onset	event_type	phase	response	nr_frames	movie_index	movie_duration	movie_file	blank	onset_abs	duration
0	0.14945483207702637	stim	0		79					25.768446922302246	0.667133092880249
0	0.8014638423919678	response	0	space						26.420455932617188	
1	0.8165879249572754	stim	0		2561					26.435580015182495	21.341312885284424
1	22.1532039642334	pulse	0	t						47.77219605445862	
1	22.1579008102417	stim	1		1717					47.77689290046692	14.308531045913696
1	23.74252200126648	pulse	1	t						49.3615140914917	
1	25.342618942260742	pulse	1	t						50.96161103248596	
1	26.942474842071533	pulse	1	t						52.56146693229675	
1	28.542557954788208	pulse	1	t						54.16155004501343	
1	30.142526865005493	pulse	1	t						55.76151895523071	
1	31.758368968963623	pulse	1	t						57.37736105918884	
1	33.34240794181824	pulse	1	t						58.96140003204346	
1	34.94984984397888	pulse	1	t						60.5688419342041	
2	36.466431856155396	fix_pre	0		11	0.0	2.5	/experiments/AOT/AOT_stimuli/rescaled_final/1331_fw.mp4	0.0	62.085423946380615	0.09166312217712402
2	36.549968004226685	pulse	0	t		0.0	2.5	/experiments/AOT/AOT_stimuli/rescaled_final/1331_fw.mp4	0.0	62.168960094451904	
2	36.55809497833252	movie	1		244	0.0	2.5	/experiments/AOT/AOT_stimuli/rescaled_final/1331_fw.mp4	0.0	62.17708706855774	2.508347988128662
2	38.15109896659851	pulse	1	t		0.0	2.5	/experiments/AOT/AOT_stimuli/rescaled_final/1331_fw.mp4	0.0	63.77009105682373	
2	39.06644296646118	fix_post	2		12	0.0	2.5	/experiments/AOT/AOT_stimuli/rescaled_final/1331_fw.mp4	0.0	64.6854350566864	0.10004401206970215
3	39.166486978530884	fix_pre	0		120	1.0	2.5	/experiments/AOT/AOT_stimuli/rescaled_final/1821_fw.mp4	0.0	64.7854790687561	0.9999349117279053
3	39.74239778518677	pulse	0	t		1.0	2.5	/experiments/AOT/AOT_stimuli/rescaled_final/1821_fw.mp4	0.0	65.36138987541199	
3	40.16642189025879	movie	1		246	1.0	2.5	/experiments/AOT/AOT_stimuli/rescaled_final/1821_fw.mp4	0.0	65.78541398048401	2.4999771118164062
3	41.349984884262085	pulse	1	t		1.0	2.5	/experiments/AOT/AOT_stimuli/rescaled_final/1821_fw.mp4	0.0	66.9689769744873	
3	42.666399002075195	fix_post	2		12	1.0	2.5	/experiments/AOT/AOT_stimuli/rescaled_final/1821_fw.mp4	0.0	68.28539109230042	0.10001492500305176
4	42.76641392707825	fix_pre	0		120	2.0	2.5	/experiments/AOT/AOT_stimuli/rescaled_final/1781_fw.mp4	0.0	68.38540601730347	1.0000360012054443
4	42.942442893981934	pulse	0	t		2.0	2.5	/experiments/AOT/AOT_stimuli/rescaled_final/1781_fw.mp4	0.0	68.56143498420715	
4	43.76644992828369	movie	1		243	2.0	2.5	/experiments/AOT/AOT_stimuli/rescaled_final/1781_fw.mp4	0.0	69.38544201850891	2.4999799728393555
4	44.54255199432373	pulse	1	t		2.0	2.5	/experiments/AOT/AOT_stimuli/rescaled_final/1781_fw.mp4	0.0	70.16154408454895	
4	46.14891982078552	pulse	1	t		2.0	2.5	/experiments/AOT/AOT_stimuli/rescaled_final/1781_fw.mp4	0.0	71.76791191101074	
4	46.26642990112305	fix_post	2		12	2.0	2.5	/experiments/AOT/AOT_stimuli/rescaled_final/1781_fw.mp4	0.0	71.88542199134827	0.10001707077026367
5	46.36644697189331	fix_pre	0		120	3.0	2.5	/experiments/AOT/AOT_stimuli/rescaled_final/0600_rv.mp4	0.0	71.98543906211853	0.999924898147583
5	47.366371870040894	movie	1		245	3.0	2.5	/experiments/AOT/AOT_stimuli/rescaled_final/0600_rv.mp4	0.0	72.98536396026611	2.5000550746917725
5	47.74954700469971	pulse	1	t		3.0	2.5	/experiments/AOT/AOT_stimuli/rescaled_final/0600_rv.mp4	0.0	73.36853909492493	
5	49.342543840408325	pulse	1	t		3.0	2.5	/experiments/AOT/AOT_stimuli/rescaled_final/0600_rv.mp4	0.0	74.96153593063354	
5	49.866426944732666	fix_post	2		12	3.0	2.5	/experiments/AOT/AOT_stimuli/rescaled_final/0600_rv.mp4	0.0	75.48541903495789	0.09992289543151855
6	49.966349840164185	fix_pre	0		119	4.0	2.5	/experiments/AOT/AOT_stimuli/rescaled_final/0583_fw.mp4	0.0	75.5853419303894	0.9916591644287109
6	50.94233798980713	pulse	0	t		4.0	2.5	/experiments/AOT/AOT_stimuli/rescaled_final/0583_fw.mp4	0.0	76.56133008003235	
6	50.958009004592896	movie	1		244	4.0	2.5	/experiments/AOT/AOT_stimuli/rescaled_final/0583_fw.mp4	0.0	76.57700109481812	2.508305788040161
6	52.55008792877197	pulse	1	t		4.0	2.5	/experiments/AOT/AOT_stimuli/rescaled_final/0583_fw.mp4	0.0	78.16908001899719	
6	53.46631479263306	fix_post	2		12	4.0	2.5	/experiments/AOT/AOT_stimuli/rescaled_final/0583_fw.mp4	0.0	79.08530688285828	0.09999322891235352
7	53.56630802154541	fix_pre	0		120	5.0	2.5	/experiments/AOT/AOT_stimuli/rescaled_final/0279_rv.mp4	0.0	79.18530011177063	1.000060796737671
7	54.14988398551941	pulse	0	t		5.0	2.5	/experiments/AOT/AOT_stimuli/rescaled_final/0279_rv.mp4	0.0	79.76887607574463	
7	54.56636881828308	movie	1		245	5.0	2.5	/experiments/AOT/AOT_stimuli/rescaled_final/0279_rv.mp4	0.0	80.1853609085083	2.499567985534668
7	55.749913930892944	pulse	1	t		5.0	2.5	/experiments/AOT/AOT_stimuli/rescaled_final/0279_rv.mp4	0.0	81.36890602111816	
7	57.06593680381775	fix_post	2		12	5.0	2.5	/experiments/AOT/AOT_stimuli/rescaled_final/0279_rv.mp4	0.0	82.68492889404297	0.10037016868591309
8	57.16630697250366	fix_pre	0		120	6.0	2.5	/experiments/AOT/AOT_stimuli/rescaled_final/0816_rv.mp4	0.0	82.78529906272888	1.0000429153442383
8	57.342238903045654	pulse	0	t		6.0	2.5	/experiments/AOT/AOT_stimuli/rescaled_final/0816_rv.mp4	0.0	82.96123099327087	
8	58.1663498878479	movie	1		244	6.0	2.5	/experiments/AOT/AOT_stimuli/rescaled_final/0816_rv.mp4	0.0	83.78534197807312	2.4999799728393555
8	58.942505836486816	pulse	1	t		6.0	2.5	/experiments/AOT/AOT_stimuli/rescaled_final/0816_rv.mp4	0.0	84.56149792671204	
8	60.54803800582886	pulse	1	t		6.0	2.5	/experiments/AOT/AOT_stimuli/rescaled_final/0816_rv.mp4	0.0	86.16703009605408	
8	60.666329860687256	fix_post	2		12	6.0	2.5	/experiments/AOT/AOT_stimuli/rescaled_final/0816_rv.mp4	0.0	86.28532195091248	0.09999799728393555
9	60.76632785797119	fix_pre	0		120	7.0	2.5	blank	1.0	86.38531994819641	0.999993085861206
9	61.7663209438324	movie	1		300	7.0	2.5	blank	1.0	87.38531303405762	2.499971866607666
9	62.14231991767883	pulse	1	t		7.0	2.5	blank	1.0	87.76131200790405	
9	63.742271900177	pulse	1	t		7.0	2.5	blank	1.0	89.36126399040222	
9	64.26629281044006	fix_post	2		12	7.0	2.5	blank	1.0	89.88528490066528	0.09997820854187012
10	64.36627101898193	fix_pre	0		119	8.0	2.5	/experiments/AOT/AOT_stimuli/rescaled_final/1712_rv.mp4	0.0	89.98526310920715	0.9916849136352539
10	65.3423068523407	pulse	0	t		8.0	2.5	/experiments/AOT/AOT_stimuli/rescaled_final/1712_rv.mp4	0.0	90.96129894256592	
10	65.35795593261719	movie	1		244	8.0	2.5	/experiments/AOT/AOT_stimuli/rescaled_final/1712_rv.mp4	0.0	90.97694802284241	2.5083539485931396
10	66.94925785064697	pulse	1	t		8.0	2.5	/experiments/AOT/AOT_stimuli/rescaled_final/1712_rv.mp4	0.0	92.56824994087219	
10	67.86630988121033	fix_post	2		12	8.0	2.5	/experiments/AOT/AOT_stimuli/rescaled_final/1712_rv.mp4	0.0	93.48530197143555	0.10001707077026367
11	67.96632695198059	fix_pre	0		120	9.0	2.5	/experiments/AOT/AOT_stimuli/rescaled_final/0890_fw.mp4	0.0	93.58531904220581	1.0000100135803223
11	68.54976487159729	pulse	0	t		9.0	2.5	/experiments/AOT/AOT_stimuli/rescaled_final/0890_fw.mp4	0.0	94.16875696182251	
11	68.96633696556091	movie	1		244	9.0	2.5	/experiments/AOT/AOT_stimuli/rescaled_final/0890_fw.mp4	0.0	94.58532905578613	2.4999749660491943
11	70.14993095397949	pulse	1	t		9.0	2.5	/experiments/AOT/AOT_stimuli/rescaled_final/0890_fw.mp4	0.0	95.76892304420471	
11	71.46631193161011	fix_post	2		12	9.0	2.5	/experiments/AOT/AOT_stimuli/rescaled_final/0890_fw.mp4	0.0	97.08530402183533	0.09995198249816895
12	71.56626391410828	fix_pre	0		120	10.0	2.5	/experiments/AOT/AOT_stimuli/rescaled_final/1425_fw.mp4	0.0	97.1852560043335	0.9999430179595947
12	71.74978494644165	pulse	0	t		10.0	2.5	/experiments/AOT/AOT_stimuli/rescaled_final/1425_fw.mp4	0.0	97.36877703666687	
12	72.56620693206787	movie	1		246	10.0	2.5	/experiments/AOT/AOT_stimuli/rescaled_final/1425_fw.mp4	0.0	98.18519902229309	2.5001380443573
12	73.34977579116821	pulse	1	t		10.0	2.5	/experiments/AOT/AOT_stimuli/rescaled_final/1425_fw.mp4	0.0	98.96876788139343	
12	74.94224786758423	pulse	1	t		10.0	2.5	/experiments/AOT/AOT_stimuli/rescaled_final/1425_fw.mp4	0.0	100.56123995780945	
12	75.06634497642517	fix_post	2		12	10.0	2.5	/experiments/AOT/AOT_stimuli/rescaled_final/1425_fw.mp4	0.0	100.68533706665039	0.09998583793640137
13	75.16633081436157	fix_pre	0		120	11.0	2.5	/experiments/AOT/AOT_stimuli/rescaled_final/0634_fw.mp4	0.0	100.78532290458679	0.9999780654907227
13	76.1663088798523	movie	1		244	11.0	2.5	/experiments/AOT/AOT_stimuli/rescaled_final/0634_fw.mp4	0.0	101.78530097007751	2.5000789165496826
13	76.54889678955078	pulse	1	t		11.0	2.5	/experiments/AOT/AOT_stimuli/rescaled_final/0634_fw.mp4	0.0	102.167888879776	
13	78.14245295524597	pulse	1	t		11.0	2.5	/experiments/AOT/AOT_stimuli/rescaled_final/0634_fw.mp4	0.0	103.76144504547119	
13	78.66638779640198	fix_post	2		12	11.0	2.5	/experiments/AOT/AOT_stimuli/rescaled_final/0634_fw.mp4	0.0	104.2853798866272	0.10004520416259766
14	78.76643300056458	fix_pre	0		119	12.0	2.5	/experiments/AOT/AOT_stimuli/rescaled_final/0240_rv.mp4	0.0	104.3854250907898	0.9918358325958252
14	79.74215698242188	pulse	0	t		12.0	2.5	/experiments/AOT/AOT_stimuli/rescaled_final/0240_rv.mp4	0.0	105.3611490726471	
14	79.7582688331604	movie	1		247	12.0	2.5	/experiments/AOT/AOT_stimuli/rescaled_final/0240_rv.mp4	0.0	105.37726092338562	2.508013963699341
14	81.3507969379425	pulse	1	t		12.0	2.5	/experiments/AOT/AOT_stimuli/rescaled_final/0240_rv.mp4	0.0	106.96978902816772	
14	82.26628279685974	fix_post	2		12	12.0	2.5	/experiments/AOT/AOT_stimuli/rescaled_final/0240_rv.mp4	0.0	107.88527488708496	0.10001111030578613
15	82.36629390716553	fix_pre	0		120	13.0	2.5	/experiments/AOT/AOT_stimuli/rescaled_final/1175_fw.mp4	0.0	107.98528599739075	0.9999148845672607
15	82.94216990470886	pulse	0	t		13.0	2.5	/experiments/AOT/AOT_stimuli/rescaled_final/1175_fw.mp4	0.0	108.56116199493408	
15	83.36620879173279	movie	1		247	13.0	2.5	/experiments/AOT/AOT_stimuli/rescaled_final/1175_fw.mp4	0.0	108.98520088195801	2.5000290870666504
15	84.54980301856995	pulse	1	t		13.0	2.5	/experiments/AOT/AOT_stimuli/rescaled_final/1175_fw.mp4	0.0	110.16879510879517	
15	85.86623787879944	fix_post	2		12	13.0	2.5	/experiments/AOT/AOT_stimuli/rescaled_final/1175_fw.mp4	0.0	111.48522996902466	0.0999760627746582
16	85.9662139415741	fix_pre	0		120	14.0	2.5	blank	1.0	111.58520603179932	0.9999740123748779
16	86.14969086647034	pulse	0	t		14.0	2.5	blank	1.0	111.76868295669556	
16	86.96618795394897	movie	1		300	14.0	2.5	blank	1.0	112.5851800441742	2.5
16	87.74973487854004	pulse	1	t		14.0	2.5	blank	1.0	113.36872696876526	
16	89.34962391853333	pulse	1	t		14.0	2.5	blank	1.0	114.96861600875854	
16	89.46618795394897	fix_post	2		12	14.0	2.5	blank	1.0	115.0851800441742	0.09997391700744629
17	89.56616187095642	fix_pre	0		120	15.0	2.5	/experiments/AOT/AOT_stimuli/rescaled_final/0006_rv.mp4	0.0	115.18515396118164	1.0000479221343994
17	90.56620979309082	movie	1		242	15.0	2.5	/experiments/AOT/AOT_stimuli/rescaled_final/0006_rv.mp4	0.0	116.18520188331604	2.499941110610962
17	90.94931101799011	pulse	1	t		15.0	2.5	/experiments/AOT/AOT_stimuli/rescaled_final/0006_rv.mp4	0.0	116.56830310821533	
17	92.54226279258728	pulse	1	t		15.0	2.5	/experiments/AOT/AOT_stimuli/rescaled_final/0006_rv.mp4	0.0	118.1612548828125	
17	93.06615090370178	fix_post	2		12	15.0	2.5	/experiments/AOT/AOT_stimuli/rescaled_final/0006_rv.mp4	0.0	118.685142993927	0.10002994537353516
18	93.16618084907532	fix_pre	0		119	16.0	2.5	/experiments/AOT/AOT_stimuli/rescaled_final/0259_fw.mp4	0.0	118.78517293930054	0.9917140007019043
18	94.14230799674988	pulse	0	t		16.0	2.5	/experiments/AOT/AOT_stimuli/rescaled_final/0259_fw.mp4	0.0	119.7613000869751	
18	94.15789484977722	movie	1		244	16.0	2.5	/experiments/AOT/AOT_stimuli/rescaled_final/0259_fw.mp4	0.0	119.77688694000244	2.5082690715789795
18	95.74974393844604	pulse	1	t		16.0	2.5	/experiments/AOT/AOT_stimuli/rescaled_final/0259_fw.mp4	0.0	121.36873602867126	
18	96.6661639213562	fix_post	2		12	16.0	2.5	/experiments/AOT/AOT_stimuli/rescaled_final/0259_fw.mp4	0.0	122.28515601158142	0.09997987747192383
19	96.76614379882812	fix_pre	0		120	17.0	2.5	/experiments/AOT/AOT_stimuli/rescaled_final/0976_fw.mp4	0.0	122.38513588905334	1.000049114227295
19	97.34215092658997	pulse	0	t		17.0	2.5	/experiments/AOT/AOT_stimuli/rescaled_final/0976_fw.mp4	0.0	122.96114301681519	
19	97.76619291305542	movie	1		245	17.0	2.5	/experiments/AOT/AOT_stimuli/rescaled_final/0976_fw.mp4	0.0	123.38518500328064	2.500035047531128
19	98.94961595535278	pulse	1	t		17.0	2.5	/experiments/AOT/AOT_stimuli/rescaled_final/0976_fw.mp4	0.0	124.568608045578	
19	100.26622796058655	fix_post	2		12	17.0	2.5	/experiments/AOT/AOT_stimuli/rescaled_final/0976_fw.mp4	0.0	125.88522005081177	0.09997200965881348
20	100.36619997024536	fix_pre	0		120	18.0	2.5	/experiments/AOT/AOT_stimuli/rescaled_final/1211_rv.mp4	0.0	125.98519206047058	0.999891996383667
20	100.54969787597656	pulse	0	t		18.0	2.5	/experiments/AOT/AOT_stimuli/rescaled_final/1211_rv.mp4	0.0	126.16868996620178	
20	101.36609196662903	movie	1		245	18.0	2.5	/experiments/AOT/AOT_stimuli/rescaled_final/1211_rv.mp4	0.0	126.98508405685425	2.5000879764556885
20	102.14967393875122	pulse	1	t		18.0	2.5	/experiments/AOT/AOT_stimuli/rescaled_final/1211_rv.mp4	0.0	127.76866602897644	
20	103.74823188781738	pulse	1	t		18.0	2.5	/experiments/AOT/AOT_stimuli/rescaled_final/1211_rv.mp4	0.0	129.3672239780426	
20	103.86617994308472	fix_post	2		12	18.0	2.5	/experiments/AOT/AOT_stimuli/rescaled_final/1211_rv.mp4	0.0	129.48517203330994	0.09996485710144043
21	103.96614480018616	fix_pre	0		120	19.0	2.5	/experiments/AOT/AOT_stimuli/rescaled_final/0185_rv.mp4	0.0	129.58513689041138	1.0000572204589844
21	104.96620202064514	movie	1		245	19.0	2.5	/experiments/AOT/AOT_stimuli/rescaled_final/0185_rv.mp4	0.0	130.58519411087036	2.4999067783355713
21	105.3491849899292	pulse	1	t		19.0	2.5	/experiments/AOT/AOT_stimuli/rescaled_final/0185_rv.mp4	0.0	130.96817708015442	
21	106.94227886199951	pulse	1	t		19.0	2.5	/experiments/AOT/AOT_stimuli/rescaled_final/0185_rv.mp4	0.0	132.56127095222473	
21	107.46610879898071	fix_post	2		12	19.0	2.5	/experiments/AOT/AOT_stimuli/rescaled_final/0185_rv.mp4	0.0	133.08510088920593	0.10000920295715332
22	107.56611800193787	fix_pre	0		119	20.0	2.5	blank	1.0	133.1851100921631	0.9916408061981201
22	108.54966592788696	pulse	0	t		20.0	2.5	blank	1.0	134.16865801811218	
22	108.55775880813599	movie	1		301	20.0	2.5	blank	1.0	134.1767508983612	2.50828218460083
22	110.1495258808136	pulse	1	t		20.0	2.5	blank	1.0	135.76851797103882	
22	111.06604099273682	fix_post	2		12	20.0	2.5	blank	1.0	136.68503308296204	0.10006499290466309
23	111.16610598564148	fix_pre	0		120	21.0	2.5	/experiments/AOT/AOT_stimuli/rescaled_final/1918_fw.mp4	0.0	136.7850980758667	1.0000419616699219
23	111.74211001396179	pulse	0	t		21.0	2.5	/experiments/AOT/AOT_stimuli/rescaled_final/1918_fw.mp4	0.0	137.361102104187	
23	112.1661479473114	movie	1		243	21.0	2.5	/experiments/AOT/AOT_stimuli/rescaled_final/1918_fw.mp4	0.0	137.78514003753662	2.5000128746032715
23	113.34963893890381	pulse	1	t		21.0	2.5	/experiments/AOT/AOT_stimuli/rescaled_final/1918_fw.mp4	0.0	138.96863102912903	
23	114.66616082191467	fix_post	2		12	21.0	2.5	/experiments/AOT/AOT_stimuli/rescaled_final/1918_fw.mp4	0.0	140.2851529121399	0.09991598129272461
24	114.7660768032074	fix_pre	0		120	22.0	2.5	/experiments/AOT/AOT_stimuli/rescaled_final/1315_fw.mp4	0.0	140.38506889343262	1.0000569820404053
24	114.94207787513733	pulse	0	t		22.0	2.5	/experiments/AOT/AOT_stimuli/rescaled_final/1315_fw.mp4	0.0	140.56106996536255	
24	115.7661337852478	movie	1		244	22.0	2.5	/experiments/AOT/AOT_stimuli/rescaled_final/1315_fw.mp4	0.0	141.38512587547302	2.499913215637207
24	116.54960799217224	pulse	1	t		22.0	2.5	/experiments/AOT/AOT_stimuli/rescaled_final/1315_fw.mp4	0.0	142.16860008239746	
24	118.14833879470825	pulse	1	t		22.0	2.5	/experiments/AOT/AOT_stimuli/rescaled_final/1315_fw.mp4	0.0	143.76733088493347	
24	118.26604700088501	fix_post	2		12	22.0	2.5	/experiments/AOT/AOT_stimuli/rescaled_final/1315_fw.mp4	0.0	143.88503909111023	0.10006189346313477
25	118.36610889434814	fix_pre	0		120	23.0	2.5	/experiments/AOT/AOT_stimuli/rescaled_final/0601_rv.mp4	0.0	143.98510098457336	0.9999539852142334
25	119.36606287956238	movie	1		246	23.0	2.5	/experiments/AOT/AOT_stimuli/rescaled_final/0601_rv.mp4	0.0	144.9850549697876	2.4995899200439453
25	119.74916982650757	pulse	1	t		23.0	2.5	/experiments/AOT/AOT_stimuli/rescaled_final/0601_rv.mp4	0.0	145.3681619167328	
25	121.34952878952026	pulse	1	t		23.0	2.5	/experiments/AOT/AOT_stimuli/rescaled_final/0601_rv.mp4	0.0	146.96852087974548	
25	121.86565279960632	fix_post	2		12	23.0	2.5	/experiments/AOT/AOT_stimuli/rescaled_final/0601_rv.mp4	0.0	147.48464488983154	0.1003580093383789
26	121.9660108089447	fix_pre	0		119	24.0	2.5	/experiments/AOT/AOT_stimuli/rescaled_final/0715_fw.mp4	0.0	147.58500289916992	0.9917340278625488
26	122.94961881637573	pulse	0	t		24.0	2.5	/experiments/AOT/AOT_stimuli/rescaled_final/0715_fw.mp4	0.0	148.56861090660095	
26	122.95774483680725	movie	1		244	24.0	2.5	/experiments/AOT/AOT_stimuli/rescaled_final/0715_fw.mp4	0.0	148.57673692703247	2.5082650184631348
26	124.54937696456909	pulse	1	t		24.0	2.5	/experiments/AOT/AOT_stimuli/rescaled_final/0715_fw.mp4	0.0	150.1683690547943	
26	125.46600985527039	fix_post	2		12	24.0	2.5	/experiments/AOT/AOT_stimuli/rescaled_final/0715_fw.mp4	0.0	151.0850019454956	0.10010695457458496
27	125.56611680984497	fix_pre	0		120	25.0	2.5	/experiments/AOT/AOT_stimuli/rescaled_final/0816_fw.mp4	0.0	151.1851089000702	0.9998471736907959
27	126.14949297904968	pulse	0	t		25.0	2.5	/experiments/AOT/AOT_stimuli/rescaled_final/0816_fw.mp4	0.0	151.7684850692749	
27	126.56596398353577	movie	1		243	25.0	2.5	/experiments/AOT/AOT_stimuli/rescaled_final/0816_fw.mp4	0.0	152.184956073761	2.500034809112549
27	127.74960899353027	pulse	1	t		25.0	2.5	/experiments/AOT/AOT_stimuli/rescaled_final/0816_fw.mp4	0.0	153.3686010837555	
27	129.06599879264832	fix_post	2		12	25.0	2.5	/experiments/AOT/AOT_stimuli/rescaled_final/0816_fw.mp4	0.0	154.68499088287354	0.10010409355163574
28	129.16610288619995	fix_pre	0		120	26.0	2.5	blank	1.0	154.78509497642517	0.9994559288024902
28	129.34190487861633	pulse	0	t		26.0	2.5	blank	1.0	154.96089696884155	
28	130.16555881500244	movie	1		300	26.0	2.5	blank	1.0	155.78455090522766	2.500493049621582
28	130.94195795059204	pulse	1	t		26.0	2.5	blank	1.0	156.56095004081726	
28	132.54943585395813	pulse	1	t		26.0	2.5	blank	1.0	158.16842794418335	
28	132.66605186462402	fix_post	2		12	26.0	2.5	blank	1.0	158.28504395484924	0.09955406188964844
29	132.76560592651367	fix_pre	0		120	27.0	2.5	/experiments/AOT/AOT_stimuli/rescaled_final/1394_fw.mp4	0.0	158.3845980167389	1.000459909439087
29	133.76606583595276	movie	1		243	27.0	2.5	/experiments/AOT/AOT_stimuli/rescaled_final/1394_fw.mp4	0.0	159.38505792617798	2.4999570846557617
29	134.14892101287842	pulse	1	t		27.0	2.5	/experiments/AOT/AOT_stimuli/rescaled_final/1394_fw.mp4	0.0	159.76791310310364	
29	135.74934697151184	pulse	1	t		27.0	2.5	/experiments/AOT/AOT_stimuli/rescaled_final/1394_fw.mp4	0.0	161.36833906173706	
29	136.26602292060852	fix_post	2		12	27.0	2.5	/experiments/AOT/AOT_stimuli/rescaled_final/1394_fw.mp4	0.0	161.88501501083374	0.09997987747192383
30	136.36600279808044	fix_pre	0		119	28.0	2.5	/experiments/AOT/AOT_stimuli/rescaled_final/1130_fw.mp4	0.0	161.98499488830566	0.9915971755981445
30	137.34945678710938	pulse	0	t		28.0	2.5	/experiments/AOT/AOT_stimuli/rescaled_final/1130_fw.mp4	0.0	162.9684488773346	
30	137.3575999736786	movie	1		244	28.0	2.5	/experiments/AOT/AOT_stimuli/rescaled_final/1130_fw.mp4	0.0	162.9765920639038	2.5083940029144287
30	138.94899487495422	pulse	1	t		28.0	2.5	/experiments/AOT/AOT_stimuli/rescaled_final/1130_fw.mp4	0.0	164.56798696517944	
30	139.86599397659302	fix_post	2		12	28.0	2.5	/experiments/AOT/AOT_stimuli/rescaled_final/1130_fw.mp4	0.0	165.48498606681824	0.09996795654296875
31	139.965961933136	fix_pre	0		120	29.0	2.5	/experiments/AOT/AOT_stimuli/rescaled_final/0827_fw.mp4	0.0	165.5849540233612	0.9999139308929443
31	140.54934787750244	pulse	0	t		29.0	2.5	/experiments/AOT/AOT_stimuli/rescaled_final/0827_fw.mp4	0.0	166.16833996772766	
31	140.96587586402893	movie	1		248	29.0	2.5	/experiments/AOT/AOT_stimuli/rescaled_final/0827_fw.mp4	0.0	166.58486795425415	2.5000600814819336
31	142.14946579933167	pulse	1	t		29.0	2.5	/experiments/AOT/AOT_stimuli/rescaled_final/0827_fw.mp4	0.0	167.76845788955688	
31	143.46593594551086	fix_post	2		12	29.0	2.5	/experiments/AOT/AOT_stimuli/rescaled_final/0827_fw.mp4	0.0	169.08492803573608	0.09994697570800781
32	143.56588292121887	fix_pre	0		120	30.0	2.5	/experiments/AOT/AOT_stimuli/rescaled_final/0127_fw.mp4	0.0	169.1848750114441	1.0000710487365723
32	143.7493360042572	pulse	0	t		30.0	2.5	/experiments/AOT/AOT_stimuli/rescaled_final/0127_fw.mp4	0.0	169.36832809448242	
32	144.56595396995544	movie	1		245	30.0	2.5	/experiments/AOT/AOT_stimuli/rescaled_final/0127_fw.mp4	0.0	170.18494606018066	2.499521017074585
32	145.34195685386658	pulse	1	t		30.0	2.5	/experiments/AOT/AOT_stimuli/rescaled_final/0127_fw.mp4	0.0	170.9609489440918	
32	146.94764685630798	pulse	1	t		30.0	2.5	/experiments/AOT/AOT_stimuli/rescaled_final/0127_fw.mp4	0.0	172.5666389465332	
32	147.06547498703003	fix_post	2		12	30.0	2.5	/experiments/AOT/AOT_stimuli/rescaled_final/0127_fw.mp4	0.0	172.68446707725525	0.10040402412414551
33	147.16587901115417	fix_pre	0		120	31.0	2.5	/experiments/AOT/AOT_stimuli/rescaled_final/0165_rv.mp4	0.0	172.7848711013794	0.9999949932098389
33	148.165874004364	movie	1		243	31.0	2.5	/experiments/AOT/AOT_stimuli/rescaled_final/0165_rv.mp4	0.0	173.78486609458923	2.499631881713867
33	148.54908680915833	pulse	1	t		31.0	2.5	/experiments/AOT/AOT_stimuli/rescaled_final/0165_rv.mp4	0.0	174.16807889938354	
33	150.14930295944214	pulse	1	t		31.0	2.5	/experiments/AOT/AOT_stimuli/rescaled_final/0165_rv.mp4	0.0	175.76829504966736	
33	150.66550588607788	fix_post	2		12	31.0	2.5	/experiments/AOT/AOT_stimuli/rescaled_final/0165_rv.mp4	0.0	176.2844979763031	0.10036492347717285
34	150.76587080955505	fix_pre	0		119	32.0	2.5	/experiments/AOT/AOT_stimuli/rescaled_final/1592_fw.mp4	0.0	176.38486289978027	0.9916741847991943
34	151.74932980537415	pulse	0	t		32.0	2.5	/experiments/AOT/AOT_stimuli/rescaled_final/1592_fw.mp4	0.0	177.36832189559937	
34	151.75754499435425	movie	1		247	32.0	2.5	/experiments/AOT/AOT_stimuli/rescaled_final/1592_fw.mp4	0.0	177.37653708457947	2.5079288482666016
34	153.3488359451294	pulse	1	t		32.0	2.5	/experiments/AOT/AOT_stimuli/rescaled_final/1592_fw.mp4	0.0	178.96782803535461	
34	154.26547384262085	fix_post	2		12	32.0	2.5	/experiments/AOT/AOT_stimuli/rescaled_final/1592_fw.mp4	0.0	179.88446593284607	0.10045099258422852
35	154.36592483520508	fix_pre	0		120	33.0	2.5	blank	1.0	179.9849169254303	0.99996018409729
35	154.94941186904907	pulse	0	t		33.0	2.5	blank	1.0	180.5684039592743	
35	155.36588501930237	movie	1		300	33.0	2.5	blank	1.0	180.9848771095276	2.5001068115234375
35	156.54936599731445	pulse	1	t		33.0	2.5	blank	1.0	182.16835808753967	
35	157.8659918308258	fix_post	2		12	33.0	2.5	blank	1.0	183.48498392105103	0.09981012344360352
36	157.9658019542694	fix_pre	0		120	34.0	2.5	/experiments/AOT/AOT_stimuli/rescaled_final/0053_fw.mp4	0.0	183.58479404449463	1.000105857849121
36	158.1492748260498	pulse	0	t		34.0	2.5	/experiments/AOT/AOT_stimuli/rescaled_final/0053_fw.mp4	0.0	183.76826691627502	
36	158.96590781211853	movie	1		244	34.0	2.5	/experiments/AOT/AOT_stimuli/rescaled_final/0053_fw.mp4	0.0	184.58489990234375	2.499885082244873
36	159.74932289123535	pulse	1	t		34.0	2.5	/experiments/AOT/AOT_stimuli/rescaled_final/0053_fw.mp4	0.0	185.36831498146057	
36	161.34798192977905	pulse	1	t		34.0	2.5	/experiments/AOT/AOT_stimuli/rescaled_final/0053_fw.mp4	0.0	186.96697402000427	
36	161.4657928943634	fix_post	2		12	34.0	2.5	/experiments/AOT/AOT_stimuli/rescaled_final/0053_fw.mp4	0.0	187.08478498458862	0.10011696815490723
37	161.5659098625183	fix_pre	0		120	35.0	2.5	/experiments/AOT/AOT_stimuli/rescaled_final/0296_rv.mp4	0.0	187.18490195274353	0.9998669624328613
37	162.56577682495117	movie	1		245	35.0	2.5	/experiments/AOT/AOT_stimuli/rescaled_final/0296_rv.mp4	0.0	188.1847689151764	2.5000979900360107
37	162.95040583610535	pulse	1	t		35.0	2.5	/experiments/AOT/AOT_stimuli/rescaled_final/0296_rv.mp4	0.0	188.56939792633057	
37	164.54933094978333	pulse	1	t		35.0	2.5	/experiments/AOT/AOT_stimuli/rescaled_final/0296_rv.mp4	0.0	190.16832304000854	
37	165.06587481498718	fix_post	2		12	35.0	2.5	/experiments/AOT/AOT_stimuli/rescaled_final/0296_rv.mp4	0.0	190.6848669052124	0.09993505477905273
38	165.16580986976624	fix_pre	0		119	36.0	2.5	/experiments/AOT/AOT_stimuli/rescaled_final/2080_rv.mp4	0.0	190.78480195999146	0.9915790557861328
38	166.14935183525085	pulse	0	t		36.0	2.5	/experiments/AOT/AOT_stimuli/rescaled_final/2080_rv.mp4	0.0	191.76834392547607	
38	166.15738892555237	movie	1		247	36.0	2.5	/experiments/AOT/AOT_stimuli/rescaled_final/2080_rv.mp4	0.0	191.7763810157776	2.5084729194641113
38	167.74884581565857	pulse	1	t		36.0	2.5	/experiments/AOT/AOT_stimuli/rescaled_final/2080_rv.mp4	0.0	193.3678379058838	
38	168.66586184501648	fix_post	2		12	36.0	2.5	/experiments/AOT/AOT_stimuli/rescaled_final/2080_rv.mp4	0.0	194.2848539352417	0.09990906715393066
39	168.7657709121704	fix_pre	0		120	37.0	2.5	/experiments/AOT/AOT_stimuli/rescaled_final/1002_fw.mp4	0.0	194.38476300239563	1.0000340938568115
39	169.349280834198	pulse	0	t		37.0	2.5	/experiments/AOT/AOT_stimuli/rescaled_final/1002_fw.mp4	0.0	194.96827292442322	
39	169.76580500602722	movie	1		247	37.0	2.5	/experiments/AOT/AOT_stimuli/rescaled_final/1002_fw.mp4	0.0	195.38479709625244	2.500006914138794
39	170.9493339061737	pulse	1	t		37.0	2.5	/experiments/AOT/AOT_stimuli/rescaled_final/1002_fw.mp4	0.0	196.56832599639893	
39	172.26581192016602	fix_post	2		12	37.0	2.5	/experiments/AOT/AOT_stimuli/rescaled_final/1002_fw.mp4	0.0	197.88480401039124	0.09999704360961914
40	172.36580896377563	fix_pre	0		120	38.0	2.5	/experiments/AOT/AOT_stimuli/rescaled_final/1893_rv.mp4	0.0	197.98480105400085	1.000025987625122
40	172.54924488067627	pulse	0	t		38.0	2.5	/experiments/AOT/AOT_stimuli/rescaled_final/1893_rv.mp4	0.0	198.1682369709015	
40	173.36583495140076	movie	1		244	38.0	2.5	/experiments/AOT/AOT_stimuli/rescaled_final/1893_rv.mp4	0.0	198.98482704162598	2.499521017074585
40	174.14924597740173	pulse	1	t		38.0	2.5	/experiments/AOT/AOT_stimuli/rescaled_final/1893_rv.mp4	0.0	199.76823806762695	
40	175.74793195724487	pulse	1	t		38.0	2.5	/experiments/AOT/AOT_stimuli/rescaled_final/1893_rv.mp4	0.0	201.3669240474701	
40	175.86535596847534	fix_post	2		12	38.0	2.5	/experiments/AOT/AOT_stimuli/rescaled_final/1893_rv.mp4	0.0	201.48434805870056	0.10033702850341797
41	175.96569299697876	fix_pre	0		120	39.0	2.5	/experiments/AOT/AOT_stimuli/rescaled_final/1315_fw.mp4	0.0	201.58468508720398	1.000091791152954
41	176.9657847881317	movie	1		244	39.0	2.5	/experiments/AOT/AOT_stimuli/rescaled_final/1315_fw.mp4	0.0	202.58477687835693	2.499913215637207
41	177.34886193275452	pulse	1	t		39.0	2.5	/experiments/AOT/AOT_stimuli/rescaled_final/1315_fw.mp4	0.0	202.96785402297974	
41	178.9418969154358	pulse	1	t		39.0	2.5	/experiments/AOT/AOT_stimuli/rescaled_final/1315_fw.mp4	0.0	204.560889005661	
41	179.46569800376892	fix_post	2		12	39.0	2.5	/experiments/AOT/AOT_stimuli/rescaled_final/1315_fw.mp4	0.0	205.08469009399414	0.1000218391418457
42	179.56571984291077	fix_pre	0		119	40.0	2.5	/experiments/AOT/AOT_stimuli/rescaled_final/1869_fw.mp4	0.0	205.184711933136	0.9917120933532715
42	180.54923582077026	pulse	0	t		40.0	2.5	/experiments/AOT/AOT_stimuli/rescaled_final/1869_fw.mp4	0.0	206.16822791099548	
42	180.55743193626404	movie	1		244	40.0	2.5	/experiments/AOT/AOT_stimuli/rescaled_final/1869_fw.mp4	0.0	206.17642402648926	2.508362054824829
42	182.15048098564148	pulse	1	t		40.0	2.5	/experiments/AOT/AOT_stimuli/rescaled_final/1869_fw.mp4	0.0	207.7694730758667	
42	183.06579399108887	fix_post	2		12	40.0	2.5	/experiments/AOT/AOT_stimuli/rescaled_final/1869_fw.mp4	0.0	208.6847860813141	0.10008001327514648
43	183.165874004364	fix_pre	0		120	41.0	2.5	blank	1.0	208.78486609458923	0.9999098777770996
43	183.74927496910095	pulse	0	t		41.0	2.5	blank	1.0	209.36826705932617	
43	184.1657838821411	movie	1		300	41.0	2.5	blank	1.0	209.78477597236633	2.4999611377716064
43	185.34923195838928	pulse	1	t		41.0	2.5	blank	1.0	210.9682240486145	
43	186.66574501991272	fix_post	2		12	41.0	2.5	blank	1.0	212.28473711013794	0.10006284713745117
44	186.76580786705017	fix_pre	0		120	42.0	2.5	/experiments/AOT/AOT_stimuli/rescaled_final/0163_rv.mp4	0.0	212.3847999572754	0.9994640350341797
44	186.94934797286987	pulse	0	t		42.0	2.5	/experiments/AOT/AOT_stimuli/rescaled_final/0163_rv.mp4	0.0	212.5683400630951	
44	187.76527190208435	movie	1		243	42.0	2.5	/experiments/AOT/AOT_stimuli/rescaled_final/0163_rv.mp4	0.0	213.38426399230957	2.500243902206421
44	188.54910492897034	pulse	1	t		42.0	2.5	/experiments/AOT/AOT_stimuli/rescaled_final/0163_rv.mp4	0.0	214.16809701919556	
44	190.14758586883545	pulse	1	t		42.0	2.5	/experiments/AOT/AOT_stimuli/rescaled_final/0163_rv.mp4	0.0	215.76657795906067	
44	190.26551580429077	fix_post	2		12	42.0	2.5	/experiments/AOT/AOT_stimuli/rescaled_final/0163_rv.mp4	0.0	215.884507894516	0.09995913505554199
45	190.3654749393463	fix_pre	0		120	43.0	2.5	/experiments/AOT/AOT_stimuli/rescaled_final/1887_fw.mp4	0.0	215.98446702957153	1.0002210140228271
45	191.36569595336914	movie	1		244	43.0	2.5	/experiments/AOT/AOT_stimuli/rescaled_final/1887_fw.mp4	0.0	216.98468804359436	2.4999849796295166
45	191.75013995170593	pulse	1	t		43.0	2.5	/experiments/AOT/AOT_stimuli/rescaled_final/1887_fw.mp4	0.0	217.36913204193115	
45	193.34919595718384	pulse	1	t		43.0	2.5	/experiments/AOT/AOT_stimuli/rescaled_final/1887_fw.mp4	0.0	218.96818804740906	
45	193.86568093299866	fix_post	2		12	43.0	2.5	/experiments/AOT/AOT_stimuli/rescaled_final/1887_fw.mp4	0.0	219.48467302322388	0.10007500648498535
46	193.96575593948364	fix_pre	0		119	44.0	2.5	/experiments/AOT/AOT_stimuli/rescaled_final/1869_fw.mp4	0.0	219.58474802970886	0.9915928840637207
46	194.94921493530273	pulse	0	t		44.0	2.5	/experiments/AOT/AOT_stimuli/rescaled_final/1869_fw.mp4	0.0	220.56820702552795	
46	194.95734882354736	movie	1		246	44.0	2.5	/experiments/AOT/AOT_stimuli/rescaled_final/1869_fw.mp4	0.0	220.57634091377258	2.508305072784424
46	196.54876494407654	pulse	1	t		44.0	2.5	/experiments/AOT/AOT_stimuli/rescaled_final/1869_fw.mp4	0.0	222.16775703430176	
46	197.4656538963318	fix_post	2		12	44.0	2.5	/experiments/AOT/AOT_stimuli/rescaled_final/1869_fw.mp4	0.0	223.084645986557	0.09999299049377441
47	197.56564688682556	fix_pre	0		120	45.0	2.5	/experiments/AOT/AOT_stimuli/rescaled_final/0996_fw.mp4	0.0	223.18463897705078	1.0000419616699219
47	198.1491940021515	pulse	0	t		45.0	2.5	/experiments/AOT/AOT_stimuli/rescaled_final/0996_fw.mp4	0.0	223.7681860923767	
47	198.56568884849548	movie	1		245	45.0	2.5	/experiments/AOT/AOT_stimuli/rescaled_final/0996_fw.mp4	0.0	224.1846809387207	2.5000059604644775
47	199.7491958141327	pulse	1	t		45.0	2.5	/experiments/AOT/AOT_stimuli/rescaled_final/0996_fw.mp4	0.0	225.3681879043579	
47	201.06569480895996	fix_post	2		12	45.0	2.5	/experiments/AOT/AOT_stimuli/rescaled_final/0996_fw.mp4	0.0	226.68468689918518	0.09992814064025879
48	201.16562294960022	fix_pre	0		120	46.0	2.5	/experiments/AOT/AOT_stimuli/rescaled_final/0940_rv.mp4	0.0	226.78461503982544	1.0000569820404053
48	201.34914779663086	pulse	0	t		46.0	2.5	/experiments/AOT/AOT_stimuli/rescaled_final/0940_rv.mp4	0.0	226.96813988685608	
48	202.16567993164062	movie	1		243	46.0	2.5	/experiments/AOT/AOT_stimuli/rescaled_final/0940_rv.mp4	0.0	227.78467202186584	2.499885082244873
48	202.94912099838257	pulse	1	t		46.0	2.5	/experiments/AOT/AOT_stimuli/rescaled_final/0940_rv.mp4	0.0	228.5681130886078	
48	204.54725193977356	pulse	1	t		46.0	2.5	/experiments/AOT/AOT_stimuli/rescaled_final/0940_rv.mp4	0.0	230.16624402999878	
48	204.6655650138855	fix_post	2		12	46.0	2.5	/experiments/AOT/AOT_stimuli/rescaled_final/0940_rv.mp4	0.0	230.28455710411072	0.10005688667297363
49	204.76562190055847	fix_pre	0		120	47.0	2.5	/experiments/AOT/AOT_stimuli/rescaled_final/1331_fw.mp4	0.0	230.3846139907837	0.9999868869781494
49	205.76560878753662	movie	1		245	47.0	2.5	/experiments/AOT/AOT_stimuli/rescaled_final/1331_fw.mp4	0.0	231.38460087776184	2.50006103515625
49	206.14883685112	pulse	1	t		47.0	2.5	/experiments/AOT/AOT_stimuli/rescaled_final/1331_fw.mp4	0.0	231.76782894134521	
49	207.74919080734253	pulse	1	t		47.0	2.5	/experiments/AOT/AOT_stimuli/rescaled_final/1331_fw.mp4	0.0	233.36818289756775	
49	208.26566982269287	fix_post	2		12	47.0	2.5	/experiments/AOT/AOT_stimuli/rescaled_final/1331_fw.mp4	0.0	233.8846619129181	0.09959912300109863
50	208.36526894569397	fix_pre	0		119	48.0	2.5	blank	1.0	233.9842610359192	0.9920089244842529
50	209.34923195838928	pulse	0	t		48.0	2.5	blank	1.0	234.9682240486145	
50	209.35727787017822	movie	1		301	48.0	2.5	blank	1.0	234.97626996040344	2.5084240436553955
50	210.94927501678467	pulse	1	t		48.0	2.5	blank	1.0	236.5682671070099	
50	211.86570191383362	fix_post	2		12	48.0	2.5	blank	1.0	237.48469400405884	0.09994196891784668
51	211.96564388275146	fix_pre	0		120	49.0	2.5	/experiments/AOT/AOT_stimuli/rescaled_final/0563_rv.mp4	0.0	237.58463597297668	0.9999790191650391
51	212.5490608215332	pulse	0	t		49.0	2.5	/experiments/AOT/AOT_stimuli/rescaled_final/0563_rv.mp4	0.0	238.16805291175842	
51	212.9656229019165	movie	1		246	49.0	2.5	/experiments/AOT/AOT_stimuli/rescaled_final/0563_rv.mp4	0.0	238.58461499214172	2.499990940093994
51	214.14903593063354	pulse	1	t		49.0	2.5	/experiments/AOT/AOT_stimuli/rescaled_final/0563_rv.mp4	0.0	239.76802802085876	
51	215.4656138420105	fix_post	2		12	49.0	2.5	/experiments/AOT/AOT_stimuli/rescaled_final/0563_rv.mp4	0.0	241.08460593223572	0.10014915466308594
52	215.56576299667358	fix_pre	0		120	50.0	2.5	/experiments/AOT/AOT_stimuli/rescaled_final/1205_fw.mp4	0.0	241.1847550868988	0.9998188018798828
52	215.7491409778595	pulse	0	t		50.0	2.5	/experiments/AOT/AOT_stimuli/rescaled_final/1205_fw.mp4	0.0	241.36813306808472	
52	216.56558179855347	movie	1		245	50.0	2.5	/experiments/AOT/AOT_stimuli/rescaled_final/1205_fw.mp4	0.0	242.1845738887787	2.500117063522339
52	217.3490560054779	pulse	1	t		50.0	2.5	/experiments/AOT/AOT_stimuli/rescaled_final/1205_fw.mp4	0.0	242.96804809570312	
52	218.94761180877686	pulse	1	t		50.0	2.5	/experiments/AOT/AOT_stimuli/rescaled_final/1205_fw.mp4	0.0	244.56660389900208	
52	219.0656988620758	fix_post	2		12	50.0	2.5	/experiments/AOT/AOT_stimuli/rescaled_final/1205_fw.mp4	0.0	244.68469095230103	0.09988903999328613
53	219.1655879020691	fix_pre	0		120	51.0	2.5	/experiments/AOT/AOT_stimuli/rescaled_final/0563_fw.mp4	0.0	244.7845799922943	1.0001130104064941
53	220.1657009124756	movie	1		243	51.0	2.5	/experiments/AOT/AOT_stimuli/rescaled_final/0563_fw.mp4	0.0	245.7846930027008	2.4998390674591064
53	220.54872679710388	pulse	1	t		51.0	2.5	/experiments/AOT/AOT_stimuli/rescaled_final/0563_fw.mp4	0.0	246.1677188873291	
53	222.14903283119202	pulse	1	t		51.0	2.5	/experiments/AOT/AOT_stimuli/rescaled_final/0563_fw.mp4	0.0	247.76802492141724	
53	222.6655399799347	fix_post	2		12	51.0	2.5	/experiments/AOT/AOT_stimuli/rescaled_final/0563_fw.mp4	0.0	248.2845320701599	0.10005402565002441
54	222.76559400558472	fix_pre	0		119	52.0	2.5	/experiments/AOT/AOT_stimuli/rescaled_final/0716_rv.mp4	0.0	248.38458609580994	0.9916489124298096
54	223.7490689754486	pulse	0	t		52.0	2.5	/experiments/AOT/AOT_stimuli/rescaled_final/0716_rv.mp4	0.0	249.36806106567383	
54	223.75724291801453	movie	1		243	52.0	2.5	/experiments/AOT/AOT_stimuli/rescaled_final/0716_rv.mp4	0.0	249.37623500823975	2.5083699226379395
54	225.34862279891968	pulse	1	t		52.0	2.5	/experiments/AOT/AOT_stimuli/rescaled_final/0716_rv.mp4	0.0	250.9676148891449	
54	226.26561284065247	fix_post	2		12	52.0	2.5	/experiments/AOT/AOT_stimuli/rescaled_final/0716_rv.mp4	0.0	251.88460493087769	0.09987711906433105
55	226.3654899597168	fix_pre	0		120	53.0	2.5	/experiments/AOT/AOT_stimuli/rescaled_final/0370_rv.mp4	0.0	251.98448204994202	1.0000560283660889
55	226.94914078712463	pulse	0	t		53.0	2.5	/experiments/AOT/AOT_stimuli/rescaled_final/0370_rv.mp4	0.0	252.56813287734985	
55	227.36554598808289	movie	1		244	53.0	2.5	/experiments/AOT/AOT_stimuli/rescaled_final/0370_rv.mp4	0.0	252.9845380783081	2.5001089572906494
55	228.54921293258667	pulse	1	t		53.0	2.5	/experiments/AOT/AOT_stimuli/rescaled_final/0370_rv.mp4	0.0	254.1682050228119	
55	229.86565494537354	fix_post	2		12	53.0	2.5	/experiments/AOT/AOT_stimuli/rescaled_final/0370_rv.mp4	0.0	255.48464703559875	0.09982585906982422
56	229.96548080444336	fix_pre	0		120	54.0	2.5	blank	1.0	255.58447289466858	1.0000600814819336
56	230.1490559577942	pulse	0	t		54.0	2.5	blank	1.0	255.7680480480194	
56	230.9655408859253	movie	1		300	54.0	2.5	blank	1.0	256.5845329761505	2.4999449253082275
56	231.74903392791748	pulse	1	t		54.0	2.5	blank	1.0	257.3680260181427	
56	233.34899997711182	pulse	1	t		54.0	2.5	blank	1.0	258.96799206733704	
56	233.46548581123352	fix_post	2		12	54.0	2.5	blank	1.0	259.08447790145874	0.10001897811889648
57	233.56550478935242	fix_pre	0		120	55.0	2.5	/experiments/AOT/AOT_stimuli/rescaled_final/2138_rv.mp4	0.0	259.18449687957764	1.0000391006469727
57	234.5655438899994	movie	1		244	55.0	2.5	/experiments/AOT/AOT_stimuli/rescaled_final/2138_rv.mp4	0.0	260.1845359802246	2.4999940395355225
57	234.94863390922546	pulse	1	t		55.0	2.5	/experiments/AOT/AOT_stimuli/rescaled_final/2138_rv.mp4	0.0	260.5676259994507	
57	236.54903197288513	pulse	1	t		55.0	2.5	/experiments/AOT/AOT_stimuli/rescaled_final/2138_rv.mp4	0.0	262.16802406311035	
57	237.0655379295349	fix_post	2		12	55.0	2.5	/experiments/AOT/AOT_stimuli/rescaled_final/2138_rv.mp4	0.0	262.68453001976013	0.09999799728393555
58	237.16553592681885	fix_pre	0		119	56.0	2.5	/experiments/AOT/AOT_stimuli/rescaled_final/0821_fw.mp4	0.0	262.78452801704407	0.991610050201416
58	238.14901399612427	pulse	0	t		56.0	2.5	/experiments/AOT/AOT_stimuli/rescaled_final/0821_fw.mp4	0.0	263.7680060863495	
58	238.15714597702026	movie	1		246	56.0	2.5	/experiments/AOT/AOT_stimuli/rescaled_final/0821_fw.mp4	0.0	263.7761380672455	2.5083868503570557
58	239.74841499328613	pulse	1	t		56.0	2.5	/experiments/AOT/AOT_stimuli/rescaled_final/0821_fw.mp4	0.0	265.36740708351135	
58	240.66553282737732	fix_post	2		12	56.0	2.5	/experiments/AOT/AOT_stimuli/rescaled_final/0821_fw.mp4	0.0	266.28452491760254	0.09989809989929199
59	240.7654309272766	fix_pre	0		120	57.0	2.5	/experiments/AOT/AOT_stimuli/rescaled_final/0223_fw.mp4	0.0	266.38442301750183	1.0000710487365723
59	241.34911179542542	pulse	0	t		57.0	2.5	/experiments/AOT/AOT_stimuli/rescaled_final/0223_fw.mp4	0.0	266.96810388565063	
59	241.76550197601318	movie	1		245	57.0	2.5	/experiments/AOT/AOT_stimuli/rescaled_final/0223_fw.mp4	0.0	267.3844940662384	2.4995148181915283
59	242.94902181625366	pulse	1	t		57.0	2.5	/experiments/AOT/AOT_stimuli/rescaled_final/0223_fw.mp4	0.0	268.5680139064789	
59	244.2650167942047	fix_post	2		12	57.0	2.5	/experiments/AOT/AOT_stimuli/rescaled_final/0223_fw.mp4	0.0	269.88400888442993	0.10007715225219727
60	244.3650939464569	fix_pre	0		120	58.0	2.5	/experiments/AOT/AOT_stimuli/rescaled_final/1799_fw.mp4	0.0	269.98408603668213	1.0000269412994385
60	244.5485978126526	pulse	0	t		58.0	2.5	/experiments/AOT/AOT_stimuli/rescaled_final/1799_fw.mp4	0.0	270.1675899028778	
60	245.36512088775635	movie	1		243	58.0	2.5	/experiments/AOT/AOT_stimuli/rescaled_final/1799_fw.mp4	0.0	270.98411297798157	2.5003609657287598
60	246.14909982681274	pulse	1	t		58.0	2.5	/experiments/AOT/AOT_stimuli/rescaled_final/1799_fw.mp4	0.0	271.76809191703796	
60	247.7474329471588	pulse	1	t		58.0	2.5	/experiments/AOT/AOT_stimuli/rescaled_final/1799_fw.mp4	0.0	273.36642503738403	
60	247.8654818534851	fix_post	2		12	58.0	2.5	/experiments/AOT/AOT_stimuli/rescaled_final/1799_fw.mp4	0.0	273.4844739437103	0.10007810592651367
61	247.96555995941162	fix_pre	0		120	59.0	2.5	/experiments/AOT/AOT_stimuli/rescaled_final/1821_rv.mp4	0.0	273.58455204963684	0.9999818801879883
61	248.9655418395996	movie	1		246	59.0	2.5	/experiments/AOT/AOT_stimuli/rescaled_final/1821_rv.mp4	0.0	274.58453392982483	2.499941110610962
61	249.34849095344543	pulse	1	t		59.0	2.5	/experiments/AOT/AOT_stimuli/rescaled_final/1821_rv.mp4	0.0	274.96748304367065	
61	250.94891691207886	pulse	1	t		59.0	2.5	/experiments/AOT/AOT_stimuli/rescaled_final/1821_rv.mp4	0.0	276.5679090023041	
61	251.46548295021057	fix_post	2		12	59.0	2.5	/experiments/AOT/AOT_stimuli/rescaled_final/1821_rv.mp4	0.0	277.0844750404358	0.09993290901184082
62	251.5654158592224	fix_pre	0		119	60.0	2.5	/experiments/AOT/AOT_stimuli/rescaled_final/0596_fw.mp4	0.0	277.18440794944763	0.9916200637817383
62	252.54883790016174	pulse	0	t		60.0	2.5	/experiments/AOT/AOT_stimuli/rescaled_final/0596_fw.mp4	0.0	278.16782999038696	
62	252.55703592300415	movie	1		245	60.0	2.5	/experiments/AOT/AOT_stimuli/rescaled_final/0596_fw.mp4	0.0	278.17602801322937	2.5083789825439453
62	254.14866399765015	pulse	1	t		60.0	2.5	/experiments/AOT/AOT_stimuli/rescaled_final/0596_fw.mp4	0.0	279.76765608787537	
62	255.0654149055481	fix_post	2		12	60.0	2.5	/experiments/AOT/AOT_stimuli/rescaled_final/0596_fw.mp4	0.0	280.6844069957733	0.10006904602050781
63	255.1654839515686	fix_pre	0		120	61.0	2.5	/experiments/AOT/AOT_stimuli/rescaled_final/1091_fw.mp4	0.0	280.7844760417938	0.9999239444732666
63	255.74896883964539	pulse	0	t		61.0	2.5	/experiments/AOT/AOT_stimuli/rescaled_final/1091_fw.mp4	0.0	281.3679609298706	
63	256.16540789604187	movie	1		246	61.0	2.5	/experiments/AOT/AOT_stimuli/rescaled_final/1091_fw.mp4	0.0	281.7843999862671	2.4999959468841553
63	257.34892082214355	pulse	1	t		61.0	2.5	/experiments/AOT/AOT_stimuli/rescaled_final/1091_fw.mp4	0.0	282.9679129123688	
63	258.665403842926	fix_post	2		12	61.0	2.5	/experiments/AOT/AOT_stimuli/rescaled_final/1091_fw.mp4	0.0	284.28439593315125	0.09993815422058105
64	258.7653419971466	fix_pre	0		120	62.0	2.5	/experiments/AOT/AOT_stimuli/rescaled_final/0940_fw.mp4	0.0	284.3843340873718	1.0000529289245605
64	258.9490008354187	pulse	0	t		62.0	2.5	/experiments/AOT/AOT_stimuli/rescaled_final/0940_fw.mp4	0.0	284.5679929256439	
64	259.76539492607117	movie	1		244	62.0	2.5	/experiments/AOT/AOT_stimuli/rescaled_final/0940_fw.mp4	0.0	285.3843870162964	2.500082015991211
64	260.54887080192566	pulse	1	t		62.0	2.5	/experiments/AOT/AOT_stimuli/rescaled_final/0940_fw.mp4	0.0	286.1678628921509	
64	262.14715695381165	pulse	1	t		62.0	2.5	/experiments/AOT/AOT_stimuli/rescaled_final/0940_fw.mp4	0.0	287.76614904403687	
64	262.2654769420624	fix_post	2		12	62.0	2.5	/experiments/AOT/AOT_stimuli/rescaled_final/0940_fw.mp4	0.0	287.8844690322876	0.09984803199768066
65	262.36532497406006	fix_pre	0		120	63.0	2.5	blank	1.0	287.9843170642853	1.0000619888305664
65	263.3653869628906	movie	1		300	63.0	2.5	blank	1.0	288.98437905311584	2.500006914138794
65	263.7489228248596	pulse	1	t		63.0	2.5	blank	1.0	289.36791491508484	
65	265.348837852478	pulse	1	t		63.0	2.5	blank	1.0	290.96782994270325	
65	265.8653938770294	fix_post	2		12	63.0	2.5	blank	1.0	291.48438596725464	0.09995412826538086
66	265.9653480052948	fix_pre	0		119	64.0	2.5	/experiments/AOT/AOT_stimuli/rescaled_final/0014_fw.mp4	0.0	291.58434009552	0.99167799949646
66	266.9488549232483	pulse	0	t		64.0	2.5	/experiments/AOT/AOT_stimuli/rescaled_final/0014_fw.mp4	0.0	292.5678470134735	
66	266.95702600479126	movie	1		245	64.0	2.5	/experiments/AOT/AOT_stimuli/rescaled_final/0014_fw.mp4	0.0	292.5760180950165	2.508323907852173
66	268.54833579063416	pulse	1	t		64.0	2.5	/experiments/AOT/AOT_stimuli/rescaled_final/0014_fw.mp4	0.0	294.1673278808594	
66	269.46534991264343	fix_post	2		12	64.0	2.5	/experiments/AOT/AOT_stimuli/rescaled_final/0014_fw.mp4	0.0	295.08434200286865	0.10005998611450195
67	269.56540989875793	fix_pre	0		120	65.0	2.5	/experiments/AOT/AOT_stimuli/rescaled_final/1031_fw.mp4	0.0	295.18440198898315	0.9999229907989502
67	270.1488609313965	pulse	0	t		65.0	2.5	/experiments/AOT/AOT_stimuli/rescaled_final/1031_fw.mp4	0.0	295.7678530216217	
67	270.5653328895569	movie	1		244	65.0	2.5	/experiments/AOT/AOT_stimuli/rescaled_final/1031_fw.mp4	0.0	296.1843249797821	2.5000150203704834
67	271.748899936676	pulse	1	t		65.0	2.5	/experiments/AOT/AOT_stimuli/rescaled_final/1031_fw.mp4	0.0	297.36789202690125	
67	273.06534790992737	fix_post	2		12	65.0	2.5	/experiments/AOT/AOT_stimuli/rescaled_final/1031_fw.mp4	0.0	298.6843400001526	0.10010910034179688
68	273.16545701026917	fix_pre	0		120	66.0	2.5	/experiments/AOT/AOT_stimuli/rescaled_final/0280_fw.mp4	0.0	298.7844491004944	0.9999039173126221
68	273.3488538265228	pulse	0	t		66.0	2.5	/experiments/AOT/AOT_stimuli/rescaled_final/0280_fw.mp4	0.0	298.96784591674805	
68	274.1653609275818	movie	1		243	66.0	2.5	/experiments/AOT/AOT_stimuli/rescaled_final/0280_fw.mp4	0.0	299.784353017807	2.4999279975891113
68	274.94881987571716	pulse	1	t		66.0	2.5	/experiments/AOT/AOT_stimuli/rescaled_final/0280_fw.mp4	0.0	300.5678119659424	
68	276.547297000885	pulse	1	t		66.0	2.5	/experiments/AOT/AOT_stimuli/rescaled_final/0280_fw.mp4	0.0	302.16628909111023	
68	276.6652889251709	fix_post	2		12	66.0	2.5	/experiments/AOT/AOT_stimuli/rescaled_final/0280_fw.mp4	0.0	302.2842810153961	0.10001587867736816
69	276.76530480384827	fix_pre	0		120	67.0	2.5	/experiments/AOT/AOT_stimuli/rescaled_final/1995_fw.mp4	0.0	302.3842968940735	1.0000190734863281
69	277.7653238773346	movie	1		247	67.0	2.5	/experiments/AOT/AOT_stimuli/rescaled_final/1995_fw.mp4	0.0	303.3843159675598	2.4999001026153564
69	278.1486608982086	pulse	1	t		67.0	2.5	/experiments/AOT/AOT_stimuli/rescaled_final/1995_fw.mp4	0.0	303.76765298843384	
69	279.74887895584106	pulse	1	t		67.0	2.5	/experiments/AOT/AOT_stimuli/rescaled_final/1995_fw.mp4	0.0	305.3678710460663	
69	280.26522397994995	fix_post	2		12	67.0	2.5	/experiments/AOT/AOT_stimuli/rescaled_final/1995_fw.mp4	0.0	305.88421607017517	0.10007381439208984
70	280.36529779434204	fix_pre	0		119	68.0	2.5	blank	1.0	305.98428988456726	0.9916181564331055
70	281.3488218784332	pulse	0	t		68.0	2.5	blank	1.0	306.96781396865845	
70	281.35691595077515	movie	1		301	68.0	2.5	blank	1.0	306.97590804100037	2.50838303565979
70	282.94879484176636	pulse	1	t		68.0	2.5	blank	1.0	308.5677869319916	
70	283.86529898643494	fix_post	2		12	68.0	2.5	blank	1.0	309.48429107666016	0.10003781318664551
71	283.9653367996216	fix_pre	0		120	69.0	2.5	/experiments/AOT/AOT_stimuli/rescaled_final/0940_fw.mp4	0.0	309.5843288898468	1.000007152557373
71	284.54879784584045	pulse	0	t		69.0	2.5	/experiments/AOT/AOT_stimuli/rescaled_final/0940_fw.mp4	0.0	310.1677899360657	
71	284.96534395217896	movie	1		243	69.0	2.5	/experiments/AOT/AOT_stimuli/rescaled_final/0940_fw.mp4	0.0	310.5843360424042	2.5000128746032715
71	286.14880084991455	pulse	1	t		69.0	2.5	/experiments/AOT/AOT_stimuli/rescaled_final/0940_fw.mp4	0.0	311.76779294013977	
71	287.4653568267822	fix_post	2		12	69.0	2.5	/experiments/AOT/AOT_stimuli/rescaled_final/0940_fw.mp4	0.0	313.08434891700745	0.09987616539001465
72	287.56523299217224	fix_pre	0		120	70.0	2.5	/experiments/AOT/AOT_stimuli/rescaled_final/0150_rv.mp4	0.0	313.18422508239746	0.9999949932098389
72	287.74879693984985	pulse	0	t		70.0	2.5	/experiments/AOT/AOT_stimuli/rescaled_final/0150_rv.mp4	0.0	313.3677890300751	
72	288.5652279853821	movie	1		244	70.0	2.5	/experiments/AOT/AOT_stimuli/rescaled_final/0150_rv.mp4	0.0	314.1842200756073	2.499990940093994
72	289.34880781173706	pulse	1	t		70.0	2.5	/experiments/AOT/AOT_stimuli/rescaled_final/0150_rv.mp4	0.0	314.9677999019623	
72	290.946897983551	pulse	1	t		70.0	2.5	/experiments/AOT/AOT_stimuli/rescaled_final/0150_rv.mp4	0.0	316.56589007377625	
72	291.0652189254761	fix_post	2		12	70.0	2.5	/experiments/AOT/AOT_stimuli/rescaled_final/0150_rv.mp4	0.0	316.6842110157013	0.10002803802490234
73	291.165246963501	fix_pre	0		120	71.0	2.5	/experiments/AOT/AOT_stimuli/rescaled_final/1540_rv.mp4	0.0	316.7842390537262	1.000040054321289
73	292.16528701782227	movie	1		244	71.0	2.5	/experiments/AOT/AOT_stimuli/rescaled_final/1540_rv.mp4	0.0	317.7842791080475	2.499973773956299
73	292.54910492897034	pulse	1	t		71.0	2.5	/experiments/AOT/AOT_stimuli/rescaled_final/1540_rv.mp4	0.0	318.16809701919556	
73	294.1487739086151	pulse	1	t		71.0	2.5	/experiments/AOT/AOT_stimuli/rescaled_final/1540_rv.mp4	0.0	319.76776599884033	
73	294.66526079177856	fix_post	2		12	71.0	2.5	/experiments/AOT/AOT_stimuli/rescaled_final/1540_rv.mp4	0.0	320.2842528820038	0.10000801086425781
74	294.7652688026428	fix_pre	0		119	72.0	2.5	/experiments/AOT/AOT_stimuli/rescaled_final/0563_fw.mp4	0.0	320.38426089286804	0.9916431903839111
74	295.74877095222473	pulse	0	t		72.0	2.5	/experiments/AOT/AOT_stimuli/rescaled_final/0563_fw.mp4	0.0	321.36776304244995	
74	295.75691199302673	movie	1		245	72.0	2.5	/experiments/AOT/AOT_stimuli/rescaled_final/0563_fw.mp4	0.0	321.37590408325195	2.508384943008423
74	297.34815192222595	pulse	1	t		72.0	2.5	/experiments/AOT/AOT_stimuli/rescaled_final/0563_fw.mp4	0.0	322.9671440124512	
74	298.26529693603516	fix_post	2		12	72.0	2.5	/experiments/AOT/AOT_stimuli/rescaled_final/0563_fw.mp4	0.0	323.8842890262604	0.09997987747192383
75	298.3652768135071	fix_pre	0		120	73.0	2.5	/experiments/AOT/AOT_stimuli/rescaled_final/1126_rv.mp4	0.0	323.9842689037323	0.9995250701904297
75	298.9487338066101	pulse	0	t		73.0	2.5	/experiments/AOT/AOT_stimuli/rescaled_final/1126_rv.mp4	0.0	324.5677258968353	
75	299.3648018836975	movie	1		246	73.0	2.5	/experiments/AOT/AOT_stimuli/rescaled_final/1126_rv.mp4	0.0	324.98379397392273	2.5002689361572266
75	300.5484428405762	pulse	1	t		73.0	2.5	/experiments/AOT/AOT_stimuli/rescaled_final/1126_rv.mp4	0.0	326.1674349308014	
75	301.86507081985474	fix_post	2		12	73.0	2.5	/experiments/AOT/AOT_stimuli/rescaled_final/1126_rv.mp4	0.0	327.48406291007996	0.10036301612854004
76	301.9654338359833	fix_pre	0		120	74.0	2.5	/experiments/AOT/AOT_stimuli/rescaled_final/0744_rv.mp4	0.0	327.5844259262085	1.000175952911377
76	302.14886593818665	pulse	0	t		74.0	2.5	/experiments/AOT/AOT_stimuli/rescaled_final/0744_rv.mp4	0.0	327.76785802841187	
76	302.96560978889465	movie	1		246	74.0	2.5	/experiments/AOT/AOT_stimuli/rescaled_final/0744_rv.mp4	0.0	328.5846018791199	2.499580144882202
76	303.7486958503723	pulse	1	t		74.0	2.5	/experiments/AOT/AOT_stimuli/rescaled_final/0744_rv.mp4	0.0	329.36768794059753	
76	305.34474086761475	pulse	1	t		74.0	2.5	/experiments/AOT/AOT_stimuli/rescaled_final/0744_rv.mp4	0.0	330.96373295783997	
76	305.46518993377686	fix_post	2		12	74.0	2.5	/experiments/AOT/AOT_stimuli/rescaled_final/0744_rv.mp4	0.0	331.0841820240021	0.10001492500305176
77	305.5652048587799	fix_pre	0		120	75.0	2.5	blank	1.0	331.1841969490051	1.0000030994415283
77	306.56520795822144	movie	1		300	75.0	2.5	blank	1.0	332.18420004844666	2.5000619888305664
77	306.94871401786804	pulse	1	t		75.0	2.5	blank	1.0	332.56770610809326	
77	308.548702955246	pulse	1	t		75.0	2.5	blank	1.0	334.1676950454712	
77	309.065269947052	fix_post	2		12	75.0	2.5	blank	1.0	334.6842620372772	0.09992599487304688
78	309.16519594192505	fix_pre	0		119	76.0	2.5	/experiments/AOT/AOT_stimuli/rescaled_final/0831_rv.mp4	0.0	334.78418803215027	0.9916300773620605
78	310.14869499206543	pulse	0	t		76.0	2.5	/experiments/AOT/AOT_stimuli/rescaled_final/0831_rv.mp4	0.0	335.76768708229065	
78	310.1568260192871	movie	1		244	76.0	2.5	/experiments/AOT/AOT_stimuli/rescaled_final/0831_rv.mp4	0.0	335.77581810951233	2.508344888687134
78	311.74822998046875	pulse	1	t		76.0	2.5	/experiments/AOT/AOT_stimuli/rescaled_final/0831_rv.mp4	0.0	337.36722207069397	
78	312.66517090797424	fix_post	2		12	76.0	2.5	/experiments/AOT/AOT_stimuli/rescaled_final/0831_rv.mp4	0.0	338.28416299819946	0.09995198249816895
79	312.7651228904724	fix_pre	0		120	77.0	2.5	/experiments/AOT/AOT_stimuli/rescaled_final/0040_rv.mp4	0.0	338.38411498069763	1.0001099109649658
79	313.34861183166504	pulse	0	t		77.0	2.5	/experiments/AOT/AOT_stimuli/rescaled_final/0040_rv.mp4	0.0	338.96760392189026	
79	313.7652328014374	movie	1		245	77.0	2.5	/experiments/AOT/AOT_stimuli/rescaled_final/0040_rv.mp4	0.0	339.3842248916626	2.4998819828033447
79	314.9486939907074	pulse	1	t		77.0	2.5	/experiments/AOT/AOT_stimuli/rescaled_final/0040_rv.mp4	0.0	340.5676860809326	
79	316.2651147842407	fix_post	2		12	77.0	2.5	/experiments/AOT/AOT_stimuli/rescaled_final/0040_rv.mp4	0.0	341.88410687446594	0.10005402565002441
80	316.36516880989075	fix_pre	0		120	78.0	2.5	/experiments/AOT/AOT_stimuli/rescaled_final/2083_fw.mp4	0.0	341.98416090011597	0.9999370574951172
80	316.54859495162964	pulse	0	t		78.0	2.5	/experiments/AOT/AOT_stimuli/rescaled_final/2083_fw.mp4	0.0	342.16758704185486	
80	317.36510586738586	movie	1		243	78.0	2.5	/experiments/AOT/AOT_stimuli/rescaled_final/2083_fw.mp4	0.0	342.9840979576111	2.4999611377716064
80	318.148610830307	pulse	1	t		78.0	2.5	/experiments/AOT/AOT_stimuli/rescaled_final/2083_fw.mp4	0.0	343.7676029205322	
80	319.7470169067383	pulse	1	t		78.0	2.5	/experiments/AOT/AOT_stimuli/rescaled_final/2083_fw.mp4	0.0	345.3660089969635	
80	319.86506700515747	fix_post	2		12	78.0	2.5	/experiments/AOT/AOT_stimuli/rescaled_final/2083_fw.mp4	0.0	345.4840590953827	0.09998393058776855
81	319.96505093574524	fix_pre	0		120	79.0	2.5	/experiments/AOT/AOT_stimuli/rescaled_final/0902_rv.mp4	0.0	345.58404302597046	1.0000050067901611
81	320.9650559425354	movie	1		249	79.0	2.5	/experiments/AOT/AOT_stimuli/rescaled_final/0902_rv.mp4	0.0	346.5840480327606	2.5
81	321.3480989933014	pulse	1	t		79.0	2.5	/experiments/AOT/AOT_stimuli/rescaled_final/0902_rv.mp4	0.0	346.9670910835266	
81	322.94864988327026	pulse	1	t		79.0	2.5	/experiments/AOT/AOT_stimuli/rescaled_final/0902_rv.mp4	0.0	348.5676419734955	
81	323.4650559425354	fix_post	2		12	79.0	2.5	/experiments/AOT/AOT_stimuli/rescaled_final/0902_rv.mp4	0.0	349.0840480327606	0.1000208854675293
82	323.56507682800293	fix_pre	0		119	80.0	2.5	/experiments/AOT/AOT_stimuli/rescaled_final/0634_fw.mp4	0.0	349.18406891822815	0.9916629791259766
82	324.54858899116516	pulse	0	t		80.0	2.5	/experiments/AOT/AOT_stimuli/rescaled_final/0634_fw.mp4	0.0	350.1675810813904	
82	324.5567398071289	movie	1		246	80.0	2.5	/experiments/AOT/AOT_stimuli/rescaled_final/0634_fw.mp4	0.0	350.1757318973541	2.5083601474761963
82	326.14807987213135	pulse	1	t		80.0	2.5	/experiments/AOT/AOT_stimuli/rescaled_final/0634_fw.mp4	0.0	351.76707196235657	
82	327.0650999546051	fix_post	2		12	80.0	2.5	/experiments/AOT/AOT_stimuli/rescaled_final/0634_fw.mp4	0.0	352.6840920448303	0.10002493858337402
83	327.1651248931885	fix_pre	0		120	81.0	2.5	/experiments/AOT/AOT_stimuli/rescaled_final/0596_fw.mp4	0.0	352.7841169834137	0.9999430179595947
83	327.7487428188324	pulse	0	t		81.0	2.5	/experiments/AOT/AOT_stimuli/rescaled_final/0596_fw.mp4	0.0	353.3677349090576	
83	328.16506791114807	movie	1		246	81.0	2.5	/experiments/AOT/AOT_stimuli/rescaled_final/0596_fw.mp4	0.0	353.7840600013733	2.500035047531128
83	329.3486588001251	pulse	1	t		81.0	2.5	/experiments/AOT/AOT_stimuli/rescaled_final/0596_fw.mp4	0.0	354.96765089035034	
83	330.6651029586792	fix_post	2		12	81.0	2.5	/experiments/AOT/AOT_stimuli/rescaled_final/0596_fw.mp4	0.0	356.2840950489044	0.09995698928833008
84	330.76505994796753	fix_pre	0		120	82.0	2.5	blank	1.0	356.38405203819275	1.0000560283660889
84	330.9485869407654	pulse	0	t		82.0	2.5	blank	1.0	356.5675790309906	
84	331.7651159763336	movie	1		300	82.0	2.5	blank	1.0	357.38410806655884	2.499908924102783
84	332.5485188961029	pulse	1	t		82.0	2.5	blank	1.0	358.1675109863281	
84	334.148610830307	pulse	1	t		82.0	2.5	blank	1.0	359.7676029205322	
84	334.2650249004364	fix_post	2		12	82.0	2.5	blank	1.0	359.8840169906616	0.09998703002929688
85	334.3650119304657	fix_pre	0		120	83.0	2.5	/experiments/AOT/AOT_stimuli/rescaled_final/1087_fw.mp4	0.0	359.9840040206909	1.0000829696655273
85	335.3650949001312	movie	1		244	83.0	2.5	/experiments/AOT/AOT_stimuli/rescaled_final/1087_fw.mp4	0.0	360.98408699035645	2.499537944793701
85	335.74864888191223	pulse	1	t		83.0	2.5	/experiments/AOT/AOT_stimuli/rescaled_final/1087_fw.mp4	0.0	361.36764097213745	
85	337.3485128879547	pulse	1	t		83.0	2.5	/experiments/AOT/AOT_stimuli/rescaled_final/1087_fw.mp4	0.0	362.96750497817993	
85	337.8646328449249	fix_post	2		12	83.0	2.5	/experiments/AOT/AOT_stimuli/rescaled_final/1087_fw.mp4	0.0	363.48362493515015	0.10034012794494629
87	337.9649729728699	stim	0		1716					363.5839650630951	14.300071954727173
87	338.9485960006714	pulse	0	t						364.5675880908966	
87	340.5485179424286	pulse	0	t						366.1675100326538	
87	342.1484899520874	pulse	0	t						367.7674820423126	
87	343.7485148906708	pulse	0	t						369.367506980896	
87	345.34857392311096	pulse	0	t						370.9675660133362	
87	346.94845700263977	pulse	0	t						372.567449092865	
87	348.5484049320221	pulse	0	t						374.1673970222473	
87	350.14845395088196	pulse	0	t						375.7674460411072	
87	351.74842596054077	pulse	0	t						377.367418050766	
