trial_nr	onset	event_type	phase	response	nr_frames	movie_index	movie_duration	movie_file	blank	onset_abs	duration
0	0.14991402626037598	stim	0		210					21.72713303565979	1.749927043914795
0	1.8919379711151123	response	0	space						23.469156980514526	
1	1.899841070175171	stim	0		4466					23.477060079574585	37.216628074645996
1	39.10114312171936	pulse	0	t						60.678362131118774	
1	39.11646914482117	stim	1		1717					60.69368815422058	14.308223009109497
1	40.70829105377197	pulse	1	t						62.28551006317139	
1	42.307868003845215	pulse	1	t						63.88508701324463	
1	43.908377170562744	pulse	1	t						65.48559617996216	
1	45.50826406478882	pulse	1	t						67.08548307418823	
1	47.108304023742676	pulse	1	t						68.68552303314209	
1	48.70826816558838	pulse	1	t						70.2854871749878	
1	50.30814504623413	pulse	1	t						71.88536405563354	
1	51.9082670211792	pulse	1	t						73.48548603057861	
2	53.424692153930664	fix_pre	0		11	0.0	2.5	/experiments/AOT/AOT_stimuli/rescaled_final/0184_rv.mp4	0.0	75.00191116333008	0.09161782264709473
2	53.50809717178345	pulse	0	t		0.0	2.5	/experiments/AOT/AOT_stimuli/rescaled_final/0184_rv.mp4	0.0	75.08531618118286	
2	53.51630997657776	movie	1		243	0.0	2.5	/experiments/AOT/AOT_stimuli/rescaled_final/0184_rv.mp4	0.0	75.09352898597717	2.508347988128662
2	55.109310150146484	pulse	1	t		0.0	2.5	/experiments/AOT/AOT_stimuli/rescaled_final/0184_rv.mp4	0.0	76.6865291595459	
2	56.02465796470642	fix_post	2		12	0.0	2.5	/experiments/AOT/AOT_stimuli/rescaled_final/0184_rv.mp4	0.0	77.60187697410583	0.100006103515625
3	56.124664068222046	fix_pre	0		120	1.0	2.5	/experiments/AOT/AOT_stimuli/rescaled_final/1881_rv.mp4	0.0	77.70188307762146	0.9999649524688721
3	56.70830202102661	pulse	0	t		1.0	2.5	/experiments/AOT/AOT_stimuli/rescaled_final/1881_rv.mp4	0.0	78.28552103042603	
3	57.12462902069092	movie	1		245	1.0	2.5	/experiments/AOT/AOT_stimuli/rescaled_final/1881_rv.mp4	0.0	78.70184803009033	2.500020980834961
3	58.3082480430603	pulse	1	t		1.0	2.5	/experiments/AOT/AOT_stimuli/rescaled_final/1881_rv.mp4	0.0	79.88546705245972	
3	59.62465000152588	fix_post	2		12	1.0	2.5	/experiments/AOT/AOT_stimuli/rescaled_final/1881_rv.mp4	0.0	81.2018690109253	0.10001516342163086
4	59.72466516494751	fix_pre	0		120	2.0	2.5	/experiments/AOT/AOT_stimuli/rescaled_final/0435_fw.mp4	0.0	81.30188417434692	1.0000169277191162
4	59.908143043518066	pulse	0	t		2.0	2.5	/experiments/AOT/AOT_stimuli/rescaled_final/0435_fw.mp4	0.0	81.48536205291748	
4	60.724682092666626	movie	1		246	2.0	2.5	/experiments/AOT/AOT_stimuli/rescaled_final/0435_fw.mp4	0.0	82.30190110206604	2.499912977218628
4	61.50823903083801	pulse	1	t		2.0	2.5	/experiments/AOT/AOT_stimuli/rescaled_final/0435_fw.mp4	0.0	83.08545804023743	
4	63.10662817955017	pulse	1	t		2.0	2.5	/experiments/AOT/AOT_stimuli/rescaled_final/0435_fw.mp4	0.0	84.68384718894958	
4	63.224595069885254	fix_post	2		12	2.0	2.5	/experiments/AOT/AOT_stimuli/rescaled_final/0435_fw.mp4	0.0	84.80181407928467	0.1000978946685791
5	63.32469296455383	fix_pre	0		120	3.0	2.5	/experiments/AOT/AOT_stimuli/rescaled_final/0132_rv.mp4	0.0	84.90191197395325	0.9999451637268066
5	64.32463812828064	movie	1		244	3.0	2.5	/experiments/AOT/AOT_stimuli/rescaled_final/0132_rv.mp4	0.0	85.90185713768005	2.499969005584717
5	64.70765614509583	pulse	1	t		3.0	2.5	/experiments/AOT/AOT_stimuli/rescaled_final/0132_rv.mp4	0.0	86.28487515449524	
5	66.30816006660461	pulse	1	t		3.0	2.5	/experiments/AOT/AOT_stimuli/rescaled_final/0132_rv.mp4	0.0	87.88537907600403	
5	66.82460713386536	fix_post	2		12	3.0	2.5	/experiments/AOT/AOT_stimuli/rescaled_final/0132_rv.mp4	0.0	88.40182614326477	0.09993505477905273
6	66.92454218864441	fix_pre	0		119	4.0	2.5	/experiments/AOT/AOT_stimuli/rescaled_final/0552_rv.mp4	0.0	88.50176119804382	0.9917068481445312
6	67.90813398361206	pulse	0	t		4.0	2.5	/experiments/AOT/AOT_stimuli/rescaled_final/0552_rv.mp4	0.0	89.48535299301147	
6	67.91624903678894	movie	1		247	4.0	2.5	/experiments/AOT/AOT_stimuli/rescaled_final/0552_rv.mp4	0.0	89.49346804618835	2.5083861351013184
6	69.50938510894775	pulse	1	t		4.0	2.5	/experiments/AOT/AOT_stimuli/rescaled_final/0552_rv.mp4	0.0	91.08660411834717	
6	70.42463517189026	fix_post	2		12	4.0	2.5	/experiments/AOT/AOT_stimuli/rescaled_final/0552_rv.mp4	0.0	92.00185418128967	0.0999448299407959
7	70.52458000183105	fix_pre	0		120	5.0	2.5	blank	1.0	92.10179901123047	1.0000510215759277
7	71.10814213752747	pulse	0	t		5.0	2.5	blank	1.0	92.68536114692688	
7	71.52463102340698	movie	1		300	5.0	2.5	blank	1.0	93.1018500328064	2.499974012374878
7	72.7081310749054	pulse	1	t		5.0	2.5	blank	1.0	94.28535008430481	
7	74.02460503578186	fix_post	2		12	5.0	2.5	blank	1.0	95.60182404518127	0.09997701644897461
8	74.12458205223083	fix_pre	0		120	6.0	2.5	/experiments/AOT/AOT_stimuli/rescaled_final/0921_rv.mp4	0.0	95.70180106163025	1.0000641345977783
8	74.30805397033691	pulse	0	t		6.0	2.5	/experiments/AOT/AOT_stimuli/rescaled_final/0921_rv.mp4	0.0	95.88527297973633	
8	75.12464618682861	movie	1		244	6.0	2.5	/experiments/AOT/AOT_stimuli/rescaled_final/0921_rv.mp4	0.0	96.70186519622803	2.4999377727508545
8	75.90808415412903	pulse	1	t		6.0	2.5	/experiments/AOT/AOT_stimuli/rescaled_final/0921_rv.mp4	0.0	97.48530316352844	
8	77.50688219070435	pulse	1	t		6.0	2.5	/experiments/AOT/AOT_stimuli/rescaled_final/0921_rv.mp4	0.0	99.08410120010376	
8	77.62458395957947	fix_post	2		12	6.0	2.5	/experiments/AOT/AOT_stimuli/rescaled_final/0921_rv.mp4	0.0	99.20180296897888	0.10002422332763672
9	77.7246081829071	fix_pre	0		120	7.0	2.5	/experiments/AOT/AOT_stimuli/rescaled_final/1819_fw.mp4	0.0	99.30182719230652	0.9999148845672607
9	78.72452306747437	movie	1		244	7.0	2.5	/experiments/AOT/AOT_stimuli/rescaled_final/1819_fw.mp4	0.0	100.30174207687378	2.5000181198120117
9	79.10740399360657	pulse	1	t		7.0	2.5	/experiments/AOT/AOT_stimuli/rescaled_final/1819_fw.mp4	0.0	100.68462300300598	
9	80.7080750465393	pulse	1	t		7.0	2.5	/experiments/AOT/AOT_stimuli/rescaled_final/1819_fw.mp4	0.0	102.28529405593872	
9	81.22454118728638	fix_post	2		12	7.0	2.5	/experiments/AOT/AOT_stimuli/rescaled_final/1819_fw.mp4	0.0	102.80176019668579	0.1000518798828125
10	81.32459306716919	fix_pre	0		119	8.0	2.5	/experiments/AOT/AOT_stimuli/rescaled_final/0002_rv.mp4	0.0	102.9018120765686	0.9916360378265381
10	82.30811214447021	pulse	0	t		8.0	2.5	/experiments/AOT/AOT_stimuli/rescaled_final/0002_rv.mp4	0.0	103.88533115386963	
10	82.31622910499573	movie	1		245	8.0	2.5	/experiments/AOT/AOT_stimuli/rescaled_final/0002_rv.mp4	0.0	103.89344811439514	2.5079309940338135
10	83.90759706497192	pulse	1	t		8.0	2.5	/experiments/AOT/AOT_stimuli/rescaled_final/0002_rv.mp4	0.0	105.48481607437134	
10	84.82416009902954	fix_post	2		12	8.0	2.5	/experiments/AOT/AOT_stimuli/rescaled_final/0002_rv.mp4	0.0	106.40137910842896	0.10047197341918945
11	84.92463207244873	fix_pre	0		120	9.0	2.5	/experiments/AOT/AOT_stimuli/rescaled_final/0431_rv.mp4	0.0	106.50185108184814	1.0000369548797607
11	85.50802397727966	pulse	0	t		9.0	2.5	/experiments/AOT/AOT_stimuli/rescaled_final/0431_rv.mp4	0.0	107.08524298667908	
11	85.92466902732849	movie	1		243	9.0	2.5	/experiments/AOT/AOT_stimuli/rescaled_final/0431_rv.mp4	0.0	107.5018880367279	2.4999780654907227
11	87.10813403129578	pulse	1	t		9.0	2.5	/experiments/AOT/AOT_stimuli/rescaled_final/0431_rv.mp4	0.0	108.68535304069519	
11	88.42464709281921	fix_post	2		12	9.0	2.5	/experiments/AOT/AOT_stimuli/rescaled_final/0431_rv.mp4	0.0	110.00186610221863	0.10005497932434082
12	88.52470207214355	fix_pre	0		120	10.0	2.5	/experiments/AOT/AOT_stimuli/rescaled_final/1660_rv.mp4	0.0	110.10192108154297	0.9999139308929443
12	88.70806407928467	pulse	0	t		10.0	2.5	/experiments/AOT/AOT_stimuli/rescaled_final/1660_rv.mp4	0.0	110.28528308868408	
12	89.5246160030365	movie	1		245	10.0	2.5	/experiments/AOT/AOT_stimuli/rescaled_final/1660_rv.mp4	0.0	111.10183501243591	2.4999141693115234
12	90.30801606178284	pulse	1	t		10.0	2.5	/experiments/AOT/AOT_stimuli/rescaled_final/1660_rv.mp4	0.0	111.88523507118225	
12	91.90640616416931	pulse	1	t		10.0	2.5	/experiments/AOT/AOT_stimuli/rescaled_final/1660_rv.mp4	0.0	113.48362517356873	
12	92.02453017234802	fix_post	2		12	10.0	2.5	/experiments/AOT/AOT_stimuli/rescaled_final/1660_rv.mp4	0.0	113.60174918174744	0.09999299049377441
13	92.1245231628418	fix_pre	0		120	11.0	2.5	/experiments/AOT/AOT_stimuli/rescaled_final/0435_rv.mp4	0.0	113.70174217224121	1.0000898838043213
13	93.12461304664612	movie	1		245	11.0	2.5	/experiments/AOT/AOT_stimuli/rescaled_final/0435_rv.mp4	0.0	114.70183205604553	2.5000150203704834
13	93.50764799118042	pulse	1	t		11.0	2.5	/experiments/AOT/AOT_stimuli/rescaled_final/0435_rv.mp4	0.0	115.08486700057983	
13	95.10811018943787	pulse	1	t		11.0	2.5	/experiments/AOT/AOT_stimuli/rescaled_final/0435_rv.mp4	0.0	116.68532919883728	
13	95.6246280670166	fix_post	2		12	11.0	2.5	/experiments/AOT/AOT_stimuli/rescaled_final/0435_rv.mp4	0.0	117.20184707641602	0.09998202323913574
14	95.72461009025574	fix_pre	0		119	12.0	2.5	blank	1.0	117.30182909965515	0.9915440082550049
14	96.70803117752075	pulse	0	t		12.0	2.5	blank	1.0	118.28525018692017	
14	96.71615409851074	movie	1		301	12.0	2.5	blank	1.0	118.29337310791016	2.5080349445343018
14	98.30760908126831	pulse	1	t		12.0	2.5	blank	1.0	119.88482809066772	
14	99.22418904304504	fix_post	2		12	12.0	2.5	blank	1.0	120.80140805244446	0.10003995895385742
15	99.3242290019989	fix_pre	0		120	13.0	2.5	/experiments/AOT/AOT_stimuli/rescaled_final/1885_fw.mp4	0.0	120.90144801139832	1.000190019607544
15	99.90781998634338	pulse	0	t		13.0	2.5	/experiments/AOT/AOT_stimuli/rescaled_final/1885_fw.mp4	0.0	121.4850389957428	
15	100.32441902160645	movie	1		244	13.0	2.5	/experiments/AOT/AOT_stimuli/rescaled_final/1885_fw.mp4	0.0	121.90163803100586	2.4996111392974854
15	101.50809216499329	pulse	1	t		13.0	2.5	/experiments/AOT/AOT_stimuli/rescaled_final/1885_fw.mp4	0.0	123.0853111743927	
15	102.82403016090393	fix_post	2		12	13.0	2.5	/experiments/AOT/AOT_stimuli/rescaled_final/1885_fw.mp4	0.0	124.40124917030334	0.09995388984680176
16	102.92398405075073	fix_pre	0		120	14.0	2.5	/experiments/AOT/AOT_stimuli/rescaled_final/1235_fw.mp4	0.0	124.50120306015015	1.0005059242248535
16	103.10795211791992	pulse	0	t		14.0	2.5	/experiments/AOT/AOT_stimuli/rescaled_final/1235_fw.mp4	0.0	124.68517112731934	
16	103.92448997497559	movie	1		244	14.0	2.5	/experiments/AOT/AOT_stimuli/rescaled_final/1235_fw.mp4	0.0	125.501708984375	2.4999351501464844
16	104.70091009140015	pulse	1	t		14.0	2.5	/experiments/AOT/AOT_stimuli/rescaled_final/1235_fw.mp4	0.0	126.27812910079956	
16	106.3062961101532	pulse	1	t		14.0	2.5	/experiments/AOT/AOT_stimuli/rescaled_final/1235_fw.mp4	0.0	127.88351511955261	
16	106.42442512512207	fix_post	2		12	14.0	2.5	/experiments/AOT/AOT_stimuli/rescaled_final/1235_fw.mp4	0.0	128.00164413452148	0.10004901885986328
17	106.52447414398193	fix_pre	0		120	15.0	2.5	/experiments/AOT/AOT_stimuli/rescaled_final/0267_fw.mp4	0.0	128.10169315338135	0.9999449253082275
17	107.52441906929016	movie	1		247	15.0	2.5	/experiments/AOT/AOT_stimuli/rescaled_final/0267_fw.mp4	0.0	129.10163807868958	2.5000650882720947
17	107.90760707855225	pulse	1	t		15.0	2.5	/experiments/AOT/AOT_stimuli/rescaled_final/0267_fw.mp4	0.0	129.48482608795166	
17	109.50788402557373	pulse	1	t		15.0	2.5	/experiments/AOT/AOT_stimuli/rescaled_final/0267_fw.mp4	0.0	131.08510303497314	
17	110.02448415756226	fix_post	2		12	15.0	2.5	/experiments/AOT/AOT_stimuli/rescaled_final/0267_fw.mp4	0.0	131.60170316696167	0.0999150276184082
18	110.12439918518066	fix_pre	0		119	16.0	2.5	/experiments/AOT/AOT_stimuli/rescaled_final/0219_rv.mp4	0.0	131.70161819458008	0.9916667938232422
18	111.1078531742096	pulse	0	t		16.0	2.5	/experiments/AOT/AOT_stimuli/rescaled_final/0219_rv.mp4	0.0	132.685072183609	
18	111.1160659790039	movie	1		245	16.0	2.5	/experiments/AOT/AOT_stimuli/rescaled_final/0219_rv.mp4	0.0	132.69328498840332	2.5083320140838623
18	112.70759701728821	pulse	1	t		16.0	2.5	/experiments/AOT/AOT_stimuli/rescaled_final/0219_rv.mp4	0.0	134.28481602668762	
18	113.62439799308777	fix_post	2		12	16.0	2.5	/experiments/AOT/AOT_stimuli/rescaled_final/0219_rv.mp4	0.0	135.20161700248718	0.10013198852539062
19	113.72452998161316	fix_pre	0		120	17.0	2.5	/experiments/AOT/AOT_stimuli/rescaled_final/1670_rv.mp4	0.0	135.30174899101257	0.9998500347137451
19	114.30799198150635	pulse	0	t		17.0	2.5	/experiments/AOT/AOT_stimuli/rescaled_final/1670_rv.mp4	0.0	135.88521099090576	
19	114.7243800163269	movie	1		245	17.0	2.5	/experiments/AOT/AOT_stimuli/rescaled_final/1670_rv.mp4	0.0	136.30159902572632	2.5000250339508057
19	115.90800404548645	pulse	1	t		17.0	2.5	/experiments/AOT/AOT_stimuli/rescaled_final/1670_rv.mp4	0.0	137.48522305488586	
19	117.22440505027771	fix_post	2		12	17.0	2.5	/experiments/AOT/AOT_stimuli/rescaled_final/1670_rv.mp4	0.0	138.80162405967712	0.09996700286865234
20	117.32437205314636	fix_pre	0		120	18.0	2.5	/experiments/AOT/AOT_stimuli/rescaled_final/1852_rv.mp4	0.0	138.90159106254578	1.0000340938568115
20	117.5080041885376	pulse	0	t		18.0	2.5	/experiments/AOT/AOT_stimuli/rescaled_final/1852_rv.mp4	0.0	139.085223197937	
20	118.32440614700317	movie	1		245	18.0	2.5	/experiments/AOT/AOT_stimuli/rescaled_final/1852_rv.mp4	0.0	139.9016251564026	2.500044822692871
20	119.10792016983032	pulse	1	t		18.0	2.5	/experiments/AOT/AOT_stimuli/rescaled_final/1852_rv.mp4	0.0	140.68513917922974	
20	120.7062840461731	pulse	1	t		18.0	2.5	/experiments/AOT/AOT_stimuli/rescaled_final/1852_rv.mp4	0.0	142.2835030555725	
20	120.82445096969604	fix_post	2		12	18.0	2.5	/experiments/AOT/AOT_stimuli/rescaled_final/1852_rv.mp4	0.0	142.40166997909546	0.09988903999328613
21	120.92434000968933	fix_pre	0		120	19.0	2.5	/experiments/AOT/AOT_stimuli/rescaled_final/0974_fw.mp4	0.0	142.50155901908875	1.0000319480895996
21	121.92437195777893	movie	1		243	19.0	2.5	/experiments/AOT/AOT_stimuli/rescaled_final/0974_fw.mp4	0.0	143.50159096717834	2.4999630451202393
21	122.30766201019287	pulse	1	t		19.0	2.5	/experiments/AOT/AOT_stimuli/rescaled_final/0974_fw.mp4	0.0	143.88488101959229	
21	123.90779519081116	pulse	1	t		19.0	2.5	/experiments/AOT/AOT_stimuli/rescaled_final/0974_fw.mp4	0.0	145.48501420021057	
21	124.42433500289917	fix_post	2		12	19.0	2.5	/experiments/AOT/AOT_stimuli/rescaled_final/0974_fw.mp4	0.0	146.00155401229858	0.0999901294708252
22	124.52432513237	fix_pre	0		119	20.0	2.5	blank	1.0	146.1015441417694	0.9916520118713379
22	125.50780510902405	pulse	0	t		20.0	2.5	blank	1.0	147.08502411842346	
22	125.51597714424133	movie	1		301	20.0	2.5	blank	1.0	147.09319615364075	2.50836181640625
22	127.1077880859375	pulse	1	t		20.0	2.5	blank	1.0	148.6850070953369	
22	128.02433896064758	fix_post	2		12	20.0	2.5	blank	1.0	149.601557970047	0.10003018379211426
23	128.1243691444397	fix_pre	0		120	21.0	2.5	/experiments/AOT/AOT_stimuli/rescaled_final/2163_fw.mp4	0.0	149.7015881538391	1.00003981590271
23	128.70784616470337	pulse	0	t		21.0	2.5	/experiments/AOT/AOT_stimuli/rescaled_final/2163_fw.mp4	0.0	150.28506517410278	
23	129.1244089603424	movie	1		246	21.0	2.5	/experiments/AOT/AOT_stimuli/rescaled_final/2163_fw.mp4	0.0	150.70162796974182	2.4998550415039062
23	130.3079071044922	pulse	1	t		21.0	2.5	/experiments/AOT/AOT_stimuli/rescaled_final/2163_fw.mp4	0.0	151.8851261138916	
23	131.6242640018463	fix_post	2		12	21.0	2.5	/experiments/AOT/AOT_stimuli/rescaled_final/2163_fw.mp4	0.0	153.20148301124573	0.09999418258666992
24	131.72425818443298	fix_pre	0		120	22.0	2.5	/experiments/AOT/AOT_stimuli/rescaled_final/1550_fw.mp4	0.0	153.3014771938324	1.0
24	131.90777397155762	pulse	0	t		22.0	2.5	/experiments/AOT/AOT_stimuli/rescaled_final/1550_fw.mp4	0.0	153.48499298095703	
24	132.72425818443298	movie	1		245	22.0	2.5	/experiments/AOT/AOT_stimuli/rescaled_final/1550_fw.mp4	0.0	154.3014771938324	2.5001158714294434
24	133.50783610343933	pulse	1	t		22.0	2.5	/experiments/AOT/AOT_stimuli/rescaled_final/1550_fw.mp4	0.0	155.08505511283875	
24	135.10390615463257	pulse	1	t		22.0	2.5	/experiments/AOT/AOT_stimuli/rescaled_final/1550_fw.mp4	0.0	156.68112516403198	
24	135.22437405586243	fix_post	2		12	22.0	2.5	/experiments/AOT/AOT_stimuli/rescaled_final/1550_fw.mp4	0.0	156.80159306526184	0.10002899169921875
25	135.32440304756165	fix_pre	0		120	23.0	2.5	/experiments/AOT/AOT_stimuli/rescaled_final/0209_fw.mp4	0.0	156.90162205696106	0.9998481273651123
25	136.32425117492676	movie	1		244	23.0	2.5	/experiments/AOT/AOT_stimuli/rescaled_final/0209_fw.mp4	0.0	157.90147018432617	2.5000507831573486
25	136.70760798454285	pulse	1	t		23.0	2.5	/experiments/AOT/AOT_stimuli/rescaled_final/0209_fw.mp4	0.0	158.28482699394226	
25	138.30778312683105	pulse	1	t		23.0	2.5	/experiments/AOT/AOT_stimuli/rescaled_final/0209_fw.mp4	0.0	159.88500213623047	
25	138.8243019580841	fix_post	2		12	23.0	2.5	/experiments/AOT/AOT_stimuli/rescaled_final/0209_fw.mp4	0.0	160.40152096748352	0.09995412826538086
26	138.9242560863495	fix_pre	0		119	24.0	2.5	/experiments/AOT/AOT_stimuli/rescaled_final/0002_fw.mp4	0.0	160.5014750957489	0.9916980266571045
26	139.9077889919281	pulse	0	t		24.0	2.5	/experiments/AOT/AOT_stimuli/rescaled_final/0002_fw.mp4	0.0	161.48500800132751	
26	139.9159541130066	movie	1		244	24.0	2.5	/experiments/AOT/AOT_stimuli/rescaled_final/0002_fw.mp4	0.0	161.493173122406	2.5078909397125244
26	141.50758695602417	pulse	1	t		24.0	2.5	/experiments/AOT/AOT_stimuli/rescaled_final/0002_fw.mp4	0.0	163.08480596542358	
26	142.42384505271912	fix_post	2		12	24.0	2.5	/experiments/AOT/AOT_stimuli/rescaled_final/0002_fw.mp4	0.0	164.00106406211853	0.10039591789245605
27	142.52424097061157	fix_pre	0		120	25.0	2.5	/experiments/AOT/AOT_stimuli/rescaled_final/1850_fw.mp4	0.0	164.101459980011	1.0000381469726562
27	143.10776019096375	pulse	0	t		25.0	2.5	/experiments/AOT/AOT_stimuli/rescaled_final/1850_fw.mp4	0.0	164.68497920036316	
27	143.52427911758423	movie	1		243	25.0	2.5	/experiments/AOT/AOT_stimuli/rescaled_final/1850_fw.mp4	0.0	165.10149812698364	2.5001070499420166
27	144.70786309242249	pulse	1	t		25.0	2.5	/experiments/AOT/AOT_stimuli/rescaled_final/1850_fw.mp4	0.0	166.2850821018219	
27	146.02438616752625	fix_post	2		12	25.0	2.5	/experiments/AOT/AOT_stimuli/rescaled_final/1850_fw.mp4	0.0	167.60160517692566	0.09978795051574707
28	146.124174118042	fix_pre	0		120	26.0	2.5	/experiments/AOT/AOT_stimuli/rescaled_final/0427_fw.mp4	0.0	167.7013931274414	1.000126838684082
28	146.30778217315674	pulse	0	t		26.0	2.5	/experiments/AOT/AOT_stimuli/rescaled_final/0427_fw.mp4	0.0	167.88500118255615	
28	147.12430095672607	movie	1		244	26.0	2.5	/experiments/AOT/AOT_stimuli/rescaled_final/0427_fw.mp4	0.0	168.7015199661255	2.4999401569366455
28	147.90774512290955	pulse	1	t		26.0	2.5	/experiments/AOT/AOT_stimuli/rescaled_final/0427_fw.mp4	0.0	169.48496413230896	
28	149.50654315948486	pulse	1	t		26.0	2.5	/experiments/AOT/AOT_stimuli/rescaled_final/0427_fw.mp4	0.0	171.08376216888428	
28	149.62424111366272	fix_post	2		12	26.0	2.5	/experiments/AOT/AOT_stimuli/rescaled_final/0427_fw.mp4	0.0	171.20146012306213	0.09994387626647949
29	149.7241849899292	fix_pre	0		120	27.0	2.5	/experiments/AOT/AOT_stimuli/rescaled_final/0793_fw.mp4	0.0	171.3014039993286	1.0000290870666504
29	150.72421407699585	movie	1		243	27.0	2.5	/experiments/AOT/AOT_stimuli/rescaled_final/0793_fw.mp4	0.0	172.30143308639526	2.5002079010009766
29	151.10734605789185	pulse	1	t		27.0	2.5	/experiments/AOT/AOT_stimuli/rescaled_final/0793_fw.mp4	0.0	172.68456506729126	
29	152.7077009677887	pulse	1	t		27.0	2.5	/experiments/AOT/AOT_stimuli/rescaled_final/0793_fw.mp4	0.0	174.2849199771881	
29	153.22442197799683	fix_post	2		12	27.0	2.5	/experiments/AOT/AOT_stimuli/rescaled_final/0793_fw.mp4	0.0	174.80164098739624	0.09981799125671387
30	153.32423996925354	fix_pre	0		119	28.0	2.5	blank	1.0	174.90145897865295	0.9916551113128662
30	154.30738711357117	pulse	0	t		28.0	2.5	blank	1.0	175.88460612297058	
30	154.3158950805664	movie	1		301	28.0	2.5	blank	1.0	175.89311408996582	2.5082859992980957
30	155.90798616409302	pulse	1	t		28.0	2.5	blank	1.0	177.48520517349243	
30	156.8241810798645	fix_post	2		12	28.0	2.5	blank	1.0	178.40140008926392	0.10008907318115234
31	156.92427015304565	fix_pre	0		120	29.0	2.5	/experiments/AOT/AOT_stimuli/rescaled_final/0449_rv.mp4	0.0	178.50148916244507	0.9999070167541504
31	157.50774002075195	pulse	0	t		29.0	2.5	/experiments/AOT/AOT_stimuli/rescaled_final/0449_rv.mp4	0.0	179.08495903015137	
31	157.9241771697998	movie	1		245	29.0	2.5	/experiments/AOT/AOT_stimuli/rescaled_final/0449_rv.mp4	0.0	179.50139617919922	2.499584913253784
31	159.1077311038971	pulse	1	t		29.0	2.5	/experiments/AOT/AOT_stimuli/rescaled_final/0449_rv.mp4	0.0	180.6849501132965	
31	160.4237620830536	fix_post	2		12	29.0	2.5	/experiments/AOT/AOT_stimuli/rescaled_final/0449_rv.mp4	0.0	182.000981092453	0.1004030704498291
32	160.52416515350342	fix_pre	0		120	30.0	2.5	/experiments/AOT/AOT_stimuli/rescaled_final/1420_rv.mp4	0.0	182.10138416290283	0.9998908042907715
32	160.7076771259308	pulse	0	t		30.0	2.5	/experiments/AOT/AOT_stimuli/rescaled_final/1420_rv.mp4	0.0	182.2848961353302	
32	161.5240559577942	movie	1		245	30.0	2.5	/experiments/AOT/AOT_stimuli/rescaled_final/1420_rv.mp4	0.0	183.1012749671936	2.499756097793579
32	162.30762100219727	pulse	1	t		30.0	2.5	/experiments/AOT/AOT_stimuli/rescaled_final/1420_rv.mp4	0.0	183.88484001159668	
32	163.90660500526428	pulse	1	t		30.0	2.5	/experiments/AOT/AOT_stimuli/rescaled_final/1420_rv.mp4	0.0	185.4838240146637	
32	164.02381205558777	fix_post	2		12	30.0	2.5	/experiments/AOT/AOT_stimuli/rescaled_final/1420_rv.mp4	0.0	185.60103106498718	0.1002969741821289
33	164.1241090297699	fix_pre	0		120	31.0	2.5	/experiments/AOT/AOT_stimuli/rescaled_final/0267_rv.mp4	0.0	185.7013280391693	0.9999849796295166
33	165.1240940093994	movie	1		245	31.0	2.5	/experiments/AOT/AOT_stimuli/rescaled_final/0267_rv.mp4	0.0	186.70131301879883	2.499983072280884
33	165.5079550743103	pulse	1	t		31.0	2.5	/experiments/AOT/AOT_stimuli/rescaled_final/0267_rv.mp4	0.0	187.08517408370972	
33	167.1075780391693	pulse	1	t		31.0	2.5	/experiments/AOT/AOT_stimuli/rescaled_final/0267_rv.mp4	0.0	188.68479704856873	
33	167.6240770816803	fix_post	2		12	31.0	2.5	/experiments/AOT/AOT_stimuli/rescaled_final/0267_rv.mp4	0.0	189.2012960910797	0.10014700889587402
34	167.72422409057617	fix_pre	0		119	32.0	2.5	/experiments/AOT/AOT_stimuli/rescaled_final/0870_fw.mp4	0.0	189.3014430999756	0.991508960723877
34	168.70759510993958	pulse	0	t		32.0	2.5	/experiments/AOT/AOT_stimuli/rescaled_final/0870_fw.mp4	0.0	190.284814119339	
34	168.71573305130005	movie	1		245	32.0	2.5	/experiments/AOT/AOT_stimuli/rescaled_final/0870_fw.mp4	0.0	190.29295206069946	2.508328914642334
34	170.30862307548523	pulse	1	t		32.0	2.5	/experiments/AOT/AOT_stimuli/rescaled_final/0870_fw.mp4	0.0	191.88584208488464	
34	171.22406196594238	fix_post	2		12	32.0	2.5	/experiments/AOT/AOT_stimuli/rescaled_final/0870_fw.mp4	0.0	192.8012809753418	0.10003399848937988
35	171.32409596443176	fix_pre	0		120	33.0	2.5	/experiments/AOT/AOT_stimuli/rescaled_final/0629_fw.mp4	0.0	192.90131497383118	0.9996161460876465
35	171.90760207176208	pulse	0	t		33.0	2.5	/experiments/AOT/AOT_stimuli/rescaled_final/0629_fw.mp4	0.0	193.4848210811615	
35	172.3237121105194	movie	1		244	33.0	2.5	/experiments/AOT/AOT_stimuli/rescaled_final/0629_fw.mp4	0.0	193.90093111991882	2.5003349781036377
35	173.5075831413269	pulse	1	t		33.0	2.5	/experiments/AOT/AOT_stimuli/rescaled_final/0629_fw.mp4	0.0	195.08480215072632	
35	174.82404708862305	fix_post	2		12	33.0	2.5	/experiments/AOT/AOT_stimuli/rescaled_final/0629_fw.mp4	0.0	196.40126609802246	0.09998488426208496
36	174.92403197288513	fix_pre	0		120	34.0	2.5	/experiments/AOT/AOT_stimuli/rescaled_final/1582_rv.mp4	0.0	196.50125098228455	1.0000700950622559
36	175.10752296447754	pulse	0	t		34.0	2.5	/experiments/AOT/AOT_stimuli/rescaled_final/1582_rv.mp4	0.0	196.68474197387695	
36	175.9241020679474	movie	1		243	34.0	2.5	/experiments/AOT/AOT_stimuli/rescaled_final/1582_rv.mp4	0.0	197.5013210773468	2.500072956085205
36	176.7075550556183	pulse	1	t		34.0	2.5	/experiments/AOT/AOT_stimuli/rescaled_final/1582_rv.mp4	0.0	198.2847740650177	
36	178.30605697631836	pulse	1	t		34.0	2.5	/experiments/AOT/AOT_stimuli/rescaled_final/1582_rv.mp4	0.0	199.88327598571777	
36	178.4241750240326	fix_post	2		12	34.0	2.5	/experiments/AOT/AOT_stimuli/rescaled_final/1582_rv.mp4	0.0	200.001394033432	0.0999140739440918
37	178.52408909797668	fix_pre	0		120	35.0	2.5	blank	1.0	200.1013081073761	1.0000319480895996
37	179.52412104606628	movie	1		300	35.0	2.5	blank	1.0	201.1013400554657	2.49995493888855
37	179.9075951576233	pulse	1	t		35.0	2.5	blank	1.0	201.4848141670227	
37	181.50757503509521	pulse	1	t		35.0	2.5	blank	1.0	203.08479404449463	
37	182.02407598495483	fix_post	2		12	35.0	2.5	blank	1.0	203.60129499435425	0.0999600887298584
38	182.1240360736847	fix_pre	0		119	36.0	2.5	/experiments/AOT/AOT_stimuli/rescaled_final/0782_fw.mp4	0.0	203.7012550830841	0.9916579723358154
38	183.1075520515442	pulse	0	t		36.0	2.5	/experiments/AOT/AOT_stimuli/rescaled_final/0782_fw.mp4	0.0	204.6847710609436	
38	183.1156940460205	movie	1		245	36.0	2.5	/experiments/AOT/AOT_stimuli/rescaled_final/0782_fw.mp4	0.0	204.69291305541992	2.5083611011505127
38	184.70727014541626	pulse	1	t		36.0	2.5	/experiments/AOT/AOT_stimuli/rescaled_final/0782_fw.mp4	0.0	206.28448915481567	
38	185.62405514717102	fix_post	2		12	36.0	2.5	/experiments/AOT/AOT_stimuli/rescaled_final/0782_fw.mp4	0.0	207.20127415657043	0.10002398490905762
39	185.72407913208008	fix_pre	0		120	37.0	2.5	/experiments/AOT/AOT_stimuli/rescaled_final/1885_rv.mp4	0.0	207.3012981414795	0.9999990463256836
39	186.3075339794159	pulse	0	t		37.0	2.5	/experiments/AOT/AOT_stimuli/rescaled_final/1885_rv.mp4	0.0	207.8847529888153	
39	186.72407817840576	movie	1		245	37.0	2.5	/experiments/AOT/AOT_stimuli/rescaled_final/1885_rv.mp4	0.0	208.30129718780518	2.5000338554382324
39	187.9075710773468	pulse	1	t		37.0	2.5	/experiments/AOT/AOT_stimuli/rescaled_final/1885_rv.mp4	0.0	209.48479008674622	
39	189.224112033844	fix_post	2		12	37.0	2.5	/experiments/AOT/AOT_stimuli/rescaled_final/1885_rv.mp4	0.0	210.8013310432434	0.0999760627746582
40	189.32408809661865	fix_pre	0		120	38.0	2.5	/experiments/AOT/AOT_stimuli/rescaled_final/1857_rv.mp4	0.0	210.90130710601807	0.9999639987945557
40	189.50748896598816	pulse	0	t		38.0	2.5	/experiments/AOT/AOT_stimuli/rescaled_final/1857_rv.mp4	0.0	211.08470797538757	
40	190.3240520954132	movie	1		243	38.0	2.5	/experiments/AOT/AOT_stimuli/rescaled_final/1857_rv.mp4	0.0	211.90127110481262	2.4999940395355225
40	191.10750913619995	pulse	1	t		38.0	2.5	/experiments/AOT/AOT_stimuli/rescaled_final/1857_rv.mp4	0.0	212.68472814559937	
40	192.70590901374817	pulse	1	t		38.0	2.5	/experiments/AOT/AOT_stimuli/rescaled_final/1857_rv.mp4	0.0	214.28312802314758	
40	192.82404613494873	fix_post	2		12	38.0	2.5	/experiments/AOT/AOT_stimuli/rescaled_final/1857_rv.mp4	0.0	214.40126514434814	0.09996795654296875
41	192.9240140914917	fix_pre	0		120	39.0	2.5	/experiments/AOT/AOT_stimuli/rescaled_final/0419_fw.mp4	0.0	214.5012331008911	0.9999339580535889
41	193.9239480495453	movie	1		243	39.0	2.5	/experiments/AOT/AOT_stimuli/rescaled_final/0419_fw.mp4	0.0	215.5011670589447	2.5000829696655273
41	194.30701303482056	pulse	1	t		39.0	2.5	/experiments/AOT/AOT_stimuli/rescaled_final/0419_fw.mp4	0.0	215.88423204421997	
41	195.9074890613556	pulse	1	t		39.0	2.5	/experiments/AOT/AOT_stimuli/rescaled_final/0419_fw.mp4	0.0	217.484708070755	
41	196.42403101921082	fix_post	2		12	39.0	2.5	/experiments/AOT/AOT_stimuli/rescaled_final/0419_fw.mp4	0.0	218.00125002861023	0.10000896453857422
42	196.5240399837494	fix_pre	0		119	40.0	2.5	blank	1.0	218.1012589931488	0.9915289878845215
42	197.50743508338928	pulse	0	t		40.0	2.5	blank	1.0	219.0846540927887	
42	197.5155689716339	movie	1		301	40.0	2.5	blank	1.0	219.09278798103333	2.508333206176758
42	199.1075119972229	pulse	1	t		40.0	2.5	blank	1.0	220.68473100662231	
42	200.02390217781067	fix_post	2		12	40.0	2.5	blank	1.0	221.60112118721008	0.1000359058380127
43	200.12393808364868	fix_pre	0		120	41.0	2.5	/experiments/AOT/AOT_stimuli/rescaled_final/2049_fw.mp4	0.0	221.7011570930481	1.000082015991211
43	200.70746302604675	pulse	0	t		41.0	2.5	/experiments/AOT/AOT_stimuli/rescaled_final/2049_fw.mp4	0.0	222.28468203544617	
43	201.1240200996399	movie	1		244	41.0	2.5	/experiments/AOT/AOT_stimuli/rescaled_final/2049_fw.mp4	0.0	222.7012391090393	2.4999020099639893
43	202.30748915672302	pulse	1	t		41.0	2.5	/experiments/AOT/AOT_stimuli/rescaled_final/2049_fw.mp4	0.0	223.88470816612244	
43	203.62392210960388	fix_post	2		12	41.0	2.5	/experiments/AOT/AOT_stimuli/rescaled_final/2049_fw.mp4	0.0	225.2011411190033	0.10002803802490234
44	203.72395014762878	fix_pre	0		120	42.0	2.5	/experiments/AOT/AOT_stimuli/rescaled_final/0674_fw.mp4	0.0	225.3011691570282	0.9999818801879883
44	203.90747904777527	pulse	0	t		42.0	2.5	/experiments/AOT/AOT_stimuli/rescaled_final/0674_fw.mp4	0.0	225.48469805717468	
44	204.72393202781677	movie	1		244	42.0	2.5	/experiments/AOT/AOT_stimuli/rescaled_final/0674_fw.mp4	0.0	226.3011510372162	2.500216007232666
44	205.50745511054993	pulse	1	t		42.0	2.5	/experiments/AOT/AOT_stimuli/rescaled_final/0674_fw.mp4	0.0	227.08467411994934	
44	207.1059091091156	pulse	1	t		42.0	2.5	/experiments/AOT/AOT_stimuli/rescaled_final/0674_fw.mp4	0.0	228.68312811851501	
44	207.22414803504944	fix_post	2		12	42.0	2.5	/experiments/AOT/AOT_stimuli/rescaled_final/0674_fw.mp4	0.0	228.80136704444885	0.0998239517211914
45	207.32397198677063	fix_pre	0		120	43.0	2.5	/experiments/AOT/AOT_stimuli/rescaled_final/0120_fw.mp4	0.0	228.90119099617004	1.0001270771026611
45	208.3240990638733	movie	1		245	43.0	2.5	/experiments/AOT/AOT_stimuli/rescaled_final/0120_fw.mp4	0.0	229.9013180732727	2.499569892883301
45	208.70665407180786	pulse	1	t		43.0	2.5	/experiments/AOT/AOT_stimuli/rescaled_final/0120_fw.mp4	0.0	230.28387308120728	
45	210.3069670200348	pulse	1	t		43.0	2.5	/experiments/AOT/AOT_stimuli/rescaled_final/0120_fw.mp4	0.0	231.8841860294342	
45	210.8236689567566	fix_post	2		12	43.0	2.5	/experiments/AOT/AOT_stimuli/rescaled_final/0120_fw.mp4	0.0	232.400887966156	0.10037708282470703
46	210.9240460395813	fix_pre	0		119	44.0	2.5	/experiments/AOT/AOT_stimuli/rescaled_final/0338_fw.mp4	0.0	232.5012650489807	0.9918229579925537
46	211.90731501579285	pulse	0	t		44.0	2.5	/experiments/AOT/AOT_stimuli/rescaled_final/0338_fw.mp4	0.0	233.48453402519226	
46	211.91586899757385	movie	1		245	44.0	2.5	/experiments/AOT/AOT_stimuli/rescaled_final/0338_fw.mp4	0.0	233.49308800697327	2.508148193359375
46	213.5069501399994	pulse	1	t		44.0	2.5	/experiments/AOT/AOT_stimuli/rescaled_final/0338_fw.mp4	0.0	235.0841691493988	
46	214.42401719093323	fix_post	2		12	44.0	2.5	/experiments/AOT/AOT_stimuli/rescaled_final/0338_fw.mp4	0.0	236.00123620033264	0.09992194175720215
47	214.52393913269043	fix_pre	0		120	45.0	2.5	/experiments/AOT/AOT_stimuli/rescaled_final/0668_rv.mp4	0.0	236.10115814208984	1.0000109672546387
47	215.10736918449402	pulse	0	t		45.0	2.5	/experiments/AOT/AOT_stimuli/rescaled_final/0668_rv.mp4	0.0	236.68458819389343	
47	215.52395009994507	movie	1		243	45.0	2.5	/experiments/AOT/AOT_stimuli/rescaled_final/0668_rv.mp4	0.0	237.10116910934448	2.499523878097534
47	216.70740413665771	pulse	1	t		45.0	2.5	/experiments/AOT/AOT_stimuli/rescaled_final/0668_rv.mp4	0.0	238.28462314605713	
47	218.0234739780426	fix_post	2		12	45.0	2.5	/experiments/AOT/AOT_stimuli/rescaled_final/0668_rv.mp4	0.0	239.60069298744202	0.1004941463470459
48	218.12396812438965	fix_pre	0		120	46.0	2.5	/experiments/AOT/AOT_stimuli/rescaled_final/0521_fw.mp4	0.0	239.70118713378906	0.9998798370361328
48	218.30735898017883	pulse	0	t		46.0	2.5	/experiments/AOT/AOT_stimuli/rescaled_final/0521_fw.mp4	0.0	239.88457798957825	
48	219.12384796142578	movie	1		246	46.0	2.5	/experiments/AOT/AOT_stimuli/rescaled_final/0521_fw.mp4	0.0	240.7010669708252	2.499514102935791
48	219.90725898742676	pulse	1	t		46.0	2.5	/experiments/AOT/AOT_stimuli/rescaled_final/0521_fw.mp4	0.0	241.48447799682617	
48	221.50582098960876	pulse	1	t		46.0	2.5	/experiments/AOT/AOT_stimuli/rescaled_final/0521_fw.mp4	0.0	243.08303999900818	
48	221.62336206436157	fix_post	2		12	46.0	2.5	/experiments/AOT/AOT_stimuli/rescaled_final/0521_fw.mp4	0.0	243.200581073761	0.10048508644104004
49	221.7238471508026	fix_pre	0		120	47.0	2.5	/experiments/AOT/AOT_stimuli/rescaled_final/0673_rv.mp4	0.0	243.30106616020203	0.9999418258666992
49	222.7237889766693	movie	1		246	47.0	2.5	/experiments/AOT/AOT_stimuli/rescaled_final/0673_rv.mp4	0.0	244.30100798606873	2.500020980834961
49	223.10691905021667	pulse	1	t		47.0	2.5	/experiments/AOT/AOT_stimuli/rescaled_final/0673_rv.mp4	0.0	244.6841380596161	
49	224.7072560787201	pulse	1	t		47.0	2.5	/experiments/AOT/AOT_stimuli/rescaled_final/0673_rv.mp4	0.0	246.2844750881195	
49	225.22380995750427	fix_post	2		12	47.0	2.5	/experiments/AOT/AOT_stimuli/rescaled_final/0673_rv.mp4	0.0	246.8010289669037	0.09999322891235352
50	225.32380318641663	fix_pre	0		119	48.0	2.5	/experiments/AOT/AOT_stimuli/rescaled_final/0843_fw.mp4	0.0	246.90102219581604	0.9916648864746094
50	226.30728006362915	pulse	0	t		48.0	2.5	/experiments/AOT/AOT_stimuli/rescaled_final/0843_fw.mp4	0.0	247.88449907302856	
50	226.31546807289124	movie	1		248	48.0	2.5	/experiments/AOT/AOT_stimuli/rescaled_final/0843_fw.mp4	0.0	247.89268708229065	2.5083301067352295
50	227.9071340560913	pulse	1	t		48.0	2.5	/experiments/AOT/AOT_stimuli/rescaled_final/0843_fw.mp4	0.0	249.48435306549072	
50	228.82379817962646	fix_post	2		12	48.0	2.5	/experiments/AOT/AOT_stimuli/rescaled_final/0843_fw.mp4	0.0	250.40101718902588	0.10002279281616211
51	228.92382097244263	fix_pre	0		120	49.0	2.5	blank	1.0	250.50103998184204	0.9999921321868896
51	229.50846004486084	pulse	0	t		49.0	2.5	blank	1.0	251.08567905426025	
51	229.92381310462952	movie	1		300	49.0	2.5	blank	1.0	251.50103211402893	2.4996650218963623
51	231.10731410980225	pulse	1	t		49.0	2.5	blank	1.0	252.68453311920166	
51	232.42347812652588	fix_post	2		12	49.0	2.5	blank	1.0	254.0006971359253	0.10023784637451172
52	232.5237159729004	fix_pre	0		120	50.0	2.5	/experiments/AOT/AOT_stimuli/rescaled_final/1116_fw.mp4	0.0	254.1009349822998	0.9996461868286133
52	232.70728397369385	pulse	0	t		50.0	2.5	/experiments/AOT/AOT_stimuli/rescaled_final/1116_fw.mp4	0.0	254.28450298309326	
52	233.523362159729	movie	1		242	50.0	2.5	/experiments/AOT/AOT_stimuli/rescaled_final/1116_fw.mp4	0.0	255.10058116912842	2.500330924987793
52	234.30734515190125	pulse	1	t		50.0	2.5	/experiments/AOT/AOT_stimuli/rescaled_final/1116_fw.mp4	0.0	255.88456416130066	
52	235.90567111968994	pulse	1	t		50.0	2.5	/experiments/AOT/AOT_stimuli/rescaled_final/1116_fw.mp4	0.0	257.48289012908936	
52	236.0236930847168	fix_post	2		12	50.0	2.5	/experiments/AOT/AOT_stimuli/rescaled_final/1116_fw.mp4	0.0	257.6009120941162	0.1001279354095459
53	236.12382102012634	fix_pre	0		120	51.0	2.5	/experiments/AOT/AOT_stimuli/rescaled_final/0321_fw.mp4	0.0	257.70104002952576	0.9999070167541504
53	237.1237280368805	movie	1		243	51.0	2.5	/experiments/AOT/AOT_stimuli/rescaled_final/0321_fw.mp4	0.0	258.7009470462799	2.5000650882720947
53	237.5082631111145	pulse	1	t		51.0	2.5	/experiments/AOT/AOT_stimuli/rescaled_final/0321_fw.mp4	0.0	259.0854821205139	
53	239.10727310180664	pulse	1	t		51.0	2.5	/experiments/AOT/AOT_stimuli/rescaled_final/0321_fw.mp4	0.0	260.68449211120605	
53	239.6237931251526	fix_post	2		12	51.0	2.5	/experiments/AOT/AOT_stimuli/rescaled_final/0321_fw.mp4	0.0	261.201012134552	0.0998849868774414
54	239.72367811203003	fix_pre	0		119	52.0	2.5	/experiments/AOT/AOT_stimuli/rescaled_final/1164_rv.mp4	0.0	261.30089712142944	0.9917449951171875
54	240.7072720527649	pulse	0	t		52.0	2.5	/experiments/AOT/AOT_stimuli/rescaled_final/1164_rv.mp4	0.0	262.2844910621643	
54	240.71542310714722	movie	1		246	52.0	2.5	/experiments/AOT/AOT_stimuli/rescaled_final/1164_rv.mp4	0.0	262.29264211654663	2.507906913757324
54	242.30681204795837	pulse	1	t		52.0	2.5	/experiments/AOT/AOT_stimuli/rescaled_final/1164_rv.mp4	0.0	263.8840310573578	
54	243.22333002090454	fix_post	2		12	52.0	2.5	/experiments/AOT/AOT_stimuli/rescaled_final/1164_rv.mp4	0.0	264.80054903030396	0.10041594505310059
55	243.32374596595764	fix_pre	0		120	53.0	2.5	/experiments/AOT/AOT_stimuli/rescaled_final/1142_fw.mp4	0.0	264.90096497535706	0.9999790191650391
55	243.90721106529236	pulse	0	t		53.0	2.5	/experiments/AOT/AOT_stimuli/rescaled_final/1142_fw.mp4	0.0	265.4844300746918	
55	244.32372498512268	movie	1		244	53.0	2.5	/experiments/AOT/AOT_stimuli/rescaled_final/1142_fw.mp4	0.0	265.9009439945221	2.500005006790161
55	245.50726413726807	pulse	1	t		53.0	2.5	/experiments/AOT/AOT_stimuli/rescaled_final/1142_fw.mp4	0.0	267.0844831466675	
55	246.82372999191284	fix_post	2		12	53.0	2.5	/experiments/AOT/AOT_stimuli/rescaled_final/1142_fw.mp4	0.0	268.40094900131226	0.09995818138122559
56	246.92368817329407	fix_pre	0		120	54.0	2.5	/experiments/AOT/AOT_stimuli/rescaled_final/2012_fw.mp4	0.0	268.5009071826935	1.000013828277588
56	247.10730409622192	pulse	0	t		54.0	2.5	/experiments/AOT/AOT_stimuli/rescaled_final/2012_fw.mp4	0.0	268.68452310562134	
56	247.92370200157166	movie	1		244	54.0	2.5	/experiments/AOT/AOT_stimuli/rescaled_final/2012_fw.mp4	0.0	269.50092101097107	2.500059127807617
56	248.7072069644928	pulse	1	t		54.0	2.5	/experiments/AOT/AOT_stimuli/rescaled_final/2012_fw.mp4	0.0	270.2844259738922	
56	250.305899143219	pulse	1	t		54.0	2.5	/experiments/AOT/AOT_stimuli/rescaled_final/2012_fw.mp4	0.0	271.8831181526184	
56	250.42376112937927	fix_post	2		12	54.0	2.5	/experiments/AOT/AOT_stimuli/rescaled_final/2012_fw.mp4	0.0	272.0009801387787	0.0998539924621582
57	250.52361512184143	fix_pre	0		120	55.0	2.5	blank	1.0	272.10083413124084	1.0001399517059326
57	251.52375507354736	movie	1		300	55.0	2.5	blank	1.0	273.1009740829468	2.4999680519104004
57	251.90725898742676	pulse	1	t		55.0	2.5	blank	1.0	273.4844779968262	
57	253.50719904899597	pulse	1	t		55.0	2.5	blank	1.0	275.0844180583954	
57	254.02372312545776	fix_post	2		12	55.0	2.5	blank	1.0	275.6009421348572	0.10002303123474121
58	254.1237461566925	fix_pre	0		119	56.0	2.5	/experiments/AOT/AOT_stimuli/rescaled_final/1339_rv.mp4	0.0	275.7009651660919	0.9916079044342041
58	255.10713911056519	pulse	0	t		56.0	2.5	/experiments/AOT/AOT_stimuli/rescaled_final/1339_rv.mp4	0.0	276.6843581199646	
58	255.1153540611267	movie	1		245	56.0	2.5	/experiments/AOT/AOT_stimuli/rescaled_final/1339_rv.mp4	0.0	276.6925730705261	2.508430004119873
58	256.7066421508789	pulse	1	t		56.0	2.5	/experiments/AOT/AOT_stimuli/rescaled_final/1339_rv.mp4	0.0	278.2838611602783	
58	257.6237840652466	fix_post	2		12	56.0	2.5	/experiments/AOT/AOT_stimuli/rescaled_final/1339_rv.mp4	0.0	279.201003074646	0.09993100166320801
59	257.7237150669098	fix_pre	0		120	57.0	2.5	/experiments/AOT/AOT_stimuli/rescaled_final/0737_rv.mp4	0.0	279.3009340763092	1.000011920928955
59	258.3072099685669	pulse	0	t		57.0	2.5	/experiments/AOT/AOT_stimuli/rescaled_final/0737_rv.mp4	0.0	279.8844289779663	
59	258.72372698783875	movie	1		244	57.0	2.5	/experiments/AOT/AOT_stimuli/rescaled_final/0737_rv.mp4	0.0	280.30094599723816	2.499958038330078
59	259.907231092453	pulse	1	t		57.0	2.5	/experiments/AOT/AOT_stimuli/rescaled_final/0737_rv.mp4	0.0	281.4844501018524	
59	261.2236850261688	fix_post	2		12	57.0	2.5	/experiments/AOT/AOT_stimuli/rescaled_final/0737_rv.mp4	0.0	282.80090403556824	0.09992194175720215
60	261.323606967926	fix_pre	0		120	58.0	2.5	/experiments/AOT/AOT_stimuli/rescaled_final/0803_fw.mp4	0.0	282.90082597732544	0.9996700286865234
60	261.50710701942444	pulse	0	t		58.0	2.5	/experiments/AOT/AOT_stimuli/rescaled_final/0803_fw.mp4	0.0	283.08432602882385	
60	262.32327699661255	movie	1		245	58.0	2.5	/experiments/AOT/AOT_stimuli/rescaled_final/0803_fw.mp4	0.0	283.90049600601196	2.5004889965057373
60	263.1072039604187	pulse	1	t		58.0	2.5	/experiments/AOT/AOT_stimuli/rescaled_final/0803_fw.mp4	0.0	284.6844229698181	
60	264.70479702949524	pulse	1	t		58.0	2.5	/experiments/AOT/AOT_stimuli/rescaled_final/0803_fw.mp4	0.0	286.28201603889465	
60	264.8237659931183	fix_post	2		12	58.0	2.5	/experiments/AOT/AOT_stimuli/rescaled_final/0803_fw.mp4	0.0	286.4009850025177	0.09942317008972168
61	264.923189163208	fix_pre	0		120	59.0	2.5	/experiments/AOT/AOT_stimuli/rescaled_final/0224_fw.mp4	0.0	286.5004081726074	1.0000460147857666
61	265.9232351779938	movie	1		245	59.0	2.5	/experiments/AOT/AOT_stimuli/rescaled_final/0224_fw.mp4	0.0	287.5004541873932	2.500412940979004
61	266.3079090118408	pulse	1	t		59.0	2.5	/experiments/AOT/AOT_stimuli/rescaled_final/0224_fw.mp4	0.0	287.88512802124023	
61	267.9070830345154	pulse	1	t		59.0	2.5	/experiments/AOT/AOT_stimuli/rescaled_final/0224_fw.mp4	0.0	289.4843020439148	
61	268.4236481189728	fix_post	2		12	59.0	2.5	/experiments/AOT/AOT_stimuli/rescaled_final/0224_fw.mp4	0.0	290.0008671283722	0.10000491142272949
62	268.5236530303955	fix_pre	0		119	60.0	2.5	/experiments/AOT/AOT_stimuli/rescaled_final/0435_rv.mp4	0.0	290.1008720397949	0.9916989803314209
62	269.50703716278076	pulse	0	t		60.0	2.5	/experiments/AOT/AOT_stimuli/rescaled_final/0435_rv.mp4	0.0	291.0842561721802	
62	269.51535201072693	movie	1		248	60.0	2.5	/experiments/AOT/AOT_stimuli/rescaled_final/0435_rv.mp4	0.0	291.09257102012634	2.5082480907440186
62	271.10636711120605	pulse	1	t		60.0	2.5	/experiments/AOT/AOT_stimuli/rescaled_final/0435_rv.mp4	0.0	292.68358612060547	
62	272.02360010147095	fix_post	2		12	60.0	2.5	/experiments/AOT/AOT_stimuli/rescaled_final/0435_rv.mp4	0.0	293.60081911087036	0.09996294975280762
63	272.12356305122375	fix_pre	0		120	61.0	2.5	blank	1.0	293.70078206062317	1.0001559257507324
63	272.70716309547424	pulse	0	t		61.0	2.5	blank	1.0	294.28438210487366	
63	273.1237189769745	movie	1		300	61.0	2.5	blank	1.0	294.7009379863739	2.4998960494995117
63	274.3070170879364	pulse	1	t		61.0	2.5	blank	1.0	295.8842360973358	
63	275.623615026474	fix_post	2		12	61.0	2.5	blank	1.0	297.2008340358734	0.0999000072479248
64	275.7235150337219	fix_pre	0		120	62.0	2.5	/experiments/AOT/AOT_stimuli/rescaled_final/1281_fw.mp4	0.0	297.30073404312134	1.0000240802764893
64	275.9070851802826	pulse	0	t		62.0	2.5	/experiments/AOT/AOT_stimuli/rescaled_final/1281_fw.mp4	0.0	297.484304189682	
64	276.7235391139984	movie	1		244	62.0	2.5	/experiments/AOT/AOT_stimuli/rescaled_final/1281_fw.mp4	0.0	298.3007581233978	2.5000720024108887
64	277.50702118873596	pulse	1	t		62.0	2.5	/experiments/AOT/AOT_stimuli/rescaled_final/1281_fw.mp4	0.0	299.0842401981354	
64	279.10307216644287	pulse	1	t		62.0	2.5	/experiments/AOT/AOT_stimuli/rescaled_final/1281_fw.mp4	0.0	300.6802911758423	
64	279.2236111164093	fix_post	2		12	62.0	2.5	/experiments/AOT/AOT_stimuli/rescaled_final/1281_fw.mp4	0.0	300.8008301258087	0.09994697570800781
65	279.3235580921173	fix_pre	0		120	63.0	2.5	/experiments/AOT/AOT_stimuli/rescaled_final/0832_rv.mp4	0.0	300.9007771015167	0.9999558925628662
65	280.3235139846802	movie	1		244	63.0	2.5	/experiments/AOT/AOT_stimuli/rescaled_final/0832_rv.mp4	0.0	301.9007329940796	2.500054121017456
65	280.7068531513214	pulse	1	t		63.0	2.5	/experiments/AOT/AOT_stimuli/rescaled_final/0832_rv.mp4	0.0	302.2840721607208	
65	282.3069760799408	pulse	1	t		63.0	2.5	/experiments/AOT/AOT_stimuli/rescaled_final/0832_rv.mp4	0.0	303.8841950893402	
65	282.82356810569763	fix_post	2		12	63.0	2.5	/experiments/AOT/AOT_stimuli/rescaled_final/0832_rv.mp4	0.0	304.40078711509705	0.09992194175720215
66	282.92349004745483	fix_pre	0		119	64.0	2.5	/experiments/AOT/AOT_stimuli/rescaled_final/0013_rv.mp4	0.0	304.50070905685425	0.9916949272155762
66	283.9070119857788	pulse	0	t		64.0	2.5	/experiments/AOT/AOT_stimuli/rescaled_final/0013_rv.mp4	0.0	305.4842309951782	
66	283.9151849746704	movie	1		248	64.0	2.5	/experiments/AOT/AOT_stimuli/rescaled_final/0013_rv.mp4	0.0	305.4924039840698	2.508258104324341
66	285.50659704208374	pulse	1	t		64.0	2.5	/experiments/AOT/AOT_stimuli/rescaled_final/0013_rv.mp4	0.0	307.08381605148315	
66	286.42344307899475	fix_post	2		12	64.0	2.5	/experiments/AOT/AOT_stimuli/rescaled_final/0013_rv.mp4	0.0	308.00066208839417	0.10001993179321289
67	286.52346301078796	fix_pre	0		120	65.0	2.5	/experiments/AOT/AOT_stimuli/rescaled_final/1035_rv.mp4	0.0	308.1006820201874	1.0
67	287.1070439815521	pulse	0	t		65.0	2.5	/experiments/AOT/AOT_stimuli/rescaled_final/1035_rv.mp4	0.0	308.68426299095154	
67	287.52346301078796	movie	1		247	65.0	2.5	/experiments/AOT/AOT_stimuli/rescaled_final/1035_rv.mp4	0.0	309.1006820201874	2.500054121017456
67	288.70709013938904	pulse	1	t		65.0	2.5	/experiments/AOT/AOT_stimuli/rescaled_final/1035_rv.mp4	0.0	310.28430914878845	
67	290.0235171318054	fix_post	2		12	65.0	2.5	/experiments/AOT/AOT_stimuli/rescaled_final/1035_rv.mp4	0.0	311.60073614120483	0.10004305839538574
68	290.1235601902008	fix_pre	0		120	66.0	2.5	/experiments/AOT/AOT_stimuli/rescaled_final/1819_fw.mp4	0.0	311.7007791996002	1.0000407695770264
68	290.3070809841156	pulse	0	t		66.0	2.5	/experiments/AOT/AOT_stimuli/rescaled_final/1819_fw.mp4	0.0	311.884299993515	
68	291.12360095977783	movie	1		244	66.0	2.5	/experiments/AOT/AOT_stimuli/rescaled_final/1819_fw.mp4	0.0	312.70081996917725	2.4998202323913574
68	291.9069790840149	pulse	1	t		66.0	2.5	/experiments/AOT/AOT_stimuli/rescaled_final/1819_fw.mp4	0.0	313.4841980934143	
68	293.5055410861969	pulse	1	t		66.0	2.5	/experiments/AOT/AOT_stimuli/rescaled_final/1819_fw.mp4	0.0	315.0827600955963	
68	293.6234211921692	fix_post	2		12	66.0	2.5	/experiments/AOT/AOT_stimuli/rescaled_final/1819_fw.mp4	0.0	315.2006402015686	0.09961080551147461
69	293.72303199768066	fix_pre	0		120	67.0	2.5	/experiments/AOT/AOT_stimuli/rescaled_final/1221_rv.mp4	0.0	315.3002510070801	1.0004501342773438
69	294.723482131958	movie	1		244	67.0	2.5	/experiments/AOT/AOT_stimuli/rescaled_final/1221_rv.mp4	0.0	316.3007011413574	2.4999258518218994
69	295.1062650680542	pulse	1	t		67.0	2.5	/experiments/AOT/AOT_stimuli/rescaled_final/1221_rv.mp4	0.0	316.6834840774536	
69	296.7071280479431	pulse	1	t		67.0	2.5	/experiments/AOT/AOT_stimuli/rescaled_final/1221_rv.mp4	0.0	318.28434705734253	
69	297.2234079837799	fix_post	2		12	67.0	2.5	/experiments/AOT/AOT_stimuli/rescaled_final/1221_rv.mp4	0.0	318.8006269931793	0.1000070571899414
70	297.32341504096985	fix_pre	0		119	68.0	2.5	blank	1.0	318.90063405036926	0.991724967956543
70	298.3070020675659	pulse	0	t		68.0	2.5	blank	1.0	319.88422107696533	
70	298.3151400089264	movie	1		301	68.0	2.5	blank	1.0	319.8923590183258	2.5082600116729736
70	299.9069809913635	pulse	1	t		68.0	2.5	blank	1.0	321.48420000076294	
70	300.82340002059937	fix_post	2		12	68.0	2.5	blank	1.0	322.4006190299988	0.10005617141723633
71	300.9234561920166	fix_pre	0		120	69.0	2.5	/experiments/AOT/AOT_stimuli/rescaled_final/1737_rv.mp4	0.0	322.500675201416	1.000013828277588
71	301.50699400901794	pulse	0	t		69.0	2.5	/experiments/AOT/AOT_stimuli/rescaled_final/1737_rv.mp4	0.0	323.08421301841736	
71	301.9234700202942	movie	1		243	69.0	2.5	/experiments/AOT/AOT_stimuli/rescaled_final/1737_rv.mp4	0.0	323.5006890296936	2.499936103820801
71	303.1070101261139	pulse	1	t		69.0	2.5	/experiments/AOT/AOT_stimuli/rescaled_final/1737_rv.mp4	0.0	324.6842291355133	
71	304.423406124115	fix_post	2		12	69.0	2.5	/experiments/AOT/AOT_stimuli/rescaled_final/1737_rv.mp4	0.0	326.0006251335144	0.10004401206970215
72	304.5234501361847	fix_pre	0		120	70.0	2.5	/experiments/AOT/AOT_stimuli/rescaled_final/1574_rv.mp4	0.0	326.1006691455841	0.9999709129333496
72	304.70692205429077	pulse	0	t		70.0	2.5	/experiments/AOT/AOT_stimuli/rescaled_final/1574_rv.mp4	0.0	326.2841410636902	
72	305.52342104911804	movie	1		246	70.0	2.5	/experiments/AOT/AOT_stimuli/rescaled_final/1574_rv.mp4	0.0	327.10064005851746	2.5000319480895996
72	306.306921005249	pulse	1	t		70.0	2.5	/experiments/AOT/AOT_stimuli/rescaled_final/1574_rv.mp4	0.0	327.88414001464844	
72	307.9054729938507	pulse	1	t		70.0	2.5	/experiments/AOT/AOT_stimuli/rescaled_final/1574_rv.mp4	0.0	329.4826920032501	
72	308.02345299720764	fix_post	2		12	70.0	2.5	/experiments/AOT/AOT_stimuli/rescaled_final/1574_rv.mp4	0.0	329.60067200660706	0.10006904602050781
73	308.12352204322815	fix_pre	0		120	71.0	2.5	/experiments/AOT/AOT_stimuli/rescaled_final/0311_fw.mp4	0.0	329.70074105262756	0.9998171329498291
73	309.123339176178	movie	1		243	71.0	2.5	/experiments/AOT/AOT_stimuli/rescaled_final/0311_fw.mp4	0.0	330.7005581855774	2.500051975250244
73	309.5073630809784	pulse	1	t		71.0	2.5	/experiments/AOT/AOT_stimuli/rescaled_final/0311_fw.mp4	0.0	331.0845820903778	
73	311.10697317123413	pulse	1	t		71.0	2.5	/experiments/AOT/AOT_stimuli/rescaled_final/0311_fw.mp4	0.0	332.68419218063354	
73	311.6233911514282	fix_post	2		12	71.0	2.5	/experiments/AOT/AOT_stimuli/rescaled_final/0311_fw.mp4	0.0	333.20061016082764	0.09995293617248535
74	311.7233440876007	fix_pre	0		119	72.0	2.5	/experiments/AOT/AOT_stimuli/rescaled_final/0814_rv.mp4	0.0	333.3005630970001	0.991657018661499
74	312.70687103271484	pulse	0	t		72.0	2.5	/experiments/AOT/AOT_stimuli/rescaled_final/0814_rv.mp4	0.0	334.28409004211426	
74	312.7150011062622	movie	1		246	72.0	2.5	/experiments/AOT/AOT_stimuli/rescaled_final/0814_rv.mp4	0.0	334.2922201156616	2.508362054824829
74	314.30642914772034	pulse	1	t		72.0	2.5	/experiments/AOT/AOT_stimuli/rescaled_final/0814_rv.mp4	0.0	335.88364815711975	
74	315.22336316108704	fix_post	2		12	72.0	2.5	/experiments/AOT/AOT_stimuli/rescaled_final/0814_rv.mp4	0.0	336.80058217048645	0.10008001327514648
75	315.3234431743622	fix_pre	0		120	73.0	2.5	/experiments/AOT/AOT_stimuli/rescaled_final/1843_rv.mp4	0.0	336.9006621837616	0.9998660087585449
75	315.90691900253296	pulse	0	t		73.0	2.5	/experiments/AOT/AOT_stimuli/rescaled_final/1843_rv.mp4	0.0	337.4841380119324	
75	316.3233091831207	movie	1		244	73.0	2.5	/experiments/AOT/AOT_stimuli/rescaled_final/1843_rv.mp4	0.0	337.90052819252014	2.500149965286255
75	317.5068690776825	pulse	1	t		73.0	2.5	/experiments/AOT/AOT_stimuli/rescaled_final/1843_rv.mp4	0.0	339.0840880870819	
75	318.823459148407	fix_post	2		12	73.0	2.5	/experiments/AOT/AOT_stimuli/rescaled_final/1843_rv.mp4	0.0	340.4006781578064	0.10007596015930176
76	318.9235351085663	fix_pre	0		120	74.0	2.5	/experiments/AOT/AOT_stimuli/rescaled_final/0190_fw.mp4	0.0	340.5007541179657	0.9998478889465332
76	319.106831073761	pulse	0	t		74.0	2.5	/experiments/AOT/AOT_stimuli/rescaled_final/0190_fw.mp4	0.0	340.6840500831604	
76	319.9233829975128	movie	1		245	74.0	2.5	/experiments/AOT/AOT_stimuli/rescaled_final/0190_fw.mp4	0.0	341.50060200691223	2.499675989151001
76	320.7063629627228	pulse	1	t		74.0	2.5	/experiments/AOT/AOT_stimuli/rescaled_final/0190_fw.mp4	0.0	342.2835819721222	
76	322.30541801452637	pulse	1	t		74.0	2.5	/experiments/AOT/AOT_stimuli/rescaled_final/0190_fw.mp4	0.0	343.8826370239258	
76	322.4230589866638	fix_post	2		12	74.0	2.5	/experiments/AOT/AOT_stimuli/rescaled_final/0190_fw.mp4	0.0	344.00027799606323	0.1004641056060791
77	322.5235230922699	fix_pre	0		120	75.0	2.5	/experiments/AOT/AOT_stimuli/rescaled_final/2162_rv.mp4	0.0	344.1007421016693	1.0001559257507324
77	323.52367901802063	movie	1		242	75.0	2.5	/experiments/AOT/AOT_stimuli/rescaled_final/2162_rv.mp4	0.0	345.10089802742004	2.4997410774230957
77	323.9064359664917	pulse	1	t		75.0	2.5	/experiments/AOT/AOT_stimuli/rescaled_final/2162_rv.mp4	0.0	345.4836549758911	
77	325.50676107406616	pulse	1	t		75.0	2.5	/experiments/AOT/AOT_stimuli/rescaled_final/2162_rv.mp4	0.0	347.0839800834656	
77	326.0234200954437	fix_post	2		12	75.0	2.5	/experiments/AOT/AOT_stimuli/rescaled_final/2162_rv.mp4	0.0	347.60063910484314	0.099822998046875
78	326.1232430934906	fix_pre	0		119	76.0	2.5	/experiments/AOT/AOT_stimuli/rescaled_final/1303_fw.mp4	0.0	347.70046210289	0.9917480945587158
78	327.1068739891052	pulse	0	t		76.0	2.5	/experiments/AOT/AOT_stimuli/rescaled_final/1303_fw.mp4	0.0	348.68409299850464	
78	327.1149911880493	movie	1		244	76.0	2.5	/experiments/AOT/AOT_stimuli/rescaled_final/1303_fw.mp4	0.0	348.69221019744873	2.5078377723693848
78	328.70632314682007	pulse	1	t		76.0	2.5	/experiments/AOT/AOT_stimuli/rescaled_final/1303_fw.mp4	0.0	350.2835421562195	
78	329.6228289604187	fix_post	2		12	76.0	2.5	/experiments/AOT/AOT_stimuli/rescaled_final/1303_fw.mp4	0.0	351.2000479698181	0.1004340648651123
79	329.7232630252838	fix_pre	0		120	77.0	2.5	blank	1.0	351.3004820346832	1.0000419616699219
79	330.3067810535431	pulse	0	t		77.0	2.5	blank	1.0	351.8840000629425	
79	330.72330498695374	movie	1		300	77.0	2.5	blank	1.0	352.30052399635315	2.4999961853027344
79	331.90684819221497	pulse	1	t		77.0	2.5	blank	1.0	353.4840672016144	
79	333.22330117225647	fix_post	2		12	77.0	2.5	blank	1.0	354.8005201816559	0.09999895095825195
80	333.3233001232147	fix_pre	0		120	78.0	2.5	/experiments/AOT/AOT_stimuli/rescaled_final/0997_rv.mp4	0.0	354.90051913261414	0.9999549388885498
80	333.50680208206177	pulse	0	t		78.0	2.5	/experiments/AOT/AOT_stimuli/rescaled_final/0997_rv.mp4	0.0	355.0840210914612	
80	334.32325506210327	movie	1		246	78.0	2.5	/experiments/AOT/AOT_stimuli/rescaled_final/0997_rv.mp4	0.0	355.9004740715027	2.49957013130188
80	335.10684299468994	pulse	1	t		78.0	2.5	/experiments/AOT/AOT_stimuli/rescaled_final/0997_rv.mp4	0.0	356.68406200408936	
80	336.7053141593933	pulse	1	t		78.0	2.5	/experiments/AOT/AOT_stimuli/rescaled_final/0997_rv.mp4	0.0	358.2825331687927	
80	336.82282519340515	fix_post	2		12	78.0	2.5	/experiments/AOT/AOT_stimuli/rescaled_final/0997_rv.mp4	0.0	358.40004420280457	0.10039782524108887
81	336.92322301864624	fix_pre	0		120	79.0	2.5	/experiments/AOT/AOT_stimuli/rescaled_final/0338_rv.mp4	0.0	358.50044202804565	0.9999909400939941
81	337.92321395874023	movie	1		245	79.0	2.5	/experiments/AOT/AOT_stimuli/rescaled_final/0338_rv.mp4	0.0	359.50043296813965	2.5000360012054443
81	338.30673003196716	pulse	1	t		79.0	2.5	/experiments/AOT/AOT_stimuli/rescaled_final/0338_rv.mp4	0.0	359.8839490413666	
81	339.90673208236694	pulse	1	t		79.0	2.5	/experiments/AOT/AOT_stimuli/rescaled_final/0338_rv.mp4	0.0	361.48395109176636	
81	340.4232499599457	fix_post	2		12	79.0	2.5	/experiments/AOT/AOT_stimuli/rescaled_final/0338_rv.mp4	0.0	362.0004689693451	0.09995222091674805
82	340.5232021808624	fix_pre	0		119	80.0	2.5	/experiments/AOT/AOT_stimuli/rescaled_final/1027_rv.mp4	0.0	362.10042119026184	0.9916799068450928
82	341.5067081451416	pulse	0	t		80.0	2.5	/experiments/AOT/AOT_stimuli/rescaled_final/1027_rv.mp4	0.0	363.083927154541	
82	341.5148820877075	movie	1		246	80.0	2.5	/experiments/AOT/AOT_stimuli/rescaled_final/1027_rv.mp4	0.0	363.09210109710693	2.508347988128662
82	343.1063289642334	pulse	1	t		80.0	2.5	/experiments/AOT/AOT_stimuli/rescaled_final/1027_rv.mp4	0.0	364.6835479736328	
82	344.0232300758362	fix_post	2		12	80.0	2.5	/experiments/AOT/AOT_stimuli/rescaled_final/1027_rv.mp4	0.0	365.6004490852356	0.0999898910522461
83	344.1232199668884	fix_pre	0		120	81.0	2.5	/experiments/AOT/AOT_stimuli/rescaled_final/2051_rv.mp4	0.0	365.70043897628784	1.0000810623168945
83	344.7067530155182	pulse	0	t		81.0	2.5	/experiments/AOT/AOT_stimuli/rescaled_final/2051_rv.mp4	0.0	366.2839720249176	
83	345.1233010292053	movie	1		244	81.0	2.5	/experiments/AOT/AOT_stimuli/rescaled_final/2051_rv.mp4	0.0	366.70052003860474	2.4999101161956787
83	346.3068001270294	pulse	1	t		81.0	2.5	/experiments/AOT/AOT_stimuli/rescaled_final/2051_rv.mp4	0.0	367.88401913642883	
83	347.623211145401	fix_post	2		12	81.0	2.5	/experiments/AOT/AOT_stimuli/rescaled_final/2051_rv.mp4	0.0	369.2004301548004	0.10001301765441895
84	347.7232241630554	fix_pre	0		120	82.0	2.5	blank	1.0	369.30044317245483	1.000006914138794
84	347.9067430496216	pulse	0	t		82.0	2.5	blank	1.0	369.483962059021	
84	348.7232310771942	movie	1		300	82.0	2.5	blank	1.0	370.3004500865936	2.4999680519104004
84	349.50659108161926	pulse	1	t		82.0	2.5	blank	1.0	371.0838100910187	
84	351.1066241264343	pulse	1	t		82.0	2.5	blank	1.0	372.68384313583374	
84	351.2231991291046	fix_post	2		12	82.0	2.5	blank	1.0	372.800418138504	0.09958600997924805
85	351.32278513908386	fix_pre	0		120	83.0	2.5	/experiments/AOT/AOT_stimuli/rescaled_final/1550_rv.mp4	0.0	372.9000041484833	1.0004370212554932
85	352.32322216033936	movie	1		247	83.0	2.5	/experiments/AOT/AOT_stimuli/rescaled_final/1550_rv.mp4	0.0	373.90044116973877	2.4999430179595947
85	352.7063829898834	pulse	1	t		83.0	2.5	/experiments/AOT/AOT_stimuli/rescaled_final/1550_rv.mp4	0.0	374.28360199928284	
85	354.3066551685333	pulse	1	t		83.0	2.5	/experiments/AOT/AOT_stimuli/rescaled_final/1550_rv.mp4	0.0	375.88387417793274	
85	354.82316517829895	fix_post	2		12	83.0	2.5	/experiments/AOT/AOT_stimuli/rescaled_final/1550_rv.mp4	0.0	376.40038418769836	0.09998798370361328
87	354.92315316200256	stim	0		1716					376.500372171402	14.299938917160034
87	355.90664196014404	pulse	0	t						377.48386096954346	
87	357.5066590309143	pulse	0	t						379.0838780403137	
87	359.10666608810425	pulse	0	t						380.68388509750366	
87	360.7066900730133	pulse	0	t						382.2839090824127	
87	362.30667209625244	pulse	0	t						383.88389110565186	
87	363.9065749645233	pulse	0	t						385.48379397392273	
87	365.5066831111908	pulse	0	t						387.0839021205902	
87	367.1066370010376	pulse	0	t						388.683856010437	
87	368.7066340446472	pulse	0	t						390.28385305404663	
