trial_nr	onset	event_type	phase	response	nr_frames	movie_index	movie_duration	movie_file	blank	onset_abs	duration
0	0.19988703727722168	stim	0		69					26.99660897254944	0.5750091075897217
0	0.7667081356048584	response	0	space						27.563430070877075	
1	0.7748961448669434	stim	0		4798					27.57161808013916	39.99904990196228
1	40.764174938201904	pulse	0	t						67.56089687347412	
1	40.773946046829224	stim	1		1716					67.57066798210144	14.300766944885254
1	42.348915100097656	pulse	1	t						69.14563703536987	
1	43.94904899597168	pulse	1	t						70.7457709312439	
1	45.54920506477356	pulse	1	t						72.34592700004578	
1	47.14884305000305	pulse	1	t						73.94556498527527	
1	48.74887800216675	pulse	1	t						75.54559993743896	
1	50.349071979522705	pulse	1	t						77.14579391479492	
1	51.949419021606445	pulse	1	t						78.74614095687866	
1	53.549561977386475	pulse	1	t						80.34628391265869	
2	55.07471299171448	fix_pre	0		10	0.0	2.5	/experiments/knapen_AOT/AOT_stimuli/rescaled_final/0200_fw.mp4	0.0	81.8714349269867	0.09173107147216797
2	55.15003800392151	pulse	0	t		0.0	2.5	/experiments/knapen_AOT/AOT_stimuli/rescaled_final/0200_fw.mp4	0.0	81.94675993919373	
2	55.166444063186646	movie	1		246	0.0	2.5	/experiments/knapen_AOT/AOT_stimuli/rescaled_final/0200_fw.mp4	0.0	81.96316599845886	2.500282049179077
2	56.754399061203	pulse	1	t		0.0	2.5	/experiments/knapen_AOT/AOT_stimuli/rescaled_final/0200_fw.mp4	0.0	83.55112099647522	
2	57.66672611236572	fix_post	2		12	0.0	2.5	/experiments/knapen_AOT/AOT_stimuli/rescaled_final/0200_fw.mp4	0.0	84.46344804763794	0.10001182556152344
3	57.766737937927246	fix_pre	0		120	1.0	2.5	/experiments/knapen_AOT/AOT_stimuli/rescaled_final/0953_fw.mp4	0.0	84.56345987319946	1.0001862049102783
3	58.350337982177734	pulse	0	t		1.0	2.5	/experiments/knapen_AOT/AOT_stimuli/rescaled_final/0953_fw.mp4	0.0	85.14705991744995	
3	58.766924142837524	movie	1		243	1.0	2.5	/experiments/knapen_AOT/AOT_stimuli/rescaled_final/0953_fw.mp4	0.0	85.56364607810974	2.5003459453582764
3	59.950660943984985	pulse	1	t		1.0	2.5	/experiments/knapen_AOT/AOT_stimuli/rescaled_final/0953_fw.mp4	0.0	86.7473828792572	
3	61.2672700881958	fix_post	2		12	1.0	2.5	/experiments/knapen_AOT/AOT_stimuli/rescaled_final/0953_fw.mp4	0.0	88.06399202346802	0.10009098052978516
4	61.367361068725586	fix_pre	0		120	2.0	2.5	/experiments/knapen_AOT/AOT_stimuli/rescaled_final/0824_rv.mp4	0.0	88.1640830039978	1.0000560283660889
4	61.5509090423584	pulse	0	t		2.0	2.5	/experiments/knapen_AOT/AOT_stimuli/rescaled_final/0824_rv.mp4	0.0	88.34763097763062	
4	62.367417097091675	movie	1		244	2.0	2.5	/experiments/knapen_AOT/AOT_stimuli/rescaled_final/0824_rv.mp4	0.0	89.16413903236389	2.5003838539123535
4	63.15121507644653	pulse	1	t		2.0	2.5	/experiments/knapen_AOT/AOT_stimuli/rescaled_final/0824_rv.mp4	0.0	89.94793701171875	
4	64.75142097473145	pulse	1	t		2.0	2.5	/experiments/knapen_AOT/AOT_stimuli/rescaled_final/0824_rv.mp4	0.0	91.54814291000366	
4	64.86780095100403	fix_post	2		12	2.0	2.5	/experiments/knapen_AOT/AOT_stimuli/rescaled_final/0824_rv.mp4	0.0	91.66452288627625	0.09999704360961914
5	64.96779799461365	fix_pre	0		120	3.0	2.5	/experiments/knapen_AOT/AOT_stimuli/rescaled_final/0033_rv.mp4	0.0	91.76451992988586	1.000154972076416
5	65.96795296669006	movie	1		244	3.0	2.5	/experiments/knapen_AOT/AOT_stimuli/rescaled_final/0033_rv.mp4	0.0	92.76467490196228	2.49206805229187
5	66.35211300849915	pulse	1	t		3.0	2.5	/experiments/knapen_AOT/AOT_stimuli/rescaled_final/0033_rv.mp4	0.0	93.14883494377136	
5	67.95182204246521	pulse	1	t		3.0	2.5	/experiments/knapen_AOT/AOT_stimuli/rescaled_final/0033_rv.mp4	0.0	94.74854397773743	
5	68.46002101898193	fix_post	2		12	3.0	2.5	/experiments/knapen_AOT/AOT_stimuli/rescaled_final/0033_rv.mp4	0.0	95.25674295425415	0.09997797012329102
6	68.55999898910522	fix_pre	0		120	4.0	2.5	/experiments/knapen_AOT/AOT_stimuli/rescaled_final/2172_rv.mp4	0.0	95.35672092437744	1.000162124633789
6	69.55214810371399	pulse	0	t		4.0	2.5	/experiments/knapen_AOT/AOT_stimuli/rescaled_final/2172_rv.mp4	0.0	96.3488700389862	
6	69.56016111373901	movie	1		245	4.0	2.5	/experiments/knapen_AOT/AOT_stimuli/rescaled_final/2172_rv.mp4	0.0	96.35688304901123	2.508732795715332
6	71.15278100967407	pulse	1	t		4.0	2.5	/experiments/knapen_AOT/AOT_stimuli/rescaled_final/2172_rv.mp4	0.0	97.94950294494629	
6	72.06889390945435	fix_post	2		12	4.0	2.5	/experiments/knapen_AOT/AOT_stimuli/rescaled_final/2172_rv.mp4	0.0	98.86561584472656	0.1000370979309082
7	72.16893100738525	fix_pre	0		120	5.0	2.5	/experiments/knapen_AOT/AOT_stimuli/rescaled_final/2076_fw.mp4	0.0	98.96565294265747	1.0001020431518555
7	72.75254702568054	pulse	0	t		5.0	2.5	/experiments/knapen_AOT/AOT_stimuli/rescaled_final/2076_fw.mp4	0.0	99.54926896095276	
7	73.16903305053711	movie	1		245	5.0	2.5	/experiments/knapen_AOT/AOT_stimuli/rescaled_final/2076_fw.mp4	0.0	99.96575498580933	2.500372886657715
7	74.35278391838074	pulse	1	t		5.0	2.5	/experiments/knapen_AOT/AOT_stimuli/rescaled_final/2076_fw.mp4	0.0	101.14950585365295	
7	75.66940593719482	fix_post	2		12	5.0	2.5	/experiments/knapen_AOT/AOT_stimuli/rescaled_final/2076_fw.mp4	0.0	102.46612787246704	0.10002708435058594
8	75.76943302154541	fix_pre	0		120	6.0	2.5	/experiments/knapen_AOT/AOT_stimuli/rescaled_final/0101_rv.mp4	0.0	102.56615495681763	1.0001509189605713
8	75.95312309265137	pulse	0	t		6.0	2.5	/experiments/knapen_AOT/AOT_stimuli/rescaled_final/0101_rv.mp4	0.0	102.74984502792358	
8	76.76958394050598	movie	1		243	6.0	2.5	/experiments/knapen_AOT/AOT_stimuli/rescaled_final/0101_rv.mp4	0.0	103.5663058757782	2.50034499168396
8	77.55330491065979	pulse	1	t		6.0	2.5	/experiments/knapen_AOT/AOT_stimuli/rescaled_final/0101_rv.mp4	0.0	104.350026845932	
8	79.15350294113159	pulse	1	t		6.0	2.5	/experiments/knapen_AOT/AOT_stimuli/rescaled_final/0101_rv.mp4	0.0	105.95022487640381	
8	79.26992893218994	fix_post	2		12	6.0	2.5	/experiments/knapen_AOT/AOT_stimuli/rescaled_final/0101_rv.mp4	0.0	106.06665086746216	0.10005617141723633
9	79.36998510360718	fix_pre	0		120	7.0	2.5	blank	1.0	106.1667070388794	1.0001709461212158
9	80.3701560497284	movie	1		299	7.0	2.5	blank	1.0	107.16687798500061	2.4920520782470703
9	80.75367712974548	pulse	1	t		7.0	2.5	blank	1.0	107.5503990650177	
9	82.35397911071777	pulse	1	t		7.0	2.5	blank	1.0	109.15070104598999	
9	82.86220812797546	fix_post	2		12	7.0	2.5	blank	1.0	109.65893006324768	0.0999457836151123
10	82.96215391159058	fix_pre	0		120	8.0	2.5	/experiments/knapen_AOT/AOT_stimuli/rescaled_final/1223_fw.mp4	0.0	109.7588758468628	1.0001771450042725
10	83.95432901382446	pulse	0	t		8.0	2.5	/experiments/knapen_AOT/AOT_stimuli/rescaled_final/1223_fw.mp4	0.0	110.75105094909668	
10	83.96233105659485	movie	1		245	8.0	2.5	/experiments/knapen_AOT/AOT_stimuli/rescaled_final/1223_fw.mp4	0.0	110.75905299186707	2.508686065673828
10	85.5548939704895	pulse	1	t		8.0	2.5	/experiments/knapen_AOT/AOT_stimuli/rescaled_final/1223_fw.mp4	0.0	112.35161590576172	
10	86.47101712226868	fix_post	2		12	8.0	2.5	/experiments/knapen_AOT/AOT_stimuli/rescaled_final/1223_fw.mp4	0.0	113.2677390575409	0.10004281997680664
11	86.57105994224548	fix_pre	0		120	9.0	2.5	/experiments/knapen_AOT/AOT_stimuli/rescaled_final/0278_fw.mp4	0.0	113.3677818775177	1.0001561641693115
11	87.15464305877686	pulse	0	t		9.0	2.5	/experiments/knapen_AOT/AOT_stimuli/rescaled_final/0278_fw.mp4	0.0	113.95136499404907	
11	87.5712161064148	movie	1		245	9.0	2.5	/experiments/knapen_AOT/AOT_stimuli/rescaled_final/0278_fw.mp4	0.0	114.36793804168701	2.5003788471221924
11	88.75499391555786	pulse	1	t		9.0	2.5	/experiments/knapen_AOT/AOT_stimuli/rescaled_final/0278_fw.mp4	0.0	115.55171585083008	
11	90.07159495353699	fix_post	2		12	9.0	2.5	/experiments/knapen_AOT/AOT_stimuli/rescaled_final/0278_fw.mp4	0.0	116.8683168888092	0.10000014305114746
12	90.17159509658813	fix_pre	0		120	10.0	2.5	/experiments/knapen_AOT/AOT_stimuli/rescaled_final/0352_fw.mp4	0.0	116.96831703186035	1.0001318454742432
12	90.35527205467224	pulse	0	t		10.0	2.5	/experiments/knapen_AOT/AOT_stimuli/rescaled_final/0352_fw.mp4	0.0	117.15199398994446	
12	91.17172694206238	movie	1		244	10.0	2.5	/experiments/knapen_AOT/AOT_stimuli/rescaled_final/0352_fw.mp4	0.0	117.9684488773346	2.500394105911255
12	91.95538091659546	pulse	1	t		10.0	2.5	/experiments/knapen_AOT/AOT_stimuli/rescaled_final/0352_fw.mp4	0.0	118.75210285186768	
12	93.55581402778625	pulse	1	t		10.0	2.5	/experiments/knapen_AOT/AOT_stimuli/rescaled_final/0352_fw.mp4	0.0	120.35253596305847	
12	93.67212104797363	fix_post	2		12	10.0	2.5	/experiments/knapen_AOT/AOT_stimuli/rescaled_final/0352_fw.mp4	0.0	120.46884298324585	0.09998393058776855
13	93.7721049785614	fix_pre	0		120	11.0	2.5	/experiments/knapen_AOT/AOT_stimuli/rescaled_final/0822_fw.mp4	0.0	120.56882691383362	1.0001659393310547
13	94.77227091789246	movie	1		243	11.0	2.5	/experiments/knapen_AOT/AOT_stimuli/rescaled_final/0822_fw.mp4	0.0	121.56899285316467	2.4920451641082764
13	95.15649199485779	pulse	1	t		11.0	2.5	/experiments/knapen_AOT/AOT_stimuli/rescaled_final/0822_fw.mp4	0.0	121.95321393013	
13	96.756098985672	pulse	1	t		11.0	2.5	/experiments/knapen_AOT/AOT_stimuli/rescaled_final/0822_fw.mp4	0.0	123.55282092094421	
13	97.26431608200073	fix_post	2		12	11.0	2.5	/experiments/knapen_AOT/AOT_stimuli/rescaled_final/0822_fw.mp4	0.0	124.06103801727295	0.10002589225769043
14	97.36434197425842	fix_pre	0		120	12.0	2.5	blank	1.0	124.16106390953064	1.0001130104064941
14	98.3563940525055	pulse	0	t		12.0	2.5	blank	1.0	125.15311598777771	
14	98.36445498466492	movie	1		301	12.0	2.5	blank	1.0	125.16117691993713	2.508721113204956
14	99.95656204223633	pulse	1	t		12.0	2.5	blank	1.0	126.75328397750854	
14	100.87317609786987	fix_post	2		12	12.0	2.5	blank	1.0	127.66989803314209	0.09999799728393555
15	100.97317409515381	fix_pre	0		120	13.0	2.5	/experiments/knapen_AOT/AOT_stimuli/rescaled_final/0603_fw.mp4	0.0	127.76989603042603	1.0001599788665771
15	101.55692791938782	pulse	0	t		13.0	2.5	/experiments/knapen_AOT/AOT_stimuli/rescaled_final/0603_fw.mp4	0.0	128.35364985466003	
15	101.97333407402039	movie	1		243	13.0	2.5	/experiments/knapen_AOT/AOT_stimuli/rescaled_final/0603_fw.mp4	0.0	128.7700560092926	2.5004000663757324
15	103.15714311599731	pulse	1	t		13.0	2.5	/experiments/knapen_AOT/AOT_stimuli/rescaled_final/0603_fw.mp4	0.0	129.95386505126953	
15	104.47373414039612	fix_post	2		9	13.0	2.5	/experiments/knapen_AOT/AOT_stimuli/rescaled_final/0603_fw.mp4	0.0	131.27045607566833	0.09997987747192383
16	104.57371401786804	fix_pre	0		120	14.0	2.5	/experiments/knapen_AOT/AOT_stimuli/rescaled_final/0407_rv.mp4	0.0	131.37043595314026	1.000154972076416
16	104.74978709220886	pulse	0	t		14.0	2.5	/experiments/knapen_AOT/AOT_stimuli/rescaled_final/0407_rv.mp4	0.0	131.54650902748108	
16	105.57386898994446	movie	1		244	14.0	2.5	/experiments/knapen_AOT/AOT_stimuli/rescaled_final/0407_rv.mp4	0.0	132.37059092521667	2.500412940979004
16	106.350172996521	pulse	1	t		14.0	2.5	/experiments/knapen_AOT/AOT_stimuli/rescaled_final/0407_rv.mp4	0.0	133.1468949317932	
16	107.95780205726624	pulse	1	t		14.0	2.5	/experiments/knapen_AOT/AOT_stimuli/rescaled_final/0407_rv.mp4	0.0	134.75452399253845	
16	108.07428193092346	fix_post	2		12	14.0	2.5	/experiments/knapen_AOT/AOT_stimuli/rescaled_final/0407_rv.mp4	0.0	134.87100386619568	0.10002398490905762
17	108.17430591583252	fix_pre	0		120	15.0	2.5	/experiments/knapen_AOT/AOT_stimuli/rescaled_final/1842_rv.mp4	0.0	134.97102785110474	1.0001029968261719
17	109.17440891265869	movie	1		242	15.0	2.5	/experiments/knapen_AOT/AOT_stimuli/rescaled_final/1842_rv.mp4	0.0	135.9711308479309	2.4920291900634766
17	109.5496039390564	pulse	1	t		15.0	2.5	/experiments/knapen_AOT/AOT_stimuli/rescaled_final/1842_rv.mp4	0.0	136.3463258743286	
17	111.14992904663086	pulse	1	t		15.0	2.5	/experiments/knapen_AOT/AOT_stimuli/rescaled_final/1842_rv.mp4	0.0	137.94665098190308	
17	111.66643810272217	fix_post	2		12	15.0	2.5	/experiments/knapen_AOT/AOT_stimuli/rescaled_final/1842_rv.mp4	0.0	138.46316003799438	0.10000896453857422
18	111.76644706726074	fix_pre	0		119	16.0	2.5	/experiments/knapen_AOT/AOT_stimuli/rescaled_final/1028_rv.mp4	0.0	138.56316900253296	0.9918699264526367
18	112.75007891654968	pulse	0	t		16.0	2.5	/experiments/knapen_AOT/AOT_stimuli/rescaled_final/1028_rv.mp4	0.0	139.5468008518219	
18	112.75831699371338	movie	1		248	16.0	2.5	/experiments/knapen_AOT/AOT_stimuli/rescaled_final/1028_rv.mp4	0.0	139.5550389289856	2.5086710453033447
18	114.35196709632874	pulse	1	t		16.0	2.5	/experiments/knapen_AOT/AOT_stimuli/rescaled_final/1028_rv.mp4	0.0	141.14868903160095	
18	115.26698803901672	fix_post	2		12	16.0	2.5	/experiments/knapen_AOT/AOT_stimuli/rescaled_final/1028_rv.mp4	0.0	142.06370997428894	0.10007405281066895
19	115.36706209182739	fix_pre	0		120	17.0	2.5	/experiments/knapen_AOT/AOT_stimuli/rescaled_final/1757_fw.mp4	0.0	142.1637840270996	1.0000898838043213
19	115.95059514045715	pulse	0	t		17.0	2.5	/experiments/knapen_AOT/AOT_stimuli/rescaled_final/1757_fw.mp4	0.0	142.74731707572937	
19	116.36715197563171	movie	1		243	17.0	2.5	/experiments/knapen_AOT/AOT_stimuli/rescaled_final/1757_fw.mp4	0.0	143.16387391090393	2.5003890991210938
19	117.55102396011353	pulse	1	t		17.0	2.5	/experiments/knapen_AOT/AOT_stimuli/rescaled_final/1757_fw.mp4	0.0	144.34774589538574	
19	118.86754107475281	fix_post	2		12	17.0	2.5	/experiments/knapen_AOT/AOT_stimuli/rescaled_final/1757_fw.mp4	0.0	145.66426301002502	0.09998106956481934
20	118.96752214431763	fix_pre	0		120	18.0	2.5	/experiments/knapen_AOT/AOT_stimuli/rescaled_final/2080_rv.mp4	0.0	145.76424407958984	1.0001649856567383
20	119.15114498138428	pulse	0	t		18.0	2.5	/experiments/knapen_AOT/AOT_stimuli/rescaled_final/2080_rv.mp4	0.0	145.9478669166565	
20	119.96768712997437	movie	1		244	18.0	2.5	/experiments/knapen_AOT/AOT_stimuli/rescaled_final/2080_rv.mp4	0.0	146.76440906524658	2.500375986099243
20	120.75136303901672	pulse	1	t		18.0	2.5	/experiments/knapen_AOT/AOT_stimuli/rescaled_final/2080_rv.mp4	0.0	147.54808497428894	
20	122.3516640663147	pulse	1	t		18.0	2.5	/experiments/knapen_AOT/AOT_stimuli/rescaled_final/2080_rv.mp4	0.0	149.1483860015869	
20	122.46806311607361	fix_post	2		12	18.0	2.5	/experiments/knapen_AOT/AOT_stimuli/rescaled_final/2080_rv.mp4	0.0	149.26478505134583	0.10004496574401855
21	122.56810808181763	fix_pre	0		120	19.0	2.5	/experiments/knapen_AOT/AOT_stimuli/rescaled_final/0710_fw.mp4	0.0	149.36483001708984	1.0001230239868164
21	123.56823110580444	movie	1		243	19.0	2.5	/experiments/knapen_AOT/AOT_stimuli/rescaled_final/0710_fw.mp4	0.0	150.36495304107666	2.492036819458008
21	123.95316696166992	pulse	1	t		19.0	2.5	/experiments/knapen_AOT/AOT_stimuli/rescaled_final/0710_fw.mp4	0.0	150.74988889694214	
21	125.55209398269653	pulse	1	t		19.0	2.5	/experiments/knapen_AOT/AOT_stimuli/rescaled_final/0710_fw.mp4	0.0	152.34881591796875	
21	126.06026792526245	fix_post	2		12	19.0	2.5	/experiments/knapen_AOT/AOT_stimuli/rescaled_final/0710_fw.mp4	0.0	152.85698986053467	0.10005807876586914
22	126.16032600402832	fix_pre	0		120	20.0	2.5	blank	1.0	152.95704793930054	1.000108003616333
22	127.15229797363281	pulse	0	t		20.0	2.5	blank	1.0	153.94901990890503	
22	127.16043400764465	movie	1		301	20.0	2.5	blank	1.0	153.95715594291687	2.5087311267852783
22	128.75254893302917	pulse	1	t		20.0	2.5	blank	1.0	155.5492708683014	
22	129.66916513442993	fix_post	2		12	20.0	2.5	blank	1.0	156.46588706970215	0.10001087188720703
23	129.76917600631714	fix_pre	0		120	21.0	2.5	/experiments/knapen_AOT/AOT_stimuli/rescaled_final/0712_fw.mp4	0.0	156.56589794158936	1.0001499652862549
23	130.35277891159058	pulse	0	t		21.0	2.5	/experiments/knapen_AOT/AOT_stimuli/rescaled_final/0712_fw.mp4	0.0	157.1495008468628	
23	130.7693259716034	movie	1		245	21.0	2.5	/experiments/knapen_AOT/AOT_stimuli/rescaled_final/0712_fw.mp4	0.0	157.5660479068756	2.5003550052642822
23	131.95309114456177	pulse	1	t		21.0	2.5	/experiments/knapen_AOT/AOT_stimuli/rescaled_final/0712_fw.mp4	0.0	158.74981307983398	
23	133.26968097686768	fix_post	2		12	21.0	2.5	/experiments/knapen_AOT/AOT_stimuli/rescaled_final/0712_fw.mp4	0.0	160.0664029121399	0.1000211238861084
24	133.36970210075378	fix_pre	0		120	22.0	2.5	/experiments/knapen_AOT/AOT_stimuli/rescaled_final/1790_fw.mp4	0.0	160.166424036026	1.0001699924468994
24	133.55338311195374	pulse	0	t		22.0	2.5	/experiments/knapen_AOT/AOT_stimuli/rescaled_final/1790_fw.mp4	0.0	160.35010504722595	
24	134.36987209320068	movie	1		244	22.0	2.5	/experiments/knapen_AOT/AOT_stimuli/rescaled_final/1790_fw.mp4	0.0	161.1665940284729	2.500401020050049
24	135.15350198745728	pulse	1	t		22.0	2.5	/experiments/knapen_AOT/AOT_stimuli/rescaled_final/1790_fw.mp4	0.0	161.9502239227295	
24	136.75372910499573	pulse	1	t		22.0	2.5	/experiments/knapen_AOT/AOT_stimuli/rescaled_final/1790_fw.mp4	0.0	163.55045104026794	
24	136.87027311325073	fix_post	2		12	22.0	2.5	/experiments/knapen_AOT/AOT_stimuli/rescaled_final/1790_fw.mp4	0.0	163.66699504852295	0.0999898910522461
25	136.97026300430298	fix_pre	0		119	23.0	2.5	/experiments/knapen_AOT/AOT_stimuli/rescaled_final/0603_rv.mp4	0.0	163.7669849395752	0.9918129444122314
25	137.9620759487152	movie	1		243	23.0	2.5	/experiments/knapen_AOT/AOT_stimuli/rescaled_final/0603_rv.mp4	0.0	164.75879788398743	2.5003631114959717
25	138.3541600704193	pulse	1	t		23.0	2.5	/experiments/knapen_AOT/AOT_stimuli/rescaled_final/0603_rv.mp4	0.0	165.15088200569153	
25	139.95432209968567	pulse	1	t		23.0	2.5	/experiments/knapen_AOT/AOT_stimuli/rescaled_final/0603_rv.mp4	0.0	166.75104403495789	
25	140.46243906021118	fix_post	2		12	23.0	2.5	/experiments/knapen_AOT/AOT_stimuli/rescaled_final/0603_rv.mp4	0.0	167.2591609954834	0.10000991821289062
26	140.56244897842407	fix_pre	0		120	24.0	2.5	/experiments/knapen_AOT/AOT_stimuli/rescaled_final/0631_fw.mp4	0.0	167.3591709136963	1.0001580715179443
26	141.55443906784058	pulse	0	t		24.0	2.5	/experiments/knapen_AOT/AOT_stimuli/rescaled_final/0631_fw.mp4	0.0	168.3511610031128	
26	141.56260704994202	movie	1		246	24.0	2.5	/experiments/knapen_AOT/AOT_stimuli/rescaled_final/0631_fw.mp4	0.0	168.35932898521423	2.5087339878082275
26	143.1559910774231	pulse	1	t		24.0	2.5	/experiments/knapen_AOT/AOT_stimuli/rescaled_final/0631_fw.mp4	0.0	169.9527130126953	
26	144.07134103775024	fix_post	2		12	24.0	2.5	/experiments/knapen_AOT/AOT_stimuli/rescaled_final/0631_fw.mp4	0.0	170.86806297302246	0.09995794296264648
27	144.1712989807129	fix_pre	0		120	25.0	2.5	/experiments/knapen_AOT/AOT_stimuli/rescaled_final/2014_fw.mp4	0.0	170.9680209159851	1.000162124633789
27	144.7549331188202	pulse	0	t		25.0	2.5	/experiments/knapen_AOT/AOT_stimuli/rescaled_final/2014_fw.mp4	0.0	171.5516550540924	
27	145.17146110534668	movie	1		246	25.0	2.5	/experiments/knapen_AOT/AOT_stimuli/rescaled_final/2014_fw.mp4	0.0	171.9681830406189	2.5003769397735596
27	146.35524892807007	pulse	1	t		25.0	2.5	/experiments/knapen_AOT/AOT_stimuli/rescaled_final/2014_fw.mp4	0.0	173.15197086334229	
27	147.67183804512024	fix_post	2		12	25.0	2.5	/experiments/knapen_AOT/AOT_stimuli/rescaled_final/2014_fw.mp4	0.0	174.46855998039246	0.10002899169921875
28	147.77186703681946	fix_pre	0		120	26.0	2.5	blank	1.0	174.56858897209167	1.0001559257507324
28	147.95543599128723	pulse	0	t		26.0	2.5	blank	1.0	174.75215792655945	
28	148.7720229625702	movie	1		299	26.0	2.5	blank	1.0	175.5687448978424	2.492025136947632
28	149.5556309223175	pulse	1	t		26.0	2.5	blank	1.0	176.35235285758972	
28	151.1559579372406	pulse	1	t		26.0	2.5	blank	1.0	177.95267987251282	
28	151.26404809951782	fix_post	2		13	26.0	2.5	blank	1.0	178.06077003479004	0.10837197303771973
29	151.37242007255554	fix_pre	0		119	27.0	2.5	/experiments/knapen_AOT/AOT_stimuli/rescaled_final/1884_fw.mp4	0.0	178.16914200782776	0.991786003112793
29	152.36420607566833	movie	1		245	27.0	2.5	/experiments/knapen_AOT/AOT_stimuli/rescaled_final/1884_fw.mp4	0.0	179.16092801094055	2.500364065170288
29	152.7562220096588	pulse	1	t		27.0	2.5	/experiments/knapen_AOT/AOT_stimuli/rescaled_final/1884_fw.mp4	0.0	179.55294394493103	
29	154.34907293319702	pulse	1	t		27.0	2.5	/experiments/knapen_AOT/AOT_stimuli/rescaled_final/1884_fw.mp4	0.0	181.14579486846924	
29	154.86457014083862	fix_post	2		12	27.0	2.5	/experiments/knapen_AOT/AOT_stimuli/rescaled_final/1884_fw.mp4	0.0	181.66129207611084	0.10002398490905762
30	154.96459412574768	fix_pre	0		120	28.0	2.5	/experiments/knapen_AOT/AOT_stimuli/rescaled_final/1883_rv.mp4	0.0	181.7613160610199	1.0001888275146484
30	155.94917392730713	pulse	0	t		28.0	2.5	/experiments/knapen_AOT/AOT_stimuli/rescaled_final/1883_rv.mp4	0.0	182.74589586257935	
30	155.96478295326233	movie	1		246	28.0	2.5	/experiments/knapen_AOT/AOT_stimuli/rescaled_final/1883_rv.mp4	0.0	182.76150488853455	2.508700132369995
30	157.55729794502258	pulse	1	t		28.0	2.5	/experiments/knapen_AOT/AOT_stimuli/rescaled_final/1883_rv.mp4	0.0	184.3540198802948	
30	158.47348308563232	fix_post	2		12	28.0	2.5	/experiments/knapen_AOT/AOT_stimuli/rescaled_final/1883_rv.mp4	0.0	185.27020502090454	0.09998798370361328
31	158.57347106933594	fix_pre	0		120	29.0	2.5	/experiments/knapen_AOT/AOT_stimuli/rescaled_final/1531_fw.mp4	0.0	185.37019300460815	1.0001740455627441
31	159.14962100982666	pulse	0	t		29.0	2.5	/experiments/knapen_AOT/AOT_stimuli/rescaled_final/1531_fw.mp4	0.0	185.94634294509888	
31	159.57364511489868	movie	1		245	29.0	2.5	/experiments/knapen_AOT/AOT_stimuli/rescaled_final/1531_fw.mp4	0.0	186.3703670501709	2.5003550052642822
31	160.74934792518616	pulse	1	t		29.0	2.5	/experiments/knapen_AOT/AOT_stimuli/rescaled_final/1531_fw.mp4	0.0	187.54606986045837	
31	162.07400012016296	fix_post	2		12	29.0	2.5	/experiments/knapen_AOT/AOT_stimuli/rescaled_final/1531_fw.mp4	0.0	188.87072205543518	0.10005688667297363
32	162.17405700683594	fix_pre	0		120	30.0	2.5	/experiments/knapen_AOT/AOT_stimuli/rescaled_final/1145_fw.mp4	0.0	188.97077894210815	1.0018339157104492
32	162.34995198249817	pulse	0	t		30.0	2.5	/experiments/knapen_AOT/AOT_stimuli/rescaled_final/1145_fw.mp4	0.0	189.14667391777039	
32	163.1758909225464	movie	1		241	30.0	2.5	/experiments/knapen_AOT/AOT_stimuli/rescaled_final/1145_fw.mp4	0.0	189.9726128578186	2.490328073501587
32	163.9494059085846	pulse	1	t		30.0	2.5	/experiments/knapen_AOT/AOT_stimuli/rescaled_final/1145_fw.mp4	0.0	190.7461278438568	
32	165.54978203773499	pulse	1	t		30.0	2.5	/experiments/knapen_AOT/AOT_stimuli/rescaled_final/1145_fw.mp4	0.0	192.3465039730072	
32	165.66621899604797	fix_post	2		12	30.0	2.5	/experiments/knapen_AOT/AOT_stimuli/rescaled_final/1145_fw.mp4	0.0	192.4629409313202	0.10001897811889648
33	165.76623797416687	fix_pre	0		120	31.0	2.5	/experiments/knapen_AOT/AOT_stimuli/rescaled_final/1003_fw.mp4	0.0	192.5629599094391	1.0001420974731445
33	166.76638007164001	movie	1		245	31.0	2.5	/experiments/knapen_AOT/AOT_stimuli/rescaled_final/1003_fw.mp4	0.0	193.56310200691223	2.500325918197632
33	167.15107202529907	pulse	1	t		31.0	2.5	/experiments/knapen_AOT/AOT_stimuli/rescaled_final/1003_fw.mp4	0.0	193.9477939605713	
33	168.75032091140747	pulse	1	t		31.0	2.5	/experiments/knapen_AOT/AOT_stimuli/rescaled_final/1003_fw.mp4	0.0	195.5470428466797	
33	169.26670598983765	fix_post	2		12	31.0	2.5	/experiments/knapen_AOT/AOT_stimuli/rescaled_final/1003_fw.mp4	0.0	196.06342792510986	0.10006999969482422
34	169.36677598953247	fix_pre	0		119	32.0	2.5	/experiments/knapen_AOT/AOT_stimuli/rescaled_final/1969_fw.mp4	0.0	196.1634979248047	0.9918029308319092
34	170.35049104690552	pulse	0	t		32.0	2.5	/experiments/knapen_AOT/AOT_stimuli/rescaled_final/1969_fw.mp4	0.0	197.14721298217773	
34	170.35857892036438	movie	1		246	32.0	2.5	/experiments/knapen_AOT/AOT_stimuli/rescaled_final/1969_fw.mp4	0.0	197.1553008556366	2.5086991786956787
34	171.9512860774994	pulse	1	t		32.0	2.5	/experiments/knapen_AOT/AOT_stimuli/rescaled_final/1969_fw.mp4	0.0	198.7480080127716	
34	172.86727809906006	fix_post	2		12	32.0	2.5	/experiments/knapen_AOT/AOT_stimuli/rescaled_final/1969_fw.mp4	0.0	199.66400003433228	0.10002398490905762
35	172.96730208396912	fix_pre	0		120	33.0	2.5	/experiments/knapen_AOT/AOT_stimuli/rescaled_final/0822_rv.mp4	0.0	199.76402401924133	1.000133991241455
35	173.5508680343628	pulse	0	t		33.0	2.5	/experiments/knapen_AOT/AOT_stimuli/rescaled_final/0822_rv.mp4	0.0	200.347589969635	
35	173.96743607521057	movie	1		245	33.0	2.5	/experiments/knapen_AOT/AOT_stimuli/rescaled_final/0822_rv.mp4	0.0	200.7641580104828	2.500377893447876
35	175.15133094787598	pulse	1	t		33.0	2.5	/experiments/knapen_AOT/AOT_stimuli/rescaled_final/0822_rv.mp4	0.0	201.9480528831482	
35	176.46781396865845	fix_post	2		12	33.0	2.5	/experiments/knapen_AOT/AOT_stimuli/rescaled_final/0822_rv.mp4	0.0	203.26453590393066	0.10001611709594727
36	176.5678300857544	fix_pre	0		120	34.0	2.5	/experiments/knapen_AOT/AOT_stimuli/rescaled_final/0243_rv.mp4	0.0	203.3645520210266	1.0001349449157715
36	176.75150108337402	pulse	0	t		34.0	2.5	/experiments/knapen_AOT/AOT_stimuli/rescaled_final/0243_rv.mp4	0.0	203.54822301864624	
36	177.56796503067017	movie	1		245	34.0	2.5	/experiments/knapen_AOT/AOT_stimuli/rescaled_final/0243_rv.mp4	0.0	204.36468696594238	2.5003700256347656
36	178.35158896446228	pulse	1	t		34.0	2.5	/experiments/knapen_AOT/AOT_stimuli/rescaled_final/0243_rv.mp4	0.0	205.1483108997345	
36	179.94953513145447	pulse	1	t		34.0	2.5	/experiments/knapen_AOT/AOT_stimuli/rescaled_final/0243_rv.mp4	0.0	206.74625706672668	
36	180.06833505630493	fix_post	2		12	34.0	2.5	/experiments/knapen_AOT/AOT_stimuli/rescaled_final/0243_rv.mp4	0.0	206.86505699157715	0.10001993179321289
37	180.16835498809814	fix_pre	0		120	35.0	2.5	blank	1.0	206.96507692337036	1.0001640319824219
37	181.16851902008057	movie	1		299	35.0	2.5	blank	1.0	207.96524095535278	2.4920389652252197
37	181.5522220134735	pulse	1	t		35.0	2.5	blank	1.0	208.34894394874573	
37	183.15250301361084	pulse	1	t		35.0	2.5	blank	1.0	209.94922494888306	
37	183.6605579853058	fix_post	2		12	35.0	2.5	blank	1.0	210.457279920578	0.0999901294708252
38	183.7605481147766	fix_pre	0		120	36.0	2.5	/experiments/knapen_AOT/AOT_stimuli/rescaled_final/0802_rv.mp4	0.0	210.55727005004883	1.0001788139343262
38	184.75257205963135	pulse	0	t		36.0	2.5	/experiments/knapen_AOT/AOT_stimuli/rescaled_final/0802_rv.mp4	0.0	211.54929399490356	
38	184.76072692871094	movie	1		245	36.0	2.5	/experiments/knapen_AOT/AOT_stimuli/rescaled_final/0802_rv.mp4	0.0	211.55744886398315	2.5087029933929443
38	186.3543200492859	pulse	1	t		36.0	2.5	/experiments/knapen_AOT/AOT_stimuli/rescaled_final/0802_rv.mp4	0.0	213.1510419845581	
38	187.26942992210388	fix_post	2		12	36.0	2.5	/experiments/knapen_AOT/AOT_stimuli/rescaled_final/0802_rv.mp4	0.0	214.0661518573761	0.10001111030578613
39	187.36944103240967	fix_pre	0		120	37.0	2.5	/experiments/knapen_AOT/AOT_stimuli/rescaled_final/1739_rv.mp4	0.0	214.16616296768188	1.0001568794250488
39	187.9530680179596	pulse	0	t		37.0	2.5	/experiments/knapen_AOT/AOT_stimuli/rescaled_final/1739_rv.mp4	0.0	214.7497899532318	
39	188.36959791183472	movie	1		243	37.0	2.5	/experiments/knapen_AOT/AOT_stimuli/rescaled_final/1739_rv.mp4	0.0	215.16631984710693	2.5003950595855713
39	189.55349111557007	pulse	1	t		37.0	2.5	/experiments/knapen_AOT/AOT_stimuli/rescaled_final/1739_rv.mp4	0.0	216.35021305084229	
39	190.8699929714203	fix_post	2		12	37.0	2.5	/experiments/knapen_AOT/AOT_stimuli/rescaled_final/1739_rv.mp4	0.0	217.6667149066925	0.10000395774841309
40	190.9699969291687	fix_pre	0		120	38.0	2.5	/experiments/knapen_AOT/AOT_stimuli/rescaled_final/1716_rv.mp4	0.0	217.76671886444092	1.000124216079712
40	191.15350604057312	pulse	0	t		38.0	2.5	/experiments/knapen_AOT/AOT_stimuli/rescaled_final/1716_rv.mp4	0.0	217.95022797584534	
40	191.9701211452484	movie	1		243	38.0	2.5	/experiments/knapen_AOT/AOT_stimuli/rescaled_final/1716_rv.mp4	0.0	218.76684308052063	2.500363826751709
40	192.75372791290283	pulse	1	t		38.0	2.5	/experiments/knapen_AOT/AOT_stimuli/rescaled_final/1716_rv.mp4	0.0	219.55044984817505	
40	194.3541340827942	pulse	1	t		38.0	2.5	/experiments/knapen_AOT/AOT_stimuli/rescaled_final/1716_rv.mp4	0.0	221.1508560180664	
40	194.47048497200012	fix_post	2		12	38.0	2.5	/experiments/knapen_AOT/AOT_stimuli/rescaled_final/1716_rv.mp4	0.0	221.26720690727234	0.10006403923034668
41	194.57054901123047	fix_pre	0		120	39.0	2.5	/experiments/knapen_AOT/AOT_stimuli/rescaled_final/0081_fw.mp4	0.0	221.36727094650269	1.0001060962677002
41	195.57065510749817	movie	1		243	39.0	2.5	/experiments/knapen_AOT/AOT_stimuli/rescaled_final/0081_fw.mp4	0.0	222.36737704277039	2.4920568466186523
41	195.954980134964	pulse	1	t		39.0	2.5	/experiments/knapen_AOT/AOT_stimuli/rescaled_final/0081_fw.mp4	0.0	222.7517020702362	
41	197.55451107025146	pulse	1	t		39.0	2.5	/experiments/knapen_AOT/AOT_stimuli/rescaled_final/0081_fw.mp4	0.0	224.35123300552368	
41	198.06271195411682	fix_post	2		12	39.0	2.5	/experiments/knapen_AOT/AOT_stimuli/rescaled_final/0081_fw.mp4	0.0	224.85943388938904	0.10001301765441895
42	198.16272497177124	fix_pre	0		120	40.0	2.5	blank	1.0	224.95944690704346	1.0001580715179443
42	199.15474700927734	pulse	0	t		40.0	2.5	blank	1.0	225.95146894454956	
42	199.16288304328918	movie	1		301	40.0	2.5	blank	1.0	225.9596049785614	2.508694887161255
42	200.75500011444092	pulse	1	t		40.0	2.5	blank	1.0	227.55172204971313	
42	201.67157793045044	fix_post	2		12	40.0	2.5	blank	1.0	228.46829986572266	0.10001111030578613
43	201.77158904075623	fix_pre	0		120	41.0	2.5	/experiments/knapen_AOT/AOT_stimuli/rescaled_final/2135_fw.mp4	0.0	228.56831097602844	1.0001909732818604
43	202.35519814491272	pulse	0	t		41.0	2.5	/experiments/knapen_AOT/AOT_stimuli/rescaled_final/2135_fw.mp4	0.0	229.15192008018494	
43	202.7717800140381	movie	1		245	41.0	2.5	/experiments/knapen_AOT/AOT_stimuli/rescaled_final/2135_fw.mp4	0.0	229.5685019493103	2.5003061294555664
43	203.9555070400238	pulse	1	t		41.0	2.5	/experiments/knapen_AOT/AOT_stimuli/rescaled_final/2135_fw.mp4	0.0	230.75222897529602	
43	205.27208614349365	fix_post	2		12	41.0	2.5	/experiments/knapen_AOT/AOT_stimuli/rescaled_final/2135_fw.mp4	0.0	232.06880807876587	0.10003876686096191
44	205.37212491035461	fix_pre	0		120	42.0	2.5	/experiments/knapen_AOT/AOT_stimuli/rescaled_final/1884_fw.mp4	0.0	232.16884684562683	1.0001590251922607
44	205.55565214157104	pulse	0	t		42.0	2.5	/experiments/knapen_AOT/AOT_stimuli/rescaled_final/1884_fw.mp4	0.0	232.35237407684326	
44	206.37228393554688	movie	1		245	42.0	2.5	/experiments/knapen_AOT/AOT_stimuli/rescaled_final/1884_fw.mp4	0.0	233.1690058708191	2.5003750324249268
44	207.15600204467773	pulse	1	t		42.0	2.5	/experiments/knapen_AOT/AOT_stimuli/rescaled_final/1884_fw.mp4	0.0	233.95272397994995	
44	208.75367093086243	pulse	1	t		42.0	2.5	/experiments/knapen_AOT/AOT_stimuli/rescaled_final/1884_fw.mp4	0.0	235.55039286613464	
44	208.8726589679718	fix_post	2		12	42.0	2.5	/experiments/knapen_AOT/AOT_stimuli/rescaled_final/1884_fw.mp4	0.0	235.66938090324402	0.10002708435058594
45	208.9726860523224	fix_pre	0		120	43.0	2.5	/experiments/knapen_AOT/AOT_stimuli/rescaled_final/0038_rv.mp4	0.0	235.7694079875946	1.0001449584960938
45	209.97283101081848	movie	1		243	43.0	2.5	/experiments/knapen_AOT/AOT_stimuli/rescaled_final/0038_rv.mp4	0.0	236.7695529460907	2.492042064666748
45	210.3569860458374	pulse	1	t		43.0	2.5	/experiments/knapen_AOT/AOT_stimuli/rescaled_final/0038_rv.mp4	0.0	237.15370798110962	
45	211.95673203468323	pulse	1	t		43.0	2.5	/experiments/knapen_AOT/AOT_stimuli/rescaled_final/0038_rv.mp4	0.0	238.75345396995544	
45	212.46487307548523	fix_post	2		12	43.0	2.5	/experiments/knapen_AOT/AOT_stimuli/rescaled_final/0038_rv.mp4	0.0	239.26159501075745	0.10008788108825684
46	212.5649609565735	fix_pre	0		120	44.0	2.5	/experiments/knapen_AOT/AOT_stimuli/rescaled_final/0407_fw.mp4	0.0	239.3616828918457	1.000049114227295
46	213.55691003799438	pulse	0	t		44.0	2.5	/experiments/knapen_AOT/AOT_stimuli/rescaled_final/0407_fw.mp4	0.0	240.3536319732666	
46	213.56501007080078	movie	1		245	44.0	2.5	/experiments/knapen_AOT/AOT_stimuli/rescaled_final/0407_fw.mp4	0.0	240.361732006073	2.5087358951568604
46	215.15706992149353	pulse	1	t		44.0	2.5	/experiments/knapen_AOT/AOT_stimuli/rescaled_final/0407_fw.mp4	0.0	241.95379185676575	
46	216.07374596595764	fix_post	2		12	44.0	2.5	/experiments/knapen_AOT/AOT_stimuli/rescaled_final/0407_fw.mp4	0.0	242.87046790122986	0.10003900527954102
47	216.17378497123718	fix_pre	0		120	45.0	2.5	/experiments/knapen_AOT/AOT_stimuli/rescaled_final/0236_rv.mp4	0.0	242.9705069065094	1.0001261234283447
47	216.74995708465576	pulse	0	t		45.0	2.5	/experiments/knapen_AOT/AOT_stimuli/rescaled_final/0236_rv.mp4	0.0	243.54667901992798	
47	217.17391109466553	movie	1		246	45.0	2.5	/experiments/knapen_AOT/AOT_stimuli/rescaled_final/0236_rv.mp4	0.0	243.97063302993774	2.5003490447998047
47	218.34990406036377	pulse	1	t		45.0	2.5	/experiments/knapen_AOT/AOT_stimuli/rescaled_final/0236_rv.mp4	0.0	245.146625995636	
47	219.67426013946533	fix_post	2		12	45.0	2.5	/experiments/knapen_AOT/AOT_stimuli/rescaled_final/0236_rv.mp4	0.0	246.47098207473755	0.10005378723144531
48	219.77431392669678	fix_pre	0		120	46.0	2.5	/experiments/knapen_AOT/AOT_stimuli/rescaled_final/0542_rv.mp4	0.0	246.571035861969	1.0001261234283447
48	219.9502830505371	pulse	0	t		46.0	2.5	/experiments/knapen_AOT/AOT_stimuli/rescaled_final/0542_rv.mp4	0.0	246.74700498580933	
48	220.77444005012512	movie	1		247	46.0	2.5	/experiments/knapen_AOT/AOT_stimuli/rescaled_final/0542_rv.mp4	0.0	247.57116198539734	2.5003509521484375
48	221.55070805549622	pulse	1	t		46.0	2.5	/experiments/knapen_AOT/AOT_stimuli/rescaled_final/0542_rv.mp4	0.0	248.34742999076843	
48	223.1500449180603	pulse	1	t		46.0	2.5	/experiments/knapen_AOT/AOT_stimuli/rescaled_final/0542_rv.mp4	0.0	249.94676685333252	
48	223.27479100227356	fix_post	2		9	46.0	2.5	/experiments/knapen_AOT/AOT_stimuli/rescaled_final/0542_rv.mp4	0.0	250.07151293754578	0.0999910831451416
49	223.3747820854187	fix_pre	0		120	47.0	2.5	blank	1.0	250.17150402069092	1.0001740455627441
49	224.37495613098145	movie	1		299	47.0	2.5	blank	1.0	251.17167806625366	2.4920787811279297
49	224.7501630783081	pulse	1	t		47.0	2.5	blank	1.0	251.54688501358032	
49	226.3504581451416	pulse	1	t		47.0	2.5	blank	1.0	253.14718008041382	
49	226.86703491210938	fix_post	2		12	47.0	2.5	blank	1.0	253.6637568473816	0.09998917579650879
50	226.96702408790588	fix_pre	0		119	48.0	2.5	/experiments/knapen_AOT/AOT_stimuli/rescaled_final/0830_rv.mp4	0.0	253.7637460231781	0.9918229579925537
50	227.9506230354309	pulse	0	t		48.0	2.5	/experiments/knapen_AOT/AOT_stimuli/rescaled_final/0830_rv.mp4	0.0	254.74734497070312	
50	227.95884704589844	movie	1		246	48.0	2.5	/experiments/knapen_AOT/AOT_stimuli/rescaled_final/0830_rv.mp4	0.0	254.75556898117065	2.5086898803710938
50	229.551509141922	pulse	1	t		48.0	2.5	/experiments/knapen_AOT/AOT_stimuli/rescaled_final/0830_rv.mp4	0.0	256.3482310771942	
50	230.46753692626953	fix_post	2		12	48.0	2.5	/experiments/knapen_AOT/AOT_stimuli/rescaled_final/0830_rv.mp4	0.0	257.26425886154175	0.10001301765441895
51	230.56754994392395	fix_pre	0		120	49.0	2.5	/experiments/knapen_AOT/AOT_stimuli/rescaled_final/0420_rv.mp4	0.0	257.36427187919617	1.0001800060272217
51	231.15117001533508	pulse	0	t		49.0	2.5	/experiments/knapen_AOT/AOT_stimuli/rescaled_final/0420_rv.mp4	0.0	257.9478919506073	
51	231.56772994995117	movie	1		244	49.0	2.5	/experiments/knapen_AOT/AOT_stimuli/rescaled_final/0420_rv.mp4	0.0	258.3644518852234	2.5004210472106934
51	232.7514820098877	pulse	1	t		49.0	2.5	/experiments/knapen_AOT/AOT_stimuli/rescaled_final/0420_rv.mp4	0.0	259.5482039451599	
51	234.06815099716187	fix_post	2		12	49.0	2.5	/experiments/knapen_AOT/AOT_stimuli/rescaled_final/0420_rv.mp4	0.0	260.8648729324341	0.0999290943145752
52	234.16808009147644	fix_pre	0		120	50.0	2.5	/experiments/knapen_AOT/AOT_stimuli/rescaled_final/1640_fw.mp4	0.0	260.96480202674866	1.0001749992370605
52	234.351576089859	pulse	0	t		50.0	2.5	/experiments/knapen_AOT/AOT_stimuli/rescaled_final/1640_fw.mp4	0.0	261.1482980251312	
52	235.1682550907135	movie	1		243	50.0	2.5	/experiments/knapen_AOT/AOT_stimuli/rescaled_final/1640_fw.mp4	0.0	261.9649770259857	2.500347852706909
52	235.9519190788269	pulse	1	t		50.0	2.5	/experiments/knapen_AOT/AOT_stimuli/rescaled_final/1640_fw.mp4	0.0	262.7486410140991	
52	237.55197501182556	pulse	1	t		50.0	2.5	/experiments/knapen_AOT/AOT_stimuli/rescaled_final/1640_fw.mp4	0.0	264.3486969470978	
52	237.6686029434204	fix_post	2		12	50.0	2.5	/experiments/knapen_AOT/AOT_stimuli/rescaled_final/1640_fw.mp4	0.0	264.4653248786926	0.10001802444458008
53	237.768620967865	fix_pre	0		119	51.0	2.5	/experiments/knapen_AOT/AOT_stimuli/rescaled_final/1351_rv.mp4	0.0	264.5653429031372	0.9918210506439209
53	238.7604420185089	movie	1		244	51.0	2.5	/experiments/knapen_AOT/AOT_stimuli/rescaled_final/1351_rv.mp4	0.0	265.5571639537811	2.500370979309082
53	239.15246105194092	pulse	1	t		51.0	2.5	/experiments/knapen_AOT/AOT_stimuli/rescaled_final/1351_rv.mp4	0.0	265.94918298721313	
53	240.75259494781494	pulse	1	t		51.0	2.5	/experiments/knapen_AOT/AOT_stimuli/rescaled_final/1351_rv.mp4	0.0	267.54931688308716	
53	241.260812997818	fix_post	2		12	51.0	2.5	/experiments/knapen_AOT/AOT_stimuli/rescaled_final/1351_rv.mp4	0.0	268.0575349330902	0.10003399848937988
54	241.36084699630737	fix_pre	0		120	52.0	2.5	/experiments/knapen_AOT/AOT_stimuli/rescaled_final/0650_rv.mp4	0.0	268.1575689315796	1.0001220703125
54	242.35288906097412	pulse	0	t		52.0	2.5	/experiments/knapen_AOT/AOT_stimuli/rescaled_final/0650_rv.mp4	0.0	269.14961099624634	
54	242.36096906661987	movie	1		245	52.0	2.5	/experiments/knapen_AOT/AOT_stimuli/rescaled_final/0650_rv.mp4	0.0	269.1576910018921	2.5087380409240723
54	243.95355105400085	pulse	1	t		52.0	2.5	/experiments/knapen_AOT/AOT_stimuli/rescaled_final/0650_rv.mp4	0.0	270.75027298927307	
54	244.86970710754395	fix_post	2		12	52.0	2.5	/experiments/knapen_AOT/AOT_stimuli/rescaled_final/0650_rv.mp4	0.0	271.66642904281616	0.10002303123474121
55	244.9697301387787	fix_pre	0		120	53.0	2.5	/experiments/knapen_AOT/AOT_stimuli/rescaled_final/2125_fw.mp4	0.0	271.7664520740509	1.0001239776611328
55	245.5533950328827	pulse	0	t		53.0	2.5	/experiments/knapen_AOT/AOT_stimuli/rescaled_final/2125_fw.mp4	0.0	272.3501169681549	
55	245.96985411643982	movie	1		245	53.0	2.5	/experiments/knapen_AOT/AOT_stimuli/rescaled_final/2125_fw.mp4	0.0	272.76657605171204	2.500454902648926
55	247.15363192558289	pulse	1	t		53.0	2.5	/experiments/knapen_AOT/AOT_stimuli/rescaled_final/2125_fw.mp4	0.0	273.9503538608551	
55	248.47030901908875	fix_post	2		12	53.0	2.5	/experiments/knapen_AOT/AOT_stimuli/rescaled_final/2125_fw.mp4	0.0	275.26703095436096	0.09992694854736328
56	248.5702359676361	fix_pre	0		120	54.0	2.5	blank	1.0	275.3669579029083	1.0001649856567383
56	248.75379395484924	pulse	0	t		54.0	2.5	blank	1.0	275.55051589012146	
56	249.57040095329285	movie	1		300	54.0	2.5	blank	1.0	276.36712288856506	2.5003821849823
56	250.35416102409363	pulse	1	t		54.0	2.5	blank	1.0	277.15088295936584	
56	251.95437002182007	pulse	1	t		54.0	2.5	blank	1.0	278.7510919570923	
56	252.07078313827515	fix_post	2		12	54.0	2.5	blank	1.0	278.86750507354736	0.1000518798828125
57	252.17083501815796	fix_pre	0		120	55.0	2.5	/experiments/knapen_AOT/AOT_stimuli/rescaled_final/0541_rv.mp4	0.0	278.9675569534302	1.0000839233398438
57	253.1709189414978	movie	1		245	55.0	2.5	/experiments/knapen_AOT/AOT_stimuli/rescaled_final/0541_rv.mp4	0.0	279.96764087677	2.4920670986175537
57	253.55522298812866	pulse	1	t		55.0	2.5	/experiments/knapen_AOT/AOT_stimuli/rescaled_final/0541_rv.mp4	0.0	280.3519449234009	
57	255.15475010871887	pulse	1	t		55.0	2.5	/experiments/knapen_AOT/AOT_stimuli/rescaled_final/0541_rv.mp4	0.0	281.9514720439911	
57	255.66298604011536	fix_post	2		12	55.0	2.5	/experiments/knapen_AOT/AOT_stimuli/rescaled_final/0541_rv.mp4	0.0	282.4597079753876	0.09997892379760742
58	255.76296496391296	fix_pre	0		120	56.0	2.5	/experiments/knapen_AOT/AOT_stimuli/rescaled_final/1739_rv.mp4	0.0	282.5596868991852	1.0001661777496338
58	256.75506806373596	pulse	0	t		56.0	2.5	/experiments/knapen_AOT/AOT_stimuli/rescaled_final/1739_rv.mp4	0.0	283.5517899990082	
58	256.7631311416626	movie	1		244	56.0	2.5	/experiments/knapen_AOT/AOT_stimuli/rescaled_final/1739_rv.mp4	0.0	283.5598530769348	2.5087478160858154
58	258.3555369377136	pulse	1	t		56.0	2.5	/experiments/knapen_AOT/AOT_stimuli/rescaled_final/1739_rv.mp4	0.0	285.15225887298584	
58	259.2718789577484	fix_post	2		12	56.0	2.5	/experiments/knapen_AOT/AOT_stimuli/rescaled_final/1739_rv.mp4	0.0	286.06860089302063	0.0999910831451416
59	259.37187004089355	fix_pre	0		120	57.0	2.5	/experiments/knapen_AOT/AOT_stimuli/rescaled_final/1974_rv.mp4	0.0	286.16859197616577	1.000140905380249
59	259.95552611351013	pulse	0	t		57.0	2.5	/experiments/knapen_AOT/AOT_stimuli/rescaled_final/1974_rv.mp4	0.0	286.75224804878235	
59	260.3720109462738	movie	1		244	57.0	2.5	/experiments/knapen_AOT/AOT_stimuli/rescaled_final/1974_rv.mp4	0.0	287.168732881546	2.50032901763916
59	261.5557630062103	pulse	1	t		57.0	2.5	/experiments/knapen_AOT/AOT_stimuli/rescaled_final/1974_rv.mp4	0.0	288.35248494148254	
59	262.87233996391296	fix_post	2		12	57.0	2.5	/experiments/knapen_AOT/AOT_stimuli/rescaled_final/1974_rv.mp4	0.0	289.6690618991852	0.1000521183013916
60	262.97239208221436	fix_pre	0		120	58.0	2.5	/experiments/knapen_AOT/AOT_stimuli/rescaled_final/0243_rv.mp4	0.0	289.7691140174866	1.0001559257507324
60	263.1560001373291	pulse	0	t		58.0	2.5	/experiments/knapen_AOT/AOT_stimuli/rescaled_final/0243_rv.mp4	0.0	289.9527220726013	
60	263.9725480079651	movie	1		245	58.0	2.5	/experiments/knapen_AOT/AOT_stimuli/rescaled_final/0243_rv.mp4	0.0	290.7692699432373	2.500394105911255
60	264.75630712509155	pulse	1	t		58.0	2.5	/experiments/knapen_AOT/AOT_stimuli/rescaled_final/0243_rv.mp4	0.0	291.55302906036377	
60	266.3538420200348	pulse	1	t		58.0	2.5	/experiments/knapen_AOT/AOT_stimuli/rescaled_final/0243_rv.mp4	0.0	293.150563955307	
60	266.47294211387634	fix_post	2		12	58.0	2.5	/experiments/knapen_AOT/AOT_stimuli/rescaled_final/0243_rv.mp4	0.0	293.26966404914856	0.09999895095825195
61	266.5729410648346	fix_pre	0		120	59.0	2.5	/experiments/knapen_AOT/AOT_stimuli/rescaled_final/2006_fw.mp4	0.0	293.3696630001068	1.0001490116119385
61	267.57309007644653	movie	1		243	59.0	2.5	/experiments/knapen_AOT/AOT_stimuli/rescaled_final/2006_fw.mp4	0.0	294.36981201171875	2.492025852203369
61	267.95741391181946	pulse	1	t		59.0	2.5	/experiments/knapen_AOT/AOT_stimuli/rescaled_final/2006_fw.mp4	0.0	294.7541358470917	
61	269.54964804649353	pulse	1	t		59.0	2.5	/experiments/knapen_AOT/AOT_stimuli/rescaled_final/2006_fw.mp4	0.0	296.34636998176575	
61	270.0651159286499	fix_post	2		12	59.0	2.5	/experiments/knapen_AOT/AOT_stimuli/rescaled_final/2006_fw.mp4	0.0	296.8618378639221	0.1000070571899414
62	270.16512298583984	fix_pre	0		120	60.0	2.5	/experiments/knapen_AOT/AOT_stimuli/rescaled_final/0528_rv.mp4	0.0	296.96184492111206	1.0001540184020996
62	271.1495990753174	pulse	0	t		60.0	2.5	/experiments/knapen_AOT/AOT_stimuli/rescaled_final/0528_rv.mp4	0.0	297.9463210105896	
62	271.16527700424194	movie	1		247	60.0	2.5	/experiments/knapen_AOT/AOT_stimuli/rescaled_final/0528_rv.mp4	0.0	297.96199893951416	2.508700132369995
62	272.7584481239319	pulse	1	t		60.0	2.5	/experiments/knapen_AOT/AOT_stimuli/rescaled_final/0528_rv.mp4	0.0	299.5551700592041	
62	273.67397713661194	fix_post	2		12	60.0	2.5	/experiments/knapen_AOT/AOT_stimuli/rescaled_final/0528_rv.mp4	0.0	300.47069907188416	0.10003781318664551
63	273.7740149497986	fix_pre	0		120	61.0	2.5	/experiments/knapen_AOT/AOT_stimuli/rescaled_final/1811_rv.mp4	0.0	300.5707368850708	1.000133991241455
63	274.35015201568604	pulse	0	t		61.0	2.5	/experiments/knapen_AOT/AOT_stimuli/rescaled_final/1811_rv.mp4	0.0	301.14687395095825	
63	274.77414894104004	movie	1		245	61.0	2.5	/experiments/knapen_AOT/AOT_stimuli/rescaled_final/1811_rv.mp4	0.0	301.57087087631226	2.500420093536377
63	275.9501440525055	pulse	1	t		61.0	2.5	/experiments/knapen_AOT/AOT_stimuli/rescaled_final/1811_rv.mp4	0.0	302.7468659877777	
63	277.2745690345764	fix_post	2		12	61.0	2.5	/experiments/knapen_AOT/AOT_stimuli/rescaled_final/1811_rv.mp4	0.0	304.07129096984863	0.09996390342712402
64	277.37453293800354	fix_pre	0		120	62.0	2.5	blank	1.0	304.17125487327576	1.0001721382141113
64	277.5497250556946	pulse	0	t		62.0	2.5	blank	1.0	304.3464469909668	
64	278.37470507621765	movie	1		300	62.0	2.5	blank	1.0	305.17142701148987	2.5003678798675537
64	279.149943113327	pulse	1	t		62.0	2.5	blank	1.0	305.94666504859924	
64	280.7503111362457	pulse	1	t		62.0	2.5	blank	1.0	307.54703307151794	
64	280.8750729560852	fix_post	2		12	62.0	2.5	blank	1.0	307.6717948913574	0.10000300407409668
65	280.9750759601593	fix_pre	0		119	63.0	2.5	/experiments/knapen_AOT/AOT_stimuli/rescaled_final/0782_fw.mp4	0.0	307.7717978954315	0.9918191432952881
65	281.9668951034546	movie	1		245	63.0	2.5	/experiments/knapen_AOT/AOT_stimuli/rescaled_final/0782_fw.mp4	0.0	308.7636170387268	2.5003719329833984
65	282.3555009365082	pulse	1	t		63.0	2.5	/experiments/knapen_AOT/AOT_stimuli/rescaled_final/0782_fw.mp4	0.0	309.1522228717804	
65	283.9506781101227	pulse	1	t		63.0	2.5	/experiments/knapen_AOT/AOT_stimuli/rescaled_final/0782_fw.mp4	0.0	310.7474000453949	
65	284.467267036438	fix_post	2		12	63.0	2.5	/experiments/knapen_AOT/AOT_stimuli/rescaled_final/0782_fw.mp4	0.0	311.2639889717102	0.10001707077026367
66	284.56728410720825	fix_pre	0		116	64.0	2.5	/experiments/knapen_AOT/AOT_stimuli/rescaled_final/1135_rv.mp4	0.0	311.36400604248047	0.9918308258056641
66	285.5509510040283	pulse	0	t		64.0	2.5	/experiments/knapen_AOT/AOT_stimuli/rescaled_final/1135_rv.mp4	0.0	312.34767293930054	
66	285.5591149330139	movie	1		247	64.0	2.5	/experiments/knapen_AOT/AOT_stimuli/rescaled_final/1135_rv.mp4	0.0	312.35583686828613	2.508653163909912
66	287.1517930030823	pulse	1	t		64.0	2.5	/experiments/knapen_AOT/AOT_stimuli/rescaled_final/1135_rv.mp4	0.0	313.9485149383545	
66	288.0677680969238	fix_post	2		12	64.0	2.5	/experiments/knapen_AOT/AOT_stimuli/rescaled_final/1135_rv.mp4	0.0	314.86449003219604	0.1001129150390625
67	288.1678810119629	fix_pre	0		120	65.0	2.5	/experiments/knapen_AOT/AOT_stimuli/rescaled_final/0101_rv.mp4	0.0	314.9646029472351	1.000277042388916
67	288.751501083374	pulse	0	t		65.0	2.5	/experiments/knapen_AOT/AOT_stimuli/rescaled_final/0101_rv.mp4	0.0	315.54822301864624	
67	289.1681580543518	movie	1		244	65.0	2.5	/experiments/knapen_AOT/AOT_stimuli/rescaled_final/0101_rv.mp4	0.0	315.964879989624	2.5002050399780273
67	290.3517761230469	pulse	1	t		65.0	2.5	/experiments/knapen_AOT/AOT_stimuli/rescaled_final/0101_rv.mp4	0.0	317.1484980583191	
67	291.66836309432983	fix_post	2		12	65.0	2.5	/experiments/knapen_AOT/AOT_stimuli/rescaled_final/0101_rv.mp4	0.0	318.46508502960205	0.10000896453857422
68	291.7683720588684	fix_pre	0		120	66.0	2.5	/experiments/knapen_AOT/AOT_stimuli/rescaled_final/0038_fw.mp4	0.0	318.5650939941406	1.0001499652862549
68	291.95195293426514	pulse	0	t		66.0	2.5	/experiments/knapen_AOT/AOT_stimuli/rescaled_final/0038_fw.mp4	0.0	318.74867486953735	
68	292.76852202415466	movie	1		244	66.0	2.5	/experiments/knapen_AOT/AOT_stimuli/rescaled_final/0038_fw.mp4	0.0	319.5652439594269	2.5003530979156494
68	293.5521631240845	pulse	1	t		66.0	2.5	/experiments/knapen_AOT/AOT_stimuli/rescaled_final/0038_fw.mp4	0.0	320.3488850593567	
68	295.15256214141846	pulse	1	t		66.0	2.5	/experiments/knapen_AOT/AOT_stimuli/rescaled_final/0038_fw.mp4	0.0	321.9492840766907	
68	295.2688751220703	fix_post	2		12	66.0	2.5	/experiments/knapen_AOT/AOT_stimuli/rescaled_final/0038_fw.mp4	0.0	322.06559705734253	0.10002493858337402
69	295.3689000606537	fix_pre	0		120	67.0	2.5	/experiments/knapen_AOT/AOT_stimuli/rescaled_final/1818_rv.mp4	0.0	322.1656219959259	1.0002000331878662
69	296.36910009384155	movie	1		243	67.0	2.5	/experiments/knapen_AOT/AOT_stimuli/rescaled_final/1818_rv.mp4	0.0	323.16582202911377	2.4920008182525635
69	296.75330996513367	pulse	1	t		67.0	2.5	/experiments/knapen_AOT/AOT_stimuli/rescaled_final/1818_rv.mp4	0.0	323.5500319004059	
69	298.3530020713806	pulse	1	t		67.0	2.5	/experiments/knapen_AOT/AOT_stimuli/rescaled_final/1818_rv.mp4	0.0	325.14972400665283	
69	298.8611009120941	fix_post	2		12	67.0	2.5	/experiments/knapen_AOT/AOT_stimuli/rescaled_final/1818_rv.mp4	0.0	325.65782284736633	0.1000220775604248
70	298.96112298965454	fix_pre	0		120	68.0	2.5	/experiments/knapen_AOT/AOT_stimuli/rescaled_final/0344_rv.mp4	0.0	325.75784492492676	1.0001261234283447
70	299.95315504074097	pulse	0	t		68.0	2.5	/experiments/knapen_AOT/AOT_stimuli/rescaled_final/0344_rv.mp4	0.0	326.7498769760132	
70	299.9612491130829	movie	1		245	68.0	2.5	/experiments/knapen_AOT/AOT_stimuli/rescaled_final/0344_rv.mp4	0.0	326.7579710483551	2.50869083404541
70	301.55408096313477	pulse	1	t		68.0	2.5	/experiments/knapen_AOT/AOT_stimuli/rescaled_final/0344_rv.mp4	0.0	328.350802898407	
70	302.4699399471283	fix_post	2		12	68.0	2.5	/experiments/knapen_AOT/AOT_stimuli/rescaled_final/0344_rv.mp4	0.0	329.2666618824005	0.10002899169921875
71	302.5699689388275	fix_pre	0		120	69.0	2.5	blank	1.0	329.36669087409973	1.0001730918884277
71	303.153617143631	pulse	0	t		69.0	2.5	blank	1.0	329.9503390789032	
71	303.57014203071594	movie	1		300	69.0	2.5	blank	1.0	330.36686396598816	2.5003490447998047
71	304.75383710861206	pulse	1	t		69.0	2.5	blank	1.0	331.5505590438843	
71	306.07049107551575	fix_post	2		12	69.0	2.5	blank	1.0	332.86721301078796	0.10002684593200684
72	306.17051792144775	fix_pre	0		120	70.0	2.5	/experiments/knapen_AOT/AOT_stimuli/rescaled_final/2177_fw.mp4	0.0	332.96723985671997	1.0002031326293945
72	306.3541660308838	pulse	0	t		70.0	2.5	/experiments/knapen_AOT/AOT_stimuli/rescaled_final/2177_fw.mp4	0.0	333.150887966156	
72	307.17072105407715	movie	1		245	70.0	2.5	/experiments/knapen_AOT/AOT_stimuli/rescaled_final/2177_fw.mp4	0.0	333.96744298934937	2.5003139972686768
72	307.9543309211731	pulse	1	t		70.0	2.5	/experiments/knapen_AOT/AOT_stimuli/rescaled_final/2177_fw.mp4	0.0	334.7510528564453	
72	309.55217695236206	pulse	1	t		70.0	2.5	/experiments/knapen_AOT/AOT_stimuli/rescaled_final/2177_fw.mp4	0.0	336.3488988876343	
72	309.6710350513458	fix_post	2		12	70.0	2.5	/experiments/knapen_AOT/AOT_stimuli/rescaled_final/2177_fw.mp4	0.0	336.46775698661804	0.10003900527954102
73	309.77107405662537	fix_pre	0		120	71.0	2.5	/experiments/knapen_AOT/AOT_stimuli/rescaled_final/1323_fw.mp4	0.0	336.5677959918976	1.0001230239868164
73	310.7711970806122	movie	1		243	71.0	2.5	/experiments/knapen_AOT/AOT_stimuli/rescaled_final/1323_fw.mp4	0.0	337.5679190158844	2.4920098781585693
73	311.1561279296875	pulse	1	t		71.0	2.5	/experiments/knapen_AOT/AOT_stimuli/rescaled_final/1323_fw.mp4	0.0	337.9528498649597	
73	312.7551980018616	pulse	1	t		71.0	2.5	/experiments/knapen_AOT/AOT_stimuli/rescaled_final/1323_fw.mp4	0.0	339.5519199371338	
73	313.26320695877075	fix_post	2		12	71.0	2.5	/experiments/knapen_AOT/AOT_stimuli/rescaled_final/1323_fw.mp4	0.0	340.05992889404297	0.10010409355163574
74	313.3633110523224	fix_pre	0		120	72.0	2.5	/experiments/knapen_AOT/AOT_stimuli/rescaled_final/0197_rv.mp4	0.0	340.1600329875946	1.000096082687378
74	314.3553171157837	pulse	0	t		72.0	2.5	/experiments/knapen_AOT/AOT_stimuli/rescaled_final/0197_rv.mp4	0.0	341.1520390510559	
74	314.36340713500977	movie	1		245	72.0	2.5	/experiments/knapen_AOT/AOT_stimuli/rescaled_final/0197_rv.mp4	0.0	341.160129070282	2.508741855621338
74	315.9560580253601	pulse	1	t		72.0	2.5	/experiments/knapen_AOT/AOT_stimuli/rescaled_final/0197_rv.mp4	0.0	342.7527799606323	
74	316.8721489906311	fix_post	2		12	72.0	2.5	/experiments/knapen_AOT/AOT_stimuli/rescaled_final/0197_rv.mp4	0.0	343.6688709259033	0.09998512268066406
75	316.97213411331177	fix_pre	0		120	73.0	2.5	/experiments/knapen_AOT/AOT_stimuli/rescaled_final/1173_rv.mp4	0.0	343.768856048584	1.0001628398895264
75	317.5557219982147	pulse	0	t		73.0	2.5	/experiments/knapen_AOT/AOT_stimuli/rescaled_final/1173_rv.mp4	0.0	344.35244393348694	
75	317.9722969532013	movie	1		245	73.0	2.5	/experiments/knapen_AOT/AOT_stimuli/rescaled_final/1173_rv.mp4	0.0	344.7690188884735	2.5003700256347656
75	319.1561510562897	pulse	1	t		73.0	2.5	/experiments/knapen_AOT/AOT_stimuli/rescaled_final/1173_rv.mp4	0.0	345.9528729915619	
75	320.47266697883606	fix_post	2		12	73.0	2.5	/experiments/knapen_AOT/AOT_stimuli/rescaled_final/1173_rv.mp4	0.0	347.2693889141083	0.1000070571899414
76	320.572674036026	fix_pre	0		120	74.0	2.5	/experiments/knapen_AOT/AOT_stimuli/rescaled_final/1223_fw.mp4	0.0	347.3693959712982	1.0001559257507324
76	320.7563419342041	pulse	0	t		74.0	2.5	/experiments/knapen_AOT/AOT_stimuli/rescaled_final/1223_fw.mp4	0.0	347.5530638694763	
76	321.57282996177673	movie	1		245	74.0	2.5	/experiments/knapen_AOT/AOT_stimuli/rescaled_final/1223_fw.mp4	0.0	348.36955189704895	2.5003819465637207
76	322.34912395477295	pulse	1	t		74.0	2.5	/experiments/knapen_AOT/AOT_stimuli/rescaled_final/1223_fw.mp4	0.0	349.14584589004517	
76	323.9541640281677	pulse	1	t		74.0	2.5	/experiments/knapen_AOT/AOT_stimuli/rescaled_final/1223_fw.mp4	0.0	350.75088596343994	
76	324.07321190834045	fix_post	2		12	74.0	2.5	/experiments/knapen_AOT/AOT_stimuli/rescaled_final/1223_fw.mp4	0.0	350.86993384361267	0.1000211238861084
77	324.17323303222656	fix_pre	0		120	75.0	2.5	/experiments/knapen_AOT/AOT_stimuli/rescaled_final/0200_fw.mp4	0.0	350.9699549674988	1.0001380443572998
77	325.17337107658386	movie	1		246	75.0	2.5	/experiments/knapen_AOT/AOT_stimuli/rescaled_final/0200_fw.mp4	0.0	351.9700930118561	2.4920220375061035
77	325.55740308761597	pulse	1	t		75.0	2.5	/experiments/knapen_AOT/AOT_stimuli/rescaled_final/0200_fw.mp4	0.0	352.3541250228882	
77	327.1500210762024	pulse	1	t		75.0	2.5	/experiments/knapen_AOT/AOT_stimuli/rescaled_final/0200_fw.mp4	0.0	353.9467430114746	
77	327.66539311408997	fix_post	2		12	75.0	2.5	/experiments/knapen_AOT/AOT_stimuli/rescaled_final/0200_fw.mp4	0.0	354.4621150493622	0.10001802444458008
78	327.76541113853455	fix_pre	0		120	76.0	2.5	blank	1.0	354.56213307380676	1.0001459121704102
78	328.74987506866455	pulse	0	t		76.0	2.5	blank	1.0	355.54659700393677	
78	328.76555705070496	movie	1		301	76.0	2.5	blank	1.0	355.5622789859772	2.5087199211120605
78	330.349524974823	pulse	1	t		76.0	2.5	blank	1.0	357.1462469100952	
78	331.274276971817	fix_post	2		12	76.0	2.5	blank	1.0	358.07099890708923	0.10005903244018555
79	331.3743360042572	fix_pre	0		120	77.0	2.5	/experiments/knapen_AOT/AOT_stimuli/rescaled_final/1809_fw.mp4	0.0	358.1710579395294	1.0000901222229004
79	331.949481010437	pulse	0	t		77.0	2.5	/experiments/knapen_AOT/AOT_stimuli/rescaled_final/1809_fw.mp4	0.0	358.74620294570923	
79	332.3744261264801	movie	1		244	77.0	2.5	/experiments/knapen_AOT/AOT_stimuli/rescaled_final/1809_fw.mp4	0.0	359.1711480617523	2.500396966934204
79	333.5540051460266	pulse	1	t		77.0	2.5	/experiments/knapen_AOT/AOT_stimuli/rescaled_final/1809_fw.mp4	0.0	360.3507270812988	
79	334.8748230934143	fix_post	2		12	77.0	2.5	/experiments/knapen_AOT/AOT_stimuli/rescaled_final/1809_fw.mp4	0.0	361.6715450286865	0.10002899169921875
80	334.9748520851135	fix_pre	0		120	78.0	2.5	/experiments/knapen_AOT/AOT_stimuli/rescaled_final/0830_rv.mp4	0.0	361.77157402038574	1.0000970363616943
80	335.1501281261444	pulse	0	t		78.0	2.5	/experiments/knapen_AOT/AOT_stimuli/rescaled_final/0830_rv.mp4	0.0	361.9468500614166	
80	335.9749491214752	movie	1		244	78.0	2.5	/experiments/knapen_AOT/AOT_stimuli/rescaled_final/0830_rv.mp4	0.0	362.77167105674744	2.5004048347473145
80	336.7503991127014	pulse	1	t		78.0	2.5	/experiments/knapen_AOT/AOT_stimuli/rescaled_final/0830_rv.mp4	0.0	363.54712104797363	
80	338.35051798820496	pulse	1	t		78.0	2.5	/experiments/knapen_AOT/AOT_stimuli/rescaled_final/0830_rv.mp4	0.0	365.1472399234772	
80	338.47535395622253	fix_post	2		12	78.0	2.5	/experiments/knapen_AOT/AOT_stimuli/rescaled_final/0830_rv.mp4	0.0	365.27207589149475	0.1000070571899414
81	338.5753610134125	fix_pre	0		119	79.0	2.5	/experiments/knapen_AOT/AOT_stimuli/rescaled_final/2017_rv.mp4	0.0	365.3720829486847	0.9918489456176758
81	339.56720995903015	movie	1		245	79.0	2.5	/experiments/knapen_AOT/AOT_stimuli/rescaled_final/2017_rv.mp4	0.0	366.36393189430237	2.5003321170806885
81	339.95200204849243	pulse	1	t		79.0	2.5	/experiments/knapen_AOT/AOT_stimuli/rescaled_final/2017_rv.mp4	0.0	366.74872398376465	
81	341.5509970188141	pulse	1	t		79.0	2.5	/experiments/knapen_AOT/AOT_stimuli/rescaled_final/2017_rv.mp4	0.0	368.3477189540863	
81	342.06754207611084	fix_post	2		12	79.0	2.5	/experiments/knapen_AOT/AOT_stimuli/rescaled_final/2017_rv.mp4	0.0	368.86426401138306	0.1000518798828125
82	342.16759395599365	fix_pre	0		119	80.0	2.5	/experiments/knapen_AOT/AOT_stimuli/rescaled_final/2038_fw.mp4	0.0	368.96431589126587	0.9917850494384766
82	343.15137100219727	pulse	0	t		80.0	2.5	/experiments/knapen_AOT/AOT_stimuli/rescaled_final/2038_fw.mp4	0.0	369.9480929374695	
82	343.15937900543213	movie	1		248	80.0	2.5	/experiments/knapen_AOT/AOT_stimuli/rescaled_final/2038_fw.mp4	0.0	369.95610094070435	2.5087029933929443
82	344.75200390815735	pulse	1	t		80.0	2.5	/experiments/knapen_AOT/AOT_stimuli/rescaled_final/2038_fw.mp4	0.0	371.54872584342957	
82	345.6680819988251	fix_post	2		12	80.0	2.5	/experiments/knapen_AOT/AOT_stimuli/rescaled_final/2038_fw.mp4	0.0	372.4648039340973	0.1000680923461914
83	345.76815009117126	fix_pre	0		120	81.0	2.5	/experiments/knapen_AOT/AOT_stimuli/rescaled_final/1477_rv.mp4	0.0	372.5648720264435	1.0001308917999268
83	346.35170793533325	pulse	0	t		81.0	2.5	/experiments/knapen_AOT/AOT_stimuli/rescaled_final/1477_rv.mp4	0.0	373.14842987060547	
83	346.7682809829712	movie	1		245	81.0	2.5	/experiments/knapen_AOT/AOT_stimuli/rescaled_final/1477_rv.mp4	0.0	373.5650029182434	2.5003480911254883
83	347.9521300792694	pulse	1	t		81.0	2.5	/experiments/knapen_AOT/AOT_stimuli/rescaled_final/1477_rv.mp4	0.0	374.7488520145416	
83	349.2686290740967	fix_post	2		12	81.0	2.5	/experiments/knapen_AOT/AOT_stimuli/rescaled_final/1477_rv.mp4	0.0	376.0653510093689	0.10000395774841309
84	349.3686330318451	fix_pre	0		120	82.0	2.5	blank	1.0	376.1653549671173	1.000143051147461
84	349.5523090362549	pulse	0	t		82.0	2.5	blank	1.0	376.3490309715271	
84	350.36877608299255	movie	1		300	82.0	2.5	blank	1.0	377.16549801826477	2.500386953353882
84	351.15242409706116	pulse	1	t		82.0	2.5	blank	1.0	377.9491460323334	
84	352.7526249885559	pulse	1	t		82.0	2.5	blank	1.0	379.5493469238281	
84	352.86916303634644	fix_post	2		12	82.0	2.5	blank	1.0	379.66588497161865	0.09999799728393555
85	352.96916103363037	fix_pre	0		120	83.0	2.5	/experiments/knapen_AOT/AOT_stimuli/rescaled_final/0782_fw.mp4	0.0	379.7658829689026	1.000166893005371
85	353.96932792663574	movie	1		244	83.0	2.5	/experiments/knapen_AOT/AOT_stimuli/rescaled_final/0782_fw.mp4	0.0	380.76604986190796	2.4920411109924316
85	354.3536570072174	pulse	1	t		83.0	2.5	/experiments/knapen_AOT/AOT_stimuli/rescaled_final/0782_fw.mp4	0.0	381.1503789424896	
85	355.9533040523529	pulse	1	t		83.0	2.5	/experiments/knapen_AOT/AOT_stimuli/rescaled_final/0782_fw.mp4	0.0	382.7500259876251	
85	356.4613690376282	fix_post	2		12	83.0	2.5	/experiments/knapen_AOT/AOT_stimuli/rescaled_final/0782_fw.mp4	0.0	383.2580909729004	0.10002803802490234
87	356.5613970756531	stim	0		1715					383.3581190109253	14.302132844924927
87	357.55349802970886	pulse	0	t						384.3502199649811	
87	359.15356397628784	pulse	0	t						385.95028591156006	
87	360.7538471221924	pulse	0	t						387.5505690574646	
87	362.354208946228	pulse	0	t						389.15093088150024	
87	363.95437598228455	pulse	0	t						390.75109791755676	
87	365.55454993247986	pulse	0	t						392.3512718677521	
87	367.1547520160675	pulse	0	t						393.9514739513397	
87	368.7551031112671	pulse	0	t						395.5518250465393	
87	370.3552830219269	pulse	0	t						397.1520049571991	
