trial_nr	onset	event_type	phase	response	nr_frames	movie_index	movie_duration	movie_file	blank	onset_abs	duration
0	0.16655755043029785	stim	0		1					16.176870822906494	0.008261919021606445
0	0.12472295761108398	response	0	space						16.13503623008728	
1	0.1748194694519043	stim	0		4358					16.1851327419281	36.33264946937561
1	36.497501850128174	pulse	0	t						52.50781512260437	
1	36.507468938827515	stim	1		1715					52.51778221130371	14.299951791763306
1	38.08903098106384	pulse	1	t						54.09934425354004	
1	39.689303159713745	pulse	1	t						55.69961643218994	
1	41.28978085517883	pulse	1	t						57.30009412765503	
1	42.889769554138184	pulse	1	t						58.90008282661438	
1	44.48999047279358	pulse	1	t						60.500303745269775	
1	46.09021735191345	pulse	1	t						62.10053062438965	
1	47.6904993057251	pulse	1	t						63.700812578201294	
1	49.29064655303955	pulse	1	t						65.30095982551575	
2	50.80742073059082	fix_pre	0		11	0.0	2.5	/experiments/Knapen_AOT/AOT_stimuli/rescaled_final/0185_fw.mp4	0.0	66.81773400306702	0.10839223861694336
2	50.89107656478882	pulse	0	t		0.0	2.5	/experiments/Knapen_AOT/AOT_stimuli/rescaled_final/0185_fw.mp4	0.0	66.90138983726501	
2	50.915812969207764	movie	1		288	0.0	2.5	/experiments/Knapen_AOT/AOT_stimuli/rescaled_final/0185_fw.mp4	0.0	66.92612624168396	2.491976737976074
2	52.490195989608765	pulse	1	t		0.0	2.5	/experiments/Knapen_AOT/AOT_stimuli/rescaled_final/0185_fw.mp4	0.0	68.50050926208496	
2	53.40778970718384	fix_post	2		12	0.0	2.5	/experiments/Knapen_AOT/AOT_stimuli/rescaled_final/0185_fw.mp4	0.0	69.41810297966003	0.10000991821289062
3	53.50779962539673	fix_pre	0		120	1.0	2.5	/experiments/Knapen_AOT/AOT_stimuli/rescaled_final/1230_rv.mp4	0.0	69.51811289787292	1.0085217952728271
3	54.09136366844177	pulse	0	t		1.0	2.5	/experiments/Knapen_AOT/AOT_stimuli/rescaled_final/1230_rv.mp4	0.0	70.10167694091797	
3	54.516321420669556	movie	1		273	1.0	2.5	/experiments/Knapen_AOT/AOT_stimuli/rescaled_final/1230_rv.mp4	0.0	70.52663469314575	2.492006540298462
3	55.69172215461731	pulse	1	t		1.0	2.5	/experiments/Knapen_AOT/AOT_stimuli/rescaled_final/1230_rv.mp4	0.0	71.7020354270935	
3	57.00832796096802	fix_post	2		12	1.0	2.5	/experiments/Knapen_AOT/AOT_stimuli/rescaled_final/1230_rv.mp4	0.0	73.01864123344421	0.10002493858337402
4	57.10835289955139	fix_pre	0		120	2.0	2.5	/experiments/Knapen_AOT/AOT_stimuli/rescaled_final/1672_fw.mp4	0.0	73.11866617202759	1.0084848403930664
4	57.29192638397217	pulse	0	t		2.0	2.5	/experiments/Knapen_AOT/AOT_stimuli/rescaled_final/1672_fw.mp4	0.0	73.30223965644836	
4	58.11683773994446	movie	1		288	2.0	2.5	/experiments/Knapen_AOT/AOT_stimuli/rescaled_final/1672_fw.mp4	0.0	74.12715101242065	2.4920172691345215
4	58.89015555381775	pulse	1	t		2.0	2.5	/experiments/Knapen_AOT/AOT_stimuli/rescaled_final/1672_fw.mp4	0.0	74.90046882629395	
4	60.49025917053223	pulse	1	t		2.0	2.5	/experiments/Knapen_AOT/AOT_stimuli/rescaled_final/1672_fw.mp4	0.0	76.50057244300842	
4	60.60885500907898	fix_post	2		12	2.0	2.5	/experiments/Knapen_AOT/AOT_stimuli/rescaled_final/1672_fw.mp4	0.0	76.61916828155518	0.10001873970031738
5	60.7088737487793	fix_pre	0		120	3.0	2.5	/experiments/Knapen_AOT/AOT_stimuli/rescaled_final/1230_rv.mp4	0.0	76.7191870212555	1.008516550064087
5	61.717390298843384	movie	1		273	3.0	2.5	/experiments/Knapen_AOT/AOT_stimuli/rescaled_final/1230_rv.mp4	0.0	77.72770357131958	2.4921255111694336
5	62.09056353569031	pulse	1	t		3.0	2.5	/experiments/Knapen_AOT/AOT_stimuli/rescaled_final/1230_rv.mp4	0.0	78.1008768081665	
5	63.69081664085388	pulse	1	t		3.0	2.5	/experiments/Knapen_AOT/AOT_stimuli/rescaled_final/1230_rv.mp4	0.0	79.70112991333008	
5	64.20951581001282	fix_post	2		12	3.0	2.5	/experiments/Knapen_AOT/AOT_stimuli/rescaled_final/1230_rv.mp4	0.0	80.21982908248901	0.09992647171020508
6	64.30944228172302	fix_pre	0		119	4.0	2.5	/experiments/Knapen_AOT/AOT_stimuli/rescaled_final/0206_fw.mp4	0.0	80.31975555419922	1.000135898590088
6	65.29309678077698	pulse	0	t		4.0	2.5	/experiments/Knapen_AOT/AOT_stimuli/rescaled_final/0206_fw.mp4	0.0	81.30341005325317	
6	65.30957818031311	movie	1		292	4.0	2.5	/experiments/Knapen_AOT/AOT_stimuli/rescaled_final/0206_fw.mp4	0.0	81.3198914527893	2.500380039215088
6	66.89201784133911	pulse	1	t		4.0	2.5	/experiments/Knapen_AOT/AOT_stimuli/rescaled_final/0206_fw.mp4	0.0	82.90233111381531	
6	67.8099582195282	fix_post	2		12	4.0	2.5	/experiments/Knapen_AOT/AOT_stimuli/rescaled_final/0206_fw.mp4	0.0	83.8202714920044	0.1000068187713623
7	67.90996503829956	fix_pre	0		120	5.0	2.5	blank	1.0	83.92027831077576	1.0001685619354248
7	68.49359583854675	pulse	0	t		5.0	2.5	blank	1.0	84.50390911102295	
7	68.91013360023499	movie	1		300	5.0	2.5	blank	1.0	84.92044687271118	2.5003509521484375
7	70.09380960464478	pulse	1	t		5.0	2.5	blank	1.0	86.10412287712097	
7	71.41048455238342	fix_post	2		12	5.0	2.5	blank	1.0	87.42079782485962	0.10005998611450195
8	71.51054453849792	fix_pre	0		120	6.0	2.5	/experiments/Knapen_AOT/AOT_stimuli/rescaled_final/0986_fw.mp4	0.0	87.52085781097412	1.0084772109985352
8	71.69413232803345	pulse	0	t		6.0	2.5	/experiments/Knapen_AOT/AOT_stimuli/rescaled_final/0986_fw.mp4	0.0	87.70444560050964	
8	72.51902174949646	movie	1		279	6.0	2.5	/experiments/Knapen_AOT/AOT_stimuli/rescaled_final/0986_fw.mp4	0.0	88.52933502197266	2.4919960498809814
8	73.29442167282104	pulse	1	t		6.0	2.5	/experiments/Knapen_AOT/AOT_stimuli/rescaled_final/0986_fw.mp4	0.0	89.30473494529724	
8	74.89271402359009	pulse	1	t		6.0	2.5	/experiments/Knapen_AOT/AOT_stimuli/rescaled_final/0986_fw.mp4	0.0	90.90302729606628	
8	75.01101779937744	fix_post	2		12	6.0	2.5	/experiments/Knapen_AOT/AOT_stimuli/rescaled_final/0986_fw.mp4	0.0	91.02133107185364	0.1000368595123291
9	75.11105465888977	fix_pre	0		120	7.0	2.5	/experiments/Knapen_AOT/AOT_stimuli/rescaled_final/1341_rv.mp4	0.0	91.12136793136597	1.0085055828094482
9	76.11956024169922	movie	1		278	7.0	2.5	/experiments/Knapen_AOT/AOT_stimuli/rescaled_final/1341_rv.mp4	0.0	92.12987351417542	2.491994857788086
9	76.4927728176117	pulse	1	t		7.0	2.5	/experiments/Knapen_AOT/AOT_stimuli/rescaled_final/1341_rv.mp4	0.0	92.50308609008789	
9	78.09310555458069	pulse	1	t		7.0	2.5	/experiments/Knapen_AOT/AOT_stimuli/rescaled_final/1341_rv.mp4	0.0	94.10341882705688	
9	78.6115550994873	fix_post	2		12	7.0	2.5	/experiments/Knapen_AOT/AOT_stimuli/rescaled_final/1341_rv.mp4	0.0	94.6218683719635	0.10003209114074707
10	78.71158719062805	fix_pre	0		118	8.0	2.5	/experiments/Knapen_AOT/AOT_stimuli/rescaled_final/1826_fw.mp4	0.0	94.72190046310425	0.9919707775115967
10	79.68728804588318	pulse	0	t		8.0	2.5	/experiments/Knapen_AOT/AOT_stimuli/rescaled_final/1826_fw.mp4	0.0	95.69760131835938	
10	79.70355796813965	movie	1		281	8.0	2.5	/experiments/Knapen_AOT/AOT_stimuli/rescaled_final/1826_fw.mp4	0.0	95.71387124061584	2.5002753734588623
10	81.28752183914185	pulse	1	t		8.0	2.5	/experiments/Knapen_AOT/AOT_stimuli/rescaled_final/1826_fw.mp4	0.0	97.29783511161804	
10	82.20383334159851	fix_post	2		12	8.0	2.5	/experiments/Knapen_AOT/AOT_stimuli/rescaled_final/1826_fw.mp4	0.0	98.2141466140747	0.10002970695495605
11	82.30386304855347	fix_pre	0		120	9.0	2.5	/experiments/Knapen_AOT/AOT_stimuli/rescaled_final/0934_fw.mp4	0.0	98.31417632102966	1.0086629390716553
11	82.88751745223999	pulse	0	t		9.0	2.5	/experiments/Knapen_AOT/AOT_stimuli/rescaled_final/0934_fw.mp4	0.0	98.89783072471619	
11	83.31252598762512	movie	1		280	9.0	2.5	/experiments/Knapen_AOT/AOT_stimuli/rescaled_final/0934_fw.mp4	0.0	99.32283926010132	2.491788625717163
11	84.48763656616211	pulse	1	t		9.0	2.5	/experiments/Knapen_AOT/AOT_stimuli/rescaled_final/0934_fw.mp4	0.0	100.4979498386383	
11	85.80431461334229	fix_post	2		12	9.0	2.5	/experiments/Knapen_AOT/AOT_stimuli/rescaled_final/0934_fw.mp4	0.0	101.81462788581848	0.10002326965332031
12	85.9043378829956	fix_pre	0		120	10.0	2.5	/experiments/Knapen_AOT/AOT_stimuli/rescaled_final/0142_fw.mp4	0.0	101.9146511554718	1.0084996223449707
12	86.08799123764038	pulse	0	t		10.0	2.5	/experiments/Knapen_AOT/AOT_stimuli/rescaled_final/0142_fw.mp4	0.0	102.09830451011658	
12	86.91283750534058	movie	1		280	10.0	2.5	/experiments/Knapen_AOT/AOT_stimuli/rescaled_final/0142_fw.mp4	0.0	102.92315077781677	2.4920856952667236
12	87.68820929527283	pulse	1	t		10.0	2.5	/experiments/Knapen_AOT/AOT_stimuli/rescaled_final/0142_fw.mp4	0.0	103.69852256774902	
12	89.28839254379272	pulse	1	t		10.0	2.5	/experiments/Knapen_AOT/AOT_stimuli/rescaled_final/0142_fw.mp4	0.0	105.29870581626892	
12	89.4049232006073	fix_post	2		12	10.0	2.5	/experiments/Knapen_AOT/AOT_stimuli/rescaled_final/0142_fw.mp4	0.0	105.4152364730835	0.10001111030578613
13	89.50493431091309	fix_pre	0		120	11.0	2.5	/experiments/Knapen_AOT/AOT_stimuli/rescaled_final/1019_fw.mp4	0.0	105.51524758338928	1.0085158348083496
13	90.51345014572144	movie	1		286	11.0	2.5	/experiments/Knapen_AOT/AOT_stimuli/rescaled_final/1019_fw.mp4	0.0	106.52376341819763	2.491952419281006
13	90.88874697685242	pulse	1	t		11.0	2.5	/experiments/Knapen_AOT/AOT_stimuli/rescaled_final/1019_fw.mp4	0.0	106.89906024932861	
13	92.48892879486084	pulse	1	t		11.0	2.5	/experiments/Knapen_AOT/AOT_stimuli/rescaled_final/1019_fw.mp4	0.0	108.49924206733704	
13	93.00540256500244	fix_post	2		12	11.0	2.5	/experiments/Knapen_AOT/AOT_stimuli/rescaled_final/1019_fw.mp4	0.0	109.01571583747864	0.10003232955932617
14	93.10543489456177	fix_pre	0		119	12.0	2.5	/experiments/Knapen_AOT/AOT_stimuli/rescaled_final/1621_rv.mp4	0.0	109.11574816703796	1.000140905380249
14	94.08912801742554	pulse	0	t		12.0	2.5	/experiments/Knapen_AOT/AOT_stimuli/rescaled_final/1621_rv.mp4	0.0	110.09944128990173	
14	94.10557579994202	movie	1		287	12.0	2.5	/experiments/Knapen_AOT/AOT_stimuli/rescaled_final/1621_rv.mp4	0.0	110.11588907241821	2.5004215240478516
14	95.6876950263977	pulse	1	t		12.0	2.5	/experiments/Knapen_AOT/AOT_stimuli/rescaled_final/1621_rv.mp4	0.0	111.6980082988739	
14	96.60599732398987	fix_post	2		12	12.0	2.5	/experiments/Knapen_AOT/AOT_stimuli/rescaled_final/1621_rv.mp4	0.0	112.61631059646606	0.10002303123474121
15	96.70602035522461	fix_pre	0		120	13.0	2.5	/experiments/Knapen_AOT/AOT_stimuli/rescaled_final/1392_fw.mp4	0.0	112.7163336277008	1.0084459781646729
15	97.28968143463135	pulse	0	t		13.0	2.5	/experiments/Knapen_AOT/AOT_stimuli/rescaled_final/1392_fw.mp4	0.0	113.29999470710754	
15	97.71446633338928	movie	1		282	13.0	2.5	/experiments/Knapen_AOT/AOT_stimuli/rescaled_final/1392_fw.mp4	0.0	113.72477960586548	2.492086410522461
15	98.88790011405945	pulse	1	t		13.0	2.5	/experiments/Knapen_AOT/AOT_stimuli/rescaled_final/1392_fw.mp4	0.0	114.89821338653564	
15	100.20655274391174	fix_post	2		12	13.0	2.5	/experiments/Knapen_AOT/AOT_stimuli/rescaled_final/1392_fw.mp4	0.0	116.21686601638794	0.0999603271484375
16	100.30651307106018	fix_pre	0		120	14.0	2.5	blank	1.0	116.31682634353638	1.0001311302185059
16	100.49006628990173	pulse	0	t		14.0	2.5	blank	1.0	116.50037956237793	
16	101.30664420127869	movie	1		300	14.0	2.5	blank	1.0	117.31695747375488	2.5004475116729736
16	102.09034395217896	pulse	1	t		14.0	2.5	blank	1.0	118.10065722465515	
16	103.69053220748901	pulse	1	t		14.0	2.5	blank	1.0	119.70084547996521	
16	103.80709171295166	fix_post	2		12	14.0	2.5	blank	1.0	119.81740498542786	0.09996724128723145
17	103.90705895423889	fix_pre	0		120	15.0	2.5	/experiments/Knapen_AOT/AOT_stimuli/rescaled_final/0148_fw.mp4	0.0	119.91737222671509	1.0085439682006836
17	104.91560292243958	movie	1		285	15.0	2.5	/experiments/Knapen_AOT/AOT_stimuli/rescaled_final/0148_fw.mp4	0.0	120.92591619491577	2.491956949234009
17	105.29003477096558	pulse	1	t		15.0	2.5	/experiments/Knapen_AOT/AOT_stimuli/rescaled_final/0148_fw.mp4	0.0	121.30034804344177	
17	106.88908910751343	pulse	1	t		15.0	2.5	/experiments/Knapen_AOT/AOT_stimuli/rescaled_final/0148_fw.mp4	0.0	122.89940237998962	
17	107.40755987167358	fix_post	2		12	15.0	2.5	/experiments/Knapen_AOT/AOT_stimuli/rescaled_final/0148_fw.mp4	0.0	123.41787314414978	0.10003423690795898
18	107.50759410858154	fix_pre	0		119	16.0	2.5	/experiments/Knapen_AOT/AOT_stimuli/rescaled_final/0819_rv.mp4	0.0	123.51790738105774	1.0001637935638428
18	108.49122357368469	pulse	0	t		16.0	2.5	/experiments/Knapen_AOT/AOT_stimuli/rescaled_final/0819_rv.mp4	0.0	124.50153684616089	
18	108.50775790214539	movie	1		282	16.0	2.5	/experiments/Knapen_AOT/AOT_stimuli/rescaled_final/0819_rv.mp4	0.0	124.51807117462158	2.5003530979156494
18	110.08978700637817	pulse	1	t		16.0	2.5	/experiments/Knapen_AOT/AOT_stimuli/rescaled_final/0819_rv.mp4	0.0	126.10010027885437	
18	111.00811100006104	fix_post	2		12	16.0	2.5	/experiments/Knapen_AOT/AOT_stimuli/rescaled_final/0819_rv.mp4	0.0	127.01842427253723	0.10007214546203613
19	111.10818314552307	fix_pre	0		120	17.0	2.5	/experiments/Knapen_AOT/AOT_stimuli/rescaled_final/0448_fw.mp4	0.0	127.11849641799927	1.0084404945373535
19	111.69174361228943	pulse	0	t		17.0	2.5	/experiments/Knapen_AOT/AOT_stimuli/rescaled_final/0448_fw.mp4	0.0	127.70205688476562	
19	112.11662364006042	movie	1		282	17.0	2.5	/experiments/Knapen_AOT/AOT_stimuli/rescaled_final/0448_fw.mp4	0.0	128.12693691253662	2.492030143737793
19	113.2905764579773	pulse	1	t		17.0	2.5	/experiments/Knapen_AOT/AOT_stimuli/rescaled_final/0448_fw.mp4	0.0	129.3008897304535	
19	114.60865378379822	fix_post	2		12	17.0	2.5	/experiments/Knapen_AOT/AOT_stimuli/rescaled_final/0448_fw.mp4	0.0	130.6189670562744	0.10006976127624512
20	114.70872354507446	fix_pre	0		120	18.0	2.5	/experiments/Knapen_AOT/AOT_stimuli/rescaled_final/1672_fw.mp4	0.0	130.71903681755066	1.008439064025879
20	114.89257097244263	pulse	0	t		18.0	2.5	/experiments/Knapen_AOT/AOT_stimuli/rescaled_final/1672_fw.mp4	0.0	130.90288424491882	
20	115.71716260910034	movie	1		275	18.0	2.5	/experiments/Knapen_AOT/AOT_stimuli/rescaled_final/1672_fw.mp4	0.0	131.72747588157654	2.4920284748077393
20	116.49014854431152	pulse	1	t		18.0	2.5	/experiments/Knapen_AOT/AOT_stimuli/rescaled_final/1672_fw.mp4	0.0	132.50046181678772	
20	118.0910325050354	pulse	1	t		18.0	2.5	/experiments/Knapen_AOT/AOT_stimuli/rescaled_final/1672_fw.mp4	0.0	134.1013457775116	
20	118.20919108390808	fix_post	2		12	18.0	2.5	/experiments/Knapen_AOT/AOT_stimuli/rescaled_final/1672_fw.mp4	0.0	134.21950435638428	0.10012197494506836
21	118.30931305885315	fix_pre	0		120	19.0	2.5	/experiments/Knapen_AOT/AOT_stimuli/rescaled_final/1696_rv.mp4	0.0	134.31962633132935	1.0084350109100342
21	119.31774806976318	movie	1		280	19.0	2.5	/experiments/Knapen_AOT/AOT_stimuli/rescaled_final/1696_rv.mp4	0.0	135.32806134223938	2.4920101165771484
21	119.69177031517029	pulse	1	t		19.0	2.5	/experiments/Knapen_AOT/AOT_stimuli/rescaled_final/1696_rv.mp4	0.0	135.70208358764648	
21	121.29141068458557	pulse	1	t		19.0	2.5	/experiments/Knapen_AOT/AOT_stimuli/rescaled_final/1696_rv.mp4	0.0	137.30172395706177	
21	121.80975818634033	fix_post	2		12	19.0	2.5	/experiments/Knapen_AOT/AOT_stimuli/rescaled_final/1696_rv.mp4	0.0	137.82007145881653	0.10000967979431152
22	121.90976786613464	fix_pre	0		119	20.0	2.5	blank	1.0	137.92008113861084	0.9919254779815674
22	122.88682889938354	pulse	0	t		20.0	2.5	blank	1.0	138.89714217185974	
22	122.90169334411621	movie	1		301	20.0	2.5	blank	1.0	138.9120066165924	2.50858211517334
22	124.49390006065369	pulse	1	t		20.0	2.5	blank	1.0	140.50421333312988	
22	125.41027545928955	fix_post	2		12	20.0	2.5	blank	1.0	141.42058873176575	0.1000833511352539
23	125.5103588104248	fix_pre	0		120	21.0	2.5	/experiments/Knapen_AOT/AOT_stimuli/rescaled_final/1368_fw.mp4	0.0	141.520672082901	1.008507490158081
23	126.09392285346985	pulse	0	t		21.0	2.5	/experiments/Knapen_AOT/AOT_stimuli/rescaled_final/1368_fw.mp4	0.0	142.10423612594604	
23	126.51886630058289	movie	1		281	21.0	2.5	/experiments/Knapen_AOT/AOT_stimuli/rescaled_final/1368_fw.mp4	0.0	142.52917957305908	2.4919962882995605
23	127.69253373146057	pulse	1	t		21.0	2.5	/experiments/Knapen_AOT/AOT_stimuli/rescaled_final/1368_fw.mp4	0.0	143.70284700393677	
23	129.01086258888245	fix_post	2		12	21.0	2.5	/experiments/Knapen_AOT/AOT_stimuli/rescaled_final/1368_fw.mp4	0.0	145.02117586135864	0.10001897811889648
24	129.11088156700134	fix_pre	0		120	22.0	2.5	/experiments/Knapen_AOT/AOT_stimuli/rescaled_final/1441_fw.mp4	0.0	145.12119483947754	1.0084505081176758
24	129.28692293167114	pulse	0	t		22.0	2.5	/experiments/Knapen_AOT/AOT_stimuli/rescaled_final/1441_fw.mp4	0.0	145.29723620414734	
24	130.11933207511902	movie	1		283	22.0	2.5	/experiments/Knapen_AOT/AOT_stimuli/rescaled_final/1441_fw.mp4	0.0	146.12964534759521	2.4920289516448975
24	130.89295029640198	pulse	1	t		22.0	2.5	/experiments/Knapen_AOT/AOT_stimuli/rescaled_final/1441_fw.mp4	0.0	146.90326356887817	
24	132.48665118217468	pulse	1	t		22.0	2.5	/experiments/Knapen_AOT/AOT_stimuli/rescaled_final/1441_fw.mp4	0.0	148.49696445465088	
24	132.61136102676392	fix_post	2		12	22.0	2.5	/experiments/Knapen_AOT/AOT_stimuli/rescaled_final/1441_fw.mp4	0.0	148.6216742992401	0.10007977485656738
25	132.71144080162048	fix_pre	0		120	23.0	2.5	/experiments/Knapen_AOT/AOT_stimuli/rescaled_final/2025_rv.mp4	0.0	148.72175407409668	1.0084939002990723
25	133.71993470191956	movie	1		288	23.0	2.5	/experiments/Knapen_AOT/AOT_stimuli/rescaled_final/2025_rv.mp4	0.0	149.73024797439575	2.492032289505005
25	134.08680319786072	pulse	1	t		23.0	2.5	/experiments/Knapen_AOT/AOT_stimuli/rescaled_final/2025_rv.mp4	0.0	150.0971164703369	
25	135.687109708786	pulse	1	t		23.0	2.5	/experiments/Knapen_AOT/AOT_stimuli/rescaled_final/2025_rv.mp4	0.0	151.6974229812622	
25	136.21196699142456	fix_post	2		12	23.0	2.5	/experiments/Knapen_AOT/AOT_stimuli/rescaled_final/2025_rv.mp4	0.0	152.22228026390076	0.09998655319213867
26	136.3119535446167	fix_pre	0		118	24.0	2.5	/experiments/Knapen_AOT/AOT_stimuli/rescaled_final/1523_rv.mp4	0.0	152.3222668170929	0.9918029308319092
26	137.28726768493652	pulse	0	t		24.0	2.5	/experiments/Knapen_AOT/AOT_stimuli/rescaled_final/1523_rv.mp4	0.0	153.29758095741272	
26	137.3037564754486	movie	1		287	24.0	2.5	/experiments/Knapen_AOT/AOT_stimuli/rescaled_final/1523_rv.mp4	0.0	153.3140697479248	2.5003559589385986
26	138.88771605491638	pulse	1	t		24.0	2.5	/experiments/Knapen_AOT/AOT_stimuli/rescaled_final/1523_rv.mp4	0.0	154.89802932739258	
26	139.8041124343872	fix_post	2		12	24.0	2.5	/experiments/Knapen_AOT/AOT_stimuli/rescaled_final/1523_rv.mp4	0.0	155.8144257068634	0.1000051498413086
27	139.90411758422852	fix_pre	0		120	25.0	2.5	/experiments/Knapen_AOT/AOT_stimuli/rescaled_final/1769_rv.mp4	0.0	155.9144308567047	1.0085279941558838
27	140.48777413368225	pulse	0	t		25.0	2.5	/experiments/Knapen_AOT/AOT_stimuli/rescaled_final/1769_rv.mp4	0.0	156.49808740615845	
27	140.9126455783844	movie	1		286	25.0	2.5	/experiments/Knapen_AOT/AOT_stimuli/rescaled_final/1769_rv.mp4	0.0	156.9229588508606	2.4920008182525635
27	142.0880467891693	pulse	1	t		25.0	2.5	/experiments/Knapen_AOT/AOT_stimuli/rescaled_final/1769_rv.mp4	0.0	158.0983600616455	
27	143.40464639663696	fix_post	2		12	25.0	2.5	/experiments/Knapen_AOT/AOT_stimuli/rescaled_final/1769_rv.mp4	0.0	159.41495966911316	0.10003042221069336
28	143.50467681884766	fix_pre	0		120	26.0	2.5	blank	1.0	159.51499009132385	1.0001404285430908
28	143.68826413154602	pulse	0	t		26.0	2.5	blank	1.0	159.69857740402222	
28	144.50481724739075	movie	1		300	26.0	2.5	blank	1.0	160.51513051986694	2.50051212310791
28	145.2885000705719	pulse	1	t		26.0	2.5	blank	1.0	161.2988133430481	
28	146.888756275177	pulse	1	t		26.0	2.5	blank	1.0	162.8990695476532	
28	147.00532937049866	fix_post	2		12	26.0	2.5	blank	1.0	163.01564264297485	0.09988784790039062
29	147.10521721839905	fix_pre	0		120	27.0	2.5	/experiments/Knapen_AOT/AOT_stimuli/rescaled_final/1769_fw.mp4	0.0	163.11553049087524	1.0084896087646484
29	148.1137068271637	movie	1		286	27.0	2.5	/experiments/Knapen_AOT/AOT_stimuli/rescaled_final/1769_fw.mp4	0.0	164.1240200996399	2.492032766342163
29	148.487553358078	pulse	1	t		27.0	2.5	/experiments/Knapen_AOT/AOT_stimuli/rescaled_final/1769_fw.mp4	0.0	164.4978666305542	
29	150.08768510818481	pulse	1	t		27.0	2.5	/experiments/Knapen_AOT/AOT_stimuli/rescaled_final/1769_fw.mp4	0.0	166.097998380661	
29	150.60573959350586	fix_post	2		12	27.0	2.5	/experiments/Knapen_AOT/AOT_stimuli/rescaled_final/1769_fw.mp4	0.0	166.61605286598206	0.1000208854675293
30	150.7057604789734	fix_pre	0		119	28.0	2.5	/experiments/Knapen_AOT/AOT_stimuli/rescaled_final/1825_fw.mp4	0.0	166.71607375144958	1.0001816749572754
30	151.68943619728088	pulse	0	t		28.0	2.5	/experiments/Knapen_AOT/AOT_stimuli/rescaled_final/1825_fw.mp4	0.0	167.69974946975708	
30	151.70594215393066	movie	1		280	28.0	2.5	/experiments/Knapen_AOT/AOT_stimuli/rescaled_final/1825_fw.mp4	0.0	167.71625542640686	2.500324010848999
30	153.28821420669556	pulse	1	t		28.0	2.5	/experiments/Knapen_AOT/AOT_stimuli/rescaled_final/1825_fw.mp4	0.0	169.29852747917175	
30	154.20626616477966	fix_post	2		12	28.0	2.5	/experiments/Knapen_AOT/AOT_stimuli/rescaled_final/1825_fw.mp4	0.0	170.21657943725586	0.10008096694946289
31	154.30634713172913	fix_pre	0		120	29.0	2.5	/experiments/Knapen_AOT/AOT_stimuli/rescaled_final/1345_fw.mp4	0.0	170.31666040420532	1.00846266746521
31	154.88996243476868	pulse	0	t		29.0	2.5	/experiments/Knapen_AOT/AOT_stimuli/rescaled_final/1345_fw.mp4	0.0	170.90027570724487	
31	155.31480979919434	movie	1		280	29.0	2.5	/experiments/Knapen_AOT/AOT_stimuli/rescaled_final/1345_fw.mp4	0.0	171.32512307167053	2.4920244216918945
31	156.48850846290588	pulse	1	t		29.0	2.5	/experiments/Knapen_AOT/AOT_stimuli/rescaled_final/1345_fw.mp4	0.0	172.49882173538208	
31	157.80683422088623	fix_post	2		12	29.0	2.5	/experiments/Knapen_AOT/AOT_stimuli/rescaled_final/1345_fw.mp4	0.0	173.81714749336243	0.10001301765441895
32	157.90684723854065	fix_pre	0		120	30.0	2.5	/experiments/Knapen_AOT/AOT_stimuli/rescaled_final/1172_rv.mp4	0.0	173.91716051101685	1.008531093597412
32	158.0903775691986	pulse	0	t		30.0	2.5	/experiments/Knapen_AOT/AOT_stimuli/rescaled_final/1172_rv.mp4	0.0	174.1006908416748	
32	158.91537833213806	movie	1		276	30.0	2.5	/experiments/Knapen_AOT/AOT_stimuli/rescaled_final/1172_rv.mp4	0.0	174.92569160461426	2.491985321044922
32	159.69069862365723	pulse	1	t		30.0	2.5	/experiments/Knapen_AOT/AOT_stimuli/rescaled_final/1172_rv.mp4	0.0	175.70101189613342	
32	161.2889802455902	pulse	1	t		30.0	2.5	/experiments/Knapen_AOT/AOT_stimuli/rescaled_final/1172_rv.mp4	0.0	177.2992935180664	
32	161.40736365318298	fix_post	2		12	30.0	2.5	/experiments/Knapen_AOT/AOT_stimuli/rescaled_final/1172_rv.mp4	0.0	177.41767692565918	0.1000070571899414
33	161.50737071037292	fix_pre	0		120	31.0	2.5	/experiments/Knapen_AOT/AOT_stimuli/rescaled_final/2005_rv.mp4	0.0	177.51768398284912	1.0085103511810303
33	162.51588106155396	movie	1		281	31.0	2.5	/experiments/Knapen_AOT/AOT_stimuli/rescaled_final/2005_rv.mp4	0.0	178.52619433403015	2.4920272827148438
33	162.88951182365417	pulse	1	t		31.0	2.5	/experiments/Knapen_AOT/AOT_stimuli/rescaled_final/2005_rv.mp4	0.0	178.89982509613037	
33	164.48965048789978	pulse	1	t		31.0	2.5	/experiments/Knapen_AOT/AOT_stimuli/rescaled_final/2005_rv.mp4	0.0	180.49996376037598	
33	165.0079083442688	fix_post	2		12	31.0	2.5	/experiments/Knapen_AOT/AOT_stimuli/rescaled_final/2005_rv.mp4	0.0	181.018221616745	0.10002350807189941
34	165.1079318523407	fix_pre	0		119	32.0	2.5	/experiments/Knapen_AOT/AOT_stimuli/rescaled_final/0499_rv.mp4	0.0	181.1182451248169	1.008512258529663
34	166.0916349887848	pulse	0	t		32.0	2.5	/experiments/Knapen_AOT/AOT_stimuli/rescaled_final/0499_rv.mp4	0.0	182.101948261261	
34	166.11644411087036	movie	1		279	32.0	2.5	/experiments/Knapen_AOT/AOT_stimuli/rescaled_final/0499_rv.mp4	0.0	182.12675738334656	2.492022752761841
34	167.69129872322083	pulse	1	t		32.0	2.5	/experiments/Knapen_AOT/AOT_stimuli/rescaled_final/0499_rv.mp4	0.0	183.70161199569702	
34	168.6084668636322	fix_post	2		12	32.0	2.5	/experiments/Knapen_AOT/AOT_stimuli/rescaled_final/0499_rv.mp4	0.0	184.6187801361084	0.10008883476257324
35	168.70855569839478	fix_pre	0		120	33.0	2.5	blank	1.0	184.71886897087097	1.0000638961791992
35	169.2920787334442	pulse	0	t		33.0	2.5	blank	1.0	185.3023920059204	
35	169.70861959457397	movie	1		300	33.0	2.5	blank	1.0	185.71893286705017	2.500375747680664
35	170.8923478126526	pulse	1	t		33.0	2.5	blank	1.0	186.90266108512878	
35	172.20899534225464	fix_post	2		12	33.0	2.5	blank	1.0	188.21930861473083	0.1000511646270752
36	172.3090465068817	fix_pre	0		120	34.0	2.5	/experiments/Knapen_AOT/AOT_stimuli/rescaled_final/0293_fw.mp4	0.0	188.3193597793579	1.0084538459777832
36	172.4925365447998	pulse	0	t		34.0	2.5	/experiments/Knapen_AOT/AOT_stimuli/rescaled_final/0293_fw.mp4	0.0	188.502849817276	
36	173.3175003528595	movie	1		287	34.0	2.5	/experiments/Knapen_AOT/AOT_stimuli/rescaled_final/0293_fw.mp4	0.0	189.3278136253357	2.4920220375061035
36	174.09092807769775	pulse	1	t		34.0	2.5	/experiments/Knapen_AOT/AOT_stimuli/rescaled_final/0293_fw.mp4	0.0	190.10124135017395	
36	175.69106197357178	pulse	1	t		34.0	2.5	/experiments/Knapen_AOT/AOT_stimuli/rescaled_final/0293_fw.mp4	0.0	191.70137524604797	
36	175.8095223903656	fix_post	2		12	34.0	2.5	/experiments/Knapen_AOT/AOT_stimuli/rescaled_final/0293_fw.mp4	0.0	191.8198356628418	0.10001778602600098
37	175.9095401763916	fix_pre	0		120	35.0	2.5	/experiments/Knapen_AOT/AOT_stimuli/rescaled_final/0215_fw.mp4	0.0	191.9198534488678	1.008495569229126
37	176.91803574562073	movie	1		286	35.0	2.5	/experiments/Knapen_AOT/AOT_stimuli/rescaled_final/0215_fw.mp4	0.0	192.92834901809692	2.4920361042022705
37	177.29167103767395	pulse	1	t		35.0	2.5	/experiments/Knapen_AOT/AOT_stimuli/rescaled_final/0215_fw.mp4	0.0	193.30198431015015	
37	178.89124608039856	pulse	1	t		35.0	2.5	/experiments/Knapen_AOT/AOT_stimuli/rescaled_final/0215_fw.mp4	0.0	194.90155935287476	
37	179.410071849823	fix_post	2		12	35.0	2.5	/experiments/Knapen_AOT/AOT_stimuli/rescaled_final/0215_fw.mp4	0.0	195.4203851222992	0.10001778602600098
38	179.510089635849	fix_pre	0		119	36.0	2.5	/experiments/Knapen_AOT/AOT_stimuli/rescaled_final/0823_rv.mp4	0.0	195.5204029083252	1.0001981258392334
38	180.49374842643738	pulse	0	t		36.0	2.5	/experiments/Knapen_AOT/AOT_stimuli/rescaled_final/0823_rv.mp4	0.0	196.50406169891357	
38	180.51028776168823	movie	1		285	36.0	2.5	/experiments/Knapen_AOT/AOT_stimuli/rescaled_final/0823_rv.mp4	0.0	196.52060103416443	2.5003085136413574
38	182.09287095069885	pulse	1	t		36.0	2.5	/experiments/Knapen_AOT/AOT_stimuli/rescaled_final/0823_rv.mp4	0.0	198.10318422317505	
38	183.0105962753296	fix_post	2		12	36.0	2.5	/experiments/Knapen_AOT/AOT_stimuli/rescaled_final/0823_rv.mp4	0.0	199.0209095478058	0.10005640983581543
39	183.1106526851654	fix_pre	0		120	37.0	2.5	/experiments/Knapen_AOT/AOT_stimuli/rescaled_final/0897_fw.mp4	0.0	199.1209659576416	1.0085170269012451
39	183.69424080848694	pulse	0	t		37.0	2.5	/experiments/Knapen_AOT/AOT_stimuli/rescaled_final/0897_fw.mp4	0.0	199.70455408096313	
39	184.11916971206665	movie	1		277	37.0	2.5	/experiments/Knapen_AOT/AOT_stimuli/rescaled_final/0897_fw.mp4	0.0	200.12948298454285	2.4919843673706055
39	185.2932994365692	pulse	1	t		37.0	2.5	/experiments/Knapen_AOT/AOT_stimuli/rescaled_final/0897_fw.mp4	0.0	201.3036127090454	
39	186.61115407943726	fix_post	2		12	37.0	2.5	/experiments/Knapen_AOT/AOT_stimuli/rescaled_final/0897_fw.mp4	0.0	202.62146735191345	0.10000443458557129
40	186.71115851402283	fix_pre	0		120	38.0	2.5	/experiments/Knapen_AOT/AOT_stimuli/rescaled_final/0447_rv.mp4	0.0	202.72147178649902	1.0086443424224854
40	186.89475965499878	pulse	0	t		38.0	2.5	/experiments/Knapen_AOT/AOT_stimuli/rescaled_final/0447_rv.mp4	0.0	202.90507292747498	
40	187.7198028564453	movie	1		285	38.0	2.5	/experiments/Knapen_AOT/AOT_stimuli/rescaled_final/0447_rv.mp4	0.0	203.7301161289215	2.4918835163116455
40	188.4929358959198	pulse	1	t		38.0	2.5	/experiments/Knapen_AOT/AOT_stimuli/rescaled_final/0447_rv.mp4	0.0	204.503249168396	
40	190.087162733078	pulse	1	t		38.0	2.5	/experiments/Knapen_AOT/AOT_stimuli/rescaled_final/0447_rv.mp4	0.0	206.0974760055542	
40	190.21168637275696	fix_post	2		12	38.0	2.5	/experiments/Knapen_AOT/AOT_stimuli/rescaled_final/0447_rv.mp4	0.0	206.22199964523315	0.10012602806091309
41	190.31181240081787	fix_pre	0		120	39.0	2.5	/experiments/Knapen_AOT/AOT_stimuli/rescaled_final/1101_rv.mp4	0.0	206.32212567329407	1.0084545612335205
41	191.3202669620514	movie	1		281	39.0	2.5	/experiments/Knapen_AOT/AOT_stimuli/rescaled_final/1101_rv.mp4	0.0	207.3305802345276	2.491973638534546
41	191.68716263771057	pulse	1	t		39.0	2.5	/experiments/Knapen_AOT/AOT_stimuli/rescaled_final/1101_rv.mp4	0.0	207.69747591018677	
41	193.28770565986633	pulse	1	t		39.0	2.5	/experiments/Knapen_AOT/AOT_stimuli/rescaled_final/1101_rv.mp4	0.0	209.29801893234253	
41	193.81224060058594	fix_post	2		12	39.0	2.5	/experiments/Knapen_AOT/AOT_stimuli/rescaled_final/1101_rv.mp4	0.0	209.82255387306213	0.10000348091125488
42	193.9122440814972	fix_pre	0		118	40.0	2.5	/experiments/Knapen_AOT/AOT_stimuli/rescaled_final/0823_rv.mp4	0.0	209.9225573539734	0.9918365478515625
42	194.88791465759277	pulse	0	t		40.0	2.5	/experiments/Knapen_AOT/AOT_stimuli/rescaled_final/0823_rv.mp4	0.0	210.89822793006897	
42	194.90408062934875	movie	1		282	40.0	2.5	/experiments/Knapen_AOT/AOT_stimuli/rescaled_final/0823_rv.mp4	0.0	210.91439390182495	2.500354528427124
42	196.4875955581665	pulse	1	t		40.0	2.5	/experiments/Knapen_AOT/AOT_stimuli/rescaled_final/0823_rv.mp4	0.0	212.4979088306427	
42	197.40443515777588	fix_post	2		12	40.0	2.5	/experiments/Knapen_AOT/AOT_stimuli/rescaled_final/0823_rv.mp4	0.0	213.41474843025208	0.10006475448608398
43	197.50449991226196	fix_pre	0		120	41.0	2.5	blank	1.0	213.51481318473816	1.0000944137573242
43	198.0880823135376	pulse	0	t		41.0	2.5	blank	1.0	214.0983955860138	
43	198.5045943260193	movie	1		300	41.0	2.5	blank	1.0	214.51490759849548	2.500398635864258
43	199.68836283683777	pulse	1	t		41.0	2.5	blank	1.0	215.69867610931396	
43	201.00499296188354	fix_post	2		12	41.0	2.5	blank	1.0	217.01530623435974	0.10003113746643066
44	201.10502409934998	fix_pre	0		120	42.0	2.5	/experiments/Knapen_AOT/AOT_stimuli/rescaled_final/1043_fw.mp4	0.0	217.11533737182617	1.0084452629089355
44	201.28862524032593	pulse	0	t		42.0	2.5	/experiments/Knapen_AOT/AOT_stimuli/rescaled_final/1043_fw.mp4	0.0	217.29893851280212	
44	202.1134693622589	movie	1		275	42.0	2.5	/experiments/Knapen_AOT/AOT_stimuli/rescaled_final/1043_fw.mp4	0.0	218.1237826347351	2.4920456409454346
44	202.88731956481934	pulse	1	t		42.0	2.5	/experiments/Knapen_AOT/AOT_stimuli/rescaled_final/1043_fw.mp4	0.0	218.89763283729553	
44	204.48918175697327	pulse	1	t		42.0	2.5	/experiments/Knapen_AOT/AOT_stimuli/rescaled_final/1043_fw.mp4	0.0	220.49949502944946	
44	204.60551500320435	fix_post	2		12	42.0	2.5	/experiments/Knapen_AOT/AOT_stimuli/rescaled_final/1043_fw.mp4	0.0	220.61582827568054	0.1000070571899414
45	204.7055220603943	fix_pre	0		120	43.0	2.5	/experiments/Knapen_AOT/AOT_stimuli/rescaled_final/2032_fw.mp4	0.0	220.71583533287048	1.0085060596466064
45	205.7140281200409	movie	1		264	43.0	2.5	/experiments/Knapen_AOT/AOT_stimuli/rescaled_final/2032_fw.mp4	0.0	221.7243413925171	2.4920425415039062
45	206.08756852149963	pulse	1	t		43.0	2.5	/experiments/Knapen_AOT/AOT_stimuli/rescaled_final/2032_fw.mp4	0.0	222.09788179397583	
45	207.68780541419983	pulse	1	t		43.0	2.5	/experiments/Knapen_AOT/AOT_stimuli/rescaled_final/2032_fw.mp4	0.0	223.69811868667603	
45	208.2060706615448	fix_post	2		12	43.0	2.5	/experiments/Knapen_AOT/AOT_stimuli/rescaled_final/2032_fw.mp4	0.0	224.216383934021	0.10006475448608398
46	208.30613541603088	fix_pre	0		119	44.0	2.5	/experiments/Knapen_AOT/AOT_stimuli/rescaled_final/0008_rv.mp4	0.0	224.31644868850708	1.00014066696167
46	209.28979659080505	pulse	0	t		44.0	2.5	/experiments/Knapen_AOT/AOT_stimuli/rescaled_final/0008_rv.mp4	0.0	225.30010986328125	
46	209.30627608299255	movie	1		273	44.0	2.5	/experiments/Knapen_AOT/AOT_stimuli/rescaled_final/0008_rv.mp4	0.0	225.31658935546875	2.508760452270508
46	210.88958549499512	pulse	1	t		44.0	2.5	/experiments/Knapen_AOT/AOT_stimuli/rescaled_final/0008_rv.mp4	0.0	226.8998987674713	
46	211.81503653526306	fix_post	2		11	44.0	2.5	/experiments/Knapen_AOT/AOT_stimuli/rescaled_final/0008_rv.mp4	0.0	227.82534980773926	0.09155154228210449
47	211.90658807754517	fix_pre	0		120	45.0	2.5	/experiments/Knapen_AOT/AOT_stimuli/rescaled_final/1479_fw.mp4	0.0	227.91690135002136	1.008514642715454
47	212.4902265071869	pulse	0	t		45.0	2.5	/experiments/Knapen_AOT/AOT_stimuli/rescaled_final/1479_fw.mp4	0.0	228.5005397796631	
47	212.91510272026062	movie	1		274	45.0	2.5	/experiments/Knapen_AOT/AOT_stimuli/rescaled_final/1479_fw.mp4	0.0	228.92541599273682	2.492100238800049
47	214.08897066116333	pulse	1	t		45.0	2.5	/experiments/Knapen_AOT/AOT_stimuli/rescaled_final/1479_fw.mp4	0.0	230.09928393363953	
47	215.40720295906067	fix_post	2		12	45.0	2.5	/experiments/Knapen_AOT/AOT_stimuli/rescaled_final/1479_fw.mp4	0.0	231.41751623153687	0.09995079040527344
48	215.50715374946594	fix_pre	0		120	46.0	2.5	/experiments/Knapen_AOT/AOT_stimuli/rescaled_final/1653_fw.mp4	0.0	231.51746702194214	1.0085973739624023
48	215.69084858894348	pulse	0	t		46.0	2.5	/experiments/Knapen_AOT/AOT_stimuli/rescaled_final/1653_fw.mp4	0.0	231.70116186141968	
48	216.51575112342834	movie	1		259	46.0	2.5	/experiments/Knapen_AOT/AOT_stimuli/rescaled_final/1653_fw.mp4	0.0	232.52606439590454	2.491943597793579
48	217.28901481628418	pulse	1	t		46.0	2.5	/experiments/Knapen_AOT/AOT_stimuli/rescaled_final/1653_fw.mp4	0.0	233.29932808876038	
48	218.88960146903992	pulse	1	t		46.0	2.5	/experiments/Knapen_AOT/AOT_stimuli/rescaled_final/1653_fw.mp4	0.0	234.8999147415161	
48	219.00769472122192	fix_post	2		12	46.0	2.5	/experiments/Knapen_AOT/AOT_stimuli/rescaled_final/1653_fw.mp4	0.0	235.01800799369812	0.10000729560852051
49	219.10770201683044	fix_pre	0		120	47.0	2.5	/experiments/Knapen_AOT/AOT_stimuli/rescaled_final/1466_fw.mp4	0.0	235.11801528930664	1.0084822177886963
49	220.11618423461914	movie	1		278	47.0	2.5	/experiments/Knapen_AOT/AOT_stimuli/rescaled_final/1466_fw.mp4	0.0	236.12649750709534	2.4920592308044434
49	220.4897813796997	pulse	1	t		47.0	2.5	/experiments/Knapen_AOT/AOT_stimuli/rescaled_final/1466_fw.mp4	0.0	236.5000946521759	
49	222.08935022354126	pulse	1	t		47.0	2.5	/experiments/Knapen_AOT/AOT_stimuli/rescaled_final/1466_fw.mp4	0.0	238.09966349601746	
49	222.60824346542358	fix_post	2		12	47.0	2.5	/experiments/Knapen_AOT/AOT_stimuli/rescaled_final/1466_fw.mp4	0.0	238.61855673789978	0.09999990463256836
50	222.70824337005615	fix_pre	0		119	48.0	2.5	blank	1.0	238.71855664253235	0.991793155670166
50	223.69197392463684	pulse	0	t		48.0	2.5	blank	1.0	239.70228719711304	
50	223.70003652572632	movie	1		301	48.0	2.5	blank	1.0	239.71034979820251	2.5087509155273438
50	225.2921497821808	pulse	1	t		48.0	2.5	blank	1.0	241.30246305465698	
50	226.20878744125366	fix_post	2		12	48.0	2.5	blank	1.0	242.21910071372986	0.10010290145874023
51	226.3088903427124	fix_pre	0		120	49.0	2.5	/experiments/Knapen_AOT/AOT_stimuli/rescaled_final/1410_fw.mp4	0.0	242.3192036151886	1.0084102153778076
51	226.8924582004547	pulse	0	t		49.0	2.5	/experiments/Knapen_AOT/AOT_stimuli/rescaled_final/1410_fw.mp4	0.0	242.9027714729309	
51	227.3173005580902	movie	1		277	49.0	2.5	/experiments/Knapen_AOT/AOT_stimuli/rescaled_final/1410_fw.mp4	0.0	243.3276138305664	2.4920356273651123
51	228.4907944202423	pulse	1	t		49.0	2.5	/experiments/Knapen_AOT/AOT_stimuli/rescaled_final/1410_fw.mp4	0.0	244.5011076927185	
51	229.80933618545532	fix_post	2		12	49.0	2.5	/experiments/Knapen_AOT/AOT_stimuli/rescaled_final/1410_fw.mp4	0.0	245.81964945793152	0.10002422332763672
52	229.90936040878296	fix_pre	0		120	50.0	2.5	/experiments/Knapen_AOT/AOT_stimuli/rescaled_final/1010_fw.mp4	0.0	245.91967368125916	1.0084471702575684
52	230.09288787841797	pulse	0	t		50.0	2.5	/experiments/Knapen_AOT/AOT_stimuli/rescaled_final/1010_fw.mp4	0.0	246.10320115089417	
52	230.91780757904053	movie	1		277	50.0	2.5	/experiments/Knapen_AOT/AOT_stimuli/rescaled_final/1010_fw.mp4	0.0	246.92812085151672	2.492044687271118
52	231.69271302223206	pulse	1	t		50.0	2.5	/experiments/Knapen_AOT/AOT_stimuli/rescaled_final/1010_fw.mp4	0.0	247.70302629470825	
52	233.29367852210999	pulse	1	t		50.0	2.5	/experiments/Knapen_AOT/AOT_stimuli/rescaled_final/1010_fw.mp4	0.0	249.30399179458618	
52	233.40985226631165	fix_post	2		12	50.0	2.5	/experiments/Knapen_AOT/AOT_stimuli/rescaled_final/1010_fw.mp4	0.0	249.42016553878784	0.1000051498413086
53	233.50985741615295	fix_pre	0		120	51.0	2.5	/experiments/Knapen_AOT/AOT_stimuli/rescaled_final/1487_rv.mp4	0.0	249.52017068862915	1.0085840225219727
53	234.51844143867493	movie	1		281	51.0	2.5	/experiments/Knapen_AOT/AOT_stimuli/rescaled_final/1487_rv.mp4	0.0	250.52875471115112	2.49196195602417
53	234.89266514778137	pulse	1	t		51.0	2.5	/experiments/Knapen_AOT/AOT_stimuli/rescaled_final/1487_rv.mp4	0.0	250.90297842025757	
53	236.4940528869629	pulse	1	t		51.0	2.5	/experiments/Knapen_AOT/AOT_stimuli/rescaled_final/1487_rv.mp4	0.0	252.5043661594391	
53	237.0104033946991	fix_post	2		12	51.0	2.5	/experiments/Knapen_AOT/AOT_stimuli/rescaled_final/1487_rv.mp4	0.0	253.0207166671753	0.1000223159790039
54	237.1104257106781	fix_pre	0		119	52.0	2.5	/experiments/Knapen_AOT/AOT_stimuli/rescaled_final/1163_rv.mp4	0.0	253.1207389831543	1.0001325607299805
54	238.09409403800964	pulse	0	t		52.0	2.5	/experiments/Knapen_AOT/AOT_stimuli/rescaled_final/1163_rv.mp4	0.0	254.10440731048584	
54	238.11055827140808	movie	1		287	52.0	2.5	/experiments/Knapen_AOT/AOT_stimuli/rescaled_final/1163_rv.mp4	0.0	254.12087154388428	2.5004053115844727
54	239.69268107414246	pulse	1	t		52.0	2.5	/experiments/Knapen_AOT/AOT_stimuli/rescaled_final/1163_rv.mp4	0.0	255.70299434661865	
54	240.61096358299255	fix_post	2		12	52.0	2.5	/experiments/Knapen_AOT/AOT_stimuli/rescaled_final/1163_rv.mp4	0.0	256.62127685546875	0.09999871253967285
55	240.71096229553223	fix_pre	0		120	53.0	2.5	/experiments/Knapen_AOT/AOT_stimuli/rescaled_final/0930_fw.mp4	0.0	256.7212755680084	1.0085082054138184
55	241.29489755630493	pulse	0	t		53.0	2.5	/experiments/Knapen_AOT/AOT_stimuli/rescaled_final/0930_fw.mp4	0.0	257.3052108287811	
55	241.71947050094604	movie	1		273	53.0	2.5	/experiments/Knapen_AOT/AOT_stimuli/rescaled_final/0930_fw.mp4	0.0	257.72978377342224	2.4920215606689453
55	242.89322328567505	pulse	1	t		53.0	2.5	/experiments/Knapen_AOT/AOT_stimuli/rescaled_final/0930_fw.mp4	0.0	258.90353655815125	
55	244.211492061615	fix_post	2		12	53.0	2.5	/experiments/Knapen_AOT/AOT_stimuli/rescaled_final/0930_fw.mp4	0.0	260.2218053340912	0.10000920295715332
56	244.31150126457214	fix_pre	0		120	54.0	2.5	blank	1.0	260.32181453704834	1.0001437664031982
56	244.49505257606506	pulse	0	t		54.0	2.5	blank	1.0	260.50536584854126	
56	245.31164503097534	movie	1		300	54.0	2.5	blank	1.0	261.32195830345154	2.5003974437713623
56	246.08776211738586	pulse	1	t		54.0	2.5	blank	1.0	262.09807538986206	
56	247.68773674964905	pulse	1	t		54.0	2.5	blank	1.0	263.69805002212524	
56	247.8120424747467	fix_post	2		12	54.0	2.5	blank	1.0	263.8223557472229	0.09993886947631836
57	247.91198134422302	fix_pre	0		120	55.0	2.5	/experiments/Knapen_AOT/AOT_stimuli/rescaled_final/0783_fw.mp4	0.0	263.9222946166992	1.0085175037384033
57	248.92049884796143	movie	1		276	55.0	2.5	/experiments/Knapen_AOT/AOT_stimuli/rescaled_final/0783_fw.mp4	0.0	264.9308121204376	2.492048501968384
57	249.287757396698	pulse	1	t		55.0	2.5	/experiments/Knapen_AOT/AOT_stimuli/rescaled_final/0783_fw.mp4	0.0	265.2980706691742	
57	250.8876781463623	pulse	1	t		55.0	2.5	/experiments/Knapen_AOT/AOT_stimuli/rescaled_final/0783_fw.mp4	0.0	266.8979914188385	
57	251.4125473499298	fix_post	2		12	55.0	2.5	/experiments/Knapen_AOT/AOT_stimuli/rescaled_final/0783_fw.mp4	0.0	267.422860622406	0.10020709037780762
58	251.51275444030762	fix_pre	0		118	56.0	2.5	/experiments/Knapen_AOT/AOT_stimuli/rescaled_final/2078_fw.mp4	0.0	267.5230677127838	0.9916386604309082
58	252.48799014091492	pulse	0	t		56.0	2.5	/experiments/Knapen_AOT/AOT_stimuli/rescaled_final/2078_fw.mp4	0.0	268.4983034133911	
58	252.50439310073853	movie	1		281	56.0	2.5	/experiments/Knapen_AOT/AOT_stimuli/rescaled_final/2078_fw.mp4	0.0	268.5147063732147	2.5003788471221924
58	254.08831095695496	pulse	1	t		56.0	2.5	/experiments/Knapen_AOT/AOT_stimuli/rescaled_final/2078_fw.mp4	0.0	270.09862422943115	
58	255.00477194786072	fix_post	2		12	56.0	2.5	/experiments/Knapen_AOT/AOT_stimuli/rescaled_final/2078_fw.mp4	0.0	271.0150852203369	0.10019540786743164
59	255.10496735572815	fix_pre	0		120	57.0	2.5	/experiments/Knapen_AOT/AOT_stimuli/rescaled_final/1984_rv.mp4	0.0	271.11528062820435	1.0083115100860596
59	255.68841576576233	pulse	0	t		57.0	2.5	/experiments/Knapen_AOT/AOT_stimuli/rescaled_final/1984_rv.mp4	0.0	271.6987290382385	
59	256.1132788658142	movie	1		284	57.0	2.5	/experiments/Knapen_AOT/AOT_stimuli/rescaled_final/1984_rv.mp4	0.0	272.1235921382904	2.4920458793640137
59	257.28898096084595	pulse	1	t		57.0	2.5	/experiments/Knapen_AOT/AOT_stimuli/rescaled_final/1984_rv.mp4	0.0	273.29929423332214	
59	258.6053247451782	fix_post	2		12	57.0	2.5	/experiments/Knapen_AOT/AOT_stimuli/rescaled_final/1984_rv.mp4	0.0	274.6156380176544	0.09998488426208496
60	258.7053096294403	fix_pre	0		120	58.0	2.5	/experiments/Knapen_AOT/AOT_stimuli/rescaled_final/1321_fw.mp4	0.0	274.7156229019165	1.0085139274597168
60	258.88894629478455	pulse	0	t		58.0	2.5	/experiments/Knapen_AOT/AOT_stimuli/rescaled_final/1321_fw.mp4	0.0	274.89925956726074	
60	259.7138235569	movie	1		277	58.0	2.5	/experiments/Knapen_AOT/AOT_stimuli/rescaled_final/1321_fw.mp4	0.0	275.7241368293762	2.492032051086426
60	260.48931860923767	pulse	1	t		58.0	2.5	/experiments/Knapen_AOT/AOT_stimuli/rescaled_final/1321_fw.mp4	0.0	276.49963188171387	
60	262.08807253837585	pulse	1	t		58.0	2.5	/experiments/Knapen_AOT/AOT_stimuli/rescaled_final/1321_fw.mp4	0.0	278.09838581085205	
60	262.20585560798645	fix_post	2		12	58.0	2.5	/experiments/Knapen_AOT/AOT_stimuli/rescaled_final/1321_fw.mp4	0.0	278.21616888046265	0.10000085830688477
61	262.30585646629333	fix_pre	0		120	59.0	2.5	/experiments/Knapen_AOT/AOT_stimuli/rescaled_final/1341_fw.mp4	0.0	278.31616973876953	1.0085201263427734
61	263.3143765926361	movie	1		271	59.0	2.5	/experiments/Knapen_AOT/AOT_stimuli/rescaled_final/1341_fw.mp4	0.0	279.3246898651123	2.4920122623443604
61	263.6885521411896	pulse	1	t		59.0	2.5	/experiments/Knapen_AOT/AOT_stimuli/rescaled_final/1341_fw.mp4	0.0	279.69886541366577	
61	265.2899136543274	pulse	1	t		59.0	2.5	/experiments/Knapen_AOT/AOT_stimuli/rescaled_final/1341_fw.mp4	0.0	281.3002269268036	
61	265.80638885498047	fix_post	2		12	59.0	2.5	/experiments/Knapen_AOT/AOT_stimuli/rescaled_final/1341_fw.mp4	0.0	281.81670212745667	0.10007214546203613
62	265.9064610004425	fix_pre	0		119	60.0	2.5	/experiments/Knapen_AOT/AOT_stimuli/rescaled_final/1523_fw.mp4	0.0	281.9167742729187	1.0000543594360352
62	266.8901274204254	pulse	0	t		60.0	2.5	/experiments/Knapen_AOT/AOT_stimuli/rescaled_final/1523_fw.mp4	0.0	282.9004406929016	
62	266.90651535987854	movie	1		277	60.0	2.5	/experiments/Knapen_AOT/AOT_stimuli/rescaled_final/1523_fw.mp4	0.0	282.91682863235474	2.5004234313964844
62	268.4893753528595	pulse	1	t		60.0	2.5	/experiments/Knapen_AOT/AOT_stimuli/rescaled_final/1523_fw.mp4	0.0	284.4996886253357	
62	269.406938791275	fix_post	2		12	60.0	2.5	/experiments/Knapen_AOT/AOT_stimuli/rescaled_final/1523_fw.mp4	0.0	285.4172520637512	0.10000395774841309
63	269.50694274902344	fix_pre	0		120	61.0	2.5	/experiments/Knapen_AOT/AOT_stimuli/rescaled_final/0870_rv.mp4	0.0	285.51725602149963	1.0085012912750244
63	270.09086561203003	pulse	0	t		61.0	2.5	/experiments/Knapen_AOT/AOT_stimuli/rescaled_final/0870_rv.mp4	0.0	286.1011788845062	
63	270.51544404029846	movie	1		279	61.0	2.5	/experiments/Knapen_AOT/AOT_stimuli/rescaled_final/0870_rv.mp4	0.0	286.52575731277466	2.4920666217803955
63	271.68925642967224	pulse	1	t		61.0	2.5	/experiments/Knapen_AOT/AOT_stimuli/rescaled_final/0870_rv.mp4	0.0	287.69956970214844	
63	273.00751066207886	fix_post	2		12	61.0	2.5	/experiments/Knapen_AOT/AOT_stimuli/rescaled_final/0870_rv.mp4	0.0	289.01782393455505	0.10000085830688477
64	273.10751152038574	fix_pre	0		120	62.0	2.5	blank	1.0	289.11782479286194	1.0001049041748047
64	273.29102206230164	pulse	0	t		62.0	2.5	blank	1.0	289.30133533477783	
64	274.10761642456055	movie	1		300	62.0	2.5	blank	1.0	290.11792969703674	2.5003912448883057
64	274.89134311676025	pulse	1	t		62.0	2.5	blank	1.0	290.90165638923645	
64	276.4919376373291	pulse	1	t		62.0	2.5	blank	1.0	292.5022509098053	
64	276.60800766944885	fix_post	2		12	62.0	2.5	blank	1.0	292.61832094192505	0.10004138946533203
65	276.7080490589142	fix_pre	0		120	63.0	2.5	/experiments/Knapen_AOT/AOT_stimuli/rescaled_final/0709_fw.mp4	0.0	292.7183623313904	1.0084912776947021
65	277.7165403366089	movie	1		271	63.0	2.5	/experiments/Knapen_AOT/AOT_stimuli/rescaled_final/0709_fw.mp4	0.0	293.7268536090851	2.4919981956481934
65	278.09186840057373	pulse	1	t		63.0	2.5	/experiments/Knapen_AOT/AOT_stimuli/rescaled_final/0709_fw.mp4	0.0	294.1021816730499	
65	279.69072675704956	pulse	1	t		63.0	2.5	/experiments/Knapen_AOT/AOT_stimuli/rescaled_final/0709_fw.mp4	0.0	295.70104002952576	
65	280.2085385322571	fix_post	2		12	63.0	2.5	/experiments/Knapen_AOT/AOT_stimuli/rescaled_final/0709_fw.mp4	0.0	296.2188518047333	0.10006189346313477
66	280.3086004257202	fix_pre	0		119	64.0	2.5	/experiments/Knapen_AOT/AOT_stimuli/rescaled_final/1873_fw.mp4	0.0	296.3189136981964	1.000185489654541
66	281.29235458374023	pulse	0	t		64.0	2.5	/experiments/Knapen_AOT/AOT_stimuli/rescaled_final/1873_fw.mp4	0.0	297.30266785621643	
66	281.30878591537476	movie	1		267	64.0	2.5	/experiments/Knapen_AOT/AOT_stimuli/rescaled_final/1873_fw.mp4	0.0	297.31909918785095	2.500328779220581
66	282.8908660411835	pulse	1	t		64.0	2.5	/experiments/Knapen_AOT/AOT_stimuli/rescaled_final/1873_fw.mp4	0.0	298.90117931365967	
66	283.80911469459534	fix_post	2		12	64.0	2.5	/experiments/Knapen_AOT/AOT_stimuli/rescaled_final/1873_fw.mp4	0.0	299.81942796707153	0.10000228881835938
67	283.9091169834137	fix_pre	0		120	65.0	2.5	/experiments/Knapen_AOT/AOT_stimuli/rescaled_final/0450_fw.mp4	0.0	299.9194302558899	1.0085270404815674
67	284.49293971061707	pulse	0	t		65.0	2.5	/experiments/Knapen_AOT/AOT_stimuli/rescaled_final/0450_fw.mp4	0.0	300.50325298309326	
67	284.91764402389526	movie	1		260	65.0	2.5	/experiments/Knapen_AOT/AOT_stimuli/rescaled_final/0450_fw.mp4	0.0	300.92795729637146	2.492032527923584
67	286.0917477607727	pulse	1	t		65.0	2.5	/experiments/Knapen_AOT/AOT_stimuli/rescaled_final/0450_fw.mp4	0.0	302.1020610332489	
67	287.40967655181885	fix_post	2		12	65.0	2.5	/experiments/Knapen_AOT/AOT_stimuli/rescaled_final/0450_fw.mp4	0.0	303.41998982429504	0.09993886947631836
68	287.50961542129517	fix_pre	0		120	66.0	2.5	/experiments/Knapen_AOT/AOT_stimuli/rescaled_final/1331_fw.mp4	0.0	303.51992869377136	1.0085713863372803
68	287.69319009780884	pulse	0	t		66.0	2.5	/experiments/Knapen_AOT/AOT_stimuli/rescaled_final/1331_fw.mp4	0.0	303.70350337028503	
68	288.51818680763245	movie	1		274	66.0	2.5	/experiments/Knapen_AOT/AOT_stimuli/rescaled_final/1331_fw.mp4	0.0	304.52850008010864	2.4920907020568848
68	289.29114294052124	pulse	1	t		66.0	2.5	/experiments/Knapen_AOT/AOT_stimuli/rescaled_final/1331_fw.mp4	0.0	305.30145621299744	
68	290.89255023002625	pulse	1	t		66.0	2.5	/experiments/Knapen_AOT/AOT_stimuli/rescaled_final/1331_fw.mp4	0.0	306.90286350250244	
68	291.01027750968933	fix_post	2		12	66.0	2.5	/experiments/Knapen_AOT/AOT_stimuli/rescaled_final/1331_fw.mp4	0.0	307.0205907821655	0.09991979598999023
69	291.1101973056793	fix_pre	0		120	67.0	2.5	/experiments/Knapen_AOT/AOT_stimuli/rescaled_final/0273_fw.mp4	0.0	307.1205105781555	1.0085008144378662
69	292.1186981201172	movie	1		262	67.0	2.5	/experiments/Knapen_AOT/AOT_stimuli/rescaled_final/0273_fw.mp4	0.0	308.1290113925934	2.492203950881958
69	292.494252204895	pulse	1	t		67.0	2.5	/experiments/Knapen_AOT/AOT_stimuli/rescaled_final/0273_fw.mp4	0.0	308.5045654773712	
69	294.08726739883423	pulse	1	t		67.0	2.5	/experiments/Knapen_AOT/AOT_stimuli/rescaled_final/0273_fw.mp4	0.0	310.0975806713104	
69	294.61090207099915	fix_post	2		12	67.0	2.5	/experiments/Knapen_AOT/AOT_stimuli/rescaled_final/0273_fw.mp4	0.0	310.62121534347534	0.09985852241516113
70	294.7107605934143	fix_pre	0		119	68.0	2.5	blank	1.0	310.7210738658905	0.9917430877685547
70	295.6884651184082	pulse	0	t		68.0	2.5	blank	1.0	311.6987783908844	
70	295.70250368118286	movie	1		300	68.0	2.5	blank	1.0	311.71281695365906	2.508753538131714
70	297.2869040966034	pulse	1	t		68.0	2.5	blank	1.0	313.2972173690796	
70	298.2112572193146	fix_post	2		12	68.0	2.5	blank	1.0	314.22157049179077	0.10003423690795898
71	298.31129145622253	fix_pre	0		120	69.0	2.5	/experiments/Knapen_AOT/AOT_stimuli/rescaled_final/0152_rv.mp4	0.0	314.32160472869873	1.008481740951538
71	298.88700127601624	pulse	0	t		69.0	2.5	/experiments/Knapen_AOT/AOT_stimuli/rescaled_final/0152_rv.mp4	0.0	314.89731454849243	
71	299.3197731971741	movie	1		280	69.0	2.5	/experiments/Knapen_AOT/AOT_stimuli/rescaled_final/0152_rv.mp4	0.0	315.33008646965027	2.492020606994629
71	300.48714804649353	pulse	1	t		69.0	2.5	/experiments/Knapen_AOT/AOT_stimuli/rescaled_final/0152_rv.mp4	0.0	316.4974613189697	
71	301.8117938041687	fix_post	2		12	69.0	2.5	/experiments/Knapen_AOT/AOT_stimuli/rescaled_final/0152_rv.mp4	0.0	317.8221070766449	0.10004138946533203
72	301.91183519363403	fix_pre	0		120	70.0	2.5	/experiments/Knapen_AOT/AOT_stimuli/rescaled_final/0513_rv.mp4	0.0	317.92214846611023	1.0084972381591797
72	302.08741426467896	pulse	0	t		70.0	2.5	/experiments/Knapen_AOT/AOT_stimuli/rescaled_final/0513_rv.mp4	0.0	318.09772753715515	
72	302.9203324317932	movie	1		266	70.0	2.5	/experiments/Knapen_AOT/AOT_stimuli/rescaled_final/0513_rv.mp4	0.0	318.9306457042694	2.4920461177825928
72	303.6869969367981	pulse	1	t		70.0	2.5	/experiments/Knapen_AOT/AOT_stimuli/rescaled_final/0513_rv.mp4	0.0	319.6973102092743	
72	305.2879858016968	pulse	1	t		70.0	2.5	/experiments/Knapen_AOT/AOT_stimuli/rescaled_final/0513_rv.mp4	0.0	321.298299074173	
72	305.4123785495758	fix_post	2		12	70.0	2.5	/experiments/Knapen_AOT/AOT_stimuli/rescaled_final/0513_rv.mp4	0.0	321.422691822052	0.1000051498413086
73	305.5123836994171	fix_pre	0		120	71.0	2.5	/experiments/Knapen_AOT/AOT_stimuli/rescaled_final/1399_fw.mp4	0.0	321.5226969718933	1.008500099182129
73	306.52088379859924	movie	1		266	71.0	2.5	/experiments/Knapen_AOT/AOT_stimuli/rescaled_final/1399_fw.mp4	0.0	322.53119707107544	2.491994619369507
73	306.8879358768463	pulse	1	t		71.0	2.5	/experiments/Knapen_AOT/AOT_stimuli/rescaled_final/1399_fw.mp4	0.0	322.8982491493225	
73	308.487033367157	pulse	1	t		71.0	2.5	/experiments/Knapen_AOT/AOT_stimuli/rescaled_final/1399_fw.mp4	0.0	324.4973466396332	
73	309.01287841796875	fix_post	2		12	71.0	2.5	/experiments/Knapen_AOT/AOT_stimuli/rescaled_final/1399_fw.mp4	0.0	325.02319169044495	0.10008955001831055
74	309.11296796798706	fix_pre	0		118	72.0	2.5	/experiments/Knapen_AOT/AOT_stimuli/rescaled_final/0187_rv.mp4	0.0	325.12328124046326	1.0001559257507324
74	310.08830308914185	pulse	0	t		72.0	2.5	/experiments/Knapen_AOT/AOT_stimuli/rescaled_final/0187_rv.mp4	0.0	326.09861636161804	
74	310.1131238937378	movie	1		275	72.0	2.5	/experiments/Knapen_AOT/AOT_stimuli/rescaled_final/0187_rv.mp4	0.0	326.123437166214	2.4919536113739014
74	311.6871554851532	pulse	1	t		72.0	2.5	/experiments/Knapen_AOT/AOT_stimuli/rescaled_final/0187_rv.mp4	0.0	327.6974687576294	
74	312.6050775051117	fix_post	2		12	72.0	2.5	/experiments/Knapen_AOT/AOT_stimuli/rescaled_final/0187_rv.mp4	0.0	328.6153907775879	0.10002350807189941
75	312.7051010131836	fix_pre	0		120	73.0	2.5	/experiments/Knapen_AOT/AOT_stimuli/rescaled_final/1479_fw.mp4	0.0	328.7154142856598	1.0085031986236572
75	313.28892993927	pulse	0	t		73.0	2.5	/experiments/Knapen_AOT/AOT_stimuli/rescaled_final/1479_fw.mp4	0.0	329.2992432117462	
75	313.71360421180725	movie	1		273	73.0	2.5	/experiments/Knapen_AOT/AOT_stimuli/rescaled_final/1479_fw.mp4	0.0	329.72391748428345	2.492112159729004
75	314.8874716758728	pulse	1	t		73.0	2.5	/experiments/Knapen_AOT/AOT_stimuli/rescaled_final/1479_fw.mp4	0.0	330.897784948349	
75	316.20571637153625	fix_post	2		12	73.0	2.5	/experiments/Knapen_AOT/AOT_stimuli/rescaled_final/1479_fw.mp4	0.0	332.21602964401245	0.09993505477905273
76	316.3056514263153	fix_pre	0		120	74.0	2.5	/experiments/Knapen_AOT/AOT_stimuli/rescaled_final/0840_rv.mp4	0.0	332.3159646987915	1.008497953414917
76	316.48918867111206	pulse	0	t		74.0	2.5	/experiments/Knapen_AOT/AOT_stimuli/rescaled_final/0840_rv.mp4	0.0	332.49950194358826	
76	317.3141493797302	movie	1		275	74.0	2.5	/experiments/Knapen_AOT/AOT_stimuli/rescaled_final/0840_rv.mp4	0.0	333.3244626522064	2.492032766342163
76	318.0876317024231	pulse	1	t		74.0	2.5	/experiments/Knapen_AOT/AOT_stimuli/rescaled_final/0840_rv.mp4	0.0	334.0979449748993	
76	319.6876084804535	pulse	1	t		74.0	2.5	/experiments/Knapen_AOT/AOT_stimuli/rescaled_final/0840_rv.mp4	0.0	335.6979217529297	
76	319.8061821460724	fix_post	2		12	74.0	2.5	/experiments/Knapen_AOT/AOT_stimuli/rescaled_final/0840_rv.mp4	0.0	335.8164954185486	0.1000528335571289
77	319.9062349796295	fix_pre	0		120	75.0	2.5	/experiments/Knapen_AOT/AOT_stimuli/rescaled_final/1285_fw.mp4	0.0	335.9165482521057	1.008467197418213
77	320.91470217704773	movie	1		273	75.0	2.5	/experiments/Knapen_AOT/AOT_stimuli/rescaled_final/1285_fw.mp4	0.0	336.9250154495239	2.492006778717041
77	321.2900745868683	pulse	1	t		75.0	2.5	/experiments/Knapen_AOT/AOT_stimuli/rescaled_final/1285_fw.mp4	0.0	337.3003878593445	
77	322.8888440132141	pulse	1	t		75.0	2.5	/experiments/Knapen_AOT/AOT_stimuli/rescaled_final/1285_fw.mp4	0.0	338.8991572856903	
77	323.40670895576477	fix_post	2		12	75.0	2.5	/experiments/Knapen_AOT/AOT_stimuli/rescaled_final/1285_fw.mp4	0.0	339.41702222824097	0.10000872611999512
78	323.50671768188477	fix_pre	0		119	76.0	2.5	blank	1.0	339.51703095436096	0.9917776584625244
78	324.4904248714447	pulse	0	t		76.0	2.5	blank	1.0	340.5007381439209	
78	324.4984953403473	movie	1		301	76.0	2.5	blank	1.0	340.5088086128235	2.5087618827819824
78	326.090628862381	pulse	1	t		76.0	2.5	blank	1.0	342.1009421348572	
78	327.0072572231293	fix_post	2		12	76.0	2.5	blank	1.0	343.01757049560547	0.10001015663146973
79	327.10726737976074	fix_pre	0		120	77.0	2.5	/experiments/Knapen_AOT/AOT_stimuli/rescaled_final/0058_rv.mp4	0.0	343.11758065223694	1.0085535049438477
79	327.69097685813904	pulse	0	t		77.0	2.5	/experiments/Knapen_AOT/AOT_stimuli/rescaled_final/0058_rv.mp4	0.0	343.70129013061523	
79	328.1158208847046	movie	1		287	77.0	2.5	/experiments/Knapen_AOT/AOT_stimuli/rescaled_final/0058_rv.mp4	0.0	344.1261341571808	2.4920129776000977
79	329.2891721725464	pulse	1	t		77.0	2.5	/experiments/Knapen_AOT/AOT_stimuli/rescaled_final/0058_rv.mp4	0.0	345.2994854450226	
79	330.6078338623047	fix_post	2		12	77.0	2.5	/experiments/Knapen_AOT/AOT_stimuli/rescaled_final/0058_rv.mp4	0.0	346.6181471347809	0.10009169578552246
80	330.7079255580902	fix_pre	0		120	78.0	2.5	/experiments/Knapen_AOT/AOT_stimuli/rescaled_final/0205_rv.mp4	0.0	346.7182388305664	1.008411169052124
80	330.89137744903564	pulse	0	t		78.0	2.5	/experiments/Knapen_AOT/AOT_stimuli/rescaled_final/0205_rv.mp4	0.0	346.90169072151184	
80	331.71633672714233	movie	1		279	78.0	2.5	/experiments/Knapen_AOT/AOT_stimuli/rescaled_final/0205_rv.mp4	0.0	347.72664999961853	2.4920005798339844
80	332.4900074005127	pulse	1	t		78.0	2.5	/experiments/Knapen_AOT/AOT_stimuli/rescaled_final/0205_rv.mp4	0.0	348.5003206729889	
80	334.09009552001953	pulse	1	t		78.0	2.5	/experiments/Knapen_AOT/AOT_stimuli/rescaled_final/0205_rv.mp4	0.0	350.1004087924957	
80	334.2083373069763	fix_post	2		12	78.0	2.5	/experiments/Knapen_AOT/AOT_stimuli/rescaled_final/0205_rv.mp4	0.0	350.2186505794525	0.10007238388061523
81	334.30840969085693	fix_pre	0		120	79.0	2.5	/experiments/Knapen_AOT/AOT_stimuli/rescaled_final/0510_rv.mp4	0.0	350.31872296333313	1.0084311962127686
81	335.3168408870697	movie	1		262	79.0	2.5	/experiments/Knapen_AOT/AOT_stimuli/rescaled_final/0510_rv.mp4	0.0	351.3271541595459	2.4920365810394287
81	335.690701007843	pulse	1	t		79.0	2.5	/experiments/Knapen_AOT/AOT_stimuli/rescaled_final/0510_rv.mp4	0.0	351.7010142803192	
81	337.2904691696167	pulse	1	t		79.0	2.5	/experiments/Knapen_AOT/AOT_stimuli/rescaled_final/0510_rv.mp4	0.0	353.3007824420929	
81	337.80887746810913	fix_post	2		12	79.0	2.5	/experiments/Knapen_AOT/AOT_stimuli/rescaled_final/0510_rv.mp4	0.0	353.8191907405853	0.10003829002380371
82	337.90891575813293	fix_pre	0		119	80.0	2.5	/experiments/Knapen_AOT/AOT_stimuli/rescaled_final/1320_fw.mp4	0.0	353.91922903060913	1.0084986686706543
82	338.89263916015625	pulse	0	t		80.0	2.5	/experiments/Knapen_AOT/AOT_stimuli/rescaled_final/1320_fw.mp4	0.0	354.90295243263245	
82	338.9174144268036	movie	1		270	80.0	2.5	/experiments/Knapen_AOT/AOT_stimuli/rescaled_final/1320_fw.mp4	0.0	354.9277276992798	2.492039203643799
82	340.49128007888794	pulse	1	t		80.0	2.5	/experiments/Knapen_AOT/AOT_stimuli/rescaled_final/1320_fw.mp4	0.0	356.50159335136414	
82	341.4094536304474	fix_post	2		12	80.0	2.5	/experiments/Knapen_AOT/AOT_stimuli/rescaled_final/1320_fw.mp4	0.0	357.4197669029236	0.10002303123474121
83	341.50947666168213	fix_pre	0		120	81.0	2.5	/experiments/Knapen_AOT/AOT_stimuli/rescaled_final/0930_rv.mp4	0.0	357.5197899341583	1.0084500312805176
83	342.09307408332825	pulse	0	t		81.0	2.5	/experiments/Knapen_AOT/AOT_stimuli/rescaled_final/0930_rv.mp4	0.0	358.10338735580444	
83	342.51792669296265	movie	1		277	81.0	2.5	/experiments/Knapen_AOT/AOT_stimuli/rescaled_final/0930_rv.mp4	0.0	358.52823996543884	2.4920334815979004
83	343.69154953956604	pulse	1	t		81.0	2.5	/experiments/Knapen_AOT/AOT_stimuli/rescaled_final/0930_rv.mp4	0.0	359.70186281204224	
83	345.00996017456055	fix_post	2		12	81.0	2.5	/experiments/Knapen_AOT/AOT_stimuli/rescaled_final/0930_rv.mp4	0.0	361.02027344703674	0.10001659393310547
84	345.10997676849365	fix_pre	0		120	82.0	2.5	blank	1.0	361.12029004096985	1.0001704692840576
84	345.29362201690674	pulse	0	t		82.0	2.5	blank	1.0	361.30393528938293	
84	346.1101472377777	movie	1		300	82.0	2.5	blank	1.0	362.1204605102539	2.5003387928009033
84	346.89382576942444	pulse	1	t		82.0	2.5	blank	1.0	362.90413904190063	
84	348.4940731525421	pulse	1	t		82.0	2.5	blank	1.0	364.5043864250183	
84	348.6104860305786	fix_post	2		12	82.0	2.5	blank	1.0	364.6207993030548	0.10001659393310547
85	348.7105026245117	fix_pre	0		120	83.0	2.5	/experiments/Knapen_AOT/AOT_stimuli/rescaled_final/1230_fw.mp4	0.0	364.7208158969879	1.0086169242858887
85	349.7191195487976	movie	1		274	83.0	2.5	/experiments/Knapen_AOT/AOT_stimuli/rescaled_final/1230_fw.mp4	0.0	365.7294328212738	2.491950750350952
85	350.09299421310425	pulse	1	t		83.0	2.5	/experiments/Knapen_AOT/AOT_stimuli/rescaled_final/1230_fw.mp4	0.0	366.10330748558044	
85	351.6930944919586	pulse	1	t		83.0	2.5	/experiments/Knapen_AOT/AOT_stimuli/rescaled_final/1230_fw.mp4	0.0	367.7034077644348	
85	352.21107029914856	fix_post	2		12	83.0	2.5	/experiments/Knapen_AOT/AOT_stimuli/rescaled_final/1230_fw.mp4	0.0	368.22138357162476	0.10004901885986328
87	352.3111193180084	stim	0		1715					368.3214325904846	14.293740510940552
87	353.2874915599823	pulse	0	t						369.2978048324585	
87	354.88729524612427	pulse	0	t						370.89760851860046	
87	356.4875349998474	pulse	0	t						372.4978482723236	
87	358.08737874031067	pulse	0	t						374.09769201278687	
87	359.68755626678467	pulse	0	t						375.69786953926086	
87	361.2877459526062	pulse	0	t						377.2980592250824	
87	362.8879084587097	pulse	0	t						378.8982217311859	
87	364.4881920814514	pulse	0	t						380.4985053539276	
87	366.0883979797363	pulse	0	t						382.0987112522125	
