trial_nr	onset	event_type	phase	response	nr_frames	movie_index	movie_duration	movie_file	blank	onset_abs	duration
0	0.15813517570495605	stim	0		149					22.71485209465027	1.2417428493499756
0	1.3919169902801514	response	0	space						23.948633909225464	
1	1.3998780250549316	stim	0		37560					23.956594944000244	312.9978971481323
1	314.3950490951538	pulse	0	t						336.9517660140991	
1	314.39777517318726	stim	1		1717					336.95449209213257	14.308843851089478
1	315.9901080131531	pulse	1	t						338.5468249320984	
1	317.5901381969452	pulse	1	t						340.1468551158905	
1	319.19009709358215	pulse	1	t						341.74681401252747	
1	320.79012513160706	pulse	1	t						343.34684205055237	
1	322.3900899887085	pulse	1	t						344.9468069076538	
1	323.9901020526886	pulse	1	t						346.5468189716339	
1	325.5900971889496	pulse	1	t						348.1468141078949	
1	327.190083026886	pulse	1	t						349.7467999458313	
2	328.70661902427673	fix_pre	0		11	0.0	2.5	/experiments/AOT/AOT_stimuli/rescaled_final/0750_rv.mp4	0.0	351.26333594322205	0.09161710739135742
2	328.79010820388794	pulse	0	t		0.0	2.5	/experiments/AOT/AOT_stimuli/rescaled_final/0750_rv.mp4	0.0	351.34682512283325	
2	328.7982361316681	movie	1		244	0.0	2.5	/experiments/AOT/AOT_stimuli/rescaled_final/0750_rv.mp4	0.0	351.3549530506134	2.5082199573516846
2	330.39005398750305	pulse	1	t		0.0	2.5	/experiments/AOT/AOT_stimuli/rescaled_final/0750_rv.mp4	0.0	352.94677090644836	
2	331.3064560890198	fix_post	2		12	0.0	2.5	/experiments/AOT/AOT_stimuli/rescaled_final/0750_rv.mp4	0.0	353.8631730079651	0.1000819206237793
3	331.40653800964355	fix_pre	0		120	1.0	2.5	/experiments/AOT/AOT_stimuli/rescaled_final/1658_fw.mp4	0.0	353.96325492858887	0.9996421337127686
3	331.9901170730591	pulse	0	t		1.0	2.5	/experiments/AOT/AOT_stimuli/rescaled_final/1658_fw.mp4	0.0	354.5468339920044	
3	332.4061801433563	movie	1		245	1.0	2.5	/experiments/AOT/AOT_stimuli/rescaled_final/1658_fw.mp4	0.0	354.96289706230164	2.5003230571746826
3	333.5900909900665	pulse	1	t		1.0	2.5	/experiments/AOT/AOT_stimuli/rescaled_final/1658_fw.mp4	0.0	356.14680790901184	
3	334.906503200531	fix_post	2		12	1.0	2.5	/experiments/AOT/AOT_stimuli/rescaled_final/1658_fw.mp4	0.0	357.4632201194763	0.10007381439208984
4	335.0065770149231	fix_pre	0		120	2.0	2.5	/experiments/AOT/AOT_stimuli/rescaled_final/1657_rv.mp4	0.0	357.5632939338684	0.9999361038208008
4	335.19004702568054	pulse	0	t		2.0	2.5	/experiments/AOT/AOT_stimuli/rescaled_final/1657_rv.mp4	0.0	357.74676394462585	
4	336.0065131187439	movie	1		243	2.0	2.5	/experiments/AOT/AOT_stimuli/rescaled_final/1657_rv.mp4	0.0	358.5632300376892	2.5000510215759277
4	336.7900161743164	pulse	1	t		2.0	2.5	/experiments/AOT/AOT_stimuli/rescaled_final/1657_rv.mp4	0.0	359.3467330932617	
4	338.38847613334656	pulse	1	t		2.0	2.5	/experiments/AOT/AOT_stimuli/rescaled_final/1657_rv.mp4	0.0	360.94519305229187	
4	338.5065641403198	fix_post	2		12	2.0	2.5	/experiments/AOT/AOT_stimuli/rescaled_final/1657_rv.mp4	0.0	361.06328105926514	0.09999585151672363
5	338.60655999183655	fix_pre	0		120	3.0	2.5	/experiments/AOT/AOT_stimuli/rescaled_final/1201_rv.mp4	0.0	361.16327691078186	0.9999802112579346
5	339.6065402030945	movie	1		244	3.0	2.5	/experiments/AOT/AOT_stimuli/rescaled_final/1201_rv.mp4	0.0	362.1632571220398	2.500013828277588
5	339.989627122879	pulse	1	t		3.0	2.5	/experiments/AOT/AOT_stimuli/rescaled_final/1201_rv.mp4	0.0	362.54634404182434	
5	341.590026140213	pulse	1	t		3.0	2.5	/experiments/AOT/AOT_stimuli/rescaled_final/1201_rv.mp4	0.0	364.1467430591583	
5	342.10655403137207	fix_post	2		12	3.0	2.5	/experiments/AOT/AOT_stimuli/rescaled_final/1201_rv.mp4	0.0	364.6632709503174	0.10006403923034668
6	342.2066180706024	fix_pre	0		119	4.0	2.5	/experiments/AOT/AOT_stimuli/rescaled_final/1789_fw.mp4	0.0	364.76333498954773	0.9915299415588379
6	343.1900770664215	pulse	0	t		4.0	2.5	/experiments/AOT/AOT_stimuli/rescaled_final/1789_fw.mp4	0.0	365.7467939853668	
6	343.19814801216125	movie	1		246	4.0	2.5	/experiments/AOT/AOT_stimuli/rescaled_final/1789_fw.mp4	0.0	365.75486493110657	2.508385181427002
6	344.79022121429443	pulse	1	t		4.0	2.5	/experiments/AOT/AOT_stimuli/rescaled_final/1789_fw.mp4	0.0	367.34693813323975	
6	345.70653319358826	fix_post	2		12	4.0	2.5	/experiments/AOT/AOT_stimuli/rescaled_final/1789_fw.mp4	0.0	368.26325011253357	0.09995198249816895
7	345.8064851760864	fix_pre	0		120	5.0	2.5	blank	1.0	368.36320209503174	1.0000410079956055
7	346.38999605178833	pulse	0	t		5.0	2.5	blank	1.0	368.94671297073364	
7	346.80652618408203	movie	1		300	5.0	2.5	blank	1.0	369.36324310302734	2.49993896484375
7	347.98995208740234	pulse	1	t		5.0	2.5	blank	1.0	370.54666900634766	
7	349.3064651489258	fix_post	2		12	5.0	2.5	blank	1.0	371.8631820678711	0.10005784034729004
8	349.40652298927307	fix_pre	0		120	6.0	2.5	/experiments/AOT/AOT_stimuli/rescaled_final/1657_rv.mp4	0.0	371.9632399082184	1.0000371932983398
8	349.5899820327759	pulse	0	t		6.0	2.5	/experiments/AOT/AOT_stimuli/rescaled_final/1657_rv.mp4	0.0	372.1466989517212	
8	350.4065601825714	movie	1		243	6.0	2.5	/experiments/AOT/AOT_stimuli/rescaled_final/1657_rv.mp4	0.0	372.9632771015167	2.4999170303344727
8	351.18990302085876	pulse	1	t		6.0	2.5	/experiments/AOT/AOT_stimuli/rescaled_final/1657_rv.mp4	0.0	373.7466199398041	
8	352.7883200645447	pulse	1	t		6.0	2.5	/experiments/AOT/AOT_stimuli/rescaled_final/1657_rv.mp4	0.0	375.34503698349	
8	352.9064772129059	fix_post	2		12	6.0	2.5	/experiments/AOT/AOT_stimuli/rescaled_final/1657_rv.mp4	0.0	375.4631941318512	0.09999990463256836
9	353.00647711753845	fix_pre	0		120	7.0	2.5	/experiments/AOT/AOT_stimuli/rescaled_final/0967_fw.mp4	0.0	375.56319403648376	0.9999940395355225
9	354.006471157074	movie	1		246	7.0	2.5	/experiments/AOT/AOT_stimuli/rescaled_final/0967_fw.mp4	0.0	376.5631880760193	2.500046968460083
9	354.3897511959076	pulse	1	t		7.0	2.5	/experiments/AOT/AOT_stimuli/rescaled_final/0967_fw.mp4	0.0	376.9464681148529	
9	355.9899580478668	pulse	1	t		7.0	2.5	/experiments/AOT/AOT_stimuli/rescaled_final/0967_fw.mp4	0.0	378.54667496681213	
9	356.50651812553406	fix_post	2		12	7.0	2.5	/experiments/AOT/AOT_stimuli/rescaled_final/0967_fw.mp4	0.0	379.06323504447937	0.09953904151916504
10	356.6060571670532	fix_pre	0		119	8.0	2.5	/experiments/AOT/AOT_stimuli/rescaled_final/1137_rv.mp4	0.0	379.16277408599854	0.992189884185791
10	357.5899381637573	pulse	0	t		8.0	2.5	/experiments/AOT/AOT_stimuli/rescaled_final/1137_rv.mp4	0.0	380.14665508270264	
10	357.598247051239	movie	1		244	8.0	2.5	/experiments/AOT/AOT_stimuli/rescaled_final/1137_rv.mp4	0.0	380.1549639701843	2.5082030296325684
10	359.1893630027771	pulse	1	t		8.0	2.5	/experiments/AOT/AOT_stimuli/rescaled_final/1137_rv.mp4	0.0	381.7460799217224	
10	360.1064500808716	fix_post	2		12	8.0	2.5	/experiments/AOT/AOT_stimuli/rescaled_final/1137_rv.mp4	0.0	382.6631669998169	0.09999990463256836
11	360.20644998550415	fix_pre	0		120	9.0	2.5	/experiments/AOT/AOT_stimuli/rescaled_final/0735_rv.mp4	0.0	382.76316690444946	0.9999651908874512
11	360.7900331020355	pulse	0	t		9.0	2.5	/experiments/AOT/AOT_stimuli/rescaled_final/0735_rv.mp4	0.0	383.34675002098083	
11	361.2064151763916	movie	1		246	9.0	2.5	/experiments/AOT/AOT_stimuli/rescaled_final/0735_rv.mp4	0.0	383.7631320953369	2.499924898147583
11	362.389986038208	pulse	1	t		9.0	2.5	/experiments/AOT/AOT_stimuli/rescaled_final/0735_rv.mp4	0.0	384.9467029571533	
11	363.7063400745392	fix_post	2		12	9.0	2.5	/experiments/AOT/AOT_stimuli/rescaled_final/0735_rv.mp4	0.0	386.2630569934845	0.10009002685546875
12	363.80643010139465	fix_pre	0		120	10.0	2.5	/experiments/AOT/AOT_stimuli/rescaled_final/0087_fw.mp4	0.0	386.36314702033997	0.9998989105224609
12	363.98987102508545	pulse	0	t		10.0	2.5	/experiments/AOT/AOT_stimuli/rescaled_final/0087_fw.mp4	0.0	386.54658794403076	
12	364.8063290119171	movie	1		246	10.0	2.5	/experiments/AOT/AOT_stimuli/rescaled_final/0087_fw.mp4	0.0	387.3630459308624	2.5000131130218506
12	365.58984899520874	pulse	1	t		10.0	2.5	/experiments/AOT/AOT_stimuli/rescaled_final/0087_fw.mp4	0.0	388.14656591415405	
12	367.18990111351013	pulse	1	t		10.0	2.5	/experiments/AOT/AOT_stimuli/rescaled_final/0087_fw.mp4	0.0	389.74661803245544	
12	367.30634212493896	fix_post	2		12	10.0	2.5	/experiments/AOT/AOT_stimuli/rescaled_final/0087_fw.mp4	0.0	389.8630590438843	0.09998202323913574
13	367.4063241481781	fix_pre	0		120	11.0	2.5	/experiments/AOT/AOT_stimuli/rescaled_final/0750_rv.mp4	0.0	389.9630410671234	1.0000388622283936
13	368.4063630104065	movie	1		246	11.0	2.5	/experiments/AOT/AOT_stimuli/rescaled_final/0750_rv.mp4	0.0	390.9630799293518	2.4999799728393555
13	368.7895030975342	pulse	1	t		11.0	2.5	/experiments/AOT/AOT_stimuli/rescaled_final/0750_rv.mp4	0.0	391.3462200164795	
13	370.3897922039032	pulse	1	t		11.0	2.5	/experiments/AOT/AOT_stimuli/rescaled_final/0750_rv.mp4	0.0	392.9465091228485	
13	370.90634298324585	fix_post	2		12	11.0	2.5	/experiments/AOT/AOT_stimuli/rescaled_final/0750_rv.mp4	0.0	393.46305990219116	0.1000070571899414
14	371.0063500404358	fix_pre	0		119	12.0	2.5	/experiments/AOT/AOT_stimuli/rescaled_final/0992_fw.mp4	0.0	393.5630669593811	0.9916911125183105
14	371.9898490905762	pulse	0	t		12.0	2.5	/experiments/AOT/AOT_stimuli/rescaled_final/0992_fw.mp4	0.0	394.5465660095215	
14	371.9980411529541	movie	1		247	12.0	2.5	/experiments/AOT/AOT_stimuli/rescaled_final/0992_fw.mp4	0.0	394.5547580718994	2.508349895477295
14	373.58939719200134	pulse	1	t		12.0	2.5	/experiments/AOT/AOT_stimuli/rescaled_final/0992_fw.mp4	0.0	396.14611411094666	
14	374.5063910484314	fix_post	2		12	12.0	2.5	/experiments/AOT/AOT_stimuli/rescaled_final/0992_fw.mp4	0.0	397.0631079673767	0.09990906715393066
15	374.6063001155853	fix_pre	0		120	13.0	2.5	/experiments/AOT/AOT_stimuli/rescaled_final/0074_fw.mp4	0.0	397.16301703453064	1.0000219345092773
15	375.18987011909485	pulse	0	t		13.0	2.5	/experiments/AOT/AOT_stimuli/rescaled_final/0074_fw.mp4	0.0	397.74658703804016	
15	375.6063220500946	movie	1		247	13.0	2.5	/experiments/AOT/AOT_stimuli/rescaled_final/0074_fw.mp4	0.0	398.1630389690399	2.4996230602264404
15	376.78988814353943	pulse	1	t		13.0	2.5	/experiments/AOT/AOT_stimuli/rescaled_final/0074_fw.mp4	0.0	399.34660506248474	
15	378.10594511032104	fix_post	2		12	13.0	2.5	/experiments/AOT/AOT_stimuli/rescaled_final/0074_fw.mp4	0.0	400.66266202926636	0.10054993629455566
16	378.2064950466156	fix_pre	0		120	14.0	2.5	blank	1.0	400.7632119655609	0.9998321533203125
16	378.3898651599884	pulse	0	t		14.0	2.5	blank	1.0	400.9465820789337	
16	379.2063271999359	movie	1		300	14.0	2.5	blank	1.0	401.7630441188812	2.500053882598877
16	379.9898180961609	pulse	1	t		14.0	2.5	blank	1.0	402.5465350151062	
16	381.58982515335083	pulse	1	t		14.0	2.5	blank	1.0	404.14654207229614	
16	381.7063810825348	fix_post	2		12	14.0	2.5	blank	1.0	404.2630980014801	0.09993290901184082
17	381.80631399154663	fix_pre	0		120	15.0	2.5	/experiments/AOT/AOT_stimuli/rescaled_final/0116_fw.mp4	0.0	404.36303091049194	0.99996018409729
17	382.8062741756439	movie	1		246	15.0	2.5	/experiments/AOT/AOT_stimuli/rescaled_final/0116_fw.mp4	0.0	405.36299109458923	2.5000269412994385
17	383.1909430027008	pulse	1	t		15.0	2.5	/experiments/AOT/AOT_stimuli/rescaled_final/0116_fw.mp4	0.0	405.7476599216461	
17	384.78974199295044	pulse	1	t		15.0	2.5	/experiments/AOT/AOT_stimuli/rescaled_final/0116_fw.mp4	0.0	407.34645891189575	
17	385.30630111694336	fix_post	2		12	15.0	2.5	/experiments/AOT/AOT_stimuli/rescaled_final/0116_fw.mp4	0.0	407.8630180358887	0.09992098808288574
18	385.40622210502625	fix_pre	0		119	16.0	2.5	/experiments/AOT/AOT_stimuli/rescaled_final/1658_rv.mp4	0.0	407.96293902397156	0.9917030334472656
18	386.3898401260376	pulse	0	t		16.0	2.5	/experiments/AOT/AOT_stimuli/rescaled_final/1658_rv.mp4	0.0	408.9465570449829	
18	386.3979251384735	movie	1		247	16.0	2.5	/experiments/AOT/AOT_stimuli/rescaled_final/1658_rv.mp4	0.0	408.9546420574188	2.5085599422454834
18	387.9892430305481	pulse	1	t		16.0	2.5	/experiments/AOT/AOT_stimuli/rescaled_final/1658_rv.mp4	0.0	410.5459599494934	
18	388.906485080719	fix_post	2		12	16.0	2.5	/experiments/AOT/AOT_stimuli/rescaled_final/1658_rv.mp4	0.0	411.4632019996643	0.0998079776763916
19	389.0062930583954	fix_pre	0		120	17.0	2.5	/experiments/AOT/AOT_stimuli/rescaled_final/1349_fw.mp4	0.0	411.5630099773407	0.9999921321868896
19	389.5897390842438	pulse	0	t		17.0	2.5	/experiments/AOT/AOT_stimuli/rescaled_final/1349_fw.mp4	0.0	412.1464560031891	
19	390.0062851905823	movie	1		247	17.0	2.5	/experiments/AOT/AOT_stimuli/rescaled_final/1349_fw.mp4	0.0	412.5630021095276	2.4999728202819824
19	391.1898310184479	pulse	1	t		17.0	2.5	/experiments/AOT/AOT_stimuli/rescaled_final/1349_fw.mp4	0.0	413.7465479373932	
19	392.50625801086426	fix_post	2		12	17.0	2.5	/experiments/AOT/AOT_stimuli/rescaled_final/1349_fw.mp4	0.0	415.06297492980957	0.10005307197570801
20	392.60631108283997	fix_pre	0		120	18.0	2.5	/experiments/AOT/AOT_stimuli/rescaled_final/1260_rv.mp4	0.0	415.1630280017853	0.9999160766601562
20	392.78976011276245	pulse	0	t		18.0	2.5	/experiments/AOT/AOT_stimuli/rescaled_final/1260_rv.mp4	0.0	415.34647703170776	
20	393.6062271595001	movie	1		246	18.0	2.5	/experiments/AOT/AOT_stimuli/rescaled_final/1260_rv.mp4	0.0	416.16294407844543	2.5000369548797607
20	394.389799118042	pulse	1	t		18.0	2.5	/experiments/AOT/AOT_stimuli/rescaled_final/1260_rv.mp4	0.0	416.9465160369873	
20	395.98978900909424	pulse	1	t		18.0	2.5	/experiments/AOT/AOT_stimuli/rescaled_final/1260_rv.mp4	0.0	418.54650592803955	
20	396.1062641143799	fix_post	2		12	18.0	2.5	/experiments/AOT/AOT_stimuli/rescaled_final/1260_rv.mp4	0.0	418.6629810333252	0.09996700286865234
21	396.20623111724854	fix_pre	0		120	19.0	2.5	/experiments/AOT/AOT_stimuli/rescaled_final/2146_fw.mp4	0.0	418.76294803619385	1.0000629425048828
21	397.2062940597534	movie	1		246	19.0	2.5	/experiments/AOT/AOT_stimuli/rescaled_final/2146_fw.mp4	0.0	419.76301097869873	2.499958038330078
21	397.58923721313477	pulse	1	t		19.0	2.5	/experiments/AOT/AOT_stimuli/rescaled_final/2146_fw.mp4	0.0	420.1459541320801	
21	399.18978214263916	pulse	1	t		19.0	2.5	/experiments/AOT/AOT_stimuli/rescaled_final/2146_fw.mp4	0.0	421.7464990615845	
21	399.7062520980835	fix_post	2		12	19.0	2.5	/experiments/AOT/AOT_stimuli/rescaled_final/2146_fw.mp4	0.0	422.2629690170288	0.09992289543151855
22	399.806174993515	fix_pre	0		119	20.0	2.5	/experiments/AOT/AOT_stimuli/rescaled_final/0499_fw.mp4	0.0	422.3628919124603	0.9916701316833496
22	400.7897381782532	pulse	0	t		20.0	2.5	/experiments/AOT/AOT_stimuli/rescaled_final/0499_fw.mp4	0.0	423.3464550971985	
22	400.79784512519836	movie	1		246	20.0	2.5	/experiments/AOT/AOT_stimuli/rescaled_final/0499_fw.mp4	0.0	423.3545620441437	2.5083069801330566
22	402.38968420028687	pulse	1	t		20.0	2.5	/experiments/AOT/AOT_stimuli/rescaled_final/0499_fw.mp4	0.0	424.9464011192322	
22	403.3061521053314	fix_post	2		12	20.0	2.5	/experiments/AOT/AOT_stimuli/rescaled_final/0499_fw.mp4	0.0	425.86286902427673	0.10010099411010742
23	403.4062530994415	fix_pre	0		120	21.0	2.5	blank	1.0	425.96297001838684	1.000049114227295
23	403.9909610748291	pulse	0	t		21.0	2.5	blank	1.0	426.5476779937744	
23	404.4063022136688	movie	1		300	21.0	2.5	blank	1.0	426.96301913261414	2.5000829696655273
23	405.58969807624817	pulse	1	t		21.0	2.5	blank	1.0	428.1464149951935	
23	406.90638518333435	fix_post	2		12	21.0	2.5	blank	1.0	429.46310210227966	0.09985589981079102
24	407.00624108314514	fix_pre	0		120	22.0	2.5	/experiments/AOT/AOT_stimuli/rescaled_final/2068_rv.mp4	0.0	429.56295800209045	1.0000579357147217
24	407.18975615501404	pulse	0	t		22.0	2.5	/experiments/AOT/AOT_stimuli/rescaled_final/2068_rv.mp4	0.0	429.74647307395935	
24	408.00629901885986	movie	1		244	22.0	2.5	/experiments/AOT/AOT_stimuli/rescaled_final/2068_rv.mp4	0.0	430.5630159378052	2.4999420642852783
24	408.7896821498871	pulse	1	t		22.0	2.5	/experiments/AOT/AOT_stimuli/rescaled_final/2068_rv.mp4	0.0	431.3463990688324	
24	410.3881230354309	pulse	1	t		22.0	2.5	/experiments/AOT/AOT_stimuli/rescaled_final/2068_rv.mp4	0.0	432.9448399543762	
24	410.50624108314514	fix_post	2		12	22.0	2.5	/experiments/AOT/AOT_stimuli/rescaled_final/2068_rv.mp4	0.0	433.06295800209045	0.09996891021728516
25	410.6062099933624	fix_pre	0		120	23.0	2.5	/experiments/AOT/AOT_stimuli/rescaled_final/1970_rv.mp4	0.0	433.16292691230774	1.000040054321289
25	411.6062500476837	movie	1		248	23.0	2.5	/experiments/AOT/AOT_stimuli/rescaled_final/1970_rv.mp4	0.0	434.162966966629	2.4997379779815674
25	411.98925614356995	pulse	1	t		23.0	2.5	/experiments/AOT/AOT_stimuli/rescaled_final/1970_rv.mp4	0.0	434.54597306251526	
25	413.5892171859741	pulse	1	t		23.0	2.5	/experiments/AOT/AOT_stimuli/rescaled_final/1970_rv.mp4	0.0	436.14593410491943	
25	414.1059880256653	fix_post	2		12	23.0	2.5	/experiments/AOT/AOT_stimuli/rescaled_final/1970_rv.mp4	0.0	436.6627049446106	0.09994816780090332
26	414.2059361934662	fix_pre	0		119	24.0	2.5	/experiments/AOT/AOT_stimuli/rescaled_final/0925_fw.mp4	0.0	436.7626531124115	0.9922018051147461
26	415.1899971961975	pulse	0	t		24.0	2.5	/experiments/AOT/AOT_stimuli/rescaled_final/0925_fw.mp4	0.0	437.7467141151428	
26	415.19813799858093	movie	1		247	24.0	2.5	/experiments/AOT/AOT_stimuli/rescaled_final/0925_fw.mp4	0.0	437.75485491752625	2.5080180168151855
26	416.7891161441803	pulse	1	t		24.0	2.5	/experiments/AOT/AOT_stimuli/rescaled_final/0925_fw.mp4	0.0	439.3458330631256	
26	417.7061560153961	fix_post	2		12	24.0	2.5	/experiments/AOT/AOT_stimuli/rescaled_final/0925_fw.mp4	0.0	440.26287293434143	0.1000070571899414
27	417.80616307258606	fix_pre	0		120	25.0	2.5	/experiments/AOT/AOT_stimuli/rescaled_final/1999_fw.mp4	0.0	440.3628799915314	1.0000519752502441
27	418.3896851539612	pulse	0	t		25.0	2.5	/experiments/AOT/AOT_stimuli/rescaled_final/1999_fw.mp4	0.0	440.9464020729065	
27	418.8062150478363	movie	1		246	25.0	2.5	/experiments/AOT/AOT_stimuli/rescaled_final/1999_fw.mp4	0.0	441.3629319667816	2.4995570182800293
27	419.98966002464294	pulse	1	t		25.0	2.5	/experiments/AOT/AOT_stimuli/rescaled_final/1999_fw.mp4	0.0	442.54637694358826	
27	421.30577206611633	fix_post	2		12	25.0	2.5	/experiments/AOT/AOT_stimuli/rescaled_final/1999_fw.mp4	0.0	443.86248898506165	0.10031604766845703
28	421.4060881137848	fix_pre	0		120	26.0	2.5	blank	1.0	443.9628050327301	1.0001490116119385
28	421.5895621776581	pulse	0	t		26.0	2.5	blank	1.0	444.1462790966034	
28	422.40623712539673	movie	1		300	26.0	2.5	blank	1.0	444.96295404434204	2.4999589920043945
28	423.1895480155945	pulse	1	t		26.0	2.5	blank	1.0	445.7462649345398	
28	424.78947615623474	pulse	1	t		26.0	2.5	blank	1.0	447.34619307518005	
28	424.9061961174011	fix_post	2		12	26.0	2.5	blank	1.0	447.46291303634644	0.09986591339111328
29	425.00606203079224	fix_pre	0		120	27.0	2.5	/experiments/AOT/AOT_stimuli/rescaled_final/0401_fw.mp4	0.0	447.56277894973755	1.000035047531128
29	426.00609707832336	movie	1		244	27.0	2.5	/experiments/AOT/AOT_stimuli/rescaled_final/0401_fw.mp4	0.0	448.5628139972687	2.499951124191284
29	426.3889241218567	pulse	1	t		27.0	2.5	/experiments/AOT/AOT_stimuli/rescaled_final/0401_fw.mp4	0.0	448.945641040802	
29	427.9896321296692	pulse	1	t		27.0	2.5	/experiments/AOT/AOT_stimuli/rescaled_final/0401_fw.mp4	0.0	450.5463490486145	
29	428.50604820251465	fix_post	2		12	27.0	2.5	/experiments/AOT/AOT_stimuli/rescaled_final/0401_fw.mp4	0.0	451.06276512145996	0.1000528335571289
30	428.6061010360718	fix_pre	0		119	28.0	2.5	/experiments/AOT/AOT_stimuli/rescaled_final/1010_rv.mp4	0.0	451.1628179550171	0.9917380809783936
30	429.58966302871704	pulse	0	t		28.0	2.5	/experiments/AOT/AOT_stimuli/rescaled_final/1010_rv.mp4	0.0	452.14637994766235	
30	429.59783911705017	movie	1		245	28.0	2.5	/experiments/AOT/AOT_stimuli/rescaled_final/1010_rv.mp4	0.0	452.1545560359955	2.5082309246063232
30	431.1892189979553	pulse	1	t		28.0	2.5	/experiments/AOT/AOT_stimuli/rescaled_final/1010_rv.mp4	0.0	453.74593591690063	
30	432.1060700416565	fix_post	2		12	28.0	2.5	/experiments/AOT/AOT_stimuli/rescaled_final/1010_rv.mp4	0.0	454.6627869606018	0.09996199607849121
31	432.206032037735	fix_pre	0		120	29.0	2.5	/experiments/AOT/AOT_stimuli/rescaled_final/1201_fw.mp4	0.0	454.7627489566803	1.0000650882720947
31	432.78957200050354	pulse	0	t		29.0	2.5	/experiments/AOT/AOT_stimuli/rescaled_final/1201_fw.mp4	0.0	455.34628891944885	
31	433.2060971260071	movie	1		246	29.0	2.5	/experiments/AOT/AOT_stimuli/rescaled_final/1201_fw.mp4	0.0	455.7628140449524	2.5
31	434.3895239830017	pulse	1	t		29.0	2.5	/experiments/AOT/AOT_stimuli/rescaled_final/1201_fw.mp4	0.0	456.946240901947	
31	435.7060971260071	fix_post	2		12	29.0	2.5	/experiments/AOT/AOT_stimuli/rescaled_final/1201_fw.mp4	0.0	458.2628140449524	0.09995603561401367
32	435.8060531616211	fix_pre	0		120	30.0	2.5	/experiments/AOT/AOT_stimuli/rescaled_final/0710_rv.mp4	0.0	458.3627700805664	0.9999370574951172
32	435.9895341396332	pulse	0	t		30.0	2.5	/experiments/AOT/AOT_stimuli/rescaled_final/0710_rv.mp4	0.0	458.5462510585785	
32	436.8059902191162	movie	1		245	30.0	2.5	/experiments/AOT/AOT_stimuli/rescaled_final/0710_rv.mp4	0.0	459.3627071380615	2.5000109672546387
32	437.5895540714264	pulse	1	t		30.0	2.5	/experiments/AOT/AOT_stimuli/rescaled_final/0710_rv.mp4	0.0	460.1462709903717	
32	439.1883521080017	pulse	1	t		30.0	2.5	/experiments/AOT/AOT_stimuli/rescaled_final/0710_rv.mp4	0.0	461.745069026947	
32	439.30600118637085	fix_post	2		12	30.0	2.5	/experiments/AOT/AOT_stimuli/rescaled_final/0710_rv.mp4	0.0	461.86271810531616	0.10013580322265625
33	439.4061369895935	fix_pre	0		120	31.0	2.5	/experiments/AOT/AOT_stimuli/rescaled_final/1833_rv.mp4	0.0	461.9628539085388	0.9999170303344727
33	440.406054019928	movie	1		244	31.0	2.5	/experiments/AOT/AOT_stimuli/rescaled_final/1833_rv.mp4	0.0	462.9627709388733	2.499969005584717
33	440.7896010875702	pulse	1	t		31.0	2.5	/experiments/AOT/AOT_stimuli/rescaled_final/1833_rv.mp4	0.0	463.3463180065155	
33	442.38946413993835	pulse	1	t		31.0	2.5	/experiments/AOT/AOT_stimuli/rescaled_final/1833_rv.mp4	0.0	464.94618105888367	
33	442.9060230255127	fix_post	2		12	31.0	2.5	/experiments/AOT/AOT_stimuli/rescaled_final/1833_rv.mp4	0.0	465.462739944458	0.09996819496154785
34	443.00599122047424	fix_pre	0		119	32.0	2.5	/experiments/AOT/AOT_stimuli/rescaled_final/1249_rv.mp4	0.0	465.56270813941956	0.9916658401489258
34	443.98953914642334	pulse	0	t		32.0	2.5	/experiments/AOT/AOT_stimuli/rescaled_final/1249_rv.mp4	0.0	466.54625606536865	
34	443.99765706062317	movie	1		245	32.0	2.5	/experiments/AOT/AOT_stimuli/rescaled_final/1249_rv.mp4	0.0	466.5543739795685	2.5082969665527344
34	445.5890769958496	pulse	1	t		32.0	2.5	/experiments/AOT/AOT_stimuli/rescaled_final/1249_rv.mp4	0.0	468.1457939147949	
34	446.5059540271759	fix_post	2		12	32.0	2.5	/experiments/AOT/AOT_stimuli/rescaled_final/1249_rv.mp4	0.0	469.0626709461212	0.10001611709594727
35	446.60597014427185	fix_pre	0		120	33.0	2.5	/experiments/AOT/AOT_stimuli/rescaled_final/0080_rv.mp4	0.0	469.16268706321716	1.0000789165496826
35	447.1894841194153	pulse	0	t		33.0	2.5	/experiments/AOT/AOT_stimuli/rescaled_final/0080_rv.mp4	0.0	469.7462010383606	
35	447.60604906082153	movie	1		244	33.0	2.5	/experiments/AOT/AOT_stimuli/rescaled_final/0080_rv.mp4	0.0	470.16276597976685	2.499951124191284
35	448.7895619869232	pulse	1	t		33.0	2.5	/experiments/AOT/AOT_stimuli/rescaled_final/0080_rv.mp4	0.0	471.34627890586853	
35	450.1060001850128	fix_post	2		12	33.0	2.5	/experiments/AOT/AOT_stimuli/rescaled_final/0080_rv.mp4	0.0	472.66271710395813	0.09999489784240723
36	450.2059950828552	fix_pre	0		120	34.0	2.5	/experiments/AOT/AOT_stimuli/rescaled_final/1337_fw.mp4	0.0	472.76271200180054	1.0000419616699219
36	450.3895230293274	pulse	0	t		34.0	2.5	/experiments/AOT/AOT_stimuli/rescaled_final/1337_fw.mp4	0.0	472.9462399482727	
36	451.20603704452515	movie	1		243	34.0	2.5	/experiments/AOT/AOT_stimuli/rescaled_final/1337_fw.mp4	0.0	473.76275396347046	2.4994990825653076
36	451.98945713043213	pulse	1	t		34.0	2.5	/experiments/AOT/AOT_stimuli/rescaled_final/1337_fw.mp4	0.0	474.54617404937744	
36	453.58772015571594	pulse	1	t		34.0	2.5	/experiments/AOT/AOT_stimuli/rescaled_final/1337_fw.mp4	0.0	476.14443707466125	
36	453.70553612709045	fix_post	2		12	34.0	2.5	/experiments/AOT/AOT_stimuli/rescaled_final/1337_fw.mp4	0.0	476.26225304603577	0.10035991668701172
37	453.80589604377747	fix_pre	0		120	35.0	2.5	blank	1.0	476.3626129627228	1.0001211166381836
37	454.80601716041565	movie	1		300	35.0	2.5	blank	1.0	477.36273407936096	2.499910831451416
37	455.18947100639343	pulse	1	t		35.0	2.5	blank	1.0	477.74618792533875	
37	456.7894780635834	pulse	1	t		35.0	2.5	blank	1.0	479.3461949825287	
37	457.30592799186707	fix_post	2		12	35.0	2.5	blank	1.0	479.8626449108124	0.10001015663146973
38	457.40593814849854	fix_pre	0		119	36.0	2.5	/experiments/AOT/AOT_stimuli/rescaled_final/0779_rv.mp4	0.0	479.96265506744385	0.991657018661499
38	458.389466047287	pulse	0	t		36.0	2.5	/experiments/AOT/AOT_stimuli/rescaled_final/0779_rv.mp4	0.0	480.9461829662323	
38	458.39759516716003	movie	1		247	36.0	2.5	/experiments/AOT/AOT_stimuli/rescaled_final/0779_rv.mp4	0.0	480.95431208610535	2.508388042449951
38	459.989116191864	pulse	1	t		36.0	2.5	/experiments/AOT/AOT_stimuli/rescaled_final/0779_rv.mp4	0.0	482.5458331108093	
38	460.90598320961	fix_post	2		12	36.0	2.5	/experiments/AOT/AOT_stimuli/rescaled_final/0779_rv.mp4	0.0	483.4627001285553	0.10001087188720703
39	461.0059940814972	fix_pre	0		120	37.0	2.5	/experiments/AOT/AOT_stimuli/rescaled_final/0513_rv.mp4	0.0	483.5627110004425	0.9998939037322998
39	461.5907700061798	pulse	0	t		37.0	2.5	/experiments/AOT/AOT_stimuli/rescaled_final/0513_rv.mp4	0.0	484.1474869251251	
39	462.0058879852295	movie	1		245	37.0	2.5	/experiments/AOT/AOT_stimuli/rescaled_final/0513_rv.mp4	0.0	484.5626049041748	2.5000572204589844
39	463.1895270347595	pulse	1	t		37.0	2.5	/experiments/AOT/AOT_stimuli/rescaled_final/0513_rv.mp4	0.0	485.74624395370483	
39	464.5059452056885	fix_post	2		12	37.0	2.5	/experiments/AOT/AOT_stimuli/rescaled_final/0513_rv.mp4	0.0	487.0626621246338	0.09996795654296875
40	464.60591316223145	fix_pre	0		120	38.0	2.5	/experiments/AOT/AOT_stimuli/rescaled_final/0546_rv.mp4	0.0	487.16263008117676	0.9999630451202393
40	464.78935408592224	pulse	0	t		38.0	2.5	/experiments/AOT/AOT_stimuli/rescaled_final/0546_rv.mp4	0.0	487.34607100486755	
40	465.6058762073517	movie	1		245	38.0	2.5	/experiments/AOT/AOT_stimuli/rescaled_final/0546_rv.mp4	0.0	488.162593126297	2.499621868133545
40	466.38964319229126	pulse	1	t		38.0	2.5	/experiments/AOT/AOT_stimuli/rescaled_final/0546_rv.mp4	0.0	488.9463601112366	
40	467.9878010749817	pulse	1	t		38.0	2.5	/experiments/AOT/AOT_stimuli/rescaled_final/0546_rv.mp4	0.0	490.544517993927	
40	468.10549807548523	fix_post	2		12	38.0	2.5	/experiments/AOT/AOT_stimuli/rescaled_final/0546_rv.mp4	0.0	490.66221499443054	0.10046601295471191
41	468.20596408843994	fix_pre	0		120	39.0	2.5	/experiments/AOT/AOT_stimuli/rescaled_final/0281_rv.mp4	0.0	490.76268100738525	0.9995899200439453
41	469.2055540084839	movie	1		246	39.0	2.5	/experiments/AOT/AOT_stimuli/rescaled_final/0281_rv.mp4	0.0	491.7622709274292	2.500343084335327
41	469.58982014656067	pulse	1	t		39.0	2.5	/experiments/AOT/AOT_stimuli/rescaled_final/0281_rv.mp4	0.0	492.146537065506	
41	471.18931317329407	pulse	1	t		39.0	2.5	/experiments/AOT/AOT_stimuli/rescaled_final/0281_rv.mp4	0.0	493.7460300922394	
41	471.7058970928192	fix_post	2		12	39.0	2.5	/experiments/AOT/AOT_stimuli/rescaled_final/0281_rv.mp4	0.0	494.2626140117645	0.0999290943145752
42	471.8058261871338	fix_pre	0		119	40.0	2.5	/experiments/AOT/AOT_stimuli/rescaled_final/1169_rv.mp4	0.0	494.3625431060791	0.9917609691619873
42	472.78945207595825	pulse	0	t		40.0	2.5	/experiments/AOT/AOT_stimuli/rescaled_final/1169_rv.mp4	0.0	495.34616899490356	
42	472.7975871562958	movie	1		245	40.0	2.5	/experiments/AOT/AOT_stimuli/rescaled_final/1169_rv.mp4	0.0	495.3543040752411	2.508333921432495
42	474.38884019851685	pulse	1	t		40.0	2.5	/experiments/AOT/AOT_stimuli/rescaled_final/1169_rv.mp4	0.0	496.94555711746216	
42	475.30592107772827	fix_post	2		12	40.0	2.5	/experiments/AOT/AOT_stimuli/rescaled_final/1169_rv.mp4	0.0	497.8626379966736	0.09996294975280762
43	475.4058840274811	fix_pre	0		120	41.0	2.5	blank	1.0	497.9626009464264	0.9999980926513672
43	475.98936700820923	pulse	0	t		41.0	2.5	blank	1.0	498.54608392715454	
43	476.40588212013245	movie	1		300	41.0	2.5	blank	1.0	498.96259903907776	2.499927043914795
43	477.58929109573364	pulse	1	t		41.0	2.5	blank	1.0	500.14600801467896	
43	478.90580916404724	fix_post	2		12	41.0	2.5	blank	1.0	501.46252608299255	0.10004401206970215
44	479.00585317611694	fix_pre	0		120	42.0	2.5	/experiments/AOT/AOT_stimuli/rescaled_final/2122_rv.mp4	0.0	501.56257009506226	0.9999418258666992
44	479.1892750263214	pulse	0	t		42.0	2.5	/experiments/AOT/AOT_stimuli/rescaled_final/2122_rv.mp4	0.0	501.7459919452667	
44	480.00579500198364	movie	1		243	42.0	2.5	/experiments/AOT/AOT_stimuli/rescaled_final/2122_rv.mp4	0.0	502.56251192092896	2.5000550746917725
44	480.7892951965332	pulse	1	t		42.0	2.5	/experiments/AOT/AOT_stimuli/rescaled_final/2122_rv.mp4	0.0	503.3460121154785	
44	482.3876430988312	pulse	1	t		42.0	2.5	/experiments/AOT/AOT_stimuli/rescaled_final/2122_rv.mp4	0.0	504.9443600177765	
44	482.5058500766754	fix_post	2		12	42.0	2.5	/experiments/AOT/AOT_stimuli/rescaled_final/2122_rv.mp4	0.0	505.0625669956207	0.10000991821289062
45	482.6058599948883	fix_pre	0		120	43.0	2.5	/experiments/AOT/AOT_stimuli/rescaled_final/0920_rv.mp4	0.0	505.1625769138336	1.0000040531158447
45	483.60586404800415	movie	1		245	43.0	2.5	/experiments/AOT/AOT_stimuli/rescaled_final/0920_rv.mp4	0.0	506.16258096694946	2.4999899864196777
45	483.98882818222046	pulse	1	t		43.0	2.5	/experiments/AOT/AOT_stimuli/rescaled_final/0920_rv.mp4	0.0	506.54554510116577	
45	485.5892741680145	pulse	1	t		43.0	2.5	/experiments/AOT/AOT_stimuli/rescaled_final/0920_rv.mp4	0.0	508.14599108695984	
45	486.1058540344238	fix_post	2		12	43.0	2.5	/experiments/AOT/AOT_stimuli/rescaled_final/0920_rv.mp4	0.0	508.66257095336914	0.09995102882385254
46	486.2058050632477	fix_pre	0		119	44.0	2.5	/experiments/AOT/AOT_stimuli/rescaled_final/0942_rv.mp4	0.0	508.762521982193	0.9916470050811768
46	487.1892921924591	pulse	0	t		44.0	2.5	/experiments/AOT/AOT_stimuli/rescaled_final/0942_rv.mp4	0.0	509.7460091114044	
46	487.19745206832886	movie	1		246	44.0	2.5	/experiments/AOT/AOT_stimuli/rescaled_final/0942_rv.mp4	0.0	509.75416898727417	2.508376121520996
46	488.7888491153717	pulse	1	t		44.0	2.5	/experiments/AOT/AOT_stimuli/rescaled_final/0942_rv.mp4	0.0	511.345566034317	
46	489.70582818984985	fix_post	2		12	44.0	2.5	/experiments/AOT/AOT_stimuli/rescaled_final/0942_rv.mp4	0.0	512.2625451087952	0.09998202323913574
47	489.805810213089	fix_pre	0		120	45.0	2.5	/experiments/AOT/AOT_stimuli/rescaled_final/1491_rv.mp4	0.0	512.3625271320343	0.9999179840087891
47	490.38925099372864	pulse	0	t		45.0	2.5	/experiments/AOT/AOT_stimuli/rescaled_final/1491_rv.mp4	0.0	512.945967912674	
47	490.8057281970978	movie	1		244	45.0	2.5	/experiments/AOT/AOT_stimuli/rescaled_final/1491_rv.mp4	0.0	513.3624451160431	2.4997448921203613
47	491.98939299583435	pulse	1	t		45.0	2.5	/experiments/AOT/AOT_stimuli/rescaled_final/1491_rv.mp4	0.0	514.5461099147797	
47	493.30547308921814	fix_post	2		12	45.0	2.5	/experiments/AOT/AOT_stimuli/rescaled_final/1491_rv.mp4	0.0	515.8621900081635	0.10021495819091797
48	493.40568804740906	fix_pre	0		120	46.0	2.5	/experiments/AOT/AOT_stimuli/rescaled_final/0087_rv.mp4	0.0	515.9624049663544	1.0000901222229004
48	493.5893361568451	pulse	0	t		46.0	2.5	/experiments/AOT/AOT_stimuli/rescaled_final/0087_rv.mp4	0.0	516.1460530757904	
48	494.40577816963196	movie	1		244	46.0	2.5	/experiments/AOT/AOT_stimuli/rescaled_final/0087_rv.mp4	0.0	516.9624950885773	2.4999890327453613
48	495.18927907943726	pulse	1	t		46.0	2.5	/experiments/AOT/AOT_stimuli/rescaled_final/0087_rv.mp4	0.0	517.7459959983826	
48	496.78803610801697	pulse	1	t		46.0	2.5	/experiments/AOT/AOT_stimuli/rescaled_final/0087_rv.mp4	0.0	519.3447530269623	
48	496.9057672023773	fix_post	2		12	46.0	2.5	/experiments/AOT/AOT_stimuli/rescaled_final/0087_rv.mp4	0.0	519.4624841213226	0.09961390495300293
49	497.0053811073303	fix_pre	0		120	47.0	2.5	/experiments/AOT/AOT_stimuli/rescaled_final/1905_rv.mp4	0.0	519.5620980262756	1.000382900238037
49	498.00576400756836	movie	1		243	47.0	2.5	/experiments/AOT/AOT_stimuli/rescaled_final/1905_rv.mp4	0.0	520.5624809265137	2.4996750354766846
49	498.3885841369629	pulse	1	t		47.0	2.5	/experiments/AOT/AOT_stimuli/rescaled_final/1905_rv.mp4	0.0	520.9453010559082	
49	499.98922419548035	pulse	1	t		47.0	2.5	/experiments/AOT/AOT_stimuli/rescaled_final/1905_rv.mp4	0.0	522.5459411144257	
49	500.50543904304504	fix_post	2		12	47.0	2.5	/experiments/AOT/AOT_stimuli/rescaled_final/1905_rv.mp4	0.0	523.0621559619904	0.0999290943145752
50	500.6053681373596	fix_pre	0		119	48.0	2.5	blank	1.0	523.1620850563049	0.9919700622558594
50	501.5892381668091	pulse	0	t		48.0	2.5	blank	1.0	524.1459550857544	
50	501.5973381996155	movie	1		301	48.0	2.5	blank	1.0	524.1540551185608	2.508430004119873
50	503.18921518325806	pulse	1	t		48.0	2.5	blank	1.0	525.7459321022034	
50	504.10576820373535	fix_post	2		12	48.0	2.5	blank	1.0	526.6624851226807	0.09998798370361328
51	504.20575618743896	fix_pre	0		120	49.0	2.5	/experiments/AOT/AOT_stimuli/rescaled_final/0116_rv.mp4	0.0	526.7624731063843	1.0000228881835938
51	504.7891161441803	pulse	0	t		49.0	2.5	/experiments/AOT/AOT_stimuli/rescaled_final/0116_rv.mp4	0.0	527.3458330631256	
51	505.20577907562256	movie	1		245	49.0	2.5	/experiments/AOT/AOT_stimuli/rescaled_final/0116_rv.mp4	0.0	527.7624959945679	2.499933958053589
51	506.38926911354065	pulse	1	t		49.0	2.5	/experiments/AOT/AOT_stimuli/rescaled_final/0116_rv.mp4	0.0	528.945986032486	
51	507.70571303367615	fix_post	2		12	49.0	2.5	/experiments/AOT/AOT_stimuli/rescaled_final/0116_rv.mp4	0.0	530.2624299526215	0.09999203681945801
52	507.8057050704956	fix_pre	0		120	50.0	2.5	/experiments/AOT/AOT_stimuli/rescaled_final/0109_fw.mp4	0.0	530.3624219894409	0.9999639987945557
52	507.9892292022705	pulse	0	t		50.0	2.5	/experiments/AOT/AOT_stimuli/rescaled_final/0109_fw.mp4	0.0	530.5459461212158	
52	508.80566906929016	movie	1		244	50.0	2.5	/experiments/AOT/AOT_stimuli/rescaled_final/0109_fw.mp4	0.0	531.3623859882355	2.5000081062316895
52	509.5892400741577	pulse	1	t		50.0	2.5	/experiments/AOT/AOT_stimuli/rescaled_final/0109_fw.mp4	0.0	532.145956993103	
52	511.1876561641693	pulse	1	t		50.0	2.5	/experiments/AOT/AOT_stimuli/rescaled_final/0109_fw.mp4	0.0	533.7443730831146	
52	511.30567717552185	fix_post	2		12	50.0	2.5	/experiments/AOT/AOT_stimuli/rescaled_final/0109_fw.mp4	0.0	533.8623940944672	0.10003495216369629
53	511.40571212768555	fix_pre	0		120	51.0	2.5	/experiments/AOT/AOT_stimuli/rescaled_final/1260_fw.mp4	0.0	533.9624290466309	1.0000159740447998
53	512.4057281017303	movie	1		247	51.0	2.5	/experiments/AOT/AOT_stimuli/rescaled_final/1260_fw.mp4	0.0	534.9624450206757	2.4999420642852783
53	512.7899491786957	pulse	1	t		51.0	2.5	/experiments/AOT/AOT_stimuli/rescaled_final/1260_fw.mp4	0.0	535.346666097641	
53	514.3891670703888	pulse	1	t		51.0	2.5	/experiments/AOT/AOT_stimuli/rescaled_final/1260_fw.mp4	0.0	536.9458839893341	
53	514.9056701660156	fix_post	2		12	51.0	2.5	/experiments/AOT/AOT_stimuli/rescaled_final/1260_fw.mp4	0.0	537.4623870849609	0.09994983673095703
54	515.0056200027466	fix_pre	0		119	52.0	2.5	/experiments/AOT/AOT_stimuli/rescaled_final/1949_rv.mp4	0.0	537.5623369216919	0.9917161464691162
54	515.9891831874847	pulse	0	t		52.0	2.5	/experiments/AOT/AOT_stimuli/rescaled_final/1949_rv.mp4	0.0	538.54590010643	
54	515.9973361492157	movie	1		247	52.0	2.5	/experiments/AOT/AOT_stimuli/rescaled_final/1949_rv.mp4	0.0	538.554053068161	2.5083720684051514
54	517.5893590450287	pulse	1	t		52.0	2.5	/experiments/AOT/AOT_stimuli/rescaled_final/1949_rv.mp4	0.0	540.146075963974	
54	518.5057082176208	fix_post	2		12	52.0	2.5	/experiments/AOT/AOT_stimuli/rescaled_final/1949_rv.mp4	0.0	541.0624251365662	0.09997296333312988
55	518.605681180954	fix_pre	0		120	53.0	2.5	/experiments/AOT/AOT_stimuli/rescaled_final/0874_rv.mp4	0.0	541.1623980998993	0.9999020099639893
55	519.1891691684723	pulse	0	t		53.0	2.5	/experiments/AOT/AOT_stimuli/rescaled_final/0874_rv.mp4	0.0	541.7458860874176	
55	519.605583190918	movie	1		243	53.0	2.5	/experiments/AOT/AOT_stimuli/rescaled_final/0874_rv.mp4	0.0	542.1623001098633	2.5001108646392822
55	520.7892711162567	pulse	1	t		53.0	2.5	/experiments/AOT/AOT_stimuli/rescaled_final/0874_rv.mp4	0.0	543.345988035202	
55	522.1056940555573	fix_post	2		12	53.0	2.5	/experiments/AOT/AOT_stimuli/rescaled_final/0874_rv.mp4	0.0	544.6624109745026	0.09999704360961914
56	522.2056910991669	fix_pre	0		120	54.0	2.5	/experiments/AOT/AOT_stimuli/rescaled_final/0512_rv.mp4	0.0	544.7624080181122	0.999953031539917
56	522.3892011642456	pulse	0	t		54.0	2.5	/experiments/AOT/AOT_stimuli/rescaled_final/0512_rv.mp4	0.0	544.9459180831909	
56	523.2056441307068	movie	1		245	54.0	2.5	/experiments/AOT/AOT_stimuli/rescaled_final/0512_rv.mp4	0.0	545.7623610496521	2.4997000694274902
56	523.9886531829834	pulse	1	t		54.0	2.5	/experiments/AOT/AOT_stimuli/rescaled_final/0512_rv.mp4	0.0	546.5453701019287	
56	525.5872371196747	pulse	1	t		54.0	2.5	/experiments/AOT/AOT_stimuli/rescaled_final/0512_rv.mp4	0.0	548.14395403862	
56	525.7053442001343	fix_post	2		12	54.0	2.5	/experiments/AOT/AOT_stimuli/rescaled_final/0512_rv.mp4	0.0	548.2620611190796	0.10001301765441895
57	525.8053572177887	fix_pre	0		120	55.0	2.5	blank	1.0	548.362074136734	1.0005528926849365
57	526.8059101104736	movie	1		300	55.0	2.5	blank	1.0	549.362627029419	2.4992430210113525
57	527.1894540786743	pulse	1	t		55.0	2.5	blank	1.0	549.7461709976196	
57	528.7891721725464	pulse	1	t		55.0	2.5	blank	1.0	551.3458890914917	
57	529.305153131485	fix_post	2		12	55.0	2.5	blank	1.0	551.8618700504303	0.10045886039733887
58	529.4056119918823	fix_pre	0		119	56.0	2.5	/experiments/AOT/AOT_stimuli/rescaled_final/0591_rv.mp4	0.0	551.9623289108276	0.9916090965270996
58	530.3891370296478	pulse	0	t		56.0	2.5	/experiments/AOT/AOT_stimuli/rescaled_final/0591_rv.mp4	0.0	552.9458539485931	
58	530.3972210884094	movie	1		246	56.0	2.5	/experiments/AOT/AOT_stimuli/rescaled_final/0591_rv.mp4	0.0	552.9539380073547	2.508341073989868
58	531.9887361526489	pulse	1	t		56.0	2.5	/experiments/AOT/AOT_stimuli/rescaled_final/0591_rv.mp4	0.0	554.5454530715942	
58	532.9055621623993	fix_post	2		12	56.0	2.5	/experiments/AOT/AOT_stimuli/rescaled_final/0591_rv.mp4	0.0	555.4622790813446	0.0999898910522461
59	533.0055520534515	fix_pre	0		120	57.0	2.5	/experiments/AOT/AOT_stimuli/rescaled_final/1723_fw.mp4	0.0	555.5622689723969	0.9999730587005615
59	533.5890100002289	pulse	0	t		57.0	2.5	/experiments/AOT/AOT_stimuli/rescaled_final/1723_fw.mp4	0.0	556.1457269191742	
59	534.0055251121521	movie	1		243	57.0	2.5	/experiments/AOT/AOT_stimuli/rescaled_final/1723_fw.mp4	0.0	556.5622420310974	2.4999969005584717
59	535.1891322135925	pulse	1	t		57.0	2.5	/experiments/AOT/AOT_stimuli/rescaled_final/1723_fw.mp4	0.0	557.7458491325378	
59	536.5055220127106	fix_post	2		12	57.0	2.5	/experiments/AOT/AOT_stimuli/rescaled_final/1723_fw.mp4	0.0	559.0622389316559	0.0999910831451416
60	536.6055130958557	fix_pre	0		120	58.0	2.5	/experiments/AOT/AOT_stimuli/rescaled_final/1219_fw.mp4	0.0	559.162230014801	1.0000441074371338
60	536.7890410423279	pulse	0	t		58.0	2.5	/experiments/AOT/AOT_stimuli/rescaled_final/1219_fw.mp4	0.0	559.3457579612732	
60	537.6055572032928	movie	1		246	58.0	2.5	/experiments/AOT/AOT_stimuli/rescaled_final/1219_fw.mp4	0.0	560.1622741222382	2.499957799911499
60	538.388943195343	pulse	1	t		58.0	2.5	/experiments/AOT/AOT_stimuli/rescaled_final/1219_fw.mp4	0.0	560.9456601142883	
60	539.987380027771	pulse	1	t		58.0	2.5	/experiments/AOT/AOT_stimuli/rescaled_final/1219_fw.mp4	0.0	562.5440969467163	
60	540.1055150032043	fix_post	2		12	58.0	2.5	/experiments/AOT/AOT_stimuli/rescaled_final/1219_fw.mp4	0.0	562.6622319221497	0.10003900527954102
61	540.2055540084839	fix_pre	0		120	59.0	2.5	/experiments/AOT/AOT_stimuli/rescaled_final/0688_fw.mp4	0.0	562.7622709274292	0.999636173248291
61	541.2051901817322	movie	1		243	59.0	2.5	/experiments/AOT/AOT_stimuli/rescaled_final/0688_fw.mp4	0.0	563.7619071006775	2.499943971633911
61	541.5887131690979	pulse	1	t		59.0	2.5	/experiments/AOT/AOT_stimuli/rescaled_final/0688_fw.mp4	0.0	564.1454300880432	
61	543.1890320777893	pulse	1	t		59.0	2.5	/experiments/AOT/AOT_stimuli/rescaled_final/0688_fw.mp4	0.0	565.7457489967346	
61	543.7051341533661	fix_post	2		12	59.0	2.5	/experiments/AOT/AOT_stimuli/rescaled_final/0688_fw.mp4	0.0	566.2618510723114	0.10041189193725586
62	543.8055460453033	fix_pre	0		119	60.0	2.5	/experiments/AOT/AOT_stimuli/rescaled_final/0463_fw.mp4	0.0	566.3622629642487	0.9915809631347656
62	544.7889881134033	pulse	0	t		60.0	2.5	/experiments/AOT/AOT_stimuli/rescaled_final/0463_fw.mp4	0.0	567.3457050323486	
62	544.7971270084381	movie	1		244	60.0	2.5	/experiments/AOT/AOT_stimuli/rescaled_final/0463_fw.mp4	0.0	567.3538439273834	2.508432149887085
62	546.3887741565704	pulse	1	t		60.0	2.5	/experiments/AOT/AOT_stimuli/rescaled_final/0463_fw.mp4	0.0	568.9454910755157	
62	547.3055591583252	fix_post	2		12	60.0	2.5	/experiments/AOT/AOT_stimuli/rescaled_final/0463_fw.mp4	0.0	569.8622760772705	0.09993791580200195
63	547.4054970741272	fix_pre	0		120	61.0	2.5	blank	1.0	569.9622139930725	1.000175952911377
63	547.9889690876007	pulse	0	t		61.0	2.5	blank	1.0	570.545686006546	
63	548.4056730270386	movie	1		300	61.0	2.5	blank	1.0	570.9623899459839	2.499857187271118
63	549.5890061855316	pulse	1	t		61.0	2.5	blank	1.0	572.1457231044769	
63	550.9055302143097	fix_post	2		12	61.0	2.5	blank	1.0	573.462247133255	0.10001683235168457
64	551.0055470466614	fix_pre	0		120	62.0	2.5	/experiments/AOT/AOT_stimuli/rescaled_final/1457_rv.mp4	0.0	573.5622639656067	1.0001280307769775
64	551.1889791488647	pulse	0	t		62.0	2.5	/experiments/AOT/AOT_stimuli/rescaled_final/1457_rv.mp4	0.0	573.7456960678101	
64	552.0056750774384	movie	1		246	62.0	2.5	/experiments/AOT/AOT_stimuli/rescaled_final/1457_rv.mp4	0.0	574.5623919963837	2.499768018722534
64	552.7889730930328	pulse	1	t		62.0	2.5	/experiments/AOT/AOT_stimuli/rescaled_final/1457_rv.mp4	0.0	575.3456900119781	
64	554.3874590396881	pulse	1	t		62.0	2.5	/experiments/AOT/AOT_stimuli/rescaled_final/1457_rv.mp4	0.0	576.9441759586334	
64	554.5054430961609	fix_post	2		12	62.0	2.5	/experiments/AOT/AOT_stimuli/rescaled_final/1457_rv.mp4	0.0	577.0621600151062	0.09998798370361328
65	554.6054310798645	fix_pre	0		120	63.0	2.5	/experiments/AOT/AOT_stimuli/rescaled_final/0535_fw.mp4	0.0	577.1621479988098	1.0000429153442383
65	555.6054739952087	movie	1		244	63.0	2.5	/experiments/AOT/AOT_stimuli/rescaled_final/0535_fw.mp4	0.0	578.162190914154	2.499497175216675
65	555.9885900020599	pulse	1	t		63.0	2.5	/experiments/AOT/AOT_stimuli/rescaled_final/0535_fw.mp4	0.0	578.5453069210052	
65	557.5889620780945	pulse	1	t		63.0	2.5	/experiments/AOT/AOT_stimuli/rescaled_final/0535_fw.mp4	0.0	580.1456789970398	
65	558.1049711704254	fix_post	2		12	63.0	2.5	/experiments/AOT/AOT_stimuli/rescaled_final/0535_fw.mp4	0.0	580.6616880893707	0.10046792030334473
66	558.2054390907288	fix_pre	0		119	64.0	2.5	/experiments/AOT/AOT_stimuli/rescaled_final/0228_fw.mp4	0.0	580.7621560096741	0.9916770458221436
66	559.18896317482	pulse	0	t		64.0	2.5	/experiments/AOT/AOT_stimuli/rescaled_final/0228_fw.mp4	0.0	581.7456800937653	
66	559.1971161365509	movie	1		244	64.0	2.5	/experiments/AOT/AOT_stimuli/rescaled_final/0228_fw.mp4	0.0	581.7538330554962	2.508357048034668
66	560.7902481555939	pulse	1	t		64.0	2.5	/experiments/AOT/AOT_stimuli/rescaled_final/0228_fw.mp4	0.0	583.3469650745392	
66	561.7054731845856	fix_post	2		12	64.0	2.5	/experiments/AOT/AOT_stimuli/rescaled_final/0228_fw.mp4	0.0	584.2621901035309	0.09989380836486816
67	561.8053669929504	fix_pre	0		120	65.0	2.5	/experiments/AOT/AOT_stimuli/rescaled_final/1118_rv.mp4	0.0	584.3620839118958	1.0000841617584229
67	562.3890421390533	pulse	0	t		65.0	2.5	/experiments/AOT/AOT_stimuli/rescaled_final/1118_rv.mp4	0.0	584.9457590579987	
67	562.8054511547089	movie	1		243	65.0	2.5	/experiments/AOT/AOT_stimuli/rescaled_final/1118_rv.mp4	0.0	585.3621680736542	2.499955892562866
67	563.989107131958	pulse	1	t		65.0	2.5	/experiments/AOT/AOT_stimuli/rescaled_final/1118_rv.mp4	0.0	586.5458240509033	
67	565.3054070472717	fix_post	2		12	65.0	2.5	/experiments/AOT/AOT_stimuli/rescaled_final/1118_rv.mp4	0.0	587.862123966217	0.1000361442565918
68	565.4054431915283	fix_pre	0		120	66.0	2.5	/experiments/AOT/AOT_stimuli/rescaled_final/0154_rv.mp4	0.0	587.9621601104736	0.99993896484375
68	565.5889720916748	pulse	0	t		66.0	2.5	/experiments/AOT/AOT_stimuli/rescaled_final/0154_rv.mp4	0.0	588.1456890106201	
68	566.4053821563721	movie	1		244	66.0	2.5	/experiments/AOT/AOT_stimuli/rescaled_final/0154_rv.mp4	0.0	588.9620990753174	2.5000109672546387
68	567.1889190673828	pulse	1	t		66.0	2.5	/experiments/AOT/AOT_stimuli/rescaled_final/0154_rv.mp4	0.0	589.7456359863281	
68	568.7889270782471	pulse	1	t		66.0	2.5	/experiments/AOT/AOT_stimuli/rescaled_final/0154_rv.mp4	0.0	591.3456439971924	
68	568.9053931236267	fix_post	2		12	66.0	2.5	/experiments/AOT/AOT_stimuli/rescaled_final/0154_rv.mp4	0.0	591.462110042572	0.1000680923461914
69	569.0054612159729	fix_pre	0		120	67.0	2.5	/experiments/AOT/AOT_stimuli/rescaled_final/1838_rv.mp4	0.0	591.5621781349182	0.9999728202819824
69	570.0054340362549	movie	1		243	67.0	2.5	/experiments/AOT/AOT_stimuli/rescaled_final/1838_rv.mp4	0.0	592.5621509552002	2.5000710487365723
69	570.388500213623	pulse	1	t		67.0	2.5	/experiments/AOT/AOT_stimuli/rescaled_final/1838_rv.mp4	0.0	592.9452171325684	
69	571.9889261722565	pulse	1	t		67.0	2.5	/experiments/AOT/AOT_stimuli/rescaled_final/1838_rv.mp4	0.0	594.5456430912018	
69	572.5055050849915	fix_post	2		12	67.0	2.5	/experiments/AOT/AOT_stimuli/rescaled_final/1838_rv.mp4	0.0	595.0622220039368	0.09990310668945312
70	572.6054081916809	fix_pre	0		119	68.0	2.5	/experiments/AOT/AOT_stimuli/rescaled_final/0735_fw.mp4	0.0	595.1621251106262	0.9916160106658936
70	573.5888822078705	pulse	0	t		68.0	2.5	/experiments/AOT/AOT_stimuli/rescaled_final/0735_fw.mp4	0.0	596.1455991268158	
70	573.5970242023468	movie	1		247	68.0	2.5	/experiments/AOT/AOT_stimuli/rescaled_final/0735_fw.mp4	0.0	596.1537411212921	2.5083630084991455
70	575.1883721351624	pulse	1	t		68.0	2.5	/experiments/AOT/AOT_stimuli/rescaled_final/0735_fw.mp4	0.0	597.7450890541077	
70	576.105387210846	fix_post	2		12	68.0	2.5	/experiments/AOT/AOT_stimuli/rescaled_final/0735_fw.mp4	0.0	598.6621041297913	0.09993195533752441
71	576.2053191661835	fix_pre	0		120	69.0	2.5	blank	1.0	598.7620360851288	1.0000178813934326
71	576.7902591228485	pulse	0	t		69.0	2.5	blank	1.0	599.3469760417938	
71	577.2053370475769	movie	1		300	69.0	2.5	blank	1.0	599.7620539665222	2.500082015991211
71	578.3890070915222	pulse	1	t		69.0	2.5	blank	1.0	600.9457240104675	
71	579.7054190635681	fix_post	2		12	69.0	2.5	blank	1.0	602.2621359825134	0.09992599487304688
72	579.8053450584412	fix_pre	0		120	70.0	2.5	/experiments/AOT/AOT_stimuli/rescaled_final/2159_rv.mp4	0.0	602.3620619773865	1.0000629425048828
72	579.9884331226349	pulse	0	t		70.0	2.5	/experiments/AOT/AOT_stimuli/rescaled_final/2159_rv.mp4	0.0	602.5451500415802	
72	580.805408000946	movie	1		244	70.0	2.5	/experiments/AOT/AOT_stimuli/rescaled_final/2159_rv.mp4	0.0	603.3621249198914	2.4998371601104736
72	581.5885231494904	pulse	1	t		70.0	2.5	/experiments/AOT/AOT_stimuli/rescaled_final/2159_rv.mp4	0.0	604.1452400684357	
72	583.1873061656952	pulse	1	t		70.0	2.5	/experiments/AOT/AOT_stimuli/rescaled_final/2159_rv.mp4	0.0	605.7440230846405	
72	583.3052451610565	fix_post	2		12	70.0	2.5	/experiments/AOT/AOT_stimuli/rescaled_final/2159_rv.mp4	0.0	605.8619620800018	0.10010290145874023
73	583.4053480625153	fix_pre	0		120	71.0	2.5	/experiments/AOT/AOT_stimuli/rescaled_final/0469_rv.mp4	0.0	605.9620649814606	0.9999871253967285
73	584.405335187912	movie	1		242	71.0	2.5	/experiments/AOT/AOT_stimuli/rescaled_final/0469_rv.mp4	0.0	606.9620521068573	2.4996178150177
73	584.7885429859161	pulse	1	t		71.0	2.5	/experiments/AOT/AOT_stimuli/rescaled_final/0469_rv.mp4	0.0	607.3452599048615	
73	586.3887631893158	pulse	1	t		71.0	2.5	/experiments/AOT/AOT_stimuli/rescaled_final/0469_rv.mp4	0.0	608.9454801082611	
73	586.9049530029297	fix_post	2		12	71.0	2.5	/experiments/AOT/AOT_stimuli/rescaled_final/0469_rv.mp4	0.0	609.461669921875	0.10038518905639648
74	587.0053381919861	fix_pre	0		119	72.0	2.5	/experiments/AOT/AOT_stimuli/rescaled_final/0602_rv.mp4	0.0	609.5620551109314	0.991657018661499
74	587.9888060092926	pulse	0	t		72.0	2.5	/experiments/AOT/AOT_stimuli/rescaled_final/0602_rv.mp4	0.0	610.5455229282379	
74	587.9969952106476	movie	1		244	72.0	2.5	/experiments/AOT/AOT_stimuli/rescaled_final/0602_rv.mp4	0.0	610.5537121295929	2.5083138942718506
74	589.588418006897	pulse	1	t		72.0	2.5	/experiments/AOT/AOT_stimuli/rescaled_final/0602_rv.mp4	0.0	612.1451349258423	
74	590.5053091049194	fix_post	2		12	72.0	2.5	/experiments/AOT/AOT_stimuli/rescaled_final/0602_rv.mp4	0.0	613.0620260238647	0.09994888305664062
75	590.6052579879761	fix_pre	0		120	73.0	2.5	/experiments/AOT/AOT_stimuli/rescaled_final/1837_rv.mp4	0.0	613.1619749069214	0.9999980926513672
75	591.1888110637665	pulse	0	t		73.0	2.5	/experiments/AOT/AOT_stimuli/rescaled_final/1837_rv.mp4	0.0	613.7455279827118	
75	591.6052560806274	movie	1		244	73.0	2.5	/experiments/AOT/AOT_stimuli/rescaled_final/1837_rv.mp4	0.0	614.1619729995728	2.4995899200439453
75	592.7888691425323	pulse	1	t		73.0	2.5	/experiments/AOT/AOT_stimuli/rescaled_final/1837_rv.mp4	0.0	615.3455860614777	
75	594.1048460006714	fix_post	2		12	73.0	2.5	/experiments/AOT/AOT_stimuli/rescaled_final/1837_rv.mp4	0.0	616.6615629196167	0.10042214393615723
76	594.2052681446075	fix_pre	0		120	74.0	2.5	/experiments/AOT/AOT_stimuli/rescaled_final/2099_rv.mp4	0.0	616.7619850635529	0.9999599456787109
76	594.3888370990753	pulse	0	t		74.0	2.5	/experiments/AOT/AOT_stimuli/rescaled_final/2099_rv.mp4	0.0	616.9455540180206	
76	595.2052280902863	movie	1		244	74.0	2.5	/experiments/AOT/AOT_stimuli/rescaled_final/2099_rv.mp4	0.0	617.7619450092316	2.5000009536743164
76	595.988804101944	pulse	1	t		74.0	2.5	/experiments/AOT/AOT_stimuli/rescaled_final/2099_rv.mp4	0.0	618.5455210208893	
76	597.5871360301971	pulse	1	t		74.0	2.5	/experiments/AOT/AOT_stimuli/rescaled_final/2099_rv.mp4	0.0	620.1438529491425	
76	597.7052290439606	fix_post	2		12	74.0	2.5	/experiments/AOT/AOT_stimuli/rescaled_final/2099_rv.mp4	0.0	620.2619459629059	0.10000109672546387
77	597.805230140686	fix_pre	0		120	75.0	2.5	/experiments/AOT/AOT_stimuli/rescaled_final/0432_rv.mp4	0.0	620.3619470596313	0.9999949932098389
77	598.8052251338959	movie	1		245	75.0	2.5	/experiments/AOT/AOT_stimuli/rescaled_final/0432_rv.mp4	0.0	621.3619420528412	2.5001399517059326
77	599.1888761520386	pulse	1	t		75.0	2.5	/experiments/AOT/AOT_stimuli/rescaled_final/0432_rv.mp4	0.0	621.7455930709839	
77	600.7887990474701	pulse	1	t		75.0	2.5	/experiments/AOT/AOT_stimuli/rescaled_final/0432_rv.mp4	0.0	623.3455159664154	
77	601.3053650856018	fix_post	2		12	75.0	2.5	/experiments/AOT/AOT_stimuli/rescaled_final/0432_rv.mp4	0.0	623.8620820045471	0.09990406036376953
78	601.4052691459656	fix_pre	0		119	76.0	2.5	/experiments/AOT/AOT_stimuli/rescaled_final/1449_fw.mp4	0.0	623.9619860649109	0.9916188716888428
78	602.3886880874634	pulse	0	t		76.0	2.5	/experiments/AOT/AOT_stimuli/rescaled_final/1449_fw.mp4	0.0	624.9454050064087	
78	602.3968880176544	movie	1		247	76.0	2.5	/experiments/AOT/AOT_stimuli/rescaled_final/1449_fw.mp4	0.0	624.9536049365997	2.5083019733428955
78	603.9885981082916	pulse	1	t		76.0	2.5	/experiments/AOT/AOT_stimuli/rescaled_final/1449_fw.mp4	0.0	626.5453150272369	
78	604.9051899909973	fix_post	2		12	76.0	2.5	/experiments/AOT/AOT_stimuli/rescaled_final/1449_fw.mp4	0.0	627.4619069099426	0.10007500648498535
79	605.0052649974823	fix_pre	0		120	77.0	2.5	blank	1.0	627.5619819164276	0.9998981952667236
79	605.5886931419373	pulse	0	t		77.0	2.5	blank	1.0	628.1454100608826	
79	606.005163192749	movie	1		300	77.0	2.5	blank	1.0	628.5618801116943	2.5000879764556885
79	607.1889111995697	pulse	1	t		77.0	2.5	blank	1.0	629.745628118515	
79	608.5052511692047	fix_post	2		12	77.0	2.5	blank	1.0	631.06196808815	0.09986591339111328
80	608.6051170825958	fix_pre	0		120	78.0	2.5	/experiments/AOT/AOT_stimuli/rescaled_final/1270_rv.mp4	0.0	631.1618340015411	1.0001299381256104
80	608.7886571884155	pulse	0	t		78.0	2.5	/experiments/AOT/AOT_stimuli/rescaled_final/1270_rv.mp4	0.0	631.3453741073608	
80	609.6052470207214	movie	1		243	78.0	2.5	/experiments/AOT/AOT_stimuli/rescaled_final/1270_rv.mp4	0.0	632.1619639396667	2.4999310970306396
80	610.3887631893158	pulse	1	t		78.0	2.5	/experiments/AOT/AOT_stimuli/rescaled_final/1270_rv.mp4	0.0	632.9454801082611	
80	611.9873430728912	pulse	1	t		78.0	2.5	/experiments/AOT/AOT_stimuli/rescaled_final/1270_rv.mp4	0.0	634.5440599918365	
80	612.1051781177521	fix_post	2		12	78.0	2.5	/experiments/AOT/AOT_stimuli/rescaled_final/1270_rv.mp4	0.0	634.6618950366974	0.10000205039978027
81	612.2051801681519	fix_pre	0		120	79.0	2.5	/experiments/AOT/AOT_stimuli/rescaled_final/1980_fw.mp4	0.0	634.7618970870972	0.9995908737182617
81	613.2047710418701	movie	1		244	79.0	2.5	/experiments/AOT/AOT_stimuli/rescaled_final/1980_fw.mp4	0.0	635.7614879608154	2.5004351139068604
81	613.5888750553131	pulse	1	t		79.0	2.5	/experiments/AOT/AOT_stimuli/rescaled_final/1980_fw.mp4	0.0	636.1455919742584	
81	615.1886210441589	pulse	1	t		79.0	2.5	/experiments/AOT/AOT_stimuli/rescaled_final/1980_fw.mp4	0.0	637.7453379631042	
81	615.705206155777	fix_post	2		12	79.0	2.5	/experiments/AOT/AOT_stimuli/rescaled_final/1980_fw.mp4	0.0	638.2619230747223	0.10003185272216797
82	615.8052380084991	fix_pre	0		119	80.0	2.5	/experiments/AOT/AOT_stimuli/rescaled_final/0822_fw.mp4	0.0	638.3619549274445	0.9916360378265381
82	616.7887020111084	pulse	0	t		80.0	2.5	/experiments/AOT/AOT_stimuli/rescaled_final/0822_fw.mp4	0.0	639.3454189300537	
82	616.7968740463257	movie	1		246	80.0	2.5	/experiments/AOT/AOT_stimuli/rescaled_final/0822_fw.mp4	0.0	639.353590965271	2.508352041244507
82	618.388619184494	pulse	1	t		80.0	2.5	/experiments/AOT/AOT_stimuli/rescaled_final/0822_fw.mp4	0.0	640.9453361034393	
82	619.3052260875702	fix_post	2		12	80.0	2.5	/experiments/AOT/AOT_stimuli/rescaled_final/0822_fw.mp4	0.0	641.8619430065155	0.09992098808288574
83	619.4051470756531	fix_pre	0		120	81.0	2.5	/experiments/AOT/AOT_stimuli/rescaled_final/0499_rv.mp4	0.0	641.9618639945984	1.0000050067901611
83	619.9886322021484	pulse	0	t		81.0	2.5	/experiments/AOT/AOT_stimuli/rescaled_final/0499_rv.mp4	0.0	642.5453491210938	
83	620.4051520824432	movie	1		246	81.0	2.5	/experiments/AOT/AOT_stimuli/rescaled_final/0499_rv.mp4	0.0	642.9618690013885	2.499985933303833
83	621.5887591838837	pulse	1	t		81.0	2.5	/experiments/AOT/AOT_stimuli/rescaled_final/0499_rv.mp4	0.0	644.145476102829	
83	622.9051380157471	fix_post	2		12	81.0	2.5	/experiments/AOT/AOT_stimuli/rescaled_final/0499_rv.mp4	0.0	645.4618549346924	0.10004901885986328
84	623.0051870346069	fix_pre	0		120	82.0	2.5	blank	1.0	645.5619039535522	0.9999041557312012
84	623.1886560916901	pulse	0	t		82.0	2.5	blank	1.0	645.7453730106354	
84	624.0050911903381	movie	1		300	82.0	2.5	blank	1.0	646.5618081092834	2.5001068115234375
84	624.7886381149292	pulse	1	t		82.0	2.5	blank	1.0	647.3453550338745	
84	626.3886301517487	pulse	1	t		82.0	2.5	blank	1.0	648.945347070694	
84	626.5051980018616	fix_post	2		12	82.0	2.5	blank	1.0	649.0619149208069	0.09985613822937012
85	626.6050541400909	fix_pre	0		120	83.0	2.5	/experiments/AOT/AOT_stimuli/rescaled_final/0559_rv.mp4	0.0	649.1617710590363	1.0000860691070557
85	627.605140209198	movie	1		242	83.0	2.5	/experiments/AOT/AOT_stimuli/rescaled_final/0559_rv.mp4	0.0	650.1618571281433	2.500005006790161
85	627.9896941184998	pulse	1	t		83.0	2.5	/experiments/AOT/AOT_stimuli/rescaled_final/0559_rv.mp4	0.0	650.5464110374451	
85	629.5885992050171	pulse	1	t		83.0	2.5	/experiments/AOT/AOT_stimuli/rescaled_final/0559_rv.mp4	0.0	652.1453161239624	
85	630.1051452159882	fix_post	2		12	83.0	2.5	/experiments/AOT/AOT_stimuli/rescaled_final/0559_rv.mp4	0.0	652.6618621349335	0.10002493858337402
87	630.2051701545715	stim	0		1716					652.7618870735168	14.29984188079834
87	631.1886241436005	pulse	0	t						653.7453410625458	
87	632.7886002063751	pulse	0	t						655.3453171253204	
87	634.3885090351105	pulse	0	t						656.9452259540558	
87	635.9881191253662	pulse	0	t						658.5448360443115	
87	637.5887110233307	pulse	0	t						660.145427942276	
87	639.1885321140289	pulse	0	t						661.7452490329742	
87	640.7885451316833	pulse	0	t						663.3452620506287	
87	642.3885700702667	pulse	0	t						664.945286989212	
87	643.9884371757507	pulse	0	t						666.545154094696	
