trial_nr	onset	event_type	phase	response	nr_frames	movie_index	movie_duration	movie_file	blank	onset_abs	duration
0	0.1499009132385254	stim	0		59					18.04319667816162	0.4915897846221924
0	0.6334264278411865	response	0	space						18.526722192764282	
1	0.6414906978607178	stim	0		4556					18.534786462783813	37.97465705871582
1	38.60635995864868	pulse	0	t						56.49965572357178	
1	38.61614775657654	stim	1		1714					56.509443521499634	14.299957036972046
1	40.206024408340454	pulse	1	t						58.09932017326355	
1	41.80628967285156	pulse	1	t						59.69958543777466	
1	43.40646314620972	pulse	1	t						61.29975891113281	
1	45.006794452667236	pulse	1	t						62.90009021759033	
1	46.60695838928223	pulse	1	t						64.50025415420532	
1	48.20726919174194	pulse	1	t						66.10056495666504	
1	49.80762958526611	pulse	1	t						67.70092535018921	
1	51.40767979621887	pulse	1	t						69.30097556114197	
2	52.916104793548584	fix_pre	0		12	0.0	2.5	/experiments/knapen_AOT/AOT_stimuli/rescaled_final/1240_rv.mp4	0.0	70.80940055847168	0.13333702087402344
2	53.008002519607544	pulse	0	t		0.0	2.5	/experiments/knapen_AOT/AOT_stimuli/rescaled_final/1240_rv.mp4	0.0	70.90129828453064	
2	53.04944181442261	movie	1		273	0.0	2.5	/experiments/knapen_AOT/AOT_stimuli/rescaled_final/1240_rv.mp4	0.0	70.9427375793457	2.4753482341766357
2	54.6067099571228	pulse	1	t		0.0	2.5	/experiments/knapen_AOT/AOT_stimuli/rescaled_final/1240_rv.mp4	0.0	72.5000057220459	
2	55.52479004859924	fix_post	2		12	0.0	2.5	/experiments/knapen_AOT/AOT_stimuli/rescaled_final/1240_rv.mp4	0.0	73.41808581352234	0.10003066062927246
3	55.624820709228516	fix_pre	0		120	1.0	2.5	/experiments/knapen_AOT/AOT_stimuli/rescaled_final/0685_fw.mp4	0.0	73.51811647415161	1.0085344314575195
3	56.208412885665894	pulse	0	t		1.0	2.5	/experiments/knapen_AOT/AOT_stimuli/rescaled_final/0685_fw.mp4	0.0	74.10170865058899	
3	56.633355140686035	movie	1		284	1.0	2.5	/experiments/knapen_AOT/AOT_stimuli/rescaled_final/0685_fw.mp4	0.0	74.52665090560913	2.4919633865356445
3	57.808311223983765	pulse	1	t		1.0	2.5	/experiments/knapen_AOT/AOT_stimuli/rescaled_final/0685_fw.mp4	0.0	75.70160698890686	
3	59.12531852722168	fix_post	2		12	1.0	2.5	/experiments/knapen_AOT/AOT_stimuli/rescaled_final/0685_fw.mp4	0.0	77.01861429214478	0.10003852844238281
4	59.22535705566406	fix_pre	0		120	2.0	2.5	/experiments/knapen_AOT/AOT_stimuli/rescaled_final/1334_rv.mp4	0.0	77.11865282058716	1.0084662437438965
4	59.40897870063782	pulse	0	t		2.0	2.5	/experiments/knapen_AOT/AOT_stimuli/rescaled_final/1334_rv.mp4	0.0	77.30227446556091	
4	60.23382329940796	movie	1		273	2.0	2.5	/experiments/knapen_AOT/AOT_stimuli/rescaled_final/1334_rv.mp4	0.0	78.12711906433105	2.492033004760742
4	61.00714468955994	pulse	1	t		2.0	2.5	/experiments/knapen_AOT/AOT_stimuli/rescaled_final/1334_rv.mp4	0.0	78.90044045448303	
4	62.6098096370697	pulse	1	t		2.0	2.5	/experiments/knapen_AOT/AOT_stimuli/rescaled_final/1334_rv.mp4	0.0	80.5031054019928	
4	62.7258563041687	fix_post	2		12	2.0	2.5	/experiments/knapen_AOT/AOT_stimuli/rescaled_final/1334_rv.mp4	0.0	80.6191520690918	0.10000944137573242
5	62.825865745544434	fix_pre	0		120	3.0	2.5	/experiments/knapen_AOT/AOT_stimuli/rescaled_final/0622_rv.mp4	0.0	80.71916151046753	1.0084891319274902
5	63.834354877471924	movie	1		275	3.0	2.5	/experiments/knapen_AOT/AOT_stimuli/rescaled_final/0622_rv.mp4	0.0	81.72765064239502	2.5003910064697266
5	64.20753264427185	pulse	1	t		3.0	2.5	/experiments/knapen_AOT/AOT_stimuli/rescaled_final/0622_rv.mp4	0.0	82.10082840919495	
5	65.80777931213379	pulse	1	t		3.0	2.5	/experiments/knapen_AOT/AOT_stimuli/rescaled_final/0622_rv.mp4	0.0	83.70107507705688	
5	66.33474588394165	fix_post	2		11	3.0	2.5	/experiments/knapen_AOT/AOT_stimuli/rescaled_final/0622_rv.mp4	0.0	84.22804164886475	0.09170866012573242
6	66.42645454406738	fix_pre	0		119	4.0	2.5	/experiments/knapen_AOT/AOT_stimuli/rescaled_final/1876_fw.mp4	0.0	84.31975030899048	1.000131368637085
6	67.41015291213989	pulse	0	t		4.0	2.5	/experiments/knapen_AOT/AOT_stimuli/rescaled_final/1876_fw.mp4	0.0	85.30344867706299	
6	67.42658591270447	movie	1		287	4.0	2.5	/experiments/knapen_AOT/AOT_stimuli/rescaled_final/1876_fw.mp4	0.0	85.31988167762756	2.5003693103790283
6	69.00938534736633	pulse	1	t		4.0	2.5	/experiments/knapen_AOT/AOT_stimuli/rescaled_final/1876_fw.mp4	0.0	86.90268111228943	
6	69.9269552230835	fix_post	2		12	4.0	2.5	/experiments/knapen_AOT/AOT_stimuli/rescaled_final/1876_fw.mp4	0.0	87.82025098800659	0.10000896453857422
7	70.02696418762207	fix_pre	0		120	5.0	2.5	/experiments/knapen_AOT/AOT_stimuli/rescaled_final/1611_fw.mp4	0.0	87.92025995254517	1.0085186958312988
7	70.6105887889862	pulse	0	t		5.0	2.5	/experiments/knapen_AOT/AOT_stimuli/rescaled_final/1611_fw.mp4	0.0	88.5038845539093	
7	71.03548288345337	movie	1		273	5.0	2.5	/experiments/knapen_AOT/AOT_stimuli/rescaled_final/1611_fw.mp4	0.0	88.92877864837646	2.4919955730438232
7	72.20935201644897	pulse	1	t		5.0	2.5	/experiments/knapen_AOT/AOT_stimuli/rescaled_final/1611_fw.mp4	0.0	90.10264778137207	
7	73.52747845649719	fix_post	2		12	5.0	2.5	/experiments/knapen_AOT/AOT_stimuli/rescaled_final/1611_fw.mp4	0.0	91.42077422142029	0.10001683235168457
8	73.62749528884888	fix_pre	0		120	6.0	2.5	/experiments/knapen_AOT/AOT_stimuli/rescaled_final/0492_rv.mp4	0.0	91.52079105377197	1.0085246562957764
8	73.81111145019531	pulse	0	t		6.0	2.5	/experiments/knapen_AOT/AOT_stimuli/rescaled_final/0492_rv.mp4	0.0	91.70440721511841	
8	74.63601994514465	movie	1		275	6.0	2.5	/experiments/knapen_AOT/AOT_stimuli/rescaled_final/0492_rv.mp4	0.0	92.52931571006775	2.4920008182525635
8	75.40903067588806	pulse	1	t		6.0	2.5	/experiments/knapen_AOT/AOT_stimuli/rescaled_final/0492_rv.mp4	0.0	93.30232644081116	
8	77.01156902313232	pulse	1	t		6.0	2.5	/experiments/knapen_AOT/AOT_stimuli/rescaled_final/0492_rv.mp4	0.0	94.90486478805542	
8	77.12802076339722	fix_post	2		12	6.0	2.5	/experiments/knapen_AOT/AOT_stimuli/rescaled_final/0492_rv.mp4	0.0	95.02131652832031	0.10011434555053711
9	77.22813510894775	fix_pre	0		120	7.0	2.5	blank	1.0	95.12143087387085	1.0000545978546143
9	78.22818970680237	movie	1		300	7.0	2.5	blank	1.0	96.12148547172546	2.5003607273101807
9	78.6117775440216	pulse	1	t		7.0	2.5	blank	1.0	96.5050733089447	
9	80.2120110988617	pulse	1	t		7.0	2.5	blank	1.0	98.10530686378479	
9	80.72855043411255	fix_post	2		12	7.0	2.5	blank	1.0	98.62184619903564	0.10003137588500977
10	80.82858180999756	fix_pre	0		119	8.0	2.5	/experiments/knapen_AOT/AOT_stimuli/rescaled_final/1763_rv.mp4	0.0	98.72187757492065	1.0001521110534668
10	81.81235241889954	pulse	0	t		8.0	2.5	/experiments/knapen_AOT/AOT_stimuli/rescaled_final/1763_rv.mp4	0.0	99.70564818382263	
10	81.82873392105103	movie	1		286	8.0	2.5	/experiments/knapen_AOT/AOT_stimuli/rescaled_final/1763_rv.mp4	0.0	99.72202968597412	2.5003838539123535
10	83.41199493408203	pulse	1	t		8.0	2.5	/experiments/knapen_AOT/AOT_stimuli/rescaled_final/1763_rv.mp4	0.0	101.30529069900513	
10	84.32911777496338	fix_post	2		12	8.0	2.5	/experiments/knapen_AOT/AOT_stimuli/rescaled_final/1763_rv.mp4	0.0	102.22241353988647	0.10001754760742188
11	84.4291353225708	fix_pre	0		120	9.0	2.5	/experiments/knapen_AOT/AOT_stimuli/rescaled_final/2106_fw.mp4	0.0	102.3224310874939	1.0085365772247314
11	85.01301431655884	pulse	0	t		9.0	2.5	/experiments/knapen_AOT/AOT_stimuli/rescaled_final/2106_fw.mp4	0.0	102.90631008148193	
11	85.43767189979553	movie	1		291	9.0	2.5	/experiments/knapen_AOT/AOT_stimuli/rescaled_final/2106_fw.mp4	0.0	103.33096766471863	2.4919936656951904
11	86.610844373703	pulse	1	t		9.0	2.5	/experiments/knapen_AOT/AOT_stimuli/rescaled_final/2106_fw.mp4	0.0	104.5041401386261	
11	87.92966556549072	fix_post	2		12	9.0	2.5	/experiments/knapen_AOT/AOT_stimuli/rescaled_final/2106_fw.mp4	0.0	105.82296133041382	0.09999966621398926
12	88.02966523170471	fix_pre	0		120	10.0	2.5	/experiments/knapen_AOT/AOT_stimuli/rescaled_final/1790_rv.mp4	0.0	105.92296099662781	1.0084807872772217
12	88.213294506073	pulse	0	t		10.0	2.5	/experiments/knapen_AOT/AOT_stimuli/rescaled_final/1790_rv.mp4	0.0	106.1065902709961	
12	89.03814601898193	movie	1		289	10.0	2.5	/experiments/knapen_AOT/AOT_stimuli/rescaled_final/1790_rv.mp4	0.0	106.93144178390503	2.4920411109924316
12	89.81158065795898	pulse	1	t		10.0	2.5	/experiments/knapen_AOT/AOT_stimuli/rescaled_final/1790_rv.mp4	0.0	107.70487642288208	
12	91.41183161735535	pulse	1	t		10.0	2.5	/experiments/knapen_AOT/AOT_stimuli/rescaled_final/1790_rv.mp4	0.0	109.30512738227844	
12	91.53018712997437	fix_post	2		12	10.0	2.5	/experiments/knapen_AOT/AOT_stimuli/rescaled_final/1790_rv.mp4	0.0	109.42348289489746	0.10002708435058594
13	91.63021421432495	fix_pre	0		120	11.0	2.5	/experiments/knapen_AOT/AOT_stimuli/rescaled_final/0473_fw.mp4	0.0	109.52350997924805	1.0085113048553467
13	92.6387255191803	movie	1		273	11.0	2.5	/experiments/knapen_AOT/AOT_stimuli/rescaled_final/0473_fw.mp4	0.0	110.5320212841034	2.4920337200164795
13	93.0060465335846	pulse	1	t		11.0	2.5	/experiments/knapen_AOT/AOT_stimuli/rescaled_final/0473_fw.mp4	0.0	110.89934229850769	
13	94.60631036758423	pulse	1	t		11.0	2.5	/experiments/knapen_AOT/AOT_stimuli/rescaled_final/0473_fw.mp4	0.0	112.49960613250732	
13	95.13075923919678	fix_post	2		12	11.0	2.5	/experiments/knapen_AOT/AOT_stimuli/rescaled_final/0473_fw.mp4	0.0	113.02405500411987	0.09999632835388184
14	95.23075556755066	fix_pre	0		118	12.0	2.5	blank	1.0	113.12405133247375	0.9834721088409424
14	96.2061014175415	pulse	0	t		12.0	2.5	blank	1.0	114.0993971824646	
14	96.2142276763916	movie	1		301	12.0	2.5	blank	1.0	114.1075234413147	2.5087223052978516
14	97.80632400512695	pulse	1	t		12.0	2.5	blank	1.0	115.69961977005005	
14	98.72294998168945	fix_post	2		12	12.0	2.5	blank	1.0	116.61624574661255	0.10000848770141602
15	98.82295846939087	fix_pre	0		120	13.0	2.5	/experiments/knapen_AOT/AOT_stimuli/rescaled_final/2089_fw.mp4	0.0	116.71625423431396	1.0084919929504395
15	99.40665245056152	pulse	0	t		13.0	2.5	/experiments/knapen_AOT/AOT_stimuli/rescaled_final/2089_fw.mp4	0.0	117.29994821548462	
15	99.83145046234131	movie	1		274	13.0	2.5	/experiments/knapen_AOT/AOT_stimuli/rescaled_final/2089_fw.mp4	0.0	117.7247462272644	2.4920315742492676
15	101.0069899559021	pulse	1	t		13.0	2.5	/experiments/knapen_AOT/AOT_stimuli/rescaled_final/2089_fw.mp4	0.0	118.9002857208252	
15	102.32348203659058	fix_post	2		12	13.0	2.5	/experiments/knapen_AOT/AOT_stimuli/rescaled_final/2089_fw.mp4	0.0	120.21677780151367	0.10001397132873535
16	102.42349600791931	fix_pre	0		120	14.0	2.5	/experiments/knapen_AOT/AOT_stimuli/rescaled_final/1759_rv.mp4	0.0	120.31679177284241	1.008497714996338
16	102.60710549354553	pulse	0	t		14.0	2.5	/experiments/knapen_AOT/AOT_stimuli/rescaled_final/1759_rv.mp4	0.0	120.50040125846863	
16	103.43199372291565	movie	1		268	14.0	2.5	/experiments/knapen_AOT/AOT_stimuli/rescaled_final/1759_rv.mp4	0.0	121.32528948783875	2.492037534713745
16	104.20732402801514	pulse	1	t		14.0	2.5	/experiments/knapen_AOT/AOT_stimuli/rescaled_final/1759_rv.mp4	0.0	122.10061979293823	
16	105.80591630935669	pulse	1	t		14.0	2.5	/experiments/knapen_AOT/AOT_stimuli/rescaled_final/1759_rv.mp4	0.0	123.69921207427979	
16	105.9240312576294	fix_post	2		12	14.0	2.5	/experiments/knapen_AOT/AOT_stimuli/rescaled_final/1759_rv.mp4	0.0	123.81732702255249	0.1000666618347168
17	106.02409791946411	fix_pre	0		120	15.0	2.5	/experiments/knapen_AOT/AOT_stimuli/rescaled_final/0234_rv.mp4	0.0	123.9173936843872	1.0084280967712402
17	107.03252601623535	movie	1		270	15.0	2.5	/experiments/knapen_AOT/AOT_stimuli/rescaled_final/0234_rv.mp4	0.0	124.92582178115845	2.492039918899536
17	107.40616202354431	pulse	1	t		15.0	2.5	/experiments/knapen_AOT/AOT_stimuli/rescaled_final/0234_rv.mp4	0.0	125.29945778846741	
17	109.00913071632385	pulse	1	t		15.0	2.5	/experiments/knapen_AOT/AOT_stimuli/rescaled_final/0234_rv.mp4	0.0	126.90242648124695	
17	109.52456593513489	fix_post	2		12	15.0	2.5	/experiments/knapen_AOT/AOT_stimuli/rescaled_final/0234_rv.mp4	0.0	127.41786170005798	0.10001444816589355
18	109.62458038330078	fix_pre	0		119	16.0	2.5	/experiments/knapen_AOT/AOT_stimuli/rescaled_final/1930_rv.mp4	0.0	127.51787614822388	1.0001740455627441
18	110.6082968711853	pulse	0	t		16.0	2.5	/experiments/knapen_AOT/AOT_stimuli/rescaled_final/1930_rv.mp4	0.0	128.5015926361084	
18	110.62475442886353	movie	1		281	16.0	2.5	/experiments/knapen_AOT/AOT_stimuli/rescaled_final/1930_rv.mp4	0.0	128.51805019378662	2.5003678798675537
18	112.20710492134094	pulse	1	t		16.0	2.5	/experiments/knapen_AOT/AOT_stimuli/rescaled_final/1930_rv.mp4	0.0	130.10040068626404	
18	113.12512230873108	fix_post	2		12	16.0	2.5	/experiments/knapen_AOT/AOT_stimuli/rescaled_final/1930_rv.mp4	0.0	131.01841807365417	0.10001611709594727
19	113.22513842582703	fix_pre	0		120	17.0	2.5	/experiments/knapen_AOT/AOT_stimuli/rescaled_final/0115_rv.mp4	0.0	131.11843419075012	1.0084826946258545
19	113.80877137184143	pulse	0	t		17.0	2.5	/experiments/knapen_AOT/AOT_stimuli/rescaled_final/0115_rv.mp4	0.0	131.70206713676453	
19	114.23362112045288	movie	1		280	17.0	2.5	/experiments/knapen_AOT/AOT_stimuli/rescaled_final/0115_rv.mp4	0.0	132.12691688537598	2.492009401321411
19	115.4074604511261	pulse	1	t		17.0	2.5	/experiments/knapen_AOT/AOT_stimuli/rescaled_final/0115_rv.mp4	0.0	133.3007562160492	
19	116.72563052177429	fix_post	2		12	17.0	2.5	/experiments/knapen_AOT/AOT_stimuli/rescaled_final/0115_rv.mp4	0.0	134.6189262866974	0.10018539428710938
20	116.8258159160614	fix_pre	0		120	18.0	2.5	/experiments/knapen_AOT/AOT_stimuli/rescaled_final/0829_fw.mp4	0.0	134.7191116809845	1.0083575248718262
20	117.00920701026917	pulse	0	t		18.0	2.5	/experiments/knapen_AOT/AOT_stimuli/rescaled_final/0829_fw.mp4	0.0	134.90250277519226	
20	117.83417344093323	movie	1		280	18.0	2.5	/experiments/knapen_AOT/AOT_stimuli/rescaled_final/0829_fw.mp4	0.0	135.72746920585632	2.500345230102539
20	118.60763621330261	pulse	1	t		18.0	2.5	/experiments/knapen_AOT/AOT_stimuli/rescaled_final/0829_fw.mp4	0.0	136.5009319782257	
20	120.20768308639526	pulse	1	t		18.0	2.5	/experiments/knapen_AOT/AOT_stimuli/rescaled_final/0829_fw.mp4	0.0	138.10097885131836	
20	120.33451867103577	fix_post	2		11	18.0	2.5	/experiments/knapen_AOT/AOT_stimuli/rescaled_final/0829_fw.mp4	0.0	138.22781443595886	0.09173345565795898
21	120.42625212669373	fix_pre	0		120	19.0	2.5	/experiments/knapen_AOT/AOT_stimuli/rescaled_final/0327_rv.mp4	0.0	138.31954789161682	1.0084235668182373
21	121.43467569351196	movie	1		271	19.0	2.5	/experiments/knapen_AOT/AOT_stimuli/rescaled_final/0327_rv.mp4	0.0	139.32797145843506	2.4921061992645264
21	121.80833506584167	pulse	1	t		19.0	2.5	/experiments/knapen_AOT/AOT_stimuli/rescaled_final/0327_rv.mp4	0.0	139.70163083076477	
21	123.41097736358643	pulse	1	t		19.0	2.5	/experiments/knapen_AOT/AOT_stimuli/rescaled_final/0327_rv.mp4	0.0	141.30427312850952	
21	123.92678189277649	fix_post	2		12	19.0	2.5	/experiments/knapen_AOT/AOT_stimuli/rescaled_final/0327_rv.mp4	0.0	141.82007765769958	0.0999908447265625
22	124.02677273750305	fix_pre	0		119	20.0	2.5	/experiments/knapen_AOT/AOT_stimuli/rescaled_final/0791_fw.mp4	0.0	141.92006850242615	1.0001399517059326
22	125.01047825813293	pulse	0	t		20.0	2.5	/experiments/knapen_AOT/AOT_stimuli/rescaled_final/0791_fw.mp4	0.0	142.90377402305603	
22	125.02691268920898	movie	1		279	20.0	2.5	/experiments/knapen_AOT/AOT_stimuli/rescaled_final/0791_fw.mp4	0.0	142.92020845413208	2.5003488063812256
22	126.60907053947449	pulse	1	t		20.0	2.5	/experiments/knapen_AOT/AOT_stimuli/rescaled_final/0791_fw.mp4	0.0	144.50236630439758	
22	127.52726149559021	fix_post	2		12	20.0	2.5	/experiments/knapen_AOT/AOT_stimuli/rescaled_final/0791_fw.mp4	0.0	145.4205572605133	0.10001349449157715
23	127.62727499008179	fix_pre	0		120	21.0	2.5	blank	1.0	145.52057075500488	1.0001347064971924
23	128.21089625358582	pulse	0	t		21.0	2.5	blank	1.0	146.1041920185089	
23	128.62740969657898	movie	1		300	21.0	2.5	blank	1.0	146.52070546150208	2.50040340423584
23	129.81114721298218	pulse	1	t		21.0	2.5	blank	1.0	147.70444297790527	
23	131.12781310081482	fix_post	2		12	21.0	2.5	blank	1.0	149.02110886573792	0.10009193420410156
24	131.22790503501892	fix_pre	0		120	22.0	2.5	/experiments/knapen_AOT/AOT_stimuli/rescaled_final/1151_fw.mp4	0.0	149.12120079994202	1.008404016494751
24	131.41141939163208	pulse	0	t		22.0	2.5	/experiments/knapen_AOT/AOT_stimuli/rescaled_final/1151_fw.mp4	0.0	149.30471515655518	
24	132.23630905151367	movie	1		274	22.0	2.5	/experiments/knapen_AOT/AOT_stimuli/rescaled_final/1151_fw.mp4	0.0	150.12960481643677	2.4920332431793213
24	133.01118659973145	pulse	1	t		22.0	2.5	/experiments/knapen_AOT/AOT_stimuli/rescaled_final/1151_fw.mp4	0.0	150.90448236465454	
24	134.60984659194946	pulse	1	t		22.0	2.5	/experiments/knapen_AOT/AOT_stimuli/rescaled_final/1151_fw.mp4	0.0	152.50314235687256	
24	134.728342294693	fix_post	2		12	22.0	2.5	/experiments/knapen_AOT/AOT_stimuli/rescaled_final/1151_fw.mp4	0.0	152.6216380596161	0.09999775886535645
25	134.82834005355835	fix_pre	0		120	23.0	2.5	/experiments/knapen_AOT/AOT_stimuli/rescaled_final/0475_rv.mp4	0.0	152.72163581848145	1.0084998607635498
25	135.8368399143219	movie	1		269	23.0	2.5	/experiments/knapen_AOT/AOT_stimuli/rescaled_final/0475_rv.mp4	0.0	153.730135679245	2.4920434951782227
25	136.21211433410645	pulse	1	t		23.0	2.5	/experiments/knapen_AOT/AOT_stimuli/rescaled_final/0475_rv.mp4	0.0	154.10541009902954	
25	137.81316876411438	pulse	1	t		23.0	2.5	/experiments/knapen_AOT/AOT_stimuli/rescaled_final/0475_rv.mp4	0.0	155.70646452903748	
25	138.32888340950012	fix_post	2		12	23.0	2.5	/experiments/knapen_AOT/AOT_stimuli/rescaled_final/0475_rv.mp4	0.0	156.22217917442322	0.10003113746643066
26	138.42891454696655	fix_pre	0		119	24.0	2.5	/experiments/knapen_AOT/AOT_stimuli/rescaled_final/1711_rv.mp4	0.0	156.32221031188965	1.0004358291625977
26	139.41258358955383	pulse	0	t		24.0	2.5	/experiments/knapen_AOT/AOT_stimuli/rescaled_final/1711_rv.mp4	0.0	157.30587935447693	
26	139.42935037612915	movie	1		268	24.0	2.5	/experiments/knapen_AOT/AOT_stimuli/rescaled_final/1711_rv.mp4	0.0	157.32264614105225	2.5003066062927246
26	141.0130922794342	pulse	1	t		24.0	2.5	/experiments/knapen_AOT/AOT_stimuli/rescaled_final/1711_rv.mp4	0.0	158.9063880443573	
26	141.92965698242188	fix_post	2		12	24.0	2.5	/experiments/knapen_AOT/AOT_stimuli/rescaled_final/1711_rv.mp4	0.0	159.82295274734497	0.09978079795837402
27	142.02943778038025	fix_pre	0		120	25.0	2.5	/experiments/knapen_AOT/AOT_stimuli/rescaled_final/0567_rv.mp4	0.0	159.92273354530334	1.0085439682006836
27	142.6057484149933	pulse	0	t		25.0	2.5	/experiments/knapen_AOT/AOT_stimuli/rescaled_final/0567_rv.mp4	0.0	160.49904417991638	
27	143.03798174858093	movie	1		282	25.0	2.5	/experiments/knapen_AOT/AOT_stimuli/rescaled_final/0567_rv.mp4	0.0	160.93127751350403	2.4919981956481934
27	144.2136423587799	pulse	1	t		25.0	2.5	/experiments/knapen_AOT/AOT_stimuli/rescaled_final/0567_rv.mp4	0.0	162.106938123703	
27	145.52997994422913	fix_post	2		12	25.0	2.5	/experiments/knapen_AOT/AOT_stimuli/rescaled_final/0567_rv.mp4	0.0	163.42327570915222	0.10004830360412598
28	145.63002824783325	fix_pre	0		120	26.0	2.5	/experiments/knapen_AOT/AOT_stimuli/rescaled_final/1386_rv.mp4	0.0	163.52332401275635	1.0085556507110596
28	145.8054165840149	pulse	0	t		26.0	2.5	/experiments/knapen_AOT/AOT_stimuli/rescaled_final/1386_rv.mp4	0.0	163.698712348938	
28	146.6385838985443	movie	1		276	26.0	2.5	/experiments/knapen_AOT/AOT_stimuli/rescaled_final/1386_rv.mp4	0.0	164.5318796634674	2.491926431655884
28	147.40563941001892	pulse	1	t		26.0	2.5	/experiments/knapen_AOT/AOT_stimuli/rescaled_final/1386_rv.mp4	0.0	165.29893517494202	
28	149.00569772720337	pulse	1	t		26.0	2.5	/experiments/knapen_AOT/AOT_stimuli/rescaled_final/1386_rv.mp4	0.0	166.89899349212646	
28	149.1305103302002	fix_post	2		12	26.0	2.5	/experiments/knapen_AOT/AOT_stimuli/rescaled_final/1386_rv.mp4	0.0	167.0238060951233	0.10009956359863281
29	149.23060989379883	fix_pre	0		120	27.0	2.5	/experiments/knapen_AOT/AOT_stimuli/rescaled_final/0117_rv.mp4	0.0	167.12390565872192	1.0084266662597656
29	150.2390365600586	movie	1		279	27.0	2.5	/experiments/knapen_AOT/AOT_stimuli/rescaled_final/0117_rv.mp4	0.0	168.1323323249817	2.4920403957366943
29	150.6061074733734	pulse	1	t		27.0	2.5	/experiments/knapen_AOT/AOT_stimuli/rescaled_final/0117_rv.mp4	0.0	168.4994032382965	
29	152.20636749267578	pulse	1	t		27.0	2.5	/experiments/knapen_AOT/AOT_stimuli/rescaled_final/0117_rv.mp4	0.0	170.09966325759888	
29	152.7310769557953	fix_post	2		12	27.0	2.5	/experiments/knapen_AOT/AOT_stimuli/rescaled_final/0117_rv.mp4	0.0	170.62437272071838	0.10000777244567871
30	152.83108472824097	fix_pre	0		118	28.0	2.5	blank	1.0	170.72438049316406	0.9835038185119629
30	153.80642414093018	pulse	0	t		28.0	2.5	blank	1.0	171.69971990585327	
30	153.81458854675293	movie	1		301	28.0	2.5	blank	1.0	171.70788431167603	2.5087242126464844
30	155.4066517353058	pulse	1	t		28.0	2.5	blank	1.0	173.29994750022888	
30	156.3233127593994	fix_post	2		12	28.0	2.5	blank	1.0	174.2166085243225	0.100006103515625
31	156.42331886291504	fix_pre	0		120	29.0	2.5	/experiments/knapen_AOT/AOT_stimuli/rescaled_final/0473_rv.mp4	0.0	174.31661462783813	1.0084571838378906
31	157.00691962242126	pulse	0	t		29.0	2.5	/experiments/knapen_AOT/AOT_stimuli/rescaled_final/0473_rv.mp4	0.0	174.90021538734436	
31	157.43177604675293	movie	1		282	29.0	2.5	/experiments/knapen_AOT/AOT_stimuli/rescaled_final/0473_rv.mp4	0.0	175.32507181167603	2.4920592308044434
31	158.6059446334839	pulse	1	t		29.0	2.5	/experiments/knapen_AOT/AOT_stimuli/rescaled_final/0473_rv.mp4	0.0	176.49924039840698	
31	159.92383527755737	fix_post	2		12	29.0	2.5	/experiments/knapen_AOT/AOT_stimuli/rescaled_final/0473_rv.mp4	0.0	177.81713104248047	0.10002303123474121
32	160.02385830879211	fix_pre	0		120	30.0	2.5	/experiments/knapen_AOT/AOT_stimuli/rescaled_final/2113_rv.mp4	0.0	177.9171540737152	1.0084309577941895
32	160.20736837387085	pulse	0	t		30.0	2.5	/experiments/knapen_AOT/AOT_stimuli/rescaled_final/2113_rv.mp4	0.0	178.10066413879395	
32	161.0322892665863	movie	1		276	30.0	2.5	/experiments/knapen_AOT/AOT_stimuli/rescaled_final/2113_rv.mp4	0.0	178.9255850315094	2.492111921310425
32	161.80541110038757	pulse	1	t		30.0	2.5	/experiments/knapen_AOT/AOT_stimuli/rescaled_final/2113_rv.mp4	0.0	179.69870686531067	
32	163.40602111816406	pulse	1	t		30.0	2.5	/experiments/knapen_AOT/AOT_stimuli/rescaled_final/2113_rv.mp4	0.0	181.29931688308716	
32	163.52440118789673	fix_post	2		12	30.0	2.5	/experiments/knapen_AOT/AOT_stimuli/rescaled_final/2113_rv.mp4	0.0	181.41769695281982	0.1000208854675293
33	163.62442207336426	fix_pre	0		120	31.0	2.5	/experiments/knapen_AOT/AOT_stimuli/rescaled_final/1506_fw.mp4	0.0	181.51771783828735	1.0084528923034668
33	164.63287496566772	movie	1		277	31.0	2.5	/experiments/knapen_AOT/AOT_stimuli/rescaled_final/1506_fw.mp4	0.0	182.52617073059082	2.49202823638916
33	165.0068645477295	pulse	1	t		31.0	2.5	/experiments/knapen_AOT/AOT_stimuli/rescaled_final/1506_fw.mp4	0.0	182.9001603126526	
33	166.60630583763123	pulse	1	t		31.0	2.5	/experiments/knapen_AOT/AOT_stimuli/rescaled_final/1506_fw.mp4	0.0	184.49960160255432	
33	167.12490320205688	fix_post	2		12	31.0	2.5	/experiments/knapen_AOT/AOT_stimuli/rescaled_final/1506_fw.mp4	0.0	185.01819896697998	0.09998488426208496
34	167.22488808631897	fix_pre	0		119	32.0	2.5	/experiments/knapen_AOT/AOT_stimuli/rescaled_final/0142_fw.mp4	0.0	185.11818385124207	1.0001792907714844
34	168.20854353904724	pulse	0	t		32.0	2.5	/experiments/knapen_AOT/AOT_stimuli/rescaled_final/0142_fw.mp4	0.0	186.10183930397034	
34	168.22506737709045	movie	1		287	32.0	2.5	/experiments/knapen_AOT/AOT_stimuli/rescaled_final/0142_fw.mp4	0.0	186.11836314201355	2.500365734100342
34	169.8075602054596	pulse	1	t		32.0	2.5	/experiments/knapen_AOT/AOT_stimuli/rescaled_final/0142_fw.mp4	0.0	187.7008559703827	
34	170.7254331111908	fix_post	2		12	32.0	2.5	/experiments/knapen_AOT/AOT_stimuli/rescaled_final/0142_fw.mp4	0.0	188.6187288761139	0.10007047653198242
35	170.82550358772278	fix_pre	0		120	33.0	2.5	/experiments/knapen_AOT/AOT_stimuli/rescaled_final/0750_fw.mp4	0.0	188.71879935264587	1.0084631443023682
35	171.40907859802246	pulse	0	t		33.0	2.5	/experiments/knapen_AOT/AOT_stimuli/rescaled_final/0750_fw.mp4	0.0	189.30237436294556	
35	171.83396673202515	movie	1		284	33.0	2.5	/experiments/knapen_AOT/AOT_stimuli/rescaled_final/0750_fw.mp4	0.0	189.72726249694824	2.491992473602295
35	173.0075981616974	pulse	1	t		33.0	2.5	/experiments/knapen_AOT/AOT_stimuli/rescaled_final/0750_fw.mp4	0.0	190.90089392662048	
35	174.32595920562744	fix_post	2		12	33.0	2.5	/experiments/knapen_AOT/AOT_stimuli/rescaled_final/0750_fw.mp4	0.0	192.21925497055054	0.10003161430358887
36	174.42599081993103	fix_pre	0		120	34.0	2.5	blank	1.0	192.31928658485413	1.0001254081726074
36	174.60956406593323	pulse	0	t		34.0	2.5	blank	1.0	192.50285983085632	
36	175.42611622810364	movie	1		300	34.0	2.5	blank	1.0	193.31941199302673	2.5004470348358154
36	176.20976495742798	pulse	1	t		34.0	2.5	blank	1.0	194.10306072235107	
36	177.81000924110413	pulse	1	t		34.0	2.5	blank	1.0	195.70330500602722	
36	177.92656326293945	fix_post	2		12	34.0	2.5	blank	1.0	195.81985902786255	0.10000371932983398
37	178.0265669822693	fix_pre	0		120	35.0	2.5	/experiments/knapen_AOT/AOT_stimuli/rescaled_final/0964_fw.mp4	0.0	195.91986274719238	1.0084505081176758
37	179.03501749038696	movie	1		278	35.0	2.5	/experiments/knapen_AOT/AOT_stimuli/rescaled_final/0964_fw.mp4	0.0	196.92831325531006	2.5003905296325684
37	179.40875482559204	pulse	1	t		35.0	2.5	/experiments/knapen_AOT/AOT_stimuli/rescaled_final/0964_fw.mp4	0.0	197.30205059051514	
37	181.00837206840515	pulse	1	t		35.0	2.5	/experiments/knapen_AOT/AOT_stimuli/rescaled_final/0964_fw.mp4	0.0	198.90166783332825	
37	181.53540802001953	fix_post	2		11	35.0	2.5	/experiments/knapen_AOT/AOT_stimuli/rescaled_final/0964_fw.mp4	0.0	199.42870378494263	0.09164309501647949
38	181.627051115036	fix_pre	0		119	36.0	2.5	/experiments/knapen_AOT/AOT_stimuli/rescaled_final/1334_rv.mp4	0.0	199.5203468799591	1.0001628398895264
38	182.6107246875763	pulse	0	t		36.0	2.5	/experiments/knapen_AOT/AOT_stimuli/rescaled_final/1334_rv.mp4	0.0	200.5040204524994	
38	182.62721395492554	movie	1		276	36.0	2.5	/experiments/knapen_AOT/AOT_stimuli/rescaled_final/1334_rv.mp4	0.0	200.52050971984863	2.5003721714019775
38	184.20925617218018	pulse	1	t		36.0	2.5	/experiments/knapen_AOT/AOT_stimuli/rescaled_final/1334_rv.mp4	0.0	202.10255193710327	
38	185.12758612632751	fix_post	2		12	36.0	2.5	/experiments/knapen_AOT/AOT_stimuli/rescaled_final/1334_rv.mp4	0.0	203.0208818912506	0.10008430480957031
39	185.22767043113708	fix_pre	0		120	37.0	2.5	/experiments/knapen_AOT/AOT_stimuli/rescaled_final/1870_rv.mp4	0.0	203.12096619606018	1.0084352493286133
39	185.81126594543457	pulse	0	t		37.0	2.5	/experiments/knapen_AOT/AOT_stimuli/rescaled_final/1870_rv.mp4	0.0	203.70456171035767	
39	186.2361056804657	movie	1		277	37.0	2.5	/experiments/knapen_AOT/AOT_stimuli/rescaled_final/1870_rv.mp4	0.0	204.1294014453888	2.492055654525757
39	187.40974521636963	pulse	1	t		37.0	2.5	/experiments/knapen_AOT/AOT_stimuli/rescaled_final/1870_rv.mp4	0.0	205.30304098129272	
39	188.72816133499146	fix_post	2		12	37.0	2.5	/experiments/knapen_AOT/AOT_stimuli/rescaled_final/1870_rv.mp4	0.0	206.62145709991455	0.09997820854187012
40	188.82813954353333	fix_pre	0		120	38.0	2.5	/experiments/knapen_AOT/AOT_stimuli/rescaled_final/1099_rv.mp4	0.0	206.72143530845642	1.0085270404815674
40	189.01174092292786	pulse	0	t		38.0	2.5	/experiments/knapen_AOT/AOT_stimuli/rescaled_final/1099_rv.mp4	0.0	206.90503668785095	
40	189.8366665840149	movie	1		267	38.0	2.5	/experiments/knapen_AOT/AOT_stimuli/rescaled_final/1099_rv.mp4	0.0	207.729962348938	2.4919955730438232
40	190.60993885993958	pulse	1	t		38.0	2.5	/experiments/knapen_AOT/AOT_stimuli/rescaled_final/1099_rv.mp4	0.0	208.50323462486267	
40	192.21184253692627	pulse	1	t		38.0	2.5	/experiments/knapen_AOT/AOT_stimuli/rescaled_final/1099_rv.mp4	0.0	210.10513830184937	
40	192.32866215705872	fix_post	2		12	38.0	2.5	/experiments/knapen_AOT/AOT_stimuli/rescaled_final/1099_rv.mp4	0.0	210.2219579219818	0.10008883476257324
41	192.4287509918213	fix_pre	0		120	39.0	2.5	/experiments/knapen_AOT/AOT_stimuli/rescaled_final/0960_fw.mp4	0.0	210.32204675674438	1.0084140300750732
41	193.43716502189636	movie	1		290	39.0	2.5	/experiments/knapen_AOT/AOT_stimuli/rescaled_final/0960_fw.mp4	0.0	211.33046078681946	2.49208402633667
41	193.81084513664246	pulse	1	t		39.0	2.5	/experiments/knapen_AOT/AOT_stimuli/rescaled_final/0960_fw.mp4	0.0	211.70414090156555	
41	195.4124050140381	pulse	1	t		39.0	2.5	/experiments/knapen_AOT/AOT_stimuli/rescaled_final/0960_fw.mp4	0.0	213.30570077896118	
41	195.92924904823303	fix_post	2		12	39.0	2.5	/experiments/knapen_AOT/AOT_stimuli/rescaled_final/0960_fw.mp4	0.0	213.82254481315613	0.09996914863586426
42	196.0292181968689	fix_pre	0		119	40.0	2.5	/experiments/knapen_AOT/AOT_stimuli/rescaled_final/1243_rv.mp4	0.0	213.922513961792	1.0002326965332031
42	197.01290702819824	pulse	0	t		40.0	2.5	/experiments/knapen_AOT/AOT_stimuli/rescaled_final/1243_rv.mp4	0.0	214.90620279312134	
42	197.0294508934021	movie	1		284	40.0	2.5	/experiments/knapen_AOT/AOT_stimuli/rescaled_final/1243_rv.mp4	0.0	214.9227466583252	2.500300645828247
42	198.61154961585999	pulse	1	t		40.0	2.5	/experiments/knapen_AOT/AOT_stimuli/rescaled_final/1243_rv.mp4	0.0	216.50484538078308	
42	199.52975153923035	fix_post	2		12	40.0	2.5	/experiments/knapen_AOT/AOT_stimuli/rescaled_final/1243_rv.mp4	0.0	217.42304730415344	0.10001516342163086
43	199.62976670265198	fix_pre	0		120	41.0	2.5	blank	1.0	217.52306246757507	1.0001559257507324
43	200.20569896697998	pulse	0	t		41.0	2.5	blank	1.0	218.09899473190308	
43	200.6299226284027	movie	1		300	41.0	2.5	blank	1.0	218.5232183933258	2.500356674194336
43	201.80576300621033	pulse	1	t		41.0	2.5	blank	1.0	219.69905877113342	
43	203.13027930259705	fix_post	2		12	41.0	2.5	blank	1.0	221.02357506752014	0.10003328323364258
44	203.2303125858307	fix_pre	0		120	42.0	2.5	/experiments/knapen_AOT/AOT_stimuli/rescaled_final/2106_rv.mp4	0.0	221.12360835075378	1.0084803104400635
44	203.40577578544617	pulse	0	t		42.0	2.5	/experiments/knapen_AOT/AOT_stimuli/rescaled_final/2106_rv.mp4	0.0	221.29907155036926	
44	204.23879289627075	movie	1		279	42.0	2.5	/experiments/knapen_AOT/AOT_stimuli/rescaled_final/2106_rv.mp4	0.0	222.13208866119385	2.4920389652252197
44	205.01434206962585	pulse	1	t		42.0	2.5	/experiments/knapen_AOT/AOT_stimuli/rescaled_final/2106_rv.mp4	0.0	222.90763783454895	
44	206.60603952407837	pulse	1	t		42.0	2.5	/experiments/knapen_AOT/AOT_stimuli/rescaled_final/2106_rv.mp4	0.0	224.49933528900146	
44	206.73083186149597	fix_post	2		12	42.0	2.5	/experiments/knapen_AOT/AOT_stimuli/rescaled_final/2106_rv.mp4	0.0	224.62412762641907	0.10007381439208984
45	206.83090567588806	fix_pre	0		120	43.0	2.5	/experiments/knapen_AOT/AOT_stimuli/rescaled_final/0359_rv.mp4	0.0	224.72420144081116	1.0084328651428223
45	207.83933854103088	movie	1		277	43.0	2.5	/experiments/knapen_AOT/AOT_stimuli/rescaled_final/0359_rv.mp4	0.0	225.73263430595398	2.492025852203369
45	208.20632576942444	pulse	1	t		43.0	2.5	/experiments/knapen_AOT/AOT_stimuli/rescaled_final/0359_rv.mp4	0.0	226.09962153434753	
45	209.80661988258362	pulse	1	t		43.0	2.5	/experiments/knapen_AOT/AOT_stimuli/rescaled_final/0359_rv.mp4	0.0	227.6999156475067	
45	210.33136439323425	fix_post	2		12	43.0	2.5	/experiments/knapen_AOT/AOT_stimuli/rescaled_final/0359_rv.mp4	0.0	228.22466015815735	0.10003423690795898
46	210.4313986301422	fix_pre	0		118	44.0	2.5	/experiments/knapen_AOT/AOT_stimuli/rescaled_final/2119_fw.mp4	0.0	228.3246943950653	0.9918274879455566
46	211.4067780971527	pulse	0	t		44.0	2.5	/experiments/knapen_AOT/AOT_stimuli/rescaled_final/2119_fw.mp4	0.0	229.3000738620758	
46	211.42322611808777	movie	1		281	44.0	2.5	/experiments/knapen_AOT/AOT_stimuli/rescaled_final/2119_fw.mp4	0.0	229.31652188301086	2.5004749298095703
46	213.00709128379822	pulse	1	t		44.0	2.5	/experiments/knapen_AOT/AOT_stimuli/rescaled_final/2119_fw.mp4	0.0	230.9003870487213	
46	213.92370104789734	fix_post	2		12	44.0	2.5	/experiments/knapen_AOT/AOT_stimuli/rescaled_final/2119_fw.mp4	0.0	231.81699681282043	0.09990429878234863
47	214.0236053466797	fix_pre	0		120	45.0	2.5	/experiments/knapen_AOT/AOT_stimuli/rescaled_final/1144_fw.mp4	0.0	231.91690111160278	1.0085241794586182
47	214.6072416305542	pulse	0	t		45.0	2.5	/experiments/knapen_AOT/AOT_stimuli/rescaled_final/1144_fw.mp4	0.0	232.5005373954773	
47	215.0321295261383	movie	1		288	45.0	2.5	/experiments/knapen_AOT/AOT_stimuli/rescaled_final/1144_fw.mp4	0.0	232.9254252910614	2.4919891357421875
47	216.207581281662	pulse	1	t		45.0	2.5	/experiments/knapen_AOT/AOT_stimuli/rescaled_final/1144_fw.mp4	0.0	234.10087704658508	
47	217.5241186618805	fix_post	2		12	45.0	2.5	/experiments/knapen_AOT/AOT_stimuli/rescaled_final/1144_fw.mp4	0.0	235.4174144268036	0.10002708435058594
48	217.62414574623108	fix_pre	0		120	46.0	2.5	/experiments/knapen_AOT/AOT_stimuli/rescaled_final/1461_rv.mp4	0.0	235.51744151115417	1.0084900856018066
48	217.8077356815338	pulse	0	t		46.0	2.5	/experiments/knapen_AOT/AOT_stimuli/rescaled_final/1461_rv.mp4	0.0	235.7010314464569	
48	218.63263583183289	movie	1		266	46.0	2.5	/experiments/knapen_AOT/AOT_stimuli/rescaled_final/1461_rv.mp4	0.0	236.52593159675598	2.4920310974121094
48	219.40600967407227	pulse	1	t		46.0	2.5	/experiments/knapen_AOT/AOT_stimuli/rescaled_final/1461_rv.mp4	0.0	237.29930543899536	
48	221.00607323646545	pulse	1	t		46.0	2.5	/experiments/knapen_AOT/AOT_stimuli/rescaled_final/1461_rv.mp4	0.0	238.89936900138855	
48	221.124666929245	fix_post	2		12	46.0	2.5	/experiments/knapen_AOT/AOT_stimuli/rescaled_final/1461_rv.mp4	0.0	239.0179626941681	0.10001158714294434
49	221.22467851638794	fix_pre	0		120	47.0	2.5	blank	1.0	239.11797428131104	1.0001471042633057
49	222.22482562065125	movie	1		300	47.0	2.5	blank	1.0	240.11812138557434	2.5003585815429688
49	222.60841608047485	pulse	1	t		47.0	2.5	blank	1.0	240.50171184539795	
49	224.20867896080017	pulse	1	t		47.0	2.5	blank	1.0	242.10197472572327	
49	224.7251842021942	fix_post	2		12	47.0	2.5	blank	1.0	242.6184799671173	0.10004758834838867
50	224.8252317905426	fix_pre	0		119	48.0	2.5	/experiments/knapen_AOT/AOT_stimuli/rescaled_final/1222_fw.mp4	0.0	242.7185275554657	1.0001461505889893
50	225.80919909477234	pulse	0	t		48.0	2.5	/experiments/knapen_AOT/AOT_stimuli/rescaled_final/1222_fw.mp4	0.0	243.70249485969543	
50	225.8253779411316	movie	1		276	48.0	2.5	/experiments/knapen_AOT/AOT_stimuli/rescaled_final/1222_fw.mp4	0.0	243.7186737060547	2.5003650188446045
50	227.40763878822327	pulse	1	t		48.0	2.5	/experiments/knapen_AOT/AOT_stimuli/rescaled_final/1222_fw.mp4	0.0	245.30093455314636	
50	228.3257429599762	fix_post	2		12	48.0	2.5	/experiments/knapen_AOT/AOT_stimuli/rescaled_final/1222_fw.mp4	0.0	246.2190387248993	0.10003948211669922
51	228.4257824420929	fix_pre	0		120	49.0	2.5	/experiments/knapen_AOT/AOT_stimuli/rescaled_final/0473_rv.mp4	0.0	246.319078207016	1.0085725784301758
51	229.00982189178467	pulse	0	t		49.0	2.5	/experiments/knapen_AOT/AOT_stimuli/rescaled_final/0473_rv.mp4	0.0	246.90311765670776	
51	229.43435502052307	movie	1		279	49.0	2.5	/experiments/knapen_AOT/AOT_stimuli/rescaled_final/0473_rv.mp4	0.0	247.32765078544617	2.491927146911621
51	230.6077697277069	pulse	1	t		49.0	2.5	/experiments/knapen_AOT/AOT_stimuli/rescaled_final/0473_rv.mp4	0.0	248.50106549263	
51	231.9262821674347	fix_post	2		12	49.0	2.5	/experiments/knapen_AOT/AOT_stimuli/rescaled_final/0473_rv.mp4	0.0	249.8195779323578	0.10018062591552734
52	232.02646279335022	fix_pre	0		120	50.0	2.5	/experiments/knapen_AOT/AOT_stimuli/rescaled_final/0332_rv.mp4	0.0	249.91975855827332	1.008357048034668
52	232.20984840393066	pulse	0	t		50.0	2.5	/experiments/knapen_AOT/AOT_stimuli/rescaled_final/0332_rv.mp4	0.0	250.10314416885376	
52	233.0348198413849	movie	1		280	50.0	2.5	/experiments/knapen_AOT/AOT_stimuli/rescaled_final/0332_rv.mp4	0.0	250.92811560630798	2.492027759552002
52	233.80953645706177	pulse	1	t		50.0	2.5	/experiments/knapen_AOT/AOT_stimuli/rescaled_final/0332_rv.mp4	0.0	251.70283222198486	
52	235.40845370292664	pulse	1	t		50.0	2.5	/experiments/knapen_AOT/AOT_stimuli/rescaled_final/0332_rv.mp4	0.0	253.30174946784973	
52	235.5268476009369	fix_post	2		12	50.0	2.5	/experiments/knapen_AOT/AOT_stimuli/rescaled_final/0332_rv.mp4	0.0	253.42014336585999	0.10001397132873535
53	235.62686157226562	fix_pre	0		120	51.0	2.5	/experiments/knapen_AOT/AOT_stimuli/rescaled_final/1453_fw.mp4	0.0	253.52015733718872	1.0084738731384277
53	236.63533544540405	movie	1		282	51.0	2.5	/experiments/knapen_AOT/AOT_stimuli/rescaled_final/1453_fw.mp4	0.0	254.52863121032715	2.492025375366211
53	237.01028633117676	pulse	1	t		51.0	2.5	/experiments/knapen_AOT/AOT_stimuli/rescaled_final/1453_fw.mp4	0.0	254.90358209609985	
53	238.6087508201599	pulse	1	t		51.0	2.5	/experiments/knapen_AOT/AOT_stimuli/rescaled_final/1453_fw.mp4	0.0	256.502046585083	
53	239.12736082077026	fix_post	2		12	51.0	2.5	/experiments/knapen_AOT/AOT_stimuli/rescaled_final/1453_fw.mp4	0.0	257.02065658569336	0.10001611709594727
54	239.2273769378662	fix_pre	0		119	52.0	2.5	/experiments/knapen_AOT/AOT_stimuli/rescaled_final/1240_rv.mp4	0.0	257.1206727027893	1.0001611709594727
54	240.21107983589172	pulse	0	t		52.0	2.5	/experiments/knapen_AOT/AOT_stimuli/rescaled_final/1240_rv.mp4	0.0	258.1043756008148	
54	240.22753810882568	movie	1		272	52.0	2.5	/experiments/knapen_AOT/AOT_stimuli/rescaled_final/1240_rv.mp4	0.0	258.1208338737488	2.5003604888916016
54	241.8104977607727	pulse	1	t		52.0	2.5	/experiments/knapen_AOT/AOT_stimuli/rescaled_final/1240_rv.mp4	0.0	259.7037935256958	
54	242.72789859771729	fix_post	2		12	52.0	2.5	/experiments/knapen_AOT/AOT_stimuli/rescaled_final/1240_rv.mp4	0.0	260.6211943626404	0.10003519058227539
55	242.82793378829956	fix_pre	0		120	53.0	2.5	/experiments/knapen_AOT/AOT_stimuli/rescaled_final/1419_rv.mp4	0.0	260.72122955322266	1.008457899093628
55	243.4115912914276	pulse	0	t		53.0	2.5	/experiments/knapen_AOT/AOT_stimuli/rescaled_final/1419_rv.mp4	0.0	261.3048870563507	
55	243.8363916873932	movie	1		283	53.0	2.5	/experiments/knapen_AOT/AOT_stimuli/rescaled_final/1419_rv.mp4	0.0	261.7296874523163	2.4920499324798584
55	245.01197385787964	pulse	1	t		53.0	2.5	/experiments/knapen_AOT/AOT_stimuli/rescaled_final/1419_rv.mp4	0.0	262.90526962280273	
55	246.32844161987305	fix_post	2		12	53.0	2.5	/experiments/knapen_AOT/AOT_stimuli/rescaled_final/1419_rv.mp4	0.0	264.22173738479614	0.10004067420959473
56	246.42848229408264	fix_pre	0		120	54.0	2.5	blank	1.0	264.32177805900574	1.000122308731079
56	246.61204957962036	pulse	0	t		54.0	2.5	blank	1.0	264.50534534454346	
56	247.42860460281372	movie	1		300	54.0	2.5	blank	1.0	265.3219003677368	2.5004453659057617
56	248.2122986316681	pulse	1	t		54.0	2.5	blank	1.0	266.1055943965912	
56	249.8124840259552	pulse	1	t		54.0	2.5	blank	1.0	267.7057797908783	
56	249.92904996871948	fix_post	2		12	54.0	2.5	blank	1.0	267.8223457336426	0.10001802444458008
57	250.02906799316406	fix_pre	0		120	55.0	2.5	/experiments/knapen_AOT/AOT_stimuli/rescaled_final/1836_rv.mp4	0.0	267.92236375808716	1.0084338188171387
57	251.0375018119812	movie	1		281	55.0	2.5	/experiments/knapen_AOT/AOT_stimuli/rescaled_final/1836_rv.mp4	0.0	268.9307975769043	2.492137908935547
57	251.41104698181152	pulse	1	t		55.0	2.5	/experiments/knapen_AOT/AOT_stimuli/rescaled_final/1836_rv.mp4	0.0	269.3043427467346	
57	253.01084923744202	pulse	1	t		55.0	2.5	/experiments/knapen_AOT/AOT_stimuli/rescaled_final/1836_rv.mp4	0.0	270.9041450023651	
57	253.52963972091675	fix_post	2		11	55.0	2.5	/experiments/knapen_AOT/AOT_stimuli/rescaled_final/1836_rv.mp4	0.0	271.42293548583984	0.09991598129272461
58	253.62955570220947	fix_pre	0		119	56.0	2.5	/experiments/knapen_AOT/AOT_stimuli/rescaled_final/2158_fw.mp4	0.0	271.52285146713257	1.0001673698425293
58	254.61323809623718	pulse	0	t		56.0	2.5	/experiments/knapen_AOT/AOT_stimuli/rescaled_final/2158_fw.mp4	0.0	272.5065338611603	
58	254.629723072052	movie	1		275	56.0	2.5	/experiments/knapen_AOT/AOT_stimuli/rescaled_final/2158_fw.mp4	0.0	272.5230188369751	2.500389814376831
58	256.2117648124695	pulse	1	t		56.0	2.5	/experiments/knapen_AOT/AOT_stimuli/rescaled_final/2158_fw.mp4	0.0	274.1050605773926	
58	257.13011288642883	fix_post	2		12	56.0	2.5	/experiments/knapen_AOT/AOT_stimuli/rescaled_final/2158_fw.mp4	0.0	275.02340865135193	0.10010886192321777
59	257.23022174835205	fix_pre	0		120	57.0	2.5	/experiments/knapen_AOT/AOT_stimuli/rescaled_final/1150_fw.mp4	0.0	275.12351751327515	1.0083720684051514
59	257.8139479160309	pulse	0	t		57.0	2.5	/experiments/knapen_AOT/AOT_stimuli/rescaled_final/1150_fw.mp4	0.0	275.707243680954	
59	258.2385938167572	movie	1		289	57.0	2.5	/experiments/knapen_AOT/AOT_stimuli/rescaled_final/1150_fw.mp4	0.0	276.1318895816803	2.4920201301574707
59	259.41231513023376	pulse	1	t		57.0	2.5	/experiments/knapen_AOT/AOT_stimuli/rescaled_final/1150_fw.mp4	0.0	277.30561089515686	
59	260.7306139469147	fix_post	2		12	57.0	2.5	/experiments/knapen_AOT/AOT_stimuli/rescaled_final/1150_fw.mp4	0.0	278.62390971183777	0.10001373291015625
60	260.83062767982483	fix_pre	0		120	58.0	2.5	/experiments/knapen_AOT/AOT_stimuli/rescaled_final/1442_rv.mp4	0.0	278.7239234447479	1.008521318435669
60	261.0062210559845	pulse	0	t		58.0	2.5	/experiments/knapen_AOT/AOT_stimuli/rescaled_final/1442_rv.mp4	0.0	278.8995168209076	
60	261.8391489982605	movie	1		283	58.0	2.5	/experiments/knapen_AOT/AOT_stimuli/rescaled_final/1442_rv.mp4	0.0	279.7324447631836	2.4919989109039307
60	262.60622477531433	pulse	1	t		58.0	2.5	/experiments/knapen_AOT/AOT_stimuli/rescaled_final/1442_rv.mp4	0.0	280.4995205402374	
60	264.2063322067261	pulse	1	t		58.0	2.5	/experiments/knapen_AOT/AOT_stimuli/rescaled_final/1442_rv.mp4	0.0	282.09962797164917	
60	264.33114790916443	fix_post	2		12	58.0	2.5	/experiments/knapen_AOT/AOT_stimuli/rescaled_final/1442_rv.mp4	0.0	282.2244436740875	0.1000213623046875
61	264.4311692714691	fix_pre	0		120	59.0	2.5	/experiments/knapen_AOT/AOT_stimuli/rescaled_final/1556_fw.mp4	0.0	282.3244650363922	1.0085654258728027
61	265.4397346973419	movie	1		276	59.0	2.5	/experiments/knapen_AOT/AOT_stimuli/rescaled_final/1556_fw.mp4	0.0	283.333030462265	2.4919464588165283
61	265.8067967891693	pulse	1	t		59.0	2.5	/experiments/knapen_AOT/AOT_stimuli/rescaled_final/1556_fw.mp4	0.0	283.7000925540924	
61	267.40682721138	pulse	1	t		59.0	2.5	/experiments/knapen_AOT/AOT_stimuli/rescaled_final/1556_fw.mp4	0.0	285.3001229763031	
61	267.93168115615845	fix_post	2		12	59.0	2.5	/experiments/knapen_AOT/AOT_stimuli/rescaled_final/1556_fw.mp4	0.0	285.82497692108154	0.10013914108276367
62	268.0318202972412	fix_pre	0		118	60.0	2.5	/experiments/knapen_AOT/AOT_stimuli/rescaled_final/0947_fw.mp4	0.0	285.9251160621643	0.9917066097259521
62	269.00714015960693	pulse	0	t		60.0	2.5	/experiments/knapen_AOT/AOT_stimuli/rescaled_final/0947_fw.mp4	0.0	286.90043592453003	
62	269.02352690696716	movie	1		284	60.0	2.5	/experiments/knapen_AOT/AOT_stimuli/rescaled_final/0947_fw.mp4	0.0	286.91682267189026	2.500373363494873
62	270.60748171806335	pulse	1	t		60.0	2.5	/experiments/knapen_AOT/AOT_stimuli/rescaled_final/0947_fw.mp4	0.0	288.50077748298645	
62	271.52390027046204	fix_post	2		12	60.0	2.5	/experiments/knapen_AOT/AOT_stimuli/rescaled_final/0947_fw.mp4	0.0	289.41719603538513	0.1000521183013916
63	271.6239523887634	fix_pre	0		120	61.0	2.5	/experiments/knapen_AOT/AOT_stimuli/rescaled_final/1836_rv.mp4	0.0	289.5172481536865	1.0084450244903564
63	272.20754623413086	pulse	0	t		61.0	2.5	/experiments/knapen_AOT/AOT_stimuli/rescaled_final/1836_rv.mp4	0.0	290.10084199905396	
63	272.6323974132538	movie	1		276	61.0	2.5	/experiments/knapen_AOT/AOT_stimuli/rescaled_final/1836_rv.mp4	0.0	290.5256931781769	2.492069721221924
63	273.8077595233917	pulse	1	t		61.0	2.5	/experiments/knapen_AOT/AOT_stimuli/rescaled_final/1836_rv.mp4	0.0	291.7010552883148	
63	275.1244671344757	fix_post	2		12	61.0	2.5	/experiments/knapen_AOT/AOT_stimuli/rescaled_final/1836_rv.mp4	0.0	293.0177628993988	0.09999704360961914
64	275.2244641780853	fix_pre	0		120	62.0	2.5	blank	1.0	293.1177599430084	1.0002985000610352
64	275.4081346988678	pulse	0	t		62.0	2.5	blank	1.0	293.3014304637909	
64	276.22476267814636	movie	1		300	62.0	2.5	blank	1.0	294.11805844306946	2.5003299713134766
64	277.0082845687866	pulse	1	t		62.0	2.5	blank	1.0	294.9015803337097	
64	278.60849833488464	pulse	1	t		62.0	2.5	blank	1.0	296.50179409980774	
64	278.72509264945984	fix_post	2		12	62.0	2.5	blank	1.0	296.61838841438293	0.0999300479888916
65	278.82502269744873	fix_pre	0		120	63.0	2.5	/experiments/knapen_AOT/AOT_stimuli/rescaled_final/1331_fw.mp4	0.0	296.7183184623718	1.0085961818695068
65	279.83361887931824	movie	1		280	63.0	2.5	/experiments/knapen_AOT/AOT_stimuli/rescaled_final/1331_fw.mp4	0.0	297.72691464424133	2.491950511932373
65	280.2070231437683	pulse	1	t		63.0	2.5	/experiments/knapen_AOT/AOT_stimuli/rescaled_final/1331_fw.mp4	0.0	298.1003189086914	
65	281.80723905563354	pulse	1	t		63.0	2.5	/experiments/knapen_AOT/AOT_stimuli/rescaled_final/1331_fw.mp4	0.0	299.70053482055664	
65	282.3255693912506	fix_post	2		12	63.0	2.5	/experiments/knapen_AOT/AOT_stimuli/rescaled_final/1331_fw.mp4	0.0	300.2188651561737	0.0999748706817627
66	282.4255442619324	fix_pre	0		119	64.0	2.5	/experiments/knapen_AOT/AOT_stimuli/rescaled_final/0852_rv.mp4	0.0	300.31884002685547	1.0001640319824219
66	283.40922141075134	pulse	0	t		64.0	2.5	/experiments/knapen_AOT/AOT_stimuli/rescaled_final/0852_rv.mp4	0.0	301.30251717567444	
66	283.4257082939148	movie	1		276	64.0	2.5	/experiments/knapen_AOT/AOT_stimuli/rescaled_final/0852_rv.mp4	0.0	301.3190040588379	2.5003998279571533
66	285.00822734832764	pulse	1	t		64.0	2.5	/experiments/knapen_AOT/AOT_stimuli/rescaled_final/0852_rv.mp4	0.0	302.90152311325073	
66	285.92610812187195	fix_post	2		12	64.0	2.5	/experiments/knapen_AOT/AOT_stimuli/rescaled_final/0852_rv.mp4	0.0	303.81940388679504	0.09996676445007324
67	286.026074886322	fix_pre	0		120	65.0	2.5	/experiments/knapen_AOT/AOT_stimuli/rescaled_final/2116_fw.mp4	0.0	303.9193706512451	1.0085318088531494
67	286.6097614765167	pulse	0	t		65.0	2.5	/experiments/knapen_AOT/AOT_stimuli/rescaled_final/2116_fw.mp4	0.0	304.5030572414398	
67	287.03460669517517	movie	1		278	65.0	2.5	/experiments/knapen_AOT/AOT_stimuli/rescaled_final/2116_fw.mp4	0.0	304.92790246009827	2.4921822547912598
67	288.2080843448639	pulse	1	t		65.0	2.5	/experiments/knapen_AOT/AOT_stimuli/rescaled_final/2116_fw.mp4	0.0	306.101380109787	
67	289.52678894996643	fix_post	2		12	65.0	2.5	/experiments/knapen_AOT/AOT_stimuli/rescaled_final/2116_fw.mp4	0.0	307.4200847148895	0.09983015060424805
68	289.6266191005707	fix_pre	0		120	66.0	2.5	/experiments/knapen_AOT/AOT_stimuli/rescaled_final/0077_fw.mp4	0.0	307.5199148654938	1.008500099182129
68	289.8101978302002	pulse	0	t		66.0	2.5	/experiments/knapen_AOT/AOT_stimuli/rescaled_final/0077_fw.mp4	0.0	307.7034935951233	
68	290.6351191997528	movie	1		280	66.0	2.5	/experiments/knapen_AOT/AOT_stimuli/rescaled_final/0077_fw.mp4	0.0	308.5284149646759	2.492020845413208
68	291.4083888530731	pulse	1	t		66.0	2.5	/experiments/knapen_AOT/AOT_stimuli/rescaled_final/0077_fw.mp4	0.0	309.3016846179962	
68	293.00866508483887	pulse	1	t		66.0	2.5	/experiments/knapen_AOT/AOT_stimuli/rescaled_final/0077_fw.mp4	0.0	310.90196084976196	
68	293.127140045166	fix_post	2		12	66.0	2.5	/experiments/knapen_AOT/AOT_stimuli/rescaled_final/0077_fw.mp4	0.0	311.0204358100891	0.10004472732543945
69	293.22718477249146	fix_pre	0		120	67.0	2.5	/experiments/knapen_AOT/AOT_stimuli/rescaled_final/1230_rv.mp4	0.0	311.12048053741455	1.0084779262542725
69	294.2356626987457	movie	1		291	67.0	2.5	/experiments/knapen_AOT/AOT_stimuli/rescaled_final/1230_rv.mp4	0.0	312.1289584636688	2.4920401573181152
69	294.60923767089844	pulse	1	t		67.0	2.5	/experiments/knapen_AOT/AOT_stimuli/rescaled_final/1230_rv.mp4	0.0	312.50253343582153	
69	296.2091076374054	pulse	1	t		67.0	2.5	/experiments/knapen_AOT/AOT_stimuli/rescaled_final/1230_rv.mp4	0.0	314.1024034023285	
69	296.72770285606384	fix_post	2		12	67.0	2.5	/experiments/knapen_AOT/AOT_stimuli/rescaled_final/1230_rv.mp4	0.0	314.62099862098694	0.09999823570251465
70	296.82770109176636	fix_pre	0		119	68.0	2.5	/experiments/knapen_AOT/AOT_stimuli/rescaled_final/1546_fw.mp4	0.0	314.72099685668945	1.0001485347747803
70	297.81142926216125	pulse	0	t		68.0	2.5	/experiments/knapen_AOT/AOT_stimuli/rescaled_final/1546_fw.mp4	0.0	315.70472502708435	
70	297.82784962654114	movie	1		279	68.0	2.5	/experiments/knapen_AOT/AOT_stimuli/rescaled_final/1546_fw.mp4	0.0	315.72114539146423	2.5003700256347656
70	299.4103059768677	pulse	1	t		68.0	2.5	/experiments/knapen_AOT/AOT_stimuli/rescaled_final/1546_fw.mp4	0.0	317.30360174179077	
70	300.3282196521759	fix_post	2		12	68.0	2.5	/experiments/knapen_AOT/AOT_stimuli/rescaled_final/1546_fw.mp4	0.0	318.221515417099	0.10002374649047852
71	300.4282433986664	fix_pre	0		120	69.0	2.5	blank	1.0	318.3215391635895	1.0001463890075684
71	301.0121374130249	pulse	0	t		69.0	2.5	blank	1.0	318.905433177948	
71	301.42838978767395	movie	1		300	69.0	2.5	blank	1.0	319.32168555259705	2.5003955364227295
71	302.6122748851776	pulse	1	t		69.0	2.5	blank	1.0	320.5055706501007	
71	303.9287853240967	fix_post	2		12	69.0	2.5	blank	1.0	321.8220810890198	0.10002446174621582
72	304.0288097858429	fix_pre	0		120	70.0	2.5	/experiments/knapen_AOT/AOT_stimuli/rescaled_final/0078_rv.mp4	0.0	321.922105550766	1.0084881782531738
72	304.2124903202057	pulse	0	t		70.0	2.5	/experiments/knapen_AOT/AOT_stimuli/rescaled_final/0078_rv.mp4	0.0	322.1057860851288	
72	305.03729796409607	movie	1		277	70.0	2.5	/experiments/knapen_AOT/AOT_stimuli/rescaled_final/0078_rv.mp4	0.0	322.93059372901917	2.492018222808838
72	305.8106179237366	pulse	1	t		70.0	2.5	/experiments/knapen_AOT/AOT_stimuli/rescaled_final/0078_rv.mp4	0.0	323.70391368865967	
72	307.4109351634979	pulse	1	t		70.0	2.5	/experiments/knapen_AOT/AOT_stimuli/rescaled_final/0078_rv.mp4	0.0	325.304230928421	
72	307.5293161869049	fix_post	2		12	70.0	2.5	/experiments/knapen_AOT/AOT_stimuli/rescaled_final/0078_rv.mp4	0.0	325.422611951828	0.10000228881835938
73	307.62931847572327	fix_pre	0		120	71.0	2.5	/experiments/knapen_AOT/AOT_stimuli/rescaled_final/2141_fw.mp4	0.0	325.52261424064636	1.0084900856018066
73	308.6378085613251	movie	1		280	71.0	2.5	/experiments/knapen_AOT/AOT_stimuli/rescaled_final/2141_fw.mp4	0.0	326.53110432624817	2.492053747177124
73	309.01325821876526	pulse	1	t		71.0	2.5	/experiments/knapen_AOT/AOT_stimuli/rescaled_final/2141_fw.mp4	0.0	326.90655398368835	
73	310.6114068031311	pulse	1	t		71.0	2.5	/experiments/knapen_AOT/AOT_stimuli/rescaled_final/2141_fw.mp4	0.0	328.5047025680542	
73	311.1298623085022	fix_post	2		12	71.0	2.5	/experiments/knapen_AOT/AOT_stimuli/rescaled_final/2141_fw.mp4	0.0	329.0231580734253	0.09997320175170898
74	311.2298355102539	fix_pre	0		118	72.0	2.5	/experiments/knapen_AOT/AOT_stimuli/rescaled_final/1690_fw.mp4	0.0	329.123131275177	0.991847038269043
74	312.2055559158325	pulse	0	t		72.0	2.5	/experiments/knapen_AOT/AOT_stimuli/rescaled_final/1690_fw.mp4	0.0	330.0988516807556	
74	312.22168254852295	movie	1		273	72.0	2.5	/experiments/knapen_AOT/AOT_stimuli/rescaled_final/1690_fw.mp4	0.0	330.11497831344604	2.5003912448883057
74	313.80561900138855	pulse	1	t		72.0	2.5	/experiments/knapen_AOT/AOT_stimuli/rescaled_final/1690_fw.mp4	0.0	331.69891476631165	
74	314.72207379341125	fix_post	2		12	72.0	2.5	/experiments/knapen_AOT/AOT_stimuli/rescaled_final/1690_fw.mp4	0.0	332.61536955833435	0.09999752044677734
75	314.82207131385803	fix_pre	0		120	73.0	2.5	/experiments/knapen_AOT/AOT_stimuli/rescaled_final/0791_rv.mp4	0.0	332.7153670787811	1.008516550064087
75	315.4057505130768	pulse	0	t		73.0	2.5	/experiments/knapen_AOT/AOT_stimuli/rescaled_final/0791_rv.mp4	0.0	333.2990462779999	
75	315.8305878639221	movie	1		278	73.0	2.5	/experiments/knapen_AOT/AOT_stimuli/rescaled_final/0791_rv.mp4	0.0	333.7238836288452	2.4920740127563477
75	317.00624442100525	pulse	1	t		73.0	2.5	/experiments/knapen_AOT/AOT_stimuli/rescaled_final/0791_rv.mp4	0.0	334.89954018592834	
75	318.32266187667847	fix_post	2		12	73.0	2.5	/experiments/knapen_AOT/AOT_stimuli/rescaled_final/0791_rv.mp4	0.0	336.21595764160156	0.0999448299407959
76	318.42260670661926	fix_pre	0		120	74.0	2.5	/experiments/knapen_AOT/AOT_stimuli/rescaled_final/1919_fw.mp4	0.0	336.31590247154236	1.0085153579711914
76	318.6062157154083	pulse	0	t		74.0	2.5	/experiments/knapen_AOT/AOT_stimuli/rescaled_final/1919_fw.mp4	0.0	336.4995114803314	
76	319.43112206459045	movie	1		274	74.0	2.5	/experiments/knapen_AOT/AOT_stimuli/rescaled_final/1919_fw.mp4	0.0	337.32441782951355	2.4920177459716797
76	320.20636892318726	pulse	1	t		74.0	2.5	/experiments/knapen_AOT/AOT_stimuli/rescaled_final/1919_fw.mp4	0.0	338.09966468811035	
76	321.80676674842834	pulse	1	t		74.0	2.5	/experiments/knapen_AOT/AOT_stimuli/rescaled_final/1919_fw.mp4	0.0	339.70006251335144	
76	321.92313981056213	fix_post	2		12	74.0	2.5	/experiments/knapen_AOT/AOT_stimuli/rescaled_final/1919_fw.mp4	0.0	339.81643557548523	0.10001778602600098
77	322.02315759658813	fix_pre	0		120	75.0	2.5	blank	1.0	339.91645336151123	1.0001518726348877
77	323.023309469223	movie	1		300	75.0	2.5	blank	1.0	340.9166052341461	2.5003607273101807
77	323.40709161758423	pulse	1	t		75.0	2.5	blank	1.0	341.3003873825073	
77	325.00715470314026	pulse	1	t		75.0	2.5	blank	1.0	342.90045046806335	
77	325.5236701965332	fix_post	2		12	75.0	2.5	blank	1.0	343.4169659614563	0.10007715225219727
78	325.6237473487854	fix_pre	0		119	76.0	2.5	/experiments/knapen_AOT/AOT_stimuli/rescaled_final/2002_rv.mp4	0.0	343.5170431137085	1.008535623550415
78	326.6074221134186	pulse	0	t		76.0	2.5	/experiments/knapen_AOT/AOT_stimuli/rescaled_final/2002_rv.mp4	0.0	344.5007178783417	
78	326.6322829723358	movie	1		275	76.0	2.5	/experiments/knapen_AOT/AOT_stimuli/rescaled_final/2002_rv.mp4	0.0	344.5255787372589	2.4919533729553223
78	328.20668482780457	pulse	1	t		76.0	2.5	/experiments/knapen_AOT/AOT_stimuli/rescaled_final/2002_rv.mp4	0.0	346.09998059272766	
78	329.12423634529114	fix_post	2		12	76.0	2.5	/experiments/knapen_AOT/AOT_stimuli/rescaled_final/2002_rv.mp4	0.0	347.01753211021423	0.10005807876586914
79	329.224294424057	fix_pre	0		120	77.0	2.5	/experiments/knapen_AOT/AOT_stimuli/rescaled_final/1967_rv.mp4	0.0	347.1175901889801	1.0084607601165771
79	329.80798959732056	pulse	0	t		77.0	2.5	/experiments/knapen_AOT/AOT_stimuli/rescaled_final/1967_rv.mp4	0.0	347.70128536224365	
79	330.2327551841736	movie	1		291	77.0	2.5	/experiments/knapen_AOT/AOT_stimuli/rescaled_final/1967_rv.mp4	0.0	348.1260509490967	2.4920172691345215
79	331.4062304496765	pulse	1	t		77.0	2.5	/experiments/knapen_AOT/AOT_stimuli/rescaled_final/1967_rv.mp4	0.0	349.2995262145996	
79	332.7247724533081	fix_post	2		12	77.0	2.5	/experiments/knapen_AOT/AOT_stimuli/rescaled_final/1967_rv.mp4	0.0	350.6180682182312	0.10001468658447266
80	332.8247871398926	fix_pre	0		120	78.0	2.5	/experiments/knapen_AOT/AOT_stimuli/rescaled_final/0929_fw.mp4	0.0	350.7180829048157	1.0085129737854004
80	333.00845861434937	pulse	0	t		78.0	2.5	/experiments/knapen_AOT/AOT_stimuli/rescaled_final/0929_fw.mp4	0.0	350.90175437927246	
80	333.833300113678	movie	1		278	78.0	2.5	/experiments/knapen_AOT/AOT_stimuli/rescaled_final/0929_fw.mp4	0.0	351.7265958786011	2.4920120239257812
80	334.60681080818176	pulse	1	t		78.0	2.5	/experiments/knapen_AOT/AOT_stimuli/rescaled_final/0929_fw.mp4	0.0	352.50010657310486	
80	336.2069962024689	pulse	1	t		78.0	2.5	/experiments/knapen_AOT/AOT_stimuli/rescaled_final/0929_fw.mp4	0.0	354.10029196739197	
80	336.32531213760376	fix_post	2		12	78.0	2.5	/experiments/knapen_AOT/AOT_stimuli/rescaled_final/0929_fw.mp4	0.0	354.21860790252686	0.1000058650970459
81	336.4253180027008	fix_pre	0		120	79.0	2.5	/experiments/knapen_AOT/AOT_stimuli/rescaled_final/1016_rv.mp4	0.0	354.3186137676239	1.008507490158081
81	337.4338254928589	movie	1		272	79.0	2.5	/experiments/knapen_AOT/AOT_stimuli/rescaled_final/1016_rv.mp4	0.0	355.327121257782	2.4920201301574707
81	337.8076205253601	pulse	1	t		79.0	2.5	/experiments/knapen_AOT/AOT_stimuli/rescaled_final/1016_rv.mp4	0.0	355.7009162902832	
81	339.4072833061218	pulse	1	t		79.0	2.5	/experiments/knapen_AOT/AOT_stimuli/rescaled_final/1016_rv.mp4	0.0	357.3005790710449	
81	339.92584562301636	fix_post	2		12	79.0	2.5	/experiments/knapen_AOT/AOT_stimuli/rescaled_final/1016_rv.mp4	0.0	357.81914138793945	0.10000371932983398
82	340.0258493423462	fix_pre	0		119	80.0	2.5	/experiments/knapen_AOT/AOT_stimuli/rescaled_final/1825_rv.mp4	0.0	357.9191451072693	1.000340223312378
82	341.00953578948975	pulse	0	t		80.0	2.5	/experiments/knapen_AOT/AOT_stimuli/rescaled_final/1825_rv.mp4	0.0	358.90283155441284	
82	341.02618956565857	movie	1		280	80.0	2.5	/experiments/knapen_AOT/AOT_stimuli/rescaled_final/1825_rv.mp4	0.0	358.91948533058167	2.5002098083496094
82	342.6081063747406	pulse	1	t		80.0	2.5	/experiments/knapen_AOT/AOT_stimuli/rescaled_final/1825_rv.mp4	0.0	360.5014021396637	
82	343.5263993740082	fix_post	2		12	80.0	2.5	/experiments/knapen_AOT/AOT_stimuli/rescaled_final/1825_rv.mp4	0.0	361.4196951389313	0.10002255439758301
83	343.62642192840576	fix_pre	0		120	81.0	2.5	/experiments/knapen_AOT/AOT_stimuli/rescaled_final/1230_rv.mp4	0.0	361.51971769332886	1.008507251739502
83	344.21012353897095	pulse	0	t		81.0	2.5	/experiments/knapen_AOT/AOT_stimuli/rescaled_final/1230_rv.mp4	0.0	362.10341930389404	
83	344.63492918014526	movie	1		277	81.0	2.5	/experiments/knapen_AOT/AOT_stimuli/rescaled_final/1230_rv.mp4	0.0	362.52822494506836	2.492011070251465
83	345.80879831314087	pulse	1	t		81.0	2.5	/experiments/knapen_AOT/AOT_stimuli/rescaled_final/1230_rv.mp4	0.0	363.70209407806396	
83	347.12694025039673	fix_post	2		12	81.0	2.5	/experiments/knapen_AOT/AOT_stimuli/rescaled_final/1230_rv.mp4	0.0	365.0202360153198	0.10004854202270508
84	347.22698879241943	fix_pre	0		120	82.0	2.5	blank	1.0	365.12028455734253	1.000098466873169
84	347.4104835987091	pulse	0	t		82.0	2.5	blank	1.0	365.3037793636322	
84	348.2270872592926	movie	1		300	82.0	2.5	blank	1.0	366.1203830242157	2.5005104541778564
84	349.010799407959	pulse	1	t		82.0	2.5	blank	1.0	366.9040951728821	
84	350.610995054245	pulse	1	t		82.0	2.5	blank	1.0	368.5042908191681	
84	350.72759771347046	fix_post	2		12	82.0	2.5	blank	1.0	368.62089347839355	0.09988617897033691
85	350.8274838924408	fix_pre	0		119	83.0	2.5	/experiments/knapen_AOT/AOT_stimuli/rescaled_final/0685_fw.mp4	0.0	368.7207796573639	1.008530855178833
85	351.83601474761963	movie	1		280	83.0	2.5	/experiments/knapen_AOT/AOT_stimuli/rescaled_final/0685_fw.mp4	0.0	369.7293105125427	2.49202036857605
85	352.20961117744446	pulse	1	t		83.0	2.5	/experiments/knapen_AOT/AOT_stimuli/rescaled_final/0685_fw.mp4	0.0	370.10290694236755	
85	353.80931282043457	pulse	1	t		83.0	2.5	/experiments/knapen_AOT/AOT_stimuli/rescaled_final/0685_fw.mp4	0.0	371.70260858535767	
85	354.3280351161957	fix_post	2		12	83.0	2.5	/experiments/knapen_AOT/AOT_stimuli/rescaled_final/0685_fw.mp4	0.0	372.2213308811188	0.10006403923034668
87	354.428099155426	stim	0		1715					372.3213949203491	14.293734550476074
87	355.41171503067017	pulse	0	t						373.30501079559326	
87	357.0119721889496	pulse	0	t						374.9052679538727	
87	358.6122772693634	pulse	0	t						376.5055730342865	
87	360.2125155925751	pulse	0	t						378.10581135749817	
87	361.8126859664917	pulse	0	t						379.7059817314148	
87	363.41304898262024	pulse	0	t						381.30634474754333	
87	365.01320028305054	pulse	0	t						382.90649604797363	
87	366.613436460495	pulse	0	t						384.5067322254181	
87	368.20656847953796	pulse	0	t						386.09986424446106	
