trial_nr	onset	event_type	phase	response	nr_frames	movie_index	movie_duration	movie_file	blank	onset_abs	duration
0	0.12486481666564941	stim	0		1024					33.04419565200806	8.533287048339844
0	8.650043964385986	response	0	space						41.569374799728394	
1	8.658151865005493	stim	0		4253					41.5774827003479	35.441540002822876
1	44.09503889083862	pulse	0	t						77.01436972618103	
1	44.09969186782837	stim	1		1717					77.01902270317078	14.308264970779419
1	45.69157099723816	pulse	1	t						78.61090183258057	
1	47.29167890548706	pulse	1	t						80.21100974082947	
1	48.89143180847168	pulse	1	t						81.81076264381409	
1	50.49149489402771	pulse	1	t						83.41082572937012	
1	52.09140086174011	pulse	1	t						85.01073169708252	
1	53.69142985343933	pulse	1	t						86.61076068878174	
1	55.29143285751343	pulse	1	t						88.21076369285583	
1	56.89147901535034	pulse	1	t						89.81080985069275	
2	58.40795683860779	fix_pre	0		11	0.0	2.5	/experiments/aot/S_yt-eF5J5Kjt6oY_23.mp4	0.0	91.3272876739502	0.0916280746459961
2	58.49148988723755	pulse	0	t		0.0	2.5	/experiments/aot/S_yt-eF5J5Kjt6oY_23.mp4	0.0	91.41082072257996	
2	58.499584913253784	movie	1		300	0.0	2.5	/experiments/aot/S_yt-eF5J5Kjt6oY_23.mp4	0.0	91.41891574859619	2.508323907852173
2	60.091423988342285	pulse	1	t		0.0	2.5	/experiments/aot/S_yt-eF5J5Kjt6oY_23.mp4	0.0	93.01075482368469	
2	61.00790882110596	fix_post	2		12	0.0	2.5	/experiments/aot/S_yt-eF5J5Kjt6oY_23.mp4	0.0	93.92723965644836	0.09998607635498047
3	61.10789489746094	fix_pre	0		120	1.0	2.5	/experiments/aot/S_yt-0bovQBIUZho_15.mp4	0.0	94.02722573280334	1.000040054321289
3	61.69143080711365	pulse	0	t		1.0	2.5	/experiments/aot/S_yt-0bovQBIUZho_15.mp4	0.0	94.61076164245605	
3	62.10793495178223	movie	1		298	1.0	2.5	/experiments/aot/S_yt-0bovQBIUZho_15.mp4	0.0	95.02726578712463	2.499908924102783
3	63.29142880439758	pulse	1	t		1.0	2.5	/experiments/aot/S_yt-0bovQBIUZho_15.mp4	0.0	96.21075963973999	
3	64.60784387588501	fix_post	2		12	1.0	2.5	/experiments/aot/S_yt-0bovQBIUZho_15.mp4	0.0	97.52717471122742	0.10009002685546875
4	64.70793390274048	fix_pre	0		120	2.0	2.5	/experiments/aot/R_S_ioSkDvwpEaU_35.mp4	0.0	97.62726473808289	1.0000410079956055
4	64.89143180847168	pulse	0	t		2.0	2.5	/experiments/aot/R_S_ioSkDvwpEaU_35.mp4	0.0	97.81076264381409	
4	65.70797491073608	movie	1		300	2.0	2.5	/experiments/aot/R_S_ioSkDvwpEaU_35.mp4	0.0	98.62730574607849	2.4999001026153564
4	66.49135780334473	pulse	1	t		2.0	2.5	/experiments/aot/R_S_ioSkDvwpEaU_35.mp4	0.0	99.41068863868713	
4	68.0914089679718	pulse	1	t		2.0	2.5	/experiments/aot/R_S_ioSkDvwpEaU_35.mp4	0.0	101.01073980331421	
4	68.20787501335144	fix_post	2		12	2.0	2.5	/experiments/aot/R_S_ioSkDvwpEaU_35.mp4	0.0	101.12720584869385	0.09998679161071777
5	68.30786180496216	fix_pre	0		120	3.0	2.5	/experiments/aot/R_S_yt-mI9voWol7cE_104.mp4	0.0	101.22719264030457	1.0000150203704834
5	69.30787682533264	movie	1		300	3.0	2.5	/experiments/aot/R_S_yt-mI9voWol7cE_104.mp4	0.0	102.22720766067505	2.4999821186065674
5	69.69132089614868	pulse	1	t		3.0	2.5	/experiments/aot/R_S_yt-mI9voWol7cE_104.mp4	0.0	102.61065173149109	
5	71.29133987426758	pulse	1	t		3.0	2.5	/experiments/aot/R_S_yt-mI9voWol7cE_104.mp4	0.0	104.21067070960999	
5	71.80785894393921	fix_post	2		12	3.0	2.5	/experiments/aot/R_S_yt-mI9voWol7cE_104.mp4	0.0	104.72718977928162	0.09995102882385254
6	71.90780997276306	fix_pre	0		119	4.0	2.5	/experiments/aot/R_S__9v_wUywaAA_35.mp4	0.0	104.82714080810547	0.9917399883270264
6	72.89139699935913	pulse	0	t		4.0	2.5	/experiments/aot/R_S__9v_wUywaAA_35.mp4	0.0	105.81072783470154	
6	72.89954996109009	movie	1		301	4.0	2.5	/experiments/aot/R_S__9v_wUywaAA_35.mp4	0.0	105.8188807964325	2.5083048343658447
6	74.49128985404968	pulse	1	t		4.0	2.5	/experiments/aot/R_S__9v_wUywaAA_35.mp4	0.0	107.41062068939209	
6	75.40785479545593	fix_post	2		12	4.0	2.5	/experiments/aot/R_S__9v_wUywaAA_35.mp4	0.0	108.32718563079834	0.09995913505554199
7	75.50781393051147	fix_pre	0		120	5.0	2.5	/experiments/aot/R_S_b4-3.mp4	0.0	108.42714476585388	1.0001099109649658
7	76.09133386611938	pulse	0	t		5.0	2.5	/experiments/aot/R_S_b4-3.mp4	0.0	109.01066470146179	
7	76.50792384147644	movie	1		161	5.0	2.5	/experiments/aot/R_S_b4-3.mp4	0.0	109.42725467681885	2.499917984008789
7	77.69143295288086	pulse	1	t		5.0	2.5	/experiments/aot/R_S_b4-3.mp4	0.0	110.61076378822327	
7	79.00784182548523	fix_post	2		12	5.0	2.5	/experiments/aot/R_S_b4-3.mp4	0.0	111.92717266082764	0.1000211238861084
8	79.10786294937134	fix_pre	0		120	6.0	2.5	blank	1.0	112.02719378471375	0.999539852142334
8	79.2908878326416	pulse	0	t		6.0	2.5	blank	1.0	112.21021866798401	
8	80.10740280151367	movie	1		300	6.0	2.5	blank	1.0	113.02673363685608	2.500746011734009
8	80.8909637928009	pulse	1	t		6.0	2.5	blank	1.0	113.81029462814331	
8	82.49111890792847	pulse	1	t		6.0	2.5	blank	1.0	115.41044974327087	
8	82.60814881324768	fix_post	2		12	6.0	2.5	blank	1.0	115.52747964859009	0.10003900527954102
9	82.70818781852722	fix_pre	0		120	7.0	2.5	/experiments/aot/S_flickr-51283549@N02-23064904264_16.mp4	0.0	115.62751865386963	0.9996650218963623
9	83.70785284042358	movie	1		161	7.0	2.5	/experiments/aot/S_flickr-51283549@N02-23064904264_16.mp4	0.0	116.62718367576599	2.5000171661376953
9	84.09132480621338	pulse	1	t		7.0	2.5	/experiments/aot/S_flickr-51283549@N02-23064904264_16.mp4	0.0	117.01065564155579	
9	85.69130492210388	pulse	1	t		7.0	2.5	/experiments/aot/S_flickr-51283549@N02-23064904264_16.mp4	0.0	118.61063575744629	
9	86.20787000656128	fix_post	2		12	7.0	2.5	/experiments/aot/S_flickr-51283549@N02-23064904264_16.mp4	0.0	119.12720084190369	0.09990882873535156
10	86.30777883529663	fix_pre	0		119	8.0	2.5	/experiments/aot/R_S_yt-aiDGx4AN8J0_9.mp4	0.0	119.22710967063904	0.991718053817749
10	87.2913429737091	pulse	0	t		8.0	2.5	/experiments/aot/R_S_yt-aiDGx4AN8J0_9.mp4	0.0	120.21067380905151	
10	87.29949688911438	movie	1		301	8.0	2.5	/experiments/aot/R_S_yt-aiDGx4AN8J0_9.mp4	0.0	120.21882772445679	2.5082790851593018
10	88.89126586914062	pulse	1	t		8.0	2.5	/experiments/aot/R_S_yt-aiDGx4AN8J0_9.mp4	0.0	121.81059670448303	
10	89.80777597427368	fix_post	2		12	8.0	2.5	/experiments/aot/R_S_yt-aiDGx4AN8J0_9.mp4	0.0	122.72710680961609	0.09998583793640137
11	89.90776181221008	fix_pre	0		120	9.0	2.5	/experiments/aot/S_yt-pB9w3AA-woE_37.mp4	0.0	122.82709264755249	0.9999961853027344
11	90.49126887321472	pulse	0	t		9.0	2.5	/experiments/aot/S_yt-pB9w3AA-woE_37.mp4	0.0	123.41059970855713	
11	90.90775799751282	movie	1		299	9.0	2.5	/experiments/aot/S_yt-pB9w3AA-woE_37.mp4	0.0	123.82708883285522	2.49995493888855
11	92.09125995635986	pulse	1	t		9.0	2.5	/experiments/aot/S_yt-pB9w3AA-woE_37.mp4	0.0	125.01059079170227	
11	93.40771293640137	fix_post	2		12	9.0	2.5	/experiments/aot/S_yt-pB9w3AA-woE_37.mp4	0.0	126.32704377174377	0.10003089904785156
12	93.50774383544922	fix_pre	0		120	10.0	2.5	/experiments/aot/S_yt-kKRGgUhVRzc_74.mp4	0.0	126.42707467079163	1.0000181198120117
12	93.69121384620667	pulse	0	t		10.0	2.5	/experiments/aot/S_yt-kKRGgUhVRzc_74.mp4	0.0	126.61054468154907	
12	94.50776195526123	movie	1		300	10.0	2.5	/experiments/aot/S_yt-kKRGgUhVRzc_74.mp4	0.0	127.42709279060364	2.5000250339508057
12	95.29118299484253	pulse	1	t		10.0	2.5	/experiments/aot/S_yt-kKRGgUhVRzc_74.mp4	0.0	128.21051383018494	
12	96.8908519744873	pulse	1	t		10.0	2.5	/experiments/aot/S_yt-kKRGgUhVRzc_74.mp4	0.0	129.8101828098297	
12	97.00778698921204	fix_post	2		12	10.0	2.5	/experiments/aot/S_yt-kKRGgUhVRzc_74.mp4	0.0	129.92711782455444	0.09991097450256348
13	97.1076979637146	fix_pre	0		120	11.0	2.5	/experiments/aot/R_S_yt-0qfEA1ZFWjA_123.mp4	0.0	130.027028799057	1.000093936920166
13	98.10779190063477	movie	1		299	11.0	2.5	/experiments/aot/R_S_yt-0qfEA1ZFWjA_123.mp4	0.0	131.02712273597717	2.499998092651367
13	98.49123501777649	pulse	1	t		11.0	2.5	/experiments/aot/R_S_yt-0qfEA1ZFWjA_123.mp4	0.0	131.4105658531189	
13	100.09113693237305	pulse	1	t		11.0	2.5	/experiments/aot/R_S_yt-0qfEA1ZFWjA_123.mp4	0.0	133.01046776771545	
13	100.60778999328613	fix_post	2		12	11.0	2.5	/experiments/aot/R_S_yt-0qfEA1ZFWjA_123.mp4	0.0	133.52712082862854	0.09988784790039062
14	100.70767784118652	fix_pre	0		119	12.0	2.5	blank	1.0	133.62700867652893	0.991631031036377
14	101.69120287895203	pulse	0	t		12.0	2.5	blank	1.0	134.61053371429443	
14	101.6993088722229	movie	1		301	12.0	2.5	blank	1.0	134.6186397075653	2.508436918258667
14	103.29119300842285	pulse	1	t		12.0	2.5	blank	1.0	136.21052384376526	
14	104.20774579048157	fix_post	2		12	12.0	2.5	blank	1.0	137.12707662582397	0.09997320175170898
15	104.30771899223328	fix_pre	0		120	13.0	2.5	/experiments/aot/R_S_yt-G65z8p1YNhw_16.mp4	0.0	137.22704982757568	1.0000059604644775
15	104.89117884635925	pulse	0	t		13.0	2.5	/experiments/aot/R_S_yt-G65z8p1YNhw_16.mp4	0.0	137.81050968170166	
15	105.30772495269775	movie	1		299	13.0	2.5	/experiments/aot/R_S_yt-G65z8p1YNhw_16.mp4	0.0	138.22705578804016	2.499903917312622
15	106.49121594429016	pulse	1	t		13.0	2.5	/experiments/aot/R_S_yt-G65z8p1YNhw_16.mp4	0.0	139.41054677963257	
15	107.80762887001038	fix_post	2		12	13.0	2.5	/experiments/aot/R_S_yt-G65z8p1YNhw_16.mp4	0.0	140.72695970535278	0.1000370979309082
16	107.90766596794128	fix_pre	0		120	14.0	2.5	/experiments/aot/S_pexels-roman-odintsov-8231493.mp4	0.0	140.8269968032837	1.0000219345092773
16	108.09117579460144	pulse	0	t		14.0	2.5	/experiments/aot/S_pexels-roman-odintsov-8231493.mp4	0.0	141.01050662994385	
16	108.90768790245056	movie	1		160	14.0	2.5	/experiments/aot/S_pexels-roman-odintsov-8231493.mp4	0.0	141.82701873779297	2.499974012374878
16	109.69128799438477	pulse	1	t		14.0	2.5	/experiments/aot/S_pexels-roman-odintsov-8231493.mp4	0.0	142.61061882972717	
16	111.29172086715698	pulse	1	t		14.0	2.5	/experiments/aot/S_pexels-roman-odintsov-8231493.mp4	0.0	144.2110517024994	
16	111.40766191482544	fix_post	2		12	14.0	2.5	/experiments/aot/S_pexels-roman-odintsov-8231493.mp4	0.0	144.32699275016785	0.09996700286865234
17	111.50762891769409	fix_pre	0		120	15.0	2.5	/experiments/aot/R_S_yt-qF-69JWJX_Y_55.mp4	0.0	144.4269597530365	1.0000240802764893
17	112.50765299797058	movie	1		299	15.0	2.5	/experiments/aot/R_S_yt-qF-69JWJX_Y_55.mp4	0.0	145.426983833313	2.500065803527832
17	112.89115500450134	pulse	1	t		15.0	2.5	/experiments/aot/R_S_yt-qF-69JWJX_Y_55.mp4	0.0	145.81048583984375	
17	114.49109601974487	pulse	1	t		15.0	2.5	/experiments/aot/R_S_yt-qF-69JWJX_Y_55.mp4	0.0	147.41042685508728	
17	115.00771880149841	fix_post	2		12	15.0	2.5	/experiments/aot/R_S_yt-qF-69JWJX_Y_55.mp4	0.0	147.92704963684082	0.10001206398010254
18	115.10773086547852	fix_pre	0		119	16.0	2.5	/experiments/aot/S_pexels-cottonbro-10640532.mp4	0.0	148.02706170082092	0.9916720390319824
18	116.09107685089111	pulse	0	t		16.0	2.5	/experiments/aot/S_pexels-cottonbro-10640532.mp4	0.0	149.01040768623352	
18	116.0994029045105	movie	1		163	16.0	2.5	/experiments/aot/S_pexels-cottonbro-10640532.mp4	0.0	149.0187337398529	2.508323907852173
18	117.69031596183777	pulse	1	t		16.0	2.5	/experiments/aot/S_pexels-cottonbro-10640532.mp4	0.0	150.60964679718018	
18	118.60772681236267	fix_post	2		12	16.0	2.5	/experiments/aot/S_pexels-cottonbro-10640532.mp4	0.0	151.52705764770508	0.09999918937683105
19	118.7077260017395	fix_pre	0		120	17.0	2.5	/experiments/aot/R_S_59eT4XDXNno_25.mp4	0.0	151.6270568370819	0.9999768733978271
19	119.29241180419922	pulse	0	t		17.0	2.5	/experiments/aot/R_S_59eT4XDXNno_25.mp4	0.0	152.21174263954163	
19	119.70770287513733	movie	1		300	17.0	2.5	/experiments/aot/R_S_59eT4XDXNno_25.mp4	0.0	152.62703371047974	2.4999959468841553
19	120.89106798171997	pulse	1	t		17.0	2.5	/experiments/aot/R_S_59eT4XDXNno_25.mp4	0.0	153.81039881706238	
19	122.20769882202148	fix_post	2		12	17.0	2.5	/experiments/aot/R_S_59eT4XDXNno_25.mp4	0.0	155.1270296573639	0.10000801086425781
20	122.30770683288574	fix_pre	0		120	18.0	2.5	/experiments/aot/S_yt-mI9voWol7cE_104.mp4	0.0	155.22703766822815	1.0000450611114502
20	122.4911208152771	pulse	0	t		18.0	2.5	/experiments/aot/S_yt-mI9voWol7cE_104.mp4	0.0	155.4104516506195	
20	123.30775189399719	movie	1		300	18.0	2.5	/experiments/aot/S_yt-mI9voWol7cE_104.mp4	0.0	156.2270827293396	2.4998810291290283
20	124.09108781814575	pulse	1	t		18.0	2.5	/experiments/aot/S_yt-mI9voWol7cE_104.mp4	0.0	157.01041865348816	
20	125.6910970211029	pulse	1	t		18.0	2.5	/experiments/aot/S_yt-mI9voWol7cE_104.mp4	0.0	158.6104278564453	
20	125.80763292312622	fix_post	2		12	18.0	2.5	/experiments/aot/S_yt-mI9voWol7cE_104.mp4	0.0	158.72696375846863	0.0999610424041748
21	125.9075939655304	fix_pre	0		120	19.0	2.5	/experiments/aot/S_wc-1MzpHfRq1MUK_32.mp4	0.0	158.8269248008728	1.0000529289245605
21	126.90764689445496	movie	1		300	19.0	2.5	/experiments/aot/S_wc-1MzpHfRq1MUK_32.mp4	0.0	159.82697772979736	2.5000081062316895
21	127.2911069393158	pulse	1	t		19.0	2.5	/experiments/aot/S_wc-1MzpHfRq1MUK_32.mp4	0.0	160.2104377746582	
21	128.8911600112915	pulse	1	t		19.0	2.5	/experiments/aot/S_wc-1MzpHfRq1MUK_32.mp4	0.0	161.8104908466339	
21	129.40765500068665	fix_post	2		12	19.0	2.5	/experiments/aot/S_wc-1MzpHfRq1MUK_32.mp4	0.0	162.32698583602905	0.09987592697143555
22	129.50753092765808	fix_pre	0		119	20.0	2.5	blank	1.0	162.4268617630005	0.9917168617248535
22	130.4911448955536	pulse	0	t		20.0	2.5	blank	1.0	163.410475730896	
22	130.49924778938293	movie	1		301	20.0	2.5	blank	1.0	163.41857862472534	2.5082621574401855
22	132.09113788604736	pulse	1	t		20.0	2.5	blank	1.0	165.01046872138977	
22	133.00750994682312	fix_post	2		12	20.0	2.5	blank	1.0	165.92684078216553	0.10010385513305664
23	133.10761380195618	fix_pre	0		120	21.0	2.5	/experiments/aot/R_S_ILSVRC2015_train_00549001.mp4	0.0	166.02694463729858	0.9999780654907227
23	133.69110989570618	pulse	0	t		21.0	2.5	/experiments/aot/R_S_ILSVRC2015_train_00549001.mp4	0.0	166.61044073104858	
23	134.1075918674469	movie	1		299	21.0	2.5	/experiments/aot/R_S_ILSVRC2015_train_00549001.mp4	0.0	167.0269227027893	2.5000410079956055
23	135.29058289527893	pulse	1	t		21.0	2.5	/experiments/aot/R_S_ILSVRC2015_train_00549001.mp4	0.0	168.20991373062134	
23	136.6076328754425	fix_post	2		12	21.0	2.5	/experiments/aot/R_S_ILSVRC2015_train_00549001.mp4	0.0	169.5269637107849	0.09994101524353027
24	136.70757389068604	fix_pre	0		120	22.0	2.5	/experiments/aot/S_yt-ybH6uAiFbjc_273.mp4	0.0	169.62690472602844	1.0002250671386719
24	136.89117288589478	pulse	0	t		22.0	2.5	/experiments/aot/S_yt-ybH6uAiFbjc_273.mp4	0.0	169.81050372123718	
24	137.7077989578247	movie	1		300	22.0	2.5	/experiments/aot/S_yt-ybH6uAiFbjc_273.mp4	0.0	170.62712979316711	2.4997739791870117
24	138.4909188747406	pulse	1	t		22.0	2.5	/experiments/aot/S_yt-ybH6uAiFbjc_273.mp4	0.0	171.410249710083	
24	140.09057593345642	pulse	1	t		22.0	2.5	/experiments/aot/S_yt-ybH6uAiFbjc_273.mp4	0.0	173.00990676879883	
24	140.20757293701172	fix_post	2		12	22.0	2.5	/experiments/aot/S_yt-ybH6uAiFbjc_273.mp4	0.0	173.12690377235413	0.09994697570800781
25	140.30751991271973	fix_pre	0		120	23.0	2.5	/experiments/aot/S_dwi2oPzQ1Wo_48.mp4	0.0	173.22685074806213	1.0000638961791992
25	141.30758380889893	movie	1		300	23.0	2.5	/experiments/aot/S_dwi2oPzQ1Wo_48.mp4	0.0	174.22691464424133	2.4999442100524902
25	141.69094896316528	pulse	1	t		23.0	2.5	/experiments/aot/S_dwi2oPzQ1Wo_48.mp4	0.0	174.6102797985077	
25	143.29101586341858	pulse	1	t		23.0	2.5	/experiments/aot/S_dwi2oPzQ1Wo_48.mp4	0.0	176.210346698761	
25	143.80752801895142	fix_post	2		12	23.0	2.5	/experiments/aot/S_dwi2oPzQ1Wo_48.mp4	0.0	176.72685885429382	0.09993290901184082
26	143.90746092796326	fix_pre	0		119	24.0	2.5	/experiments/aot/S_yt-K_gHa2x2OQA_319.mp4	0.0	176.82679176330566	0.9916989803314209
26	144.89099287986755	pulse	0	t		24.0	2.5	/experiments/aot/S_yt-K_gHa2x2OQA_319.mp4	0.0	177.81032371520996	
26	144.89915990829468	movie	1		301	24.0	2.5	/experiments/aot/S_yt-K_gHa2x2OQA_319.mp4	0.0	177.81849074363708	2.5083580017089844
26	146.49092888832092	pulse	1	t		24.0	2.5	/experiments/aot/S_yt-K_gHa2x2OQA_319.mp4	0.0	179.41025972366333	
26	147.40751791000366	fix_post	2		12	24.0	2.5	/experiments/aot/S_yt-K_gHa2x2OQA_319.mp4	0.0	180.32684874534607	0.10008597373962402
27	147.5076038837433	fix_pre	0		120	25.0	2.5	/experiments/aot/S_b3TCugtX0h0_108.mp4	0.0	180.4269347190857	0.9998769760131836
27	148.0910029411316	pulse	0	t		25.0	2.5	/experiments/aot/S_b3TCugtX0h0_108.mp4	0.0	181.010333776474	
27	148.50748085975647	movie	1		299	25.0	2.5	/experiments/aot/S_b3TCugtX0h0_108.mp4	0.0	181.42681169509888	2.49997615814209
27	149.69092988967896	pulse	1	t		25.0	2.5	/experiments/aot/S_b3TCugtX0h0_108.mp4	0.0	182.61026072502136	
27	151.00745701789856	fix_post	2		12	25.0	2.5	/experiments/aot/S_b3TCugtX0h0_108.mp4	0.0	183.92678785324097	0.10000896453857422
28	151.10746598243713	fix_pre	0		120	26.0	2.5	/experiments/aot/S_yt-BG-G7m5wLZ4_94.mp4	0.0	184.02679681777954	1.0000669956207275
28	151.29093194007874	pulse	0	t		26.0	2.5	/experiments/aot/S_yt-BG-G7m5wLZ4_94.mp4	0.0	184.21026277542114	
28	152.10753297805786	movie	1		300	26.0	2.5	/experiments/aot/S_yt-BG-G7m5wLZ4_94.mp4	0.0	185.02686381340027	2.5000228881835938
28	152.89093589782715	pulse	1	t		26.0	2.5	/experiments/aot/S_yt-BG-G7m5wLZ4_94.mp4	0.0	185.81026673316956	
28	154.49085783958435	pulse	1	t		26.0	2.5	/experiments/aot/S_yt-BG-G7m5wLZ4_94.mp4	0.0	187.41018867492676	
28	154.60755586624146	fix_post	2		12	26.0	2.5	/experiments/aot/S_yt-BG-G7m5wLZ4_94.mp4	0.0	187.52688670158386	0.0998539924621582
29	154.7074098587036	fix_pre	0		120	27.0	2.5	/experiments/aot/S_yt-YOLaQ53ooks_195.mp4	0.0	187.62674069404602	1.0001420974731445
29	155.70755195617676	movie	1		300	27.0	2.5	/experiments/aot/S_yt-YOLaQ53ooks_195.mp4	0.0	188.62688279151917	2.4999709129333496
29	156.09092593193054	pulse	1	t		27.0	2.5	/experiments/aot/S_yt-YOLaQ53ooks_195.mp4	0.0	189.01025676727295	
29	157.69096088409424	pulse	1	t		27.0	2.5	/experiments/aot/S_yt-YOLaQ53ooks_195.mp4	0.0	190.61029171943665	
29	158.2075228691101	fix_post	2		12	27.0	2.5	/experiments/aot/S_yt-YOLaQ53ooks_195.mp4	0.0	191.12685370445251	0.09998011589050293
30	158.3075029850006	fix_pre	0		119	28.0	2.5	blank	1.0	191.22683382034302	0.9916958808898926
30	159.2909379005432	pulse	0	t		28.0	2.5	blank	1.0	192.21026873588562	
30	159.2991988658905	movie	1		301	28.0	2.5	blank	1.0	192.2185297012329	2.5082240104675293
30	160.8909409046173	pulse	1	t		28.0	2.5	blank	1.0	193.81027173995972	
30	161.80742287635803	fix_post	2		12	28.0	2.5	blank	1.0	194.72675371170044	0.09997296333312988
31	161.90739583969116	fix_pre	0		120	29.0	2.5	/experiments/aot/R_S_yt-Id-f63kUHsE_20.mp4	0.0	194.82672667503357	0.9999880790710449
31	162.49089789390564	pulse	0	t		29.0	2.5	/experiments/aot/R_S_yt-Id-f63kUHsE_20.mp4	0.0	195.41022872924805	
31	162.9073839187622	movie	1		300	29.0	2.5	/experiments/aot/R_S_yt-Id-f63kUHsE_20.mp4	0.0	195.82671475410461	2.5000839233398438
31	164.0909068584442	pulse	1	t		29.0	2.5	/experiments/aot/R_S_yt-Id-f63kUHsE_20.mp4	0.0	197.01023769378662	
31	165.40746784210205	fix_post	2		12	29.0	2.5	/experiments/aot/R_S_yt-Id-f63kUHsE_20.mp4	0.0	198.32679867744446	0.0998990535736084
32	165.50736689567566	fix_pre	0		120	30.0	2.5	/experiments/aot/S_yt-Xkx53mjgj2E_30.mp4	0.0	198.42669773101807	1.0000040531158447
32	165.69096493721008	pulse	0	t		30.0	2.5	/experiments/aot/S_yt-Xkx53mjgj2E_30.mp4	0.0	198.6102957725525	
32	166.5073709487915	movie	1		298	30.0	2.5	/experiments/aot/S_yt-Xkx53mjgj2E_30.mp4	0.0	199.4267017841339	2.499964952468872
32	167.29092693328857	pulse	1	t		30.0	2.5	/experiments/aot/S_yt-Xkx53mjgj2E_30.mp4	0.0	200.21025776863098	
32	168.89134192466736	pulse	1	t		30.0	2.5	/experiments/aot/S_yt-Xkx53mjgj2E_30.mp4	0.0	201.81067276000977	
32	169.00733590126038	fix_post	2		12	30.0	2.5	/experiments/aot/S_yt-Xkx53mjgj2E_30.mp4	0.0	201.92666673660278	0.10003805160522461
33	169.1073739528656	fix_pre	0		120	31.0	2.5	/experiments/aot/S_comp_DB_D001_C001_PSNK_v06_SDR_PS_20180824_SDR_2K_AVC.mp4	0.0	202.026704788208	1.0000360012054443
33	170.10740995407104	movie	1		163	31.0	2.5	/experiments/aot/S_comp_DB_D001_C001_PSNK_v06_SDR_PS_20180824_SDR_2K_AVC.mp4	0.0	203.02674078941345	2.5000369548797607
33	170.49099898338318	pulse	1	t		31.0	2.5	/experiments/aot/S_comp_DB_D001_C001_PSNK_v06_SDR_PS_20180824_SDR_2K_AVC.mp4	0.0	203.4103298187256	
33	172.09062099456787	pulse	1	t		31.0	2.5	/experiments/aot/S_comp_DB_D001_C001_PSNK_v06_SDR_PS_20180824_SDR_2K_AVC.mp4	0.0	205.00995182991028	
33	172.6074469089508	fix_post	2		12	31.0	2.5	/experiments/aot/S_comp_DB_D001_C001_PSNK_v06_SDR_PS_20180824_SDR_2K_AVC.mp4	0.0	205.5267777442932	0.09988903999328613
34	172.7073359489441	fix_pre	0		119	32.0	2.5	/experiments/aot/R_S_yt-AjyR9--Mx3A_44.mp4	0.0	205.6266667842865	0.9916989803314209
34	173.69088101387024	pulse	0	t		32.0	2.5	/experiments/aot/R_S_yt-AjyR9--Mx3A_44.mp4	0.0	206.61021184921265	
34	173.6990349292755	movie	1		301	32.0	2.5	/experiments/aot/R_S_yt-AjyR9--Mx3A_44.mp4	0.0	206.61836576461792	2.508392095565796
34	175.2908959388733	pulse	1	t		32.0	2.5	/experiments/aot/R_S_yt-AjyR9--Mx3A_44.mp4	0.0	208.2102267742157	
34	176.2074270248413	fix_post	2		12	32.0	2.5	/experiments/aot/R_S_yt-AjyR9--Mx3A_44.mp4	0.0	209.12675786018372	0.10001277923583984
35	176.30743980407715	fix_pre	0		120	33.0	2.5	/experiments/aot/R_S_yt-V4ptcLegCiw_161.mp4	0.0	209.22677063941956	0.999967098236084
35	176.89088702201843	pulse	0	t		33.0	2.5	/experiments/aot/R_S_yt-V4ptcLegCiw_161.mp4	0.0	209.81021785736084	
35	177.30740690231323	movie	1		300	33.0	2.5	/experiments/aot/R_S_yt-V4ptcLegCiw_161.mp4	0.0	210.22673773765564	2.4999289512634277
35	178.49078679084778	pulse	1	t		33.0	2.5	/experiments/aot/R_S_yt-V4ptcLegCiw_161.mp4	0.0	211.41011762619019	
35	179.80733585357666	fix_post	2		12	33.0	2.5	/experiments/aot/R_S_yt-V4ptcLegCiw_161.mp4	0.0	212.72666668891907	0.10002708435058594
36	179.90736293792725	fix_pre	0		120	34.0	2.5	/experiments/aot/R_S_wc-sd8_iKx0t7s7_9.mp4	0.0	212.82669377326965	1.0000338554382324
36	180.09088397026062	pulse	0	t		34.0	2.5	/experiments/aot/R_S_wc-sd8_iKx0t7s7_9.mp4	0.0	213.01021480560303	
36	180.90739679336548	movie	1		164	34.0	2.5	/experiments/aot/R_S_wc-sd8_iKx0t7s7_9.mp4	0.0	213.82672762870789	2.5000171661376953
36	181.69091081619263	pulse	1	t		34.0	2.5	/experiments/aot/R_S_wc-sd8_iKx0t7s7_9.mp4	0.0	214.61024165153503	
36	183.2908318042755	pulse	1	t		34.0	2.5	/experiments/aot/R_S_wc-sd8_iKx0t7s7_9.mp4	0.0	216.21016263961792	
36	183.40741395950317	fix_post	2		12	34.0	2.5	/experiments/aot/R_S_wc-sd8_iKx0t7s7_9.mp4	0.0	216.32674479484558	0.09995889663696289
37	183.50737285614014	fix_pre	0		120	35.0	2.5	blank	1.0	216.42670369148254	0.9999840259552002
37	184.50735688209534	movie	1		300	35.0	2.5	blank	1.0	217.42668771743774	2.5000319480895996
37	184.89093494415283	pulse	1	t		35.0	2.5	blank	1.0	217.81026577949524	
37	186.49079990386963	pulse	1	t		35.0	2.5	blank	1.0	219.41013073921204	
37	187.00738883018494	fix_post	2		12	35.0	2.5	blank	1.0	219.92671966552734	0.10003995895385742
38	187.1074287891388	fix_pre	0		119	36.0	2.5	/experiments/aot/S__9v_wUywaAA_35.mp4	0.0	220.0267596244812	0.9916372299194336
38	188.09084391593933	pulse	0	t		36.0	2.5	/experiments/aot/S__9v_wUywaAA_35.mp4	0.0	221.01017475128174	
38	188.09906601905823	movie	1		301	36.0	2.5	/experiments/aot/S__9v_wUywaAA_35.mp4	0.0	221.01839685440063	2.5082778930664062
38	189.69088292121887	pulse	1	t		36.0	2.5	/experiments/aot/S__9v_wUywaAA_35.mp4	0.0	222.61021375656128	
38	190.60734391212463	fix_post	2		12	36.0	2.5	/experiments/aot/S__9v_wUywaAA_35.mp4	0.0	223.52667474746704	0.09996199607849121
39	190.70730590820312	fix_pre	0		120	37.0	2.5	/experiments/aot/R_S_yt-c-H45QS0CF4_147.mp4	0.0	223.62663674354553	0.9995639324188232
39	191.29078888893127	pulse	0	t		37.0	2.5	/experiments/aot/R_S_yt-c-H45QS0CF4_147.mp4	0.0	224.21011972427368	
39	191.70686984062195	movie	1		300	37.0	2.5	/experiments/aot/R_S_yt-c-H45QS0CF4_147.mp4	0.0	224.62620067596436	2.5003230571746826
39	192.89043498039246	pulse	1	t		37.0	2.5	/experiments/aot/R_S_yt-c-H45QS0CF4_147.mp4	0.0	225.80976581573486	
39	194.20719289779663	fix_post	2		12	37.0	2.5	/experiments/aot/R_S_yt-c-H45QS0CF4_147.mp4	0.0	227.12652373313904	0.10010910034179688
40	194.30730199813843	fix_pre	0		120	38.0	2.5	/experiments/aot/R_S_yt-kINZMjys3O4_112.mp4	0.0	227.22663283348083	1.0000569820404053
40	194.49067997932434	pulse	0	t		38.0	2.5	/experiments/aot/R_S_yt-kINZMjys3O4_112.mp4	0.0	227.41001081466675	
40	195.30735898017883	movie	1		300	38.0	2.5	/experiments/aot/R_S_yt-kINZMjys3O4_112.mp4	0.0	228.22668981552124	2.4998528957366943
40	196.09075689315796	pulse	1	t		38.0	2.5	/experiments/aot/R_S_yt-kINZMjys3O4_112.mp4	0.0	229.01008772850037	
40	197.69034600257874	pulse	1	t		38.0	2.5	/experiments/aot/R_S_yt-kINZMjys3O4_112.mp4	0.0	230.60967683792114	
40	197.80721187591553	fix_post	2		12	38.0	2.5	/experiments/aot/R_S_yt-kINZMjys3O4_112.mp4	0.0	230.72654271125793	0.1000969409942627
41	197.9073088169098	fix_pre	0		120	39.0	2.5	/experiments/aot/R_S_yt-Ub5Xx5BqIOk_74.mp4	0.0	230.8266396522522	0.9999179840087891
41	198.90722680091858	movie	1		298	39.0	2.5	/experiments/aot/R_S_yt-Ub5Xx5BqIOk_74.mp4	0.0	231.826557636261	2.5000531673431396
41	199.29059481620789	pulse	1	t		39.0	2.5	/experiments/aot/R_S_yt-Ub5Xx5BqIOk_74.mp4	0.0	232.2099256515503	
41	200.8906478881836	pulse	1	t		39.0	2.5	/experiments/aot/R_S_yt-Ub5Xx5BqIOk_74.mp4	0.0	233.809978723526	
41	201.40727996826172	fix_post	2		12	39.0	2.5	/experiments/aot/R_S_yt-Ub5Xx5BqIOk_74.mp4	0.0	234.32661080360413	0.09991002082824707
42	201.50718998908997	fix_pre	0		119	40.0	2.5	blank	1.0	234.42652082443237	0.9916729927062988
42	202.49085187911987	pulse	0	t		40.0	2.5	blank	1.0	235.41018271446228	
42	202.49886298179626	movie	1		301	40.0	2.5	blank	1.0	235.41819381713867	2.5082828998565674
42	204.09066200256348	pulse	1	t		40.0	2.5	blank	1.0	237.00999283790588	
42	205.00714588165283	fix_post	2		12	40.0	2.5	blank	1.0	237.92647671699524	0.10001301765441895
43	205.10715889930725	fix_pre	0		120	41.0	2.5	/experiments/aot/R_S_yt-83nimFMNhrM_131.mp4	0.0	238.02648973464966	1.0000369548797607
43	205.69063782691956	pulse	0	t		41.0	2.5	/experiments/aot/R_S_yt-83nimFMNhrM_131.mp4	0.0	238.60996866226196	
43	206.107195854187	movie	1		300	41.0	2.5	/experiments/aot/R_S_yt-83nimFMNhrM_131.mp4	0.0	239.02652668952942	2.4999780654907227
43	207.29060792922974	pulse	1	t		41.0	2.5	/experiments/aot/R_S_yt-83nimFMNhrM_131.mp4	0.0	240.20993876457214	
43	208.60717391967773	fix_post	2		12	41.0	2.5	/experiments/aot/R_S_yt-83nimFMNhrM_131.mp4	0.0	241.52650475502014	0.10002493858337402
44	208.7071988582611	fix_pre	0		120	42.0	2.5	/experiments/aot/R_S_yt-BDCyXL5e9S4_223.mp4	0.0	241.62652969360352	0.9999821186065674
44	208.8906970024109	pulse	0	t		42.0	2.5	/experiments/aot/R_S_yt-BDCyXL5e9S4_223.mp4	0.0	241.8100278377533	
44	209.70718097686768	movie	1		300	42.0	2.5	/experiments/aot/R_S_yt-BDCyXL5e9S4_223.mp4	0.0	242.62651181221008	2.500113010406494
44	210.49053978919983	pulse	1	t		42.0	2.5	/experiments/aot/R_S_yt-BDCyXL5e9S4_223.mp4	0.0	243.40987062454224	
44	212.0908010005951	pulse	1	t		42.0	2.5	/experiments/aot/R_S_yt-BDCyXL5e9S4_223.mp4	0.0	245.0101318359375	
44	212.20729398727417	fix_post	2		12	42.0	2.5	/experiments/aot/R_S_yt-BDCyXL5e9S4_223.mp4	0.0	245.12662482261658	0.09984397888183594
45	212.307137966156	fix_pre	0		120	43.0	2.5	/experiments/aot/R_S_yt-UojTppgtyCE_121.mp4	0.0	245.2264688014984	1.0000619888305664
45	213.30719995498657	movie	1		300	43.0	2.5	/experiments/aot/R_S_yt-UojTppgtyCE_121.mp4	0.0	246.22653079032898	2.4999189376831055
45	213.690682888031	pulse	1	t		43.0	2.5	/experiments/aot/R_S_yt-UojTppgtyCE_121.mp4	0.0	246.6100137233734	
45	215.2906517982483	pulse	1	t		43.0	2.5	/experiments/aot/R_S_yt-UojTppgtyCE_121.mp4	0.0	248.2099826335907	
45	215.80711889266968	fix_post	2		12	43.0	2.5	/experiments/aot/R_S_yt-UojTppgtyCE_121.mp4	0.0	248.72644972801208	0.10017991065979004
46	215.90729880332947	fix_pre	0		119	44.0	2.5	/experiments/aot/S_yt-TNtO8RPd3iE_25.mp4	0.0	248.82662963867188	0.9915761947631836
46	216.8905827999115	pulse	0	t		44.0	2.5	/experiments/aot/S_yt-TNtO8RPd3iE_25.mp4	0.0	249.8099136352539	
46	216.89887499809265	movie	1		301	44.0	2.5	/experiments/aot/S_yt-TNtO8RPd3iE_25.mp4	0.0	249.81820583343506	2.5083158016204834
46	218.49075484275818	pulse	1	t		44.0	2.5	/experiments/aot/S_yt-TNtO8RPd3iE_25.mp4	0.0	251.4100856781006	
46	219.40719079971313	fix_post	2		12	44.0	2.5	/experiments/aot/S_yt-TNtO8RPd3iE_25.mp4	0.0	252.32652163505554	0.09989404678344727
47	219.50708484649658	fix_pre	0		120	45.0	2.5	/experiments/aot/S_ILSVRC2015_train_00404003.mp4	0.0	252.426415681839	1.000028133392334
47	220.0905888080597	pulse	0	t		45.0	2.5	/experiments/aot/S_ILSVRC2015_train_00404003.mp4	0.0	253.0099196434021	
47	220.50711297988892	movie	1		300	45.0	2.5	/experiments/aot/S_ILSVRC2015_train_00404003.mp4	0.0	253.42644381523132	2.4999818801879883
47	221.69072198867798	pulse	1	t		45.0	2.5	/experiments/aot/S_ILSVRC2015_train_00404003.mp4	0.0	254.61005282402039	
47	223.0070948600769	fix_post	2		12	45.0	2.5	/experiments/aot/S_ILSVRC2015_train_00404003.mp4	0.0	255.9264256954193	0.100006103515625
48	223.10710096359253	fix_pre	0		120	46.0	2.5	/experiments/aot/R_S_pexels-mart-production-7698693.mp4	0.0	256.02643179893494	1.000053882598877
48	223.2906849384308	pulse	0	t		46.0	2.5	/experiments/aot/R_S_pexels-mart-production-7698693.mp4	0.0	256.2100157737732	
48	224.1071548461914	movie	1		164	46.0	2.5	/experiments/aot/R_S_pexels-mart-production-7698693.mp4	0.0	257.0264856815338	2.499912977218628
48	224.89061880111694	pulse	1	t		46.0	2.5	/experiments/aot/R_S_pexels-mart-production-7698693.mp4	0.0	257.80994963645935	
48	226.49066591262817	pulse	1	t		46.0	2.5	/experiments/aot/R_S_pexels-mart-production-7698693.mp4	0.0	259.4099967479706	
48	226.60706782341003	fix_post	2		12	46.0	2.5	/experiments/aot/R_S_pexels-mart-production-7698693.mp4	0.0	259.52639865875244	0.10002517700195312
49	226.707093000412	fix_pre	0		120	47.0	2.5	/experiments/aot/S_yt-n1snPiGfg0A_45.mp4	0.0	259.6264238357544	0.9999759197235107
49	227.7070689201355	movie	1		298	47.0	2.5	/experiments/aot/S_yt-n1snPiGfg0A_45.mp4	0.0	260.6263997554779	2.4999940395355225
49	228.0905418395996	pulse	1	t		47.0	2.5	/experiments/aot/S_yt-n1snPiGfg0A_45.mp4	0.0	261.009872674942	
49	229.69057083129883	pulse	1	t		47.0	2.5	/experiments/aot/S_yt-n1snPiGfg0A_45.mp4	0.0	262.60990166664124	
49	230.20706295967102	fix_post	2		12	47.0	2.5	/experiments/aot/S_yt-n1snPiGfg0A_45.mp4	0.0	263.1263937950134	0.10004496574401855
50	230.30710792541504	fix_pre	0		119	48.0	2.5	/experiments/aot/S_SPNvf6JCjGw_123.mp4	0.0	263.22643876075745	0.9916460514068604
50	231.29054999351501	pulse	0	t		48.0	2.5	/experiments/aot/S_SPNvf6JCjGw_123.mp4	0.0	264.2098808288574	
50	231.2987539768219	movie	1		301	48.0	2.5	/experiments/aot/S_SPNvf6JCjGw_123.mp4	0.0	264.2180848121643	2.508265972137451
50	232.89064478874207	pulse	1	t		48.0	2.5	/experiments/aot/S_SPNvf6JCjGw_123.mp4	0.0	265.8099756240845	
50	233.80701994895935	fix_post	2		12	48.0	2.5	/experiments/aot/S_SPNvf6JCjGw_123.mp4	0.0	266.72635078430176	0.10010600090026855
51	233.90712594985962	fix_pre	0		120	49.0	2.5	blank	1.0	266.826456785202	0.9999768733978271
51	234.49054980278015	pulse	0	t		49.0	2.5	blank	1.0	267.40988063812256	
51	234.90710282325745	movie	1		300	49.0	2.5	blank	1.0	267.82643365859985	2.499876022338867
51	236.09066700935364	pulse	1	t		49.0	2.5	blank	1.0	269.00999784469604	
51	237.4069788455963	fix_post	2		12	49.0	2.5	blank	1.0	270.3263096809387	0.10000801086425781
52	237.50698685646057	fix_pre	0		120	50.0	2.5	/experiments/aot/R_S_pexels-anthony-shkraba-production-8135459.mp4	0.0	270.426317691803	1.0001499652862549
52	237.6905119419098	pulse	0	t		50.0	2.5	/experiments/aot/R_S_pexels-anthony-shkraba-production-8135459.mp4	0.0	270.6098427772522	
52	238.50713682174683	movie	1		162	50.0	2.5	/experiments/aot/R_S_pexels-anthony-shkraba-production-8135459.mp4	0.0	271.42646765708923	2.4999120235443115
52	239.29057788848877	pulse	1	t		50.0	2.5	/experiments/aot/R_S_pexels-anthony-shkraba-production-8135459.mp4	0.0	272.2099087238312	
52	240.89048886299133	pulse	1	t		50.0	2.5	/experiments/aot/R_S_pexels-anthony-shkraba-production-8135459.mp4	0.0	273.80981969833374	
52	241.00704884529114	fix_post	2		12	50.0	2.5	/experiments/aot/R_S_pexels-anthony-shkraba-production-8135459.mp4	0.0	273.92637968063354	0.09999895095825195
53	241.1070477962494	fix_pre	0		120	51.0	2.5	/experiments/aot/S_video_inspire_florida_miami_brickell_sunset_00036.1080-h264.mp4	0.0	274.0263786315918	1.0001602172851562
53	242.10720801353455	movie	1		164	51.0	2.5	/experiments/aot/S_video_inspire_florida_miami_brickell_sunset_00036.1080-h264.mp4	0.0	275.02653884887695	2.4998269081115723
53	242.4905219078064	pulse	1	t		51.0	2.5	/experiments/aot/S_video_inspire_florida_miami_brickell_sunset_00036.1080-h264.mp4	0.0	275.4098527431488	
53	244.09056186676025	pulse	1	t		51.0	2.5	/experiments/aot/S_video_inspire_florida_miami_brickell_sunset_00036.1080-h264.mp4	0.0	277.00989270210266	
53	244.60703492164612	fix_post	2		12	51.0	2.5	/experiments/aot/S_video_inspire_florida_miami_brickell_sunset_00036.1080-h264.mp4	0.0	277.5263657569885	0.10006093978881836
54	244.70709586143494	fix_pre	0		119	52.0	2.5	/experiments/aot/R_S_wc-8bTJmWfuVyJ4_8.mp4	0.0	277.62642669677734	0.9916560649871826
54	245.69055485725403	pulse	0	t		52.0	2.5	/experiments/aot/R_S_wc-8bTJmWfuVyJ4_8.mp4	0.0	278.60988569259644	
54	245.69875192642212	movie	1		167	52.0	2.5	/experiments/aot/R_S_wc-8bTJmWfuVyJ4_8.mp4	0.0	278.6180827617645	2.5084259510040283
54	247.28959393501282	pulse	1	t		52.0	2.5	/experiments/aot/R_S_wc-8bTJmWfuVyJ4_8.mp4	0.0	280.2089247703552	
54	248.20717787742615	fix_post	2		12	52.0	2.5	/experiments/aot/R_S_wc-8bTJmWfuVyJ4_8.mp4	0.0	281.12650871276855	0.09949898719787598
55	248.30667686462402	fix_pre	0		120	53.0	2.5	/experiments/aot/S_yt-BDCyXL5e9S4_223.mp4	0.0	281.22600769996643	1.0001511573791504
55	248.89062190055847	pulse	0	t		53.0	2.5	/experiments/aot/S_yt-BDCyXL5e9S4_223.mp4	0.0	281.8099527359009	
55	249.30682802200317	movie	1		299	53.0	2.5	/experiments/aot/S_yt-BDCyXL5e9S4_223.mp4	0.0	282.2261588573456	2.500114917755127
55	250.49042296409607	pulse	1	t		53.0	2.5	/experiments/aot/S_yt-BDCyXL5e9S4_223.mp4	0.0	283.4097537994385	
55	251.8069429397583	fix_post	2		12	53.0	2.5	/experiments/aot/S_yt-BDCyXL5e9S4_223.mp4	0.0	284.7262737751007	0.1000819206237793
56	251.90702486038208	fix_pre	0		120	54.0	2.5	blank	1.0	284.8263556957245	0.9999630451202393
56	252.09056997299194	pulse	0	t		54.0	2.5	blank	1.0	285.00990080833435	
56	252.90698790550232	movie	1		300	54.0	2.5	blank	1.0	285.8263187408447	2.4999680519104004
56	253.69045996665955	pulse	1	t		54.0	2.5	blank	1.0	286.60979080200195	
56	255.29048585891724	pulse	1	t		54.0	2.5	blank	1.0	288.20981669425964	
56	255.40695595741272	fix_post	2		12	54.0	2.5	blank	1.0	288.3262867927551	0.10000205039978027
57	255.5069580078125	fix_pre	0		120	55.0	2.5	/experiments/aot/R_S_yt-bmGWhOCsvJo_128.mp4	0.0	288.4262888431549	0.9999358654022217
57	256.5068938732147	movie	1		300	55.0	2.5	/experiments/aot/R_S_yt-bmGWhOCsvJo_128.mp4	0.0	289.42622470855713	2.500091075897217
57	256.89041781425476	pulse	1	t		55.0	2.5	/experiments/aot/R_S_yt-bmGWhOCsvJo_128.mp4	0.0	289.80974864959717	
57	258.490375995636	pulse	1	t		55.0	2.5	/experiments/aot/R_S_yt-bmGWhOCsvJo_128.mp4	0.0	291.4097068309784	
57	259.00698494911194	fix_post	2		12	55.0	2.5	/experiments/aot/R_S_yt-bmGWhOCsvJo_128.mp4	0.0	291.92631578445435	0.09990191459655762
58	259.1068868637085	fix_pre	0		119	56.0	2.5	/experiments/aot/R_S_yt-UmLeGNcqouI_718.mp4	0.0	292.0262176990509	0.9916999340057373
58	260.0903580188751	pulse	0	t		56.0	2.5	/experiments/aot/R_S_yt-UmLeGNcqouI_718.mp4	0.0	293.00968885421753	
58	260.09858679771423	movie	1		301	56.0	2.5	/experiments/aot/R_S_yt-UmLeGNcqouI_718.mp4	0.0	293.01791763305664	2.5079641342163086
58	261.69042801856995	pulse	1	t		56.0	2.5	/experiments/aot/R_S_yt-UmLeGNcqouI_718.mp4	0.0	294.60975885391235	
58	262.60655093193054	fix_post	2		12	56.0	2.5	/experiments/aot/R_S_yt-UmLeGNcqouI_718.mp4	0.0	295.52588176727295	0.10031986236572266
59	262.70687079429626	fix_pre	0		120	57.0	2.5	/experiments/aot/S_yt-XF0fyyFEgWo_280.mp4	0.0	295.6262016296387	1.0000290870666504
59	263.29040694236755	pulse	0	t		57.0	2.5	/experiments/aot/S_yt-XF0fyyFEgWo_280.mp4	0.0	296.20973777770996	
59	263.7068998813629	movie	1		300	57.0	2.5	/experiments/aot/S_yt-XF0fyyFEgWo_280.mp4	0.0	296.6262307167053	2.5000200271606445
59	264.89057898521423	pulse	1	t		57.0	2.5	/experiments/aot/S_yt-XF0fyyFEgWo_280.mp4	0.0	297.80990982055664	
59	266.20691990852356	fix_post	2		12	57.0	2.5	/experiments/aot/S_yt-XF0fyyFEgWo_280.mp4	0.0	299.12625074386597	0.10001301765441895
60	266.306932926178	fix_pre	0		120	58.0	2.5	/experiments/aot/R_S_yt-gMqeZkpA_1Q_61.mp4	0.0	299.2262637615204	1.0000710487365723
60	266.49045586586	pulse	0	t		58.0	2.5	/experiments/aot/R_S_yt-gMqeZkpA_1Q_61.mp4	0.0	299.4097867012024	
60	267.30700397491455	movie	1		300	58.0	2.5	/experiments/aot/R_S_yt-gMqeZkpA_1Q_61.mp4	0.0	300.22633481025696	2.4999759197235107
60	268.0904200077057	pulse	1	t		58.0	2.5	/experiments/aot/R_S_yt-gMqeZkpA_1Q_61.mp4	0.0	301.0097508430481	
60	269.69090485572815	pulse	1	t		58.0	2.5	/experiments/aot/R_S_yt-gMqeZkpA_1Q_61.mp4	0.0	302.61023569107056	
60	269.80697989463806	fix_post	2		12	58.0	2.5	/experiments/aot/R_S_yt-gMqeZkpA_1Q_61.mp4	0.0	302.72631072998047	0.0999760627746582
61	269.9069559574127	fix_pre	0		120	59.0	2.5	/experiments/aot/R_S_ILSVRC2015_train_00661001.mp4	0.0	302.8262867927551	1.000053882598877
61	270.9070098400116	movie	1		300	59.0	2.5	/experiments/aot/R_S_ILSVRC2015_train_00661001.mp4	0.0	303.826340675354	2.4999420642852783
61	271.2903800010681	pulse	1	t		59.0	2.5	/experiments/aot/R_S_ILSVRC2015_train_00661001.mp4	0.0	304.2097108364105	
61	272.89037895202637	pulse	1	t		59.0	2.5	/experiments/aot/R_S_ILSVRC2015_train_00661001.mp4	0.0	305.8097097873688	
61	273.4069519042969	fix_post	2		12	59.0	2.5	/experiments/aot/R_S_ILSVRC2015_train_00661001.mp4	0.0	306.3262827396393	0.09999895095825195
62	273.5069508552551	fix_pre	0		119	60.0	2.5	/experiments/aot/R_S_yt-hDYtYKUsVE4_120.mp4	0.0	306.42628169059753	0.99161696434021
62	274.490355014801	pulse	0	t		60.0	2.5	/experiments/aot/R_S_yt-hDYtYKUsVE4_120.mp4	0.0	307.40968585014343	
62	274.49856781959534	movie	1		301	60.0	2.5	/experiments/aot/R_S_yt-hDYtYKUsVE4_120.mp4	0.0	307.41789865493774	2.5083651542663574
62	276.0903489589691	pulse	1	t		60.0	2.5	/experiments/aot/R_S_yt-hDYtYKUsVE4_120.mp4	0.0	309.0096797943115	
62	277.0069329738617	fix_post	2		12	60.0	2.5	/experiments/aot/R_S_yt-hDYtYKUsVE4_120.mp4	0.0	309.9262638092041	0.09993791580200195
63	277.1068708896637	fix_pre	0		120	61.0	2.5	/experiments/aot/S_yt-D6fhzH21T_E_26.mp4	0.0	310.0262017250061	1.000046968460083
63	277.6903250217438	pulse	0	t		61.0	2.5	/experiments/aot/S_yt-D6fhzH21T_E_26.mp4	0.0	310.6096558570862	
63	278.1069178581238	movie	1		300	61.0	2.5	/experiments/aot/S_yt-D6fhzH21T_E_26.mp4	0.0	311.0262486934662	2.4999749660491943
63	279.29028487205505	pulse	1	t		61.0	2.5	/experiments/aot/S_yt-D6fhzH21T_E_26.mp4	0.0	312.20961570739746	
63	280.606892824173	fix_post	2		12	61.0	2.5	/experiments/aot/S_yt-D6fhzH21T_E_26.mp4	0.0	313.5262236595154	0.09995603561401367
64	280.706848859787	fix_pre	0		120	62.0	2.5	/experiments/aot/R_S_yt-D6fhzH21T_E_26.mp4	0.0	313.6261796951294	1.0000591278076172
64	280.8903489112854	pulse	0	t		62.0	2.5	/experiments/aot/R_S_yt-D6fhzH21T_E_26.mp4	0.0	313.8096797466278	
64	281.7069079875946	movie	1		300	62.0	2.5	/experiments/aot/R_S_yt-D6fhzH21T_E_26.mp4	0.0	314.626238822937	2.499980926513672
64	282.49024081230164	pulse	1	t		62.0	2.5	/experiments/aot/R_S_yt-D6fhzH21T_E_26.mp4	0.0	315.40957164764404	
64	284.0902888774872	pulse	1	t		62.0	2.5	/experiments/aot/R_S_yt-D6fhzH21T_E_26.mp4	0.0	317.0096197128296	
64	284.2068889141083	fix_post	2		12	62.0	2.5	/experiments/aot/R_S_yt-D6fhzH21T_E_26.mp4	0.0	317.1262197494507	0.09990191459655762
65	284.30679082870483	fix_pre	0		120	63.0	2.5	blank	1.0	317.22612166404724	0.9995851516723633
65	285.3063759803772	movie	1		300	63.0	2.5	blank	1.0	318.2257068157196	2.500372886657715
65	285.69032979011536	pulse	1	t		63.0	2.5	blank	1.0	318.60966062545776	
65	287.2902948856354	pulse	1	t		63.0	2.5	blank	1.0	320.2096257209778	
65	287.8067488670349	fix_post	2		12	63.0	2.5	blank	1.0	320.7260797023773	0.10004305839538574
66	287.9067919254303	fix_pre	0		119	64.0	2.5	/experiments/aot/S_ILSVRC2015_train_00369004.mp4	0.0	320.8261227607727	0.9917218685150146
66	288.8903269767761	pulse	0	t		64.0	2.5	/experiments/aot/S_ILSVRC2015_train_00369004.mp4	0.0	321.80965781211853	
66	288.8985137939453	movie	1		301	64.0	2.5	/experiments/aot/S_ILSVRC2015_train_00369004.mp4	0.0	321.8178446292877	2.5083510875701904
66	290.4903438091278	pulse	1	t		64.0	2.5	/experiments/aot/S_ILSVRC2015_train_00369004.mp4	0.0	323.4096746444702	
66	291.4068648815155	fix_post	2		12	64.0	2.5	/experiments/aot/S_ILSVRC2015_train_00369004.mp4	0.0	324.3261957168579	0.09990501403808594
67	291.5067698955536	fix_pre	0		120	65.0	2.5	/experiments/aot/R_S_yt-kKRGgUhVRzc_74.mp4	0.0	324.426100730896	0.9999871253967285
67	292.0902829170227	pulse	0	t		65.0	2.5	/experiments/aot/R_S_yt-kKRGgUhVRzc_74.mp4	0.0	325.0096137523651	
67	292.5067570209503	movie	1		300	65.0	2.5	/experiments/aot/R_S_yt-kKRGgUhVRzc_74.mp4	0.0	325.4260878562927	2.5000429153442383
67	293.69021701812744	pulse	1	t		65.0	2.5	/experiments/aot/R_S_yt-kKRGgUhVRzc_74.mp4	0.0	326.60954785346985	
67	295.00679993629456	fix_post	2		12	65.0	2.5	/experiments/aot/R_S_yt-kKRGgUhVRzc_74.mp4	0.0	327.92613077163696	0.0999898910522461
68	295.1067898273468	fix_pre	0		120	66.0	2.5	/experiments/aot/S_pexels-cottonbro-9499408.mp4	0.0	328.0261206626892	1.0000030994415283
68	295.29022002220154	pulse	0	t		66.0	2.5	/experiments/aot/S_pexels-cottonbro-9499408.mp4	0.0	328.20955085754395	
68	296.10679292678833	movie	1		163	66.0	2.5	/experiments/aot/S_pexels-cottonbro-9499408.mp4	0.0	329.02612376213074	2.499927043914795
68	296.89815282821655	pulse	1	t		66.0	2.5	/experiments/aot/S_pexels-cottonbro-9499408.mp4	0.0	329.81748366355896	
68	298.49020981788635	pulse	1	t		66.0	2.5	/experiments/aot/S_pexels-cottonbro-9499408.mp4	0.0	331.40954065322876	
68	298.6067199707031	fix_post	2		12	66.0	2.5	/experiments/aot/S_pexels-cottonbro-9499408.mp4	0.0	331.52605080604553	0.10013699531555176
69	298.7068569660187	fix_pre	0		120	67.0	2.5	/experiments/aot/S_yt-ni4JaYu7PhU_6.mp4	0.0	331.6261878013611	0.9999070167541504
69	299.7067639827728	movie	1		299	67.0	2.5	/experiments/aot/S_yt-ni4JaYu7PhU_6.mp4	0.0	332.62609481811523	2.5001139640808105
69	300.0901448726654	pulse	1	t		67.0	2.5	/experiments/aot/S_yt-ni4JaYu7PhU_6.mp4	0.0	333.0094757080078	
69	301.69020199775696	pulse	1	t		67.0	2.5	/experiments/aot/S_yt-ni4JaYu7PhU_6.mp4	0.0	334.60953283309937	
69	302.20687794685364	fix_post	2		12	67.0	2.5	/experiments/aot/S_yt-ni4JaYu7PhU_6.mp4	0.0	335.12620878219604	0.09986591339111328
70	302.30674386024475	fix_pre	0		119	68.0	2.5	/experiments/aot/S_yt-BAwvfRmE1LU_79.mp4	0.0	335.22607469558716	0.9916591644287109
70	303.2898619174957	pulse	0	t		68.0	2.5	/experiments/aot/S_yt-BAwvfRmE1LU_79.mp4	0.0	336.20919275283813	
70	303.29840302467346	movie	1		301	68.0	2.5	/experiments/aot/S_yt-BAwvfRmE1LU_79.mp4	0.0	336.21773386001587	2.508190870285034
70	304.88997888565063	pulse	1	t		68.0	2.5	/experiments/aot/S_yt-BAwvfRmE1LU_79.mp4	0.0	337.80930972099304	
70	305.8065938949585	fix_post	2		12	68.0	2.5	/experiments/aot/S_yt-BAwvfRmE1LU_79.mp4	0.0	338.7259247303009	0.10046505928039551
71	305.9070589542389	fix_pre	0		120	69.0	2.5	blank	1.0	338.8263897895813	0.9996969699859619
71	306.4902539253235	pulse	0	t		69.0	2.5	blank	1.0	339.4095847606659	
71	306.90675592422485	movie	1		300	69.0	2.5	blank	1.0	339.82608675956726	2.49995493888855
71	308.0902519226074	pulse	1	t		69.0	2.5	blank	1.0	341.00958275794983	
71	309.4067108631134	fix_post	2		12	69.0	2.5	blank	1.0	342.3260416984558	0.09995794296264648
72	309.50666880607605	fix_pre	0		120	70.0	2.5	/experiments/aot/S_yt-qF-69JWJX_Y_55.mp4	0.0	342.42599964141846	1.0001301765441895
72	309.6902449131012	pulse	0	t		70.0	2.5	/experiments/aot/S_yt-qF-69JWJX_Y_55.mp4	0.0	342.6095757484436	
72	310.50679898262024	movie	1		300	70.0	2.5	/experiments/aot/S_yt-qF-69JWJX_Y_55.mp4	0.0	343.42612981796265	2.4999120235443115
72	311.290100812912	pulse	1	t		70.0	2.5	/experiments/aot/S_yt-qF-69JWJX_Y_55.mp4	0.0	344.2094316482544	
72	312.8907239437103	pulse	1	t		70.0	2.5	/experiments/aot/S_yt-qF-69JWJX_Y_55.mp4	0.0	345.81005477905273	
72	313.00671100616455	fix_post	2		12	70.0	2.5	/experiments/aot/S_yt-qF-69JWJX_Y_55.mp4	0.0	345.92604184150696	0.09996700286865234
73	313.1066780090332	fix_pre	0		120	71.0	2.5	/experiments/aot/S_yt-MNo__ov96eI_22.mp4	0.0	346.0260088443756	1.000058889389038
73	314.10673689842224	movie	1		300	71.0	2.5	/experiments/aot/S_yt-MNo__ov96eI_22.mp4	0.0	347.02606773376465	2.4998888969421387
73	314.4946129322052	pulse	1	t		71.0	2.5	/experiments/aot/S_yt-MNo__ov96eI_22.mp4	0.0	347.4139437675476	
73	316.090106010437	pulse	1	t		71.0	2.5	/experiments/aot/S_yt-MNo__ov96eI_22.mp4	0.0	349.0094368457794	
73	316.6066257953644	fix_post	2		12	71.0	2.5	/experiments/aot/S_yt-MNo__ov96eI_22.mp4	0.0	349.5259566307068	0.10001611709594727
74	316.7066419124603	fix_pre	0		119	72.0	2.5	/experiments/aot/R_S_ILSVRC2015_train_00434000.mp4	0.0	349.62597274780273	0.9917199611663818
74	317.6901168823242	pulse	0	t		72.0	2.5	/experiments/aot/R_S_ILSVRC2015_train_00434000.mp4	0.0	350.6094477176666	
74	317.6983618736267	movie	1		301	72.0	2.5	/experiments/aot/R_S_ILSVRC2015_train_00434000.mp4	0.0	350.6176927089691	2.5082991123199463
74	319.29029393196106	pulse	1	t		72.0	2.5	/experiments/aot/R_S_ILSVRC2015_train_00434000.mp4	0.0	352.20962476730347	
74	320.20666098594666	fix_post	2		12	72.0	2.5	/experiments/aot/R_S_ILSVRC2015_train_00434000.mp4	0.0	353.12599182128906	0.09996891021728516
75	320.30662989616394	fix_pre	0		120	73.0	2.5	/experiments/aot/R_S_yt-BDCyXL5e9S4_223.mp4	0.0	353.22596073150635	0.9999871253967285
75	320.8901948928833	pulse	0	t		73.0	2.5	/experiments/aot/R_S_yt-BDCyXL5e9S4_223.mp4	0.0	353.8095257282257	
75	321.30661702156067	movie	1		300	73.0	2.5	/experiments/aot/R_S_yt-BDCyXL5e9S4_223.mp4	0.0	354.2259478569031	2.5000720024108887
75	322.49009585380554	pulse	1	t		73.0	2.5	/experiments/aot/R_S_yt-BDCyXL5e9S4_223.mp4	0.0	355.40942668914795	
75	323.80668902397156	fix_post	2		12	73.0	2.5	/experiments/aot/R_S_yt-BDCyXL5e9S4_223.mp4	0.0	356.72601985931396	0.0999147891998291
76	323.9066038131714	fix_pre	0		120	74.0	2.5	/experiments/aot/S_yt-pOCEuqVE7ro_61.mp4	0.0	356.8259346485138	0.9999921321868896
76	324.090176820755	pulse	0	t		74.0	2.5	/experiments/aot/S_yt-pOCEuqVE7ro_61.mp4	0.0	357.0095076560974	
76	324.9065959453583	movie	1		300	74.0	2.5	/experiments/aot/S_yt-pOCEuqVE7ro_61.mp4	0.0	357.8259267807007	2.5000100135803223
76	325.6901249885559	pulse	1	t		74.0	2.5	/experiments/aot/S_yt-pOCEuqVE7ro_61.mp4	0.0	358.6094558238983	
76	327.29058599472046	pulse	1	t		74.0	2.5	/experiments/aot/S_yt-pOCEuqVE7ro_61.mp4	0.0	360.20991683006287	
76	327.4066059589386	fix_post	2		12	74.0	2.5	/experiments/aot/S_yt-pOCEuqVE7ro_61.mp4	0.0	360.325936794281	0.09993886947631836
77	327.5065448284149	fix_pre	0		120	75.0	2.5	/experiments/aot/S_ILSVRC2015_train_00369004.mp4	0.0	360.4258756637573	1.0000779628753662
77	328.5066227912903	movie	1		300	75.0	2.5	/experiments/aot/S_ILSVRC2015_train_00369004.mp4	0.0	361.4259536266327	2.5000932216644287
77	328.89398884773254	pulse	1	t		75.0	2.5	/experiments/aot/S_ILSVRC2015_train_00369004.mp4	0.0	361.81331968307495	
77	330.4943130016327	pulse	1	t		75.0	2.5	/experiments/aot/S_ILSVRC2015_train_00369004.mp4	0.0	363.4136438369751	
77	331.0067160129547	fix_post	2		12	75.0	2.5	/experiments/aot/S_ILSVRC2015_train_00369004.mp4	0.0	363.9260468482971	0.09984588623046875
78	331.1065618991852	fix_pre	0		119	76.0	2.5	/experiments/aot/R_S_yt-lCb_efvJcdE_5.mp4	0.0	364.0258927345276	0.9916279315948486
78	332.09007501602173	pulse	0	t		76.0	2.5	/experiments/aot/R_S_yt-lCb_efvJcdE_5.mp4	0.0	365.00940585136414	
78	332.09818983078003	movie	1		301	76.0	2.5	/experiments/aot/R_S_yt-lCb_efvJcdE_5.mp4	0.0	365.01752066612244	2.5084450244903564
78	333.69007182121277	pulse	1	t		76.0	2.5	/experiments/aot/R_S_yt-lCb_efvJcdE_5.mp4	0.0	366.6094026565552	
78	334.6066348552704	fix_post	2		12	76.0	2.5	/experiments/aot/R_S_yt-lCb_efvJcdE_5.mp4	0.0	367.5259656906128	0.09999394416809082
79	334.7066287994385	fix_pre	0		120	77.0	2.5	blank	1.0	367.6259596347809	1.0000801086425781
79	335.290079832077	pulse	0	t		77.0	2.5	blank	1.0	368.20941066741943	
79	335.70670890808105	movie	1		300	77.0	2.5	blank	1.0	368.62603974342346	2.4998390674591064
79	336.89010286331177	pulse	1	t		77.0	2.5	blank	1.0	369.8094336986542	
79	338.20654797554016	fix_post	2		12	77.0	2.5	blank	1.0	371.12587881088257	0.09997081756591797
80	338.3065187931061	fix_pre	0		120	78.0	2.5	/experiments/aot/R_S_yt-K_gHa2x2OQA_319.mp4	0.0	371.2258496284485	1.0000650882720947
80	338.4901340007782	pulse	0	t		78.0	2.5	/experiments/aot/R_S_yt-K_gHa2x2OQA_319.mp4	0.0	371.4094648361206	
80	339.3065838813782	movie	1		300	78.0	2.5	/experiments/aot/R_S_yt-K_gHa2x2OQA_319.mp4	0.0	372.2259147167206	2.5000109672546387
80	340.0900650024414	pulse	1	t		78.0	2.5	/experiments/aot/R_S_yt-K_gHa2x2OQA_319.mp4	0.0	373.0093958377838	
80	341.6901009082794	pulse	1	t		78.0	2.5	/experiments/aot/R_S_yt-K_gHa2x2OQA_319.mp4	0.0	374.6094317436218	
80	341.8065948486328	fix_post	2		12	78.0	2.5	/experiments/aot/R_S_yt-K_gHa2x2OQA_319.mp4	0.0	374.7259256839752	0.09986400604248047
81	341.9064588546753	fix_pre	0		120	79.0	2.5	/experiments/aot/R_S_Y005_C003_SDR_2K_AVC.mp4	0.0	374.8257896900177	1.000046968460083
81	342.9065058231354	movie	1		165	79.0	2.5	/experiments/aot/R_S_Y005_C003_SDR_2K_AVC.mp4	0.0	375.8258366584778	2.500084161758423
81	343.2922828197479	pulse	1	t		79.0	2.5	/experiments/aot/R_S_Y005_C003_SDR_2K_AVC.mp4	0.0	376.21161365509033	
81	344.89144587516785	pulse	1	t		79.0	2.5	/experiments/aot/R_S_Y005_C003_SDR_2K_AVC.mp4	0.0	377.81077671051025	
81	345.4065899848938	fix_post	2		12	79.0	2.5	/experiments/aot/R_S_Y005_C003_SDR_2K_AVC.mp4	0.0	378.3259208202362	0.09992599487304688
82	345.50651597976685	fix_pre	0		119	80.0	2.5	/experiments/aot/R_S_yt-rZA9zXR-A6s_426.mp4	0.0	378.42584681510925	0.9916729927062988
82	346.4900608062744	pulse	0	t		80.0	2.5	/experiments/aot/R_S_yt-rZA9zXR-A6s_426.mp4	0.0	379.4093916416168	
82	346.49818897247314	movie	1		301	80.0	2.5	/experiments/aot/R_S_yt-rZA9zXR-A6s_426.mp4	0.0	379.41751980781555	2.5082569122314453
82	348.0899739265442	pulse	1	t		80.0	2.5	/experiments/aot/R_S_yt-rZA9zXR-A6s_426.mp4	0.0	381.0093047618866	
82	349.0064458847046	fix_post	2		12	80.0	2.5	/experiments/aot/R_S_yt-rZA9zXR-A6s_426.mp4	0.0	381.925776720047	0.10009002685546875
83	349.10653591156006	fix_pre	0		120	81.0	2.5	/experiments/aot/S_yt-B8Sy53C6Pxw_8.mp4	0.0	382.02586674690247	1.0000441074371338
83	349.6899688243866	pulse	0	t		81.0	2.5	/experiments/aot/S_yt-B8Sy53C6Pxw_8.mp4	0.0	382.609299659729	
83	350.1065800189972	movie	1		300	81.0	2.5	/experiments/aot/S_yt-B8Sy53C6Pxw_8.mp4	0.0	383.0259108543396	2.500020980834961
83	351.2899899482727	pulse	1	t		81.0	2.5	/experiments/aot/S_yt-B8Sy53C6Pxw_8.mp4	0.0	384.2093207836151	
83	352.60660099983215	fix_post	2		12	81.0	2.5	/experiments/aot/S_yt-B8Sy53C6Pxw_8.mp4	0.0	385.52593183517456	0.09997296333312988
84	352.7065739631653	fix_pre	0		120	82.0	2.5	blank	1.0	385.6259047985077	0.9999809265136719
84	352.8899509906769	pulse	0	t		82.0	2.5	blank	1.0	385.8092818260193	
84	353.70655488967896	movie	1		300	82.0	2.5	blank	1.0	386.62588572502136	2.499911069869995
84	354.48992586135864	pulse	1	t		82.0	2.5	blank	1.0	387.40925669670105	
84	356.08998680114746	pulse	1	t		82.0	2.5	blank	1.0	389.00931763648987	
84	356.20646595954895	fix_post	2		12	82.0	2.5	blank	1.0	389.12579679489136	0.09995698928833008
85	356.3064229488373	fix_pre	0		120	83.0	2.5	/experiments/aot/R_S_production_ID_4428752.mp4	0.0	389.2257537841797	1.0000839233398438
85	357.3065068721771	movie	1		165	83.0	2.5	/experiments/aot/R_S_production_ID_4428752.mp4	0.0	390.22583770751953	2.499596118927002
85	357.68998980522156	pulse	1	t		83.0	2.5	/experiments/aot/R_S_production_ID_4428752.mp4	0.0	390.60932064056396	
85	359.2896158695221	pulse	1	t		83.0	2.5	/experiments/aot/R_S_production_ID_4428752.mp4	0.0	392.2089467048645	
85	359.8061029911041	fix_post	2		12	83.0	2.5	/experiments/aot/R_S_production_ID_4428752.mp4	0.0	392.72543382644653	0.10003089904785156
87	359.906133890152	stim	0		1716					392.8254647254944	14.300300121307373
87	360.8901557922363	pulse	0	t						393.80948662757874	
87	362.49001288414	pulse	0	t						395.4093437194824	
87	364.08993887901306	pulse	0	t						397.00926971435547	
87	365.6899678707123	pulse	0	t						398.6092987060547	
87	367.2898368835449	pulse	0	t						400.20916771888733	
87	368.88988399505615	pulse	0	t						401.80921483039856	
87	370.4898018836975	pulse	0	t						403.4091327190399	
87	372.0898189544678	pulse	0	t						405.0091497898102	
87	373.6899218559265	pulse	0	t						406.6092526912689	
