trial_nr	onset	event_type	phase	response	nr_frames	movie_index	movie_duration	movie_file	blank	onset_abs	duration
0	0.16649842262268066	stim	0		1					16.62200617790222	0.00829625129699707
0	0.13858699798583984	response	0	space						16.59409475326538	
1	0.17479467391967773	stim	0		4726					16.63030242919922	39.40050506591797
1	39.56051325798035	pulse	0	t						56.01602101325989	
1	39.57529973983765	stim	1		1715					56.03080749511719	14.29927396774292
1	41.15614867210388	pulse	1	t						57.61165642738342	
1	42.75633955001831	pulse	1	t						59.21184730529785	
1	44.3566689491272	pulse	1	t						60.81217670440674	
1	45.95699501037598	pulse	1	t						62.41250276565552	
1	47.54999566078186	pulse	1	t						64.0055034160614	
1	49.15744352340698	pulse	1	t						65.61295127868652	
1	50.749706983566284	pulse	1	t						67.20521473884583	
1	52.34986901283264	pulse	1	t						68.80537676811218	
2	53.874573707580566	fix_pre	0		10	0.0	2.5	/experiments/knapen_AOT/AOT_stimuli/rescaled_final/1482_rv.mp4	0.0	70.33008146286011	0.10003542900085449
2	53.94990158081055	pulse	0	t		0.0	2.5	/experiments/knapen_AOT/AOT_stimuli/rescaled_final/1482_rv.mp4	0.0	70.40540933609009	
2	53.97460913658142	movie	1		287	0.0	2.5	/experiments/knapen_AOT/AOT_stimuli/rescaled_final/1482_rv.mp4	0.0	70.43011689186096	2.492043972015381
2	55.550055742263794	pulse	1	t		0.0	2.5	/experiments/knapen_AOT/AOT_stimuli/rescaled_final/1482_rv.mp4	0.0	72.00556349754333	
2	56.4666531085968	fix_post	2		12	0.0	2.5	/experiments/knapen_AOT/AOT_stimuli/rescaled_final/1482_rv.mp4	0.0	72.92216086387634	0.09993791580200195
3	56.566591024398804	fix_pre	0		120	1.0	2.5	/experiments/knapen_AOT/AOT_stimuli/rescaled_final/1451_fw.mp4	0.0	73.02209877967834	1.0084788799285889
3	57.15020561218262	pulse	0	t		1.0	2.5	/experiments/knapen_AOT/AOT_stimuli/rescaled_final/1451_fw.mp4	0.0	73.60571336746216	
3	57.57506990432739	movie	1		289	1.0	2.5	/experiments/knapen_AOT/AOT_stimuli/rescaled_final/1451_fw.mp4	0.0	74.03057765960693	2.4920411109924316
3	58.75080633163452	pulse	1	t		1.0	2.5	/experiments/knapen_AOT/AOT_stimuli/rescaled_final/1451_fw.mp4	0.0	75.20631408691406	
3	60.067111015319824	fix_post	2		12	1.0	2.5	/experiments/knapen_AOT/AOT_stimuli/rescaled_final/1451_fw.mp4	0.0	76.52261877059937	0.1000068187713623
4	60.16711783409119	fix_pre	0		120	2.0	2.5	/experiments/knapen_AOT/AOT_stimuli/rescaled_final/0459_fw.mp4	0.0	76.62262558937073	1.0084850788116455
4	60.35070872306824	pulse	0	t		2.0	2.5	/experiments/knapen_AOT/AOT_stimuli/rescaled_final/0459_fw.mp4	0.0	76.80621647834778	
4	61.17560291290283	movie	1		285	2.0	2.5	/experiments/knapen_AOT/AOT_stimuli/rescaled_final/0459_fw.mp4	0.0	77.63111066818237	2.4920337200164795
4	61.95093393325806	pulse	1	t		2.0	2.5	/experiments/knapen_AOT/AOT_stimuli/rescaled_final/0459_fw.mp4	0.0	78.4064416885376	
4	63.551143169403076	pulse	1	t		2.0	2.5	/experiments/knapen_AOT/AOT_stimuli/rescaled_final/0459_fw.mp4	0.0	80.00665092468262	
4	63.66763663291931	fix_post	2		12	2.0	2.5	/experiments/knapen_AOT/AOT_stimuli/rescaled_final/0459_fw.mp4	0.0	80.12314438819885	0.10002517700195312
5	63.767661809921265	fix_pre	0		120	3.0	2.5	/experiments/knapen_AOT/AOT_stimuli/rescaled_final/1542_fw.mp4	0.0	80.2231695652008	1.008533239364624
5	64.77619504928589	movie	1		284	3.0	2.5	/experiments/knapen_AOT/AOT_stimuli/rescaled_final/1542_fw.mp4	0.0	81.23170280456543	2.4919891357421875
5	65.15149307250977	pulse	1	t		3.0	2.5	/experiments/knapen_AOT/AOT_stimuli/rescaled_final/1542_fw.mp4	0.0	81.6070008277893	
5	66.75190758705139	pulse	1	t		3.0	2.5	/experiments/knapen_AOT/AOT_stimuli/rescaled_final/1542_fw.mp4	0.0	83.20741534233093	
5	67.26818418502808	fix_post	2		12	3.0	2.5	/experiments/knapen_AOT/AOT_stimuli/rescaled_final/1542_fw.mp4	0.0	83.72369194030762	0.10002589225769043
6	67.36821007728577	fix_pre	0		119	4.0	2.5	/experiments/knapen_AOT/AOT_stimuli/rescaled_final/1299_rv.mp4	0.0	83.82371783256531	1.000173568725586
6	68.35189080238342	pulse	0	t		4.0	2.5	/experiments/knapen_AOT/AOT_stimuli/rescaled_final/1299_rv.mp4	0.0	84.80739855766296	
6	68.36838364601135	movie	1		284	4.0	2.5	/experiments/knapen_AOT/AOT_stimuli/rescaled_final/1299_rv.mp4	0.0	84.8238914012909	2.5003774166107178
6	69.95037889480591	pulse	1	t		4.0	2.5	/experiments/knapen_AOT/AOT_stimuli/rescaled_final/1299_rv.mp4	0.0	86.40588665008545	
6	70.86876106262207	fix_post	2		12	4.0	2.5	/experiments/knapen_AOT/AOT_stimuli/rescaled_final/1299_rv.mp4	0.0	87.32426881790161	0.10000729560852051
7	70.96876835823059	fix_pre	0		120	5.0	2.5	blank	1.0	87.42427611351013	1.0001282691955566
7	71.55243563652039	pulse	0	t		5.0	2.5	blank	1.0	88.00794339179993	
7	71.96889662742615	movie	1		300	5.0	2.5	blank	1.0	88.42440438270569	2.5003724098205566
7	73.15260887145996	pulse	1	t		5.0	2.5	blank	1.0	89.6081166267395	
7	74.4692690372467	fix_post	2		12	5.0	2.5	blank	1.0	90.92477679252625	0.10001730918884277
8	74.56928634643555	fix_pre	0		120	6.0	2.5	/experiments/knapen_AOT/AOT_stimuli/rescaled_final/1047_fw.mp4	0.0	91.02479410171509	1.0084941387176514
8	74.75286817550659	pulse	0	t		6.0	2.5	/experiments/knapen_AOT/AOT_stimuli/rescaled_final/1047_fw.mp4	0.0	91.20837593078613	
8	75.5777804851532	movie	1		275	6.0	2.5	/experiments/knapen_AOT/AOT_stimuli/rescaled_final/1047_fw.mp4	0.0	92.03328824043274	2.492083787918091
8	76.35245656967163	pulse	1	t		6.0	2.5	/experiments/knapen_AOT/AOT_stimuli/rescaled_final/1047_fw.mp4	0.0	92.80796432495117	
8	77.95350956916809	pulse	1	t		6.0	2.5	/experiments/knapen_AOT/AOT_stimuli/rescaled_final/1047_fw.mp4	0.0	94.40901732444763	
8	78.06986427307129	fix_post	2		12	6.0	2.5	/experiments/knapen_AOT/AOT_stimuli/rescaled_final/1047_fw.mp4	0.0	94.52537202835083	0.09997677803039551
9	78.16984105110168	fix_pre	0		120	7.0	2.5	/experiments/knapen_AOT/AOT_stimuli/rescaled_final/1209_fw.mp4	0.0	94.62534880638123	1.0084850788116455
9	79.17832612991333	movie	1		273	7.0	2.5	/experiments/knapen_AOT/AOT_stimuli/rescaled_final/1209_fw.mp4	0.0	95.63383388519287	2.4920692443847656
9	79.55166459083557	pulse	1	t		7.0	2.5	/experiments/knapen_AOT/AOT_stimuli/rescaled_final/1209_fw.mp4	0.0	96.00717234611511	
9	81.15295052528381	pulse	1	t		7.0	2.5	/experiments/knapen_AOT/AOT_stimuli/rescaled_final/1209_fw.mp4	0.0	97.60845828056335	
9	81.6703953742981	fix_post	2		12	7.0	2.5	/experiments/knapen_AOT/AOT_stimuli/rescaled_final/1209_fw.mp4	0.0	98.12590312957764	0.09996819496154785
10	81.77036356925964	fix_pre	0		119	8.0	2.5	/experiments/knapen_AOT/AOT_stimuli/rescaled_final/1508_fw.mp4	0.0	98.22587132453918	1.0001575946807861
10	82.75403881072998	pulse	0	t		8.0	2.5	/experiments/knapen_AOT/AOT_stimuli/rescaled_final/1508_fw.mp4	0.0	99.20954656600952	
10	82.77052116394043	movie	1		285	8.0	2.5	/experiments/knapen_AOT/AOT_stimuli/rescaled_final/1508_fw.mp4	0.0	99.22602891921997	2.500413656234741
10	84.35251116752625	pulse	1	t		8.0	2.5	/experiments/knapen_AOT/AOT_stimuli/rescaled_final/1508_fw.mp4	0.0	100.80801892280579	
10	85.27093482017517	fix_post	2		12	8.0	2.5	/experiments/knapen_AOT/AOT_stimuli/rescaled_final/1508_fw.mp4	0.0	101.72644257545471	0.10000324249267578
11	85.37093806266785	fix_pre	0		120	9.0	2.5	/experiments/knapen_AOT/AOT_stimuli/rescaled_final/1840_rv.mp4	0.0	101.82644581794739	1.0084526538848877
11	85.95453810691833	pulse	0	t		9.0	2.5	/experiments/knapen_AOT/AOT_stimuli/rescaled_final/1840_rv.mp4	0.0	102.41004586219788	
11	86.37939071655273	movie	1		278	9.0	2.5	/experiments/knapen_AOT/AOT_stimuli/rescaled_final/1840_rv.mp4	0.0	102.83489847183228	2.4920449256896973
11	87.55442810058594	pulse	1	t		9.0	2.5	/experiments/knapen_AOT/AOT_stimuli/rescaled_final/1840_rv.mp4	0.0	104.00993585586548	
11	88.87143564224243	fix_post	2		12	9.0	2.5	/experiments/knapen_AOT/AOT_stimuli/rescaled_final/1840_rv.mp4	0.0	105.32694339752197	0.10001659393310547
12	88.97145223617554	fix_pre	0		120	10.0	2.5	/experiments/knapen_AOT/AOT_stimuli/rescaled_final/0563_rv.mp4	0.0	105.42695999145508	1.0084996223449707
12	89.15508151054382	pulse	0	t		10.0	2.5	/experiments/knapen_AOT/AOT_stimuli/rescaled_final/0563_rv.mp4	0.0	105.61058926582336	
12	89.97995185852051	movie	1		283	10.0	2.5	/experiments/knapen_AOT/AOT_stimuli/rescaled_final/0563_rv.mp4	0.0	106.43545961380005	2.492074966430664
12	90.75328779220581	pulse	1	t		10.0	2.5	/experiments/knapen_AOT/AOT_stimuli/rescaled_final/0563_rv.mp4	0.0	107.20879554748535	
12	92.35392618179321	pulse	1	t		10.0	2.5	/experiments/knapen_AOT/AOT_stimuli/rescaled_final/0563_rv.mp4	0.0	108.80943393707275	
12	92.47202682495117	fix_post	2		12	10.0	2.5	/experiments/knapen_AOT/AOT_stimuli/rescaled_final/0563_rv.mp4	0.0	108.92753458023071	0.09997940063476562
13	92.57200622558594	fix_pre	0		120	11.0	2.5	/experiments/knapen_AOT/AOT_stimuli/rescaled_final/1948_rv.mp4	0.0	109.02751398086548	1.0085697174072266
13	93.58057594299316	movie	1		285	11.0	2.5	/experiments/knapen_AOT/AOT_stimuli/rescaled_final/1948_rv.mp4	0.0	110.0360836982727	2.4919447898864746
13	93.95391392707825	pulse	1	t		11.0	2.5	/experiments/knapen_AOT/AOT_stimuli/rescaled_final/1948_rv.mp4	0.0	110.40942168235779	
13	95.55402135848999	pulse	1	t		11.0	2.5	/experiments/knapen_AOT/AOT_stimuli/rescaled_final/1948_rv.mp4	0.0	112.00952911376953	
13	96.07252073287964	fix_post	2		12	11.0	2.5	/experiments/knapen_AOT/AOT_stimuli/rescaled_final/1948_rv.mp4	0.0	112.52802848815918	0.10001325607299805
14	96.17253398895264	fix_pre	0		119	12.0	2.5	/experiments/knapen_AOT/AOT_stimuli/rescaled_final/0646_fw.mp4	0.0	112.62804174423218	1.0002145767211914
14	97.15623927116394	pulse	0	t		12.0	2.5	/experiments/knapen_AOT/AOT_stimuli/rescaled_final/0646_fw.mp4	0.0	113.61174702644348	
14	97.17274856567383	movie	1		277	12.0	2.5	/experiments/knapen_AOT/AOT_stimuli/rescaled_final/0646_fw.mp4	0.0	113.62825632095337	2.500317335128784
14	98.75459265708923	pulse	1	t		12.0	2.5	/experiments/knapen_AOT/AOT_stimuli/rescaled_final/0646_fw.mp4	0.0	115.21010041236877	
14	99.67306590080261	fix_post	2		12	12.0	2.5	/experiments/knapen_AOT/AOT_stimuli/rescaled_final/0646_fw.mp4	0.0	116.12857365608215	0.10000157356262207
15	99.77306747436523	fix_pre	0		120	13.0	2.5	blank	1.0	116.22857522964478	1.000257968902588
15	100.3568217754364	pulse	0	t		13.0	2.5	blank	1.0	116.81232953071594	
15	100.77332544326782	movie	1		300	13.0	2.5	blank	1.0	117.22883319854736	2.5002787113189697
15	101.95703673362732	pulse	1	t		13.0	2.5	blank	1.0	118.41254448890686	
15	103.27360415458679	fix_post	2		12	13.0	2.5	blank	1.0	119.72911190986633	0.10002732276916504
16	103.37363147735596	fix_pre	0		120	14.0	2.5	/experiments/knapen_AOT/AOT_stimuli/rescaled_final/0775_fw.mp4	0.0	119.8291392326355	1.008490800857544
16	103.55735421180725	pulse	0	t		14.0	2.5	/experiments/knapen_AOT/AOT_stimuli/rescaled_final/0775_fw.mp4	0.0	120.01286196708679	
16	104.3821222782135	movie	1		285	14.0	2.5	/experiments/knapen_AOT/AOT_stimuli/rescaled_final/0775_fw.mp4	0.0	120.83763003349304	2.492034435272217
16	105.15549826622009	pulse	1	t		14.0	2.5	/experiments/knapen_AOT/AOT_stimuli/rescaled_final/0775_fw.mp4	0.0	121.61100602149963	
16	106.75553917884827	pulse	1	t		14.0	2.5	/experiments/knapen_AOT/AOT_stimuli/rescaled_final/0775_fw.mp4	0.0	123.21104693412781	
16	106.87415671348572	fix_post	2		12	14.0	2.5	/experiments/knapen_AOT/AOT_stimuli/rescaled_final/0775_fw.mp4	0.0	123.32966446876526	0.10002350807189941
17	106.97418022155762	fix_pre	0		120	15.0	2.5	/experiments/knapen_AOT/AOT_stimuli/rescaled_final/1573_fw.mp4	0.0	123.42968797683716	1.008500337600708
17	107.98268055915833	movie	1		274	15.0	2.5	/experiments/knapen_AOT/AOT_stimuli/rescaled_final/1573_fw.mp4	0.0	124.43818831443787	2.491989850997925
17	108.35816025733948	pulse	1	t		15.0	2.5	/experiments/knapen_AOT/AOT_stimuli/rescaled_final/1573_fw.mp4	0.0	124.81366801261902	
17	109.95816946029663	pulse	1	t		15.0	2.5	/experiments/knapen_AOT/AOT_stimuli/rescaled_final/1573_fw.mp4	0.0	126.41367721557617	
17	110.47467041015625	fix_post	2		12	15.0	2.5	/experiments/knapen_AOT/AOT_stimuli/rescaled_final/1573_fw.mp4	0.0	126.93017816543579	0.10004281997680664
18	110.57471323013306	fix_pre	0		118	16.0	2.5	/experiments/knapen_AOT/AOT_stimuli/rescaled_final/0640_fw.mp4	0.0	127.0302209854126	0.9918215274810791
18	111.55069422721863	pulse	0	t		16.0	2.5	/experiments/knapen_AOT/AOT_stimuli/rescaled_final/0640_fw.mp4	0.0	128.00620198249817	
18	111.56653475761414	movie	1		278	16.0	2.5	/experiments/knapen_AOT/AOT_stimuli/rescaled_final/0640_fw.mp4	0.0	128.02204251289368	2.500368118286133
18	113.15040969848633	pulse	1	t		16.0	2.5	/experiments/knapen_AOT/AOT_stimuli/rescaled_final/0640_fw.mp4	0.0	129.60591745376587	
18	114.06690287590027	fix_post	2		12	16.0	2.5	/experiments/knapen_AOT/AOT_stimuli/rescaled_final/0640_fw.mp4	0.0	130.5224106311798	0.10001420974731445
19	114.16691708564758	fix_pre	0		120	17.0	2.5	/experiments/knapen_AOT/AOT_stimuli/rescaled_final/0415_fw.mp4	0.0	130.62242484092712	1.0085225105285645
19	114.75072765350342	pulse	0	t		17.0	2.5	/experiments/knapen_AOT/AOT_stimuli/rescaled_final/0415_fw.mp4	0.0	131.20623540878296	
19	115.17543959617615	movie	1		285	17.0	2.5	/experiments/knapen_AOT/AOT_stimuli/rescaled_final/0415_fw.mp4	0.0	131.6309473514557	2.491986036300659
19	116.35088658332825	pulse	1	t		17.0	2.5	/experiments/knapen_AOT/AOT_stimuli/rescaled_final/0415_fw.mp4	0.0	132.8063943386078	
19	117.6674256324768	fix_post	2		12	17.0	2.5	/experiments/knapen_AOT/AOT_stimuli/rescaled_final/0415_fw.mp4	0.0	134.12293338775635	0.10004663467407227
20	117.76747226715088	fix_pre	0		120	18.0	2.5	/experiments/knapen_AOT/AOT_stimuli/rescaled_final/0645_rv.mp4	0.0	134.22298002243042	1.0084879398345947
20	117.95109963417053	pulse	0	t		18.0	2.5	/experiments/knapen_AOT/AOT_stimuli/rescaled_final/0645_rv.mp4	0.0	134.40660738945007	
20	118.77596020698547	movie	1		271	18.0	2.5	/experiments/knapen_AOT/AOT_stimuli/rescaled_final/0645_rv.mp4	0.0	135.23146796226501	2.4920618534088135
20	119.55157852172852	pulse	1	t		18.0	2.5	/experiments/knapen_AOT/AOT_stimuli/rescaled_final/0645_rv.mp4	0.0	136.00708627700806	
20	121.15153193473816	pulse	1	t		18.0	2.5	/experiments/knapen_AOT/AOT_stimuli/rescaled_final/0645_rv.mp4	0.0	137.6070396900177	
20	121.26802206039429	fix_post	2		12	18.0	2.5	/experiments/knapen_AOT/AOT_stimuli/rescaled_final/0645_rv.mp4	0.0	137.72352981567383	0.0999765396118164
21	121.3679986000061	fix_pre	0		120	19.0	2.5	/experiments/knapen_AOT/AOT_stimuli/rescaled_final/1523_fw.mp4	0.0	137.82350635528564	1.0084843635559082
21	122.37648296356201	movie	1		283	19.0	2.5	/experiments/knapen_AOT/AOT_stimuli/rescaled_final/1523_fw.mp4	0.0	138.83199071884155	2.492067813873291
21	122.75033235549927	pulse	1	t		19.0	2.5	/experiments/knapen_AOT/AOT_stimuli/rescaled_final/1523_fw.mp4	0.0	139.2058401107788	
21	124.35200452804565	pulse	1	t		19.0	2.5	/experiments/knapen_AOT/AOT_stimuli/rescaled_final/1523_fw.mp4	0.0	140.8075122833252	
21	124.8685507774353	fix_post	2		12	19.0	2.5	/experiments/knapen_AOT/AOT_stimuli/rescaled_final/1523_fw.mp4	0.0	141.32405853271484	0.09998106956481934
22	124.96853184700012	fix_pre	0		119	20.0	2.5	/experiments/knapen_AOT/AOT_stimuli/rescaled_final/1689_rv.mp4	0.0	141.42403960227966	1.000204086303711
22	125.9523298740387	pulse	0	t		20.0	2.5	/experiments/knapen_AOT/AOT_stimuli/rescaled_final/1689_rv.mp4	0.0	142.40783762931824	
22	125.96873593330383	movie	1		279	20.0	2.5	/experiments/knapen_AOT/AOT_stimuli/rescaled_final/1689_rv.mp4	0.0	142.42424368858337	2.50032377243042
22	127.55132293701172	pulse	1	t		20.0	2.5	/experiments/knapen_AOT/AOT_stimuli/rescaled_final/1689_rv.mp4	0.0	144.00683069229126	
22	128.46905970573425	fix_post	2		12	20.0	2.5	/experiments/knapen_AOT/AOT_stimuli/rescaled_final/1689_rv.mp4	0.0	144.9245674610138	0.10002589225769043
23	128.56908559799194	fix_pre	0		120	21.0	2.5	blank	1.0	145.02459335327148	1.000133752822876
23	129.15273594856262	pulse	0	t		21.0	2.5	blank	1.0	145.60824370384216	
23	129.56921935081482	movie	1		300	21.0	2.5	blank	1.0	146.02472710609436	2.5004897117614746
23	130.75294518470764	pulse	1	t		21.0	2.5	blank	1.0	147.20845293998718	
23	132.0697090625763	fix_post	2		12	21.0	2.5	blank	1.0	148.52521681785583	0.09990143775939941
24	132.1696105003357	fix_pre	0		120	22.0	2.5	/experiments/knapen_AOT/AOT_stimuli/rescaled_final/0054_fw.mp4	0.0	148.62511825561523	1.0084617137908936
24	132.35323929786682	pulse	0	t		22.0	2.5	/experiments/knapen_AOT/AOT_stimuli/rescaled_final/0054_fw.mp4	0.0	148.80874705314636	
24	133.1780722141266	movie	1		279	22.0	2.5	/experiments/knapen_AOT/AOT_stimuli/rescaled_final/0054_fw.mp4	0.0	149.63357996940613	2.492055654525757
24	133.9526607990265	pulse	1	t		22.0	2.5	/experiments/knapen_AOT/AOT_stimuli/rescaled_final/0054_fw.mp4	0.0	150.40816855430603	
24	135.55166697502136	pulse	1	t		22.0	2.5	/experiments/knapen_AOT/AOT_stimuli/rescaled_final/0054_fw.mp4	0.0	152.0071747303009	
24	135.67012786865234	fix_post	2		12	22.0	2.5	/experiments/knapen_AOT/AOT_stimuli/rescaled_final/0054_fw.mp4	0.0	152.12563562393188	0.10003304481506348
25	135.7701609134674	fix_pre	0		120	23.0	2.5	/experiments/knapen_AOT/AOT_stimuli/rescaled_final/0768_rv.mp4	0.0	152.22566866874695	1.0085015296936035
25	136.778662443161	movie	1		290	23.0	2.5	/experiments/knapen_AOT/AOT_stimuli/rescaled_final/0768_rv.mp4	0.0	153.23417019844055	2.492020606994629
25	137.15205597877502	pulse	1	t		23.0	2.5	/experiments/knapen_AOT/AOT_stimuli/rescaled_final/0768_rv.mp4	0.0	153.60756373405457	
25	138.75224232673645	pulse	1	t		23.0	2.5	/experiments/knapen_AOT/AOT_stimuli/rescaled_final/0768_rv.mp4	0.0	155.207750082016	
25	139.27068305015564	fix_post	2		12	23.0	2.5	/experiments/knapen_AOT/AOT_stimuli/rescaled_final/0768_rv.mp4	0.0	155.72619080543518	0.1000356674194336
26	139.37071871757507	fix_pre	0		119	24.0	2.5	/experiments/knapen_AOT/AOT_stimuli/rescaled_final/1013_fw.mp4	0.0	155.82622647285461	1.0085618495941162
26	140.3545379638672	pulse	0	t		24.0	2.5	/experiments/knapen_AOT/AOT_stimuli/rescaled_final/1013_fw.mp4	0.0	156.81004571914673	
26	140.3792805671692	movie	1		285	24.0	2.5	/experiments/knapen_AOT/AOT_stimuli/rescaled_final/1013_fw.mp4	0.0	156.83478832244873	2.491948127746582
26	141.95386028289795	pulse	1	t		24.0	2.5	/experiments/knapen_AOT/AOT_stimuli/rescaled_final/1013_fw.mp4	0.0	158.4093680381775	
26	142.87122869491577	fix_post	2		12	24.0	2.5	/experiments/knapen_AOT/AOT_stimuli/rescaled_final/1013_fw.mp4	0.0	159.3267364501953	0.10003185272216797
27	142.97126054763794	fix_pre	0		120	25.0	2.5	/experiments/knapen_AOT/AOT_stimuli/rescaled_final/1094_fw.mp4	0.0	159.42676830291748	1.0085008144378662
27	143.55488085746765	pulse	0	t		25.0	2.5	/experiments/knapen_AOT/AOT_stimuli/rescaled_final/1094_fw.mp4	0.0	160.0103886127472	
27	143.9797613620758	movie	1		278	25.0	2.5	/experiments/knapen_AOT/AOT_stimuli/rescaled_final/1094_fw.mp4	0.0	160.43526911735535	2.4920074939727783
27	145.15415716171265	pulse	1	t		25.0	2.5	/experiments/knapen_AOT/AOT_stimuli/rescaled_final/1094_fw.mp4	0.0	161.6096649169922	
27	146.47176885604858	fix_post	2		12	25.0	2.5	/experiments/knapen_AOT/AOT_stimuli/rescaled_final/1094_fw.mp4	0.0	162.92727661132812	0.10002851486206055
28	146.57179737091064	fix_pre	0		120	26.0	2.5	/experiments/knapen_AOT/AOT_stimuli/rescaled_final/1883_fw.mp4	0.0	163.02730512619019	1.008479118347168
28	146.7553310394287	pulse	0	t		26.0	2.5	/experiments/knapen_AOT/AOT_stimuli/rescaled_final/1883_fw.mp4	0.0	163.21083879470825	
28	147.5802764892578	movie	1		274	26.0	2.5	/experiments/knapen_AOT/AOT_stimuli/rescaled_final/1883_fw.mp4	0.0	164.03578424453735	2.4920473098754883
28	148.3533399105072	pulse	1	t		26.0	2.5	/experiments/knapen_AOT/AOT_stimuli/rescaled_final/1883_fw.mp4	0.0	164.80884766578674	
28	149.95378351211548	pulse	1	t		26.0	2.5	/experiments/knapen_AOT/AOT_stimuli/rescaled_final/1883_fw.mp4	0.0	166.40929126739502	
28	150.0723237991333	fix_post	2		12	26.0	2.5	/experiments/knapen_AOT/AOT_stimuli/rescaled_final/1883_fw.mp4	0.0	166.52783155441284	0.1000669002532959
29	150.1723906993866	fix_pre	0		120	27.0	2.5	/experiments/knapen_AOT/AOT_stimuli/rescaled_final/0744_rv.mp4	0.0	166.62789845466614	1.0085556507110596
29	151.18094635009766	movie	1		279	27.0	2.5	/experiments/knapen_AOT/AOT_stimuli/rescaled_final/0744_rv.mp4	0.0	167.6364541053772	2.491922378540039
29	151.55461525917053	pulse	1	t		27.0	2.5	/experiments/knapen_AOT/AOT_stimuli/rescaled_final/0744_rv.mp4	0.0	168.01012301445007	
29	153.15455842018127	pulse	1	t		27.0	2.5	/experiments/knapen_AOT/AOT_stimuli/rescaled_final/0744_rv.mp4	0.0	169.61006617546082	
29	153.6728687286377	fix_post	2		12	27.0	2.5	/experiments/knapen_AOT/AOT_stimuli/rescaled_final/0744_rv.mp4	0.0	170.12837648391724	0.09999299049377441
30	153.77286171913147	fix_pre	0		119	28.0	2.5	blank	1.0	170.228369474411	0.9918005466461182
30	154.75653839111328	pulse	0	t		28.0	2.5	blank	1.0	171.21204614639282	
30	154.7646622657776	movie	1		301	28.0	2.5	blank	1.0	171.22017002105713	2.5087318420410156
30	156.35681867599487	pulse	1	t		28.0	2.5	blank	1.0	172.8123264312744	
30	157.2733941078186	fix_post	2		12	28.0	2.5	blank	1.0	173.72890186309814	0.10001468658447266
31	157.37340879440308	fix_pre	0		120	29.0	2.5	/experiments/knapen_AOT/AOT_stimuli/rescaled_final/0875_fw.mp4	0.0	173.82891654968262	1.0084900856018066
31	157.95705485343933	pulse	0	t		29.0	2.5	/experiments/knapen_AOT/AOT_stimuli/rescaled_final/0875_fw.mp4	0.0	174.41256260871887	
31	158.38189888000488	movie	1		271	29.0	2.5	/experiments/knapen_AOT/AOT_stimuli/rescaled_final/0875_fw.mp4	0.0	174.83740663528442	2.4920566082000732
31	159.55568027496338	pulse	1	t		29.0	2.5	/experiments/knapen_AOT/AOT_stimuli/rescaled_final/0875_fw.mp4	0.0	176.01118803024292	
31	160.87395548820496	fix_post	2		12	29.0	2.5	/experiments/knapen_AOT/AOT_stimuli/rescaled_final/0875_fw.mp4	0.0	177.3294632434845	0.10001420974731445
32	160.97396969795227	fix_pre	0		120	30.0	2.5	/experiments/knapen_AOT/AOT_stimuli/rescaled_final/2075_rv.mp4	0.0	177.4294774532318	1.00852632522583
32	161.15789127349854	pulse	0	t		30.0	2.5	/experiments/knapen_AOT/AOT_stimuli/rescaled_final/2075_rv.mp4	0.0	177.61339902877808	
32	161.9824960231781	movie	1		286	30.0	2.5	/experiments/knapen_AOT/AOT_stimuli/rescaled_final/2075_rv.mp4	0.0	178.43800377845764	2.4920148849487305
32	162.75665974617004	pulse	1	t		30.0	2.5	/experiments/knapen_AOT/AOT_stimuli/rescaled_final/2075_rv.mp4	0.0	179.21216750144958	
32	164.35579562187195	pulse	1	t		30.0	2.5	/experiments/knapen_AOT/AOT_stimuli/rescaled_final/2075_rv.mp4	0.0	180.8113033771515	
32	164.47451090812683	fix_post	2		12	30.0	2.5	/experiments/knapen_AOT/AOT_stimuli/rescaled_final/2075_rv.mp4	0.0	180.93001866340637	0.10004138946533203
33	164.57455229759216	fix_pre	0		120	31.0	2.5	/experiments/knapen_AOT/AOT_stimuli/rescaled_final/2059_rv.mp4	0.0	181.0300600528717	1.0084428787231445
33	165.5829951763153	movie	1		292	31.0	2.5	/experiments/knapen_AOT/AOT_stimuli/rescaled_final/2059_rv.mp4	0.0	182.03850293159485	2.4920144081115723
33	165.95665526390076	pulse	1	t		31.0	2.5	/experiments/knapen_AOT/AOT_stimuli/rescaled_final/2059_rv.mp4	0.0	182.4121630191803	
33	167.55642771720886	pulse	1	t		31.0	2.5	/experiments/knapen_AOT/AOT_stimuli/rescaled_final/2059_rv.mp4	0.0	184.0119354724884	
33	168.07500958442688	fix_post	2		12	31.0	2.5	/experiments/knapen_AOT/AOT_stimuli/rescaled_final/2059_rv.mp4	0.0	184.53051733970642	0.10002517700195312
34	168.17503476142883	fix_pre	0		118	32.0	2.5	/experiments/knapen_AOT/AOT_stimuli/rescaled_final/1076_fw.mp4	0.0	184.63054251670837	0.9918262958526611
34	169.15074968338013	pulse	0	t		32.0	2.5	/experiments/knapen_AOT/AOT_stimuli/rescaled_final/1076_fw.mp4	0.0	185.60625743865967	
34	169.1668610572815	movie	1		269	32.0	2.5	/experiments/knapen_AOT/AOT_stimuli/rescaled_final/1076_fw.mp4	0.0	185.62236881256104	2.5003888607025146
34	170.75053477287292	pulse	1	t		32.0	2.5	/experiments/knapen_AOT/AOT_stimuli/rescaled_final/1076_fw.mp4	0.0	187.20604252815247	
34	171.667249917984	fix_post	2		12	32.0	2.5	/experiments/knapen_AOT/AOT_stimuli/rescaled_final/1076_fw.mp4	0.0	188.12275767326355	0.0999903678894043
35	171.7672402858734	fix_pre	0		120	33.0	2.5	/experiments/knapen_AOT/AOT_stimuli/rescaled_final/1406_fw.mp4	0.0	188.22274804115295	1.0085160732269287
35	172.35095262527466	pulse	0	t		33.0	2.5	/experiments/knapen_AOT/AOT_stimuli/rescaled_final/1406_fw.mp4	0.0	188.8064603805542	
35	172.77575635910034	movie	1		277	33.0	2.5	/experiments/knapen_AOT/AOT_stimuli/rescaled_final/1406_fw.mp4	0.0	189.23126411437988	2.492013931274414
35	173.95110869407654	pulse	1	t		33.0	2.5	/experiments/knapen_AOT/AOT_stimuli/rescaled_final/1406_fw.mp4	0.0	190.40661644935608	
35	175.26777029037476	fix_post	2		12	33.0	2.5	/experiments/knapen_AOT/AOT_stimuli/rescaled_final/1406_fw.mp4	0.0	191.7232780456543	0.10011982917785645
36	175.3678901195526	fix_pre	0		120	34.0	2.5	blank	1.0	191.82339787483215	1.000035047531128
36	175.55136561393738	pulse	0	t		34.0	2.5	blank	1.0	192.00687336921692	
36	176.36792516708374	movie	1		300	34.0	2.5	blank	1.0	192.82343292236328	2.500369071960449
36	177.1516568660736	pulse	1	t		34.0	2.5	blank	1.0	193.60716462135315	
36	178.75179982185364	pulse	1	t		34.0	2.5	blank	1.0	195.20730757713318	
36	178.8682942390442	fix_post	2		12	34.0	2.5	blank	1.0	195.32380199432373	0.10011410713195801
37	178.96840834617615	fix_pre	0		120	35.0	2.5	/experiments/knapen_AOT/AOT_stimuli/rescaled_final/0127_fw.mp4	0.0	195.4239161014557	1.0084223747253418
37	179.9768307209015	movie	1		275	35.0	2.5	/experiments/knapen_AOT/AOT_stimuli/rescaled_final/0127_fw.mp4	0.0	196.43233847618103	2.492011070251465
37	180.35034728050232	pulse	1	t		35.0	2.5	/experiments/knapen_AOT/AOT_stimuli/rescaled_final/0127_fw.mp4	0.0	196.80585503578186	
37	181.95078563690186	pulse	1	t		35.0	2.5	/experiments/knapen_AOT/AOT_stimuli/rescaled_final/0127_fw.mp4	0.0	198.4062933921814	
37	182.46884179115295	fix_post	2		12	35.0	2.5	/experiments/knapen_AOT/AOT_stimuli/rescaled_final/0127_fw.mp4	0.0	198.9243495464325	0.10007476806640625
38	182.56891655921936	fix_pre	0		119	36.0	2.5	/experiments/knapen_AOT/AOT_stimuli/rescaled_final/1838_rv.mp4	0.0	199.0244243144989	1.0001106262207031
38	183.55257940292358	pulse	0	t		36.0	2.5	/experiments/knapen_AOT/AOT_stimuli/rescaled_final/1838_rv.mp4	0.0	200.00808715820312	
38	183.56902718544006	movie	1		281	36.0	2.5	/experiments/knapen_AOT/AOT_stimuli/rescaled_final/1838_rv.mp4	0.0	200.0245349407196	2.5003530979156494
38	185.15121459960938	pulse	1	t		36.0	2.5	/experiments/knapen_AOT/AOT_stimuli/rescaled_final/1838_rv.mp4	0.0	201.60672235488892	
38	186.0693802833557	fix_post	2		12	36.0	2.5	/experiments/knapen_AOT/AOT_stimuli/rescaled_final/1838_rv.mp4	0.0	202.52488803863525	0.10001683235168457
39	186.1693971157074	fix_pre	0		120	37.0	2.5	/experiments/knapen_AOT/AOT_stimuli/rescaled_final/0646_fw.mp4	0.0	202.62490487098694	1.0084662437438965
39	186.75301313400269	pulse	0	t		37.0	2.5	/experiments/knapen_AOT/AOT_stimuli/rescaled_final/0646_fw.mp4	0.0	203.20852088928223	
39	187.1778633594513	movie	1		275	37.0	2.5	/experiments/knapen_AOT/AOT_stimuli/rescaled_final/0646_fw.mp4	0.0	203.63337111473083	2.4920616149902344
39	188.35346746444702	pulse	1	t		37.0	2.5	/experiments/knapen_AOT/AOT_stimuli/rescaled_final/0646_fw.mp4	0.0	204.80897521972656	
39	189.66992497444153	fix_post	2		12	37.0	2.5	/experiments/knapen_AOT/AOT_stimuli/rescaled_final/0646_fw.mp4	0.0	206.12543272972107	0.10000824928283691
40	189.76993322372437	fix_pre	0		120	38.0	2.5	/experiments/knapen_AOT/AOT_stimuli/rescaled_final/0190_fw.mp4	0.0	206.2254409790039	1.0085728168487549
40	189.95349264144897	pulse	0	t		38.0	2.5	/experiments/knapen_AOT/AOT_stimuli/rescaled_final/0190_fw.mp4	0.0	206.40900039672852	
40	190.77850604057312	movie	1		271	38.0	2.5	/experiments/knapen_AOT/AOT_stimuli/rescaled_final/0190_fw.mp4	0.0	207.23401379585266	2.49196195602417
40	191.55223727226257	pulse	1	t		38.0	2.5	/experiments/knapen_AOT/AOT_stimuli/rescaled_final/0190_fw.mp4	0.0	208.00774502754211	
40	193.1535611152649	pulse	1	t		38.0	2.5	/experiments/knapen_AOT/AOT_stimuli/rescaled_final/0190_fw.mp4	0.0	209.60906887054443	
40	193.2704679965973	fix_post	2		12	38.0	2.5	/experiments/knapen_AOT/AOT_stimuli/rescaled_final/0190_fw.mp4	0.0	209.72597575187683	0.10000944137573242
41	193.37047743797302	fix_pre	0		120	39.0	2.5	/experiments/knapen_AOT/AOT_stimuli/rescaled_final/1351_fw.mp4	0.0	209.82598519325256	1.008502721786499
41	194.37898015975952	movie	1		282	39.0	2.5	/experiments/knapen_AOT/AOT_stimuli/rescaled_final/1351_fw.mp4	0.0	210.83448791503906	2.492013931274414
41	194.7523856163025	pulse	1	t		39.0	2.5	/experiments/knapen_AOT/AOT_stimuli/rescaled_final/1351_fw.mp4	0.0	211.20789337158203	
41	196.35219192504883	pulse	1	t		39.0	2.5	/experiments/knapen_AOT/AOT_stimuli/rescaled_final/1351_fw.mp4	0.0	212.80769968032837	
41	196.87099409103394	fix_post	2		12	39.0	2.5	/experiments/knapen_AOT/AOT_stimuli/rescaled_final/1351_fw.mp4	0.0	213.32650184631348	0.10004067420959473
42	196.97103476524353	fix_pre	0		119	40.0	2.5	blank	1.0	213.42654252052307	0.9917585849761963
42	197.95464301109314	pulse	0	t		40.0	2.5	blank	1.0	214.41015076637268	
42	197.96279335021973	movie	1		301	40.0	2.5	blank	1.0	214.41830110549927	2.508749008178711
42	199.55509567260742	pulse	1	t		40.0	2.5	blank	1.0	216.01060342788696	
42	200.47154235839844	fix_post	2		12	40.0	2.5	blank	1.0	216.92705011367798	0.10001206398010254
43	200.57155442237854	fix_pre	0		120	41.0	2.5	/experiments/knapen_AOT/AOT_stimuli/rescaled_final/0789_fw.mp4	0.0	217.02706217765808	1.0084972381591797
43	201.15520906448364	pulse	0	t		41.0	2.5	/experiments/knapen_AOT/AOT_stimuli/rescaled_final/0789_fw.mp4	0.0	217.61071681976318	
43	201.58005166053772	movie	1		271	41.0	2.5	/experiments/knapen_AOT/AOT_stimuli/rescaled_final/0789_fw.mp4	0.0	218.03555941581726	2.492095708847046
43	202.75452637672424	pulse	1	t		41.0	2.5	/experiments/knapen_AOT/AOT_stimuli/rescaled_final/0789_fw.mp4	0.0	219.21003413200378	
43	204.07214736938477	fix_post	2		12	41.0	2.5	/experiments/knapen_AOT/AOT_stimuli/rescaled_final/0789_fw.mp4	0.0	220.5276551246643	0.10008382797241211
44	204.17223119735718	fix_pre	0		120	42.0	2.5	/experiments/knapen_AOT/AOT_stimuli/rescaled_final/0127_rv.mp4	0.0	220.62773895263672	1.0083649158477783
44	204.35603666305542	pulse	0	t		42.0	2.5	/experiments/knapen_AOT/AOT_stimuli/rescaled_final/0127_rv.mp4	0.0	220.81154441833496	
44	205.18059611320496	movie	1		274	42.0	2.5	/experiments/knapen_AOT/AOT_stimuli/rescaled_final/0127_rv.mp4	0.0	221.6361038684845	2.4920530319213867
44	205.95632028579712	pulse	1	t		42.0	2.5	/experiments/knapen_AOT/AOT_stimuli/rescaled_final/0127_rv.mp4	0.0	222.41182804107666	
44	207.5545630455017	pulse	1	t		42.0	2.5	/experiments/knapen_AOT/AOT_stimuli/rescaled_final/0127_rv.mp4	0.0	224.01007080078125	
44	207.67264914512634	fix_post	2		12	42.0	2.5	/experiments/knapen_AOT/AOT_stimuli/rescaled_final/0127_rv.mp4	0.0	224.12815690040588	0.09999775886535645
45	207.7726469039917	fix_pre	0		120	43.0	2.5	/experiments/knapen_AOT/AOT_stimuli/rescaled_final/0324_fw.mp4	0.0	224.22815465927124	1.0085303783416748
45	208.78117728233337	movie	1		290	43.0	2.5	/experiments/knapen_AOT/AOT_stimuli/rescaled_final/0324_fw.mp4	0.0	225.23668503761292	2.4919917583465576
45	209.15507650375366	pulse	1	t		43.0	2.5	/experiments/knapen_AOT/AOT_stimuli/rescaled_final/0324_fw.mp4	0.0	225.6105842590332	
45	210.75473189353943	pulse	1	t		43.0	2.5	/experiments/knapen_AOT/AOT_stimuli/rescaled_final/0324_fw.mp4	0.0	227.21023964881897	
45	211.27316904067993	fix_post	2		12	43.0	2.5	/experiments/knapen_AOT/AOT_stimuli/rescaled_final/0324_fw.mp4	0.0	227.72867679595947	0.1000218391418457
46	211.37319087982178	fix_pre	0		119	44.0	2.5	/experiments/knapen_AOT/AOT_stimuli/rescaled_final/0753_rv.mp4	0.0	227.82869863510132	1.0001606941223145
46	212.35687637329102	pulse	0	t		44.0	2.5	/experiments/knapen_AOT/AOT_stimuli/rescaled_final/0753_rv.mp4	0.0	228.81238412857056	
46	212.3733515739441	movie	1		287	44.0	2.5	/experiments/knapen_AOT/AOT_stimuli/rescaled_final/0753_rv.mp4	0.0	228.82885932922363	2.5003721714019775
46	213.95610189437866	pulse	1	t		44.0	2.5	/experiments/knapen_AOT/AOT_stimuli/rescaled_final/0753_rv.mp4	0.0	230.4116096496582	
46	214.87372374534607	fix_post	2		12	44.0	2.5	/experiments/knapen_AOT/AOT_stimuli/rescaled_final/0753_rv.mp4	0.0	231.3292315006256	0.1000521183013916
47	214.97377586364746	fix_pre	0		120	45.0	2.5	/experiments/knapen_AOT/AOT_stimuli/rescaled_final/1181_fw.mp4	0.0	231.429283618927	1.008500337600708
47	215.55736112594604	pulse	0	t		45.0	2.5	/experiments/knapen_AOT/AOT_stimuli/rescaled_final/1181_fw.mp4	0.0	232.0128688812256	
47	215.98227620124817	movie	1		281	45.0	2.5	/experiments/knapen_AOT/AOT_stimuli/rescaled_final/1181_fw.mp4	0.0	232.4377839565277	2.4919915199279785
47	217.15593147277832	pulse	1	t		45.0	2.5	/experiments/knapen_AOT/AOT_stimuli/rescaled_final/1181_fw.mp4	0.0	233.61143922805786	
47	218.47426772117615	fix_post	2		12	45.0	2.5	/experiments/knapen_AOT/AOT_stimuli/rescaled_final/1181_fw.mp4	0.0	234.9297754764557	0.10000014305114746
48	218.5742678642273	fix_pre	0		104	46.0	2.5	/experiments/knapen_AOT/AOT_stimuli/rescaled_final/0542_rv.mp4	0.0	235.02977561950684	1.0085201263427734
48	218.7645788192749	pulse	0	t		46.0	2.5	/experiments/knapen_AOT/AOT_stimuli/rescaled_final/0542_rv.mp4	0.0	235.22008657455444	
48	219.58278799057007	movie	1		281	46.0	2.5	/experiments/knapen_AOT/AOT_stimuli/rescaled_final/0542_rv.mp4	0.0	236.0382957458496	2.4920220375061035
48	220.3504889011383	pulse	1	t		46.0	2.5	/experiments/knapen_AOT/AOT_stimuli/rescaled_final/0542_rv.mp4	0.0	236.80599665641785	
48	221.95019936561584	pulse	1	t		46.0	2.5	/experiments/knapen_AOT/AOT_stimuli/rescaled_final/0542_rv.mp4	0.0	238.40570712089539	
48	222.07481002807617	fix_post	2		12	46.0	2.5	/experiments/knapen_AOT/AOT_stimuli/rescaled_final/0542_rv.mp4	0.0	238.5303177833557	0.10002279281616211
49	222.17483282089233	fix_pre	0		120	47.0	2.5	blank	1.0	238.63034057617188	1.0002515316009521
49	223.1750843524933	movie	1		300	47.0	2.5	blank	1.0	239.63059210777283	2.500247001647949
49	223.55049753189087	pulse	1	t		47.0	2.5	blank	1.0	240.0060052871704	
49	225.1504728794098	pulse	1	t		47.0	2.5	blank	1.0	241.60598063468933	
49	225.67533135414124	fix_post	2		12	47.0	2.5	blank	1.0	242.13083910942078	0.10005426406860352
50	225.77538561820984	fix_pre	0		118	48.0	2.5	/experiments/knapen_AOT/AOT_stimuli/rescaled_final/0879_fw.mp4	0.0	242.23089337348938	0.9917991161346436
50	226.75073099136353	pulse	0	t		48.0	2.5	/experiments/knapen_AOT/AOT_stimuli/rescaled_final/0879_fw.mp4	0.0	243.20623874664307	
50	226.76718473434448	movie	1		275	48.0	2.5	/experiments/knapen_AOT/AOT_stimuli/rescaled_final/0879_fw.mp4	0.0	243.22269248962402	2.500377655029297
50	228.3512258529663	pulse	1	t		48.0	2.5	/experiments/knapen_AOT/AOT_stimuli/rescaled_final/0879_fw.mp4	0.0	244.80673360824585	
50	229.26756238937378	fix_post	2		12	48.0	2.5	/experiments/knapen_AOT/AOT_stimuli/rescaled_final/0879_fw.mp4	0.0	245.72307014465332	0.09999537467956543
51	229.36755776405334	fix_pre	0		120	49.0	2.5	/experiments/knapen_AOT/AOT_stimuli/rescaled_final/0682_fw.mp4	0.0	245.82306551933289	1.008561134338379
51	229.95126366615295	pulse	0	t		49.0	2.5	/experiments/knapen_AOT/AOT_stimuli/rescaled_final/0682_fw.mp4	0.0	246.4067714214325	
51	230.37611889839172	movie	1		286	49.0	2.5	/experiments/knapen_AOT/AOT_stimuli/rescaled_final/0682_fw.mp4	0.0	246.83162665367126	2.4919822216033936
51	231.55140900611877	pulse	1	t		49.0	2.5	/experiments/knapen_AOT/AOT_stimuli/rescaled_final/0682_fw.mp4	0.0	248.00691676139832	
51	232.86810111999512	fix_post	2		12	49.0	2.5	/experiments/knapen_AOT/AOT_stimuli/rescaled_final/0682_fw.mp4	0.0	249.32360887527466	0.10000038146972656
52	232.96810150146484	fix_pre	0		120	50.0	2.5	/experiments/knapen_AOT/AOT_stimuli/rescaled_final/0071_fw.mp4	0.0	249.42360925674438	1.0085279941558838
52	233.1516604423523	pulse	0	t		50.0	2.5	/experiments/knapen_AOT/AOT_stimuli/rescaled_final/0071_fw.mp4	0.0	249.60716819763184	
52	233.97662949562073	movie	1		286	50.0	2.5	/experiments/knapen_AOT/AOT_stimuli/rescaled_final/0071_fw.mp4	0.0	250.43213725090027	2.492018461227417
52	234.75218844413757	pulse	1	t		50.0	2.5	/experiments/knapen_AOT/AOT_stimuli/rescaled_final/0071_fw.mp4	0.0	251.20769619941711	
52	236.35216879844666	pulse	1	t		50.0	2.5	/experiments/knapen_AOT/AOT_stimuli/rescaled_final/0071_fw.mp4	0.0	252.8076765537262	
52	236.46864795684814	fix_post	2		12	50.0	2.5	/experiments/knapen_AOT/AOT_stimuli/rescaled_final/0071_fw.mp4	0.0	252.92415571212769	0.10005402565002441
53	236.56870198249817	fix_pre	0		120	51.0	2.5	/experiments/knapen_AOT/AOT_stimuli/rescaled_final/1808_rv.mp4	0.0	253.0242097377777	1.0084679126739502
53	237.57716989517212	movie	1		281	51.0	2.5	/experiments/knapen_AOT/AOT_stimuli/rescaled_final/1808_rv.mp4	0.0	254.03267765045166	2.4919893741607666
53	237.95099568367004	pulse	1	t		51.0	2.5	/experiments/knapen_AOT/AOT_stimuli/rescaled_final/1808_rv.mp4	0.0	254.40650343894958	
53	239.55026483535767	pulse	1	t		51.0	2.5	/experiments/knapen_AOT/AOT_stimuli/rescaled_final/1808_rv.mp4	0.0	256.0057725906372	
53	240.06915926933289	fix_post	2		12	51.0	2.5	/experiments/knapen_AOT/AOT_stimuli/rescaled_final/1808_rv.mp4	0.0	256.5246670246124	0.10009074211120605
54	240.1692500114441	fix_pre	0		119	52.0	2.5	/experiments/knapen_AOT/AOT_stimuli/rescaled_final/0114_rv.mp4	0.0	256.62475776672363	1.0000886917114258
54	241.15298128128052	pulse	0	t		52.0	2.5	/experiments/knapen_AOT/AOT_stimuli/rescaled_final/0114_rv.mp4	0.0	257.60848903656006	
54	241.16933870315552	movie	1		281	52.0	2.5	/experiments/knapen_AOT/AOT_stimuli/rescaled_final/0114_rv.mp4	0.0	257.62484645843506	2.5003890991210938
54	242.7517523765564	pulse	1	t		52.0	2.5	/experiments/knapen_AOT/AOT_stimuli/rescaled_final/0114_rv.mp4	0.0	259.20726013183594	
54	243.6697278022766	fix_post	2		12	52.0	2.5	/experiments/knapen_AOT/AOT_stimuli/rescaled_final/0114_rv.mp4	0.0	260.12523555755615	0.10011768341064453
55	243.76984548568726	fix_pre	0		120	53.0	2.5	/experiments/knapen_AOT/AOT_stimuli/rescaled_final/1976_fw.mp4	0.0	260.2253532409668	1.00838041305542
55	244.35342669487	pulse	0	t		53.0	2.5	/experiments/knapen_AOT/AOT_stimuli/rescaled_final/1976_fw.mp4	0.0	260.80893445014954	
55	244.77822589874268	movie	1		279	53.0	2.5	/experiments/knapen_AOT/AOT_stimuli/rescaled_final/1976_fw.mp4	0.0	261.2337336540222	2.492027759552002
55	245.95254254341125	pulse	1	t		53.0	2.5	/experiments/knapen_AOT/AOT_stimuli/rescaled_final/1976_fw.mp4	0.0	262.4080502986908	
55	247.27025365829468	fix_post	2		12	53.0	2.5	/experiments/knapen_AOT/AOT_stimuli/rescaled_final/1976_fw.mp4	0.0	263.7257614135742	0.10002970695495605
56	247.37028336524963	fix_pre	0		120	54.0	2.5	blank	1.0	263.8257911205292	1.0001354217529297
56	247.55392265319824	pulse	0	t		54.0	2.5	blank	1.0	264.0094304084778	
56	248.37041878700256	movie	1		300	54.0	2.5	blank	1.0	264.8259265422821	2.5004005432128906
56	249.15421175956726	pulse	1	t		54.0	2.5	blank	1.0	265.6097195148468	
56	250.75439405441284	pulse	1	t		54.0	2.5	blank	1.0	267.2099018096924	
56	250.87081933021545	fix_post	2		12	54.0	2.5	blank	1.0	267.326327085495	0.10001325607299805
57	250.97083258628845	fix_pre	0		120	55.0	2.5	/experiments/knapen_AOT/AOT_stimuli/rescaled_final/1787_rv.mp4	0.0	267.426340341568	1.0084562301635742
57	251.97928881645203	movie	1		280	55.0	2.5	/experiments/knapen_AOT/AOT_stimuli/rescaled_final/1787_rv.mp4	0.0	268.43479657173157	2.4922192096710205
57	252.35303163528442	pulse	1	t		55.0	2.5	/experiments/knapen_AOT/AOT_stimuli/rescaled_final/1787_rv.mp4	0.0	268.80853939056396	
57	253.95270419120789	pulse	1	t		55.0	2.5	/experiments/knapen_AOT/AOT_stimuli/rescaled_final/1787_rv.mp4	0.0	270.4082119464874	
57	254.47150802612305	fix_post	2		12	55.0	2.5	/experiments/knapen_AOT/AOT_stimuli/rescaled_final/1787_rv.mp4	0.0	270.9270157814026	0.09984350204467773
58	254.57135152816772	fix_pre	0		119	56.0	2.5	/experiments/knapen_AOT/AOT_stimuli/rescaled_final/1096_fw.mp4	0.0	271.02685928344727	1.0001440048217773
58	255.55515027046204	pulse	0	t		56.0	2.5	/experiments/knapen_AOT/AOT_stimuli/rescaled_final/1096_fw.mp4	0.0	272.0106580257416	
58	255.5714955329895	movie	1		284	56.0	2.5	/experiments/knapen_AOT/AOT_stimuli/rescaled_final/1096_fw.mp4	0.0	272.02700328826904	2.5004303455352783
58	257.1538360118866	pulse	1	t		56.0	2.5	/experiments/knapen_AOT/AOT_stimuli/rescaled_final/1096_fw.mp4	0.0	273.60934376716614	
58	258.0719258785248	fix_post	2		12	56.0	2.5	/experiments/knapen_AOT/AOT_stimuli/rescaled_final/1096_fw.mp4	0.0	274.5274336338043	0.09998416900634766
59	258.1719100475311	fix_pre	0		120	57.0	2.5	/experiments/knapen_AOT/AOT_stimuli/rescaled_final/0934_rv.mp4	0.0	274.62741780281067	1.0084776878356934
59	258.75554871559143	pulse	0	t		57.0	2.5	/experiments/knapen_AOT/AOT_stimuli/rescaled_final/0934_rv.mp4	0.0	275.211056470871	
59	259.1803877353668	movie	1		281	57.0	2.5	/experiments/knapen_AOT/AOT_stimuli/rescaled_final/0934_rv.mp4	0.0	275.63589549064636	2.5003597736358643
59	260.3542914390564	pulse	1	t		57.0	2.5	/experiments/knapen_AOT/AOT_stimuli/rescaled_final/0934_rv.mp4	0.0	276.80979919433594	
59	261.6807475090027	fix_post	2		11	57.0	2.5	/experiments/knapen_AOT/AOT_stimuli/rescaled_final/0934_rv.mp4	0.0	278.1362552642822	0.09175276756286621
60	261.77250027656555	fix_pre	0		120	58.0	2.5	/experiments/knapen_AOT/AOT_stimuli/rescaled_final/0202_rv.mp4	0.0	278.2280080318451	1.0084331035614014
60	261.95605731010437	pulse	0	t		58.0	2.5	/experiments/knapen_AOT/AOT_stimuli/rescaled_final/0202_rv.mp4	0.0	278.4115650653839	
60	262.78093338012695	movie	1		278	58.0	2.5	/experiments/knapen_AOT/AOT_stimuli/rescaled_final/0202_rv.mp4	0.0	279.2364411354065	2.4920380115509033
60	263.5543255805969	pulse	1	t		58.0	2.5	/experiments/knapen_AOT/AOT_stimuli/rescaled_final/0202_rv.mp4	0.0	280.00983333587646	
60	265.1543905735016	pulse	1	t		58.0	2.5	/experiments/knapen_AOT/AOT_stimuli/rescaled_final/0202_rv.mp4	0.0	281.6098983287811	
60	265.27297139167786	fix_post	2		12	58.0	2.5	/experiments/knapen_AOT/AOT_stimuli/rescaled_final/0202_rv.mp4	0.0	281.7284791469574	0.10002613067626953
61	265.3729975223541	fix_pre	0		120	59.0	2.5	/experiments/knapen_AOT/AOT_stimuli/rescaled_final/0921_fw.mp4	0.0	281.82850527763367	1.008495569229126
61	266.38149309158325	movie	1		283	59.0	2.5	/experiments/knapen_AOT/AOT_stimuli/rescaled_final/0921_fw.mp4	0.0	282.8370008468628	2.4920148849487305
61	266.75531220436096	pulse	1	t		59.0	2.5	/experiments/knapen_AOT/AOT_stimuli/rescaled_final/0921_fw.mp4	0.0	283.2108199596405	
61	268.35496068000793	pulse	1	t		59.0	2.5	/experiments/knapen_AOT/AOT_stimuli/rescaled_final/0921_fw.mp4	0.0	284.8104684352875	
61	268.873507976532	fix_post	2		12	59.0	2.5	/experiments/knapen_AOT/AOT_stimuli/rescaled_final/0921_fw.mp4	0.0	285.3290157318115	0.0999612808227539
62	268.97346925735474	fix_pre	0		119	60.0	2.5	/experiments/knapen_AOT/AOT_stimuli/rescaled_final/1756_fw.mp4	0.0	285.4289770126343	1.0003392696380615
62	269.95758628845215	pulse	0	t		60.0	2.5	/experiments/knapen_AOT/AOT_stimuli/rescaled_final/1756_fw.mp4	0.0	286.4130940437317	
62	269.9738085269928	movie	1		284	60.0	2.5	/experiments/knapen_AOT/AOT_stimuli/rescaled_final/1756_fw.mp4	0.0	286.42931628227234	2.500267744064331
62	271.5557482242584	pulse	1	t		60.0	2.5	/experiments/knapen_AOT/AOT_stimuli/rescaled_final/1756_fw.mp4	0.0	288.01125597953796	
62	272.47407627105713	fix_post	2		12	60.0	2.5	/experiments/knapen_AOT/AOT_stimuli/rescaled_final/1756_fw.mp4	0.0	288.92958402633667	0.09998750686645508
63	272.5740637779236	fix_pre	0		120	61.0	2.5	/experiments/knapen_AOT/AOT_stimuli/rescaled_final/1999_rv.mp4	0.0	289.0295715332031	1.0084781646728516
63	273.15774965286255	pulse	0	t		61.0	2.5	/experiments/knapen_AOT/AOT_stimuli/rescaled_final/1999_rv.mp4	0.0	289.6132574081421	
63	273.58254194259644	movie	1		283	61.0	2.5	/experiments/knapen_AOT/AOT_stimuli/rescaled_final/1999_rv.mp4	0.0	290.038049697876	2.492267370223999
63	274.75605964660645	pulse	1	t		61.0	2.5	/experiments/knapen_AOT/AOT_stimuli/rescaled_final/1999_rv.mp4	0.0	291.211567401886	
63	276.07480931282043	fix_post	2		12	61.0	2.5	/experiments/knapen_AOT/AOT_stimuli/rescaled_final/1999_rv.mp4	0.0	292.5303170681	0.09979104995727539
64	276.1746003627777	fix_pre	0		120	62.0	2.5	/experiments/knapen_AOT/AOT_stimuli/rescaled_final/1762_rv.mp4	0.0	292.63010811805725	1.008500576019287
64	276.35077357292175	pulse	0	t		62.0	2.5	/experiments/knapen_AOT/AOT_stimuli/rescaled_final/1762_rv.mp4	0.0	292.8062813282013	
64	277.183100938797	movie	1		274	62.0	2.5	/experiments/knapen_AOT/AOT_stimuli/rescaled_final/1762_rv.mp4	0.0	293.63860869407654	2.5003607273101807
64	277.95625734329224	pulse	1	t		62.0	2.5	/experiments/knapen_AOT/AOT_stimuli/rescaled_final/1762_rv.mp4	0.0	294.4117650985718	
64	279.55050826072693	pulse	1	t		62.0	2.5	/experiments/knapen_AOT/AOT_stimuli/rescaled_final/1762_rv.mp4	0.0	296.00601601600647	
64	279.6834616661072	fix_post	2		11	62.0	2.5	/experiments/knapen_AOT/AOT_stimuli/rescaled_final/1762_rv.mp4	0.0	296.1389694213867	0.09164309501647949
65	279.77510476112366	fix_pre	0		120	63.0	2.5	blank	1.0	296.2306125164032	1.0002245903015137
65	280.77532935142517	movie	1		300	63.0	2.5	blank	1.0	297.2308371067047	2.500365972518921
65	281.1508438587189	pulse	1	t		63.0	2.5	blank	1.0	297.6063516139984	
65	282.7511696815491	pulse	1	t		63.0	2.5	blank	1.0	299.2066774368286	
65	283.2756953239441	fix_post	2		12	63.0	2.5	blank	1.0	299.73120307922363	0.09998154640197754
66	283.37567687034607	fix_pre	0		118	64.0	2.5	/experiments/knapen_AOT/AOT_stimuli/rescaled_final/1451_fw.mp4	0.0	299.8311846256256	1.0001707077026367
66	284.351113319397	pulse	0	t		64.0	2.5	/experiments/knapen_AOT/AOT_stimuli/rescaled_final/1451_fw.mp4	0.0	300.8066210746765	
66	284.3758475780487	movie	1		283	64.0	2.5	/experiments/knapen_AOT/AOT_stimuli/rescaled_final/1451_fw.mp4	0.0	300.83135533332825	2.4920296669006348
66	285.95144414901733	pulse	1	t		64.0	2.5	/experiments/knapen_AOT/AOT_stimuli/rescaled_final/1451_fw.mp4	0.0	302.4069519042969	
66	286.86787724494934	fix_post	2		12	64.0	2.5	/experiments/knapen_AOT/AOT_stimuli/rescaled_final/1451_fw.mp4	0.0	303.3233850002289	0.10001063346862793
67	286.96788787841797	fix_pre	0		120	65.0	2.5	/experiments/knapen_AOT/AOT_stimuli/rescaled_final/1523_rv.mp4	0.0	303.4233956336975	1.008502721786499
67	287.55163049697876	pulse	0	t		65.0	2.5	/experiments/knapen_AOT/AOT_stimuli/rescaled_final/1523_rv.mp4	0.0	304.0071382522583	
67	287.97639060020447	movie	1		280	65.0	2.5	/experiments/knapen_AOT/AOT_stimuli/rescaled_final/1523_rv.mp4	0.0	304.431898355484	2.4921066761016846
67	289.15175199508667	pulse	1	t		65.0	2.5	/experiments/knapen_AOT/AOT_stimuli/rescaled_final/1523_rv.mp4	0.0	305.6072597503662	
67	290.46849727630615	fix_post	2		12	65.0	2.5	/experiments/knapen_AOT/AOT_stimuli/rescaled_final/1523_rv.mp4	0.0	306.9240050315857	0.0999445915222168
68	290.56844186782837	fix_pre	0		120	66.0	2.5	/experiments/knapen_AOT/AOT_stimuli/rescaled_final/0439_rv.mp4	0.0	307.0239496231079	1.008509635925293
68	290.7521438598633	pulse	0	t		66.0	2.5	/experiments/knapen_AOT/AOT_stimuli/rescaled_final/0439_rv.mp4	0.0	307.2076516151428	
68	291.57695150375366	movie	1		280	66.0	2.5	/experiments/knapen_AOT/AOT_stimuli/rescaled_final/0439_rv.mp4	0.0	308.0324592590332	2.492002487182617
68	292.35205078125	pulse	1	t		66.0	2.5	/experiments/knapen_AOT/AOT_stimuli/rescaled_final/0439_rv.mp4	0.0	308.80755853652954	
68	293.9507956504822	pulse	1	t		66.0	2.5	/experiments/knapen_AOT/AOT_stimuli/rescaled_final/0439_rv.mp4	0.0	310.4063034057617	
68	294.0689539909363	fix_post	2		12	66.0	2.5	/experiments/knapen_AOT/AOT_stimuli/rescaled_final/0439_rv.mp4	0.0	310.5244617462158	0.10001683235168457
69	294.16897082328796	fix_pre	0		120	67.0	2.5	/experiments/knapen_AOT/AOT_stimuli/rescaled_final/0173_fw.mp4	0.0	310.6244785785675	1.008493185043335
69	295.1774640083313	movie	1		276	67.0	2.5	/experiments/knapen_AOT/AOT_stimuli/rescaled_final/0173_fw.mp4	0.0	311.63297176361084	2.4920763969421387
69	295.5512182712555	pulse	1	t		67.0	2.5	/experiments/knapen_AOT/AOT_stimuli/rescaled_final/0173_fw.mp4	0.0	312.00672602653503	
69	297.15080285072327	pulse	1	t		67.0	2.5	/experiments/knapen_AOT/AOT_stimuli/rescaled_final/0173_fw.mp4	0.0	313.6063106060028	
69	297.66954040527344	fix_post	2		12	67.0	2.5	/experiments/knapen_AOT/AOT_stimuli/rescaled_final/0173_fw.mp4	0.0	314.125048160553	0.09995436668395996
70	297.7694947719574	fix_pre	0		119	68.0	2.5	/experiments/knapen_AOT/AOT_stimuli/rescaled_final/0451_rv.mp4	0.0	314.22500252723694	1.0001718997955322
70	298.75324511528015	pulse	0	t		68.0	2.5	/experiments/knapen_AOT/AOT_stimuli/rescaled_final/0451_rv.mp4	0.0	315.2087528705597	
70	298.76966667175293	movie	1		280	68.0	2.5	/experiments/knapen_AOT/AOT_stimuli/rescaled_final/0451_rv.mp4	0.0	315.22517442703247	2.50036883354187
70	300.35272884368896	pulse	1	t		68.0	2.5	/experiments/knapen_AOT/AOT_stimuli/rescaled_final/0451_rv.mp4	0.0	316.8082365989685	
70	301.2700355052948	fix_post	2		12	68.0	2.5	/experiments/knapen_AOT/AOT_stimuli/rescaled_final/0451_rv.mp4	0.0	317.72554326057434	0.10007834434509277
71	301.3701138496399	fix_pre	0		120	69.0	2.5	blank	1.0	317.82562160491943	1.000091314315796
71	301.9536986351013	pulse	0	t		69.0	2.5	blank	1.0	318.40920639038086	
71	302.3702051639557	movie	1		300	69.0	2.5	blank	1.0	318.82571291923523	2.500385284423828
71	303.55390214920044	pulse	1	t		69.0	2.5	blank	1.0	320.00940990448	
71	304.8705904483795	fix_post	2		12	69.0	2.5	blank	1.0	321.32609820365906	0.10001683235168457
72	304.9706072807312	fix_pre	0		120	70.0	2.5	/experiments/knapen_AOT/AOT_stimuli/rescaled_final/0009_fw.mp4	0.0	321.42611503601074	1.008570909500122
72	305.154185295105	pulse	0	t		70.0	2.5	/experiments/knapen_AOT/AOT_stimuli/rescaled_final/0009_fw.mp4	0.0	321.6096930503845	
72	305.9791781902313	movie	1		286	70.0	2.5	/experiments/knapen_AOT/AOT_stimuli/rescaled_final/0009_fw.mp4	0.0	322.43468594551086	2.491955518722534
72	306.75463581085205	pulse	1	t		70.0	2.5	/experiments/knapen_AOT/AOT_stimuli/rescaled_final/0009_fw.mp4	0.0	323.2101435661316	
72	308.35269951820374	pulse	1	t		70.0	2.5	/experiments/knapen_AOT/AOT_stimuli/rescaled_final/0009_fw.mp4	0.0	324.8082072734833	
72	308.47113370895386	fix_post	2		12	70.0	2.5	/experiments/knapen_AOT/AOT_stimuli/rescaled_final/0009_fw.mp4	0.0	324.9266414642334	0.10001158714294434
73	308.5711452960968	fix_pre	0		120	71.0	2.5	/experiments/knapen_AOT/AOT_stimuli/rescaled_final/1999_fw.mp4	0.0	325.02665305137634	1.0085225105285645
73	309.57966780662537	movie	1		285	71.0	2.5	/experiments/knapen_AOT/AOT_stimuli/rescaled_final/1999_fw.mp4	0.0	326.0351755619049	2.49202823638916
73	309.9540009498596	pulse	1	t		71.0	2.5	/experiments/knapen_AOT/AOT_stimuli/rescaled_final/1999_fw.mp4	0.0	326.40950870513916	
73	311.55522060394287	pulse	1	t		71.0	2.5	/experiments/knapen_AOT/AOT_stimuli/rescaled_final/1999_fw.mp4	0.0	328.0107283592224	
73	312.0716960430145	fix_post	2		12	71.0	2.5	/experiments/knapen_AOT/AOT_stimuli/rescaled_final/1999_fw.mp4	0.0	328.52720379829407	0.10001873970031738
74	312.17171478271484	fix_pre	0		119	72.0	2.5	/experiments/knapen_AOT/AOT_stimuli/rescaled_final/1323_rv.mp4	0.0	328.6272225379944	1.000101089477539
74	313.15539145469666	pulse	0	t		72.0	2.5	/experiments/knapen_AOT/AOT_stimuli/rescaled_final/1323_rv.mp4	0.0	329.6108992099762	
74	313.1718158721924	movie	1		291	72.0	2.5	/experiments/knapen_AOT/AOT_stimuli/rescaled_final/1323_rv.mp4	0.0	329.6273236274719	2.5003974437713623
74	314.75579595565796	pulse	1	t		72.0	2.5	/experiments/knapen_AOT/AOT_stimuli/rescaled_final/1323_rv.mp4	0.0	331.2113037109375	
74	315.67221331596375	fix_post	2		12	72.0	2.5	/experiments/knapen_AOT/AOT_stimuli/rescaled_final/1323_rv.mp4	0.0	332.1277210712433	0.10001730918884277
75	315.7722306251526	fix_pre	0		120	73.0	2.5	/experiments/knapen_AOT/AOT_stimuli/rescaled_final/0074_fw.mp4	0.0	332.22773838043213	1.008481502532959
75	316.3558270931244	pulse	0	t		73.0	2.5	/experiments/knapen_AOT/AOT_stimuli/rescaled_final/0074_fw.mp4	0.0	332.81133484840393	
75	316.78071212768555	movie	1		267	73.0	2.5	/experiments/knapen_AOT/AOT_stimuli/rescaled_final/0074_fw.mp4	0.0	333.2362198829651	2.492109537124634
75	317.95476937294006	pulse	1	t		73.0	2.5	/experiments/knapen_AOT/AOT_stimuli/rescaled_final/0074_fw.mp4	0.0	334.4102771282196	
75	319.2728216648102	fix_post	2		12	73.0	2.5	/experiments/knapen_AOT/AOT_stimuli/rescaled_final/0074_fw.mp4	0.0	335.7283294200897	0.09991765022277832
76	319.37273931503296	fix_pre	0		120	74.0	2.5	/experiments/knapen_AOT/AOT_stimuli/rescaled_final/1302_fw.mp4	0.0	335.8282470703125	1.0085358619689941
76	319.5563771724701	pulse	0	t		74.0	2.5	/experiments/knapen_AOT/AOT_stimuli/rescaled_final/1302_fw.mp4	0.0	336.01188492774963	
76	320.38127517700195	movie	1		286	74.0	2.5	/experiments/knapen_AOT/AOT_stimuli/rescaled_final/1302_fw.mp4	0.0	336.8367829322815	2.500368356704712
76	321.1544463634491	pulse	1	t		74.0	2.5	/experiments/knapen_AOT/AOT_stimuli/rescaled_final/1302_fw.mp4	0.0	337.60995411872864	
76	322.7546548843384	pulse	1	t		74.0	2.5	/experiments/knapen_AOT/AOT_stimuli/rescaled_final/1302_fw.mp4	0.0	339.2101626396179	
76	322.88164353370667	fix_post	2		11	74.0	2.5	/experiments/knapen_AOT/AOT_stimuli/rescaled_final/1302_fw.mp4	0.0	339.3371512889862	0.09164166450500488
77	322.97328519821167	fix_pre	0		120	75.0	2.5	blank	1.0	339.4287929534912	1.0001518726348877
77	323.97343707084656	movie	1		300	75.0	2.5	blank	1.0	340.4289448261261	2.500420093536377
77	324.3570463657379	pulse	1	t		75.0	2.5	blank	1.0	340.81255412101746	
77	325.95735359191895	pulse	1	t		75.0	2.5	blank	1.0	342.4128613471985	
77	326.47385716438293	fix_post	2		12	75.0	2.5	blank	1.0	342.9293649196625	0.10002493858337402
78	326.5738821029663	fix_pre	0		119	76.0	2.5	/experiments/knapen_AOT/AOT_stimuli/rescaled_final/0312_fw.mp4	0.0	343.02938985824585	1.0001862049102783
78	327.5575375556946	pulse	0	t		76.0	2.5	/experiments/knapen_AOT/AOT_stimuli/rescaled_final/0312_fw.mp4	0.0	344.0130453109741	
78	327.5740683078766	movie	1		279	76.0	2.5	/experiments/knapen_AOT/AOT_stimuli/rescaled_final/0312_fw.mp4	0.0	344.0295760631561	2.5002939701080322
78	329.15627574920654	pulse	1	t		76.0	2.5	/experiments/knapen_AOT/AOT_stimuli/rescaled_final/0312_fw.mp4	0.0	345.6117835044861	
78	330.0743622779846	fix_post	2		12	76.0	2.5	/experiments/knapen_AOT/AOT_stimuli/rescaled_final/0312_fw.mp4	0.0	346.52987003326416	0.1000206470489502
79	330.17438292503357	fix_pre	0		120	77.0	2.5	/experiments/knapen_AOT/AOT_stimuli/rescaled_final/1403_rv.mp4	0.0	346.6298906803131	1.0084872245788574
79	330.7583637237549	pulse	0	t		77.0	2.5	/experiments/knapen_AOT/AOT_stimuli/rescaled_final/1403_rv.mp4	0.0	347.2138714790344	
79	331.1828701496124	movie	1		277	77.0	2.5	/experiments/knapen_AOT/AOT_stimuli/rescaled_final/1403_rv.mp4	0.0	347.63837790489197	2.492077589035034
79	332.3563561439514	pulse	1	t		77.0	2.5	/experiments/knapen_AOT/AOT_stimuli/rescaled_final/1403_rv.mp4	0.0	348.81186389923096	
79	333.67494773864746	fix_post	2		12	77.0	2.5	/experiments/knapen_AOT/AOT_stimuli/rescaled_final/1403_rv.mp4	0.0	350.130455493927	0.10002517700195312
80	333.7749729156494	fix_pre	0		120	78.0	2.5	/experiments/knapen_AOT/AOT_stimuli/rescaled_final/0867_rv.mp4	0.0	350.23048067092896	1.008467674255371
80	333.95234966278076	pulse	0	t		78.0	2.5	/experiments/knapen_AOT/AOT_stimuli/rescaled_final/0867_rv.mp4	0.0	350.4078574180603	
80	334.7834405899048	movie	1		278	78.0	2.5	/experiments/knapen_AOT/AOT_stimuli/rescaled_final/0867_rv.mp4	0.0	351.2389483451843	2.492033004760742
80	335.5566146373749	pulse	1	t		78.0	2.5	/experiments/knapen_AOT/AOT_stimuli/rescaled_final/0867_rv.mp4	0.0	352.0121223926544	
80	337.1509039402008	pulse	1	t		78.0	2.5	/experiments/knapen_AOT/AOT_stimuli/rescaled_final/0867_rv.mp4	0.0	353.60641169548035	
80	337.2754735946655	fix_post	2		12	78.0	2.5	/experiments/knapen_AOT/AOT_stimuli/rescaled_final/0867_rv.mp4	0.0	353.73098134994507	0.09997940063476562
81	337.3754529953003	fix_pre	0		120	79.0	2.5	/experiments/knapen_AOT/AOT_stimuli/rescaled_final/1912_rv.mp4	0.0	353.83096075057983	1.008530855178833
81	338.3839838504791	movie	1		286	79.0	2.5	/experiments/knapen_AOT/AOT_stimuli/rescaled_final/1912_rv.mp4	0.0	354.83949160575867	2.4922983646392822
81	338.75121569633484	pulse	1	t		79.0	2.5	/experiments/knapen_AOT/AOT_stimuli/rescaled_final/1912_rv.mp4	0.0	355.2067234516144	
81	340.3511426448822	pulse	1	t		79.0	2.5	/experiments/knapen_AOT/AOT_stimuli/rescaled_final/1912_rv.mp4	0.0	356.80665040016174	
81	340.8762822151184	fix_post	2		12	79.0	2.5	/experiments/knapen_AOT/AOT_stimuli/rescaled_final/1912_rv.mp4	0.0	357.33178997039795	0.09975886344909668
82	340.9760410785675	fix_pre	0		118	80.0	2.5	/experiments/knapen_AOT/AOT_stimuli/rescaled_final/1738_fw.mp4	0.0	357.43154883384705	0.9918088912963867
82	341.95135736465454	pulse	0	t		80.0	2.5	/experiments/knapen_AOT/AOT_stimuli/rescaled_final/1738_fw.mp4	0.0	358.4068651199341	
82	341.9678499698639	movie	1		283	80.0	2.5	/experiments/knapen_AOT/AOT_stimuli/rescaled_final/1738_fw.mp4	0.0	358.42335772514343	2.500347137451172
82	343.5517067909241	pulse	1	t		80.0	2.5	/experiments/knapen_AOT/AOT_stimuli/rescaled_final/1738_fw.mp4	0.0	360.0072145462036	
82	344.46819710731506	fix_post	2		12	80.0	2.5	/experiments/knapen_AOT/AOT_stimuli/rescaled_final/1738_fw.mp4	0.0	360.9237048625946	0.10001158714294434
83	344.568208694458	fix_pre	0		120	81.0	2.5	/experiments/knapen_AOT/AOT_stimuli/rescaled_final/1828_rv.mp4	0.0	361.02371644973755	1.0085196495056152
83	345.15188097953796	pulse	0	t		81.0	2.5	/experiments/knapen_AOT/AOT_stimuli/rescaled_final/1828_rv.mp4	0.0	361.6073887348175	
83	345.5767283439636	movie	1		290	81.0	2.5	/experiments/knapen_AOT/AOT_stimuli/rescaled_final/1828_rv.mp4	0.0	362.03223609924316	2.4920170307159424
83	346.75212597846985	pulse	1	t		81.0	2.5	/experiments/knapen_AOT/AOT_stimuli/rescaled_final/1828_rv.mp4	0.0	363.2076337337494	
83	348.06874537467957	fix_post	2		12	81.0	2.5	/experiments/knapen_AOT/AOT_stimuli/rescaled_final/1828_rv.mp4	0.0	364.5242531299591	0.10001802444458008
84	348.16876339912415	fix_pre	0		120	82.0	2.5	/experiments/knapen_AOT/AOT_stimuli/rescaled_final/0729_rv.mp4	0.0	364.6242711544037	1.0084948539733887
84	348.35231161117554	pulse	0	t		82.0	2.5	/experiments/knapen_AOT/AOT_stimuli/rescaled_final/0729_rv.mp4	0.0	364.8078193664551	
84	349.17725825309753	movie	1		276	82.0	2.5	/experiments/knapen_AOT/AOT_stimuli/rescaled_final/0729_rv.mp4	0.0	365.6327660083771	2.492034673690796
84	349.9519374370575	pulse	1	t		82.0	2.5	/experiments/knapen_AOT/AOT_stimuli/rescaled_final/0729_rv.mp4	0.0	366.40744519233704	
84	351.5509624481201	pulse	1	t		82.0	2.5	/experiments/knapen_AOT/AOT_stimuli/rescaled_final/0729_rv.mp4	0.0	368.00647020339966	
84	351.66929292678833	fix_post	2		12	82.0	2.5	/experiments/knapen_AOT/AOT_stimuli/rescaled_final/0729_rv.mp4	0.0	368.12480068206787	0.10000371932983398
85	351.76929664611816	fix_pre	0		120	83.0	2.5	blank	1.0	368.2248044013977	1.0001428127288818
85	352.76943945884705	movie	1		300	83.0	2.5	blank	1.0	369.2249472141266	2.500377655029297
85	353.153107881546	pulse	1	t		83.0	2.5	blank	1.0	369.60861563682556	
85	354.7532424926758	pulse	1	t		83.0	2.5	blank	1.0	371.2087502479553	
85	355.26981711387634	fix_post	2		12	83.0	2.5	blank	1.0	371.7253248691559	0.1251072883605957
87	355.39492440223694	stim	0		1712					371.8504321575165	14.268802165985107
87	356.3534953594208	pulse	0	t						372.8090031147003	
87	357.95374846458435	pulse	0	t						374.4092562198639	
87	359.554071187973	pulse	0	t						376.00957894325256	
87	361.154333114624	pulse	0	t						377.60984086990356	
87	362.7546103000641	pulse	0	t						379.2101180553436	
87	364.3547284603119	pulse	0	t						380.81023621559143	
87	365.9549539089203	pulse	0	t						382.41046166419983	
87	367.5552043914795	pulse	0	t						384.01071214675903	
87	369.15543389320374	pulse	0	t						385.6109416484833	
