trial_nr	onset	event_type	phase	response	nr_frames	movie_index	movie_duration	movie_file	blank	onset_abs	duration
0	0.20831990242004395	stim	0		272					31.623872995376587	2.266977071762085
0	2.4673399925231934	response	0	space						33.882893085479736	
1	2.475296974182129	stim	0		4696					33.89085006713867	39.14952802658081
1	41.61506199836731	pulse	0	t						73.03061509132385	
1	41.62482500076294	stim	1		1715					73.04037809371948	14.300132989883423
1	43.206536054611206	pulse	1	t						74.62208914756775	
1	44.80687594413757	pulse	1	t						76.22242903709412	
1	46.4069619178772	pulse	1	t						77.82251501083374	
1	47.99973392486572	pulse	1	t						79.41528701782227	
1	49.60006284713745	pulse	1	t						81.015615940094	
1	51.199532985687256	pulse	1	t						82.6150860786438	
1	52.79968595504761	pulse	1	t						84.21523904800415	
1	54.39977192878723	pulse	1	t						85.81532502174377	
2	55.92495799064636	fix_pre	0		10	0.0	2.5	/experiments/knapen_AOT/AOT_stimuli/rescaled_final/1011_rv.mp4	0.0	87.3405110836029	0.08332705497741699
2	56.00015997886658	pulse	0	t		0.0	2.5	/experiments/knapen_AOT/AOT_stimuli/rescaled_final/1011_rv.mp4	0.0	87.41571307182312	
2	56.00828504562378	movie	1		244	0.0	2.5	/experiments/knapen_AOT/AOT_stimuli/rescaled_final/1011_rv.mp4	0.0	87.42383813858032	2.5087239742279053
2	57.60084390640259	pulse	1	t		0.0	2.5	/experiments/knapen_AOT/AOT_stimuli/rescaled_final/1011_rv.mp4	0.0	89.01639699935913	
2	58.517009019851685	fix_post	2		12	0.0	2.5	/experiments/knapen_AOT/AOT_stimuli/rescaled_final/1011_rv.mp4	0.0	89.93256211280823	0.09995388984680176
3	58.616962909698486	fix_pre	0		120	1.0	2.5	/experiments/knapen_AOT/AOT_stimuli/rescaled_final/2149_fw.mp4	0.0	90.03251600265503	1.0002100467681885
3	59.20067095756531	pulse	0	t		1.0	2.5	/experiments/knapen_AOT/AOT_stimuli/rescaled_final/2149_fw.mp4	0.0	90.61622405052185	
3	59.617172956466675	movie	1		243	1.0	2.5	/experiments/knapen_AOT/AOT_stimuli/rescaled_final/2149_fw.mp4	0.0	91.03272604942322	2.5003418922424316
3	60.80086898803711	pulse	1	t		1.0	2.5	/experiments/knapen_AOT/AOT_stimuli/rescaled_final/2149_fw.mp4	0.0	92.21642208099365	
3	62.117514848709106	fix_post	2		12	1.0	2.5	/experiments/knapen_AOT/AOT_stimuli/rescaled_final/2149_fw.mp4	0.0	93.53306794166565	0.10006904602050781
4	62.217583894729614	fix_pre	0		120	2.0	2.5	/experiments/knapen_AOT/AOT_stimuli/rescaled_final/1051_rv.mp4	0.0	93.63313698768616	1.0001211166381836
4	62.40114092826843	pulse	0	t		2.0	2.5	/experiments/knapen_AOT/AOT_stimuli/rescaled_final/1051_rv.mp4	0.0	93.81669402122498	
4	63.2177050113678	movie	1		244	2.0	2.5	/experiments/knapen_AOT/AOT_stimuli/rescaled_final/1051_rv.mp4	0.0	94.63325810432434	2.5003550052642822
4	64.00133800506592	pulse	1	t		2.0	2.5	/experiments/knapen_AOT/AOT_stimuli/rescaled_final/1051_rv.mp4	0.0	95.41689109802246	
4	65.60290884971619	pulse	1	t		2.0	2.5	/experiments/knapen_AOT/AOT_stimuli/rescaled_final/1051_rv.mp4	0.0	97.01846194267273	
4	65.71806001663208	fix_post	2		12	2.0	2.5	/experiments/knapen_AOT/AOT_stimuli/rescaled_final/1051_rv.mp4	0.0	97.13361310958862	0.10002493858337402
5	65.81808495521545	fix_pre	0		120	3.0	2.5	/experiments/knapen_AOT/AOT_stimuli/rescaled_final/0694_fw.mp4	0.0	97.233638048172	1.000119924545288
5	66.81820487976074	movie	1		242	3.0	2.5	/experiments/knapen_AOT/AOT_stimuli/rescaled_final/0694_fw.mp4	0.0	98.23375797271729	2.492033004760742
5	67.20236992835999	pulse	1	t		3.0	2.5	/experiments/knapen_AOT/AOT_stimuli/rescaled_final/0694_fw.mp4	0.0	98.61792302131653	
5	68.80200600624084	pulse	1	t		3.0	2.5	/experiments/knapen_AOT/AOT_stimuli/rescaled_final/0694_fw.mp4	0.0	100.21755909919739	
5	69.31023788452148	fix_post	2		12	3.0	2.5	/experiments/knapen_AOT/AOT_stimuli/rescaled_final/0694_fw.mp4	0.0	100.72579097747803	0.10010409355163574
6	69.41034197807312	fix_pre	0		120	4.0	2.5	/experiments/knapen_AOT/AOT_stimuli/rescaled_final/0257_fw.mp4	0.0	100.82589507102966	1.0000889301300049
6	70.4022569656372	pulse	0	t		4.0	2.5	/experiments/knapen_AOT/AOT_stimuli/rescaled_final/0257_fw.mp4	0.0	101.81781005859375	
6	70.41043090820312	movie	1		243	4.0	2.5	/experiments/knapen_AOT/AOT_stimuli/rescaled_final/0257_fw.mp4	0.0	101.82598400115967	2.5088751316070557
6	72.00294804573059	pulse	1	t		4.0	2.5	/experiments/knapen_AOT/AOT_stimuli/rescaled_final/0257_fw.mp4	0.0	103.41850113868713	
6	72.91930603981018	fix_post	2		12	4.0	2.5	/experiments/knapen_AOT/AOT_stimuli/rescaled_final/0257_fw.mp4	0.0	104.33485913276672	0.09984397888183594
7	73.01915001869202	fix_pre	0		120	5.0	2.5	/experiments/knapen_AOT/AOT_stimuli/rescaled_final/0393_fw.mp4	0.0	104.43470311164856	1.0001599788665771
7	73.60283994674683	pulse	0	t		5.0	2.5	/experiments/knapen_AOT/AOT_stimuli/rescaled_final/0393_fw.mp4	0.0	105.01839303970337	
7	74.0193099975586	movie	1		243	5.0	2.5	/experiments/knapen_AOT/AOT_stimuli/rescaled_final/0393_fw.mp4	0.0	105.43486309051514	2.5003509521484375
7	75.20304894447327	pulse	1	t		5.0	2.5	/experiments/knapen_AOT/AOT_stimuli/rescaled_final/0393_fw.mp4	0.0	106.61860203742981	
7	76.51966094970703	fix_post	2		12	5.0	2.5	/experiments/knapen_AOT/AOT_stimuli/rescaled_final/0393_fw.mp4	0.0	107.93521404266357	0.10007500648498535
8	76.61973595619202	fix_pre	0		120	6.0	2.5	blank	1.0	108.03528904914856	1.0001029968261719
8	76.80335593223572	pulse	0	t		6.0	2.5	blank	1.0	108.21890902519226	
8	77.61983895301819	movie	1		300	6.0	2.5	blank	1.0	109.03539204597473	2.500403881072998
8	78.40359687805176	pulse	1	t		6.0	2.5	blank	1.0	109.8191499710083	
8	80.00375199317932	pulse	1	t		6.0	2.5	blank	1.0	111.41930508613586	
8	80.12024283409119	fix_post	2		12	6.0	2.5	blank	1.0	111.53579592704773	0.10000920295715332
9	80.22025203704834	fix_pre	0		120	7.0	2.5	/experiments/knapen_AOT/AOT_stimuli/rescaled_final/0077_fw.mp4	0.0	111.63580513000488	1.0001049041748047
9	81.22035694122314	movie	1		242	7.0	2.5	/experiments/knapen_AOT/AOT_stimuli/rescaled_final/0077_fw.mp4	0.0	112.63591003417969	2.4920380115509033
9	81.60437202453613	pulse	1	t		7.0	2.5	/experiments/knapen_AOT/AOT_stimuli/rescaled_final/0077_fw.mp4	0.0	113.01992511749268	
9	83.20424890518188	pulse	1	t		7.0	2.5	/experiments/knapen_AOT/AOT_stimuli/rescaled_final/0077_fw.mp4	0.0	114.61980199813843	
9	83.71239495277405	fix_post	2		12	7.0	2.5	/experiments/knapen_AOT/AOT_stimuli/rescaled_final/0077_fw.mp4	0.0	115.12794804573059	0.10001087188720703
10	83.81240582466125	fix_pre	0		120	8.0	2.5	/experiments/knapen_AOT/AOT_stimuli/rescaled_final/0697_fw.mp4	0.0	115.2279589176178	1.0001530647277832
10	84.80455803871155	pulse	0	t		8.0	2.5	/experiments/knapen_AOT/AOT_stimuli/rescaled_final/0697_fw.mp4	0.0	116.22011113166809	
10	84.81255888938904	movie	1		244	8.0	2.5	/experiments/knapen_AOT/AOT_stimuli/rescaled_final/0697_fw.mp4	0.0	116.22811198234558	2.5087101459503174
10	86.40527606010437	pulse	1	t		8.0	2.5	/experiments/knapen_AOT/AOT_stimuli/rescaled_final/0697_fw.mp4	0.0	117.82082915306091	
10	87.32126903533936	fix_post	2		12	8.0	2.5	/experiments/knapen_AOT/AOT_stimuli/rescaled_final/0697_fw.mp4	0.0	118.7368221282959	0.10002493858337402
11	87.42129397392273	fix_pre	0		120	9.0	2.5	/experiments/knapen_AOT/AOT_stimuli/rescaled_final/1715_fw.mp4	0.0	118.83684706687927	1.0001590251922607
11	88.00487899780273	pulse	0	t		9.0	2.5	/experiments/knapen_AOT/AOT_stimuli/rescaled_final/1715_fw.mp4	0.0	119.42043209075928	
11	88.42145299911499	movie	1		246	9.0	2.5	/experiments/knapen_AOT/AOT_stimuli/rescaled_final/1715_fw.mp4	0.0	119.83700609207153	2.5003559589385986
11	89.60517001152039	pulse	1	t		9.0	2.5	/experiments/knapen_AOT/AOT_stimuli/rescaled_final/1715_fw.mp4	0.0	121.02072310447693	
11	90.92180895805359	fix_post	2		12	9.0	2.5	/experiments/knapen_AOT/AOT_stimuli/rescaled_final/1715_fw.mp4	0.0	122.33736205101013	0.1000070571899414
12	91.02181601524353	fix_pre	0		120	10.0	2.5	/experiments/knapen_AOT/AOT_stimuli/rescaled_final/0802_rv.mp4	0.0	122.43736910820007	1.0001640319824219
12	91.20550084114075	pulse	0	t		10.0	2.5	/experiments/knapen_AOT/AOT_stimuli/rescaled_final/0802_rv.mp4	0.0	122.62105393409729	
12	92.02198004722595	movie	1		241	10.0	2.5	/experiments/knapen_AOT/AOT_stimuli/rescaled_final/0802_rv.mp4	0.0	123.4375331401825	2.50038480758667
12	92.80577087402344	pulse	1	t		10.0	2.5	/experiments/knapen_AOT/AOT_stimuli/rescaled_final/0802_rv.mp4	0.0	124.22132396697998	
12	94.40597891807556	pulse	1	t		10.0	2.5	/experiments/knapen_AOT/AOT_stimuli/rescaled_final/0802_rv.mp4	0.0	125.8215320110321	
12	94.52236485481262	fix_post	2		12	10.0	2.5	/experiments/knapen_AOT/AOT_stimuli/rescaled_final/0802_rv.mp4	0.0	125.93791794776917	0.10001111030578613
13	94.62237596511841	fix_pre	0		120	11.0	2.5	/experiments/knapen_AOT/AOT_stimuli/rescaled_final/1419_fw.mp4	0.0	126.03792905807495	1.0001559257507324
13	95.62253189086914	movie	1		243	11.0	2.5	/experiments/knapen_AOT/AOT_stimuli/rescaled_final/1419_fw.mp4	0.0	127.03808498382568	2.4920361042022705
13	96.00729703903198	pulse	1	t		11.0	2.5	/experiments/knapen_AOT/AOT_stimuli/rescaled_final/1419_fw.mp4	0.0	127.42285013198853	
13	97.60637593269348	pulse	1	t		11.0	2.5	/experiments/knapen_AOT/AOT_stimuli/rescaled_final/1419_fw.mp4	0.0	129.02192902565002	
13	98.11456799507141	fix_post	2		12	11.0	2.5	/experiments/knapen_AOT/AOT_stimuli/rescaled_final/1419_fw.mp4	0.0	129.53012108802795	0.10001206398010254
14	98.21458005905151	fix_pre	0		120	12.0	2.5	/experiments/knapen_AOT/AOT_stimuli/rescaled_final/0246_rv.mp4	0.0	129.63013315200806	1.0001318454742432
14	99.20673298835754	pulse	0	t		12.0	2.5	/experiments/knapen_AOT/AOT_stimuli/rescaled_final/0246_rv.mp4	0.0	130.6222860813141	
14	99.21471190452576	movie	1		245	12.0	2.5	/experiments/knapen_AOT/AOT_stimuli/rescaled_final/0246_rv.mp4	0.0	130.6302649974823	2.5087430477142334
14	100.80713701248169	pulse	1	t		12.0	2.5	/experiments/knapen_AOT/AOT_stimuli/rescaled_final/0246_rv.mp4	0.0	132.22269010543823	
14	101.72345495223999	fix_post	2		12	12.0	2.5	/experiments/knapen_AOT/AOT_stimuli/rescaled_final/0246_rv.mp4	0.0	133.13900804519653	0.0999910831451416
15	101.82344603538513	fix_pre	0		120	13.0	2.5	/experiments/knapen_AOT/AOT_stimuli/rescaled_final/1553_fw.mp4	0.0	133.23899912834167	1.000182867050171
15	102.39963102340698	pulse	0	t		13.0	2.5	/experiments/knapen_AOT/AOT_stimuli/rescaled_final/1553_fw.mp4	0.0	133.81518411636353	
15	102.8236289024353	movie	1		244	13.0	2.5	/experiments/knapen_AOT/AOT_stimuli/rescaled_final/1553_fw.mp4	0.0	134.23918199539185	2.5003960132598877
15	103.99967098236084	pulse	1	t		13.0	2.5	/experiments/knapen_AOT/AOT_stimuli/rescaled_final/1553_fw.mp4	0.0	135.41522407531738	
15	105.32402491569519	fix_post	2		12	13.0	2.5	/experiments/knapen_AOT/AOT_stimuli/rescaled_final/1553_fw.mp4	0.0	136.73957800865173	0.10003495216369629
16	105.42405986785889	fix_pre	0		120	14.0	2.5	blank	1.0	136.83961296081543	1.0000929832458496
16	105.60010504722595	pulse	0	t		14.0	2.5	blank	1.0	137.0156581401825	
16	106.42415285110474	movie	1		300	14.0	2.5	blank	1.0	137.83970594406128	2.5004570484161377
16	107.1995358467102	pulse	1	t		14.0	2.5	blank	1.0	138.61508893966675	
16	108.79961895942688	pulse	1	t		14.0	2.5	blank	1.0	140.21517205238342	
16	108.92460989952087	fix_post	2		12	14.0	2.5	blank	1.0	140.34016299247742	0.09991908073425293
17	109.02452898025513	fix_pre	0		120	15.0	2.5	/experiments/knapen_AOT/AOT_stimuli/rescaled_final/0744_rv.mp4	0.0	140.44008207321167	1.0001270771026611
17	110.02465605735779	movie	1		243	15.0	2.5	/experiments/knapen_AOT/AOT_stimuli/rescaled_final/0744_rv.mp4	0.0	141.44020915031433	2.492039918899536
17	110.3998498916626	pulse	1	t		15.0	2.5	/experiments/knapen_AOT/AOT_stimuli/rescaled_final/0744_rv.mp4	0.0	141.81540298461914	
17	112.00022006034851	pulse	1	t		15.0	2.5	/experiments/knapen_AOT/AOT_stimuli/rescaled_final/0744_rv.mp4	0.0	143.41577315330505	
17	112.51669597625732	fix_post	2		12	15.0	2.5	/experiments/knapen_AOT/AOT_stimuli/rescaled_final/0744_rv.mp4	0.0	143.93224906921387	0.10002708435058594
18	112.61672306060791	fix_pre	0		119	16.0	2.5	/experiments/knapen_AOT/AOT_stimuli/rescaled_final/0008_fw.mp4	0.0	144.03227615356445	0.9918279647827148
18	113.60037803649902	pulse	0	t		16.0	2.5	/experiments/knapen_AOT/AOT_stimuli/rescaled_final/0008_fw.mp4	0.0	145.01593112945557	
18	113.60855102539062	movie	1		244	16.0	2.5	/experiments/knapen_AOT/AOT_stimuli/rescaled_final/0008_fw.mp4	0.0	145.02410411834717	2.508692979812622
18	115.2013030052185	pulse	1	t		16.0	2.5	/experiments/knapen_AOT/AOT_stimuli/rescaled_final/0008_fw.mp4	0.0	146.61685609817505	
18	116.11724400520325	fix_post	2		12	16.0	2.5	/experiments/knapen_AOT/AOT_stimuli/rescaled_final/0008_fw.mp4	0.0	147.5327970981598	0.10002589225769043
19	116.21726989746094	fix_pre	0		120	17.0	2.5	/experiments/knapen_AOT/AOT_stimuli/rescaled_final/0927_rv.mp4	0.0	147.63282299041748	1.0001261234283447
19	116.80087184906006	pulse	0	t		17.0	2.5	/experiments/knapen_AOT/AOT_stimuli/rescaled_final/0927_rv.mp4	0.0	148.2164249420166	
19	117.21739602088928	movie	1		243	17.0	2.5	/experiments/knapen_AOT/AOT_stimuli/rescaled_final/0927_rv.mp4	0.0	148.63294911384583	2.500391960144043
19	118.40121793746948	pulse	1	t		17.0	2.5	/experiments/knapen_AOT/AOT_stimuli/rescaled_final/0927_rv.mp4	0.0	149.81677103042603	
19	119.71778798103333	fix_post	2		12	17.0	2.5	/experiments/knapen_AOT/AOT_stimuli/rescaled_final/0927_rv.mp4	0.0	151.13334107398987	0.10001897811889648
20	119.81780695915222	fix_pre	0		120	18.0	2.5	/experiments/knapen_AOT/AOT_stimuli/rescaled_final/1143_fw.mp4	0.0	151.23336005210876	1.0001380443572998
20	120.00135493278503	pulse	0	t		18.0	2.5	/experiments/knapen_AOT/AOT_stimuli/rescaled_final/1143_fw.mp4	0.0	151.41690802574158	
20	120.81794500350952	movie	1		244	18.0	2.5	/experiments/knapen_AOT/AOT_stimuli/rescaled_final/1143_fw.mp4	0.0	152.23349809646606	2.500361919403076
20	121.60158586502075	pulse	1	t		18.0	2.5	/experiments/knapen_AOT/AOT_stimuli/rescaled_final/1143_fw.mp4	0.0	153.0171389579773	
20	123.20319700241089	pulse	1	t		18.0	2.5	/experiments/knapen_AOT/AOT_stimuli/rescaled_final/1143_fw.mp4	0.0	154.61875009536743	
20	123.3183069229126	fix_post	2		12	18.0	2.5	/experiments/knapen_AOT/AOT_stimuli/rescaled_final/1143_fw.mp4	0.0	154.73386001586914	0.10004091262817383
21	123.41834783554077	fix_pre	0		120	19.0	2.5	/experiments/knapen_AOT/AOT_stimuli/rescaled_final/0158_fw.mp4	0.0	154.83390092849731	1.0001821517944336
21	124.4185299873352	movie	1		242	19.0	2.5	/experiments/knapen_AOT/AOT_stimuli/rescaled_final/0158_fw.mp4	0.0	155.83408308029175	2.4919919967651367
21	124.80262303352356	pulse	1	t		19.0	2.5	/experiments/knapen_AOT/AOT_stimuli/rescaled_final/0158_fw.mp4	0.0	156.2181761264801	
21	126.4024269580841	pulse	1	t		19.0	2.5	/experiments/knapen_AOT/AOT_stimuli/rescaled_final/0158_fw.mp4	0.0	157.81798005104065	
21	126.91052198410034	fix_post	2		12	19.0	2.5	/experiments/knapen_AOT/AOT_stimuli/rescaled_final/0158_fw.mp4	0.0	158.32607507705688	0.10005497932434082
22	127.01057696342468	fix_pre	0		120	20.0	2.5	/experiments/knapen_AOT/AOT_stimuli/rescaled_final/0293_fw.mp4	0.0	158.42613005638123	1.0001170635223389
22	128.00256299972534	pulse	0	t		20.0	2.5	/experiments/knapen_AOT/AOT_stimuli/rescaled_final/0293_fw.mp4	0.0	159.41811609268188	
22	128.01069402694702	movie	1		244	20.0	2.5	/experiments/knapen_AOT/AOT_stimuli/rescaled_final/0293_fw.mp4	0.0	159.42624711990356	2.508685827255249
22	129.60416102409363	pulse	1	t		20.0	2.5	/experiments/knapen_AOT/AOT_stimuli/rescaled_final/0293_fw.mp4	0.0	161.01971411705017	
22	130.51937985420227	fix_post	2		12	20.0	2.5	/experiments/knapen_AOT/AOT_stimuli/rescaled_final/0293_fw.mp4	0.0	161.9349329471588	0.10004210472106934
23	130.61942195892334	fix_pre	0		120	21.0	2.5	blank	1.0	162.03497505187988	1.000140905380249
23	131.2030429840088	pulse	0	t		21.0	2.5	blank	1.0	162.61859607696533	
23	131.6195628643036	movie	1		300	21.0	2.5	blank	1.0	163.03511595726013	2.500391960144043
23	132.8033299446106	pulse	1	t		21.0	2.5	blank	1.0	164.21888303756714	
23	134.11995482444763	fix_post	2		12	21.0	2.5	blank	1.0	165.53550791740417	0.10001301765441895
24	134.21996784210205	fix_pre	0		120	22.0	2.5	/experiments/knapen_AOT/AOT_stimuli/rescaled_final/1600_fw.mp4	0.0	165.6355209350586	1.000169038772583
24	134.40353798866272	pulse	0	t		22.0	2.5	/experiments/knapen_AOT/AOT_stimuli/rescaled_final/1600_fw.mp4	0.0	165.81909108161926	
24	135.22013688087463	movie	1		244	22.0	2.5	/experiments/knapen_AOT/AOT_stimuli/rescaled_final/1600_fw.mp4	0.0	166.63568997383118	2.5003459453582764
24	136.0037338733673	pulse	1	t		22.0	2.5	/experiments/knapen_AOT/AOT_stimuli/rescaled_final/1600_fw.mp4	0.0	167.41928696632385	
24	137.60427689552307	pulse	1	t		22.0	2.5	/experiments/knapen_AOT/AOT_stimuli/rescaled_final/1600_fw.mp4	0.0	169.01982998847961	
24	137.7204828262329	fix_post	2		12	22.0	2.5	/experiments/knapen_AOT/AOT_stimuli/rescaled_final/1600_fw.mp4	0.0	169.13603591918945	0.0999910831451416
25	137.82047390937805	fix_pre	0		119	23.0	2.5	/experiments/knapen_AOT/AOT_stimuli/rescaled_final/1225_rv.mp4	0.0	169.2360270023346	0.9918241500854492
25	138.8122980594635	movie	1		244	23.0	2.5	/experiments/knapen_AOT/AOT_stimuli/rescaled_final/1225_rv.mp4	0.0	170.22785115242004	2.5003509521484375
25	139.20428800582886	pulse	1	t		23.0	2.5	/experiments/knapen_AOT/AOT_stimuli/rescaled_final/1225_rv.mp4	0.0	170.6198410987854	
25	140.80458998680115	pulse	1	t		23.0	2.5	/experiments/knapen_AOT/AOT_stimuli/rescaled_final/1225_rv.mp4	0.0	172.2201430797577	
25	141.31264901161194	fix_post	2		12	23.0	2.5	/experiments/knapen_AOT/AOT_stimuli/rescaled_final/1225_rv.mp4	0.0	172.72820210456848	0.10003185272216797
26	141.4126808643341	fix_pre	0		120	24.0	2.5	/experiments/knapen_AOT/AOT_stimuli/rescaled_final/1939_fw.mp4	0.0	172.82823395729065	1.0001521110534668
26	142.4046950340271	pulse	0	t		24.0	2.5	/experiments/knapen_AOT/AOT_stimuli/rescaled_final/1939_fw.mp4	0.0	173.82024812698364	
26	142.41283297538757	movie	1		245	24.0	2.5	/experiments/knapen_AOT/AOT_stimuli/rescaled_final/1939_fw.mp4	0.0	173.82838606834412	2.5087220668792725
26	144.005961894989	pulse	1	t		24.0	2.5	/experiments/knapen_AOT/AOT_stimuli/rescaled_final/1939_fw.mp4	0.0	175.42151498794556	
26	144.92155504226685	fix_post	2		12	24.0	2.5	/experiments/knapen_AOT/AOT_stimuli/rescaled_final/1939_fw.mp4	0.0	176.3371081352234	0.10000801086425781
27	145.0215630531311	fix_pre	0		120	25.0	2.5	/experiments/knapen_AOT/AOT_stimuli/rescaled_final/1753_fw.mp4	0.0	176.43711614608765	1.0001637935638428
27	145.6052849292755	pulse	0	t		25.0	2.5	/experiments/knapen_AOT/AOT_stimuli/rescaled_final/1753_fw.mp4	0.0	177.02083802223206	
27	146.02172684669495	movie	1		243	25.0	2.5	/experiments/knapen_AOT/AOT_stimuli/rescaled_final/1753_fw.mp4	0.0	177.4372799396515	2.500383138656616
27	147.20548486709595	pulse	1	t		25.0	2.5	/experiments/knapen_AOT/AOT_stimuli/rescaled_final/1753_fw.mp4	0.0	178.6210379600525	
27	148.52210998535156	fix_post	2		12	25.0	2.5	/experiments/knapen_AOT/AOT_stimuli/rescaled_final/1753_fw.mp4	0.0	179.9376630783081	0.0999898910522461
28	148.6220998764038	fix_pre	0		120	26.0	2.5	blank	1.0	180.03765296936035	1.00018310546875
28	148.80571794509888	pulse	0	t		26.0	2.5	blank	1.0	180.22127103805542	
28	149.62228298187256	movie	1		300	26.0	2.5	blank	1.0	181.0378360748291	2.5003490447998047
28	150.40584993362427	pulse	1	t		26.0	2.5	blank	1.0	181.8214030265808	
28	152.00611996650696	pulse	1	t		26.0	2.5	blank	1.0	183.4216730594635	
28	152.12263202667236	fix_post	2		12	26.0	2.5	blank	1.0	183.5381851196289	0.10001087188720703
29	152.22264289855957	fix_pre	0		120	27.0	2.5	/experiments/knapen_AOT/AOT_stimuli/rescaled_final/2043_rv.mp4	0.0	183.6381959915161	1.0001540184020996
29	153.22279691696167	movie	1		243	27.0	2.5	/experiments/knapen_AOT/AOT_stimuli/rescaled_final/2043_rv.mp4	0.0	184.6383500099182	2.492008924484253
29	153.60758185386658	pulse	1	t		27.0	2.5	/experiments/knapen_AOT/AOT_stimuli/rescaled_final/2043_rv.mp4	0.0	185.02313494682312	
29	155.19931387901306	pulse	1	t		27.0	2.5	/experiments/knapen_AOT/AOT_stimuli/rescaled_final/2043_rv.mp4	0.0	186.6148669719696	
29	155.71480584144592	fix_post	2		12	27.0	2.5	/experiments/knapen_AOT/AOT_stimuli/rescaled_final/2043_rv.mp4	0.0	187.13035893440247	0.10004615783691406
30	155.81485199928284	fix_pre	0		120	28.0	2.5	/experiments/knapen_AOT/AOT_stimuli/rescaled_final/0526_rv.mp4	0.0	187.23040509223938	1.0001850128173828
30	156.79958200454712	pulse	0	t		28.0	2.5	/experiments/knapen_AOT/AOT_stimuli/rescaled_final/0526_rv.mp4	0.0	188.21513509750366	
30	156.81503701210022	movie	1		245	28.0	2.5	/experiments/knapen_AOT/AOT_stimuli/rescaled_final/0526_rv.mp4	0.0	188.23059010505676	2.50872802734375
30	158.41105699539185	pulse	1	t		28.0	2.5	/experiments/knapen_AOT/AOT_stimuli/rescaled_final/0526_rv.mp4	0.0	189.8266100883484	
30	159.32376503944397	fix_post	2		10	28.0	2.5	/experiments/knapen_AOT/AOT_stimuli/rescaled_final/0526_rv.mp4	0.0	190.7393181324005	0.0999748706817627
31	159.42373991012573	fix_pre	0		120	29.0	2.5	/experiments/knapen_AOT/AOT_stimuli/rescaled_final/1224_rv.mp4	0.0	190.83929300308228	1.0001239776611328
31	159.99915099143982	pulse	0	t		29.0	2.5	/experiments/knapen_AOT/AOT_stimuli/rescaled_final/1224_rv.mp4	0.0	191.41470408439636	
31	160.42386388778687	movie	1		244	29.0	2.5	/experiments/knapen_AOT/AOT_stimuli/rescaled_final/1224_rv.mp4	0.0	191.8394169807434	2.5003490447998047
31	161.59951996803284	pulse	1	t		29.0	2.5	/experiments/knapen_AOT/AOT_stimuli/rescaled_final/1224_rv.mp4	0.0	193.01507306098938	
31	162.92421293258667	fix_post	2		12	29.0	2.5	/experiments/knapen_AOT/AOT_stimuli/rescaled_final/1224_rv.mp4	0.0	194.3397660255432	0.10007691383361816
32	163.0242898464203	fix_pre	0		120	30.0	2.5	/experiments/knapen_AOT/AOT_stimuli/rescaled_final/0457_rv.mp4	0.0	194.43984293937683	1.0001871585845947
32	163.19945096969604	pulse	0	t		30.0	2.5	/experiments/knapen_AOT/AOT_stimuli/rescaled_final/0457_rv.mp4	0.0	194.6150040626526	
32	164.02447700500488	movie	1		244	30.0	2.5	/experiments/knapen_AOT/AOT_stimuli/rescaled_final/0457_rv.mp4	0.0	195.44003009796143	2.5002999305725098
32	164.79990601539612	pulse	1	t		30.0	2.5	/experiments/knapen_AOT/AOT_stimuli/rescaled_final/0457_rv.mp4	0.0	196.21545910835266	
32	166.39990186691284	pulse	1	t		30.0	2.5	/experiments/knapen_AOT/AOT_stimuli/rescaled_final/0457_rv.mp4	0.0	197.81545495986938	
32	166.5247769355774	fix_post	2		11	30.0	2.5	/experiments/knapen_AOT/AOT_stimuli/rescaled_final/0457_rv.mp4	0.0	197.94033002853394	0.09170198440551758
33	166.6164789199829	fix_pre	0		120	31.0	2.5	/experiments/knapen_AOT/AOT_stimuli/rescaled_final/1599_rv.mp4	0.0	198.03203201293945	1.0001389980316162
33	167.61661791801453	movie	1		243	31.0	2.5	/experiments/knapen_AOT/AOT_stimuli/rescaled_final/1599_rv.mp4	0.0	199.03217101097107	2.5003631114959717
33	168.00064206123352	pulse	1	t		31.0	2.5	/experiments/knapen_AOT/AOT_stimuli/rescaled_final/1599_rv.mp4	0.0	199.41619515419006	
33	169.60048484802246	pulse	1	t		31.0	2.5	/experiments/knapen_AOT/AOT_stimuli/rescaled_final/1599_rv.mp4	0.0	201.016037940979	
33	170.1169810295105	fix_post	2		12	31.0	2.5	/experiments/knapen_AOT/AOT_stimuli/rescaled_final/1599_rv.mp4	0.0	201.53253412246704	0.10008692741394043
34	170.21706795692444	fix_pre	0		119	32.0	2.5	/experiments/knapen_AOT/AOT_stimuli/rescaled_final/0927_rv.mp4	0.0	201.63262104988098	0.9917330741882324
34	171.2007508277893	pulse	0	t		32.0	2.5	/experiments/knapen_AOT/AOT_stimuli/rescaled_final/0927_rv.mp4	0.0	202.61630392074585	
34	171.20880103111267	movie	1		244	32.0	2.5	/experiments/knapen_AOT/AOT_stimuli/rescaled_final/0927_rv.mp4	0.0	202.6243541240692	2.508739948272705
34	172.8014030456543	pulse	1	t		32.0	2.5	/experiments/knapen_AOT/AOT_stimuli/rescaled_final/0927_rv.mp4	0.0	204.21695613861084	
34	173.71754097938538	fix_post	2		12	32.0	2.5	/experiments/knapen_AOT/AOT_stimuli/rescaled_final/0927_rv.mp4	0.0	205.13309407234192	0.10002303123474121
35	173.81756401062012	fix_pre	0		120	33.0	2.5	/experiments/knapen_AOT/AOT_stimuli/rescaled_final/0305_fw.mp4	0.0	205.23311710357666	1.0001249313354492
35	174.40118503570557	pulse	0	t		33.0	2.5	/experiments/knapen_AOT/AOT_stimuli/rescaled_final/0305_fw.mp4	0.0	205.8167381286621	
35	174.81768894195557	movie	1		243	33.0	2.5	/experiments/knapen_AOT/AOT_stimuli/rescaled_final/0305_fw.mp4	0.0	206.2332420349121	2.5003490447998047
35	176.0015468597412	pulse	1	t		33.0	2.5	/experiments/knapen_AOT/AOT_stimuli/rescaled_final/0305_fw.mp4	0.0	207.41709995269775	
35	177.31803798675537	fix_post	2		12	33.0	2.5	/experiments/knapen_AOT/AOT_stimuli/rescaled_final/0305_fw.mp4	0.0	208.7335910797119	0.1000208854675293
36	177.4180588722229	fix_pre	0		120	34.0	2.5	/experiments/knapen_AOT/AOT_stimuli/rescaled_final/0726_fw.mp4	0.0	208.83361196517944	1.0001680850982666
36	177.60162091255188	pulse	0	t		34.0	2.5	/experiments/knapen_AOT/AOT_stimuli/rescaled_final/0726_fw.mp4	0.0	209.01717400550842	
36	178.41822695732117	movie	1		246	34.0	2.5	/experiments/knapen_AOT/AOT_stimuli/rescaled_final/0726_fw.mp4	0.0	209.8337800502777	2.5003669261932373
36	179.20183300971985	pulse	1	t		34.0	2.5	/experiments/knapen_AOT/AOT_stimuli/rescaled_final/0726_fw.mp4	0.0	210.6173861026764	
36	180.80233001708984	pulse	1	t		34.0	2.5	/experiments/knapen_AOT/AOT_stimuli/rescaled_final/0726_fw.mp4	0.0	212.2178831100464	
36	180.9185938835144	fix_post	2		12	34.0	2.5	/experiments/knapen_AOT/AOT_stimuli/rescaled_final/0726_fw.mp4	0.0	212.33414697647095	0.10003900527954102
37	181.01863288879395	fix_pre	0		120	35.0	2.5	blank	1.0	212.4341859817505	1.0001499652862549
37	182.0187828540802	movie	1		299	35.0	2.5	blank	1.0	213.43433594703674	2.492043972015381
37	182.40235996246338	pulse	1	t		35.0	2.5	blank	1.0	213.81791305541992	
37	184.00271892547607	pulse	1	t		35.0	2.5	blank	1.0	215.41827201843262	
37	184.51082682609558	fix_post	2		12	35.0	2.5	blank	1.0	215.92637991905212	0.09999608993530273
38	184.61082291603088	fix_pre	0		120	36.0	2.5	/experiments/knapen_AOT/AOT_stimuli/rescaled_final/2040_fw.mp4	0.0	216.02637600898743	1.0001590251922607
38	185.60293197631836	pulse	0	t		36.0	2.5	/experiments/knapen_AOT/AOT_stimuli/rescaled_final/2040_fw.mp4	0.0	217.0184850692749	
38	185.61098194122314	movie	1		247	36.0	2.5	/experiments/knapen_AOT/AOT_stimuli/rescaled_final/2040_fw.mp4	0.0	217.0265350341797	2.5087029933929443
38	187.20404601097107	pulse	1	t		36.0	2.5	/experiments/knapen_AOT/AOT_stimuli/rescaled_final/2040_fw.mp4	0.0	218.6195991039276	
38	188.1196849346161	fix_post	2		12	36.0	2.5	/experiments/knapen_AOT/AOT_stimuli/rescaled_final/2040_fw.mp4	0.0	219.53523802757263	0.09999489784240723
39	188.2196798324585	fix_pre	0		120	37.0	2.5	/experiments/knapen_AOT/AOT_stimuli/rescaled_final/0305_rv.mp4	0.0	219.63523292541504	1.0001580715179443
39	188.8032989501953	pulse	0	t		37.0	2.5	/experiments/knapen_AOT/AOT_stimuli/rescaled_final/0305_rv.mp4	0.0	220.21885204315186	
39	189.21983790397644	movie	1		243	37.0	2.5	/experiments/knapen_AOT/AOT_stimuli/rescaled_final/0305_rv.mp4	0.0	220.63539099693298	2.5003790855407715
39	190.39937901496887	pulse	1	t		37.0	2.5	/experiments/knapen_AOT/AOT_stimuli/rescaled_final/0305_rv.mp4	0.0	221.81493210792542	
39	191.7202169895172	fix_post	2		12	37.0	2.5	/experiments/knapen_AOT/AOT_stimuli/rescaled_final/0305_rv.mp4	0.0	223.13577008247375	0.10001087188720703
40	191.82022786140442	fix_pre	0		120	38.0	2.5	/experiments/knapen_AOT/AOT_stimuli/rescaled_final/2022_rv.mp4	0.0	223.23578095436096	1.0001630783081055
40	192.00375890731812	pulse	0	t		38.0	2.5	/experiments/knapen_AOT/AOT_stimuli/rescaled_final/2022_rv.mp4	0.0	223.41931200027466	
40	192.82039093971252	movie	1		244	38.0	2.5	/experiments/knapen_AOT/AOT_stimuli/rescaled_final/2022_rv.mp4	0.0	224.23594403266907	2.5003440380096436
40	193.60405898094177	pulse	1	t		38.0	2.5	/experiments/knapen_AOT/AOT_stimuli/rescaled_final/2022_rv.mp4	0.0	225.01961207389832	
40	195.204274892807	pulse	1	t		38.0	2.5	/experiments/knapen_AOT/AOT_stimuli/rescaled_final/2022_rv.mp4	0.0	226.61982798576355	
40	195.32073497772217	fix_post	2		12	38.0	2.5	/experiments/knapen_AOT/AOT_stimuli/rescaled_final/2022_rv.mp4	0.0	226.7362880706787	0.10000896453857422
41	195.42074394226074	fix_pre	0		120	39.0	2.5	/experiments/knapen_AOT/AOT_stimuli/rescaled_final/0137_fw.mp4	0.0	226.83629703521729	1.0001609325408936
41	196.42090487480164	movie	1		242	39.0	2.5	/experiments/knapen_AOT/AOT_stimuli/rescaled_final/0137_fw.mp4	0.0	227.83645796775818	2.4920670986175537
41	196.80517101287842	pulse	1	t		39.0	2.5	/experiments/knapen_AOT/AOT_stimuli/rescaled_final/0137_fw.mp4	0.0	228.22072410583496	
41	198.40479397773743	pulse	1	t		39.0	2.5	/experiments/knapen_AOT/AOT_stimuli/rescaled_final/0137_fw.mp4	0.0	229.82034707069397	
41	198.9129719734192	fix_post	2		12	39.0	2.5	/experiments/knapen_AOT/AOT_stimuli/rescaled_final/0137_fw.mp4	0.0	230.32852506637573	0.10002803802490234
42	199.0130000114441	fix_pre	0		120	40.0	2.5	/experiments/knapen_AOT/AOT_stimuli/rescaled_final/0436_fw.mp4	0.0	230.42855310440063	1.0001139640808105
42	200.00492787361145	pulse	0	t		40.0	2.5	/experiments/knapen_AOT/AOT_stimuli/rescaled_final/0436_fw.mp4	0.0	231.420480966568	
42	200.0131139755249	movie	1		245	40.0	2.5	/experiments/knapen_AOT/AOT_stimuli/rescaled_final/0436_fw.mp4	0.0	231.42866706848145	2.5087149143218994
42	201.60596299171448	pulse	1	t		40.0	2.5	/experiments/knapen_AOT/AOT_stimuli/rescaled_final/0436_fw.mp4	0.0	233.02151608467102	
42	202.5218288898468	fix_post	2		12	40.0	2.5	/experiments/knapen_AOT/AOT_stimuli/rescaled_final/0436_fw.mp4	0.0	233.93738198280334	0.10003113746643066
43	202.62186002731323	fix_pre	0		120	41.0	2.5	/experiments/knapen_AOT/AOT_stimuli/rescaled_final/0494_fw.mp4	0.0	234.03741312026978	1.0001559257507324
43	203.2054250240326	pulse	0	t		41.0	2.5	/experiments/knapen_AOT/AOT_stimuli/rescaled_final/0494_fw.mp4	0.0	234.62097811698914	
43	203.62201595306396	movie	1		243	41.0	2.5	/experiments/knapen_AOT/AOT_stimuli/rescaled_final/0494_fw.mp4	0.0	235.0375690460205	2.5003440380096436
43	204.80577492713928	pulse	1	t		41.0	2.5	/experiments/knapen_AOT/AOT_stimuli/rescaled_final/0494_fw.mp4	0.0	236.22132802009583	
43	206.1223599910736	fix_post	2		12	41.0	2.5	/experiments/knapen_AOT/AOT_stimuli/rescaled_final/0494_fw.mp4	0.0	237.53791308403015	0.10001707077026367
44	206.22237706184387	fix_pre	0		120	42.0	2.5	blank	1.0	237.63793015480042	1.0002567768096924
44	206.40589499473572	pulse	0	t		42.0	2.5	blank	1.0	237.82144808769226	
44	207.22263383865356	movie	1		300	42.0	2.5	blank	1.0	238.6381869316101	2.5003230571746826
44	208.0063078403473	pulse	1	t		42.0	2.5	blank	1.0	239.42186093330383	
44	209.60637092590332	pulse	1	t		42.0	2.5	blank	1.0	241.02192401885986	
44	209.72295689582825	fix_post	2		12	42.0	2.5	blank	1.0	241.1385099887848	0.09993600845336914
45	209.82289290428162	fix_pre	0		119	43.0	2.5	/experiments/knapen_AOT/AOT_stimuli/rescaled_final/0735_fw.mp4	0.0	241.23844599723816	0.9918420314788818
45	210.8147349357605	movie	1		246	43.0	2.5	/experiments/knapen_AOT/AOT_stimuli/rescaled_final/0735_fw.mp4	0.0	242.23028802871704	2.500364065170288
45	211.20678687095642	pulse	1	t		43.0	2.5	/experiments/knapen_AOT/AOT_stimuli/rescaled_final/0735_fw.mp4	0.0	242.62233996391296	
45	212.80688285827637	pulse	1	t		43.0	2.5	/experiments/knapen_AOT/AOT_stimuli/rescaled_final/0735_fw.mp4	0.0	244.2224359512329	
45	213.3150990009308	fix_post	2		12	43.0	2.5	/experiments/knapen_AOT/AOT_stimuli/rescaled_final/0735_fw.mp4	0.0	244.73065209388733	0.10003185272216797
46	213.41513085365295	fix_pre	0		120	44.0	2.5	/experiments/knapen_AOT/AOT_stimuli/rescaled_final/0709_fw.mp4	0.0	244.8306839466095	1.0001389980316162
46	214.3996639251709	pulse	0	t		44.0	2.5	/experiments/knapen_AOT/AOT_stimuli/rescaled_final/0709_fw.mp4	0.0	245.81521701812744	
46	214.41526985168457	movie	1		245	44.0	2.5	/experiments/knapen_AOT/AOT_stimuli/rescaled_final/0709_fw.mp4	0.0	245.8308229446411	2.508686065673828
46	216.00846791267395	pulse	1	t		44.0	2.5	/experiments/knapen_AOT/AOT_stimuli/rescaled_final/0709_fw.mp4	0.0	247.4240210056305	
46	216.9239559173584	fix_post	2		12	44.0	2.5	/experiments/knapen_AOT/AOT_stimuli/rescaled_final/0709_fw.mp4	0.0	248.33950901031494	0.10005593299865723
47	217.02401185035706	fix_pre	0		120	45.0	2.5	/experiments/knapen_AOT/AOT_stimuli/rescaled_final/0765_rv.mp4	0.0	248.4395649433136	1.0001511573791504
47	217.60021805763245	pulse	0	t		45.0	2.5	/experiments/knapen_AOT/AOT_stimuli/rescaled_final/0765_rv.mp4	0.0	249.015771150589	
47	218.0241630077362	movie	1		244	45.0	2.5	/experiments/knapen_AOT/AOT_stimuli/rescaled_final/0765_rv.mp4	0.0	249.43971610069275	2.5003628730773926
47	219.20446491241455	pulse	1	t		45.0	2.5	/experiments/knapen_AOT/AOT_stimuli/rescaled_final/0765_rv.mp4	0.0	250.6200180053711	
47	220.5245258808136	fix_post	2		12	45.0	2.5	/experiments/knapen_AOT/AOT_stimuli/rescaled_final/0765_rv.mp4	0.0	251.94007897377014	0.10006403923034668
48	220.62458992004395	fix_pre	0		120	46.0	2.5	/experiments/knapen_AOT/AOT_stimuli/rescaled_final/0206_fw.mp4	0.0	252.0401430130005	1.0000789165496826
48	220.79980182647705	pulse	0	t		46.0	2.5	/experiments/knapen_AOT/AOT_stimuli/rescaled_final/0206_fw.mp4	0.0	252.2153549194336	
48	221.62466883659363	movie	1		244	46.0	2.5	/experiments/knapen_AOT/AOT_stimuli/rescaled_final/0206_fw.mp4	0.0	253.04022192955017	2.500401020050049
48	222.39991903305054	pulse	1	t		46.0	2.5	/experiments/knapen_AOT/AOT_stimuli/rescaled_final/0206_fw.mp4	0.0	253.81547212600708	
48	224.00022196769714	pulse	1	t		46.0	2.5	/experiments/knapen_AOT/AOT_stimuli/rescaled_final/0206_fw.mp4	0.0	255.4157750606537	
48	224.12506985664368	fix_post	2		12	46.0	2.5	/experiments/knapen_AOT/AOT_stimuli/rescaled_final/0206_fw.mp4	0.0	255.54062294960022	0.09998297691345215
49	224.22505283355713	fix_pre	0		119	47.0	2.5	/experiments/knapen_AOT/AOT_stimuli/rescaled_final/1955_fw.mp4	0.0	255.64060592651367	0.9918181896209717
49	225.2168710231781	movie	1		243	47.0	2.5	/experiments/knapen_AOT/AOT_stimuli/rescaled_final/1955_fw.mp4	0.0	256.63242411613464	2.500372886657715
49	225.60101103782654	pulse	1	t		47.0	2.5	/experiments/knapen_AOT/AOT_stimuli/rescaled_final/1955_fw.mp4	0.0	257.0165641307831	
49	227.20065903663635	pulse	1	t		47.0	2.5	/experiments/knapen_AOT/AOT_stimuli/rescaled_final/1955_fw.mp4	0.0	258.6162121295929	
49	227.71724390983582	fix_post	2		12	47.0	2.5	/experiments/knapen_AOT/AOT_stimuli/rescaled_final/1955_fw.mp4	0.0	259.13279700279236	0.10004496574401855
50	227.81728887557983	fix_pre	0		119	48.0	2.5	/experiments/knapen_AOT/AOT_stimuli/rescaled_final/0437_rv.mp4	0.0	259.2328419685364	0.9918160438537598
50	228.8009009361267	pulse	0	t		48.0	2.5	/experiments/knapen_AOT/AOT_stimuli/rescaled_final/0437_rv.mp4	0.0	260.21645402908325	
50	228.8091049194336	movie	1		244	48.0	2.5	/experiments/knapen_AOT/AOT_stimuli/rescaled_final/0437_rv.mp4	0.0	260.22465801239014	2.5087060928344727
50	230.40172600746155	pulse	1	t		48.0	2.5	/experiments/knapen_AOT/AOT_stimuli/rescaled_final/0437_rv.mp4	0.0	261.8172791004181	
50	231.31781101226807	fix_post	2		12	48.0	2.5	/experiments/knapen_AOT/AOT_stimuli/rescaled_final/0437_rv.mp4	0.0	262.7333641052246	0.09998393058776855
51	231.41779494285583	fix_pre	0		120	49.0	2.5	blank	1.0	262.8333480358124	1.000154972076416
51	232.00145292282104	pulse	0	t		49.0	2.5	blank	1.0	263.4170060157776	
51	232.41794991493225	movie	1		300	49.0	2.5	blank	1.0	263.8335030078888	2.500378131866455
51	233.6016628742218	pulse	1	t		49.0	2.5	blank	1.0	265.01721596717834	
51	234.9183280467987	fix_post	2		12	49.0	2.5	blank	1.0	266.33388113975525	0.09999394416809082
52	235.0183219909668	fix_pre	0		120	50.0	2.5	/experiments/knapen_AOT/AOT_stimuli/rescaled_final/1939_rv.mp4	0.0	266.43387508392334	1.0001749992370605
52	235.20190405845642	pulse	0	t		50.0	2.5	/experiments/knapen_AOT/AOT_stimuli/rescaled_final/1939_rv.mp4	0.0	266.61745715141296	
52	236.01849699020386	movie	1		244	50.0	2.5	/experiments/knapen_AOT/AOT_stimuli/rescaled_final/1939_rv.mp4	0.0	267.4340500831604	2.5003578662872314
52	236.8022210597992	pulse	1	t		50.0	2.5	/experiments/knapen_AOT/AOT_stimuli/rescaled_final/1939_rv.mp4	0.0	268.21777415275574	
52	238.4026210308075	pulse	1	t		50.0	2.5	/experiments/knapen_AOT/AOT_stimuli/rescaled_final/1939_rv.mp4	0.0	269.81817412376404	
52	238.5188548564911	fix_post	2		12	50.0	2.5	/experiments/knapen_AOT/AOT_stimuli/rescaled_final/1939_rv.mp4	0.0	269.93440794944763	0.10004520416259766
53	238.6189000606537	fix_pre	0		119	51.0	2.5	/experiments/knapen_AOT/AOT_stimuli/rescaled_final/0233_rv.mp4	0.0	270.03445315361023	0.9917969703674316
53	239.61069703102112	movie	1		243	51.0	2.5	/experiments/knapen_AOT/AOT_stimuli/rescaled_final/0233_rv.mp4	0.0	271.02625012397766	2.5003650188446045
53	240.00277304649353	pulse	1	t		51.0	2.5	/experiments/knapen_AOT/AOT_stimuli/rescaled_final/0233_rv.mp4	0.0	271.4183261394501	
53	241.60279083251953	pulse	1	t		51.0	2.5	/experiments/knapen_AOT/AOT_stimuli/rescaled_final/0233_rv.mp4	0.0	273.0183439254761	
53	242.11106204986572	fix_post	2		12	51.0	2.5	/experiments/knapen_AOT/AOT_stimuli/rescaled_final/0233_rv.mp4	0.0	273.52661514282227	0.10004401206970215
54	242.21110606193542	fix_pre	0		120	52.0	2.5	/experiments/knapen_AOT/AOT_stimuli/rescaled_final/0709_rv.mp4	0.0	273.62665915489197	1.0001378059387207
54	243.20311498641968	pulse	0	t		52.0	2.5	/experiments/knapen_AOT/AOT_stimuli/rescaled_final/0709_rv.mp4	0.0	274.6186680793762	
54	243.21124386787415	movie	1		245	52.0	2.5	/experiments/knapen_AOT/AOT_stimuli/rescaled_final/0709_rv.mp4	0.0	274.6267969608307	2.5086770057678223
54	244.80381393432617	pulse	1	t		52.0	2.5	/experiments/knapen_AOT/AOT_stimuli/rescaled_final/0709_rv.mp4	0.0	276.2193670272827	
54	245.71992087364197	fix_post	2		12	52.0	2.5	/experiments/knapen_AOT/AOT_stimuli/rescaled_final/0709_rv.mp4	0.0	277.1354739665985	0.10003995895385742
55	245.81996083259583	fix_pre	0		120	53.0	2.5	/experiments/knapen_AOT/AOT_stimuli/rescaled_final/1522_fw.mp4	0.0	277.23551392555237	1.0001451969146729
55	246.40369486808777	pulse	0	t		53.0	2.5	/experiments/knapen_AOT/AOT_stimuli/rescaled_final/1522_fw.mp4	0.0	277.8192479610443	
55	246.8201060295105	movie	1		244	53.0	2.5	/experiments/knapen_AOT/AOT_stimuli/rescaled_final/1522_fw.mp4	0.0	278.23565912246704	2.5004568099975586
55	248.00382590293884	pulse	1	t		53.0	2.5	/experiments/knapen_AOT/AOT_stimuli/rescaled_final/1522_fw.mp4	0.0	279.4193789958954	
55	249.32056283950806	fix_post	2		12	53.0	2.5	/experiments/knapen_AOT/AOT_stimuli/rescaled_final/1522_fw.mp4	0.0	280.7361159324646	0.0999441146850586
56	249.42050695419312	fix_pre	0		120	54.0	2.5	/experiments/knapen_AOT/AOT_stimuli/rescaled_final/1051_fw.mp4	0.0	280.83606004714966	1.0001389980316162
56	249.60398387908936	pulse	0	t		54.0	2.5	/experiments/knapen_AOT/AOT_stimuli/rescaled_final/1051_fw.mp4	0.0	281.0195369720459	
56	250.42064595222473	movie	1		244	54.0	2.5	/experiments/knapen_AOT/AOT_stimuli/rescaled_final/1051_fw.mp4	0.0	281.8361990451813	2.50034499168396
56	251.20440292358398	pulse	1	t		54.0	2.5	/experiments/knapen_AOT/AOT_stimuli/rescaled_final/1051_fw.mp4	0.0	282.6199560165405	
56	252.8047239780426	pulse	1	t		54.0	2.5	/experiments/knapen_AOT/AOT_stimuli/rescaled_final/1051_fw.mp4	0.0	284.22027707099915	
56	252.9209909439087	fix_post	2		12	54.0	2.5	/experiments/knapen_AOT/AOT_stimuli/rescaled_final/1051_fw.mp4	0.0	284.33654403686523	0.10004806518554688
57	253.02103900909424	fix_pre	0		119	55.0	2.5	blank	1.0	284.4365921020508	0.9918169975280762
57	254.01285600662231	movie	1		300	55.0	2.5	blank	1.0	285.42840909957886	2.5003888607025146
57	254.40479683876038	pulse	1	t		55.0	2.5	blank	1.0	285.8203499317169	
57	256.0049409866333	pulse	1	t		55.0	2.5	blank	1.0	287.42049407958984	
57	256.51324486732483	fix_post	2		12	55.0	2.5	blank	1.0	287.9287979602814	0.09996414184570312
58	256.61320900917053	fix_pre	0		120	56.0	2.5	/experiments/knapen_AOT/AOT_stimuli/rescaled_final/1344_fw.mp4	0.0	288.0287621021271	1.0001699924468994
58	257.60527205467224	pulse	0	t		56.0	2.5	/experiments/knapen_AOT/AOT_stimuli/rescaled_final/1344_fw.mp4	0.0	289.0208251476288	
58	257.61337900161743	movie	1		245	56.0	2.5	/experiments/knapen_AOT/AOT_stimuli/rescaled_final/1344_fw.mp4	0.0	289.028932094574	2.5087029933929443
58	259.20594596862793	pulse	1	t		56.0	2.5	/experiments/knapen_AOT/AOT_stimuli/rescaled_final/1344_fw.mp4	0.0	290.6214990615845	
58	260.1220819950104	fix_post	2		12	56.0	2.5	/experiments/knapen_AOT/AOT_stimuli/rescaled_final/1344_fw.mp4	0.0	291.5376350879669	0.10009193420410156
59	260.2221739292145	fix_pre	0		120	57.0	2.5	/experiments/knapen_AOT/AOT_stimuli/rescaled_final/0980_fw.mp4	0.0	291.637727022171	1.000082015991211
59	260.8058168888092	pulse	0	t		57.0	2.5	/experiments/knapen_AOT/AOT_stimuli/rescaled_final/0980_fw.mp4	0.0	292.22136998176575	
59	261.2222559452057	movie	1		243	57.0	2.5	/experiments/knapen_AOT/AOT_stimuli/rescaled_final/0980_fw.mp4	0.0	292.63780903816223	2.5003459453582764
59	262.40601992607117	pulse	1	t		57.0	2.5	/experiments/knapen_AOT/AOT_stimuli/rescaled_final/0980_fw.mp4	0.0	293.8215730190277	
59	263.72260189056396	fix_post	2		12	57.0	2.5	/experiments/knapen_AOT/AOT_stimuli/rescaled_final/0980_fw.mp4	0.0	295.1381549835205	0.10005998611450195
60	263.82266187667847	fix_pre	0		120	58.0	2.5	/experiments/knapen_AOT/AOT_stimuli/rescaled_final/0462_fw.mp4	0.0	295.238214969635	1.0001311302185059
60	264.0062940120697	pulse	0	t		58.0	2.5	/experiments/knapen_AOT/AOT_stimuli/rescaled_final/0462_fw.mp4	0.0	295.42184710502625	
60	264.822793006897	movie	1		244	58.0	2.5	/experiments/knapen_AOT/AOT_stimuli/rescaled_final/0462_fw.mp4	0.0	296.2383460998535	2.500365972518921
60	265.6065950393677	pulse	1	t		58.0	2.5	/experiments/knapen_AOT/AOT_stimuli/rescaled_final/0462_fw.mp4	0.0	297.0221481323242	
60	267.2042679786682	pulse	1	t		58.0	2.5	/experiments/knapen_AOT/AOT_stimuli/rescaled_final/0462_fw.mp4	0.0	298.61982107162476	
60	267.3231589794159	fix_post	2		12	58.0	2.5	/experiments/knapen_AOT/AOT_stimuli/rescaled_final/0462_fw.mp4	0.0	298.73871207237244	0.10002303123474121
61	267.42318201065063	fix_pre	0		120	59.0	2.5	/experiments/knapen_AOT/AOT_stimuli/rescaled_final/1761_fw.mp4	0.0	298.8387351036072	1.000143051147461
61	268.4233250617981	movie	1		243	59.0	2.5	/experiments/knapen_AOT/AOT_stimuli/rescaled_final/1761_fw.mp4	0.0	299.83887815475464	2.4920477867126465
61	268.8074460029602	pulse	1	t		59.0	2.5	/experiments/knapen_AOT/AOT_stimuli/rescaled_final/1761_fw.mp4	0.0	300.22299909591675	
61	270.39981389045715	pulse	1	t		59.0	2.5	/experiments/knapen_AOT/AOT_stimuli/rescaled_final/1761_fw.mp4	0.0	301.8153669834137	
61	270.91537284851074	fix_post	2		12	59.0	2.5	/experiments/knapen_AOT/AOT_stimuli/rescaled_final/1761_fw.mp4	0.0	302.3309259414673	0.10003113746643066
62	271.0154039859772	fix_pre	0		120	60.0	2.5	/experiments/knapen_AOT/AOT_stimuli/rescaled_final/1678_fw.mp4	0.0	302.4309570789337	1.0001389980316162
62	272.00001096725464	pulse	0	t		60.0	2.5	/experiments/knapen_AOT/AOT_stimuli/rescaled_final/1678_fw.mp4	0.0	303.4155640602112	
62	272.0155429840088	movie	1		246	60.0	2.5	/experiments/knapen_AOT/AOT_stimuli/rescaled_final/1678_fw.mp4	0.0	303.43109607696533	2.5086610317230225
62	273.6080038547516	pulse	1	t		60.0	2.5	/experiments/knapen_AOT/AOT_stimuli/rescaled_final/1678_fw.mp4	0.0	305.02355694770813	
62	274.5242040157318	fix_post	2		12	60.0	2.5	/experiments/knapen_AOT/AOT_stimuli/rescaled_final/1678_fw.mp4	0.0	305.93975710868835	0.10004591941833496
63	274.62424993515015	fix_pre	0		120	61.0	2.5	/experiments/knapen_AOT/AOT_stimuli/rescaled_final/1920_rv.mp4	0.0	306.0398030281067	1.0001881122589111
63	275.19954204559326	pulse	0	t		61.0	2.5	/experiments/knapen_AOT/AOT_stimuli/rescaled_final/1920_rv.mp4	0.0	306.6150951385498	
63	275.62443804740906	movie	1		243	61.0	2.5	/experiments/knapen_AOT/AOT_stimuli/rescaled_final/1920_rv.mp4	0.0	307.0399911403656	2.500333786010742
63	276.8001129627228	pulse	1	t		61.0	2.5	/experiments/knapen_AOT/AOT_stimuli/rescaled_final/1920_rv.mp4	0.0	308.2156660556793	
63	278.1247718334198	fix_post	2		12	61.0	2.5	/experiments/knapen_AOT/AOT_stimuli/rescaled_final/1920_rv.mp4	0.0	309.54032492637634	0.1000361442565918
64	278.2248079776764	fix_pre	0		117	62.0	2.5	/experiments/knapen_AOT/AOT_stimuli/rescaled_final/1132_rv.mp4	0.0	309.64036107063293	1.0001368522644043
64	278.3999710083008	pulse	0	t		62.0	2.5	/experiments/knapen_AOT/AOT_stimuli/rescaled_final/1132_rv.mp4	0.0	309.8155241012573	
64	279.2249448299408	movie	1		245	62.0	2.5	/experiments/knapen_AOT/AOT_stimuli/rescaled_final/1132_rv.mp4	0.0	310.64049792289734	2.5004351139068604
64	280.0002279281616	pulse	1	t		62.0	2.5	/experiments/knapen_AOT/AOT_stimuli/rescaled_final/1132_rv.mp4	0.0	311.41578102111816	
64	281.60060691833496	pulse	1	t		62.0	2.5	/experiments/knapen_AOT/AOT_stimuli/rescaled_final/1132_rv.mp4	0.0	313.0161600112915	
64	281.72537994384766	fix_post	2		12	62.0	2.5	/experiments/knapen_AOT/AOT_stimuli/rescaled_final/1132_rv.mp4	0.0	313.1409330368042	0.09994292259216309
65	281.8253228664398	fix_pre	0		119	63.0	2.5	blank	1.0	313.24087595939636	0.9918451309204102
65	282.81716799736023	movie	1		300	63.0	2.5	blank	1.0	314.2327210903168	2.500365972518921
65	283.2007758617401	pulse	1	t		63.0	2.5	blank	1.0	314.61632895469666	
65	284.80091404914856	pulse	1	t		63.0	2.5	blank	1.0	316.2164671421051	
65	285.31753396987915	fix_post	2		12	63.0	2.5	blank	1.0	316.7330870628357	0.10002994537353516
66	285.4175639152527	fix_pre	0		119	64.0	2.5	/experiments/knapen_AOT/AOT_stimuli/rescaled_final/2133_fw.mp4	0.0	316.83311700820923	0.9917991161346436
66	286.40124893188477	pulse	0	t		64.0	2.5	/experiments/knapen_AOT/AOT_stimuli/rescaled_final/2133_fw.mp4	0.0	317.8168020248413	
66	286.40936303138733	movie	1		244	64.0	2.5	/experiments/knapen_AOT/AOT_stimuli/rescaled_final/2133_fw.mp4	0.0	317.8249161243439	2.5087008476257324
66	288.0025808811188	pulse	1	t		64.0	2.5	/experiments/knapen_AOT/AOT_stimuli/rescaled_final/2133_fw.mp4	0.0	319.4181339740753	
66	288.91806387901306	fix_post	2		12	64.0	2.5	/experiments/knapen_AOT/AOT_stimuli/rescaled_final/2133_fw.mp4	0.0	320.3336169719696	0.09999299049377441
67	289.01805686950684	fix_pre	0		120	65.0	2.5	/experiments/knapen_AOT/AOT_stimuli/rescaled_final/0267_rv.mp4	0.0	320.4336099624634	1.0001680850982666
67	289.601744890213	pulse	0	t		65.0	2.5	/experiments/knapen_AOT/AOT_stimuli/rescaled_final/0267_rv.mp4	0.0	321.01729798316956	
67	290.0182249546051	movie	1		246	65.0	2.5	/experiments/knapen_AOT/AOT_stimuli/rescaled_final/0267_rv.mp4	0.0	321.43377804756165	2.5003459453582764
67	291.20201301574707	pulse	1	t		65.0	2.5	/experiments/knapen_AOT/AOT_stimuli/rescaled_final/0267_rv.mp4	0.0	322.6175661087036	
67	292.5185708999634	fix_post	2		12	65.0	2.5	/experiments/knapen_AOT/AOT_stimuli/rescaled_final/0267_rv.mp4	0.0	323.9341239929199	0.10005903244018555
68	292.61862993240356	fix_pre	0		120	66.0	2.5	/experiments/knapen_AOT/AOT_stimuli/rescaled_final/0233_fw.mp4	0.0	324.0341830253601	1.000133991241455
68	292.8022599220276	pulse	0	t		66.0	2.5	/experiments/knapen_AOT/AOT_stimuli/rescaled_final/0233_fw.mp4	0.0	324.21781301498413	
68	293.618763923645	movie	1		243	66.0	2.5	/experiments/knapen_AOT/AOT_stimuli/rescaled_final/0233_fw.mp4	0.0	325.03431701660156	2.500370979309082
68	294.40240001678467	pulse	1	t		66.0	2.5	/experiments/knapen_AOT/AOT_stimuli/rescaled_final/0233_fw.mp4	0.0	325.8179531097412	
68	296.0025029182434	pulse	1	t		66.0	2.5	/experiments/knapen_AOT/AOT_stimuli/rescaled_final/0233_fw.mp4	0.0	327.41805601119995	
68	296.1191349029541	fix_post	2		12	66.0	2.5	/experiments/knapen_AOT/AOT_stimuli/rescaled_final/0233_fw.mp4	0.0	327.53468799591064	0.10000896453857422
69	296.2191438674927	fix_pre	0		120	67.0	2.5	/experiments/knapen_AOT/AOT_stimuli/rescaled_final/0454_rv.mp4	0.0	327.6346969604492	1.00018310546875
69	297.2193269729614	movie	1		243	67.0	2.5	/experiments/knapen_AOT/AOT_stimuli/rescaled_final/0454_rv.mp4	0.0	328.63488006591797	2.492008924484253
69	297.60340785980225	pulse	1	t		67.0	2.5	/experiments/knapen_AOT/AOT_stimuli/rescaled_final/0454_rv.mp4	0.0	329.0189609527588	
69	299.2031600475311	pulse	1	t		67.0	2.5	/experiments/knapen_AOT/AOT_stimuli/rescaled_final/0454_rv.mp4	0.0	330.61871314048767	
69	299.7113358974457	fix_post	2		12	67.0	2.5	/experiments/knapen_AOT/AOT_stimuli/rescaled_final/0454_rv.mp4	0.0	331.1268889904022	0.10003113746643066
70	299.8113670349121	fix_pre	0		120	68.0	2.5	/experiments/knapen_AOT/AOT_stimuli/rescaled_final/0425_fw.mp4	0.0	331.22692012786865	1.000154972076416
70	300.80340600013733	pulse	0	t		68.0	2.5	/experiments/knapen_AOT/AOT_stimuli/rescaled_final/0425_fw.mp4	0.0	332.2189590930939	
70	300.8115220069885	movie	1		245	68.0	2.5	/experiments/knapen_AOT/AOT_stimuli/rescaled_final/0425_fw.mp4	0.0	332.22707509994507	2.508702039718628
70	302.40513586997986	pulse	1	t		68.0	2.5	/experiments/knapen_AOT/AOT_stimuli/rescaled_final/0425_fw.mp4	0.0	333.8206889629364	
70	303.32022404670715	fix_post	2		12	68.0	2.5	/experiments/knapen_AOT/AOT_stimuli/rescaled_final/0425_fw.mp4	0.0	334.7357771396637	0.09999299049377441
71	303.4202170372009	fix_pre	0		120	69.0	2.5	blank	1.0	334.83577013015747	1.0001468658447266
71	304.00384283065796	pulse	0	t		69.0	2.5	blank	1.0	335.4193959236145	
71	304.42036390304565	movie	1		300	69.0	2.5	blank	1.0	335.8359169960022	2.500412940979004
71	305.6041100025177	pulse	1	t		69.0	2.5	blank	1.0	337.01966309547424	
71	306.92077684402466	fix_post	2		12	69.0	2.5	blank	1.0	338.3363299369812	0.09998106956481934
72	307.0207579135895	fix_pre	0		120	70.0	2.5	/experiments/knapen_AOT/AOT_stimuli/rescaled_final/1367_fw.mp4	0.0	338.436311006546	1.0001850128173828
72	307.20442605018616	pulse	0	t		70.0	2.5	/experiments/knapen_AOT/AOT_stimuli/rescaled_final/1367_fw.mp4	0.0	338.6199791431427	
72	308.02094292640686	movie	1		243	70.0	2.5	/experiments/knapen_AOT/AOT_stimuli/rescaled_final/1367_fw.mp4	0.0	339.4364960193634	2.5003340244293213
72	308.804566860199	pulse	1	t		70.0	2.5	/experiments/knapen_AOT/AOT_stimuli/rescaled_final/1367_fw.mp4	0.0	340.2201199531555	
72	310.4047679901123	pulse	1	t		70.0	2.5	/experiments/knapen_AOT/AOT_stimuli/rescaled_final/1367_fw.mp4	0.0	341.82032108306885	
72	310.5212769508362	fix_post	2		12	70.0	2.5	/experiments/knapen_AOT/AOT_stimuli/rescaled_final/1367_fw.mp4	0.0	341.9368300437927	0.10000991821289062
73	310.6212868690491	fix_pre	0		120	71.0	2.5	/experiments/knapen_AOT/AOT_stimuli/rescaled_final/1240_fw.mp4	0.0	342.0368399620056	1.0001630783081055
73	311.6214499473572	movie	1		244	71.0	2.5	/experiments/knapen_AOT/AOT_stimuli/rescaled_final/1240_fw.mp4	0.0	343.0370030403137	2.4920361042022705
73	312.00613594055176	pulse	1	t		71.0	2.5	/experiments/knapen_AOT/AOT_stimuli/rescaled_final/1240_fw.mp4	0.0	343.4216890335083	
73	313.60540103912354	pulse	1	t		71.0	2.5	/experiments/knapen_AOT/AOT_stimuli/rescaled_final/1240_fw.mp4	0.0	345.0209541320801	
73	314.11348605155945	fix_post	2		12	71.0	2.5	/experiments/knapen_AOT/AOT_stimuli/rescaled_final/1240_fw.mp4	0.0	345.529039144516	0.09999680519104004
74	314.2134828567505	fix_pre	0		120	72.0	2.5	/experiments/knapen_AOT/AOT_stimuli/rescaled_final/1667_fw.mp4	0.0	345.62903594970703	1.0001649856567383
74	315.2055208683014	pulse	0	t		72.0	2.5	/experiments/knapen_AOT/AOT_stimuli/rescaled_final/1667_fw.mp4	0.0	346.62107396125793	
74	315.2136478424072	movie	1		245	72.0	2.5	/experiments/knapen_AOT/AOT_stimuli/rescaled_final/1667_fw.mp4	0.0	346.62920093536377	2.508721113204956
74	316.8063509464264	pulse	1	t		72.0	2.5	/experiments/knapen_AOT/AOT_stimuli/rescaled_final/1667_fw.mp4	0.0	348.22190403938293	
74	317.7223689556122	fix_post	2		12	72.0	2.5	/experiments/knapen_AOT/AOT_stimuli/rescaled_final/1667_fw.mp4	0.0	349.1379220485687	0.09999489784240723
75	317.8223638534546	fix_pre	0		120	73.0	2.5	/experiments/knapen_AOT/AOT_stimuli/rescaled_final/0866_rv.mp4	0.0	349.23791694641113	1.0001649856567383
75	318.40596890449524	pulse	0	t		73.0	2.5	/experiments/knapen_AOT/AOT_stimuli/rescaled_final/0866_rv.mp4	0.0	349.8215219974518	
75	318.8225288391113	movie	1		244	73.0	2.5	/experiments/knapen_AOT/AOT_stimuli/rescaled_final/0866_rv.mp4	0.0	350.23808193206787	2.5003252029418945
75	320.006413936615	pulse	1	t		73.0	2.5	/experiments/knapen_AOT/AOT_stimuli/rescaled_final/0866_rv.mp4	0.0	351.42196702957153	
75	321.3228540420532	fix_post	2		12	73.0	2.5	/experiments/knapen_AOT/AOT_stimuli/rescaled_final/0866_rv.mp4	0.0	352.73840713500977	0.10004901885986328
76	321.4229030609131	fix_pre	0		120	74.0	2.5	/experiments/knapen_AOT/AOT_stimuli/rescaled_final/0028_rv.mp4	0.0	352.83845615386963	1.000229835510254
76	321.6065969467163	pulse	0	t		74.0	2.5	/experiments/knapen_AOT/AOT_stimuli/rescaled_final/0028_rv.mp4	0.0	353.02215003967285	
76	322.42313289642334	movie	1		244	74.0	2.5	/experiments/knapen_AOT/AOT_stimuli/rescaled_final/0028_rv.mp4	0.0	353.8386859893799	2.500343084335327
76	323.2066948413849	pulse	1	t		74.0	2.5	/experiments/knapen_AOT/AOT_stimuli/rescaled_final/0028_rv.mp4	0.0	354.62224793434143	
76	324.806725025177	pulse	1	t		74.0	2.5	/experiments/knapen_AOT/AOT_stimuli/rescaled_final/0028_rv.mp4	0.0	356.22227811813354	
76	324.92347598075867	fix_post	2		12	74.0	2.5	/experiments/knapen_AOT/AOT_stimuli/rescaled_final/0028_rv.mp4	0.0	356.3390290737152	0.0999898910522461
77	325.0234658718109	fix_pre	0		120	75.0	2.5	blank	1.0	356.43901896476746	1.0001380443572998
77	326.0236039161682	movie	1		299	75.0	2.5	blank	1.0	357.43915700912476	2.4920480251312256
77	326.40724897384644	pulse	1	t		75.0	2.5	blank	1.0	357.822802066803	
77	328.00757002830505	pulse	1	t		75.0	2.5	blank	1.0	359.4231231212616	
77	328.51565194129944	fix_post	2		12	75.0	2.5	blank	1.0	359.931205034256	0.09999895095825195
78	328.6156508922577	fix_pre	0		120	76.0	2.5	/experiments/knapen_AOT/AOT_stimuli/rescaled_final/1143_rv.mp4	0.0	360.03120398521423	1.0001740455627441
78	329.60018396377563	pulse	0	t		76.0	2.5	/experiments/knapen_AOT/AOT_stimuli/rescaled_final/1143_rv.mp4	0.0	361.0157370567322	
78	329.61582493782043	movie	1		246	76.0	2.5	/experiments/knapen_AOT/AOT_stimuli/rescaled_final/1143_rv.mp4	0.0	361.031378030777	2.508697986602783
78	331.20866990089417	pulse	1	t		76.0	2.5	/experiments/knapen_AOT/AOT_stimuli/rescaled_final/1143_rv.mp4	0.0	362.6242229938507	
78	332.1245229244232	fix_post	2		12	76.0	2.5	/experiments/knapen_AOT/AOT_stimuli/rescaled_final/1143_rv.mp4	0.0	363.54007601737976	0.10001111030578613
79	332.224534034729	fix_pre	0		120	77.0	2.5	/experiments/knapen_AOT/AOT_stimuli/rescaled_final/1425_fw.mp4	0.0	363.64008712768555	1.000128984451294
79	332.80048084259033	pulse	0	t		77.0	2.5	/experiments/knapen_AOT/AOT_stimuli/rescaled_final/1425_fw.mp4	0.0	364.2160339355469	
79	333.2246630191803	movie	1		247	77.0	2.5	/experiments/knapen_AOT/AOT_stimuli/rescaled_final/1425_fw.mp4	0.0	364.64021611213684	2.5003838539123535
79	334.40067195892334	pulse	1	t		77.0	2.5	/experiments/knapen_AOT/AOT_stimuli/rescaled_final/1425_fw.mp4	0.0	365.8162250518799	
79	335.72504687309265	fix_post	2		12	77.0	2.5	/experiments/knapen_AOT/AOT_stimuli/rescaled_final/1425_fw.mp4	0.0	367.1405999660492	0.10005307197570801
80	335.82509994506836	fix_pre	0		120	78.0	2.5	/experiments/knapen_AOT/AOT_stimuli/rescaled_final/0729_fw.mp4	0.0	367.2406530380249	1.0001249313354492
80	336.0003089904785	pulse	0	t		78.0	2.5	/experiments/knapen_AOT/AOT_stimuli/rescaled_final/0729_fw.mp4	0.0	367.41586208343506	
80	336.8252248764038	movie	1		243	78.0	2.5	/experiments/knapen_AOT/AOT_stimuli/rescaled_final/0729_fw.mp4	0.0	368.24077796936035	2.500514030456543
80	337.60055804252625	pulse	1	t		78.0	2.5	/experiments/knapen_AOT/AOT_stimuli/rescaled_final/0729_fw.mp4	0.0	369.0161111354828	
80	339.2007520198822	pulse	1	t		78.0	2.5	/experiments/knapen_AOT/AOT_stimuli/rescaled_final/0729_fw.mp4	0.0	370.61630511283875	
80	339.32573890686035	fix_post	2		11	78.0	2.5	/experiments/knapen_AOT/AOT_stimuli/rescaled_final/0729_fw.mp4	0.0	370.7412919998169	0.09985899925231934
81	339.42559790611267	fix_pre	0		119	79.0	2.5	/experiments/knapen_AOT/AOT_stimuli/rescaled_final/0500_rv.mp4	0.0	370.8411509990692	0.9918310642242432
81	340.4174289703369	movie	1		245	79.0	2.5	/experiments/knapen_AOT/AOT_stimuli/rescaled_final/0500_rv.mp4	0.0	371.83298206329346	2.5003600120544434
81	340.80159091949463	pulse	1	t		79.0	2.5	/experiments/knapen_AOT/AOT_stimuli/rescaled_final/0500_rv.mp4	0.0	372.2171440124512	
81	342.40131187438965	pulse	1	t		79.0	2.5	/experiments/knapen_AOT/AOT_stimuli/rescaled_final/0500_rv.mp4	0.0	373.8168649673462	
81	342.91778898239136	fix_post	2		12	79.0	2.5	/experiments/knapen_AOT/AOT_stimuli/rescaled_final/0500_rv.mp4	0.0	374.3333420753479	0.10000395774841309
82	343.01779294013977	fix_pre	0		119	80.0	2.5	/experiments/knapen_AOT/AOT_stimuli/rescaled_final/0990_fw.mp4	0.0	374.4333460330963	0.9918510913848877
82	344.0015308856964	pulse	0	t		80.0	2.5	/experiments/knapen_AOT/AOT_stimuli/rescaled_final/0990_fw.mp4	0.0	375.41708397865295	
82	344.00964403152466	movie	1		245	80.0	2.5	/experiments/knapen_AOT/AOT_stimuli/rescaled_final/0990_fw.mp4	0.0	375.4251971244812	2.5086779594421387
82	345.6023190021515	pulse	1	t		80.0	2.5	/experiments/knapen_AOT/AOT_stimuli/rescaled_final/0990_fw.mp4	0.0	377.01787209510803	
82	346.5183219909668	fix_post	2		12	80.0	2.5	/experiments/knapen_AOT/AOT_stimuli/rescaled_final/0990_fw.mp4	0.0	377.93387508392334	0.10004186630249023
83	346.6183638572693	fix_pre	0		120	81.0	2.5	/experiments/knapen_AOT/AOT_stimuli/rescaled_final/0637_fw.mp4	0.0	378.03391695022583	1.0001370906829834
83	347.2018949985504	pulse	0	t		81.0	2.5	/experiments/knapen_AOT/AOT_stimuli/rescaled_final/0637_fw.mp4	0.0	378.61744809150696	
83	347.61850094795227	movie	1		245	81.0	2.5	/experiments/knapen_AOT/AOT_stimuli/rescaled_final/0637_fw.mp4	0.0	379.0340540409088	2.5003530979156494
83	348.8022458553314	pulse	1	t		81.0	2.5	/experiments/knapen_AOT/AOT_stimuli/rescaled_final/0637_fw.mp4	0.0	380.21779894828796	
83	350.1188540458679	fix_post	2		12	81.0	2.5	/experiments/knapen_AOT/AOT_stimuli/rescaled_final/0637_fw.mp4	0.0	381.53440713882446	0.10004401206970215
84	350.2188980579376	fix_pre	0		120	82.0	2.5	/experiments/knapen_AOT/AOT_stimuli/rescaled_final/2022_fw.mp4	0.0	381.63445115089417	1.0001428127288818
84	350.4025528430939	pulse	0	t		82.0	2.5	/experiments/knapen_AOT/AOT_stimuli/rescaled_final/2022_fw.mp4	0.0	381.8181059360504	
84	351.2190408706665	movie	1		244	82.0	2.5	/experiments/knapen_AOT/AOT_stimuli/rescaled_final/2022_fw.mp4	0.0	382.63459396362305	2.500333070755005
84	352.0026559829712	pulse	1	t		82.0	2.5	/experiments/knapen_AOT/AOT_stimuli/rescaled_final/2022_fw.mp4	0.0	383.41820907592773	
84	353.6030218601227	pulse	1	t		82.0	2.5	/experiments/knapen_AOT/AOT_stimuli/rescaled_final/2022_fw.mp4	0.0	385.0185749530792	
84	353.7193739414215	fix_post	2		12	82.0	2.5	/experiments/knapen_AOT/AOT_stimuli/rescaled_final/2022_fw.mp4	0.0	385.13492703437805	0.10004091262817383
85	353.8194148540497	fix_pre	0		120	83.0	2.5	blank	1.0	385.2349679470062	1.000154972076416
85	354.8195698261261	movie	1		299	83.0	2.5	blank	1.0	386.23512291908264	2.4920551776885986
85	355.20315384864807	pulse	1	t		83.0	2.5	blank	1.0	386.6187069416046	
85	356.80347084999084	pulse	1	t		83.0	2.5	blank	1.0	388.2190239429474	
85	357.3116250038147	fix_post	2		12	83.0	2.5	blank	1.0	388.72717809677124	0.10000300407409668
87	357.4116280078888	stim	0		1716					388.82718110084534	14.302186965942383
87	358.40371203422546	pulse	0	t						389.819265127182	
87	360.00386095046997	pulse	0	t						391.4194140434265	
87	361.60407400131226	pulse	0	t						393.0196270942688	
87	363.20441603660583	pulse	0	t						394.6199691295624	
87	364.80461382865906	pulse	0	t						396.2201669216156	
87	366.4048089981079	pulse	0	t						397.82036209106445	
87	368.0050549507141	pulse	0	t						399.42060804367065	
87	369.60531401634216	pulse	0	t						401.0208671092987	
87	371.20553398132324	pulse	0	t						402.6210870742798	
