trial_nr	onset	event_type	phase	response	nr_frames	movie_index	movie_duration	movie_file	blank	onset_abs	duration
0	0.13337302207946777	stim	0		148					30.24923610687256	1.2332329750061035
0	1.358647108078003	response	0	space						31.474510192871094	
1	1.3666059970855713	stim	0		24020					31.482469081878662	200.1657030582428
1	201.526673078537	pulse	0	t						231.64253616333008	
1	201.53230905532837	stim	1		1717					231.64817214012146	14.30822491645813
1	203.12404990196228	pulse	1	t						233.23991298675537	
1	204.72409796714783	pulse	1	t						234.83996105194092	
1	206.3240249156952	pulse	1	t						236.43988800048828	
1	207.9240379333496	pulse	1	t						238.0399010181427	
1	209.52401399612427	pulse	1	t						239.63987708091736	
1	211.12402510643005	pulse	1	t						241.23988819122314	
1	212.72407793998718	pulse	1	t						242.83994102478027	
1	214.32410311698914	pulse	1	t						244.43996620178223	
2	215.8405339717865	fix_pre	0		11	0.0	2.5	/experiments/AOT/AOT_stimuli/rescaled_final/0226_fw.mp4	0.0	245.9563970565796	0.09167098999023438
2	215.9240119457245	pulse	0	t		0.0	2.5	/experiments/AOT/AOT_stimuli/rescaled_final/0226_fw.mp4	0.0	246.03987503051758	
2	215.93220496177673	movie	1		246	0.0	2.5	/experiments/AOT/AOT_stimuli/rescaled_final/0226_fw.mp4	0.0	246.04806804656982	2.508303165435791
2	217.52352905273438	pulse	1	t		0.0	2.5	/experiments/AOT/AOT_stimuli/rescaled_final/0226_fw.mp4	0.0	247.63939213752747	
2	218.44050812721252	fix_post	2		12	0.0	2.5	/experiments/AOT/AOT_stimuli/rescaled_final/0226_fw.mp4	0.0	248.55637121200562	0.10000991821289062
3	218.54051804542542	fix_pre	0		120	1.0	2.5	/experiments/AOT/AOT_stimuli/rescaled_final/0918_rv.mp4	0.0	248.6563811302185	1.000058889389038
3	219.12402296066284	pulse	0	t		1.0	2.5	/experiments/AOT/AOT_stimuli/rescaled_final/0918_rv.mp4	0.0	249.23988604545593	
3	219.54057693481445	movie	1		245	1.0	2.5	/experiments/AOT/AOT_stimuli/rescaled_final/0918_rv.mp4	0.0	249.65644001960754	2.499934196472168
3	220.7240469455719	pulse	1	t		1.0	2.5	/experiments/AOT/AOT_stimuli/rescaled_final/0918_rv.mp4	0.0	250.839910030365	
3	222.04051113128662	fix_post	2		12	1.0	2.5	/experiments/AOT/AOT_stimuli/rescaled_final/0918_rv.mp4	0.0	252.1563742160797	0.09988594055175781
4	222.14039707183838	fix_pre	0		120	2.0	2.5	/experiments/AOT/AOT_stimuli/rescaled_final/1783_fw.mp4	0.0	252.25626015663147	1.0001840591430664
4	222.3239870071411	pulse	0	t		2.0	2.5	/experiments/AOT/AOT_stimuli/rescaled_final/1783_fw.mp4	0.0	252.4398500919342	
4	223.14058113098145	movie	1		244	2.0	2.5	/experiments/AOT/AOT_stimuli/rescaled_final/1783_fw.mp4	0.0	253.25644421577454	2.4998538494110107
4	223.92399501800537	pulse	1	t		2.0	2.5	/experiments/AOT/AOT_stimuli/rescaled_final/1783_fw.mp4	0.0	254.03985810279846	
4	225.52267789840698	pulse	1	t		2.0	2.5	/experiments/AOT/AOT_stimuli/rescaled_final/1783_fw.mp4	0.0	255.63854098320007	
4	225.64043498039246	fix_post	2		12	2.0	2.5	/experiments/AOT/AOT_stimuli/rescaled_final/1783_fw.mp4	0.0	255.75629806518555	0.10006093978881836
5	225.74049592018127	fix_pre	0		120	3.0	2.5	/experiments/AOT/AOT_stimuli/rescaled_final/1857_fw.mp4	0.0	255.85635900497437	1.0000660419464111
5	226.74056196212769	movie	1		246	3.0	2.5	/experiments/AOT/AOT_stimuli/rescaled_final/1857_fw.mp4	0.0	256.8564250469208	2.499864101409912
5	227.1234529018402	pulse	1	t		3.0	2.5	/experiments/AOT/AOT_stimuli/rescaled_final/1857_fw.mp4	0.0	257.2393159866333	
5	228.72392797470093	pulse	1	t		3.0	2.5	/experiments/AOT/AOT_stimuli/rescaled_final/1857_fw.mp4	0.0	258.839791059494	
5	229.2404260635376	fix_post	2		12	3.0	2.5	/experiments/AOT/AOT_stimuli/rescaled_final/1857_fw.mp4	0.0	259.3562891483307	0.0999898910522461
6	229.34041595458984	fix_pre	0		119	4.0	2.5	/experiments/AOT/AOT_stimuli/rescaled_final/0547_fw.mp4	0.0	259.45627903938293	0.9917600154876709
6	230.32396292686462	pulse	0	t		4.0	2.5	/experiments/AOT/AOT_stimuli/rescaled_final/0547_fw.mp4	0.0	260.4398260116577	
6	230.33217597007751	movie	1		245	4.0	2.5	/experiments/AOT/AOT_stimuli/rescaled_final/0547_fw.mp4	0.0	260.4480390548706	2.5082881450653076
6	231.92498207092285	pulse	1	t		4.0	2.5	/experiments/AOT/AOT_stimuli/rescaled_final/0547_fw.mp4	0.0	262.04084515571594	
6	232.84046411514282	fix_post	2		12	4.0	2.5	/experiments/AOT/AOT_stimuli/rescaled_final/0547_fw.mp4	0.0	262.9563271999359	0.09952402114868164
7	232.9399881362915	fix_pre	0		120	5.0	2.5	/experiments/AOT/AOT_stimuli/rescaled_final/1692_fw.mp4	0.0	263.0558512210846	1.0006499290466309
7	233.52392411231995	pulse	0	t		5.0	2.5	/experiments/AOT/AOT_stimuli/rescaled_final/1692_fw.mp4	0.0	263.63978719711304	
7	233.94063806533813	movie	1		246	5.0	2.5	/experiments/AOT/AOT_stimuli/rescaled_final/1692_fw.mp4	0.0	264.0565011501312	2.4998459815979004
7	235.1240360736847	pulse	1	t		5.0	2.5	/experiments/AOT/AOT_stimuli/rescaled_final/1692_fw.mp4	0.0	265.2398991584778	
7	236.44048404693604	fix_post	2		12	5.0	2.5	/experiments/AOT/AOT_stimuli/rescaled_final/1692_fw.mp4	0.0	266.5563471317291	0.10005998611450195
8	236.54054403305054	fix_pre	0		120	6.0	2.5	blank	1.0	266.6564071178436	0.9998219013214111
8	236.72412610054016	pulse	0	t		6.0	2.5	blank	1.0	266.83998918533325	
8	237.54036593437195	movie	1		300	6.0	2.5	blank	1.0	267.65622901916504	2.5000760555267334
8	238.32389307022095	pulse	1	t		6.0	2.5	blank	1.0	268.43975615501404	
8	239.92388892173767	pulse	1	t		6.0	2.5	blank	1.0	270.03975200653076	
8	240.04044198989868	fix_post	2		12	6.0	2.5	blank	1.0	270.1563050746918	0.09998607635498047
9	240.14042806625366	fix_pre	0		120	7.0	2.5	/experiments/AOT/AOT_stimuli/rescaled_final/0698_rv.mp4	0.0	270.25629115104675	1.0000059604644775
9	241.14043402671814	movie	1		247	7.0	2.5	/experiments/AOT/AOT_stimuli/rescaled_final/0698_rv.mp4	0.0	271.25629711151123	2.4995059967041016
9	241.52391910552979	pulse	1	t		7.0	2.5	/experiments/AOT/AOT_stimuli/rescaled_final/0698_rv.mp4	0.0	271.6397821903229	
9	243.12378311157227	pulse	1	t		7.0	2.5	/experiments/AOT/AOT_stimuli/rescaled_final/0698_rv.mp4	0.0	273.23964619636536	
9	243.63994002342224	fix_post	2		12	7.0	2.5	/experiments/AOT/AOT_stimuli/rescaled_final/0698_rv.mp4	0.0	273.75580310821533	0.1004788875579834
10	243.74041891098022	fix_pre	0		119	8.0	2.5	/experiments/AOT/AOT_stimuli/rescaled_final/1311_rv.mp4	0.0	273.8562819957733	0.9916059970855713
10	244.7239270210266	pulse	0	t		8.0	2.5	/experiments/AOT/AOT_stimuli/rescaled_final/1311_rv.mp4	0.0	274.8397901058197	
10	244.7320249080658	movie	1		247	8.0	2.5	/experiments/AOT/AOT_stimuli/rescaled_final/1311_rv.mp4	0.0	274.8478879928589	2.5082850456237793
10	246.32479000091553	pulse	1	t		8.0	2.5	/experiments/AOT/AOT_stimuli/rescaled_final/1311_rv.mp4	0.0	276.4406530857086	
10	247.24030995368958	fix_post	2		12	8.0	2.5	/experiments/AOT/AOT_stimuli/rescaled_final/1311_rv.mp4	0.0	277.35617303848267	0.10001397132873535
11	247.3403239250183	fix_pre	0		120	9.0	2.5	/experiments/AOT/AOT_stimuli/rescaled_final/1281_rv.mp4	0.0	277.4561870098114	1.0000171661376953
11	247.92383098602295	pulse	0	t		9.0	2.5	/experiments/AOT/AOT_stimuli/rescaled_final/1281_rv.mp4	0.0	278.03969407081604	
11	248.340341091156	movie	1		246	9.0	2.5	/experiments/AOT/AOT_stimuli/rescaled_final/1281_rv.mp4	0.0	278.4562041759491	2.4997029304504395
11	249.52389311790466	pulse	1	t		9.0	2.5	/experiments/AOT/AOT_stimuli/rescaled_final/1281_rv.mp4	0.0	279.63975620269775	
11	250.84004402160645	fix_post	2		12	9.0	2.5	/experiments/AOT/AOT_stimuli/rescaled_final/1281_rv.mp4	0.0	280.95590710639954	0.10027289390563965
12	250.94031691551208	fix_pre	0		120	10.0	2.5	/experiments/AOT/AOT_stimuli/rescaled_final/1029_rv.mp4	0.0	281.0561800003052	1.0000081062316895
12	251.12381196022034	pulse	0	t		10.0	2.5	/experiments/AOT/AOT_stimuli/rescaled_final/1029_rv.mp4	0.0	281.2396750450134	
12	251.94032502174377	movie	1		245	10.0	2.5	/experiments/AOT/AOT_stimuli/rescaled_final/1029_rv.mp4	0.0	282.05618810653687	2.5000479221343994
12	252.72386598587036	pulse	1	t		10.0	2.5	/experiments/AOT/AOT_stimuli/rescaled_final/1029_rv.mp4	0.0	282.83972907066345	
12	254.32237601280212	pulse	1	t		10.0	2.5	/experiments/AOT/AOT_stimuli/rescaled_final/1029_rv.mp4	0.0	284.4382390975952	
12	254.44037294387817	fix_post	2		12	10.0	2.5	/experiments/AOT/AOT_stimuli/rescaled_final/1029_rv.mp4	0.0	284.55623602867126	0.09954214096069336
13	254.53991508483887	fix_pre	0		120	11.0	2.5	/experiments/AOT/AOT_stimuli/rescaled_final/0548_rv.mp4	0.0	284.65577816963196	1.0003809928894043
13	255.54029607772827	movie	1		244	11.0	2.5	/experiments/AOT/AOT_stimuli/rescaled_final/0548_rv.mp4	0.0	285.65615916252136	2.4999828338623047
13	255.92382907867432	pulse	1	t		11.0	2.5	/experiments/AOT/AOT_stimuli/rescaled_final/0548_rv.mp4	0.0	286.0396921634674	
13	257.5238049030304	pulse	1	t		11.0	2.5	/experiments/AOT/AOT_stimuli/rescaled_final/0548_rv.mp4	0.0	287.6396679878235	
13	258.0402789115906	fix_post	2		12	11.0	2.5	/experiments/AOT/AOT_stimuli/rescaled_final/0548_rv.mp4	0.0	288.15614199638367	0.10002803802490234
14	258.1403069496155	fix_pre	0		119	12.0	2.5	/experiments/AOT/AOT_stimuli/rescaled_final/1871_rv.mp4	0.0	288.25617003440857	0.9916901588439941
14	259.12387895584106	pulse	0	t		12.0	2.5	/experiments/AOT/AOT_stimuli/rescaled_final/1871_rv.mp4	0.0	289.23974204063416	
14	259.1319971084595	movie	1		246	12.0	2.5	/experiments/AOT/AOT_stimuli/rescaled_final/1871_rv.mp4	0.0	289.24786019325256	2.508297920227051
14	260.7236590385437	pulse	1	t		12.0	2.5	/experiments/AOT/AOT_stimuli/rescaled_final/1871_rv.mp4	0.0	290.8395221233368	
14	261.6402950286865	fix_post	2		12	12.0	2.5	/experiments/AOT/AOT_stimuli/rescaled_final/1871_rv.mp4	0.0	291.7561581134796	0.1000828742980957
15	261.7403779029846	fix_pre	0		120	13.0	2.5	blank	1.0	291.8562409877777	0.999932050704956
15	262.32383704185486	pulse	0	t		13.0	2.5	blank	1.0	292.43970012664795	
15	262.7403099536896	movie	1		300	13.0	2.5	blank	1.0	292.85617303848267	2.49992299079895
15	263.9239149093628	pulse	1	t		13.0	2.5	blank	1.0	294.0397779941559	
15	265.2402329444885	fix_post	2		12	13.0	2.5	blank	1.0	295.3560960292816	0.09997916221618652
16	265.3402121067047	fix_pre	0		120	14.0	2.5	/experiments/AOT/AOT_stimuli/rescaled_final/0202_fw.mp4	0.0	295.4560751914978	1.0001208782196045
16	265.52369809150696	pulse	0	t		14.0	2.5	/experiments/AOT/AOT_stimuli/rescaled_final/0202_fw.mp4	0.0	295.63956117630005	
16	266.3403329849243	movie	1		246	14.0	2.5	/experiments/AOT/AOT_stimuli/rescaled_final/0202_fw.mp4	0.0	296.4561960697174	2.4994590282440186
16	267.1236810684204	pulse	1	t		14.0	2.5	/experiments/AOT/AOT_stimuli/rescaled_final/0202_fw.mp4	0.0	297.2395441532135	
16	268.72375893592834	pulse	1	t		14.0	2.5	/experiments/AOT/AOT_stimuli/rescaled_final/0202_fw.mp4	0.0	298.83962202072144	
16	268.83979201316833	fix_post	2		12	14.0	2.5	/experiments/AOT/AOT_stimuli/rescaled_final/0202_fw.mp4	0.0	298.9556550979614	0.1005089282989502
17	268.9403009414673	fix_pre	0		120	15.0	2.5	/experiments/AOT/AOT_stimuli/rescaled_final/0002_fw.mp4	0.0	299.0561640262604	0.9999871253967285
17	269.940288066864	movie	1		245	15.0	2.5	/experiments/AOT/AOT_stimuli/rescaled_final/0002_fw.mp4	0.0	300.0561511516571	2.500014066696167
17	270.3234269618988	pulse	1	t		15.0	2.5	/experiments/AOT/AOT_stimuli/rescaled_final/0002_fw.mp4	0.0	300.4392900466919	
17	271.9236431121826	pulse	1	t		15.0	2.5	/experiments/AOT/AOT_stimuli/rescaled_final/0002_fw.mp4	0.0	302.0395061969757	
17	272.4403021335602	fix_post	2		12	15.0	2.5	/experiments/AOT/AOT_stimuli/rescaled_final/0002_fw.mp4	0.0	302.55616521835327	0.10005688667297363
18	272.54035902023315	fix_pre	0		119	16.0	2.5	/experiments/AOT/AOT_stimuli/rescaled_final/0140_fw.mp4	0.0	302.65622210502625	0.9915189743041992
18	273.52371311187744	pulse	0	t		16.0	2.5	/experiments/AOT/AOT_stimuli/rescaled_final/0140_fw.mp4	0.0	303.63957619667053	
18	273.53187799453735	movie	1		244	16.0	2.5	/experiments/AOT/AOT_stimuli/rescaled_final/0140_fw.mp4	0.0	303.64774107933044	2.508405923843384
18	275.12345004081726	pulse	1	t		16.0	2.5	/experiments/AOT/AOT_stimuli/rescaled_final/0140_fw.mp4	0.0	305.23931312561035	
18	276.04028391838074	fix_post	2		12	16.0	2.5	/experiments/AOT/AOT_stimuli/rescaled_final/0140_fw.mp4	0.0	306.1561470031738	0.09990811347961426
19	276.14019203186035	fix_pre	0		120	17.0	2.5	/experiments/AOT/AOT_stimuli/rescaled_final/1822_fw.mp4	0.0	306.25605511665344	0.999985933303833
19	276.723788022995	pulse	0	t		17.0	2.5	/experiments/AOT/AOT_stimuli/rescaled_final/1822_fw.mp4	0.0	306.8396511077881	
19	277.1401779651642	movie	1		244	17.0	2.5	/experiments/AOT/AOT_stimuli/rescaled_final/1822_fw.mp4	0.0	307.2560410499573	2.4996211528778076
19	278.3236930370331	pulse	1	t		17.0	2.5	/experiments/AOT/AOT_stimuli/rescaled_final/1822_fw.mp4	0.0	308.4395561218262	
19	279.639799118042	fix_post	2		12	17.0	2.5	/experiments/AOT/AOT_stimuli/rescaled_final/1822_fw.mp4	0.0	309.7556622028351	0.10041284561157227
20	279.74021196365356	fix_pre	0		120	18.0	2.5	/experiments/AOT/AOT_stimuli/rescaled_final/0581_rv.mp4	0.0	309.85607504844666	0.9995660781860352
20	279.92372012138367	pulse	0	t		18.0	2.5	/experiments/AOT/AOT_stimuli/rescaled_final/0581_rv.mp4	0.0	310.03958320617676	
20	280.7397780418396	movie	1		244	18.0	2.5	/experiments/AOT/AOT_stimuli/rescaled_final/0581_rv.mp4	0.0	310.8556411266327	2.500386953353882
20	281.52364206314087	pulse	1	t		18.0	2.5	/experiments/AOT/AOT_stimuli/rescaled_final/0581_rv.mp4	0.0	311.63950514793396	
20	283.1236460208893	pulse	1	t		18.0	2.5	/experiments/AOT/AOT_stimuli/rescaled_final/0581_rv.mp4	0.0	313.2395091056824	
20	283.2401649951935	fix_post	2		12	18.0	2.5	/experiments/AOT/AOT_stimuli/rescaled_final/0581_rv.mp4	0.0	313.3560280799866	0.09953713417053223
21	283.339702129364	fix_pre	0		120	19.0	2.5	/experiments/AOT/AOT_stimuli/rescaled_final/0457_fw.mp4	0.0	313.4555652141571	1.000532865524292
21	284.3402349948883	movie	1		245	19.0	2.5	/experiments/AOT/AOT_stimuli/rescaled_final/0457_fw.mp4	0.0	314.4560980796814	2.499907970428467
21	284.7232949733734	pulse	1	t		19.0	2.5	/experiments/AOT/AOT_stimuli/rescaled_final/0457_fw.mp4	0.0	314.8391580581665	
21	286.3236839771271	pulse	1	t		19.0	2.5	/experiments/AOT/AOT_stimuli/rescaled_final/0457_fw.mp4	0.0	316.43954706192017	
21	286.8401429653168	fix_post	2		12	19.0	2.5	/experiments/AOT/AOT_stimuli/rescaled_final/0457_fw.mp4	0.0	316.95600605010986	0.09998011589050293
22	286.9401230812073	fix_pre	0		119	20.0	2.5	blank	1.0	317.05598616600037	0.9917340278625488
22	287.92366099357605	pulse	0	t		20.0	2.5	blank	1.0	318.03952407836914	
22	287.9318571090698	movie	1		301	20.0	2.5	blank	1.0	318.0477201938629	2.508387804031372
22	289.52371096611023	pulse	1	t		20.0	2.5	blank	1.0	319.6395740509033	
22	290.4402449131012	fix_post	2		12	20.0	2.5	blank	1.0	320.5561079978943	0.09992218017578125
23	290.540167093277	fix_pre	0		120	21.0	2.5	/experiments/AOT/AOT_stimuli/rescaled_final/1138_rv.mp4	0.0	320.65603017807007	0.9996058940887451
23	291.12324500083923	pulse	0	t		21.0	2.5	/experiments/AOT/AOT_stimuli/rescaled_final/1138_rv.mp4	0.0	321.2391080856323	
23	291.5397729873657	movie	1		245	21.0	2.5	/experiments/AOT/AOT_stimuli/rescaled_final/1138_rv.mp4	0.0	321.6556360721588	2.5002870559692383
23	292.7233910560608	pulse	1	t		21.0	2.5	/experiments/AOT/AOT_stimuli/rescaled_final/1138_rv.mp4	0.0	322.8392541408539	
23	294.04006004333496	fix_post	2		12	21.0	2.5	/experiments/AOT/AOT_stimuli/rescaled_final/1138_rv.mp4	0.0	324.15592312812805	0.10004806518554688
24	294.1401081085205	fix_pre	0		120	22.0	2.5	/experiments/AOT/AOT_stimuli/rescaled_final/0918_rv.mp4	0.0	324.2559711933136	1.0000579357147217
24	294.3237009048462	pulse	0	t		22.0	2.5	/experiments/AOT/AOT_stimuli/rescaled_final/0918_rv.mp4	0.0	324.4395639896393	
24	295.14016604423523	movie	1		245	22.0	2.5	/experiments/AOT/AOT_stimuli/rescaled_final/0918_rv.mp4	0.0	325.2560291290283	2.5000128746032715
24	295.9235050678253	pulse	1	t		22.0	2.5	/experiments/AOT/AOT_stimuli/rescaled_final/0918_rv.mp4	0.0	326.0393681526184	
24	297.52373790740967	pulse	1	t		22.0	2.5	/experiments/AOT/AOT_stimuli/rescaled_final/0918_rv.mp4	0.0	327.63960099220276	
24	297.6401789188385	fix_post	2		12	22.0	2.5	/experiments/AOT/AOT_stimuli/rescaled_final/0918_rv.mp4	0.0	327.7560420036316	0.09995698928833008
25	297.74013590812683	fix_pre	0		120	23.0	2.5	/experiments/AOT/AOT_stimuli/rescaled_final/0475_fw.mp4	0.0	327.8559989929199	1.0000860691070557
25	298.7402219772339	movie	1		243	23.0	2.5	/experiments/AOT/AOT_stimuli/rescaled_final/0475_fw.mp4	0.0	328.856085062027	2.499791145324707
25	299.1231050491333	pulse	1	t		23.0	2.5	/experiments/AOT/AOT_stimuli/rescaled_final/0475_fw.mp4	0.0	329.2389681339264	
25	300.7236359119415	pulse	1	t		23.0	2.5	/experiments/AOT/AOT_stimuli/rescaled_final/0475_fw.mp4	0.0	330.8394989967346	
25	301.2400131225586	fix_post	2		12	23.0	2.5	/experiments/AOT/AOT_stimuli/rescaled_final/0475_fw.mp4	0.0	331.3558762073517	0.09966087341308594
26	301.3396739959717	fix_pre	0		119	24.0	2.5	/experiments/AOT/AOT_stimuli/rescaled_final/1424_fw.mp4	0.0	331.45553708076477	0.9921190738677979
26	302.32365798950195	pulse	0	t		24.0	2.5	/experiments/AOT/AOT_stimuli/rescaled_final/1424_fw.mp4	0.0	332.43952107429504	
26	302.3317930698395	movie	1		245	24.0	2.5	/experiments/AOT/AOT_stimuli/rescaled_final/1424_fw.mp4	0.0	332.44765615463257	2.508298873901367
26	303.9230489730835	pulse	1	t		24.0	2.5	/experiments/AOT/AOT_stimuli/rescaled_final/1424_fw.mp4	0.0	334.0389120578766	
26	304.84009194374084	fix_post	2		12	24.0	2.5	/experiments/AOT/AOT_stimuli/rescaled_final/1424_fw.mp4	0.0	334.95595502853394	0.10002803802490234
27	304.94011998176575	fix_pre	0		120	25.0	2.5	/experiments/AOT/AOT_stimuli/rescaled_final/2065_rv.mp4	0.0	335.05598306655884	1.0000040531158447
27	305.523540019989	pulse	0	t		25.0	2.5	/experiments/AOT/AOT_stimuli/rescaled_final/2065_rv.mp4	0.0	335.6394031047821	
27	305.9401240348816	movie	1		246	25.0	2.5	/experiments/AOT/AOT_stimuli/rescaled_final/2065_rv.mp4	0.0	336.0559871196747	2.499911069869995
27	307.1236810684204	pulse	1	t		25.0	2.5	/experiments/AOT/AOT_stimuli/rescaled_final/2065_rv.mp4	0.0	337.2395441532135	
27	308.4400351047516	fix_post	2		12	25.0	2.5	/experiments/AOT/AOT_stimuli/rescaled_final/2065_rv.mp4	0.0	338.5558981895447	0.10004997253417969
28	308.54008507728577	fix_pre	0		120	26.0	2.5	blank	1.0	338.65594816207886	0.9999759197235107
28	308.72363805770874	pulse	0	t		26.0	2.5	blank	1.0	338.83950114250183	
28	309.5400609970093	movie	1		300	26.0	2.5	blank	1.0	339.65592408180237	2.499972105026245
28	310.3235800266266	pulse	1	t		26.0	2.5	blank	1.0	340.4394431114197	
28	311.9235289096832	pulse	1	t		26.0	2.5	blank	1.0	342.0393919944763	
28	312.0400331020355	fix_post	2		12	26.0	2.5	blank	1.0	342.1558961868286	0.09999680519104004
29	312.14002990722656	fix_pre	0		120	27.0	2.5	/experiments/AOT/AOT_stimuli/rescaled_final/1643_fw.mp4	0.0	342.25589299201965	0.9999852180480957
29	313.14001512527466	movie	1		245	27.0	2.5	/experiments/AOT/AOT_stimuli/rescaled_final/1643_fw.mp4	0.0	343.25587821006775	2.4999659061431885
29	313.52290391921997	pulse	1	t		27.0	2.5	/experiments/AOT/AOT_stimuli/rescaled_final/1643_fw.mp4	0.0	343.63876700401306	
29	315.1235020160675	pulse	1	t		27.0	2.5	/experiments/AOT/AOT_stimuli/rescaled_final/1643_fw.mp4	0.0	345.2393651008606	
29	315.63998103141785	fix_post	2		12	27.0	2.5	/experiments/AOT/AOT_stimuli/rescaled_final/1643_fw.mp4	0.0	345.75584411621094	0.10001087188720703
30	315.73999190330505	fix_pre	0		119	28.0	2.5	/experiments/AOT/AOT_stimuli/rescaled_final/1427_fw.mp4	0.0	345.85585498809814	0.9917011260986328
30	316.72352600097656	pulse	0	t		28.0	2.5	/experiments/AOT/AOT_stimuli/rescaled_final/1427_fw.mp4	0.0	346.83938908576965	
30	316.7316930294037	movie	1		249	28.0	2.5	/experiments/AOT/AOT_stimuli/rescaled_final/1427_fw.mp4	0.0	346.8475561141968	2.5082969665527344
30	318.3233139514923	pulse	1	t		28.0	2.5	/experiments/AOT/AOT_stimuli/rescaled_final/1427_fw.mp4	0.0	348.4391770362854	
30	319.2399899959564	fix_post	2		12	28.0	2.5	/experiments/AOT/AOT_stimuli/rescaled_final/1427_fw.mp4	0.0	349.3558530807495	0.09963607788085938
31	319.3396260738373	fix_pre	0		120	29.0	2.5	/experiments/AOT/AOT_stimuli/rescaled_final/1558_rv.mp4	0.0	349.45548915863037	1.0003998279571533
31	319.9235179424286	pulse	0	t		29.0	2.5	/experiments/AOT/AOT_stimuli/rescaled_final/1558_rv.mp4	0.0	350.0393810272217	
31	320.34002590179443	movie	1		245	29.0	2.5	/experiments/AOT/AOT_stimuli/rescaled_final/1558_rv.mp4	0.0	350.4558889865875	2.500141143798828
31	321.52376103401184	pulse	1	t		29.0	2.5	/experiments/AOT/AOT_stimuli/rescaled_final/1558_rv.mp4	0.0	351.63962411880493	
31	322.84016704559326	fix_post	2		12	29.0	2.5	/experiments/AOT/AOT_stimuli/rescaled_final/1558_rv.mp4	0.0	352.95603013038635	0.09986400604248047
32	322.94003105163574	fix_pre	0		120	30.0	2.5	/experiments/AOT/AOT_stimuli/rescaled_final/0484_rv.mp4	0.0	353.05589413642883	1.0000550746917725
32	323.12357211112976	pulse	0	t		30.0	2.5	/experiments/AOT/AOT_stimuli/rescaled_final/0484_rv.mp4	0.0	353.23943519592285	
32	323.9400861263275	movie	1		244	30.0	2.5	/experiments/AOT/AOT_stimuli/rescaled_final/0484_rv.mp4	0.0	354.0559492111206	2.49995493888855
32	324.72349190711975	pulse	1	t		30.0	2.5	/experiments/AOT/AOT_stimuli/rescaled_final/0484_rv.mp4	0.0	354.83935499191284	
32	326.3234910964966	pulse	1	t		30.0	2.5	/experiments/AOT/AOT_stimuli/rescaled_final/0484_rv.mp4	0.0	356.4393541812897	
32	326.44004106521606	fix_post	2		12	30.0	2.5	/experiments/AOT/AOT_stimuli/rescaled_final/0484_rv.mp4	0.0	356.55590415000916	0.09951591491699219
33	326.53955698013306	fix_pre	0		120	31.0	2.5	/experiments/AOT/AOT_stimuli/rescaled_final/0942_fw.mp4	0.0	356.65542006492615	1.0004560947418213
33	327.5400130748749	movie	1		246	31.0	2.5	/experiments/AOT/AOT_stimuli/rescaled_final/0942_fw.mp4	0.0	357.65587615966797	2.500058889389038
33	327.92331409454346	pulse	1	t		31.0	2.5	/experiments/AOT/AOT_stimuli/rescaled_final/0942_fw.mp4	0.0	358.03917717933655	
33	329.5234649181366	pulse	1	t		31.0	2.5	/experiments/AOT/AOT_stimuli/rescaled_final/0942_fw.mp4	0.0	359.6393280029297	
33	330.0400719642639	fix_post	2		12	31.0	2.5	/experiments/AOT/AOT_stimuli/rescaled_final/0942_fw.mp4	0.0	360.155935049057	0.09991693496704102
34	330.13998889923096	fix_pre	0		119	32.0	2.5	/experiments/AOT/AOT_stimuli/rescaled_final/2173_fw.mp4	0.0	360.25585198402405	0.9915571212768555
34	331.12344002723694	pulse	0	t		32.0	2.5	/experiments/AOT/AOT_stimuli/rescaled_final/2173_fw.mp4	0.0	361.23930311203003	
34	331.1315460205078	movie	1		249	32.0	2.5	/experiments/AOT/AOT_stimuli/rescaled_final/2173_fw.mp4	0.0	361.2474091053009	2.50839900970459
34	332.7233099937439	pulse	1	t		32.0	2.5	/experiments/AOT/AOT_stimuli/rescaled_final/2173_fw.mp4	0.0	362.839173078537	
34	333.6399450302124	fix_post	2		12	32.0	2.5	/experiments/AOT/AOT_stimuli/rescaled_final/2173_fw.mp4	0.0	363.7558081150055	0.10008001327514648
35	333.74002504348755	fix_pre	0		120	33.0	2.5	/experiments/AOT/AOT_stimuli/rescaled_final/1334_rv.mp4	0.0	363.85588812828064	0.9999420642852783
35	334.3234031200409	pulse	0	t		33.0	2.5	/experiments/AOT/AOT_stimuli/rescaled_final/1334_rv.mp4	0.0	364.439266204834	
35	334.7399671077728	movie	1		244	33.0	2.5	/experiments/AOT/AOT_stimuli/rescaled_final/1334_rv.mp4	0.0	364.8558301925659	2.499957799911499
35	335.9235610961914	pulse	1	t		33.0	2.5	/experiments/AOT/AOT_stimuli/rescaled_final/1334_rv.mp4	0.0	366.0394241809845	
35	337.2399249076843	fix_post	2		12	33.0	2.5	/experiments/AOT/AOT_stimuli/rescaled_final/1334_rv.mp4	0.0	367.3557879924774	0.1000981330871582
36	337.3400230407715	fix_pre	0		120	34.0	2.5	blank	1.0	367.4558861255646	0.9999148845672607
36	337.52351903915405	pulse	0	t		34.0	2.5	blank	1.0	367.63938212394714	
36	338.33993792533875	movie	1		300	34.0	2.5	blank	1.0	368.45580101013184	2.50004506111145
36	339.1234209537506	pulse	1	t		34.0	2.5	blank	1.0	369.2392840385437	
36	340.7234570980072	pulse	1	t		34.0	2.5	blank	1.0	370.8393201828003	
36	340.8399829864502	fix_post	2		12	34.0	2.5	blank	1.0	370.9558460712433	0.09950804710388184
37	340.9394910335541	fix_pre	0		120	35.0	2.5	/experiments/AOT/AOT_stimuli/rescaled_final/0258_rv.mp4	0.0	371.05535411834717	1.0004949569702148
37	341.9399859905243	movie	1		245	35.0	2.5	/experiments/AOT/AOT_stimuli/rescaled_final/0258_rv.mp4	0.0	372.0558490753174	2.499964952468872
37	342.32283306121826	pulse	1	t		35.0	2.5	/experiments/AOT/AOT_stimuli/rescaled_final/0258_rv.mp4	0.0	372.43869614601135	
37	343.923357963562	pulse	1	t		35.0	2.5	/experiments/AOT/AOT_stimuli/rescaled_final/0258_rv.mp4	0.0	374.0392210483551	
37	344.43995094299316	fix_post	2		12	35.0	2.5	/experiments/AOT/AOT_stimuli/rescaled_final/0258_rv.mp4	0.0	374.55581402778625	0.10001611709594727
38	344.5399670600891	fix_pre	0		119	36.0	2.5	/experiments/AOT/AOT_stimuli/rescaled_final/0172_fw.mp4	0.0	374.6558301448822	0.9916210174560547
38	345.52343797683716	pulse	0	t		36.0	2.5	/experiments/AOT/AOT_stimuli/rescaled_final/0172_fw.mp4	0.0	375.63930106163025	
38	345.53158807754517	movie	1		246	36.0	2.5	/experiments/AOT/AOT_stimuli/rescaled_final/0172_fw.mp4	0.0	375.64745116233826	2.508082866668701
38	347.12245202064514	pulse	1	t		36.0	2.5	/experiments/AOT/AOT_stimuli/rescaled_final/0172_fw.mp4	0.0	377.23831510543823	
38	348.03967094421387	fix_post	2		12	36.0	2.5	/experiments/AOT/AOT_stimuli/rescaled_final/0172_fw.mp4	0.0	378.15553402900696	0.10042500495910645
39	348.140095949173	fix_pre	0		120	37.0	2.5	/experiments/AOT/AOT_stimuli/rescaled_final/2065_fw.mp4	0.0	378.25595903396606	1.0001461505889893
39	348.72359013557434	pulse	0	t		37.0	2.5	/experiments/AOT/AOT_stimuli/rescaled_final/2065_fw.mp4	0.0	378.83945322036743	
39	349.14024209976196	movie	1		246	37.0	2.5	/experiments/AOT/AOT_stimuli/rescaled_final/2065_fw.mp4	0.0	379.25610518455505	2.4996659755706787
39	350.3235430717468	pulse	1	t		37.0	2.5	/experiments/AOT/AOT_stimuli/rescaled_final/2065_fw.mp4	0.0	380.4394061565399	
39	351.63990807533264	fix_post	2		12	37.0	2.5	/experiments/AOT/AOT_stimuli/rescaled_final/2065_fw.mp4	0.0	381.75577116012573	0.10011887550354004
40	351.7400269508362	fix_pre	0		120	38.0	2.5	/experiments/AOT/AOT_stimuli/rescaled_final/1864_rv.mp4	0.0	381.8558900356293	0.9998900890350342
40	351.9234480857849	pulse	0	t		38.0	2.5	/experiments/AOT/AOT_stimuli/rescaled_final/1864_rv.mp4	0.0	382.039311170578	
40	352.7399170398712	movie	1		246	38.0	2.5	/experiments/AOT/AOT_stimuli/rescaled_final/1864_rv.mp4	0.0	382.8557801246643	2.4999539852142334
40	353.52330899238586	pulse	1	t		38.0	2.5	/experiments/AOT/AOT_stimuli/rescaled_final/1864_rv.mp4	0.0	383.63917207717896	
40	355.12190103530884	pulse	1	t		38.0	2.5	/experiments/AOT/AOT_stimuli/rescaled_final/1864_rv.mp4	0.0	385.23776412010193	
40	355.23987102508545	fix_post	2		12	38.0	2.5	/experiments/AOT/AOT_stimuli/rescaled_final/1864_rv.mp4	0.0	385.35573410987854	0.09997010231018066
41	355.33984112739563	fix_pre	0		120	39.0	2.5	/experiments/AOT/AOT_stimuli/rescaled_final/2129_rv.mp4	0.0	385.4557042121887	1.000032901763916
41	356.33987402915955	movie	1		245	39.0	2.5	/experiments/AOT/AOT_stimuli/rescaled_final/2129_rv.mp4	0.0	386.45573711395264	2.499998092651367
41	356.72313809394836	pulse	1	t		39.0	2.5	/experiments/AOT/AOT_stimuli/rescaled_final/2129_rv.mp4	0.0	386.83900117874146	
41	358.3232669830322	pulse	1	t		39.0	2.5	/experiments/AOT/AOT_stimuli/rescaled_final/2129_rv.mp4	0.0	388.4391300678253	
41	358.8398721218109	fix_post	2		12	39.0	2.5	/experiments/AOT/AOT_stimuli/rescaled_final/2129_rv.mp4	0.0	388.955735206604	0.0999917984008789
42	358.9398639202118	fix_pre	0		119	40.0	2.5	/experiments/AOT/AOT_stimuli/rescaled_final/1643_fw.mp4	0.0	389.0557270050049	0.9916090965270996
42	359.9233069419861	pulse	0	t		40.0	2.5	/experiments/AOT/AOT_stimuli/rescaled_final/1643_fw.mp4	0.0	390.0391700267792	
42	359.9314730167389	movie	1		246	40.0	2.5	/experiments/AOT/AOT_stimuli/rescaled_final/1643_fw.mp4	0.0	390.047336101532	2.508302927017212
42	361.5229420661926	pulse	1	t		40.0	2.5	/experiments/AOT/AOT_stimuli/rescaled_final/1643_fw.mp4	0.0	391.6388051509857	
42	362.4397759437561	fix_post	2		12	40.0	2.5	/experiments/AOT/AOT_stimuli/rescaled_final/1643_fw.mp4	0.0	392.5556390285492	0.10002899169921875
43	362.5398049354553	fix_pre	0		120	41.0	2.5	blank	1.0	392.6556680202484	1.0000150203704834
43	363.12326312065125	pulse	0	t		41.0	2.5	blank	1.0	393.23912620544434	
43	363.5398199558258	movie	1		300	41.0	2.5	blank	1.0	393.6556830406189	2.4999611377716064
43	364.72337794303894	pulse	1	t		41.0	2.5	blank	1.0	394.83924102783203	
43	366.0397810935974	fix_post	2		12	41.0	2.5	blank	1.0	396.1556441783905	0.09956002235412598
44	366.13934111595154	fix_pre	0		120	42.0	2.5	/experiments/AOT/AOT_stimuli/rescaled_final/1205_rv.mp4	0.0	396.25520420074463	1.0004258155822754
44	366.3233051300049	pulse	0	t		42.0	2.5	/experiments/AOT/AOT_stimuli/rescaled_final/1205_rv.mp4	0.0	396.439168214798	
44	367.1397669315338	movie	1		244	42.0	2.5	/experiments/AOT/AOT_stimuli/rescaled_final/1205_rv.mp4	0.0	397.2556300163269	2.5000510215759277
44	367.9232029914856	pulse	1	t		42.0	2.5	/experiments/AOT/AOT_stimuli/rescaled_final/1205_rv.mp4	0.0	398.0390660762787	
44	369.5233430862427	pulse	1	t		42.0	2.5	/experiments/AOT/AOT_stimuli/rescaled_final/1205_rv.mp4	0.0	399.63920617103577	
44	369.63981795310974	fix_post	2		12	42.0	2.5	/experiments/AOT/AOT_stimuli/rescaled_final/1205_rv.mp4	0.0	399.75568103790283	0.09994316101074219
45	369.7397611141205	fix_pre	0		120	43.0	2.5	/experiments/AOT/AOT_stimuli/rescaled_final/1354_rv.mp4	0.0	399.8556241989136	1.000105857849121
45	370.7398669719696	movie	1		245	43.0	2.5	/experiments/AOT/AOT_stimuli/rescaled_final/1354_rv.mp4	0.0	400.8557300567627	2.4999020099639893
45	371.1229290962219	pulse	1	t		43.0	2.5	/experiments/AOT/AOT_stimuli/rescaled_final/1354_rv.mp4	0.0	401.238792181015	
45	372.7232449054718	pulse	1	t		43.0	2.5	/experiments/AOT/AOT_stimuli/rescaled_final/1354_rv.mp4	0.0	402.8391079902649	
45	373.2397689819336	fix_post	2		12	43.0	2.5	/experiments/AOT/AOT_stimuli/rescaled_final/1354_rv.mp4	0.0	403.3556320667267	0.10003113746643066
46	373.3398001194	fix_pre	0		119	44.0	2.5	/experiments/AOT/AOT_stimuli/rescaled_final/0991_rv.mp4	0.0	403.4556632041931	0.9917318820953369
46	374.32330298423767	pulse	0	t		44.0	2.5	/experiments/AOT/AOT_stimuli/rescaled_final/0991_rv.mp4	0.0	404.43916606903076	
46	374.33153200149536	movie	1		245	44.0	2.5	/experiments/AOT/AOT_stimuli/rescaled_final/0991_rv.mp4	0.0	404.44739508628845	2.5082569122314453
46	375.9230899810791	pulse	1	t		44.0	2.5	/experiments/AOT/AOT_stimuli/rescaled_final/0991_rv.mp4	0.0	406.0389530658722	
46	376.8397889137268	fix_post	2		12	44.0	2.5	/experiments/AOT/AOT_stimuli/rescaled_final/0991_rv.mp4	0.0	406.9556519985199	0.10000920295715332
47	376.93979811668396	fix_pre	0		120	45.0	2.5	/experiments/AOT/AOT_stimuli/rescaled_final/1866_fw.mp4	0.0	407.05566120147705	0.9996240139007568
47	377.52324295043945	pulse	0	t		45.0	2.5	/experiments/AOT/AOT_stimuli/rescaled_final/1866_fw.mp4	0.0	407.63910603523254	
47	377.9394221305847	movie	1		246	45.0	2.5	/experiments/AOT/AOT_stimuli/rescaled_final/1866_fw.mp4	0.0	408.0552852153778	2.500281810760498
47	379.1232750415802	pulse	1	t		45.0	2.5	/experiments/AOT/AOT_stimuli/rescaled_final/1866_fw.mp4	0.0	409.2391381263733	
47	380.4397039413452	fix_post	2		12	45.0	2.5	/experiments/AOT/AOT_stimuli/rescaled_final/1866_fw.mp4	0.0	410.5555670261383	0.10008907318115234
48	380.53979301452637	fix_pre	0		120	46.0	2.5	/experiments/AOT/AOT_stimuli/rescaled_final/0123_fw.mp4	0.0	410.65565609931946	0.9998939037322998
48	380.72327709198	pulse	0	t		46.0	2.5	/experiments/AOT/AOT_stimuli/rescaled_final/0123_fw.mp4	0.0	410.83914017677307	
48	381.53968691825867	movie	1		245	46.0	2.5	/experiments/AOT/AOT_stimuli/rescaled_final/0123_fw.mp4	0.0	411.65555000305176	2.5001490116119385
48	382.32327008247375	pulse	1	t		46.0	2.5	/experiments/AOT/AOT_stimuli/rescaled_final/0123_fw.mp4	0.0	412.43913316726685	
48	383.9217109680176	pulse	1	t		46.0	2.5	/experiments/AOT/AOT_stimuli/rescaled_final/0123_fw.mp4	0.0	414.03757405281067	
48	384.0398359298706	fix_post	2		12	46.0	2.5	/experiments/AOT/AOT_stimuli/rescaled_final/0123_fw.mp4	0.0	414.1556990146637	0.09991002082824707
49	384.13974595069885	fix_pre	0		120	47.0	2.5	blank	1.0	414.25560903549194	0.9999501705169678
49	385.1396961212158	movie	1		300	47.0	2.5	blank	1.0	415.2555592060089	2.5000159740448
49	385.52321600914	pulse	1	t		47.0	2.5	blank	1.0	415.6390790939331	
49	387.1232030391693	pulse	1	t		47.0	2.5	blank	1.0	417.2390661239624	
49	387.6397120952606	fix_post	2		12	47.0	2.5	blank	1.0	417.7555751800537	0.10001683235168457
50	387.7397289276123	fix_pre	0		119	48.0	2.5	/experiments/AOT/AOT_stimuli/rescaled_final/1255_fw.mp4	0.0	417.8555920124054	0.9916231632232666
50	388.7231459617615	pulse	0	t		48.0	2.5	/experiments/AOT/AOT_stimuli/rescaled_final/1255_fw.mp4	0.0	418.83900904655457	
50	388.73135209083557	movie	1		245	48.0	2.5	/experiments/AOT/AOT_stimuli/rescaled_final/1255_fw.mp4	0.0	418.84721517562866	2.508265972137451
50	390.32310605049133	pulse	1	t		48.0	2.5	/experiments/AOT/AOT_stimuli/rescaled_final/1255_fw.mp4	0.0	420.4389691352844	
50	391.239618062973	fix_post	2		12	48.0	2.5	/experiments/AOT/AOT_stimuli/rescaled_final/1255_fw.mp4	0.0	421.3554811477661	0.099639892578125
51	391.33925795555115	fix_pre	0		120	49.0	2.5	/experiments/AOT/AOT_stimuli/rescaled_final/1950_fw.mp4	0.0	421.45512104034424	1.000458002090454
51	391.923180103302	pulse	0	t		49.0	2.5	/experiments/AOT/AOT_stimuli/rescaled_final/1950_fw.mp4	0.0	422.0390431880951	
51	392.3397159576416	movie	1		245	49.0	2.5	/experiments/AOT/AOT_stimuli/rescaled_final/1950_fw.mp4	0.0	422.4555790424347	2.4994821548461914
51	393.5233509540558	pulse	1	t		49.0	2.5	/experiments/AOT/AOT_stimuli/rescaled_final/1950_fw.mp4	0.0	423.6392140388489	
51	394.8391981124878	fix_post	2		12	49.0	2.5	/experiments/AOT/AOT_stimuli/rescaled_final/1950_fw.mp4	0.0	424.9550611972809	0.10038280487060547
52	394.9395809173584	fix_pre	0		120	50.0	2.5	/experiments/AOT/AOT_stimuli/rescaled_final/0673_fw.mp4	0.0	425.0554440021515	1.0001611709594727
52	395.12309193611145	pulse	0	t		50.0	2.5	/experiments/AOT/AOT_stimuli/rescaled_final/0673_fw.mp4	0.0	425.23895502090454	
52	395.93974208831787	movie	1		244	50.0	2.5	/experiments/AOT/AOT_stimuli/rescaled_final/0673_fw.mp4	0.0	426.05560517311096	2.4999070167541504
52	396.7231559753418	pulse	1	t		50.0	2.5	/experiments/AOT/AOT_stimuli/rescaled_final/0673_fw.mp4	0.0	426.8390190601349	
52	398.3213629722595	pulse	1	t		50.0	2.5	/experiments/AOT/AOT_stimuli/rescaled_final/0673_fw.mp4	0.0	428.4372260570526	
52	398.439649105072	fix_post	2		12	50.0	2.5	/experiments/AOT/AOT_stimuli/rescaled_final/0673_fw.mp4	0.0	428.5555121898651	0.10004186630249023
53	398.5396909713745	fix_pre	0		120	51.0	2.5	/experiments/AOT/AOT_stimuli/rescaled_final/1205_fw.mp4	0.0	428.6555540561676	0.9999570846557617
53	399.5396480560303	movie	1		245	51.0	2.5	/experiments/AOT/AOT_stimuli/rescaled_final/1205_fw.mp4	0.0	429.65551114082336	2.5000438690185547
53	399.92262601852417	pulse	1	t		51.0	2.5	/experiments/AOT/AOT_stimuli/rescaled_final/1205_fw.mp4	0.0	430.03848910331726	
53	401.523099899292	pulse	1	t		51.0	2.5	/experiments/AOT/AOT_stimuli/rescaled_final/1205_fw.mp4	0.0	431.6389629840851	
53	402.0396919250488	fix_post	2		12	51.0	2.5	/experiments/AOT/AOT_stimuli/rescaled_final/1205_fw.mp4	0.0	432.1555550098419	0.09956216812133789
54	402.13925409317017	fix_pre	0		119	52.0	2.5	/experiments/AOT/AOT_stimuli/rescaled_final/2108_fw.mp4	0.0	432.25511717796326	0.9915769100189209
54	403.1227180957794	pulse	0	t		52.0	2.5	/experiments/AOT/AOT_stimuli/rescaled_final/2108_fw.mp4	0.0	433.2385811805725	
54	403.1308310031891	movie	1		247	52.0	2.5	/experiments/AOT/AOT_stimuli/rescaled_final/2108_fw.mp4	0.0	433.2466940879822	2.508760929107666
54	404.72246193885803	pulse	1	t		52.0	2.5	/experiments/AOT/AOT_stimuli/rescaled_final/2108_fw.mp4	0.0	434.8383250236511	
54	405.63959193229675	fix_post	2		12	52.0	2.5	/experiments/AOT/AOT_stimuli/rescaled_final/2108_fw.mp4	0.0	435.75545501708984	0.10002708435058594
55	405.73961901664734	fix_pre	0		120	53.0	2.5	/experiments/AOT/AOT_stimuli/rescaled_final/1665_fw.mp4	0.0	435.85548210144043	0.9999959468841553
55	406.32313299179077	pulse	0	t		53.0	2.5	/experiments/AOT/AOT_stimuli/rescaled_final/1665_fw.mp4	0.0	436.43899607658386	
55	406.7396149635315	movie	1		245	53.0	2.5	/experiments/AOT/AOT_stimuli/rescaled_final/1665_fw.mp4	0.0	436.8554780483246	2.499598979949951
55	407.9231719970703	pulse	1	t		53.0	2.5	/experiments/AOT/AOT_stimuli/rescaled_final/1665_fw.mp4	0.0	438.0390350818634	
55	409.23921394348145	fix_post	2		12	53.0	2.5	/experiments/AOT/AOT_stimuli/rescaled_final/1665_fw.mp4	0.0	439.35507702827454	0.10045313835144043
56	409.3396670818329	fix_pre	0		120	54.0	2.5	/experiments/AOT/AOT_stimuli/rescaled_final/1424_rv.mp4	0.0	439.455530166626	0.9998948574066162
56	409.5231239795685	pulse	0	t		54.0	2.5	/experiments/AOT/AOT_stimuli/rescaled_final/1424_rv.mp4	0.0	439.6389870643616	
56	410.3395619392395	movie	1		247	54.0	2.5	/experiments/AOT/AOT_stimuli/rescaled_final/1424_rv.mp4	0.0	440.4554250240326	2.5001320838928223
56	411.1229829788208	pulse	1	t		54.0	2.5	/experiments/AOT/AOT_stimuli/rescaled_final/1424_rv.mp4	0.0	441.2388460636139	
56	412.7226459980011	pulse	1	t		54.0	2.5	/experiments/AOT/AOT_stimuli/rescaled_final/1424_rv.mp4	0.0	442.8385090827942	
56	412.8396940231323	fix_post	2		12	54.0	2.5	/experiments/AOT/AOT_stimuli/rescaled_final/1424_rv.mp4	0.0	442.9555571079254	0.09989404678344727
57	412.93958806991577	fix_pre	0		120	55.0	2.5	/experiments/AOT/AOT_stimuli/rescaled_final/1625_fw.mp4	0.0	443.05545115470886	0.9995369911193848
57	413.93912506103516	movie	1		245	55.0	2.5	/experiments/AOT/AOT_stimuli/rescaled_final/1625_fw.mp4	0.0	444.05498814582825	2.5003819465637207
57	414.32269406318665	pulse	1	t		55.0	2.5	/experiments/AOT/AOT_stimuli/rescaled_final/1625_fw.mp4	0.0	444.43855714797974	
57	415.922975063324	pulse	1	t		55.0	2.5	/experiments/AOT/AOT_stimuli/rescaled_final/1625_fw.mp4	0.0	446.03883814811707	
57	416.4395070075989	fix_post	2		12	55.0	2.5	/experiments/AOT/AOT_stimuli/rescaled_final/1625_fw.mp4	0.0	446.55537009239197	0.09998297691345215
58	416.53948998451233	fix_pre	0		119	56.0	2.5	blank	1.0	446.6553530693054	0.9916989803314209
58	417.5230379104614	pulse	0	t		56.0	2.5	blank	1.0	447.6389009952545	
58	417.53118896484375	movie	1		301	56.0	2.5	blank	1.0	447.64705204963684	2.5083200931549072
58	419.1230700016022	pulse	1	t		56.0	2.5	blank	1.0	449.23893308639526	
58	420.03950905799866	fix_post	2		12	56.0	2.5	blank	1.0	450.15537214279175	0.10005998611450195
59	420.13956904411316	fix_pre	0		120	57.0	2.5	/experiments/AOT/AOT_stimuli/rescaled_final/0698_rv.mp4	0.0	450.25543212890625	1.0000219345092773
59	420.72307300567627	pulse	0	t		57.0	2.5	/experiments/AOT/AOT_stimuli/rescaled_final/0698_rv.mp4	0.0	450.83893609046936	
59	421.13959097862244	movie	1		246	57.0	2.5	/experiments/AOT/AOT_stimuli/rescaled_final/0698_rv.mp4	0.0	451.2554540634155	2.499891996383667
59	422.32308292388916	pulse	1	t		57.0	2.5	/experiments/AOT/AOT_stimuli/rescaled_final/0698_rv.mp4	0.0	452.43894600868225	
59	423.6394829750061	fix_post	2		12	57.0	2.5	/experiments/AOT/AOT_stimuli/rescaled_final/0698_rv.mp4	0.0	453.7553460597992	0.10005402565002441
60	423.7395370006561	fix_pre	0		120	58.0	2.5	/experiments/AOT/AOT_stimuli/rescaled_final/0412_rv.mp4	0.0	453.8554000854492	0.9999709129333496
60	423.923052072525	pulse	0	t		58.0	2.5	/experiments/AOT/AOT_stimuli/rescaled_final/0412_rv.mp4	0.0	454.0389151573181	
60	424.7395079135895	movie	1		247	58.0	2.5	/experiments/AOT/AOT_stimuli/rescaled_final/0412_rv.mp4	0.0	454.85537099838257	2.4995710849761963
60	425.52299213409424	pulse	1	t		58.0	2.5	/experiments/AOT/AOT_stimuli/rescaled_final/0412_rv.mp4	0.0	455.63885521888733	
60	427.12255692481995	pulse	1	t		58.0	2.5	/experiments/AOT/AOT_stimuli/rescaled_final/0412_rv.mp4	0.0	457.23842000961304	
60	427.2390789985657	fix_post	2		12	58.0	2.5	/experiments/AOT/AOT_stimuli/rescaled_final/0412_rv.mp4	0.0	457.35494208335876	0.10002708435058594
61	427.33910608291626	fix_pre	0		120	59.0	2.5	/experiments/AOT/AOT_stimuli/rescaled_final/1009_rv.mp4	0.0	457.45496916770935	1.0004279613494873
61	428.33953404426575	movie	1		247	59.0	2.5	/experiments/AOT/AOT_stimuli/rescaled_final/1009_rv.mp4	0.0	458.45539712905884	2.499912977218628
61	428.72241401672363	pulse	1	t		59.0	2.5	/experiments/AOT/AOT_stimuli/rescaled_final/1009_rv.mp4	0.0	458.8382771015167	
61	430.3229820728302	pulse	1	t		59.0	2.5	/experiments/AOT/AOT_stimuli/rescaled_final/1009_rv.mp4	0.0	460.4388451576233	
61	430.8394470214844	fix_post	2		12	59.0	2.5	/experiments/AOT/AOT_stimuli/rescaled_final/1009_rv.mp4	0.0	460.95531010627747	0.0999290943145752
62	430.93937611579895	fix_pre	0		119	60.0	2.5	/experiments/AOT/AOT_stimuli/rescaled_final/0752_rv.mp4	0.0	461.05523920059204	0.9917328357696533
62	431.92297196388245	pulse	0	t		60.0	2.5	/experiments/AOT/AOT_stimuli/rescaled_final/0752_rv.mp4	0.0	462.03883504867554	
62	431.9311089515686	movie	1		247	60.0	2.5	/experiments/AOT/AOT_stimuli/rescaled_final/0752_rv.mp4	0.0	462.0469720363617	2.5083041191101074
62	433.5226321220398	pulse	1	t		60.0	2.5	/experiments/AOT/AOT_stimuli/rescaled_final/0752_rv.mp4	0.0	463.6384952068329	
62	434.4394130706787	fix_post	2		12	60.0	2.5	/experiments/AOT/AOT_stimuli/rescaled_final/0752_rv.mp4	0.0	464.5552761554718	0.10005402565002441
63	434.53946709632874	fix_pre	0		120	61.0	2.5	blank	1.0	464.6553301811218	0.9995570182800293
63	435.1241989135742	pulse	0	t		61.0	2.5	blank	1.0	465.2400619983673	
63	435.53902411460876	movie	1		300	61.0	2.5	blank	1.0	465.65488719940186	2.5004398822784424
63	436.72303104400635	pulse	1	t		61.0	2.5	blank	1.0	466.83889412879944	
63	438.0394639968872	fix_post	2		12	61.0	2.5	blank	1.0	468.1553270816803	0.09995508193969727
64	438.1394190788269	fix_pre	0		120	62.0	2.5	/experiments/AOT/AOT_stimuli/rescaled_final/2088_rv.mp4	0.0	468.25528216362	0.9995899200439453
64	438.3230199813843	pulse	0	t		62.0	2.5	/experiments/AOT/AOT_stimuli/rescaled_final/2088_rv.mp4	0.0	468.43888306617737	
64	439.13900899887085	movie	1		246	62.0	2.5	/experiments/AOT/AOT_stimuli/rescaled_final/2088_rv.mp4	0.0	469.25487208366394	2.500378131866455
64	439.9229130744934	pulse	1	t		62.0	2.5	/experiments/AOT/AOT_stimuli/rescaled_final/2088_rv.mp4	0.0	470.0387761592865	
64	441.52306294441223	pulse	1	t		62.0	2.5	/experiments/AOT/AOT_stimuli/rescaled_final/2088_rv.mp4	0.0	471.6389260292053	
64	441.6393871307373	fix_post	2		12	62.0	2.5	/experiments/AOT/AOT_stimuli/rescaled_final/2088_rv.mp4	0.0	471.7552502155304	0.09996795654296875
65	441.7393550872803	fix_pre	0		120	63.0	2.5	/experiments/AOT/AOT_stimuli/rescaled_final/1783_fw.mp4	0.0	471.85521817207336	1.0000619888305664
65	442.73941707611084	movie	1		245	63.0	2.5	/experiments/AOT/AOT_stimuli/rescaled_final/1783_fw.mp4	0.0	472.85528016090393	2.4999279975891113
65	443.12222695350647	pulse	1	t		63.0	2.5	/experiments/AOT/AOT_stimuli/rescaled_final/1783_fw.mp4	0.0	473.23809003829956	
65	444.72292399406433	pulse	1	t		63.0	2.5	/experiments/AOT/AOT_stimuli/rescaled_final/1783_fw.mp4	0.0	474.8387870788574	
65	445.23934507369995	fix_post	2		12	63.0	2.5	/experiments/AOT/AOT_stimuli/rescaled_final/1783_fw.mp4	0.0	475.35520815849304	0.10006904602050781
66	445.33941411972046	fix_pre	0		119	64.0	2.5	/experiments/AOT/AOT_stimuli/rescaled_final/1866_rv.mp4	0.0	475.45527720451355	0.9916608333587646
66	446.3229339122772	pulse	0	t		64.0	2.5	/experiments/AOT/AOT_stimuli/rescaled_final/1866_rv.mp4	0.0	476.4387969970703	
66	446.3310749530792	movie	1		246	64.0	2.5	/experiments/AOT/AOT_stimuli/rescaled_final/1866_rv.mp4	0.0	476.4469380378723	2.5083751678466797
66	447.9228630065918	pulse	1	t		64.0	2.5	/experiments/AOT/AOT_stimuli/rescaled_final/1866_rv.mp4	0.0	478.0387260913849	
66	448.8394501209259	fix_post	2		12	64.0	2.5	/experiments/AOT/AOT_stimuli/rescaled_final/1866_rv.mp4	0.0	478.955313205719	0.0999457836151123
67	448.939395904541	fix_pre	0		120	65.0	2.5	/experiments/AOT/AOT_stimuli/rescaled_final/1943_fw.mp4	0.0	479.0552589893341	0.999610185623169
67	449.52292799949646	pulse	0	t		65.0	2.5	/experiments/AOT/AOT_stimuli/rescaled_final/1943_fw.mp4	0.0	479.63879108428955	
67	449.9390060901642	movie	1		244	65.0	2.5	/experiments/AOT/AOT_stimuli/rescaled_final/1943_fw.mp4	0.0	480.0548691749573	2.500424861907959
67	451.1230049133301	pulse	1	t		65.0	2.5	/experiments/AOT/AOT_stimuli/rescaled_final/1943_fw.mp4	0.0	481.23886799812317	
67	452.43943095207214	fix_post	2		12	65.0	2.5	/experiments/AOT/AOT_stimuli/rescaled_final/1943_fw.mp4	0.0	482.55529403686523	0.09993314743041992
68	452.53936409950256	fix_pre	0		120	66.0	2.5	/experiments/AOT/AOT_stimuli/rescaled_final/0011_rv.mp4	0.0	482.65522718429565	1.0001130104064941
68	452.7228970527649	pulse	0	t		66.0	2.5	/experiments/AOT/AOT_stimuli/rescaled_final/0011_rv.mp4	0.0	482.838760137558	
68	453.53947710990906	movie	1		244	66.0	2.5	/experiments/AOT/AOT_stimuli/rescaled_final/0011_rv.mp4	0.0	483.65534019470215	2.4999518394470215
68	454.32285809516907	pulse	1	t		66.0	2.5	/experiments/AOT/AOT_stimuli/rescaled_final/0011_rv.mp4	0.0	484.43872117996216	
68	455.92141699790955	pulse	1	t		66.0	2.5	/experiments/AOT/AOT_stimuli/rescaled_final/0011_rv.mp4	0.0	486.03728008270264	
68	456.0394289493561	fix_post	2		12	66.0	2.5	/experiments/AOT/AOT_stimuli/rescaled_final/0011_rv.mp4	0.0	486.15529203414917	0.0999441146850586
69	456.13937306404114	fix_pre	0		120	67.0	2.5	/experiments/AOT/AOT_stimuli/rescaled_final/1311_rv.mp4	0.0	486.25523614883423	1.000014066696167
69	457.1393871307373	movie	1		245	67.0	2.5	/experiments/AOT/AOT_stimuli/rescaled_final/1311_rv.mp4	0.0	487.2552502155304	2.500154972076416
69	457.52254700660706	pulse	1	t		67.0	2.5	/experiments/AOT/AOT_stimuli/rescaled_final/1311_rv.mp4	0.0	487.63841009140015	
69	459.12288212776184	pulse	1	t		67.0	2.5	/experiments/AOT/AOT_stimuli/rescaled_final/1311_rv.mp4	0.0	489.23874521255493	
69	459.6395421028137	fix_post	2		12	67.0	2.5	/experiments/AOT/AOT_stimuli/rescaled_final/1311_rv.mp4	0.0	489.7554051876068	0.09954190254211426
70	459.73908400535583	fix_pre	0		119	68.0	2.5	blank	1.0	489.8549470901489	0.9917809963226318
70	460.72314405441284	pulse	0	t		68.0	2.5	blank	1.0	490.83900713920593	
70	460.73086500167847	movie	1		301	68.0	2.5	blank	1.0	490.84672808647156	2.5084829330444336
70	462.32288813591003	pulse	1	t		68.0	2.5	blank	1.0	492.4387512207031	
70	463.2393479347229	fix_post	2		12	68.0	2.5	blank	1.0	493.355211019516	0.09999513626098633
71	463.3393430709839	fix_pre	0		120	69.0	2.5	/experiments/AOT/AOT_stimuli/rescaled_final/1049_fw.mp4	0.0	493.455206155777	0.999992847442627
71	463.9228780269623	pulse	0	t		69.0	2.5	/experiments/AOT/AOT_stimuli/rescaled_final/1049_fw.mp4	0.0	494.03874111175537	
71	464.3393359184265	movie	1		244	69.0	2.5	/experiments/AOT/AOT_stimuli/rescaled_final/1049_fw.mp4	0.0	494.4551990032196	2.499939203262329
71	465.5229239463806	pulse	1	t		69.0	2.5	/experiments/AOT/AOT_stimuli/rescaled_final/1049_fw.mp4	0.0	495.6387870311737	
71	466.83927512168884	fix_post	2		12	69.0	2.5	/experiments/AOT/AOT_stimuli/rescaled_final/1049_fw.mp4	0.0	496.95513820648193	0.10003495216369629
72	466.93931007385254	fix_pre	0		120	70.0	2.5	/experiments/AOT/AOT_stimuli/rescaled_final/2054_fw.mp4	0.0	497.05517315864563	1.000040054321289
72	467.1227960586548	pulse	0	t		70.0	2.5	/experiments/AOT/AOT_stimuli/rescaled_final/2054_fw.mp4	0.0	497.2386591434479	
72	467.9393501281738	movie	1		246	70.0	2.5	/experiments/AOT/AOT_stimuli/rescaled_final/2054_fw.mp4	0.0	498.0552132129669	2.499889850616455
72	468.72275590896606	pulse	1	t		70.0	2.5	/experiments/AOT/AOT_stimuli/rescaled_final/2054_fw.mp4	0.0	498.83861899375916	
72	470.32229113578796	pulse	1	t		70.0	2.5	/experiments/AOT/AOT_stimuli/rescaled_final/2054_fw.mp4	0.0	500.43815422058105	
72	470.4392399787903	fix_post	2		12	70.0	2.5	/experiments/AOT/AOT_stimuli/rescaled_final/2054_fw.mp4	0.0	500.5551030635834	0.10001707077026367
73	470.53925704956055	fix_pre	0		120	71.0	2.5	/experiments/AOT/AOT_stimuli/rescaled_final/0673_fw.mp4	0.0	500.65512013435364	0.9995849132537842
73	471.53884196281433	movie	1		243	71.0	2.5	/experiments/AOT/AOT_stimuli/rescaled_final/0673_fw.mp4	0.0	501.6547050476074	2.500427007675171
73	471.9223370552063	pulse	1	t		71.0	2.5	/experiments/AOT/AOT_stimuli/rescaled_final/0673_fw.mp4	0.0	502.0382001399994	
73	473.52267694473267	pulse	1	t		71.0	2.5	/experiments/AOT/AOT_stimuli/rescaled_final/0673_fw.mp4	0.0	503.63854002952576	
73	474.0392689704895	fix_post	2		12	71.0	2.5	/experiments/AOT/AOT_stimuli/rescaled_final/0673_fw.mp4	0.0	504.1551320552826	0.10000896453857422
74	474.1392779350281	fix_pre	0		119	72.0	2.5	/experiments/AOT/AOT_stimuli/rescaled_final/1234_rv.mp4	0.0	504.25514101982117	0.9916131496429443
74	475.12281703948975	pulse	0	t		72.0	2.5	/experiments/AOT/AOT_stimuli/rescaled_final/1234_rv.mp4	0.0	505.23868012428284	
74	475.130891084671	movie	1		246	72.0	2.5	/experiments/AOT/AOT_stimuli/rescaled_final/1234_rv.mp4	0.0	505.2467541694641	2.5083210468292236
74	476.7225489616394	pulse	1	t		72.0	2.5	/experiments/AOT/AOT_stimuli/rescaled_final/1234_rv.mp4	0.0	506.8384120464325	
74	477.63921213150024	fix_post	2		12	72.0	2.5	/experiments/AOT/AOT_stimuli/rescaled_final/1234_rv.mp4	0.0	507.75507521629333	0.10001587867736816
75	477.7392280101776	fix_pre	0		120	73.0	2.5	/experiments/AOT/AOT_stimuli/rescaled_final/1354_fw.mp4	0.0	507.8550910949707	0.9999620914459229
75	478.3227279186249	pulse	0	t		73.0	2.5	/experiments/AOT/AOT_stimuli/rescaled_final/1354_fw.mp4	0.0	508.43859100341797	
75	478.73919010162354	movie	1		243	73.0	2.5	/experiments/AOT/AOT_stimuli/rescaled_final/1354_fw.mp4	0.0	508.8550531864166	2.4999890327453613
75	479.92282605171204	pulse	1	t		73.0	2.5	/experiments/AOT/AOT_stimuli/rescaled_final/1354_fw.mp4	0.0	510.0386891365051	
75	481.2391791343689	fix_post	2		12	73.0	2.5	/experiments/AOT/AOT_stimuli/rescaled_final/1354_fw.mp4	0.0	511.355042219162	0.10015082359313965
76	481.33932995796204	fix_pre	0		120	74.0	2.5	/experiments/AOT/AOT_stimuli/rescaled_final/2090_rv.mp4	0.0	511.4551930427551	0.9994471073150635
76	481.5228431224823	pulse	0	t		74.0	2.5	/experiments/AOT/AOT_stimuli/rescaled_final/2090_rv.mp4	0.0	511.6387062072754	
76	482.3387770652771	movie	1		244	74.0	2.5	/experiments/AOT/AOT_stimuli/rescaled_final/2090_rv.mp4	0.0	512.4546401500702	2.500408887863159
76	483.1227169036865	pulse	1	t		74.0	2.5	/experiments/AOT/AOT_stimuli/rescaled_final/2090_rv.mp4	0.0	513.2385799884796	
76	484.72273111343384	pulse	1	t		74.0	2.5	/experiments/AOT/AOT_stimuli/rescaled_final/2090_rv.mp4	0.0	514.8385941982269	
76	484.83918595314026	fix_post	2		12	74.0	2.5	/experiments/AOT/AOT_stimuli/rescaled_final/2090_rv.mp4	0.0	514.9550490379333	0.099945068359375
77	484.93913102149963	fix_pre	0		120	75.0	2.5	/experiments/AOT/AOT_stimuli/rescaled_final/1468_rv.mp4	0.0	515.0549941062927	1.0000979900360107
77	485.93922901153564	movie	1		246	75.0	2.5	/experiments/AOT/AOT_stimuli/rescaled_final/1468_rv.mp4	0.0	516.0550920963287	2.4995229244232178
77	486.3223900794983	pulse	1	t		75.0	2.5	/experiments/AOT/AOT_stimuli/rescaled_final/1468_rv.mp4	0.0	516.4382531642914	
77	487.9226770401001	pulse	1	t		75.0	2.5	/experiments/AOT/AOT_stimuli/rescaled_final/1468_rv.mp4	0.0	518.0385401248932	
77	488.43875193595886	fix_post	2		12	75.0	2.5	/experiments/AOT/AOT_stimuli/rescaled_final/1468_rv.mp4	0.0	518.554615020752	0.10050415992736816
78	488.53925609588623	fix_pre	0		119	76.0	2.5	blank	1.0	518.6551191806793	0.9915318489074707
78	489.5226180553436	pulse	0	t		76.0	2.5	blank	1.0	519.6384811401367	
78	489.5307879447937	movie	1		301	76.0	2.5	blank	1.0	519.6466510295868	2.508406162261963
78	491.12265610694885	pulse	1	t		76.0	2.5	blank	1.0	521.238519191742	
78	492.03919410705566	fix_post	2		12	76.0	2.5	blank	1.0	522.1550571918488	0.09969401359558105
79	492.13888812065125	fix_pre	0		120	77.0	2.5	/experiments/AOT/AOT_stimuli/rescaled_final/0809_fw.mp4	0.0	522.2547512054443	1.0002899169921875
79	492.72271704673767	pulse	0	t		77.0	2.5	/experiments/AOT/AOT_stimuli/rescaled_final/0809_fw.mp4	0.0	522.8385801315308	
79	493.13917803764343	movie	1		245	77.0	2.5	/experiments/AOT/AOT_stimuli/rescaled_final/0809_fw.mp4	0.0	523.2550411224365	2.499993085861206
79	494.32277607917786	pulse	1	t		77.0	2.5	/experiments/AOT/AOT_stimuli/rescaled_final/0809_fw.mp4	0.0	524.438639163971	
79	495.63917112350464	fix_post	2		12	77.0	2.5	/experiments/AOT/AOT_stimuli/rescaled_final/0809_fw.mp4	0.0	525.7550342082977	0.10001993179321289
80	495.73919105529785	fix_pre	0		120	78.0	2.5	/experiments/AOT/AOT_stimuli/rescaled_final/1665_rv.mp4	0.0	525.8550541400909	0.9999608993530273
80	495.92266607284546	pulse	0	t		78.0	2.5	/experiments/AOT/AOT_stimuli/rescaled_final/1665_rv.mp4	0.0	526.0385291576385	
80	496.7391519546509	movie	1		245	78.0	2.5	/experiments/AOT/AOT_stimuli/rescaled_final/1665_rv.mp4	0.0	526.855015039444	2.499591112136841
80	497.5226991176605	pulse	1	t		78.0	2.5	/experiments/AOT/AOT_stimuli/rescaled_final/1665_rv.mp4	0.0	527.6385622024536	
80	499.1210980415344	pulse	1	t		78.0	2.5	/experiments/AOT/AOT_stimuli/rescaled_final/1665_rv.mp4	0.0	529.2369611263275	
80	499.2387430667877	fix_post	2		12	78.0	2.5	/experiments/AOT/AOT_stimuli/rescaled_final/1665_rv.mp4	0.0	529.3546061515808	0.10042285919189453
81	499.3391659259796	fix_pre	0		120	79.0	2.5	/experiments/AOT/AOT_stimuli/rescaled_final/1149_rv.mp4	0.0	529.4550290107727	0.9995250701904297
81	500.33869099617004	movie	1		244	79.0	2.5	/experiments/AOT/AOT_stimuli/rescaled_final/1149_rv.mp4	0.0	530.4545540809631	2.5003979206085205
81	500.7221870422363	pulse	1	t		79.0	2.5	/experiments/AOT/AOT_stimuli/rescaled_final/1149_rv.mp4	0.0	530.8380501270294	
81	502.32263112068176	pulse	1	t		79.0	2.5	/experiments/AOT/AOT_stimuli/rescaled_final/1149_rv.mp4	0.0	532.4384942054749	
81	502.83908891677856	fix_post	2		12	79.0	2.5	/experiments/AOT/AOT_stimuli/rescaled_final/1149_rv.mp4	0.0	532.9549520015717	0.09997415542602539
82	502.9390630722046	fix_pre	0		119	80.0	2.5	/experiments/AOT/AOT_stimuli/rescaled_final/0927_fw.mp4	0.0	533.0549261569977	0.9917459487915039
82	503.92265701293945	pulse	0	t		80.0	2.5	/experiments/AOT/AOT_stimuli/rescaled_final/0927_fw.mp4	0.0	534.0385200977325	
82	503.9308090209961	movie	1		245	80.0	2.5	/experiments/AOT/AOT_stimuli/rescaled_final/0927_fw.mp4	0.0	534.0466721057892	2.508301019668579
82	505.5221059322357	pulse	1	t		80.0	2.5	/experiments/AOT/AOT_stimuli/rescaled_final/0927_fw.mp4	0.0	535.6379690170288	
82	506.4391100406647	fix_post	2		12	80.0	2.5	/experiments/AOT/AOT_stimuli/rescaled_final/0927_fw.mp4	0.0	536.5549731254578	0.09958386421203613
83	506.5386939048767	fix_pre	0		120	81.0	2.5	/experiments/AOT/AOT_stimuli/rescaled_final/1463_rv.mp4	0.0	536.6545569896698	1.000493049621582
83	507.1226019859314	pulse	0	t		81.0	2.5	/experiments/AOT/AOT_stimuli/rescaled_final/1463_rv.mp4	0.0	537.2384650707245	
83	507.5391869544983	movie	1		245	81.0	2.5	/experiments/AOT/AOT_stimuli/rescaled_final/1463_rv.mp4	0.0	537.6550500392914	2.4994850158691406
83	508.72266006469727	pulse	1	t		81.0	2.5	/experiments/AOT/AOT_stimuli/rescaled_final/1463_rv.mp4	0.0	538.8385231494904	
83	510.03867197036743	fix_post	2		12	81.0	2.5	/experiments/AOT/AOT_stimuli/rescaled_final/1463_rv.mp4	0.0	540.1545350551605	0.10047101974487305
84	510.1391429901123	fix_pre	0		120	82.0	2.5	/experiments/AOT/AOT_stimuli/rescaled_final/2108_rv.mp4	0.0	540.2550060749054	1.0000050067901611
84	510.3226320743561	pulse	0	t		82.0	2.5	/experiments/AOT/AOT_stimuli/rescaled_final/2108_rv.mp4	0.0	540.4384951591492	
84	511.13914799690247	movie	1		247	82.0	2.5	/experiments/AOT/AOT_stimuli/rescaled_final/2108_rv.mp4	0.0	541.2550110816956	2.4995110034942627
84	511.9225149154663	pulse	1	t		82.0	2.5	/experiments/AOT/AOT_stimuli/rescaled_final/2108_rv.mp4	0.0	542.0383780002594	
84	513.5226299762726	pulse	1	t		82.0	2.5	/experiments/AOT/AOT_stimuli/rescaled_final/2108_rv.mp4	0.0	543.6384930610657	
84	513.6386590003967	fix_post	2		12	82.0	2.5	/experiments/AOT/AOT_stimuli/rescaled_final/2108_rv.mp4	0.0	543.7545220851898	0.10004711151123047
85	513.738706111908	fix_pre	0		120	83.0	2.5	blank	1.0	543.854569196701	1.0000438690185547
85	514.7387499809265	movie	1		300	83.0	2.5	blank	1.0	544.8546130657196	2.5007059574127197
85	515.122682094574	pulse	1	t		83.0	2.5	blank	1.0	545.2385451793671	
85	516.7223980426788	pulse	1	t		83.0	2.5	blank	1.0	546.8382611274719	
85	517.2394559383392	fix_post	2		12	83.0	2.5	blank	1.0	547.3553190231323	0.09955811500549316
87	517.3390140533447	stim	0		1716					547.4548771381378	14.300031900405884
87	518.3226089477539	pulse	0	t						548.438472032547	
87	519.9225080013275	pulse	0	t						550.0383710861206	
87	521.5225341320038	pulse	0	t						551.6383972167969	
87	523.1225740909576	pulse	0	t						553.2384371757507	
87	524.7224659919739	pulse	0	t						554.838329076767	
87	526.3225169181824	pulse	0	t						556.4383800029755	
87	527.9224300384521	pulse	0	t						558.0382931232452	
87	529.5224199295044	pulse	0	t						559.6382830142975	
87	531.1223840713501	pulse	0	t						561.2382471561432	
