trial_nr	onset	event_type	phase	response	nr_frames	movie_index	movie_duration	movie_file	blank	onset_abs	duration
0	0.15812993049621582	stim	0		33					20.877197980880737	0.27502894401550293
0	0.417896032333374	response	0	space						21.136964082717896	
1	0.43315887451171875	stim	0		4781					21.15222692489624	39.84158205986023
1	40.26915788650513	pulse	0	t						60.98822593688965	
1	40.27474093437195	stim	1		1717					60.99380898475647	14.30825400352478
1	41.86652398109436	pulse	1	t						62.58559203147888	
1	43.466513872146606	pulse	1	t						64.18558192253113	
1	45.06656002998352	pulse	1	t						65.78562808036804	
1	46.66646480560303	pulse	1	t						67.38553285598755	
1	48.2665159702301	pulse	1	t						68.98558402061462	
1	49.86656594276428	pulse	1	t						70.5856339931488	
1	51.46644592285156	pulse	1	t						72.18551397323608	
1	53.06643986701965	pulse	1	t						73.78550791740417	
2	54.58299493789673	fix_pre	0		11	0.0	2.5	/experiments/AOT/AOT_stimuli/rescaled_final/1756_rv.mp4	0.0	75.30206298828125	0.09171295166015625
2	54.666483879089355	pulse	0	t		0.0	2.5	/experiments/AOT/AOT_stimuli/rescaled_final/1756_rv.mp4	0.0	75.38555192947388	
2	54.674707889556885	movie	1		243	0.0	2.5	/experiments/AOT/AOT_stimuli/rescaled_final/1756_rv.mp4	0.0	75.3937759399414	2.507833957672119
2	56.26602292060852	pulse	1	t		0.0	2.5	/experiments/AOT/AOT_stimuli/rescaled_final/1756_rv.mp4	0.0	76.98509097099304	
2	57.182541847229004	fix_post	2		12	0.0	2.5	/experiments/AOT/AOT_stimuli/rescaled_final/1756_rv.mp4	0.0	77.90160989761353	0.09995317459106445
3	57.28249502182007	fix_pre	0		120	1.0	2.5	/experiments/AOT/AOT_stimuli/rescaled_final/0592_fw.mp4	0.0	78.00156307220459	1.0004868507385254
3	57.866424798965454	pulse	0	t		1.0	2.5	/experiments/AOT/AOT_stimuli/rescaled_final/0592_fw.mp4	0.0	78.58549284934998	
3	58.282981872558594	movie	1		246	1.0	2.5	/experiments/AOT/AOT_stimuli/rescaled_final/0592_fw.mp4	0.0	79.00204992294312	2.499873161315918
3	59.466442823410034	pulse	1	t		1.0	2.5	/experiments/AOT/AOT_stimuli/rescaled_final/0592_fw.mp4	0.0	80.18551087379456	
3	60.78285503387451	fix_post	2		12	1.0	2.5	/experiments/AOT/AOT_stimuli/rescaled_final/0592_fw.mp4	0.0	81.50192308425903	0.10008978843688965
4	60.8829448223114	fix_pre	0		120	2.0	2.5	/experiments/AOT/AOT_stimuli/rescaled_final/1614_rv.mp4	0.0	81.60201287269592	0.9999442100524902
4	61.066330909729004	pulse	0	t		2.0	2.5	/experiments/AOT/AOT_stimuli/rescaled_final/1614_rv.mp4	0.0	81.78539896011353	
4	61.88288903236389	movie	1		245	2.0	2.5	/experiments/AOT/AOT_stimuli/rescaled_final/1614_rv.mp4	0.0	82.60195708274841	2.4999659061431885
4	62.66632580757141	pulse	1	t		2.0	2.5	/experiments/AOT/AOT_stimuli/rescaled_final/1614_rv.mp4	0.0	83.38539385795593	
4	64.26510000228882	pulse	1	t		2.0	2.5	/experiments/AOT/AOT_stimuli/rescaled_final/1614_rv.mp4	0.0	84.98416805267334	
4	64.38285493850708	fix_post	2		12	2.0	2.5	/experiments/AOT/AOT_stimuli/rescaled_final/1614_rv.mp4	0.0	85.1019229888916	0.10003995895385742
5	64.48289489746094	fix_pre	0		120	3.0	2.5	/experiments/AOT/AOT_stimuli/rescaled_final/1306_fw.mp4	0.0	85.20196294784546	0.9996480941772461
5	65.48254299163818	movie	1		245	3.0	2.5	/experiments/AOT/AOT_stimuli/rescaled_final/1306_fw.mp4	0.0	86.2016110420227	2.5002918243408203
5	65.86601686477661	pulse	1	t		3.0	2.5	/experiments/AOT/AOT_stimuli/rescaled_final/1306_fw.mp4	0.0	86.58508491516113	
5	67.46641802787781	pulse	1	t		3.0	2.5	/experiments/AOT/AOT_stimuli/rescaled_final/1306_fw.mp4	0.0	88.18548607826233	
5	67.982834815979	fix_post	2		12	3.0	2.5	/experiments/AOT/AOT_stimuli/rescaled_final/1306_fw.mp4	0.0	88.70190286636353	0.09965205192565918
6	68.08248686790466	fix_pre	0		119	4.0	2.5	/experiments/AOT/AOT_stimuli/rescaled_final/1415_rv.mp4	0.0	88.80155491828918	0.9920740127563477
6	69.0664529800415	pulse	0	t		4.0	2.5	/experiments/AOT/AOT_stimuli/rescaled_final/1415_rv.mp4	0.0	89.78552103042603	
6	69.07456088066101	movie	1		245	4.0	2.5	/experiments/AOT/AOT_stimuli/rescaled_final/1415_rv.mp4	0.0	89.79362893104553	2.50785493850708
6	70.66611790657043	pulse	1	t		4.0	2.5	/experiments/AOT/AOT_stimuli/rescaled_final/1415_rv.mp4	0.0	91.38518595695496	
6	71.58241581916809	fix_post	2		12	4.0	2.5	/experiments/AOT/AOT_stimuli/rescaled_final/1415_rv.mp4	0.0	92.30148386955261	0.10045814514160156
7	71.68287396430969	fix_pre	0		120	5.0	2.5	/experiments/AOT/AOT_stimuli/rescaled_final/1816_fw.mp4	0.0	92.40194201469421	0.9999358654022217
7	72.26639986038208	pulse	0	t		5.0	2.5	/experiments/AOT/AOT_stimuli/rescaled_final/1816_fw.mp4	0.0	92.9854679107666	
7	72.68280982971191	movie	1		245	5.0	2.5	/experiments/AOT/AOT_stimuli/rescaled_final/1816_fw.mp4	0.0	93.40187788009644	2.5000109672546387
7	73.86643099784851	pulse	1	t		5.0	2.5	/experiments/AOT/AOT_stimuli/rescaled_final/1816_fw.mp4	0.0	94.58549904823303	
7	75.18282079696655	fix_post	2		12	5.0	2.5	/experiments/AOT/AOT_stimuli/rescaled_final/1816_fw.mp4	0.0	95.90188884735107	0.10005021095275879
8	75.28287100791931	fix_pre	0		120	6.0	2.5	/experiments/AOT/AOT_stimuli/rescaled_final/0951_rv.mp4	0.0	96.00193905830383	0.9999079704284668
8	75.46634697914124	pulse	0	t		6.0	2.5	/experiments/AOT/AOT_stimuli/rescaled_final/0951_rv.mp4	0.0	96.18541502952576	
8	76.28277897834778	movie	1		244	6.0	2.5	/experiments/AOT/AOT_stimuli/rescaled_final/0951_rv.mp4	0.0	97.0018470287323	2.4996109008789062
8	77.06633496284485	pulse	1	t		6.0	2.5	/experiments/AOT/AOT_stimuli/rescaled_final/0951_rv.mp4	0.0	97.78540301322937	
8	78.66634202003479	pulse	1	t		6.0	2.5	/experiments/AOT/AOT_stimuli/rescaled_final/0951_rv.mp4	0.0	99.38541007041931	
8	78.78238987922668	fix_post	2		12	6.0	2.5	/experiments/AOT/AOT_stimuli/rescaled_final/0951_rv.mp4	0.0	99.5014579296112	0.10039496421813965
9	78.88278484344482	fix_pre	0		120	7.0	2.5	blank	1.0	99.60185289382935	0.9999861717224121
9	79.88277101516724	movie	1		300	7.0	2.5	blank	1.0	100.60183906555176	2.5000879764556885
9	80.2662558555603	pulse	1	t		7.0	2.5	blank	1.0	100.98532390594482	
9	81.8663239479065	pulse	1	t		7.0	2.5	blank	1.0	102.58539199829102	
9	82.38285899162292	fix_post	2		12	7.0	2.5	blank	1.0	103.10192704200745	0.10001087188720703
10	82.48286986351013	fix_pre	0		119	8.0	2.5	/experiments/AOT/AOT_stimuli/rescaled_final/1003_rv.mp4	0.0	103.20193791389465	0.9915859699249268
10	83.4663028717041	pulse	0	t		8.0	2.5	/experiments/AOT/AOT_stimuli/rescaled_final/1003_rv.mp4	0.0	104.18537092208862	
10	83.47445583343506	movie	1		246	8.0	2.5	/experiments/AOT/AOT_stimuli/rescaled_final/1003_rv.mp4	0.0	104.19352388381958	2.507873058319092
10	85.06623888015747	pulse	1	t		8.0	2.5	/experiments/AOT/AOT_stimuli/rescaled_final/1003_rv.mp4	0.0	105.78530693054199	
10	85.98232889175415	fix_post	2		12	8.0	2.5	/experiments/AOT/AOT_stimuli/rescaled_final/1003_rv.mp4	0.0	106.70139694213867	0.10050797462463379
11	86.08283686637878	fix_pre	0		120	9.0	2.5	/experiments/AOT/AOT_stimuli/rescaled_final/2072_fw.mp4	0.0	106.8019049167633	0.9999220371246338
11	86.66628885269165	pulse	0	t		9.0	2.5	/experiments/AOT/AOT_stimuli/rescaled_final/2072_fw.mp4	0.0	107.38535690307617	
11	87.08275890350342	movie	1		243	9.0	2.5	/experiments/AOT/AOT_stimuli/rescaled_final/2072_fw.mp4	0.0	107.80182695388794	2.4999759197235107
11	88.26633501052856	pulse	1	t		9.0	2.5	/experiments/AOT/AOT_stimuli/rescaled_final/2072_fw.mp4	0.0	108.98540306091309	
11	89.58273482322693	fix_post	2		12	9.0	2.5	/experiments/AOT/AOT_stimuli/rescaled_final/2072_fw.mp4	0.0	110.30180287361145	0.10000014305114746
12	89.68273496627808	fix_pre	0		120	10.0	2.5	/experiments/AOT/AOT_stimuli/rescaled_final/1686_rv.mp4	0.0	110.4018030166626	1.0000100135803223
12	89.86632490158081	pulse	0	t		10.0	2.5	/experiments/AOT/AOT_stimuli/rescaled_final/1686_rv.mp4	0.0	110.58539295196533	
12	90.6827449798584	movie	1		245	10.0	2.5	/experiments/AOT/AOT_stimuli/rescaled_final/1686_rv.mp4	0.0	111.40181303024292	2.4999749660491943
12	91.46629285812378	pulse	1	t		10.0	2.5	/experiments/AOT/AOT_stimuli/rescaled_final/1686_rv.mp4	0.0	112.1853609085083	
12	93.06503701210022	pulse	1	t		10.0	2.5	/experiments/AOT/AOT_stimuli/rescaled_final/1686_rv.mp4	0.0	113.78410506248474	
12	93.18271994590759	fix_post	2		12	10.0	2.5	/experiments/AOT/AOT_stimuli/rescaled_final/1686_rv.mp4	0.0	113.90178799629211	0.10000205039978027
13	93.28272199630737	fix_pre	0		120	11.0	2.5	/experiments/AOT/AOT_stimuli/rescaled_final/1705_rv.mp4	0.0	114.0017900466919	1.0000998973846436
13	94.28282189369202	movie	1		243	11.0	2.5	/experiments/AOT/AOT_stimuli/rescaled_final/1705_rv.mp4	0.0	115.00188994407654	2.4999570846557617
13	94.66584587097168	pulse	1	t		11.0	2.5	/experiments/AOT/AOT_stimuli/rescaled_final/1705_rv.mp4	0.0	115.3849139213562	
13	96.26621198654175	pulse	1	t		11.0	2.5	/experiments/AOT/AOT_stimuli/rescaled_final/1705_rv.mp4	0.0	116.98528003692627	
13	96.78277897834778	fix_post	2		12	11.0	2.5	/experiments/AOT/AOT_stimuli/rescaled_final/1705_rv.mp4	0.0	117.5018470287323	0.0999288558959961
14	96.88270783424377	fix_pre	0		119	12.0	2.5	/experiments/AOT/AOT_stimuli/rescaled_final/0211_rv.mp4	0.0	117.6017758846283	0.991671085357666
14	97.86625289916992	pulse	0	t		12.0	2.5	/experiments/AOT/AOT_stimuli/rescaled_final/0211_rv.mp4	0.0	118.58532094955444	
14	97.87437891960144	movie	1		245	12.0	2.5	/experiments/AOT/AOT_stimuli/rescaled_final/0211_rv.mp4	0.0	118.59344696998596	2.508030891418457
14	99.46614003181458	pulse	1	t		12.0	2.5	/experiments/AOT/AOT_stimuli/rescaled_final/0211_rv.mp4	0.0	120.1852080821991	
14	100.3824098110199	fix_post	2		12	12.0	2.5	/experiments/AOT/AOT_stimuli/rescaled_final/0211_rv.mp4	0.0	121.10147786140442	0.10032510757446289
15	100.48273491859436	fix_pre	0		120	13.0	2.5	/experiments/AOT/AOT_stimuli/rescaled_final/1003_rv.mp4	0.0	121.20180296897888	1.000114917755127
15	101.06625485420227	pulse	0	t		13.0	2.5	/experiments/AOT/AOT_stimuli/rescaled_final/1003_rv.mp4	0.0	121.78532290458679	
15	101.48284983634949	movie	1		245	13.0	2.5	/experiments/AOT/AOT_stimuli/rescaled_final/1003_rv.mp4	0.0	122.20191788673401	2.499901056289673
15	102.66622400283813	pulse	1	t		13.0	2.5	/experiments/AOT/AOT_stimuli/rescaled_final/1003_rv.mp4	0.0	123.38529205322266	
15	103.98275089263916	fix_post	2		12	13.0	2.5	/experiments/AOT/AOT_stimuli/rescaled_final/1003_rv.mp4	0.0	124.70181894302368	0.09999704360961914
16	104.08274793624878	fix_pre	0		120	14.0	2.5	blank	1.0	124.8018159866333	0.9996380805969238
16	104.26627993583679	pulse	0	t		14.0	2.5	blank	1.0	124.98534798622131	
16	105.0823860168457	movie	1		300	14.0	2.5	blank	1.0	125.80145406723022	2.5003468990325928
16	105.86646699905396	pulse	1	t		14.0	2.5	blank	1.0	126.58553504943848	
16	107.46630501747131	pulse	1	t		14.0	2.5	blank	1.0	128.18537306785583	
16	107.5827329158783	fix_post	2		12	14.0	2.5	blank	1.0	128.30180096626282	0.09999799728393555
17	107.68273091316223	fix_pre	0		120	15.0	2.5	/experiments/AOT/AOT_stimuli/rescaled_final/1756_fw.mp4	0.0	128.40179896354675	0.9999361038208008
17	108.68266701698303	movie	1		245	15.0	2.5	/experiments/AOT/AOT_stimuli/rescaled_final/1756_fw.mp4	0.0	129.40173506736755	2.4995808601379395
17	109.06575798988342	pulse	1	t		15.0	2.5	/experiments/AOT/AOT_stimuli/rescaled_final/1756_fw.mp4	0.0	129.78482604026794	
17	110.66613388061523	pulse	1	t		15.0	2.5	/experiments/AOT/AOT_stimuli/rescaled_final/1756_fw.mp4	0.0	131.38520193099976	
17	111.18224787712097	fix_post	2		12	15.0	2.5	/experiments/AOT/AOT_stimuli/rescaled_final/1756_fw.mp4	0.0	131.9013159275055	0.10037899017333984
18	111.28262686729431	fix_pre	0		119	16.0	2.5	/experiments/AOT/AOT_stimuli/rescaled_final/0814_fw.mp4	0.0	132.00169491767883	0.9916369915008545
18	112.26613092422485	pulse	0	t		16.0	2.5	/experiments/AOT/AOT_stimuli/rescaled_final/0814_fw.mp4	0.0	132.98519897460938	
18	112.27426385879517	movie	1		247	16.0	2.5	/experiments/AOT/AOT_stimuli/rescaled_final/0814_fw.mp4	0.0	132.9933319091797	2.5084280967712402
18	113.86632990837097	pulse	1	t		16.0	2.5	/experiments/AOT/AOT_stimuli/rescaled_final/0814_fw.mp4	0.0	134.5853979587555	
18	114.7826919555664	fix_post	2		12	16.0	2.5	/experiments/AOT/AOT_stimuli/rescaled_final/0814_fw.mp4	0.0	135.50176000595093	0.099945068359375
19	114.88263702392578	fix_pre	0		120	17.0	2.5	/experiments/AOT/AOT_stimuli/rescaled_final/1510_rv.mp4	0.0	135.6017050743103	0.9996778964996338
19	115.46617102622986	pulse	0	t		17.0	2.5	/experiments/AOT/AOT_stimuli/rescaled_final/1510_rv.mp4	0.0	136.18523907661438	
19	115.88231492042542	movie	1		242	17.0	2.5	/experiments/AOT/AOT_stimuli/rescaled_final/1510_rv.mp4	0.0	136.60138297080994	2.5004429817199707
19	117.06621980667114	pulse	1	t		17.0	2.5	/experiments/AOT/AOT_stimuli/rescaled_final/1510_rv.mp4	0.0	137.78528785705566	
19	118.38275790214539	fix_post	2		12	17.0	2.5	/experiments/AOT/AOT_stimuli/rescaled_final/1510_rv.mp4	0.0	139.1018259525299	0.09987807273864746
20	118.48263597488403	fix_pre	0		120	18.0	2.5	/experiments/AOT/AOT_stimuli/rescaled_final/1407_fw.mp4	0.0	139.20170402526855	1.0000429153442383
20	118.66617584228516	pulse	0	t		18.0	2.5	/experiments/AOT/AOT_stimuli/rescaled_final/1407_fw.mp4	0.0	139.38524389266968	
20	119.48267889022827	movie	1		243	18.0	2.5	/experiments/AOT/AOT_stimuli/rescaled_final/1407_fw.mp4	0.0	140.2017469406128	2.4999611377716064
20	120.26618695259094	pulse	1	t		18.0	2.5	/experiments/AOT/AOT_stimuli/rescaled_final/1407_fw.mp4	0.0	140.98525500297546	
20	121.86469984054565	pulse	1	t		18.0	2.5	/experiments/AOT/AOT_stimuli/rescaled_final/1407_fw.mp4	0.0	142.58376789093018	
20	121.98264002799988	fix_post	2		12	18.0	2.5	/experiments/AOT/AOT_stimuli/rescaled_final/1407_fw.mp4	0.0	142.7017080783844	0.10008788108825684
21	122.08272790908813	fix_pre	0		120	19.0	2.5	blank	1.0	142.80179595947266	0.9999361038208008
21	123.08266401290894	movie	1		300	19.0	2.5	blank	1.0	143.80173206329346	2.499933958053589
21	123.46614003181458	pulse	1	t		19.0	2.5	blank	1.0	144.1852080821991	
21	125.06611895561218	pulse	1	t		19.0	2.5	blank	1.0	145.7851870059967	
21	125.58259797096252	fix_post	2		12	19.0	2.5	blank	1.0	146.30166602134705	0.09996199607849121
22	125.68255996704102	fix_pre	0		119	20.0	2.5	/experiments/AOT/AOT_stimuli/rescaled_final/1556_rv.mp4	0.0	146.40162801742554	0.9916579723358154
22	126.66612195968628	pulse	0	t		20.0	2.5	/experiments/AOT/AOT_stimuli/rescaled_final/1556_rv.mp4	0.0	147.3851900100708	
22	126.67421793937683	movie	1		247	20.0	2.5	/experiments/AOT/AOT_stimuli/rescaled_final/1556_rv.mp4	0.0	147.39328598976135	2.5084118843078613
22	128.266587972641	pulse	1	t		20.0	2.5	/experiments/AOT/AOT_stimuli/rescaled_final/1556_rv.mp4	0.0	148.9856560230255	
22	129.1826298236847	fix_post	2		12	20.0	2.5	/experiments/AOT/AOT_stimuli/rescaled_final/1556_rv.mp4	0.0	149.9016978740692	0.09995007514953613
23	129.28257989883423	fix_pre	0		120	21.0	2.5	/experiments/AOT/AOT_stimuli/rescaled_final/0984_fw.mp4	0.0	150.00164794921875	1.000119924545288
23	129.86608791351318	pulse	0	t		21.0	2.5	/experiments/AOT/AOT_stimuli/rescaled_final/0984_fw.mp4	0.0	150.5851559638977	
23	130.28269982337952	movie	1		245	21.0	2.5	/experiments/AOT/AOT_stimuli/rescaled_final/0984_fw.mp4	0.0	151.00176787376404	2.4999730587005615
23	131.46617102622986	pulse	1	t		21.0	2.5	/experiments/AOT/AOT_stimuli/rescaled_final/0984_fw.mp4	0.0	152.18523907661438	
23	132.78267288208008	fix_post	2		12	21.0	2.5	/experiments/AOT/AOT_stimuli/rescaled_final/0984_fw.mp4	0.0	153.5017409324646	0.09994792938232422
24	132.8826208114624	fix_pre	0		120	22.0	2.5	/experiments/AOT/AOT_stimuli/rescaled_final/1591_fw.mp4	0.0	153.60168886184692	1.0000591278076172
24	133.06610989570618	pulse	0	t		22.0	2.5	/experiments/AOT/AOT_stimuli/rescaled_final/1591_fw.mp4	0.0	153.7851779460907	
24	133.88267993927002	movie	1		244	22.0	2.5	/experiments/AOT/AOT_stimuli/rescaled_final/1591_fw.mp4	0.0	154.60174798965454	2.499479055404663
24	134.66611289978027	pulse	1	t		22.0	2.5	/experiments/AOT/AOT_stimuli/rescaled_final/1591_fw.mp4	0.0	155.3851809501648	
24	136.26527190208435	pulse	1	t		22.0	2.5	/experiments/AOT/AOT_stimuli/rescaled_final/1591_fw.mp4	0.0	156.98433995246887	
24	136.38215899467468	fix_post	2		12	22.0	2.5	/experiments/AOT/AOT_stimuli/rescaled_final/1591_fw.mp4	0.0	157.1012270450592	0.10045695304870605
25	136.4826159477234	fix_pre	0		120	23.0	2.5	/experiments/AOT/AOT_stimuli/rescaled_final/1107_fw.mp4	0.0	157.2016839981079	0.9999580383300781
25	137.48257398605347	movie	1		244	23.0	2.5	/experiments/AOT/AOT_stimuli/rescaled_final/1107_fw.mp4	0.0	158.201642036438	2.4996118545532227
25	137.8671588897705	pulse	1	t		23.0	2.5	/experiments/AOT/AOT_stimuli/rescaled_final/1107_fw.mp4	0.0	158.58622694015503	
25	139.46605801582336	pulse	1	t		23.0	2.5	/experiments/AOT/AOT_stimuli/rescaled_final/1107_fw.mp4	0.0	160.18512606620789	
25	139.9821858406067	fix_post	2		12	23.0	2.5	/experiments/AOT/AOT_stimuli/rescaled_final/1107_fw.mp4	0.0	160.7012538909912	0.10041999816894531
26	140.08260583877563	fix_pre	0		119	24.0	2.5	/experiments/AOT/AOT_stimuli/rescaled_final/0017_rv.mp4	0.0	160.80167388916016	0.9916470050811768
26	141.06603503227234	pulse	0	t		24.0	2.5	/experiments/AOT/AOT_stimuli/rescaled_final/0017_rv.mp4	0.0	161.78510308265686	
26	141.0742528438568	movie	1		245	24.0	2.5	/experiments/AOT/AOT_stimuli/rescaled_final/0017_rv.mp4	0.0	161.79332089424133	2.508476972579956
26	142.66573691368103	pulse	1	t		24.0	2.5	/experiments/AOT/AOT_stimuli/rescaled_final/0017_rv.mp4	0.0	163.38480496406555	
26	143.58272981643677	fix_post	2		12	24.0	2.5	/experiments/AOT/AOT_stimuli/rescaled_final/0017_rv.mp4	0.0	164.3017978668213	0.09942221641540527
27	143.68215203285217	fix_pre	0		120	25.0	2.5	/experiments/AOT/AOT_stimuli/rescaled_final/0067_rv.mp4	0.0	164.4012200832367	1.0004589557647705
27	144.2660059928894	pulse	0	t		25.0	2.5	/experiments/AOT/AOT_stimuli/rescaled_final/0067_rv.mp4	0.0	164.98507404327393	
27	144.68261098861694	movie	1		245	25.0	2.5	/experiments/AOT/AOT_stimuli/rescaled_final/0067_rv.mp4	0.0	165.40167903900146	2.4995248317718506
27	145.8661379814148	pulse	1	t		25.0	2.5	/experiments/AOT/AOT_stimuli/rescaled_final/0067_rv.mp4	0.0	166.58520603179932	
27	147.1821358203888	fix_post	2		12	25.0	2.5	/experiments/AOT/AOT_stimuli/rescaled_final/0067_rv.mp4	0.0	167.90120387077332	0.10039901733398438
28	147.28253483772278	fix_pre	0		120	26.0	2.5	/experiments/AOT/AOT_stimuli/rescaled_final/0611_fw.mp4	0.0	168.0016028881073	0.999993085861206
28	147.46599698066711	pulse	0	t		26.0	2.5	/experiments/AOT/AOT_stimuli/rescaled_final/0611_fw.mp4	0.0	168.18506503105164	
28	148.28252792358398	movie	1		244	26.0	2.5	/experiments/AOT/AOT_stimuli/rescaled_final/0611_fw.mp4	0.0	169.0015959739685	2.499980926513672
28	149.06591892242432	pulse	1	t		26.0	2.5	/experiments/AOT/AOT_stimuli/rescaled_final/0611_fw.mp4	0.0	169.78498697280884	
28	150.66439199447632	pulse	1	t		26.0	2.5	/experiments/AOT/AOT_stimuli/rescaled_final/0611_fw.mp4	0.0	171.38346004486084	
28	150.78250885009766	fix_post	2		12	26.0	2.5	/experiments/AOT/AOT_stimuli/rescaled_final/0611_fw.mp4	0.0	171.50157690048218	0.1000070571899414
29	150.8825159072876	fix_pre	0		120	27.0	2.5	blank	1.0	171.60158395767212	1.0000638961791992
29	151.8825798034668	movie	1		300	27.0	2.5	blank	1.0	172.60164785385132	2.499918222427368
29	152.26605200767517	pulse	1	t		27.0	2.5	blank	1.0	172.9851200580597	
29	153.86592602729797	pulse	1	t		27.0	2.5	blank	1.0	174.5849940776825	
29	154.38249802589417	fix_post	2		12	27.0	2.5	blank	1.0	175.1015660762787	0.09965085983276367
30	154.48214888572693	fix_pre	0		119	28.0	2.5	/experiments/AOT/AOT_stimuli/rescaled_final/0215_rv.mp4	0.0	175.20121693611145	0.9920990467071533
30	155.4660120010376	pulse	0	t		28.0	2.5	/experiments/AOT/AOT_stimuli/rescaled_final/0215_rv.mp4	0.0	176.18508005142212	
30	155.47424793243408	movie	1		244	28.0	2.5	/experiments/AOT/AOT_stimuli/rescaled_final/0215_rv.mp4	0.0	176.1933159828186	2.5082778930664062
30	157.06586003303528	pulse	1	t		28.0	2.5	/experiments/AOT/AOT_stimuli/rescaled_final/0215_rv.mp4	0.0	177.7849280834198	
30	157.9825258255005	fix_post	2		12	28.0	2.5	/experiments/AOT/AOT_stimuli/rescaled_final/0215_rv.mp4	0.0	178.701593875885	0.09998297691345215
31	158.08250880241394	fix_pre	0		120	29.0	2.5	/experiments/AOT/AOT_stimuli/rescaled_final/0342_rv.mp4	0.0	178.80157685279846	0.999547004699707
31	158.6660439968109	pulse	0	t		29.0	2.5	/experiments/AOT/AOT_stimuli/rescaled_final/0342_rv.mp4	0.0	179.38511204719543	
31	159.08205580711365	movie	1		245	29.0	2.5	/experiments/AOT/AOT_stimuli/rescaled_final/0342_rv.mp4	0.0	179.80112385749817	2.500620126724243
31	160.26561498641968	pulse	1	t		29.0	2.5	/experiments/AOT/AOT_stimuli/rescaled_final/0342_rv.mp4	0.0	180.9846830368042	
31	161.5826759338379	fix_post	2		12	29.0	2.5	/experiments/AOT/AOT_stimuli/rescaled_final/0342_rv.mp4	0.0	182.3017439842224	0.10003495216369629
32	161.6827108860016	fix_pre	0		120	30.0	2.5	/experiments/AOT/AOT_stimuli/rescaled_final/1421_rv.mp4	0.0	182.4017789363861	0.9996669292449951
32	161.86617493629456	pulse	0	t		30.0	2.5	/experiments/AOT/AOT_stimuli/rescaled_final/1421_rv.mp4	0.0	182.58524298667908	
32	162.68237781524658	movie	1		245	30.0	2.5	/experiments/AOT/AOT_stimuli/rescaled_final/1421_rv.mp4	0.0	183.4014458656311	2.500070095062256
32	163.46598196029663	pulse	1	t		30.0	2.5	/experiments/AOT/AOT_stimuli/rescaled_final/1421_rv.mp4	0.0	184.18505001068115	
32	165.06465888023376	pulse	1	t		30.0	2.5	/experiments/AOT/AOT_stimuli/rescaled_final/1421_rv.mp4	0.0	185.7837269306183	
32	165.18244791030884	fix_post	2		12	30.0	2.5	/experiments/AOT/AOT_stimuli/rescaled_final/1421_rv.mp4	0.0	185.90151596069336	0.10001111030578613
33	165.28245902061462	fix_pre	0		120	31.0	2.5	/experiments/AOT/AOT_stimuli/rescaled_final/2047_rv.mp4	0.0	186.00152707099915	0.9999690055847168
33	166.28242802619934	movie	1		244	31.0	2.5	/experiments/AOT/AOT_stimuli/rescaled_final/2047_rv.mp4	0.0	187.00149607658386	2.4995789527893066
33	166.66727590560913	pulse	1	t		31.0	2.5	/experiments/AOT/AOT_stimuli/rescaled_final/2047_rv.mp4	0.0	187.38634395599365	
33	168.26583790779114	pulse	1	t		31.0	2.5	/experiments/AOT/AOT_stimuli/rescaled_final/2047_rv.mp4	0.0	188.98490595817566	
33	168.78200697898865	fix_post	2		12	31.0	2.5	/experiments/AOT/AOT_stimuli/rescaled_final/2047_rv.mp4	0.0	189.50107502937317	0.10035085678100586
34	168.88235783576965	fix_pre	0		119	32.0	2.5	/experiments/AOT/AOT_stimuli/rescaled_final/1560_rv.mp4	0.0	189.60142588615417	0.9916970729827881
34	169.86592197418213	pulse	0	t		32.0	2.5	/experiments/AOT/AOT_stimuli/rescaled_final/1560_rv.mp4	0.0	190.58499002456665	
34	169.87405490875244	movie	1		246	32.0	2.5	/experiments/AOT/AOT_stimuli/rescaled_final/1560_rv.mp4	0.0	190.59312295913696	2.507991075515747
34	171.4664478302002	pulse	1	t		32.0	2.5	/experiments/AOT/AOT_stimuli/rescaled_final/1560_rv.mp4	0.0	192.18551588058472	
34	172.3820459842682	fix_post	2		12	32.0	2.5	/experiments/AOT/AOT_stimuli/rescaled_final/1560_rv.mp4	0.0	193.1011140346527	0.10040688514709473
35	172.48245286941528	fix_pre	0		120	33.0	2.5	/experiments/AOT/AOT_stimuli/rescaled_final/0929_fw.mp4	0.0	193.2015209197998	0.9999899864196777
35	173.06593489646912	pulse	0	t		33.0	2.5	/experiments/AOT/AOT_stimuli/rescaled_final/0929_fw.mp4	0.0	193.78500294685364	
35	173.48244285583496	movie	1		245	33.0	2.5	/experiments/AOT/AOT_stimuli/rescaled_final/0929_fw.mp4	0.0	194.20151090621948	2.4999520778656006
35	174.66595697402954	pulse	1	t		33.0	2.5	/experiments/AOT/AOT_stimuli/rescaled_final/0929_fw.mp4	0.0	195.38502502441406	
35	175.98239493370056	fix_post	2		12	33.0	2.5	/experiments/AOT/AOT_stimuli/rescaled_final/0929_fw.mp4	0.0	196.70146298408508	0.0999898910522461
36	176.0823848247528	fix_pre	0		120	34.0	2.5	/experiments/AOT/AOT_stimuli/rescaled_final/0017_fw.mp4	0.0	196.80145287513733	0.9999589920043945
36	176.26584482192993	pulse	0	t		34.0	2.5	/experiments/AOT/AOT_stimuli/rescaled_final/0017_fw.mp4	0.0	196.98491287231445	
36	177.0823438167572	movie	1		245	34.0	2.5	/experiments/AOT/AOT_stimuli/rescaled_final/0017_fw.mp4	0.0	197.80141186714172	2.5000901222229004
36	177.86594891548157	pulse	1	t		34.0	2.5	/experiments/AOT/AOT_stimuli/rescaled_final/0017_fw.mp4	0.0	198.5850169658661	
36	179.466148853302	pulse	1	t		34.0	2.5	/experiments/AOT/AOT_stimuli/rescaled_final/0017_fw.mp4	0.0	200.18521690368652	
36	179.5824339389801	fix_post	2		12	34.0	2.5	/experiments/AOT/AOT_stimuli/rescaled_final/0017_fw.mp4	0.0	200.30150198936462	0.09996986389160156
37	179.6824038028717	fix_pre	0		120	35.0	2.5	blank	1.0	200.40147185325623	1.0000150203704834
37	180.6824188232422	movie	1		300	35.0	2.5	blank	1.0	201.4014868736267	2.499927043914795
37	181.06586384773254	pulse	1	t		35.0	2.5	blank	1.0	201.78493189811707	
37	182.66588401794434	pulse	1	t		35.0	2.5	blank	1.0	203.38495206832886	
37	183.18234586715698	fix_post	2		12	35.0	2.5	blank	1.0	203.9014139175415	0.10001516342163086
38	183.2823610305786	fix_pre	0		119	36.0	2.5	/experiments/AOT/AOT_stimuli/rescaled_final/0119_rv.mp4	0.0	204.00142908096313	0.9916529655456543
38	184.26578903198242	pulse	0	t		36.0	2.5	/experiments/AOT/AOT_stimuli/rescaled_final/0119_rv.mp4	0.0	204.98485708236694	
38	184.27401399612427	movie	1		243	36.0	2.5	/experiments/AOT/AOT_stimuli/rescaled_final/0119_rv.mp4	0.0	204.9930820465088	2.5079398155212402
38	185.8657410144806	pulse	1	t		36.0	2.5	/experiments/AOT/AOT_stimuli/rescaled_final/0119_rv.mp4	0.0	206.5848090648651	
38	186.7819538116455	fix_post	2		12	36.0	2.5	/experiments/AOT/AOT_stimuli/rescaled_final/0119_rv.mp4	0.0	207.50102186203003	0.1004190444946289
39	186.88237285614014	fix_pre	0		120	37.0	2.5	/experiments/AOT/AOT_stimuli/rescaled_final/1836_rv.mp4	0.0	207.60144090652466	0.9999520778656006
39	187.46598100662231	pulse	0	t		37.0	2.5	/experiments/AOT/AOT_stimuli/rescaled_final/1836_rv.mp4	0.0	208.18504905700684	
39	187.88232493400574	movie	1		243	37.0	2.5	/experiments/AOT/AOT_stimuli/rescaled_final/1836_rv.mp4	0.0	208.60139298439026	2.4999840259552
39	189.06582498550415	pulse	1	t		37.0	2.5	/experiments/AOT/AOT_stimuli/rescaled_final/1836_rv.mp4	0.0	209.78489303588867	
39	190.38230895996094	fix_post	2		12	37.0	2.5	/experiments/AOT/AOT_stimuli/rescaled_final/1836_rv.mp4	0.0	211.10137701034546	0.10005903244018555
40	190.48236799240112	fix_pre	0		120	38.0	2.5	/experiments/AOT/AOT_stimuli/rescaled_final/1286_fw.mp4	0.0	211.20143604278564	0.9999508857727051
40	190.66585993766785	pulse	0	t		38.0	2.5	/experiments/AOT/AOT_stimuli/rescaled_final/1286_fw.mp4	0.0	211.38492798805237	
40	191.48231887817383	movie	1		245	38.0	2.5	/experiments/AOT/AOT_stimuli/rescaled_final/1286_fw.mp4	0.0	212.20138692855835	2.5000150203704834
40	192.26573491096497	pulse	1	t		38.0	2.5	/experiments/AOT/AOT_stimuli/rescaled_final/1286_fw.mp4	0.0	212.9848029613495	
40	193.8657739162445	pulse	1	t		38.0	2.5	/experiments/AOT/AOT_stimuli/rescaled_final/1286_fw.mp4	0.0	214.58484196662903	
40	193.9823338985443	fix_post	2		12	38.0	2.5	/experiments/AOT/AOT_stimuli/rescaled_final/1286_fw.mp4	0.0	214.70140194892883	0.09997010231018066
41	194.0823040008545	fix_pre	0		120	39.0	2.5	/experiments/AOT/AOT_stimuli/rescaled_final/1324_fw.mp4	0.0	214.801372051239	0.9999949932098389
41	195.08229899406433	movie	1		243	39.0	2.5	/experiments/AOT/AOT_stimuli/rescaled_final/1324_fw.mp4	0.0	215.80136704444885	2.4995968341827393
41	195.46550583839417	pulse	1	t		39.0	2.5	/experiments/AOT/AOT_stimuli/rescaled_final/1324_fw.mp4	0.0	216.1845738887787	
41	197.06583285331726	pulse	1	t		39.0	2.5	/experiments/AOT/AOT_stimuli/rescaled_final/1324_fw.mp4	0.0	217.78490090370178	
41	197.58189582824707	fix_post	2		12	39.0	2.5	/experiments/AOT/AOT_stimuli/rescaled_final/1324_fw.mp4	0.0	218.3009638786316	0.10040616989135742
42	197.68230199813843	fix_pre	0		119	40.0	2.5	/experiments/AOT/AOT_stimuli/rescaled_final/1951_fw.mp4	0.0	218.40137004852295	0.9916629791259766
42	198.66582894325256	pulse	0	t		40.0	2.5	/experiments/AOT/AOT_stimuli/rescaled_final/1951_fw.mp4	0.0	219.38489699363708	
42	198.6739649772644	movie	1		246	40.0	2.5	/experiments/AOT/AOT_stimuli/rescaled_final/1951_fw.mp4	0.0	219.39303302764893	2.5083189010620117
42	200.26691699028015	pulse	1	t		40.0	2.5	/experiments/AOT/AOT_stimuli/rescaled_final/1951_fw.mp4	0.0	220.98598504066467	
42	201.18228387832642	fix_post	2		12	40.0	2.5	/experiments/AOT/AOT_stimuli/rescaled_final/1951_fw.mp4	0.0	221.90135192871094	0.10003399848937988
43	201.2823178768158	fix_pre	0		120	41.0	2.5	blank	1.0	222.00138592720032	1.0000009536743164
43	201.86582589149475	pulse	0	t		41.0	2.5	blank	1.0	222.58489394187927	
43	202.2823188304901	movie	1		300	41.0	2.5	blank	1.0	223.00138688087463	2.499965190887451
43	203.46579003334045	pulse	1	t		41.0	2.5	blank	1.0	224.18485808372498	
43	204.78228402137756	fix_post	2		12	41.0	2.5	blank	1.0	225.50135207176208	0.09992790222167969
44	204.88221192359924	fix_pre	0		120	42.0	2.5	/experiments/AOT/AOT_stimuli/rescaled_final/1475_rv.mp4	0.0	225.60127997398376	1.0000860691070557
44	205.06576490402222	pulse	0	t		42.0	2.5	/experiments/AOT/AOT_stimuli/rescaled_final/1475_rv.mp4	0.0	225.78483295440674	
44	205.8822979927063	movie	1		244	42.0	2.5	/experiments/AOT/AOT_stimuli/rescaled_final/1475_rv.mp4	0.0	226.60136604309082	2.499508857727051
44	206.66577696800232	pulse	1	t		42.0	2.5	/experiments/AOT/AOT_stimuli/rescaled_final/1475_rv.mp4	0.0	227.38484501838684	
44	208.27418088912964	pulse	1	t		42.0	2.5	/experiments/AOT/AOT_stimuli/rescaled_final/1475_rv.mp4	0.0	228.99324893951416	
44	208.38180685043335	fix_post	2		12	42.0	2.5	/experiments/AOT/AOT_stimuli/rescaled_final/1475_rv.mp4	0.0	229.10087490081787	0.10046100616455078
45	208.4822678565979	fix_pre	0		120	43.0	2.5	/experiments/AOT/AOT_stimuli/rescaled_final/1296_rv.mp4	0.0	229.20133590698242	0.9995191097259521
45	209.48178696632385	movie	1		244	43.0	2.5	/experiments/AOT/AOT_stimuli/rescaled_final/1296_rv.mp4	0.0	230.20085501670837	2.5003769397735596
45	209.86538195610046	pulse	1	t		43.0	2.5	/experiments/AOT/AOT_stimuli/rescaled_final/1296_rv.mp4	0.0	230.58445000648499	
45	211.46571493148804	pulse	1	t		43.0	2.5	/experiments/AOT/AOT_stimuli/rescaled_final/1296_rv.mp4	0.0	232.18478298187256	
45	211.9821639060974	fix_post	2		12	43.0	2.5	/experiments/AOT/AOT_stimuli/rescaled_final/1296_rv.mp4	0.0	232.70123195648193	0.10004401206970215
46	212.08220791816711	fix_pre	0		119	44.0	2.5	/experiments/AOT/AOT_stimuli/rescaled_final/2127_fw.mp4	0.0	232.80127596855164	0.991692066192627
46	213.06566882133484	pulse	0	t		44.0	2.5	/experiments/AOT/AOT_stimuli/rescaled_final/2127_fw.mp4	0.0	233.78473687171936	
46	213.07389998435974	movie	1		250	44.0	2.5	/experiments/AOT/AOT_stimuli/rescaled_final/2127_fw.mp4	0.0	233.79296803474426	2.507982015609741
46	214.6652820110321	pulse	1	t		44.0	2.5	/experiments/AOT/AOT_stimuli/rescaled_final/2127_fw.mp4	0.0	235.38435006141663	
46	215.58188199996948	fix_post	2		12	44.0	2.5	/experiments/AOT/AOT_stimuli/rescaled_final/2127_fw.mp4	0.0	236.300950050354	0.10003495216369629
47	215.68191695213318	fix_pre	0		120	45.0	2.5	/experiments/AOT/AOT_stimuli/rescaled_final/1456_rv.mp4	0.0	236.4009850025177	1.000411033630371
47	216.26530194282532	pulse	0	t		45.0	2.5	/experiments/AOT/AOT_stimuli/rescaled_final/1456_rv.mp4	0.0	236.98436999320984	
47	216.68232798576355	movie	1		242	45.0	2.5	/experiments/AOT/AOT_stimuli/rescaled_final/1456_rv.mp4	0.0	237.40139603614807	2.499837875366211
47	217.86603593826294	pulse	1	t		45.0	2.5	/experiments/AOT/AOT_stimuli/rescaled_final/1456_rv.mp4	0.0	238.58510398864746	
47	219.18216586112976	fix_post	2		12	45.0	2.5	/experiments/AOT/AOT_stimuli/rescaled_final/1456_rv.mp4	0.0	239.90123391151428	0.10006213188171387
48	219.28222799301147	fix_pre	0		120	46.0	2.5	/experiments/AOT/AOT_stimuli/rescaled_final/0124_fw.mp4	0.0	240.001296043396	0.9999849796295166
48	219.46568298339844	pulse	0	t		46.0	2.5	/experiments/AOT/AOT_stimuli/rescaled_final/0124_fw.mp4	0.0	240.18475103378296	
48	220.282212972641	movie	1		244	46.0	2.5	/experiments/AOT/AOT_stimuli/rescaled_final/0124_fw.mp4	0.0	241.0012810230255	2.499966859817505
48	221.06566190719604	pulse	1	t		46.0	2.5	/experiments/AOT/AOT_stimuli/rescaled_final/0124_fw.mp4	0.0	241.78472995758057	
48	222.66400694847107	pulse	1	t		46.0	2.5	/experiments/AOT/AOT_stimuli/rescaled_final/0124_fw.mp4	0.0	243.3830749988556	
48	222.7821798324585	fix_post	2		12	46.0	2.5	/experiments/AOT/AOT_stimuli/rescaled_final/0124_fw.mp4	0.0	243.50124788284302	0.09996604919433594
49	222.88214588165283	fix_pre	0		120	47.0	2.5	blank	1.0	243.60121393203735	1.0000460147857666
49	223.8821918964386	movie	1		300	47.0	2.5	blank	1.0	244.60125994682312	2.4999759197235107
49	224.26563501358032	pulse	1	t		47.0	2.5	blank	1.0	244.98470306396484	
49	225.8656280040741	pulse	1	t		47.0	2.5	blank	1.0	246.58469605445862	
49	226.3821678161621	fix_post	2		12	47.0	2.5	blank	1.0	247.10123586654663	0.0999901294708252
50	226.48215794563293	fix_pre	0		119	48.0	2.5	/experiments/AOT/AOT_stimuli/rescaled_final/1081_fw.mp4	0.0	247.20122599601746	0.9916110038757324
50	227.46568489074707	pulse	0	t		48.0	2.5	/experiments/AOT/AOT_stimuli/rescaled_final/1081_fw.mp4	0.0	248.1847529411316	
50	227.47376894950867	movie	1		247	48.0	2.5	/experiments/AOT/AOT_stimuli/rescaled_final/1081_fw.mp4	0.0	248.1928369998932	2.507938861846924
50	229.0652368068695	pulse	1	t		48.0	2.5	/experiments/AOT/AOT_stimuli/rescaled_final/1081_fw.mp4	0.0	249.78430485725403	
50	229.9817078113556	fix_post	2		12	48.0	2.5	/experiments/AOT/AOT_stimuli/rescaled_final/1081_fw.mp4	0.0	250.7007758617401	0.1004171371459961
51	230.0821249485016	fix_pre	0		120	49.0	2.5	/experiments/AOT/AOT_stimuli/rescaled_final/0766_rv.mp4	0.0	250.8011929988861	1.0000028610229492
51	230.66557693481445	pulse	0	t		49.0	2.5	/experiments/AOT/AOT_stimuli/rescaled_final/0766_rv.mp4	0.0	251.38464498519897	
51	231.08212780952454	movie	1		246	49.0	2.5	/experiments/AOT/AOT_stimuli/rescaled_final/0766_rv.mp4	0.0	251.80119585990906	2.4998152256011963
51	232.26572394371033	pulse	1	t		49.0	2.5	/experiments/AOT/AOT_stimuli/rescaled_final/0766_rv.mp4	0.0	252.98479199409485	
51	233.58194303512573	fix_post	2		12	49.0	2.5	/experiments/AOT/AOT_stimuli/rescaled_final/0766_rv.mp4	0.0	254.30101108551025	0.10010480880737305
52	233.6820478439331	fix_pre	0		120	50.0	2.5	/experiments/AOT/AOT_stimuli/rescaled_final/0168_rv.mp4	0.0	254.40111589431763	1.0001370906829834
52	233.86565279960632	pulse	0	t		50.0	2.5	/experiments/AOT/AOT_stimuli/rescaled_final/0168_rv.mp4	0.0	254.58472084999084	
52	234.6821849346161	movie	1		243	50.0	2.5	/experiments/AOT/AOT_stimuli/rescaled_final/0168_rv.mp4	0.0	255.4012529850006	2.499458074569702
52	235.46551489830017	pulse	1	t		50.0	2.5	/experiments/AOT/AOT_stimuli/rescaled_final/0168_rv.mp4	0.0	256.1845829486847	
52	237.07401394844055	pulse	1	t		50.0	2.5	/experiments/AOT/AOT_stimuli/rescaled_final/0168_rv.mp4	0.0	257.7930819988251	
52	237.1816430091858	fix_post	2		12	50.0	2.5	/experiments/AOT/AOT_stimuli/rescaled_final/0168_rv.mp4	0.0	257.9007110595703	0.10049986839294434
53	237.28214287757874	fix_pre	0		120	51.0	2.5	/experiments/AOT/AOT_stimuli/rescaled_final/0987_fw.mp4	0.0	258.00121092796326	0.9994940757751465
53	238.28163695335388	movie	1		243	51.0	2.5	/experiments/AOT/AOT_stimuli/rescaled_final/0987_fw.mp4	0.0	259.0007050037384	2.500472068786621
53	238.66534996032715	pulse	1	t		51.0	2.5	/experiments/AOT/AOT_stimuli/rescaled_final/0987_fw.mp4	0.0	259.38441801071167	
53	240.26557087898254	pulse	1	t		51.0	2.5	/experiments/AOT/AOT_stimuli/rescaled_final/0987_fw.mp4	0.0	260.98463892936707	
53	240.7821090221405	fix_post	2		12	51.0	2.5	/experiments/AOT/AOT_stimuli/rescaled_final/0987_fw.mp4	0.0	261.501177072525	0.09960198402404785
54	240.88171100616455	fix_pre	0		119	52.0	2.5	/experiments/AOT/AOT_stimuli/rescaled_final/0592_rv.mp4	0.0	261.6007790565491	0.9919748306274414
54	241.86561799049377	pulse	0	t		52.0	2.5	/experiments/AOT/AOT_stimuli/rescaled_final/0592_rv.mp4	0.0	262.5846860408783	
54	241.873685836792	movie	1		248	52.0	2.5	/experiments/AOT/AOT_stimuli/rescaled_final/0592_rv.mp4	0.0	262.5927538871765	2.5083541870117188
54	243.46582794189453	pulse	1	t		52.0	2.5	/experiments/AOT/AOT_stimuli/rescaled_final/0592_rv.mp4	0.0	264.18489599227905	
54	244.3820400238037	fix_post	2		12	52.0	2.5	/experiments/AOT/AOT_stimuli/rescaled_final/0592_rv.mp4	0.0	265.10110807418823	0.09997200965881348
55	244.48201203346252	fix_pre	0		120	53.0	2.5	/experiments/AOT/AOT_stimuli/rescaled_final/0171_rv.mp4	0.0	265.20108008384705	1.000032901763916
55	245.06552386283875	pulse	0	t		53.0	2.5	/experiments/AOT/AOT_stimuli/rescaled_final/0171_rv.mp4	0.0	265.78459191322327	
55	245.48204493522644	movie	1		243	53.0	2.5	/experiments/AOT/AOT_stimuli/rescaled_final/0171_rv.mp4	0.0	266.20111298561096	2.4999659061431885
55	246.66563892364502	pulse	1	t		53.0	2.5	/experiments/AOT/AOT_stimuli/rescaled_final/0171_rv.mp4	0.0	267.38470697402954	
55	247.98201084136963	fix_post	2		12	53.0	2.5	/experiments/AOT/AOT_stimuli/rescaled_final/0171_rv.mp4	0.0	268.70107889175415	0.09960603713989258
56	248.08161687850952	fix_pre	0		120	54.0	2.5	/experiments/AOT/AOT_stimuli/rescaled_final/0951_fw.mp4	0.0	268.80068492889404	1.0000360012054443
56	248.265615940094	pulse	0	t		54.0	2.5	/experiments/AOT/AOT_stimuli/rescaled_final/0951_fw.mp4	0.0	268.9846839904785	
56	249.08165287971497	movie	1		246	54.0	2.5	/experiments/AOT/AOT_stimuli/rescaled_final/0951_fw.mp4	0.0	269.8007209300995	2.500335931777954
56	249.86541986465454	pulse	1	t		54.0	2.5	/experiments/AOT/AOT_stimuli/rescaled_final/0951_fw.mp4	0.0	270.58448791503906	
56	251.46551489830017	pulse	1	t		54.0	2.5	/experiments/AOT/AOT_stimuli/rescaled_final/0951_fw.mp4	0.0	272.1845829486847	
56	251.58198881149292	fix_post	2		12	54.0	2.5	/experiments/AOT/AOT_stimuli/rescaled_final/0951_fw.mp4	0.0	272.30105686187744	0.09966206550598145
57	251.6816508769989	fix_pre	0		120	55.0	2.5	blank	1.0	272.4007189273834	1.0003831386566162
57	252.68203401565552	movie	1		300	55.0	2.5	blank	1.0	273.40110206604004	2.500032901763916
57	253.06563591957092	pulse	1	t		55.0	2.5	blank	1.0	273.78470396995544	
57	254.66554403305054	pulse	1	t		55.0	2.5	blank	1.0	275.38461208343506	
57	255.18206691741943	fix_post	2		12	55.0	2.5	blank	1.0	275.90113496780396	0.09991097450256348
58	255.281977891922	fix_pre	0		119	56.0	2.5	/experiments/AOT/AOT_stimuli/rescaled_final/1305_fw.mp4	0.0	276.0010459423065	0.9918320178985596
58	256.2655038833618	pulse	0	t		56.0	2.5	/experiments/AOT/AOT_stimuli/rescaled_final/1305_fw.mp4	0.0	276.98457193374634	
58	256.27380990982056	movie	1		245	56.0	2.5	/experiments/AOT/AOT_stimuli/rescaled_final/1305_fw.mp4	0.0	276.9928779602051	2.5077569484710693
58	257.86500000953674	pulse	1	t		56.0	2.5	/experiments/AOT/AOT_stimuli/rescaled_final/1305_fw.mp4	0.0	278.58406805992126	
58	258.7815668582916	fix_post	2		12	56.0	2.5	/experiments/AOT/AOT_stimuli/rescaled_final/1305_fw.mp4	0.0	279.50063490867615	0.10039710998535156
59	258.881963968277	fix_pre	0		120	57.0	2.5	/experiments/AOT/AOT_stimuli/rescaled_final/0566_fw.mp4	0.0	279.6010320186615	0.9996259212493896
59	259.4655089378357	pulse	0	t		57.0	2.5	/experiments/AOT/AOT_stimuli/rescaled_final/0566_fw.mp4	0.0	280.1845769882202	
59	259.88158988952637	movie	1		243	57.0	2.5	/experiments/AOT/AOT_stimuli/rescaled_final/0566_fw.mp4	0.0	280.6006579399109	2.5000500679016113
59	261.06550884246826	pulse	1	t		57.0	2.5	/experiments/AOT/AOT_stimuli/rescaled_final/0566_fw.mp4	0.0	281.7845768928528	
59	262.381639957428	fix_post	2		12	57.0	2.5	/experiments/AOT/AOT_stimuli/rescaled_final/0566_fw.mp4	0.0	283.1007080078125	0.10032892227172852
60	262.4819688796997	fix_pre	0		120	58.0	2.5	/experiments/AOT/AOT_stimuli/rescaled_final/2179_rv.mp4	0.0	283.20103693008423	0.9995670318603516
60	262.66556096076965	pulse	0	t		58.0	2.5	/experiments/AOT/AOT_stimuli/rescaled_final/2179_rv.mp4	0.0	283.3846290111542	
60	263.48153591156006	movie	1		244	58.0	2.5	/experiments/AOT/AOT_stimuli/rescaled_final/2179_rv.mp4	0.0	284.2006039619446	2.500394105911255
60	264.26545691490173	pulse	1	t		58.0	2.5	/experiments/AOT/AOT_stimuli/rescaled_final/2179_rv.mp4	0.0	284.98452496528625	
60	265.8738479614258	pulse	1	t		58.0	2.5	/experiments/AOT/AOT_stimuli/rescaled_final/2179_rv.mp4	0.0	286.5929160118103	
60	265.9819300174713	fix_post	2		12	58.0	2.5	/experiments/AOT/AOT_stimuli/rescaled_final/2179_rv.mp4	0.0	286.70099806785583	0.1001749038696289
61	266.08210492134094	fix_pre	0		120	59.0	2.5	/experiments/AOT/AOT_stimuli/rescaled_final/0122_rv.mp4	0.0	286.80117297172546	0.9998180866241455
61	267.0819230079651	movie	1		243	59.0	2.5	/experiments/AOT/AOT_stimuli/rescaled_final/0122_rv.mp4	0.0	287.8009910583496	2.4997358322143555
61	267.4649269580841	pulse	1	t		59.0	2.5	/experiments/AOT/AOT_stimuli/rescaled_final/0122_rv.mp4	0.0	288.1839950084686	
61	269.0654399394989	pulse	1	t		59.0	2.5	/experiments/AOT/AOT_stimuli/rescaled_final/0122_rv.mp4	0.0	289.7845079898834	
61	269.58165884017944	fix_post	2		12	59.0	2.5	/experiments/AOT/AOT_stimuli/rescaled_final/0122_rv.mp4	0.0	290.30072689056396	0.09988713264465332
62	269.6815459728241	fix_pre	0		119	60.0	2.5	/experiments/AOT/AOT_stimuli/rescaled_final/0211_fw.mp4	0.0	290.4006140232086	0.9920868873596191
62	270.6654329299927	pulse	0	t		60.0	2.5	/experiments/AOT/AOT_stimuli/rescaled_final/0211_fw.mp4	0.0	291.3845009803772	
62	270.6736328601837	movie	1		246	60.0	2.5	/experiments/AOT/AOT_stimuli/rescaled_final/0211_fw.mp4	0.0	291.39270091056824	2.5080621242523193
62	272.2648468017578	pulse	1	t		60.0	2.5	/experiments/AOT/AOT_stimuli/rescaled_final/0211_fw.mp4	0.0	292.98391485214233	
62	273.18169498443604	fix_post	2		12	60.0	2.5	/experiments/AOT/AOT_stimuli/rescaled_final/0211_fw.mp4	0.0	293.90076303482056	0.10014796257019043
63	273.2818429470062	fix_pre	0		120	61.0	2.5	/experiments/AOT/AOT_stimuli/rescaled_final/1456_fw.mp4	0.0	294.00091099739075	1.0000240802764893
63	273.8652968406677	pulse	0	t		61.0	2.5	/experiments/AOT/AOT_stimuli/rescaled_final/1456_fw.mp4	0.0	294.58436489105225	
63	274.2818670272827	movie	1		244	61.0	2.5	/experiments/AOT/AOT_stimuli/rescaled_final/1456_fw.mp4	0.0	295.00093507766724	2.499652862548828
63	275.4654610157013	pulse	1	t		61.0	2.5	/experiments/AOT/AOT_stimuli/rescaled_final/1456_fw.mp4	0.0	296.1845290660858	
63	276.78151988983154	fix_post	2		12	61.0	2.5	/experiments/AOT/AOT_stimuli/rescaled_final/1456_fw.mp4	0.0	297.50058794021606	0.10047411918640137
64	276.88199400901794	fix_pre	0		120	62.0	2.5	blank	1.0	297.60106205940247	0.9999048709869385
64	277.06542801856995	pulse	0	t		62.0	2.5	blank	1.0	297.78449606895447	
64	277.8818988800049	movie	1		300	62.0	2.5	blank	1.0	298.6009669303894	2.499580144882202
64	278.66536593437195	pulse	1	t		62.0	2.5	blank	1.0	299.38443398475647	
64	280.2652928829193	pulse	1	t		62.0	2.5	blank	1.0	300.98436093330383	
64	280.3814790248871	fix_post	2		12	62.0	2.5	blank	1.0	301.1005470752716	0.10004878044128418
65	280.48152780532837	fix_pre	0		120	63.0	2.5	/experiments/AOT/AOT_stimuli/rescaled_final/0758_fw.mp4	0.0	301.2005958557129	1.0003721714019775
65	281.48189997673035	movie	1		245	63.0	2.5	/experiments/AOT/AOT_stimuli/rescaled_final/0758_fw.mp4	0.0	302.20096802711487	2.4999349117279053
65	281.8649468421936	pulse	1	t		63.0	2.5	/experiments/AOT/AOT_stimuli/rescaled_final/0758_fw.mp4	0.0	302.5840148925781	
65	283.4653069972992	pulse	1	t		63.0	2.5	/experiments/AOT/AOT_stimuli/rescaled_final/0758_fw.mp4	0.0	304.1843750476837	
65	283.98183488845825	fix_post	2		12	63.0	2.5	/experiments/AOT/AOT_stimuli/rescaled_final/0758_fw.mp4	0.0	304.7009029388428	0.10007405281066895
66	284.0819089412689	fix_pre	0		119	64.0	2.5	/experiments/AOT/AOT_stimuli/rescaled_final/1557_rv.mp4	0.0	304.80097699165344	0.991649866104126
66	285.0654067993164	pulse	0	t		64.0	2.5	/experiments/AOT/AOT_stimuli/rescaled_final/1557_rv.mp4	0.0	305.7844748497009	
66	285.07355880737305	movie	1		247	64.0	2.5	/experiments/AOT/AOT_stimuli/rescaled_final/1557_rv.mp4	0.0	305.79262685775757	2.5082921981811523
66	286.6651179790497	pulse	1	t		64.0	2.5	/experiments/AOT/AOT_stimuli/rescaled_final/1557_rv.mp4	0.0	307.3841860294342	
66	287.5818510055542	fix_post	2		12	64.0	2.5	/experiments/AOT/AOT_stimuli/rescaled_final/1557_rv.mp4	0.0	308.3009190559387	0.09994101524353027
67	287.68179202079773	fix_pre	0		120	65.0	2.5	/experiments/AOT/AOT_stimuli/rescaled_final/0919_fw.mp4	0.0	308.40086007118225	1.0000319480895996
67	288.2654619216919	pulse	0	t		65.0	2.5	/experiments/AOT/AOT_stimuli/rescaled_final/0919_fw.mp4	0.0	308.9845299720764	
67	288.68182396888733	movie	1		245	65.0	2.5	/experiments/AOT/AOT_stimuli/rescaled_final/0919_fw.mp4	0.0	309.40089201927185	2.4995479583740234
67	289.8654808998108	pulse	1	t		65.0	2.5	/experiments/AOT/AOT_stimuli/rescaled_final/0919_fw.mp4	0.0	310.5845489501953	
67	291.18137192726135	fix_post	2		12	65.0	2.5	/experiments/AOT/AOT_stimuli/rescaled_final/0919_fw.mp4	0.0	311.9004399776459	0.10046792030334473
68	291.2818398475647	fix_pre	0		120	66.0	2.5	/experiments/AOT/AOT_stimuli/rescaled_final/0677_fw.mp4	0.0	312.0009078979492	0.9995400905609131
68	291.4653079509735	pulse	0	t		66.0	2.5	/experiments/AOT/AOT_stimuli/rescaled_final/0677_fw.mp4	0.0	312.18437600135803	
68	292.2813799381256	movie	1		245	66.0	2.5	/experiments/AOT/AOT_stimuli/rescaled_final/0677_fw.mp4	0.0	313.00044798851013	2.500417947769165
68	293.06534790992737	pulse	1	t		66.0	2.5	/experiments/AOT/AOT_stimuli/rescaled_final/0677_fw.mp4	0.0	313.7844159603119	
68	294.6652638912201	pulse	1	t		66.0	2.5	/experiments/AOT/AOT_stimuli/rescaled_final/0677_fw.mp4	0.0	315.3843319416046	
68	294.7817978858948	fix_post	2		12	66.0	2.5	/experiments/AOT/AOT_stimuli/rescaled_final/0677_fw.mp4	0.0	315.5008659362793	0.09999394416809082
69	294.88179183006287	fix_pre	0		120	67.0	2.5	/experiments/AOT/AOT_stimuli/rescaled_final/2167_rv.mp4	0.0	315.6008598804474	1.0000371932983398
69	295.8818290233612	movie	1		244	67.0	2.5	/experiments/AOT/AOT_stimuli/rescaled_final/2167_rv.mp4	0.0	316.6008970737457	2.499985933303833
69	296.26476788520813	pulse	1	t		67.0	2.5	/experiments/AOT/AOT_stimuli/rescaled_final/2167_rv.mp4	0.0	316.98383593559265	
69	297.8653049468994	pulse	1	t		67.0	2.5	/experiments/AOT/AOT_stimuli/rescaled_final/2167_rv.mp4	0.0	318.58437299728394	
69	298.38181495666504	fix_post	2		12	67.0	2.5	/experiments/AOT/AOT_stimuli/rescaled_final/2167_rv.mp4	0.0	319.10088300704956	0.10001707077026367
70	298.4818320274353	fix_pre	0		119	68.0	2.5	/experiments/AOT/AOT_stimuli/rescaled_final/2127_fw.mp4	0.0	319.2009000778198	0.9916479587554932
70	299.46528792381287	pulse	0	t		68.0	2.5	/experiments/AOT/AOT_stimuli/rescaled_final/2127_fw.mp4	0.0	320.1843559741974	
70	299.4734799861908	movie	1		249	68.0	2.5	/experiments/AOT/AOT_stimuli/rescaled_final/2127_fw.mp4	0.0	320.1925480365753	2.5083348751068115
70	301.06479597091675	pulse	1	t		68.0	2.5	/experiments/AOT/AOT_stimuli/rescaled_final/2127_fw.mp4	0.0	321.78386402130127	
70	301.9818148612976	fix_post	2		12	68.0	2.5	/experiments/AOT/AOT_stimuli/rescaled_final/2127_fw.mp4	0.0	322.70088291168213	0.09998512268066406
71	302.08179998397827	fix_pre	0		120	69.0	2.5	/experiments/AOT/AOT_stimuli/rescaled_final/1426_rv.mp4	0.0	322.8008680343628	0.9995379447937012
71	302.66537594795227	pulse	0	t		69.0	2.5	/experiments/AOT/AOT_stimuli/rescaled_final/1426_rv.mp4	0.0	323.3844439983368	
71	303.081337928772	movie	1		247	69.0	2.5	/experiments/AOT/AOT_stimuli/rescaled_final/1426_rv.mp4	0.0	323.8004059791565	2.5000619888305664
71	304.2653458118439	pulse	1	t		69.0	2.5	/experiments/AOT/AOT_stimuli/rescaled_final/1426_rv.mp4	0.0	324.9844138622284	
71	305.58139991760254	fix_post	2		12	69.0	2.5	/experiments/AOT/AOT_stimuli/rescaled_final/1426_rv.mp4	0.0	326.30046796798706	0.10040903091430664
72	305.68180894851685	fix_pre	0		120	70.0	2.5	blank	1.0	326.40087699890137	1.0000178813934326
72	305.8652639389038	pulse	0	t		70.0	2.5	blank	1.0	326.58433198928833	
72	306.6818268299103	movie	1		300	70.0	2.5	blank	1.0	327.4008948802948	2.5000500679016113
72	307.4652829170227	pulse	1	t		70.0	2.5	blank	1.0	328.1843509674072	
72	309.06522393226624	pulse	1	t		70.0	2.5	blank	1.0	329.78429198265076	
72	309.1818768978119	fix_post	2		12	70.0	2.5	blank	1.0	329.9009449481964	0.09988594055175781
73	309.28176283836365	fix_pre	0		120	71.0	2.5	/experiments/AOT/AOT_stimuli/rescaled_final/1305_rv.mp4	0.0	330.00083088874817	0.9999110698699951
73	310.28167390823364	movie	1		245	71.0	2.5	/experiments/AOT/AOT_stimuli/rescaled_final/1305_rv.mp4	0.0	331.00074195861816	2.500046968460083
73	310.6653130054474	pulse	1	t		71.0	2.5	/experiments/AOT/AOT_stimuli/rescaled_final/1305_rv.mp4	0.0	331.3843810558319	
73	312.26516699790955	pulse	1	t		71.0	2.5	/experiments/AOT/AOT_stimuli/rescaled_final/1305_rv.mp4	0.0	332.98423504829407	
73	312.7817208766937	fix_post	2		12	71.0	2.5	/experiments/AOT/AOT_stimuli/rescaled_final/1305_rv.mp4	0.0	333.50078892707825	0.10003495216369629
74	312.8817558288574	fix_pre	0		119	72.0	2.5	/experiments/AOT/AOT_stimuli/rescaled_final/1634_fw.mp4	0.0	333.60082387924194	0.9917221069335938
74	313.86517000198364	pulse	0	t		72.0	2.5	/experiments/AOT/AOT_stimuli/rescaled_final/1634_fw.mp4	0.0	334.58423805236816	
74	313.873477935791	movie	1		249	72.0	2.5	/experiments/AOT/AOT_stimuli/rescaled_final/1634_fw.mp4	0.0	334.59254598617554	2.5082879066467285
74	315.46508598327637	pulse	1	t		72.0	2.5	/experiments/AOT/AOT_stimuli/rescaled_final/1634_fw.mp4	0.0	336.1841540336609	
74	316.38176584243774	fix_post	2		12	72.0	2.5	/experiments/AOT/AOT_stimuli/rescaled_final/1634_fw.mp4	0.0	337.10083389282227	0.10001802444458008
75	316.4817838668823	fix_pre	0		120	73.0	2.5	/experiments/AOT/AOT_stimuli/rescaled_final/0787_fw.mp4	0.0	337.20085191726685	0.9999990463256836
75	317.06523990631104	pulse	0	t		73.0	2.5	/experiments/AOT/AOT_stimuli/rescaled_final/0787_fw.mp4	0.0	337.78430795669556	
75	317.481782913208	movie	1		246	73.0	2.5	/experiments/AOT/AOT_stimuli/rescaled_final/0787_fw.mp4	0.0	338.20085096359253	2.499464988708496
75	318.6652970314026	pulse	1	t		73.0	2.5	/experiments/AOT/AOT_stimuli/rescaled_final/0787_fw.mp4	0.0	339.3843650817871	
75	319.9812479019165	fix_post	2		12	73.0	2.5	/experiments/AOT/AOT_stimuli/rescaled_final/0787_fw.mp4	0.0	340.700315952301	0.10054206848144531
76	320.08178997039795	fix_pre	0		120	74.0	2.5	/experiments/AOT/AOT_stimuli/rescaled_final/1816_rv.mp4	0.0	340.80085802078247	0.9998879432678223
76	320.265172958374	pulse	0	t		74.0	2.5	/experiments/AOT/AOT_stimuli/rescaled_final/1816_rv.mp4	0.0	340.98424100875854	
76	321.08167791366577	movie	1		244	74.0	2.5	/experiments/AOT/AOT_stimuli/rescaled_final/1816_rv.mp4	0.0	341.8007459640503	2.5001089572906494
76	321.86530590057373	pulse	1	t		74.0	2.5	/experiments/AOT/AOT_stimuli/rescaled_final/1816_rv.mp4	0.0	342.58437395095825	
76	323.47354102134705	pulse	1	t		74.0	2.5	/experiments/AOT/AOT_stimuli/rescaled_final/1816_rv.mp4	0.0	344.19260907173157	
76	323.5817868709564	fix_post	2		12	74.0	2.5	/experiments/AOT/AOT_stimuli/rescaled_final/1816_rv.mp4	0.0	344.30085492134094	0.09994697570800781
77	323.68173384666443	fix_pre	0		120	75.0	2.5	/experiments/AOT/AOT_stimuli/rescaled_final/2092_fw.mp4	0.0	344.40080189704895	1.0001230239868164
77	324.68185687065125	movie	1		246	75.0	2.5	/experiments/AOT/AOT_stimuli/rescaled_final/2092_fw.mp4	0.0	345.40092492103577	2.499901056289673
77	325.06553387641907	pulse	1	t		75.0	2.5	/experiments/AOT/AOT_stimuli/rescaled_final/2092_fw.mp4	0.0	345.7846019268036	
77	326.66506600379944	pulse	1	t		75.0	2.5	/experiments/AOT/AOT_stimuli/rescaled_final/2092_fw.mp4	0.0	347.38413405418396	
77	327.1817579269409	fix_post	2		12	75.0	2.5	/experiments/AOT/AOT_stimuli/rescaled_final/2092_fw.mp4	0.0	347.90082597732544	0.1000359058380127
78	327.28179383277893	fix_pre	0		119	76.0	2.5	blank	1.0	348.00086188316345	0.9916250705718994
78	328.2647879123688	pulse	0	t		76.0	2.5	blank	1.0	348.9838559627533	
78	328.27341890335083	movie	1		301	76.0	2.5	blank	1.0	348.99248695373535	2.508280038833618
78	329.8650689125061	pulse	1	t		76.0	2.5	blank	1.0	350.5841369628906	
78	330.78169894218445	fix_post	2		12	76.0	2.5	blank	1.0	351.50076699256897	0.09997892379760742
79	330.88167786598206	fix_pre	0		120	77.0	2.5	/experiments/AOT/AOT_stimuli/rescaled_final/0485_fw.mp4	0.0	351.6007459163666	0.9996769428253174
79	331.4651138782501	pulse	0	t		77.0	2.5	/experiments/AOT/AOT_stimuli/rescaled_final/0485_fw.mp4	0.0	352.18418192863464	
79	331.8813548088074	movie	1		245	77.0	2.5	/experiments/AOT/AOT_stimuli/rescaled_final/0485_fw.mp4	0.0	352.6004228591919	2.500331163406372
79	333.0651910305023	pulse	1	t		77.0	2.5	/experiments/AOT/AOT_stimuli/rescaled_final/0485_fw.mp4	0.0	353.78425908088684	
79	334.38168597221375	fix_post	2		12	77.0	2.5	/experiments/AOT/AOT_stimuli/rescaled_final/0485_fw.mp4	0.0	355.10075402259827	0.09994292259216309
80	334.4816288948059	fix_pre	0		120	78.0	2.5	/experiments/AOT/AOT_stimuli/rescaled_final/0627_rv.mp4	0.0	355.20069694519043	0.9999830722808838
80	334.66511392593384	pulse	0	t		78.0	2.5	/experiments/AOT/AOT_stimuli/rescaled_final/0627_rv.mp4	0.0	355.38418197631836	
80	335.4816119670868	movie	1		245	78.0	2.5	/experiments/AOT/AOT_stimuli/rescaled_final/0627_rv.mp4	0.0	356.2006800174713	2.4995779991149902
80	336.2650349140167	pulse	1	t		78.0	2.5	/experiments/AOT/AOT_stimuli/rescaled_final/0627_rv.mp4	0.0	356.98410296440125	
80	337.87359595298767	pulse	1	t		78.0	2.5	/experiments/AOT/AOT_stimuli/rescaled_final/0627_rv.mp4	0.0	358.5926640033722	
80	337.9811899662018	fix_post	2		12	78.0	2.5	/experiments/AOT/AOT_stimuli/rescaled_final/0627_rv.mp4	0.0	358.7002580165863	0.10037398338317871
81	338.08156394958496	fix_pre	0		120	79.0	2.5	/experiments/AOT/AOT_stimuli/rescaled_final/0263_rv.mp4	0.0	358.8006319999695	0.9999608993530273
81	339.081524848938	movie	1		246	79.0	2.5	/experiments/AOT/AOT_stimuli/rescaled_final/0263_rv.mp4	0.0	359.8005928993225	2.5000250339508057
81	339.4646918773651	pulse	1	t		79.0	2.5	/experiments/AOT/AOT_stimuli/rescaled_final/0263_rv.mp4	0.0	360.18375992774963	
81	341.065043926239	pulse	1	t		79.0	2.5	/experiments/AOT/AOT_stimuli/rescaled_final/0263_rv.mp4	0.0	361.78411197662354	
81	341.5815498828888	fix_post	2		12	79.0	2.5	/experiments/AOT/AOT_stimuli/rescaled_final/0263_rv.mp4	0.0	362.3006179332733	0.10004591941833496
82	341.68159580230713	fix_pre	0		119	80.0	2.5	/experiments/AOT/AOT_stimuli/rescaled_final/0919_rv.mp4	0.0	362.40066385269165	0.9916090965270996
82	342.66515588760376	pulse	0	t		80.0	2.5	/experiments/AOT/AOT_stimuli/rescaled_final/0919_rv.mp4	0.0	363.3842239379883	
82	342.67320489883423	movie	1		244	80.0	2.5	/experiments/AOT/AOT_stimuli/rescaled_final/0919_rv.mp4	0.0	363.39227294921875	2.5083560943603516
82	344.26466703414917	pulse	1	t		80.0	2.5	/experiments/AOT/AOT_stimuli/rescaled_final/0919_rv.mp4	0.0	364.9837350845337	
82	345.1815609931946	fix_post	2		12	80.0	2.5	/experiments/AOT/AOT_stimuli/rescaled_final/0919_rv.mp4	0.0	365.9006290435791	0.09999799728393555
83	345.2815589904785	fix_pre	0		120	81.0	2.5	/experiments/AOT/AOT_stimuli/rescaled_final/1686_fw.mp4	0.0	366.00062704086304	0.9999918937683105
83	345.86512780189514	pulse	0	t		81.0	2.5	/experiments/AOT/AOT_stimuli/rescaled_final/1686_fw.mp4	0.0	366.58419585227966	
83	346.2815508842468	movie	1		244	81.0	2.5	/experiments/AOT/AOT_stimuli/rescaled_final/1686_fw.mp4	0.0	367.00061893463135	2.4995689392089844
83	347.4651939868927	pulse	1	t		81.0	2.5	/experiments/AOT/AOT_stimuli/rescaled_final/1686_fw.mp4	0.0	368.1842620372772	
83	348.7811198234558	fix_post	2		12	81.0	2.5	/experiments/AOT/AOT_stimuli/rescaled_final/1686_fw.mp4	0.0	369.50018787384033	0.10045003890991211
84	348.8815698623657	fix_pre	0		120	82.0	2.5	/experiments/AOT/AOT_stimuli/rescaled_final/1947_fw.mp4	0.0	369.60063791275024	1.000002145767212
84	349.0650248527527	pulse	0	t		82.0	2.5	/experiments/AOT/AOT_stimuli/rescaled_final/1947_fw.mp4	0.0	369.7840929031372	
84	349.88157200813293	movie	1		245	82.0	2.5	/experiments/AOT/AOT_stimuli/rescaled_final/1947_fw.mp4	0.0	370.60064005851746	2.499567985534668
84	350.6649799346924	pulse	1	t		82.0	2.5	/experiments/AOT/AOT_stimuli/rescaled_final/1947_fw.mp4	0.0	371.3840479850769	
84	352.265065908432	pulse	1	t		82.0	2.5	/experiments/AOT/AOT_stimuli/rescaled_final/1947_fw.mp4	0.0	372.9841339588165	
84	352.3811399936676	fix_post	2		12	82.0	2.5	/experiments/AOT/AOT_stimuli/rescaled_final/1947_fw.mp4	0.0	373.1002080440521	0.10035181045532227
85	352.4814918041229	fix_pre	0		120	83.0	2.5	blank	1.0	373.20055985450745	0.9999840259552002
85	353.4814758300781	movie	1		300	83.0	2.5	blank	1.0	374.20054388046265	2.4996211528778076
85	353.8650698661804	pulse	1	t		83.0	2.5	blank	1.0	374.58413791656494	
85	355.46504402160645	pulse	1	t		83.0	2.5	blank	1.0	376.18411207199097	
85	355.98109698295593	fix_post	2		12	83.0	2.5	blank	1.0	376.70016503334045	0.1004178524017334
87	356.08151483535767	stim	0		1716					376.8005828857422	14.300009965896606
87	357.0650248527527	pulse	0	t						377.7840929031372	
87	358.66496992111206	pulse	0	t						379.3840379714966	
87	360.26496982574463	pulse	0	t						380.98403787612915	
87	361.86504101753235	pulse	0	t						382.58410906791687	
87	363.4649848937988	pulse	0	t						384.18405294418335	
87	365.06489181518555	pulse	0	t						385.78395986557007	
87	366.6648688316345	pulse	0	t						387.38393688201904	
87	368.26490783691406	pulse	0	t						388.9839758872986	
87	369.8648638725281	pulse	0	t						390.5839319229126	
