trial_nr	onset	event_type	phase	response	nr_frames	movie_index	movie_duration	movie_file	blank	onset_abs	duration
0	0.13330411911010742	stim	0		22					23.293741941452026	0.1833789348602295
0	0.3014359474182129	response	0	space						23.461873769760132	
1	0.3166830539703369	stim	0		4756					23.477120876312256	39.633074045181274
1	39.943477153778076	pulse	0	t						63.103914976119995	
1	39.94975709915161	stim	1		1717					63.11019492149353	14.30829405784607
1	41.541609048843384	pulse	1	t						64.7020468711853	
1	43.14156699180603	pulse	1	t						66.30200481414795	
1	44.74161505699158	pulse	1	t						67.9020528793335	
1	46.34159994125366	pulse	1	t						69.50203776359558	
1	47.94157409667969	pulse	1	t						71.1020119190216	
1	49.541484117507935	pulse	1	t						72.70192193984985	
1	51.14153003692627	pulse	1	t						74.30196785926819	
1	52.741507053375244	pulse	1	t						75.90194487571716	
2	54.25805115699768	fix_pre	0		11	0.0	2.5	/experiments/AOT/AOT_stimuli/rescaled_final/1208_fw.mp4	0.0	77.4184889793396	0.09171795845031738
2	54.34154295921326	pulse	0	t		0.0	2.5	/experiments/AOT/AOT_stimuli/rescaled_final/1208_fw.mp4	0.0	77.50198078155518	
2	54.349769115448	movie	1		242	0.0	2.5	/experiments/AOT/AOT_stimuli/rescaled_final/1208_fw.mp4	0.0	77.51020693778992	2.508275032043457
2	55.94261813163757	pulse	1	t		0.0	2.5	/experiments/AOT/AOT_stimuli/rescaled_final/1208_fw.mp4	0.0	79.10305595397949	
2	56.858044147491455	fix_post	2		12	0.0	2.5	/experiments/AOT/AOT_stimuli/rescaled_final/1208_fw.mp4	0.0	80.01848196983337	0.10000395774841309
3	56.95804810523987	fix_pre	0		120	1.0	2.5	/experiments/AOT/AOT_stimuli/rescaled_final/2052_fw.mp4	0.0	80.11848592758179	1.0000128746032715
3	57.54150104522705	pulse	0	t		1.0	2.5	/experiments/AOT/AOT_stimuli/rescaled_final/2052_fw.mp4	0.0	80.70193886756897	
3	57.95806097984314	movie	1		244	1.0	2.5	/experiments/AOT/AOT_stimuli/rescaled_final/2052_fw.mp4	0.0	81.11849880218506	2.499969005584717
3	59.14157009124756	pulse	1	t		1.0	2.5	/experiments/AOT/AOT_stimuli/rescaled_final/2052_fw.mp4	0.0	82.30200791358948	
3	60.458029985427856	fix_post	2		12	1.0	2.5	/experiments/AOT/AOT_stimuli/rescaled_final/2052_fw.mp4	0.0	83.61846780776978	0.10001301765441895
4	60.558043003082275	fix_pre	0		120	2.0	2.5	/experiments/AOT/AOT_stimuli/rescaled_final/0509_rv.mp4	0.0	83.7184808254242	0.9997551441192627
4	60.741233110427856	pulse	0	t		2.0	2.5	/experiments/AOT/AOT_stimuli/rescaled_final/0509_rv.mp4	0.0	83.90167093276978	
4	61.55779814720154	movie	1		248	2.0	2.5	/experiments/AOT/AOT_stimuli/rescaled_final/0509_rv.mp4	0.0	84.71823596954346	2.500178813934326
4	62.341660022735596	pulse	1	t		2.0	2.5	/experiments/AOT/AOT_stimuli/rescaled_final/0509_rv.mp4	0.0	85.50209784507751	
4	63.941612005233765	pulse	1	t		2.0	2.5	/experiments/AOT/AOT_stimuli/rescaled_final/0509_rv.mp4	0.0	87.10204982757568	
4	64.05797696113586	fix_post	2		12	2.0	2.5	/experiments/AOT/AOT_stimuli/rescaled_final/0509_rv.mp4	0.0	87.21841478347778	0.1000220775604248
5	64.15799903869629	fix_pre	0		120	3.0	2.5	/experiments/AOT/AOT_stimuli/rescaled_final/1575_rv.mp4	0.0	87.31843686103821	1.0000159740447998
5	65.15801501274109	movie	1		246	3.0	2.5	/experiments/AOT/AOT_stimuli/rescaled_final/1575_rv.mp4	0.0	88.31845283508301	2.4999101161956787
5	65.54268312454224	pulse	1	t		3.0	2.5	/experiments/AOT/AOT_stimuli/rescaled_final/1575_rv.mp4	0.0	88.70312094688416	
5	67.14143705368042	pulse	1	t		3.0	2.5	/experiments/AOT/AOT_stimuli/rescaled_final/1575_rv.mp4	0.0	90.30187487602234	
5	67.65792512893677	fix_post	2		12	3.0	2.5	/experiments/AOT/AOT_stimuli/rescaled_final/1575_rv.mp4	0.0	90.81836295127869	0.09999394416809082
6	67.75791907310486	fix_pre	0		119	4.0	2.5	/experiments/AOT/AOT_stimuli/rescaled_final/1837_fw.mp4	0.0	90.91835689544678	0.9916629791259766
6	68.74143099784851	pulse	0	t		4.0	2.5	/experiments/AOT/AOT_stimuli/rescaled_final/1837_fw.mp4	0.0	91.90186882019043	
6	68.74958205223083	movie	1		245	4.0	2.5	/experiments/AOT/AOT_stimuli/rescaled_final/1837_fw.mp4	0.0	91.91001987457275	2.5079550743103027
6	70.34187602996826	pulse	1	t		4.0	2.5	/experiments/AOT/AOT_stimuli/rescaled_final/1837_fw.mp4	0.0	93.50231385231018	
6	71.25753712654114	fix_post	2		12	4.0	2.5	/experiments/AOT/AOT_stimuli/rescaled_final/1837_fw.mp4	0.0	94.41797494888306	0.10039496421813965
7	71.35793209075928	fix_pre	0		120	5.0	2.5	/experiments/AOT/AOT_stimuli/rescaled_final/0854_fw.mp4	0.0	94.5183699131012	1.0000720024108887
7	71.94144105911255	pulse	0	t		5.0	2.5	/experiments/AOT/AOT_stimuli/rescaled_final/0854_fw.mp4	0.0	95.10187888145447	
7	72.35800409317017	movie	1		245	5.0	2.5	/experiments/AOT/AOT_stimuli/rescaled_final/0854_fw.mp4	0.0	95.51844191551208	2.4999399185180664
7	73.54154205322266	pulse	1	t		5.0	2.5	/experiments/AOT/AOT_stimuli/rescaled_final/0854_fw.mp4	0.0	96.70197987556458	
7	74.85794401168823	fix_post	2		12	5.0	2.5	/experiments/AOT/AOT_stimuli/rescaled_final/0854_fw.mp4	0.0	98.01838183403015	0.09995794296264648
8	74.95790195465088	fix_pre	0		120	6.0	2.5	/experiments/AOT/AOT_stimuli/rescaled_final/0145_rv.mp4	0.0	98.1183397769928	0.9996659755706787
8	75.14136695861816	pulse	0	t		6.0	2.5	/experiments/AOT/AOT_stimuli/rescaled_final/0145_rv.mp4	0.0	98.30180478096008	
8	75.95756793022156	movie	1		243	6.0	2.5	/experiments/AOT/AOT_stimuli/rescaled_final/0145_rv.mp4	0.0	99.11800575256348	2.5003061294555664
8	76.7413740158081	pulse	1	t		6.0	2.5	/experiments/AOT/AOT_stimuli/rescaled_final/0145_rv.mp4	0.0	99.90181183815002	
8	78.3398950099945	pulse	1	t		6.0	2.5	/experiments/AOT/AOT_stimuli/rescaled_final/0145_rv.mp4	0.0	101.50033283233643	
8	78.45787405967712	fix_post	2		12	6.0	2.5	/experiments/AOT/AOT_stimuli/rescaled_final/0145_rv.mp4	0.0	101.61831188201904	0.1000208854675293
9	78.55789494514465	fix_pre	0		120	7.0	2.5	blank	1.0	101.71833276748657	0.9999451637268066
9	79.55784010887146	movie	1		300	7.0	2.5	blank	1.0	102.71827793121338	2.4999868869781494
9	79.94147109985352	pulse	1	t		7.0	2.5	blank	1.0	103.10190892219543	
9	81.54147815704346	pulse	1	t		7.0	2.5	blank	1.0	104.70191597938538	
9	82.05782699584961	fix_post	2		12	7.0	2.5	blank	1.0	105.21826481819153	0.10012698173522949
10	82.15795397758484	fix_pre	0		119	8.0	2.5	/experiments/AOT/AOT_stimuli/rescaled_final/0935_fw.mp4	0.0	105.31839179992676	0.9915611743927002
10	83.1414041519165	pulse	0	t		8.0	2.5	/experiments/AOT/AOT_stimuli/rescaled_final/0935_fw.mp4	0.0	106.30184197425842	
10	83.14951515197754	movie	1		244	8.0	2.5	/experiments/AOT/AOT_stimuli/rescaled_final/0935_fw.mp4	0.0	106.30995297431946	2.5082948207855225
10	84.74118113517761	pulse	1	t		8.0	2.5	/experiments/AOT/AOT_stimuli/rescaled_final/0935_fw.mp4	0.0	107.90161895751953	
10	85.65780997276306	fix_post	2		12	8.0	2.5	/experiments/AOT/AOT_stimuli/rescaled_final/0935_fw.mp4	0.0	108.81824779510498	0.10003113746643066
11	85.75784111022949	fix_pre	0		120	9.0	2.5	/experiments/AOT/AOT_stimuli/rescaled_final/0589_fw.mp4	0.0	108.91827893257141	1.0001139640808105
11	86.34137511253357	pulse	0	t		9.0	2.5	/experiments/AOT/AOT_stimuli/rescaled_final/0589_fw.mp4	0.0	109.50181293487549	
11	86.7579550743103	movie	1		246	9.0	2.5	/experiments/AOT/AOT_stimuli/rescaled_final/0589_fw.mp4	0.0	109.91839289665222	2.499535083770752
11	87.94136309623718	pulse	1	t		9.0	2.5	/experiments/AOT/AOT_stimuli/rescaled_final/0589_fw.mp4	0.0	111.1018009185791	
11	89.25749015808105	fix_post	2		12	9.0	2.5	/experiments/AOT/AOT_stimuli/rescaled_final/0589_fw.mp4	0.0	112.41792798042297	0.10038089752197266
12	89.35787105560303	fix_pre	0		120	10.0	2.5	/experiments/AOT/AOT_stimuli/rescaled_final/0625_fw.mp4	0.0	112.51830887794495	0.9995450973510742
12	89.5414080619812	pulse	0	t		10.0	2.5	/experiments/AOT/AOT_stimuli/rescaled_final/0625_fw.mp4	0.0	112.70184588432312	
12	90.3574161529541	movie	1		244	10.0	2.5	/experiments/AOT/AOT_stimuli/rescaled_final/0625_fw.mp4	0.0	113.51785397529602	2.5000009536743164
12	91.14140105247498	pulse	1	t		10.0	2.5	/experiments/AOT/AOT_stimuli/rescaled_final/0625_fw.mp4	0.0	114.3018388748169	
12	92.73960208892822	pulse	1	t		10.0	2.5	/experiments/AOT/AOT_stimuli/rescaled_final/0625_fw.mp4	0.0	115.90003991127014	
12	92.85741710662842	fix_post	2		12	10.0	2.5	/experiments/AOT/AOT_stimuli/rescaled_final/0625_fw.mp4	0.0	116.01785492897034	0.10036087036132812
13	92.95777797698975	fix_pre	0		120	11.0	2.5	/experiments/AOT/AOT_stimuli/rescaled_final/2118_fw.mp4	0.0	116.11821579933167	0.9996140003204346
13	93.95739197731018	movie	1		246	11.0	2.5	/experiments/AOT/AOT_stimuli/rescaled_final/2118_fw.mp4	0.0	117.1178297996521	2.5005149841308594
13	94.34085512161255	pulse	1	t		11.0	2.5	/experiments/AOT/AOT_stimuli/rescaled_final/2118_fw.mp4	0.0	117.50129294395447	
13	95.9413149356842	pulse	1	t		11.0	2.5	/experiments/AOT/AOT_stimuli/rescaled_final/2118_fw.mp4	0.0	119.10175275802612	
13	96.45790696144104	fix_post	2		12	11.0	2.5	/experiments/AOT/AOT_stimuli/rescaled_final/2118_fw.mp4	0.0	119.61834478378296	0.09989404678344727
14	96.55780100822449	fix_pre	0		119	12.0	2.5	blank	1.0	119.7182388305664	0.991689920425415
14	97.54129195213318	pulse	0	t		12.0	2.5	blank	1.0	120.7017297744751	
14	97.5494909286499	movie	1		301	12.0	2.5	blank	1.0	120.70992875099182	2.5083441734313965
14	99.14127898216248	pulse	1	t		12.0	2.5	blank	1.0	122.3017168045044	
14	100.0578351020813	fix_post	2		12	12.0	2.5	blank	1.0	123.21827292442322	0.09999299049377441
15	100.15782809257507	fix_pre	0		120	13.0	2.5	/experiments/AOT/AOT_stimuli/rescaled_final/1024_rv.mp4	0.0	123.31826591491699	1.0000460147857666
15	100.74127006530762	pulse	0	t		13.0	2.5	/experiments/AOT/AOT_stimuli/rescaled_final/1024_rv.mp4	0.0	123.90170788764954	
15	101.15787410736084	movie	1		243	13.0	2.5	/experiments/AOT/AOT_stimuli/rescaled_final/1024_rv.mp4	0.0	124.31831192970276	2.4995009899139404
15	102.34136414527893	pulse	1	t		13.0	2.5	/experiments/AOT/AOT_stimuli/rescaled_final/1024_rv.mp4	0.0	125.50180196762085	
15	103.65737509727478	fix_post	2		12	13.0	2.5	/experiments/AOT/AOT_stimuli/rescaled_final/1024_rv.mp4	0.0	126.8178129196167	0.10041403770446777
16	103.75778913497925	fix_pre	0		120	14.0	2.5	/experiments/AOT/AOT_stimuli/rescaled_final/1546_fw.mp4	0.0	126.91822695732117	0.9995977878570557
16	103.94132709503174	pulse	0	t		14.0	2.5	/experiments/AOT/AOT_stimuli/rescaled_final/1546_fw.mp4	0.0	127.10176491737366	
16	104.7573869228363	movie	1		244	14.0	2.5	/experiments/AOT/AOT_stimuli/rescaled_final/1546_fw.mp4	0.0	127.91782474517822	2.5000030994415283
16	105.5412609577179	pulse	1	t		14.0	2.5	/experiments/AOT/AOT_stimuli/rescaled_final/1546_fw.mp4	0.0	128.70169878005981	
16	107.13988995552063	pulse	1	t		14.0	2.5	/experiments/AOT/AOT_stimuli/rescaled_final/1546_fw.mp4	0.0	130.30032777786255	
16	107.25739002227783	fix_post	2		12	14.0	2.5	/experiments/AOT/AOT_stimuli/rescaled_final/1546_fw.mp4	0.0	130.41782784461975	0.10036993026733398
17	107.35775995254517	fix_pre	0		120	15.0	2.5	/experiments/AOT/AOT_stimuli/rescaled_final/1208_rv.mp4	0.0	130.51819777488708	1.0000941753387451
17	108.35785412788391	movie	1		244	15.0	2.5	/experiments/AOT/AOT_stimuli/rescaled_final/1208_rv.mp4	0.0	131.51829195022583	2.4994468688964844
17	108.74086213111877	pulse	1	t		15.0	2.5	/experiments/AOT/AOT_stimuli/rescaled_final/1208_rv.mp4	0.0	131.9012999534607	
17	110.34123015403748	pulse	1	t		15.0	2.5	/experiments/AOT/AOT_stimuli/rescaled_final/1208_rv.mp4	0.0	133.5016679763794	
17	110.8573009967804	fix_post	2		12	15.0	2.5	/experiments/AOT/AOT_stimuli/rescaled_final/1208_rv.mp4	0.0	134.01773881912231	0.10042905807495117
18	110.95773005485535	fix_pre	0		119	16.0	2.5	/experiments/AOT/AOT_stimuli/rescaled_final/1618_fw.mp4	0.0	134.11816787719727	0.9918200969696045
18	111.94126796722412	pulse	0	t		16.0	2.5	/experiments/AOT/AOT_stimuli/rescaled_final/1618_fw.mp4	0.0	135.10170578956604	
18	111.94955015182495	movie	1		246	16.0	2.5	/experiments/AOT/AOT_stimuli/rescaled_final/1618_fw.mp4	0.0	135.10998797416687	2.508213996887207
18	113.54223108291626	pulse	1	t		16.0	2.5	/experiments/AOT/AOT_stimuli/rescaled_final/1618_fw.mp4	0.0	136.70266890525818	
18	114.45776414871216	fix_post	2		12	16.0	2.5	/experiments/AOT/AOT_stimuli/rescaled_final/1618_fw.mp4	0.0	137.61820197105408	0.1000058650970459
19	114.5577700138092	fix_pre	0		120	17.0	2.5	/experiments/AOT/AOT_stimuli/rescaled_final/0713_fw.mp4	0.0	137.71820783615112	0.9995889663696289
19	115.1424150466919	pulse	0	t		17.0	2.5	/experiments/AOT/AOT_stimuli/rescaled_final/0713_fw.mp4	0.0	138.3028528690338	
19	115.55735898017883	movie	1		246	17.0	2.5	/experiments/AOT/AOT_stimuli/rescaled_final/0713_fw.mp4	0.0	138.71779680252075	2.5001749992370605
19	116.7413170337677	pulse	1	t		17.0	2.5	/experiments/AOT/AOT_stimuli/rescaled_final/0713_fw.mp4	0.0	139.90175485610962	
19	118.0575339794159	fix_post	2		12	17.0	2.5	/experiments/AOT/AOT_stimuli/rescaled_final/0713_fw.mp4	0.0	141.2179718017578	0.10043716430664062
20	118.15797114372253	fix_pre	0		120	18.0	2.5	/experiments/AOT/AOT_stimuli/rescaled_final/1166_fw.mp4	0.0	141.31840896606445	0.9996938705444336
20	118.34152507781982	pulse	0	t		18.0	2.5	/experiments/AOT/AOT_stimuli/rescaled_final/1166_fw.mp4	0.0	141.50196290016174	
20	119.15766501426697	movie	1		246	18.0	2.5	/experiments/AOT/AOT_stimuli/rescaled_final/1166_fw.mp4	0.0	142.3181028366089	2.499630928039551
20	119.94125294685364	pulse	1	t		18.0	2.5	/experiments/AOT/AOT_stimuli/rescaled_final/1166_fw.mp4	0.0	143.10169076919556	
20	121.53981709480286	pulse	1	t		18.0	2.5	/experiments/AOT/AOT_stimuli/rescaled_final/1166_fw.mp4	0.0	144.70025491714478	
20	121.65729594230652	fix_post	2		12	18.0	2.5	/experiments/AOT/AOT_stimuli/rescaled_final/1166_fw.mp4	0.0	144.81773376464844	0.10039901733398438
21	121.7576949596405	fix_pre	0		120	19.0	2.5	/experiments/AOT/AOT_stimuli/rescaled_final/1562_rv.mp4	0.0	144.91813278198242	1.0000560283660889
21	122.75775098800659	movie	1		244	19.0	2.5	/experiments/AOT/AOT_stimuli/rescaled_final/1562_rv.mp4	0.0	145.9181888103485	2.499937057495117
21	123.14128112792969	pulse	1	t		19.0	2.5	/experiments/AOT/AOT_stimuli/rescaled_final/1562_rv.mp4	0.0	146.3017189502716	
21	124.7410659790039	pulse	1	t		19.0	2.5	/experiments/AOT/AOT_stimuli/rescaled_final/1562_rv.mp4	0.0	147.90150380134583	
21	125.25768804550171	fix_post	2		12	19.0	2.5	/experiments/AOT/AOT_stimuli/rescaled_final/1562_rv.mp4	0.0	148.41812586784363	0.10006594657897949
22	125.35775399208069	fix_pre	0		119	20.0	2.5	blank	1.0	148.5181918144226	0.9916889667510986
22	126.34114813804626	pulse	0	t		20.0	2.5	blank	1.0	149.50158596038818	
22	126.34944295883179	movie	1		301	20.0	2.5	blank	1.0	149.5098807811737	2.508352041244507
22	127.94123315811157	pulse	1	t		20.0	2.5	blank	1.0	151.1016709804535	
22	128.8577950000763	fix_post	2		12	20.0	2.5	blank	1.0	152.0182328224182	0.09984493255615234
23	128.95763993263245	fix_pre	0		120	21.0	2.5	/experiments/AOT/AOT_stimuli/rescaled_final/1300_rv.mp4	0.0	152.11807775497437	0.9999861717224121
23	129.54117512702942	pulse	0	t		21.0	2.5	/experiments/AOT/AOT_stimuli/rescaled_final/1300_rv.mp4	0.0	152.70161294937134	
23	129.95762610435486	movie	1		248	21.0	2.5	/experiments/AOT/AOT_stimuli/rescaled_final/1300_rv.mp4	0.0	153.11806392669678	2.5000388622283936
23	131.1412169933319	pulse	1	t		21.0	2.5	/experiments/AOT/AOT_stimuli/rescaled_final/1300_rv.mp4	0.0	154.30165481567383	
23	132.45766496658325	fix_post	2		12	21.0	2.5	/experiments/AOT/AOT_stimuli/rescaled_final/1300_rv.mp4	0.0	155.61810278892517	0.09998416900634766
24	132.5576491355896	fix_pre	0		120	22.0	2.5	/experiments/AOT/AOT_stimuli/rescaled_final/0481_rv.mp4	0.0	155.71808695793152	1.0000169277191162
24	132.74121713638306	pulse	0	t		22.0	2.5	/experiments/AOT/AOT_stimuli/rescaled_final/0481_rv.mp4	0.0	155.90165495872498	
24	133.55766606330872	movie	1		246	22.0	2.5	/experiments/AOT/AOT_stimuli/rescaled_final/0481_rv.mp4	0.0	156.71810388565063	2.4999139308929443
24	134.3411090373993	pulse	1	t		22.0	2.5	/experiments/AOT/AOT_stimuli/rescaled_final/0481_rv.mp4	0.0	157.5015468597412	
24	135.93982005119324	pulse	1	t		22.0	2.5	/experiments/AOT/AOT_stimuli/rescaled_final/0481_rv.mp4	0.0	159.10025787353516	
24	136.05757999420166	fix_post	2		12	22.0	2.5	/experiments/AOT/AOT_stimuli/rescaled_final/0481_rv.mp4	0.0	159.21801781654358	0.10004305839538574
25	136.15762305259705	fix_pre	0		120	23.0	2.5	/experiments/AOT/AOT_stimuli/rescaled_final/0209_rv.mp4	0.0	159.31806087493896	1.0000848770141602
25	137.1577079296112	movie	1		245	23.0	2.5	/experiments/AOT/AOT_stimuli/rescaled_final/0209_rv.mp4	0.0	160.31814575195312	2.4995510578155518
25	137.54103112220764	pulse	1	t		23.0	2.5	/experiments/AOT/AOT_stimuli/rescaled_final/0209_rv.mp4	0.0	160.70146894454956	
25	139.1411280632019	pulse	1	t		23.0	2.5	/experiments/AOT/AOT_stimuli/rescaled_final/0209_rv.mp4	0.0	162.30156588554382	
25	139.65725898742676	fix_post	2		12	23.0	2.5	/experiments/AOT/AOT_stimuli/rescaled_final/0209_rv.mp4	0.0	162.81769680976868	0.10037899017333984
26	139.7576379776001	fix_pre	0		119	24.0	2.5	/experiments/AOT/AOT_stimuli/rescaled_final/1960_rv.mp4	0.0	162.91807579994202	0.9916641712188721
26	140.74114513397217	pulse	0	t		24.0	2.5	/experiments/AOT/AOT_stimuli/rescaled_final/1960_rv.mp4	0.0	163.9015829563141	
26	140.74930214881897	movie	1		244	24.0	2.5	/experiments/AOT/AOT_stimuli/rescaled_final/1960_rv.mp4	0.0	163.9097399711609	2.508298873901367
26	142.34044694900513	pulse	1	t		24.0	2.5	/experiments/AOT/AOT_stimuli/rescaled_final/1960_rv.mp4	0.0	165.50088477134705	
26	143.25760102272034	fix_post	2		12	24.0	2.5	/experiments/AOT/AOT_stimuli/rescaled_final/1960_rv.mp4	0.0	166.41803884506226	0.09991908073425293
27	143.3575201034546	fix_pre	0		120	25.0	2.5	/experiments/AOT/AOT_stimuli/rescaled_final/1960_fw.mp4	0.0	166.5179579257965	1.000040054321289
27	143.94107794761658	pulse	0	t		25.0	2.5	/experiments/AOT/AOT_stimuli/rescaled_final/1960_fw.mp4	0.0	167.1015157699585	
27	144.35756015777588	movie	1		243	25.0	2.5	/experiments/AOT/AOT_stimuli/rescaled_final/1960_fw.mp4	0.0	167.5179979801178	2.4999349117279053
27	145.54119896888733	pulse	1	t		25.0	2.5	/experiments/AOT/AOT_stimuli/rescaled_final/1960_fw.mp4	0.0	168.70163679122925	
27	146.85749506950378	fix_post	2		12	25.0	2.5	/experiments/AOT/AOT_stimuli/rescaled_final/1960_fw.mp4	0.0	170.0179328918457	0.10003185272216797
28	146.95752692222595	fix_pre	0		120	26.0	2.5	/experiments/AOT/AOT_stimuli/rescaled_final/1069_fw.mp4	0.0	170.11796474456787	0.9999940395355225
28	147.1411590576172	pulse	0	t		26.0	2.5	/experiments/AOT/AOT_stimuli/rescaled_final/1069_fw.mp4	0.0	170.3015968799591	
28	147.95752096176147	movie	1		243	26.0	2.5	/experiments/AOT/AOT_stimuli/rescaled_final/1069_fw.mp4	0.0	171.1179587841034	2.4996280670166016
28	148.74111104011536	pulse	1	t		26.0	2.5	/experiments/AOT/AOT_stimuli/rescaled_final/1069_fw.mp4	0.0	171.90154886245728	
28	150.3394501209259	pulse	1	t		26.0	2.5	/experiments/AOT/AOT_stimuli/rescaled_final/1069_fw.mp4	0.0	173.49988794326782	
28	150.45714902877808	fix_post	2		12	26.0	2.5	/experiments/AOT/AOT_stimuli/rescaled_final/1069_fw.mp4	0.0	173.61758685112	0.10042905807495117
29	150.55757808685303	fix_pre	0		120	27.0	2.5	blank	1.0	173.71801590919495	0.9999790191650391
29	151.55755710601807	movie	1		300	27.0	2.5	blank	1.0	174.71799492835999	2.4995369911193848
29	151.94114208221436	pulse	1	t		27.0	2.5	blank	1.0	175.10157990455627	
29	153.54108595848083	pulse	1	t		27.0	2.5	blank	1.0	176.70152378082275	
29	154.05709409713745	fix_post	2		12	27.0	2.5	blank	1.0	177.21753191947937	0.10049986839294434
30	154.1575939655304	fix_pre	0		119	28.0	2.5	/experiments/AOT/AOT_stimuli/rescaled_final/0713_rv.mp4	0.0	177.31803178787231	0.9916031360626221
30	155.14108395576477	pulse	0	t		28.0	2.5	/experiments/AOT/AOT_stimuli/rescaled_final/0713_rv.mp4	0.0	178.3015217781067	
30	155.14919710159302	movie	1		249	28.0	2.5	/experiments/AOT/AOT_stimuli/rescaled_final/0713_rv.mp4	0.0	178.30963492393494	2.5083868503570557
30	156.74039006233215	pulse	1	t		28.0	2.5	/experiments/AOT/AOT_stimuli/rescaled_final/0713_rv.mp4	0.0	179.90082788467407	
30	157.65758395195007	fix_post	2		12	28.0	2.5	/experiments/AOT/AOT_stimuli/rescaled_final/0713_rv.mp4	0.0	180.818021774292	0.09993600845336914
31	157.75751996040344	fix_pre	0		120	29.0	2.5	/experiments/AOT/AOT_stimuli/rescaled_final/0284_fw.mp4	0.0	180.91795778274536	1.00006103515625
31	158.3410861492157	pulse	0	t		29.0	2.5	/experiments/AOT/AOT_stimuli/rescaled_final/0284_fw.mp4	0.0	181.50152397155762	
31	158.7575809955597	movie	1		242	29.0	2.5	/experiments/AOT/AOT_stimuli/rescaled_final/0284_fw.mp4	0.0	181.9180188179016	2.4999771118164062
31	159.9411370754242	pulse	1	t		29.0	2.5	/experiments/AOT/AOT_stimuli/rescaled_final/0284_fw.mp4	0.0	183.1015748977661	
31	161.2575581073761	fix_post	2		12	29.0	2.5	/experiments/AOT/AOT_stimuli/rescaled_final/0284_fw.mp4	0.0	184.41799592971802	0.09994101524353027
32	161.35749912261963	fix_pre	0		120	30.0	2.5	/experiments/AOT/AOT_stimuli/rescaled_final/1375_rv.mp4	0.0	184.51793694496155	1.0000159740447998
32	161.5410659313202	pulse	0	t		30.0	2.5	/experiments/AOT/AOT_stimuli/rescaled_final/1375_rv.mp4	0.0	184.7015037536621	
32	162.35751509666443	movie	1		243	30.0	2.5	/experiments/AOT/AOT_stimuli/rescaled_final/1375_rv.mp4	0.0	185.51795291900635	2.4995648860931396
32	163.14108896255493	pulse	1	t		30.0	2.5	/experiments/AOT/AOT_stimuli/rescaled_final/1375_rv.mp4	0.0	186.30152678489685	
32	164.73959398269653	pulse	1	t		30.0	2.5	/experiments/AOT/AOT_stimuli/rescaled_final/1375_rv.mp4	0.0	187.90003180503845	
32	164.85707998275757	fix_post	2		12	30.0	2.5	/experiments/AOT/AOT_stimuli/rescaled_final/1375_rv.mp4	0.0	188.0175178050995	0.10048413276672363
33	164.9575641155243	fix_pre	0		120	31.0	2.5	/experiments/AOT/AOT_stimuli/rescaled_final/0087_fw.mp4	0.0	188.1180019378662	1.0000548362731934
33	165.95761895179749	movie	1		245	31.0	2.5	/experiments/AOT/AOT_stimuli/rescaled_final/0087_fw.mp4	0.0	189.1180567741394	2.499941110610962
33	166.34081315994263	pulse	1	t		31.0	2.5	/experiments/AOT/AOT_stimuli/rescaled_final/0087_fw.mp4	0.0	189.50125098228455	
33	167.94093108177185	pulse	1	t		31.0	2.5	/experiments/AOT/AOT_stimuli/rescaled_final/0087_fw.mp4	0.0	191.10136890411377	
33	168.45756006240845	fix_post	2		12	31.0	2.5	/experiments/AOT/AOT_stimuli/rescaled_final/0087_fw.mp4	0.0	191.61799788475037	0.09959292411804199
34	168.5571529865265	fix_pre	0		119	32.0	2.5	/experiments/AOT/AOT_stimuli/rescaled_final/0978_rv.mp4	0.0	191.7175908088684	0.9920501708984375
34	169.541100025177	pulse	0	t		32.0	2.5	/experiments/AOT/AOT_stimuli/rescaled_final/0978_rv.mp4	0.0	192.70153784751892	
34	169.54920315742493	movie	1		244	32.0	2.5	/experiments/AOT/AOT_stimuli/rescaled_final/0978_rv.mp4	0.0	192.70964097976685	2.5082647800445557
34	171.14089512825012	pulse	1	t		32.0	2.5	/experiments/AOT/AOT_stimuli/rescaled_final/0978_rv.mp4	0.0	194.30133295059204	
34	172.05746793746948	fix_post	2		12	32.0	2.5	/experiments/AOT/AOT_stimuli/rescaled_final/0978_rv.mp4	0.0	195.2179057598114	0.09965705871582031
35	172.1571249961853	fix_pre	0		120	33.0	2.5	blank	1.0	195.31756281852722	1.0004501342773438
35	172.74061107635498	pulse	0	t		33.0	2.5	blank	1.0	195.9010488986969	
35	173.15757513046265	movie	1		300	33.0	2.5	blank	1.0	196.31801295280457	2.4999098777770996
35	174.34085893630981	pulse	1	t		33.0	2.5	blank	1.0	197.50129675865173	
35	175.65748500823975	fix_post	2		12	33.0	2.5	blank	1.0	198.81792283058167	0.10003399848937988
36	175.75751900672913	fix_pre	0		120	34.0	2.5	/experiments/AOT/AOT_stimuli/rescaled_final/0972_fw.mp4	0.0	198.91795682907104	1.0000441074371338
36	175.9409739971161	pulse	0	t		34.0	2.5	/experiments/AOT/AOT_stimuli/rescaled_final/0972_fw.mp4	0.0	199.101411819458	
36	176.75756311416626	movie	1		243	34.0	2.5	/experiments/AOT/AOT_stimuli/rescaled_final/0972_fw.mp4	0.0	199.91800093650818	2.499927043914795
36	177.5409071445465	pulse	1	t		34.0	2.5	/experiments/AOT/AOT_stimuli/rescaled_final/0972_fw.mp4	0.0	200.70134496688843	
36	179.1393449306488	pulse	1	t		34.0	2.5	/experiments/AOT/AOT_stimuli/rescaled_final/0972_fw.mp4	0.0	202.29978275299072	
36	179.25749015808105	fix_post	2		12	34.0	2.5	/experiments/AOT/AOT_stimuli/rescaled_final/0972_fw.mp4	0.0	202.41792798042297	0.09987592697143555
37	179.3573660850525	fix_pre	0		120	35.0	2.5	/experiments/AOT/AOT_stimuli/rescaled_final/2001_rv.mp4	0.0	202.5178039073944	0.9999909400939941
37	180.35735702514648	movie	1		245	35.0	2.5	/experiments/AOT/AOT_stimuli/rescaled_final/2001_rv.mp4	0.0	203.5177948474884	2.4996109008789062
37	180.74181604385376	pulse	1	t		35.0	2.5	/experiments/AOT/AOT_stimuli/rescaled_final/2001_rv.mp4	0.0	203.90225386619568	
37	182.3409299850464	pulse	1	t		35.0	2.5	/experiments/AOT/AOT_stimuli/rescaled_final/2001_rv.mp4	0.0	205.5013678073883	
37	182.8569679260254	fix_post	2		12	35.0	2.5	/experiments/AOT/AOT_stimuli/rescaled_final/2001_rv.mp4	0.0	206.0174057483673	0.10033607482910156
38	182.9573040008545	fix_pre	0		119	36.0	2.5	/experiments/AOT/AOT_stimuli/rescaled_final/1571_rv.mp4	0.0	206.1177418231964	0.9916751384735107
38	183.94087600708008	pulse	0	t		36.0	2.5	/experiments/AOT/AOT_stimuli/rescaled_final/1571_rv.mp4	0.0	207.101313829422	
38	183.948979139328	movie	1		246	36.0	2.5	/experiments/AOT/AOT_stimuli/rescaled_final/1571_rv.mp4	0.0	207.10941696166992	2.5079498291015625
38	185.5403311252594	pulse	1	t		36.0	2.5	/experiments/AOT/AOT_stimuli/rescaled_final/1571_rv.mp4	0.0	208.70076894760132	
38	186.45692896842957	fix_post	2		12	36.0	2.5	/experiments/AOT/AOT_stimuli/rescaled_final/1571_rv.mp4	0.0	209.61736679077148	0.10040402412414551
39	186.5573329925537	fix_pre	0		120	37.0	2.5	/experiments/AOT/AOT_stimuli/rescaled_final/1404_fw.mp4	0.0	209.71777081489563	1.0000190734863281
39	187.14085912704468	pulse	0	t		37.0	2.5	/experiments/AOT/AOT_stimuli/rescaled_final/1404_fw.mp4	0.0	210.3012969493866	
39	187.55735206604004	movie	1		246	37.0	2.5	/experiments/AOT/AOT_stimuli/rescaled_final/1404_fw.mp4	0.0	210.71778988838196	2.499983072280884
39	188.74098205566406	pulse	1	t		37.0	2.5	/experiments/AOT/AOT_stimuli/rescaled_final/1404_fw.mp4	0.0	211.90141987800598	
39	190.05733513832092	fix_post	2		12	37.0	2.5	/experiments/AOT/AOT_stimuli/rescaled_final/1404_fw.mp4	0.0	213.21777296066284	0.09998679161071777
40	190.15732192993164	fix_pre	0		120	38.0	2.5	/experiments/AOT/AOT_stimuli/rescaled_final/0106_fw.mp4	0.0	213.31775975227356	1.0001451969146729
40	190.34092903137207	pulse	0	t		38.0	2.5	/experiments/AOT/AOT_stimuli/rescaled_final/0106_fw.mp4	0.0	213.501366853714	
40	191.1574671268463	movie	1		243	38.0	2.5	/experiments/AOT/AOT_stimuli/rescaled_final/0106_fw.mp4	0.0	214.31790494918823	2.499854803085327
40	191.9408609867096	pulse	1	t		38.0	2.5	/experiments/AOT/AOT_stimuli/rescaled_final/0106_fw.mp4	0.0	215.1012988090515	
40	193.53919196128845	pulse	1	t		38.0	2.5	/experiments/AOT/AOT_stimuli/rescaled_final/0106_fw.mp4	0.0	216.69962978363037	
40	193.65732192993164	fix_post	2		12	38.0	2.5	/experiments/AOT/AOT_stimuli/rescaled_final/0106_fw.mp4	0.0	216.81775975227356	0.1000981330871582
41	193.7574200630188	fix_pre	0		120	39.0	2.5	/experiments/AOT/AOT_stimuli/rescaled_final/1924_fw.mp4	0.0	216.91785788536072	0.9998998641967773
41	194.75731992721558	movie	1		245	39.0	2.5	/experiments/AOT/AOT_stimuli/rescaled_final/1924_fw.mp4	0.0	217.9177577495575	2.5000810623168945
41	195.14094996452332	pulse	1	t		39.0	2.5	/experiments/AOT/AOT_stimuli/rescaled_final/1924_fw.mp4	0.0	218.30138778686523	
41	196.74087715148926	pulse	1	t		39.0	2.5	/experiments/AOT/AOT_stimuli/rescaled_final/1924_fw.mp4	0.0	219.90131497383118	
41	197.25740098953247	fix_post	2		12	39.0	2.5	/experiments/AOT/AOT_stimuli/rescaled_final/1924_fw.mp4	0.0	220.4178388118744	0.09999704360961914
42	197.3573980331421	fix_pre	0		119	40.0	2.5	/experiments/AOT/AOT_stimuli/rescaled_final/1131_fw.mp4	0.0	220.517835855484	0.9916338920593262
42	198.34091114997864	pulse	0	t		40.0	2.5	/experiments/AOT/AOT_stimuli/rescaled_final/1131_fw.mp4	0.0	221.50134897232056	
42	198.34903192520142	movie	1		245	40.0	2.5	/experiments/AOT/AOT_stimuli/rescaled_final/1131_fw.mp4	0.0	221.50946974754333	2.5082831382751465
42	199.94044995307922	pulse	1	t		40.0	2.5	/experiments/AOT/AOT_stimuli/rescaled_final/1131_fw.mp4	0.0	223.10088777542114	
42	200.85731506347656	fix_post	2		12	40.0	2.5	/experiments/AOT/AOT_stimuli/rescaled_final/1131_fw.mp4	0.0	224.01775288581848	0.1000978946685791
43	200.95741295814514	fix_pre	0		120	41.0	2.5	/experiments/AOT/AOT_stimuli/rescaled_final/0909_fw.mp4	0.0	224.11785078048706	1.0000581741333008
43	201.54073810577393	pulse	0	t		41.0	2.5	/experiments/AOT/AOT_stimuli/rescaled_final/0909_fw.mp4	0.0	224.70117592811584	
43	201.95747113227844	movie	1		245	41.0	2.5	/experiments/AOT/AOT_stimuli/rescaled_final/0909_fw.mp4	0.0	225.11790895462036	2.4999468326568604
43	203.14086604118347	pulse	1	t		41.0	2.5	/experiments/AOT/AOT_stimuli/rescaled_final/0909_fw.mp4	0.0	226.3013038635254	
43	204.4574179649353	fix_post	2		12	41.0	2.5	/experiments/AOT/AOT_stimuli/rescaled_final/0909_fw.mp4	0.0	227.61785578727722	0.09989714622497559
44	204.55731511116028	fix_pre	0		120	42.0	2.5	blank	1.0	227.7177529335022	1.0000159740447998
44	204.7408299446106	pulse	0	t		42.0	2.5	blank	1.0	227.90126776695251	
44	205.55733108520508	movie	1		300	42.0	2.5	blank	1.0	228.717768907547	2.500009059906006
44	206.34081101417542	pulse	1	t		42.0	2.5	blank	1.0	229.50124883651733	
44	207.94080209732056	pulse	1	t		42.0	2.5	blank	1.0	231.10123991966248	
44	208.05734014511108	fix_post	2		12	42.0	2.5	blank	1.0	231.217777967453	0.0999457836151123
45	208.1572859287262	fix_pre	0		120	43.0	2.5	/experiments/AOT/AOT_stimuli/rescaled_final/1713_rv.mp4	0.0	231.31772375106812	0.9995920658111572
45	209.15687799453735	movie	1		244	43.0	2.5	/experiments/AOT/AOT_stimuli/rescaled_final/1713_rv.mp4	0.0	232.31731581687927	2.500020980834961
45	209.54061698913574	pulse	1	t		43.0	2.5	/experiments/AOT/AOT_stimuli/rescaled_final/1713_rv.mp4	0.0	232.70105481147766	
45	211.14078998565674	pulse	1	t		43.0	2.5	/experiments/AOT/AOT_stimuli/rescaled_final/1713_rv.mp4	0.0	234.30122780799866	
45	211.65689897537231	fix_post	2		12	43.0	2.5	/experiments/AOT/AOT_stimuli/rescaled_final/1713_rv.mp4	0.0	234.81733679771423	0.09996509552001953
46	211.75686407089233	fix_pre	0		119	44.0	2.5	/experiments/AOT/AOT_stimuli/rescaled_final/0598_fw.mp4	0.0	234.91730189323425	0.9921739101409912
46	212.7407591342926	pulse	0	t		44.0	2.5	/experiments/AOT/AOT_stimuli/rescaled_final/0598_fw.mp4	0.0	235.90119695663452	
46	212.74903798103333	movie	1		249	44.0	2.5	/experiments/AOT/AOT_stimuli/rescaled_final/0598_fw.mp4	0.0	235.90947580337524	2.507838010787964
46	214.34022307395935	pulse	1	t		44.0	2.5	/experiments/AOT/AOT_stimuli/rescaled_final/0598_fw.mp4	0.0	237.50066089630127	
46	215.2568759918213	fix_post	2		12	44.0	2.5	/experiments/AOT/AOT_stimuli/rescaled_final/0598_fw.mp4	0.0	238.4173138141632	0.10057616233825684
47	215.35745215415955	fix_pre	0		120	45.0	2.5	/experiments/AOT/AOT_stimuli/rescaled_final/0326_fw.mp4	0.0	238.51788997650146	0.9997808933258057
47	215.94077515602112	pulse	0	t		45.0	2.5	/experiments/AOT/AOT_stimuli/rescaled_final/0326_fw.mp4	0.0	239.10121297836304	
47	216.35723304748535	movie	1		245	45.0	2.5	/experiments/AOT/AOT_stimuli/rescaled_final/0326_fw.mp4	0.0	239.51767086982727	2.500030040740967
47	217.54080200195312	pulse	1	t		45.0	2.5	/experiments/AOT/AOT_stimuli/rescaled_final/0326_fw.mp4	0.0	240.70123982429504	
47	218.85726308822632	fix_post	2		12	45.0	2.5	/experiments/AOT/AOT_stimuli/rescaled_final/0326_fw.mp4	0.0	242.01770091056824	0.09987497329711914
48	218.95713806152344	fix_pre	0		120	46.0	2.5	/experiments/AOT/AOT_stimuli/rescaled_final/0698_fw.mp4	0.0	242.11757588386536	1.0000388622283936
48	219.1406409740448	pulse	0	t		46.0	2.5	/experiments/AOT/AOT_stimuli/rescaled_final/0698_fw.mp4	0.0	242.30107879638672	
48	219.95717692375183	movie	1		244	46.0	2.5	/experiments/AOT/AOT_stimuli/rescaled_final/0698_fw.mp4	0.0	243.11761474609375	2.5000622272491455
48	220.74070811271667	pulse	1	t		46.0	2.5	/experiments/AOT/AOT_stimuli/rescaled_final/0698_fw.mp4	0.0	243.9011459350586	
48	222.33908009529114	pulse	1	t		46.0	2.5	/experiments/AOT/AOT_stimuli/rescaled_final/0698_fw.mp4	0.0	245.49951791763306	
48	222.45723915100098	fix_post	2		12	46.0	2.5	/experiments/AOT/AOT_stimuli/rescaled_final/0698_fw.mp4	0.0	245.6176769733429	0.09998798370361328
49	222.5572271347046	fix_pre	0		120	47.0	2.5	/experiments/AOT/AOT_stimuli/rescaled_final/1180_fw.mp4	0.0	245.7176649570465	0.9995508193969727
49	223.55677795410156	movie	1		243	47.0	2.5	/experiments/AOT/AOT_stimuli/rescaled_final/1180_fw.mp4	0.0	246.71721577644348	2.5000131130218506
49	223.94022607803345	pulse	1	t		47.0	2.5	/experiments/AOT/AOT_stimuli/rescaled_final/1180_fw.mp4	0.0	247.10066390037537	
49	225.54078912734985	pulse	1	t		47.0	2.5	/experiments/AOT/AOT_stimuli/rescaled_final/1180_fw.mp4	0.0	248.70122694969177	
49	226.0567910671234	fix_post	2		12	47.0	2.5	/experiments/AOT/AOT_stimuli/rescaled_final/1180_fw.mp4	0.0	249.21722888946533	0.10034799575805664
50	226.15713906288147	fix_pre	0		119	48.0	2.5	/experiments/AOT/AOT_stimuli/rescaled_final/0977_fw.mp4	0.0	249.3175768852234	0.9912729263305664
50	227.14075303077698	pulse	0	t		48.0	2.5	/experiments/AOT/AOT_stimuli/rescaled_final/0977_fw.mp4	0.0	250.3011908531189	
50	227.14841198921204	movie	1		249	48.0	2.5	/experiments/AOT/AOT_stimuli/rescaled_final/0977_fw.mp4	0.0	250.30884981155396	2.509014129638672
50	228.74050903320312	pulse	1	t		48.0	2.5	/experiments/AOT/AOT_stimuli/rescaled_final/0977_fw.mp4	0.0	251.90094685554504	
50	229.6574261188507	fix_post	2		12	48.0	2.5	/experiments/AOT/AOT_stimuli/rescaled_final/0977_fw.mp4	0.0	252.81786394119263	0.0996408462524414
51	229.75706696510315	fix_pre	0		120	49.0	2.5	blank	1.0	252.91750478744507	1.0000941753387451
51	230.34053206443787	pulse	0	t		49.0	2.5	blank	1.0	253.50096988677979	
51	230.7571611404419	movie	1		300	49.0	2.5	blank	1.0	253.9175989627838	2.500044822692871
51	231.9406931400299	pulse	1	t		49.0	2.5	blank	1.0	255.10113096237183	
51	233.25720596313477	fix_post	2		12	49.0	2.5	blank	1.0	256.4176437854767	0.09995102882385254
52	233.35715699195862	fix_pre	0		120	50.0	2.5	/experiments/AOT/AOT_stimuli/rescaled_final/0560_fw.mp4	0.0	256.51759481430054	1.0000250339508057
52	233.5407371520996	pulse	0	t		50.0	2.5	/experiments/AOT/AOT_stimuli/rescaled_final/0560_fw.mp4	0.0	256.7011749744415	
52	234.35718202590942	movie	1		245	50.0	2.5	/experiments/AOT/AOT_stimuli/rescaled_final/0560_fw.mp4	0.0	257.51761984825134	2.5000150203704834
52	235.1405529975891	pulse	1	t		50.0	2.5	/experiments/AOT/AOT_stimuli/rescaled_final/0560_fw.mp4	0.0	258.30099081993103	
52	236.74863696098328	pulse	1	t		50.0	2.5	/experiments/AOT/AOT_stimuli/rescaled_final/0560_fw.mp4	0.0	259.9090747833252	
52	236.8571970462799	fix_post	2		12	50.0	2.5	/experiments/AOT/AOT_stimuli/rescaled_final/0560_fw.mp4	0.0	260.0176348686218	0.09996390342712402
53	236.95716094970703	fix_pre	0		120	51.0	2.5	/experiments/AOT/AOT_stimuli/rescaled_final/0944_fw.mp4	0.0	260.11759877204895	0.9999401569366455
53	237.95710110664368	movie	1		243	51.0	2.5	/experiments/AOT/AOT_stimuli/rescaled_final/0944_fw.mp4	0.0	261.1175389289856	2.4999799728393555
53	238.3402600288391	pulse	1	t		51.0	2.5	/experiments/AOT/AOT_stimuli/rescaled_final/0944_fw.mp4	0.0	261.50069785118103	
53	239.94057607650757	pulse	1	t		51.0	2.5	/experiments/AOT/AOT_stimuli/rescaled_final/0944_fw.mp4	0.0	263.1010138988495	
53	240.45708107948303	fix_post	2		12	51.0	2.5	/experiments/AOT/AOT_stimuli/rescaled_final/0944_fw.mp4	0.0	263.61751890182495	0.09997391700744629
54	240.55705499649048	fix_pre	0		119	52.0	2.5	/experiments/AOT/AOT_stimuli/rescaled_final/1941_fw.mp4	0.0	263.7174928188324	0.9916660785675049
54	241.5406210422516	pulse	0	t		52.0	2.5	/experiments/AOT/AOT_stimuli/rescaled_final/1941_fw.mp4	0.0	264.7010588645935	
54	241.54872107505798	movie	1		244	52.0	2.5	/experiments/AOT/AOT_stimuli/rescaled_final/1941_fw.mp4	0.0	264.7091588973999	2.508394956588745
54	243.14063000679016	pulse	1	t		52.0	2.5	/experiments/AOT/AOT_stimuli/rescaled_final/1941_fw.mp4	0.0	266.3010678291321	
54	244.05711603164673	fix_post	2		12	52.0	2.5	/experiments/AOT/AOT_stimuli/rescaled_final/1941_fw.mp4	0.0	267.21755385398865	0.09998703002929688
55	244.15710306167603	fix_pre	0		120	53.0	2.5	/experiments/AOT/AOT_stimuli/rescaled_final/0667_rv.mp4	0.0	267.31754088401794	0.9999580383300781
55	244.74065113067627	pulse	0	t		53.0	2.5	/experiments/AOT/AOT_stimuli/rescaled_final/0667_rv.mp4	0.0	267.9010889530182	
55	245.1570611000061	movie	1		243	53.0	2.5	/experiments/AOT/AOT_stimuli/rescaled_final/0667_rv.mp4	0.0	268.317498922348	2.499997854232788
55	246.34077715873718	pulse	1	t		53.0	2.5	/experiments/AOT/AOT_stimuli/rescaled_final/0667_rv.mp4	0.0	269.5012149810791	
55	247.6570589542389	fix_post	2		12	53.0	2.5	/experiments/AOT/AOT_stimuli/rescaled_final/0667_rv.mp4	0.0	270.8174967765808	0.10010313987731934
56	247.7571620941162	fix_pre	0		120	54.0	2.5	/experiments/AOT/AOT_stimuli/rescaled_final/0997_fw.mp4	0.0	270.91759991645813	1.0000369548797607
56	247.9406020641327	pulse	0	t		54.0	2.5	/experiments/AOT/AOT_stimuli/rescaled_final/0997_fw.mp4	0.0	271.1010398864746	
56	248.75719904899597	movie	1		244	54.0	2.5	/experiments/AOT/AOT_stimuli/rescaled_final/0997_fw.mp4	0.0	271.9176368713379	2.4999239444732666
56	249.54056596755981	pulse	1	t		54.0	2.5	/experiments/AOT/AOT_stimuli/rescaled_final/0997_fw.mp4	0.0	272.70100378990173	
56	251.1392171382904	pulse	1	t		54.0	2.5	/experiments/AOT/AOT_stimuli/rescaled_final/0997_fw.mp4	0.0	274.2996549606323	
56	251.25712299346924	fix_post	2		12	54.0	2.5	/experiments/AOT/AOT_stimuli/rescaled_final/0997_fw.mp4	0.0	274.41756081581116	0.09997797012329102
57	251.35710096359253	fix_pre	0		120	55.0	2.5	/experiments/AOT/AOT_stimuli/rescaled_final/0977_fw.mp4	0.0	274.51753878593445	0.9995160102844238
57	252.35661697387695	movie	1		247	55.0	2.5	/experiments/AOT/AOT_stimuli/rescaled_final/0977_fw.mp4	0.0	275.5170547962189	2.5004870891571045
57	252.74016213417053	pulse	1	t		55.0	2.5	/experiments/AOT/AOT_stimuli/rescaled_final/0977_fw.mp4	0.0	275.90059995651245	
57	254.34054803848267	pulse	1	t		55.0	2.5	/experiments/AOT/AOT_stimuli/rescaled_final/0977_fw.mp4	0.0	277.5009858608246	
57	254.85710406303406	fix_post	2		12	55.0	2.5	/experiments/AOT/AOT_stimuli/rescaled_final/0977_fw.mp4	0.0	278.017541885376	0.09991002082824707
58	254.9570140838623	fix_pre	0		119	56.0	2.5	blank	1.0	278.1174519062042	0.9916369915008545
58	255.94054913520813	pulse	0	t		56.0	2.5	blank	1.0	279.10098695755005	
58	255.94865107536316	movie	1		301	56.0	2.5	blank	1.0	279.1090888977051	2.508430004119873
58	257.54073214530945	pulse	1	t		56.0	2.5	blank	1.0	280.70116996765137	
58	258.45708107948303	fix_post	2		12	56.0	2.5	blank	1.0	281.61751890182495	0.09998893737792969
59	258.55707001686096	fix_pre	0		120	57.0	2.5	/experiments/AOT/AOT_stimuli/rescaled_final/1561_fw.mp4	0.0	281.7175078392029	0.999891996383667
59	259.14056301116943	pulse	0	t		57.0	2.5	/experiments/AOT/AOT_stimuli/rescaled_final/1561_fw.mp4	0.0	282.30100083351135	
59	259.55696201324463	movie	1		244	57.0	2.5	/experiments/AOT/AOT_stimuli/rescaled_final/1561_fw.mp4	0.0	282.71739983558655	2.5000219345092773
59	260.74056100845337	pulse	1	t		57.0	2.5	/experiments/AOT/AOT_stimuli/rescaled_final/1561_fw.mp4	0.0	283.9009988307953	
59	262.0569839477539	fix_post	2		12	57.0	2.5	/experiments/AOT/AOT_stimuli/rescaled_final/1561_fw.mp4	0.0	285.2174217700958	0.10001707077026367
60	262.15700101852417	fix_pre	0		120	58.0	2.5	/experiments/AOT/AOT_stimuli/rescaled_final/0570_fw.mp4	0.0	285.3174388408661	1.0000081062316895
60	262.340539932251	pulse	0	t		58.0	2.5	/experiments/AOT/AOT_stimuli/rescaled_final/0570_fw.mp4	0.0	285.5009777545929	
60	263.15700912475586	movie	1		244	58.0	2.5	/experiments/AOT/AOT_stimuli/rescaled_final/0570_fw.mp4	0.0	286.3174469470978	2.500027894973755
60	263.94049310684204	pulse	1	t		58.0	2.5	/experiments/AOT/AOT_stimuli/rescaled_final/0570_fw.mp4	0.0	287.10093092918396	
60	265.54052996635437	pulse	1	t		58.0	2.5	/experiments/AOT/AOT_stimuli/rescaled_final/0570_fw.mp4	0.0	288.7009677886963	
60	265.6570370197296	fix_post	2		12	58.0	2.5	/experiments/AOT/AOT_stimuli/rescaled_final/0570_fw.mp4	0.0	288.81747484207153	0.09989595413208008
61	265.7569329738617	fix_pre	0		120	59.0	2.5	/experiments/AOT/AOT_stimuli/rescaled_final/1118_rv.mp4	0.0	288.9173707962036	0.9997241497039795
61	266.7566571235657	movie	1		243	59.0	2.5	/experiments/AOT/AOT_stimuli/rescaled_final/1118_rv.mp4	0.0	289.9170949459076	2.500281810760498
61	267.1401319503784	pulse	1	t		59.0	2.5	/experiments/AOT/AOT_stimuli/rescaled_final/1118_rv.mp4	0.0	290.30056977272034	
61	268.74055910110474	pulse	1	t		59.0	2.5	/experiments/AOT/AOT_stimuli/rescaled_final/1118_rv.mp4	0.0	291.90099692344666	
61	269.2569389343262	fix_post	2		12	59.0	2.5	/experiments/AOT/AOT_stimuli/rescaled_final/1118_rv.mp4	0.0	292.4173767566681	0.10010099411010742
62	269.3570399284363	fix_pre	0		119	60.0	2.5	/experiments/AOT/AOT_stimuli/rescaled_final/0209_fw.mp4	0.0	292.5174777507782	0.9915671348571777
62	270.34048199653625	pulse	0	t		60.0	2.5	/experiments/AOT/AOT_stimuli/rescaled_final/0209_fw.mp4	0.0	293.5009198188782	
62	270.34860706329346	movie	1		247	60.0	2.5	/experiments/AOT/AOT_stimuli/rescaled_final/0209_fw.mp4	0.0	293.5090448856354	2.508409023284912
62	271.9400119781494	pulse	1	t		60.0	2.5	/experiments/AOT/AOT_stimuli/rescaled_final/0209_fw.mp4	0.0	295.10044980049133	
62	272.85701608657837	fix_post	2		12	60.0	2.5	/experiments/AOT/AOT_stimuli/rescaled_final/0209_fw.mp4	0.0	296.0174539089203	0.10001707077026367
63	272.95703315734863	fix_pre	0		120	61.0	2.5	/experiments/AOT/AOT_stimuli/rescaled_final/1615_rv.mp4	0.0	296.11747097969055	0.9999527931213379
63	273.5404591560364	pulse	0	t		61.0	2.5	/experiments/AOT/AOT_stimuli/rescaled_final/1615_rv.mp4	0.0	296.7008969783783	
63	273.95698595046997	movie	1		245	61.0	2.5	/experiments/AOT/AOT_stimuli/rescaled_final/1615_rv.mp4	0.0	297.1174237728119	2.499917984008789
63	275.1405110359192	pulse	1	t		61.0	2.5	/experiments/AOT/AOT_stimuli/rescaled_final/1615_rv.mp4	0.0	298.3009488582611	
63	276.45690393447876	fix_post	2		12	61.0	2.5	/experiments/AOT/AOT_stimuli/rescaled_final/1615_rv.mp4	0.0	299.6173417568207	0.1000981330871582
64	276.5570020675659	fix_pre	0		120	62.0	2.5	blank	1.0	299.71743988990784	0.9999330043792725
64	276.74051904678345	pulse	0	t		62.0	2.5	blank	1.0	299.90095686912537	
64	277.5569350719452	movie	1		300	62.0	2.5	blank	1.0	300.7173728942871	2.5000569820404053
64	278.3403811454773	pulse	1	t		62.0	2.5	blank	1.0	301.5008189678192	
64	279.9404320716858	pulse	1	t		62.0	2.5	blank	1.0	303.1008698940277	
64	280.0569920539856	fix_post	2		12	62.0	2.5	blank	1.0	303.2174298763275	0.0999300479888916
65	280.1569221019745	fix_pre	0		120	63.0	2.5	/experiments/AOT/AOT_stimuli/rescaled_final/1071_fw.mp4	0.0	303.3173599243164	0.9999949932098389
65	281.1569170951843	movie	1		244	63.0	2.5	/experiments/AOT/AOT_stimuli/rescaled_final/1071_fw.mp4	0.0	304.31735491752625	2.4996609687805176
65	281.54019594192505	pulse	1	t		63.0	2.5	/experiments/AOT/AOT_stimuli/rescaled_final/1071_fw.mp4	0.0	304.70063376426697	
65	283.1405439376831	pulse	1	t		63.0	2.5	/experiments/AOT/AOT_stimuli/rescaled_final/1071_fw.mp4	0.0	306.300981760025	
65	283.65657806396484	fix_post	2		12	63.0	2.5	/experiments/AOT/AOT_stimuli/rescaled_final/1071_fw.mp4	0.0	306.81701588630676	0.10001397132873535
66	283.7565920352936	fix_pre	0		119	64.0	2.5	/experiments/AOT/AOT_stimuli/rescaled_final/1410_rv.mp4	0.0	306.9170298576355	0.9921820163726807
66	284.7405381202698	pulse	0	t		64.0	2.5	/experiments/AOT/AOT_stimuli/rescaled_final/1410_rv.mp4	0.0	307.9009759426117	
66	284.74877405166626	movie	1		245	64.0	2.5	/experiments/AOT/AOT_stimuli/rescaled_final/1410_rv.mp4	0.0	307.9092118740082	2.5081958770751953
66	286.3399889469147	pulse	1	t		64.0	2.5	/experiments/AOT/AOT_stimuli/rescaled_final/1410_rv.mp4	0.0	309.5004267692566	
66	287.25696992874146	fix_post	2		12	64.0	2.5	/experiments/AOT/AOT_stimuli/rescaled_final/1410_rv.mp4	0.0	310.4174077510834	0.10011816024780273
67	287.35708808898926	fix_pre	0		120	65.0	2.5	/experiments/AOT/AOT_stimuli/rescaled_final/0595_fw.mp4	0.0	310.5175259113312	0.9998259544372559
67	287.94040298461914	pulse	0	t		65.0	2.5	/experiments/AOT/AOT_stimuli/rescaled_final/0595_fw.mp4	0.0	311.10084080696106	
67	288.3569140434265	movie	1		243	65.0	2.5	/experiments/AOT/AOT_stimuli/rescaled_final/0595_fw.mp4	0.0	311.51735186576843	2.499985933303833
67	289.5404200553894	pulse	1	t		65.0	2.5	/experiments/AOT/AOT_stimuli/rescaled_final/0595_fw.mp4	0.0	312.7008578777313	
67	290.85689997673035	fix_post	2		12	65.0	2.5	/experiments/AOT/AOT_stimuli/rescaled_final/0595_fw.mp4	0.0	314.01733779907227	0.09998798370361328
68	290.95688796043396	fix_pre	0		120	66.0	2.5	/experiments/AOT/AOT_stimuli/rescaled_final/0788_fw.mp4	0.0	314.1173257827759	1.000068187713623
68	291.1402840614319	pulse	0	t		66.0	2.5	/experiments/AOT/AOT_stimuli/rescaled_final/0788_fw.mp4	0.0	314.3007218837738	
68	291.9569561481476	movie	1		245	66.0	2.5	/experiments/AOT/AOT_stimuli/rescaled_final/0788_fw.mp4	0.0	315.1173939704895	2.499866008758545
68	292.74032497406006	pulse	1	t		66.0	2.5	/experiments/AOT/AOT_stimuli/rescaled_final/0788_fw.mp4	0.0	315.900762796402	
68	294.33877301216125	pulse	1	t		66.0	2.5	/experiments/AOT/AOT_stimuli/rescaled_final/0788_fw.mp4	0.0	317.4992108345032	
68	294.4568221569061	fix_post	2		12	66.0	2.5	/experiments/AOT/AOT_stimuli/rescaled_final/0788_fw.mp4	0.0	317.61725997924805	0.10000085830688477
69	294.556823015213	fix_pre	0		120	67.0	2.5	/experiments/AOT/AOT_stimuli/rescaled_final/1659_fw.mp4	0.0	317.71726083755493	1.0000410079956055
69	295.5568640232086	movie	1		248	67.0	2.5	/experiments/AOT/AOT_stimuli/rescaled_final/1659_fw.mp4	0.0	318.71730184555054	2.4999310970306396
69	295.9398810863495	pulse	1	t		67.0	2.5	/experiments/AOT/AOT_stimuli/rescaled_final/1659_fw.mp4	0.0	319.1003189086914	
69	297.54028511047363	pulse	1	t		67.0	2.5	/experiments/AOT/AOT_stimuli/rescaled_final/1659_fw.mp4	0.0	320.70072293281555	
69	298.05679512023926	fix_post	2		12	67.0	2.5	/experiments/AOT/AOT_stimuli/rescaled_final/1659_fw.mp4	0.0	321.2172329425812	0.09960389137268066
70	298.15639901161194	fix_pre	0		119	68.0	2.5	/experiments/AOT/AOT_stimuli/rescaled_final/0972_rv.mp4	0.0	321.31683683395386	0.9920580387115479
70	299.1402759552002	pulse	0	t		68.0	2.5	/experiments/AOT/AOT_stimuli/rescaled_final/0972_rv.mp4	0.0	322.3007137775421	
70	299.1484570503235	movie	1		246	68.0	2.5	/experiments/AOT/AOT_stimuli/rescaled_final/0972_rv.mp4	0.0	322.3088948726654	2.507925033569336
70	300.7402400970459	pulse	1	t		68.0	2.5	/experiments/AOT/AOT_stimuli/rescaled_final/0972_rv.mp4	0.0	323.9006779193878	
70	301.6563820838928	fix_post	2		12	68.0	2.5	/experiments/AOT/AOT_stimuli/rescaled_final/0972_rv.mp4	0.0	324.81681990623474	0.10040998458862305
71	301.75679206848145	fix_pre	0		120	69.0	2.5	/experiments/AOT/AOT_stimuli/rescaled_final/1589_fw.mp4	0.0	324.91722989082336	1.000006914138794
71	302.34041595458984	pulse	0	t		69.0	2.5	/experiments/AOT/AOT_stimuli/rescaled_final/1589_fw.mp4	0.0	325.50085377693176	
71	302.75679898262024	movie	1		246	69.0	2.5	/experiments/AOT/AOT_stimuli/rescaled_final/1589_fw.mp4	0.0	325.91723680496216	2.4999520778656006
71	303.94046115875244	pulse	1	t		69.0	2.5	/experiments/AOT/AOT_stimuli/rescaled_final/1589_fw.mp4	0.0	327.10089898109436	
71	305.25675106048584	fix_post	2		12	69.0	2.5	/experiments/AOT/AOT_stimuli/rescaled_final/1589_fw.mp4	0.0	328.41718888282776	0.10011601448059082
72	305.35686707496643	fix_pre	0		120	70.0	2.5	blank	1.0	328.51730489730835	0.9998998641967773
72	305.5402719974518	pulse	0	t		70.0	2.5	blank	1.0	328.7007098197937	
72	306.3567669391632	movie	1		300	70.0	2.5	blank	1.0	329.5172047615051	2.4999911785125732
72	307.1403350830078	pulse	1	t		70.0	2.5	blank	1.0	330.30077290534973	
72	308.7402341365814	pulse	1	t		70.0	2.5	blank	1.0	331.90067195892334	
72	308.8567581176758	fix_post	2		12	70.0	2.5	blank	1.0	332.0171959400177	0.1000528335571289
73	308.9568109512329	fix_pre	0		120	71.0	2.5	/experiments/AOT/AOT_stimuli/rescaled_final/1100_fw.mp4	0.0	332.11724877357483	0.9999480247497559
73	309.95675897598267	movie	1		243	71.0	2.5	/experiments/AOT/AOT_stimuli/rescaled_final/1100_fw.mp4	0.0	333.1171967983246	2.4999420642852783
73	310.33978605270386	pulse	1	t		71.0	2.5	/experiments/AOT/AOT_stimuli/rescaled_final/1100_fw.mp4	0.0	333.5002238750458	
73	311.94033002853394	pulse	1	t		71.0	2.5	/experiments/AOT/AOT_stimuli/rescaled_final/1100_fw.mp4	0.0	335.10076785087585	
73	312.45670104026794	fix_post	2		12	71.0	2.5	/experiments/AOT/AOT_stimuli/rescaled_final/1100_fw.mp4	0.0	335.61713886260986	0.100006103515625
74	312.55670714378357	fix_pre	0		119	72.0	2.5	/experiments/AOT/AOT_stimuli/rescaled_final/1523_fw.mp4	0.0	335.7171449661255	0.9916858673095703
74	313.540244102478	pulse	0	t		72.0	2.5	/experiments/AOT/AOT_stimuli/rescaled_final/1523_fw.mp4	0.0	336.70068192481995	
74	313.54839301109314	movie	1		246	72.0	2.5	/experiments/AOT/AOT_stimuli/rescaled_final/1523_fw.mp4	0.0	336.70883083343506	2.507935047149658
74	315.139897108078	pulse	1	t		72.0	2.5	/experiments/AOT/AOT_stimuli/rescaled_final/1523_fw.mp4	0.0	338.3003349304199	
74	316.0563280582428	fix_post	2		12	72.0	2.5	/experiments/AOT/AOT_stimuli/rescaled_final/1523_fw.mp4	0.0	339.2167658805847	0.10040593147277832
75	316.1567339897156	fix_pre	0		120	73.0	2.5	/experiments/AOT/AOT_stimuli/rescaled_final/1575_fw.mp4	0.0	339.3171718120575	0.9999840259552002
75	316.7402329444885	pulse	0	t		73.0	2.5	/experiments/AOT/AOT_stimuli/rescaled_final/1575_fw.mp4	0.0	339.90067076683044	
75	317.1567180156708	movie	1		248	73.0	2.5	/experiments/AOT/AOT_stimuli/rescaled_final/1575_fw.mp4	0.0	340.3171558380127	2.500070095062256
75	318.3402769565582	pulse	1	t		73.0	2.5	/experiments/AOT/AOT_stimuli/rescaled_final/1575_fw.mp4	0.0	341.50071477890015	
75	319.65678811073303	fix_post	2		12	73.0	2.5	/experiments/AOT/AOT_stimuli/rescaled_final/1575_fw.mp4	0.0	342.81722593307495	0.10001301765441895
76	319.75680112838745	fix_pre	0		120	74.0	2.5	/experiments/AOT/AOT_stimuli/rescaled_final/1261_fw.mp4	0.0	342.91723895072937	1.0000200271606445
76	319.9402129650116	pulse	0	t		74.0	2.5	/experiments/AOT/AOT_stimuli/rescaled_final/1261_fw.mp4	0.0	343.1006507873535	
76	320.7568211555481	movie	1		244	74.0	2.5	/experiments/AOT/AOT_stimuli/rescaled_final/1261_fw.mp4	0.0	343.91725897789	2.4998769760131836
76	321.54023599624634	pulse	1	t		74.0	2.5	/experiments/AOT/AOT_stimuli/rescaled_final/1261_fw.mp4	0.0	344.70067381858826	
76	323.1383979320526	pulse	1	t		74.0	2.5	/experiments/AOT/AOT_stimuli/rescaled_final/1261_fw.mp4	0.0	346.29883575439453	
76	323.2566981315613	fix_post	2		12	74.0	2.5	/experiments/AOT/AOT_stimuli/rescaled_final/1261_fw.mp4	0.0	346.4171359539032	0.10002279281616211
77	323.35672092437744	fix_pre	0		120	75.0	2.5	blank	1.0	346.51715874671936	1.0000150203704834
77	324.3567359447479	movie	1		300	75.0	2.5	blank	1.0	347.51717376708984	2.4999921321868896
77	324.7401900291443	pulse	1	t		75.0	2.5	blank	1.0	347.9006278514862	
77	326.3402450084686	pulse	1	t		75.0	2.5	blank	1.0	349.50068283081055	
77	326.8567280769348	fix_post	2		12	75.0	2.5	blank	1.0	350.01716589927673	0.0995030403137207
78	326.95623111724854	fix_pre	0		119	76.0	2.5	/experiments/AOT/AOT_stimuli/rescaled_final/0208_fw.mp4	0.0	350.11666893959045	0.9921548366546631
78	327.94022607803345	pulse	0	t		76.0	2.5	/experiments/AOT/AOT_stimuli/rescaled_final/0208_fw.mp4	0.0	351.10066390037537	
78	327.9483859539032	movie	1		246	76.0	2.5	/experiments/AOT/AOT_stimuli/rescaled_final/0208_fw.mp4	0.0	351.1088237762451	2.508368968963623
78	329.5399000644684	pulse	1	t		76.0	2.5	/experiments/AOT/AOT_stimuli/rescaled_final/0208_fw.mp4	0.0	352.7003378868103	
78	330.4567549228668	fix_post	2		12	76.0	2.5	/experiments/AOT/AOT_stimuli/rescaled_final/0208_fw.mp4	0.0	353.61719274520874	0.0998830795288086
79	330.55663800239563	fix_pre	0		120	77.0	2.5	/experiments/AOT/AOT_stimuli/rescaled_final/0625_rv.mp4	0.0	353.71707582473755	1.0000860691070557
79	331.14020705223083	pulse	0	t		77.0	2.5	/experiments/AOT/AOT_stimuli/rescaled_final/0625_rv.mp4	0.0	354.30064487457275	
79	331.5567240715027	movie	1		241	77.0	2.5	/experiments/AOT/AOT_stimuli/rescaled_final/0625_rv.mp4	0.0	354.7171618938446	2.4999020099639893
79	332.74023509025574	pulse	1	t		77.0	2.5	/experiments/AOT/AOT_stimuli/rescaled_final/0625_rv.mp4	0.0	355.90067291259766	
79	334.0566260814667	fix_post	2		12	77.0	2.5	/experiments/AOT/AOT_stimuli/rescaled_final/0625_rv.mp4	0.0	357.2170639038086	0.10005593299865723
80	334.15668201446533	fix_pre	0		120	78.0	2.5	/experiments/AOT/AOT_stimuli/rescaled_final/0380_fw.mp4	0.0	357.31711983680725	0.999575138092041
80	334.3402590751648	pulse	0	t		78.0	2.5	/experiments/AOT/AOT_stimuli/rescaled_final/0380_fw.mp4	0.0	357.5006968975067	
80	335.1562571525574	movie	1		244	78.0	2.5	/experiments/AOT/AOT_stimuli/rescaled_final/0380_fw.mp4	0.0	358.3166949748993	2.500537872314453
80	335.9402060508728	pulse	1	t		78.0	2.5	/experiments/AOT/AOT_stimuli/rescaled_final/0380_fw.mp4	0.0	359.1006438732147	
80	337.53875398635864	pulse	1	t		78.0	2.5	/experiments/AOT/AOT_stimuli/rescaled_final/0380_fw.mp4	0.0	360.69919180870056	
80	337.6567950248718	fix_post	2		12	78.0	2.5	/experiments/AOT/AOT_stimuli/rescaled_final/0380_fw.mp4	0.0	360.81723284721375	0.09990596771240234
81	337.75670099258423	fix_pre	0		120	79.0	2.5	/experiments/AOT/AOT_stimuli/rescaled_final/1615_fw.mp4	0.0	360.91713881492615	0.9995300769805908
81	338.7562310695648	movie	1		246	79.0	2.5	/experiments/AOT/AOT_stimuli/rescaled_final/1615_fw.mp4	0.0	361.91666889190674	2.500251054763794
81	339.1406030654907	pulse	1	t		79.0	2.5	/experiments/AOT/AOT_stimuli/rescaled_final/1615_fw.mp4	0.0	362.30104088783264	
81	340.7402150630951	pulse	1	t		79.0	2.5	/experiments/AOT/AOT_stimuli/rescaled_final/1615_fw.mp4	0.0	363.900652885437	
81	341.2564821243286	fix_post	2		12	79.0	2.5	/experiments/AOT/AOT_stimuli/rescaled_final/1615_fw.mp4	0.0	364.41691994667053	0.10039901733398438
82	341.3568811416626	fix_pre	0		119	80.0	2.5	/experiments/AOT/AOT_stimuli/rescaled_final/1618_rv.mp4	0.0	364.5173189640045	0.991480827331543
82	342.34013414382935	pulse	0	t		80.0	2.5	/experiments/AOT/AOT_stimuli/rescaled_final/1618_rv.mp4	0.0	365.50057196617126	
82	342.34836196899414	movie	1		249	80.0	2.5	/experiments/AOT/AOT_stimuli/rescaled_final/1618_rv.mp4	0.0	365.50879979133606	2.5082919597625732
82	343.9395799636841	pulse	1	t		80.0	2.5	/experiments/AOT/AOT_stimuli/rescaled_final/1618_rv.mp4	0.0	367.100017786026	
82	344.8566539287567	fix_post	2		12	80.0	2.5	/experiments/AOT/AOT_stimuli/rescaled_final/1618_rv.mp4	0.0	368.01709175109863	0.09998106956481934
83	344.95663499832153	fix_pre	0		120	81.0	2.5	/experiments/AOT/AOT_stimuli/rescaled_final/0845_rv.mp4	0.0	368.11707282066345	0.9999849796295166
83	345.5400941371918	pulse	0	t		81.0	2.5	/experiments/AOT/AOT_stimuli/rescaled_final/0845_rv.mp4	0.0	368.7005319595337	
83	345.95661997795105	movie	1		245	81.0	2.5	/experiments/AOT/AOT_stimuli/rescaled_final/0845_rv.mp4	0.0	369.11705780029297	2.499545097351074
83	347.1401460170746	pulse	1	t		81.0	2.5	/experiments/AOT/AOT_stimuli/rescaled_final/0845_rv.mp4	0.0	370.3005838394165	
83	348.4561650753021	fix_post	2		12	81.0	2.5	/experiments/AOT/AOT_stimuli/rescaled_final/0845_rv.mp4	0.0	371.61660289764404	0.1005558967590332
84	348.55672097206116	fix_pre	0		120	82.0	2.5	blank	1.0	371.7171587944031	0.9998760223388672
84	348.7401111125946	pulse	0	t		82.0	2.5	blank	1.0	371.9005489349365	
84	349.5565969944	movie	1		300	82.0	2.5	blank	1.0	372.71703481674194	2.4999849796295166
84	350.340008020401	pulse	1	t		82.0	2.5	blank	1.0	373.5004458427429	
84	351.9400770664215	pulse	1	t		82.0	2.5	blank	1.0	375.1005148887634	
84	352.05658197402954	fix_post	2		12	82.0	2.5	blank	1.0	375.21701979637146	0.09998607635498047
85	352.1565680503845	fix_pre	0		120	83.0	2.5	/experiments/AOT/AOT_stimuli/rescaled_final/1470_rv.mp4	0.0	375.31700587272644	0.9995300769805908
85	353.1560981273651	movie	1		245	83.0	2.5	/experiments/AOT/AOT_stimuli/rescaled_final/1470_rv.mp4	0.0	376.31653594970703	2.5000247955322266
85	353.5398099422455	pulse	1	t		83.0	2.5	/experiments/AOT/AOT_stimuli/rescaled_final/1470_rv.mp4	0.0	376.7002477645874	
85	355.1400361061096	pulse	1	t		83.0	2.5	/experiments/AOT/AOT_stimuli/rescaled_final/1470_rv.mp4	0.0	378.30047392845154	
85	355.65612292289734	fix_post	2		12	83.0	2.5	/experiments/AOT/AOT_stimuli/rescaled_final/1470_rv.mp4	0.0	378.81656074523926	0.10042119026184082
87	355.7565441131592	stim	0		1716					378.9169819355011	14.299988985061646
87	356.7400360107422	pulse	0	t						379.9004738330841	
87	358.34002900123596	pulse	0	t						381.5004668235779	
87	359.94002294540405	pulse	0	t						383.100460767746	
87	361.54000902175903	pulse	0	t						384.70044684410095	
87	363.1400089263916	pulse	0	t						386.3004467487335	
87	364.7398900985718	pulse	0	t						387.9003279209137	
87	366.3399820327759	pulse	0	t						389.5004198551178	
87	367.93996810913086	pulse	0	t						391.1004059314728	
87	369.53991508483887	pulse	0	t						392.7003529071808	
