trial_nr	onset	event_type	phase	response	nr_frames	movie_index	movie_duration	movie_file	blank	onset_abs	duration
0	0.21682286262512207	stim	0		63					19.721803903579712	0.5249011516571045
0	0.7335388660430908	response	0	space						20.23851990699768	
1	0.7417240142822266	stim	0		4016					20.246705055236816	33.48462390899658
1	34.21141290664673	pulse	0	t						53.71639394760132	
1	34.22634792327881	stim	1		1715					53.7313289642334	14.297528982162476
1	35.80545783042908	pulse	1	t						55.31043887138367	
1	37.4058198928833	pulse	1	t						56.91080093383789	
1	39.00591993331909	pulse	1	t						58.51090097427368	
1	40.606175899505615	pulse	1	t						60.111156940460205	
1	42.206413984298706	pulse	1	t						61.711395025253296	
1	43.806654930114746	pulse	1	t						63.311635971069336	
1	45.40691900253296	pulse	1	t						64.91190004348755	
1	47.00710201263428	pulse	1	t						66.51208305358887	
2	48.523876905441284	fix_pre	0		11	0.0	2.5	/experiments/knapen_AOT/AOT_stimuli/rescaled_final/0855_rv.mp4	0.0	68.02885794639587	0.09163999557495117
2	48.60733699798584	pulse	0	t		0.0	2.5	/experiments/knapen_AOT/AOT_stimuli/rescaled_final/0855_rv.mp4	0.0	68.11231803894043	
2	48.615516901016235	movie	1		242	0.0	2.5	/experiments/knapen_AOT/AOT_stimuli/rescaled_final/0855_rv.mp4	0.0	68.12049794197083	2.5088069438934326
2	50.21206593513489	pulse	1	t		0.0	2.5	/experiments/knapen_AOT/AOT_stimuli/rescaled_final/0855_rv.mp4	0.0	69.71704697608948	
2	51.12432384490967	fix_post	2		12	0.0	2.5	/experiments/knapen_AOT/AOT_stimuli/rescaled_final/0855_rv.mp4	0.0	70.62930488586426	0.09993314743041992
3	51.22425699234009	fix_pre	0		120	1.0	2.5	/experiments/knapen_AOT/AOT_stimuli/rescaled_final/2153_rv.mp4	0.0	70.72923803329468	1.0001230239868164
3	51.807868003845215	pulse	0	t		1.0	2.5	/experiments/knapen_AOT/AOT_stimuli/rescaled_final/2153_rv.mp4	0.0	71.3128490447998	
3	52.224380016326904	movie	1		242	1.0	2.5	/experiments/knapen_AOT/AOT_stimuli/rescaled_final/2153_rv.mp4	0.0	71.7293610572815	2.500560998916626
3	53.40816879272461	pulse	1	t		1.0	2.5	/experiments/knapen_AOT/AOT_stimuli/rescaled_final/2153_rv.mp4	0.0	72.9131498336792	
3	54.72494101524353	fix_post	2		12	1.0	2.5	/experiments/knapen_AOT/AOT_stimuli/rescaled_final/2153_rv.mp4	0.0	74.22992205619812	0.09986686706542969
4	54.82480788230896	fix_pre	0		120	2.0	2.5	/experiments/knapen_AOT/AOT_stimuli/rescaled_final/0624_fw.mp4	0.0	74.32978892326355	1.0001540184020996
4	55.00837302207947	pulse	0	t		2.0	2.5	/experiments/knapen_AOT/AOT_stimuli/rescaled_final/0624_fw.mp4	0.0	74.51335406303406	
4	55.82496190071106	movie	1		242	2.0	2.5	/experiments/knapen_AOT/AOT_stimuli/rescaled_final/0624_fw.mp4	0.0	75.32994294166565	2.5004870891571045
4	56.60135293006897	pulse	1	t		2.0	2.5	/experiments/knapen_AOT/AOT_stimuli/rescaled_final/0624_fw.mp4	0.0	76.10633397102356	
4	58.20924782752991	pulse	1	t		2.0	2.5	/experiments/knapen_AOT/AOT_stimuli/rescaled_final/0624_fw.mp4	0.0	77.7142288684845	
4	58.325448989868164	fix_post	2		12	2.0	2.5	/experiments/knapen_AOT/AOT_stimuli/rescaled_final/0624_fw.mp4	0.0	77.83043003082275	0.09994697570800781
5	58.42539596557617	fix_pre	0		120	3.0	2.5	/experiments/knapen_AOT/AOT_stimuli/rescaled_final/1803_rv.mp4	0.0	77.93037700653076	1.0000739097595215
5	59.42546987533569	movie	1		241	3.0	2.5	/experiments/knapen_AOT/AOT_stimuli/rescaled_final/1803_rv.mp4	0.0	78.93045091629028	2.492090940475464
5	59.809624910354614	pulse	1	t		3.0	2.5	/experiments/knapen_AOT/AOT_stimuli/rescaled_final/1803_rv.mp4	0.0	79.3146059513092	
5	61.40200400352478	pulse	1	t		3.0	2.5	/experiments/knapen_AOT/AOT_stimuli/rescaled_final/1803_rv.mp4	0.0	80.90698504447937	
5	61.91756081581116	fix_post	2		12	3.0	2.5	/experiments/knapen_AOT/AOT_stimuli/rescaled_final/1803_rv.mp4	0.0	81.42254185676575	0.09998607635498047
6	62.01754689216614	fix_pre	0		120	4.0	2.5	/experiments/knapen_AOT/AOT_stimuli/rescaled_final/1960_fw.mp4	0.0	81.52252793312073	1.0001170635223389
6	63.00196290016174	pulse	0	t		4.0	2.5	/experiments/knapen_AOT/AOT_stimuli/rescaled_final/1960_fw.mp4	0.0	82.50694394111633	
6	63.01766395568848	movie	1		243	4.0	2.5	/experiments/knapen_AOT/AOT_stimuli/rescaled_final/1960_fw.mp4	0.0	82.52264499664307	2.5087568759918213
6	64.6014199256897	pulse	1	t		4.0	2.5	/experiments/knapen_AOT/AOT_stimuli/rescaled_final/1960_fw.mp4	0.0	84.10640096664429	
6	65.5264208316803	fix_post	2		12	4.0	2.5	/experiments/knapen_AOT/AOT_stimuli/rescaled_final/1960_fw.mp4	0.0	85.03140187263489	0.09998703002929688
7	65.6264078617096	fix_pre	0		120	5.0	2.5	/experiments/knapen_AOT/AOT_stimuli/rescaled_final/1395_rv.mp4	0.0	85.13138890266418	1.0001239776611328
7	66.2016270160675	pulse	0	t		5.0	2.5	/experiments/knapen_AOT/AOT_stimuli/rescaled_final/1395_rv.mp4	0.0	85.7066080570221	
7	66.62653183937073	movie	1		242	5.0	2.5	/experiments/knapen_AOT/AOT_stimuli/rescaled_final/1395_rv.mp4	0.0	86.13151288032532	2.5004379749298096
7	67.80271792411804	pulse	1	t		5.0	2.5	/experiments/knapen_AOT/AOT_stimuli/rescaled_final/1395_rv.mp4	0.0	87.30769896507263	
7	69.12696981430054	fix_post	2		9	5.0	2.5	/experiments/knapen_AOT/AOT_stimuli/rescaled_final/1395_rv.mp4	0.0	88.63195085525513	0.10001802444458008
8	69.22698783874512	fix_pre	0		120	6.0	2.5	/experiments/knapen_AOT/AOT_stimuli/rescaled_final/0956_rv.mp4	0.0	88.7319688796997	1.0001120567321777
8	69.40216183662415	pulse	0	t		6.0	2.5	/experiments/knapen_AOT/AOT_stimuli/rescaled_final/0956_rv.mp4	0.0	88.90714287757874	
8	70.2270998954773	movie	1		242	6.0	2.5	/experiments/knapen_AOT/AOT_stimuli/rescaled_final/0956_rv.mp4	0.0	89.73208093643188	2.5005199909210205
8	71.00236797332764	pulse	1	t		6.0	2.5	/experiments/knapen_AOT/AOT_stimuli/rescaled_final/0956_rv.mp4	0.0	90.50734901428223	
8	72.60270094871521	pulse	1	t		6.0	2.5	/experiments/knapen_AOT/AOT_stimuli/rescaled_final/0956_rv.mp4	0.0	92.1076819896698	
8	72.72761988639832	fix_post	2		12	6.0	2.5	/experiments/knapen_AOT/AOT_stimuli/rescaled_final/0956_rv.mp4	0.0	92.2326009273529	0.09988212585449219
9	72.82750201225281	fix_pre	0		119	7.0	2.5	blank	1.0	92.3324830532074	0.9918549060821533
9	73.81935691833496	movie	1		300	7.0	2.5	blank	1.0	93.32433795928955	2.500359058380127
9	74.20281481742859	pulse	1	t		7.0	2.5	blank	1.0	93.70779585838318	
9	75.80311179161072	pulse	1	t		7.0	2.5	blank	1.0	95.30809283256531	
9	76.31971597671509	fix_post	2		12	7.0	2.5	blank	1.0	95.82469701766968	0.0999448299407959
10	76.41966080665588	fix_pre	0		119	8.0	2.5	/experiments/knapen_AOT/AOT_stimuli/rescaled_final/1567_fw.mp4	0.0	95.92464184761047	0.9918091297149658
10	77.40328693389893	pulse	0	t		8.0	2.5	/experiments/knapen_AOT/AOT_stimuli/rescaled_final/1567_fw.mp4	0.0	96.90826797485352	
10	77.41146993637085	movie	1		244	8.0	2.5	/experiments/knapen_AOT/AOT_stimuli/rescaled_final/1567_fw.mp4	0.0	96.91645097732544	2.5087080001831055
10	79.0039689540863	pulse	1	t		8.0	2.5	/experiments/knapen_AOT/AOT_stimuli/rescaled_final/1567_fw.mp4	0.0	98.5089499950409	
10	79.92017793655396	fix_post	2		12	8.0	2.5	/experiments/knapen_AOT/AOT_stimuli/rescaled_final/1567_fw.mp4	0.0	99.42515897750854	0.10001397132873535
11	80.02019190788269	fix_pre	0		120	9.0	2.5	/experiments/knapen_AOT/AOT_stimuli/rescaled_final/1132_fw.mp4	0.0	99.52517294883728	1.0001869201660156
11	80.60386300086975	pulse	0	t		9.0	2.5	/experiments/knapen_AOT/AOT_stimuli/rescaled_final/1132_fw.mp4	0.0	100.10884404182434	
11	81.0203788280487	movie	1		243	9.0	2.5	/experiments/knapen_AOT/AOT_stimuli/rescaled_final/1132_fw.mp4	0.0	100.5253598690033	2.5004851818084717
11	82.20408582687378	pulse	1	t		9.0	2.5	/experiments/knapen_AOT/AOT_stimuli/rescaled_final/1132_fw.mp4	0.0	101.70906686782837	
11	83.52086400985718	fix_post	2		12	9.0	2.5	/experiments/knapen_AOT/AOT_stimuli/rescaled_final/1132_fw.mp4	0.0	103.02584505081177	0.09993886947631836
12	83.6208028793335	fix_pre	0		120	10.0	2.5	/experiments/knapen_AOT/AOT_stimuli/rescaled_final/2104_rv.mp4	0.0	103.12578392028809	1.0001220703125
12	83.80428194999695	pulse	0	t		10.0	2.5	/experiments/knapen_AOT/AOT_stimuli/rescaled_final/2104_rv.mp4	0.0	103.30926299095154	
12	84.620924949646	movie	1		243	10.0	2.5	/experiments/knapen_AOT/AOT_stimuli/rescaled_final/2104_rv.mp4	0.0	104.12590599060059	2.500473976135254
12	85.4046700000763	pulse	1	t		10.0	2.5	/experiments/knapen_AOT/AOT_stimuli/rescaled_final/2104_rv.mp4	0.0	104.90965104103088	
12	87.00480079650879	pulse	1	t		10.0	2.5	/experiments/knapen_AOT/AOT_stimuli/rescaled_final/2104_rv.mp4	0.0	106.50978183746338	
12	87.12139892578125	fix_post	2		12	10.0	2.5	/experiments/knapen_AOT/AOT_stimuli/rescaled_final/2104_rv.mp4	0.0	106.62637996673584	0.0999000072479248
13	87.22129893302917	fix_pre	0		120	11.0	2.5	/experiments/knapen_AOT/AOT_stimuli/rescaled_final/0447_rv.mp4	0.0	106.72627997398376	1.0001709461212158
13	88.22146987915039	movie	1		243	11.0	2.5	/experiments/knapen_AOT/AOT_stimuli/rescaled_final/0447_rv.mp4	0.0	107.72645092010498	2.500462055206299
13	88.6055269241333	pulse	1	t		11.0	2.5	/experiments/knapen_AOT/AOT_stimuli/rescaled_final/0447_rv.mp4	0.0	108.11050796508789	
13	90.20521998405457	pulse	1	t		11.0	2.5	/experiments/knapen_AOT/AOT_stimuli/rescaled_final/0447_rv.mp4	0.0	109.71020102500916	
13	90.72193193435669	fix_post	2		12	11.0	2.5	/experiments/knapen_AOT/AOT_stimuli/rescaled_final/0447_rv.mp4	0.0	110.22691297531128	0.09996294975280762
14	90.8218948841095	fix_pre	0		119	12.0	2.5	blank	1.0	110.32687592506409	0.9917371273040771
14	91.80554699897766	pulse	0	t		12.0	2.5	blank	1.0	111.31052803993225	
14	91.81363201141357	movie	1		301	12.0	2.5	blank	1.0	111.31861305236816	2.508713960647583
14	93.40579891204834	pulse	1	t		12.0	2.5	blank	1.0	112.91077995300293	
14	94.32234597206116	fix_post	2		12	12.0	2.5	blank	1.0	113.82732701301575	0.10008096694946289
15	94.42242693901062	fix_pre	0		120	13.0	2.5	/experiments/knapen_AOT/AOT_stimuli/rescaled_final/1326_rv.mp4	0.0	113.92740797996521	1.0001180171966553
15	95.00603079795837	pulse	0	t		13.0	2.5	/experiments/knapen_AOT/AOT_stimuli/rescaled_final/1326_rv.mp4	0.0	114.51101183891296	
15	95.42254495620728	movie	1		242	13.0	2.5	/experiments/knapen_AOT/AOT_stimuli/rescaled_final/1326_rv.mp4	0.0	114.92752599716187	2.5004539489746094
15	96.60182094573975	pulse	1	t		13.0	2.5	/experiments/knapen_AOT/AOT_stimuli/rescaled_final/1326_rv.mp4	0.0	116.10680198669434	
15	97.92299890518188	fix_post	2		12	13.0	2.5	/experiments/knapen_AOT/AOT_stimuli/rescaled_final/1326_rv.mp4	0.0	117.42797994613647	0.09995698928833008
16	98.02295589447021	fix_pre	0		120	14.0	2.5	/experiments/knapen_AOT/AOT_stimuli/rescaled_final/0394_fw.mp4	0.0	117.5279369354248	1.000072956085205
16	98.20646286010742	pulse	0	t		14.0	2.5	/experiments/knapen_AOT/AOT_stimuli/rescaled_final/0394_fw.mp4	0.0	117.71144390106201	
16	99.02302885055542	movie	1		242	14.0	2.5	/experiments/knapen_AOT/AOT_stimuli/rescaled_final/0394_fw.mp4	0.0	118.52800989151001	2.50055193901062
16	99.80679202079773	pulse	1	t		14.0	2.5	/experiments/knapen_AOT/AOT_stimuli/rescaled_final/0394_fw.mp4	0.0	119.31177306175232	
16	101.40764284133911	pulse	1	t		14.0	2.5	/experiments/knapen_AOT/AOT_stimuli/rescaled_final/0394_fw.mp4	0.0	120.9126238822937	
16	101.52358078956604	fix_post	2		12	14.0	2.5	/experiments/knapen_AOT/AOT_stimuli/rescaled_final/0394_fw.mp4	0.0	121.02856183052063	0.0999140739440918
17	101.62349486351013	fix_pre	0		120	15.0	2.5	/experiments/knapen_AOT/AOT_stimuli/rescaled_final/0091_fw.mp4	0.0	121.12847590446472	1.0001840591430664
17	102.6236789226532	movie	1		244	15.0	2.5	/experiments/knapen_AOT/AOT_stimuli/rescaled_final/0091_fw.mp4	0.0	122.12865996360779	2.4920010566711426
17	103.00782179832458	pulse	1	t		15.0	2.5	/experiments/knapen_AOT/AOT_stimuli/rescaled_final/0091_fw.mp4	0.0	122.51280283927917	
17	104.60735988616943	pulse	1	t		15.0	2.5	/experiments/knapen_AOT/AOT_stimuli/rescaled_final/0091_fw.mp4	0.0	124.11234092712402	
17	105.11567997932434	fix_post	2		12	15.0	2.5	/experiments/knapen_AOT/AOT_stimuli/rescaled_final/0091_fw.mp4	0.0	124.62066102027893	0.09999990463256836
18	105.21567988395691	fix_pre	0		120	16.0	2.5	/experiments/knapen_AOT/AOT_stimuli/rescaled_final/2104_rv.mp4	0.0	124.7206609249115	1.0001130104064941
18	106.2077329158783	pulse	0	t		16.0	2.5	/experiments/knapen_AOT/AOT_stimuli/rescaled_final/2104_rv.mp4	0.0	125.71271395683289	
18	106.2157928943634	movie	1		244	16.0	2.5	/experiments/knapen_AOT/AOT_stimuli/rescaled_final/2104_rv.mp4	0.0	125.720773935318	2.50874400138855
18	107.80841779708862	pulse	1	t		16.0	2.5	/experiments/knapen_AOT/AOT_stimuli/rescaled_final/2104_rv.mp4	0.0	127.31339883804321	
18	108.72453689575195	fix_post	2		12	16.0	2.5	/experiments/knapen_AOT/AOT_stimuli/rescaled_final/2104_rv.mp4	0.0	128.22951793670654	0.10001492500305176
19	108.824551820755	fix_pre	0		120	17.0	2.5	/experiments/knapen_AOT/AOT_stimuli/rescaled_final/0727_rv.mp4	0.0	128.3295328617096	1.0001320838928223
19	109.4081358909607	pulse	0	t		17.0	2.5	/experiments/knapen_AOT/AOT_stimuli/rescaled_final/0727_rv.mp4	0.0	128.91311693191528	
19	109.82468390464783	movie	1		245	17.0	2.5	/experiments/knapen_AOT/AOT_stimuli/rescaled_final/0727_rv.mp4	0.0	129.32966494560242	2.500359058380127
19	111.00840091705322	pulse	1	t		17.0	2.5	/experiments/knapen_AOT/AOT_stimuli/rescaled_final/0727_rv.mp4	0.0	130.5133819580078	
19	112.32504296302795	fix_post	2		12	17.0	2.5	/experiments/knapen_AOT/AOT_stimuli/rescaled_final/0727_rv.mp4	0.0	131.83002400398254	0.09998583793640137
20	112.42502880096436	fix_pre	0		120	18.0	2.5	/experiments/knapen_AOT/AOT_stimuli/rescaled_final/1743_rv.mp4	0.0	131.93000984191895	1.0001611709594727
20	112.60106086730957	pulse	0	t		18.0	2.5	/experiments/knapen_AOT/AOT_stimuli/rescaled_final/1743_rv.mp4	0.0	132.10604190826416	
20	113.42518997192383	movie	1		242	18.0	2.5	/experiments/knapen_AOT/AOT_stimuli/rescaled_final/1743_rv.mp4	0.0	132.93017101287842	2.500548839569092
20	114.20152592658997	pulse	1	t		18.0	2.5	/experiments/knapen_AOT/AOT_stimuli/rescaled_final/1743_rv.mp4	0.0	133.70650696754456	
20	115.8096239566803	pulse	1	t		18.0	2.5	/experiments/knapen_AOT/AOT_stimuli/rescaled_final/1743_rv.mp4	0.0	135.3146049976349	
20	115.92573881149292	fix_post	2		12	18.0	2.5	/experiments/knapen_AOT/AOT_stimuli/rescaled_final/1743_rv.mp4	0.0	135.4307198524475	0.0999300479888916
21	116.02566885948181	fix_pre	0		120	19.0	2.5	/experiments/knapen_AOT/AOT_stimuli/rescaled_final/1812_fw.mp4	0.0	135.5306499004364	1.00006103515625
21	117.02572989463806	movie	1		242	19.0	2.5	/experiments/knapen_AOT/AOT_stimuli/rescaled_final/1812_fw.mp4	0.0	136.53071093559265	2.492074966430664
21	117.40979599952698	pulse	1	t		19.0	2.5	/experiments/knapen_AOT/AOT_stimuli/rescaled_final/1812_fw.mp4	0.0	136.91477704048157	
21	119.00128698348999	pulse	1	t		19.0	2.5	/experiments/knapen_AOT/AOT_stimuli/rescaled_final/1812_fw.mp4	0.0	138.50626802444458	
21	119.51780486106873	fix_post	2		12	19.0	2.5	/experiments/knapen_AOT/AOT_stimuli/rescaled_final/1812_fw.mp4	0.0	139.02278590202332	0.10000896453857422
22	119.6178138256073	fix_pre	0		119	20.0	2.5	/experiments/knapen_AOT/AOT_stimuli/rescaled_final/1631_fw.mp4	0.0	139.1227948665619	0.9918270111083984
22	120.60136985778809	pulse	0	t		20.0	2.5	/experiments/knapen_AOT/AOT_stimuli/rescaled_final/1631_fw.mp4	0.0	140.10635089874268	
22	120.6096408367157	movie	1		243	20.0	2.5	/experiments/knapen_AOT/AOT_stimuli/rescaled_final/1631_fw.mp4	0.0	140.1146218776703	2.5086729526519775
22	122.2030348777771	pulse	1	t		20.0	2.5	/experiments/knapen_AOT/AOT_stimuli/rescaled_final/1631_fw.mp4	0.0	141.7080159187317	
22	123.11831378936768	fix_post	2		12	20.0	2.5	/experiments/knapen_AOT/AOT_stimuli/rescaled_final/1631_fw.mp4	0.0	142.62329483032227	0.10008120536804199
23	123.21839499473572	fix_pre	0		120	21.0	2.5	blank	1.0	142.7233760356903	1.000152826309204
23	123.80209994316101	pulse	0	t		21.0	2.5	blank	1.0	143.3070809841156	
23	124.21854782104492	movie	1		300	21.0	2.5	blank	1.0	143.7235288619995	2.500336170196533
23	125.40220785140991	pulse	1	t		21.0	2.5	blank	1.0	144.9071888923645	
23	126.71888399124146	fix_post	2		12	21.0	2.5	blank	1.0	146.22386503219604	0.1000058650970459
24	126.8188898563385	fix_pre	0		120	22.0	2.5	/experiments/knapen_AOT/AOT_stimuli/rescaled_final/0566_fw.mp4	0.0	146.3238708972931	1.0001089572906494
24	127.00239181518555	pulse	0	t		22.0	2.5	/experiments/knapen_AOT/AOT_stimuli/rescaled_final/0566_fw.mp4	0.0	146.50737285614014	
24	127.81899881362915	movie	1		242	22.0	2.5	/experiments/knapen_AOT/AOT_stimuli/rescaled_final/0566_fw.mp4	0.0	147.32397985458374	2.500452995300293
24	128.60263991355896	pulse	1	t		22.0	2.5	/experiments/knapen_AOT/AOT_stimuli/rescaled_final/0566_fw.mp4	0.0	148.10762095451355	
24	130.20260787010193	pulse	1	t		22.0	2.5	/experiments/knapen_AOT/AOT_stimuli/rescaled_final/0566_fw.mp4	0.0	149.70758891105652	
24	130.31945180892944	fix_post	2		12	22.0	2.5	/experiments/knapen_AOT/AOT_stimuli/rescaled_final/0566_fw.mp4	0.0	149.82443284988403	0.09998798370361328
25	130.41943979263306	fix_pre	0		119	23.0	2.5	/experiments/knapen_AOT/AOT_stimuli/rescaled_final/0515_fw.mp4	0.0	149.92442083358765	0.9917840957641602
25	131.41122388839722	movie	1		238	23.0	2.5	/experiments/knapen_AOT/AOT_stimuli/rescaled_final/0515_fw.mp4	0.0	150.9162049293518	2.500485897064209
25	131.80319595336914	pulse	1	t		23.0	2.5	/experiments/knapen_AOT/AOT_stimuli/rescaled_final/0515_fw.mp4	0.0	151.30817699432373	
25	133.40335083007812	pulse	1	t		23.0	2.5	/experiments/knapen_AOT/AOT_stimuli/rescaled_final/0515_fw.mp4	0.0	152.90833187103271	
25	133.91170978546143	fix_post	2		12	23.0	2.5	/experiments/knapen_AOT/AOT_stimuli/rescaled_final/0515_fw.mp4	0.0	153.41669082641602	0.10002422332763672
26	134.01173400878906	fix_pre	0		120	24.0	2.5	/experiments/knapen_AOT/AOT_stimuli/rescaled_final/0746_rv.mp4	0.0	153.51671504974365	1.0000498294830322
26	135.00355887413025	pulse	0	t		24.0	2.5	/experiments/knapen_AOT/AOT_stimuli/rescaled_final/0746_rv.mp4	0.0	154.50853991508484	
26	135.0117838382721	movie	1		244	24.0	2.5	/experiments/knapen_AOT/AOT_stimuli/rescaled_final/0746_rv.mp4	0.0	154.51676487922668	2.5086770057678223
26	136.6043620109558	pulse	1	t		24.0	2.5	/experiments/knapen_AOT/AOT_stimuli/rescaled_final/0746_rv.mp4	0.0	156.1093430519104	
26	137.52046084403992	fix_post	2		12	24.0	2.5	/experiments/knapen_AOT/AOT_stimuli/rescaled_final/0746_rv.mp4	0.0	157.0254418849945	0.10003995895385742
27	137.62050080299377	fix_pre	0		120	25.0	2.5	/experiments/knapen_AOT/AOT_stimuli/rescaled_final/0132_fw.mp4	0.0	157.12548184394836	1.0001230239868164
27	138.20411896705627	pulse	0	t		25.0	2.5	/experiments/knapen_AOT/AOT_stimuli/rescaled_final/0132_fw.mp4	0.0	157.70910000801086	
27	138.6206238269806	movie	1		243	25.0	2.5	/experiments/knapen_AOT/AOT_stimuli/rescaled_final/0132_fw.mp4	0.0	158.12560486793518	2.500378131866455
27	139.80438685417175	pulse	1	t		25.0	2.5	/experiments/knapen_AOT/AOT_stimuli/rescaled_final/0132_fw.mp4	0.0	159.30936789512634	
27	141.12100195884705	fix_post	2		12	25.0	2.5	/experiments/knapen_AOT/AOT_stimuli/rescaled_final/0132_fw.mp4	0.0	160.62598299980164	0.1000368595123291
28	141.22103881835938	fix_pre	0		120	26.0	2.5	/experiments/knapen_AOT/AOT_stimuli/rescaled_final/1680_rv.mp4	0.0	160.72601985931396	1.0001211166381836
28	141.4046859741211	pulse	0	t		26.0	2.5	/experiments/knapen_AOT/AOT_stimuli/rescaled_final/1680_rv.mp4	0.0	160.90966701507568	
28	142.22115993499756	movie	1		242	26.0	2.5	/experiments/knapen_AOT/AOT_stimuli/rescaled_final/1680_rv.mp4	0.0	161.72614097595215	2.5004520416259766
28	143.00479793548584	pulse	1	t		26.0	2.5	/experiments/knapen_AOT/AOT_stimuli/rescaled_final/1680_rv.mp4	0.0	162.50977897644043	
28	144.605614900589	pulse	1	t		26.0	2.5	/experiments/knapen_AOT/AOT_stimuli/rescaled_final/1680_rv.mp4	0.0	164.11059594154358	
28	144.72161197662354	fix_post	2		12	26.0	2.5	/experiments/knapen_AOT/AOT_stimuli/rescaled_final/1680_rv.mp4	0.0	164.22659301757812	0.09995889663696289
29	144.8215708732605	fix_pre	0		120	27.0	2.5	/experiments/knapen_AOT/AOT_stimuli/rescaled_final/2088_fw.mp4	0.0	164.3265519142151	1.000251054763794
29	145.8218219280243	movie	1		241	27.0	2.5	/experiments/knapen_AOT/AOT_stimuli/rescaled_final/2088_fw.mp4	0.0	165.32680296897888	2.4921109676361084
29	146.2061538696289	pulse	1	t		27.0	2.5	/experiments/knapen_AOT/AOT_stimuli/rescaled_final/2088_fw.mp4	0.0	165.7111349105835	
29	147.80564999580383	pulse	1	t		27.0	2.5	/experiments/knapen_AOT/AOT_stimuli/rescaled_final/2088_fw.mp4	0.0	167.31063103675842	
29	148.3139328956604	fix_post	2		12	27.0	2.5	/experiments/knapen_AOT/AOT_stimuli/rescaled_final/2088_fw.mp4	0.0	167.818913936615	0.09992408752441406
30	148.41385698318481	fix_pre	0		120	28.0	2.5	blank	1.0	167.9188380241394	1.0000278949737549
30	149.40570783615112	pulse	0	t		28.0	2.5	blank	1.0	168.9106888771057	
30	149.41388487815857	movie	1		301	28.0	2.5	blank	1.0	168.91886591911316	2.508769989013672
30	151.0061399936676	pulse	1	t		28.0	2.5	blank	1.0	170.5111210346222	
30	151.92265486717224	fix_post	2		12	28.0	2.5	blank	1.0	171.42763590812683	0.09999394416809082
31	152.02264881134033	fix_pre	0		120	29.0	2.5	/experiments/knapen_AOT/AOT_stimuli/rescaled_final/0765_rv.mp4	0.0	171.52762985229492	1.0001351833343506
31	152.60625290870667	pulse	0	t		29.0	2.5	/experiments/knapen_AOT/AOT_stimuli/rescaled_final/0765_rv.mp4	0.0	172.11123394966125	
31	153.02278399467468	movie	1		245	29.0	2.5	/experiments/knapen_AOT/AOT_stimuli/rescaled_final/0765_rv.mp4	0.0	172.52776503562927	2.500370979309082
31	154.20656490325928	pulse	1	t		29.0	2.5	/experiments/knapen_AOT/AOT_stimuli/rescaled_final/0765_rv.mp4	0.0	173.71154594421387	
31	155.52315497398376	fix_post	2		12	29.0	2.5	/experiments/knapen_AOT/AOT_stimuli/rescaled_final/0765_rv.mp4	0.0	175.02813601493835	0.09999895095825195
32	155.62315392494202	fix_pre	0		120	30.0	2.5	/experiments/knapen_AOT/AOT_stimuli/rescaled_final/0910_fw.mp4	0.0	175.1281349658966	1.0002319812774658
32	155.80691599845886	pulse	0	t		30.0	2.5	/experiments/knapen_AOT/AOT_stimuli/rescaled_final/0910_fw.mp4	0.0	175.31189703941345	
32	156.62338590621948	movie	1		242	30.0	2.5	/experiments/knapen_AOT/AOT_stimuli/rescaled_final/0910_fw.mp4	0.0	176.12836694717407	2.5003271102905273
32	157.4069709777832	pulse	1	t		30.0	2.5	/experiments/knapen_AOT/AOT_stimuli/rescaled_final/0910_fw.mp4	0.0	176.9119520187378	
32	159.00794196128845	pulse	1	t		30.0	2.5	/experiments/knapen_AOT/AOT_stimuli/rescaled_final/0910_fw.mp4	0.0	178.51292300224304	
32	159.12371301651	fix_post	2		12	30.0	2.5	/experiments/knapen_AOT/AOT_stimuli/rescaled_final/0910_fw.mp4	0.0	178.6286940574646	0.09999299049377441
33	159.22370600700378	fix_pre	0		120	31.0	2.5	/experiments/knapen_AOT/AOT_stimuli/rescaled_final/1263_rv.mp4	0.0	178.72868704795837	1.0002717971801758
33	160.22397780418396	movie	1		242	31.0	2.5	/experiments/knapen_AOT/AOT_stimuli/rescaled_final/1263_rv.mp4	0.0	179.72895884513855	2.492011070251465
33	160.60794496536255	pulse	1	t		31.0	2.5	/experiments/knapen_AOT/AOT_stimuli/rescaled_final/1263_rv.mp4	0.0	180.11292600631714	
33	162.20771098136902	pulse	1	t		31.0	2.5	/experiments/knapen_AOT/AOT_stimuli/rescaled_final/1263_rv.mp4	0.0	181.7126920223236	
33	162.71598887443542	fix_post	2		12	31.0	2.5	/experiments/knapen_AOT/AOT_stimuli/rescaled_final/1263_rv.mp4	0.0	182.22096991539001	0.09997010231018066
34	162.8159589767456	fix_pre	0		120	32.0	2.5	/experiments/knapen_AOT/AOT_stimuli/rescaled_final/1079_rv.mp4	0.0	182.3209400177002	1.0000929832458496
34	163.80792999267578	pulse	0	t		32.0	2.5	/experiments/knapen_AOT/AOT_stimuli/rescaled_final/1079_rv.mp4	0.0	183.31291103363037	
34	163.81605195999146	movie	1		243	32.0	2.5	/experiments/knapen_AOT/AOT_stimuli/rescaled_final/1079_rv.mp4	0.0	183.32103300094604	2.5087509155273438
34	165.4089798927307	pulse	1	t		32.0	2.5	/experiments/knapen_AOT/AOT_stimuli/rescaled_final/1079_rv.mp4	0.0	184.9139609336853	
34	166.3248028755188	fix_post	2		12	32.0	2.5	/experiments/knapen_AOT/AOT_stimuli/rescaled_final/1079_rv.mp4	0.0	185.8297839164734	0.10001707077026367
35	166.42481994628906	fix_pre	0		120	33.0	2.5	/experiments/knapen_AOT/AOT_stimuli/rescaled_final/1065_rv.mp4	0.0	185.92980098724365	1.0001189708709717
35	167.00842690467834	pulse	0	t		33.0	2.5	/experiments/knapen_AOT/AOT_stimuli/rescaled_final/1065_rv.mp4	0.0	186.51340794563293	
35	167.42493891716003	movie	1		243	33.0	2.5	/experiments/knapen_AOT/AOT_stimuli/rescaled_final/1065_rv.mp4	0.0	186.92991995811462	2.5005099773406982
35	168.60876393318176	pulse	1	t		33.0	2.5	/experiments/knapen_AOT/AOT_stimuli/rescaled_final/1065_rv.mp4	0.0	188.11374497413635	
35	169.92544889450073	fix_post	2		12	33.0	2.5	/experiments/knapen_AOT/AOT_stimuli/rescaled_final/1065_rv.mp4	0.0	189.43042993545532	0.09989309310913086
36	170.02534198760986	fix_pre	0		120	34.0	2.5	/experiments/knapen_AOT/AOT_stimuli/rescaled_final/1465_fw.mp4	0.0	189.53032302856445	1.0001850128173828
36	170.2089159488678	pulse	0	t		34.0	2.5	/experiments/knapen_AOT/AOT_stimuli/rescaled_final/1465_fw.mp4	0.0	189.7138969898224	
36	171.02552700042725	movie	1		243	34.0	2.5	/experiments/knapen_AOT/AOT_stimuli/rescaled_final/1465_fw.mp4	0.0	190.53050804138184	2.5003318786621094
36	171.80188179016113	pulse	1	t		34.0	2.5	/experiments/knapen_AOT/AOT_stimuli/rescaled_final/1465_fw.mp4	0.0	191.30686283111572	
36	173.40924501419067	pulse	1	t		34.0	2.5	/experiments/knapen_AOT/AOT_stimuli/rescaled_final/1465_fw.mp4	0.0	192.91422605514526	
36	173.52585887908936	fix_post	2		12	34.0	2.5	/experiments/knapen_AOT/AOT_stimuli/rescaled_final/1465_fw.mp4	0.0	193.03083992004395	0.10000801086425781
37	173.6258668899536	fix_pre	0		120	35.0	2.5	blank	1.0	193.1308479309082	1.000119924545288
37	174.6259868144989	movie	1		299	35.0	2.5	blank	1.0	194.1309678554535	2.4920401573181152
37	175.00205087661743	pulse	1	t		35.0	2.5	blank	1.0	194.50703191757202	
37	176.60232090950012	pulse	1	t		35.0	2.5	blank	1.0	196.1073019504547	
37	177.11802697181702	fix_post	2		12	35.0	2.5	blank	1.0	196.6230080127716	0.09999299049377441
38	177.2180199623108	fix_pre	0		120	36.0	2.5	/experiments/knapen_AOT/AOT_stimuli/rescaled_final/1273_rv.mp4	0.0	196.72300100326538	1.0001740455627441
38	178.20243883132935	pulse	0	t		36.0	2.5	/experiments/knapen_AOT/AOT_stimuli/rescaled_final/1273_rv.mp4	0.0	197.70741987228394	
38	178.21819400787354	movie	1		245	36.0	2.5	/experiments/knapen_AOT/AOT_stimuli/rescaled_final/1273_rv.mp4	0.0	197.72317504882812	2.50876784324646
38	179.80193996429443	pulse	1	t		36.0	2.5	/experiments/knapen_AOT/AOT_stimuli/rescaled_final/1273_rv.mp4	0.0	199.30692100524902	
38	180.72696185112	fix_post	2		12	36.0	2.5	/experiments/knapen_AOT/AOT_stimuli/rescaled_final/1273_rv.mp4	0.0	200.23194289207458	0.09996294975280762
39	180.8269248008728	fix_pre	0		120	37.0	2.5	/experiments/knapen_AOT/AOT_stimuli/rescaled_final/0566_rv.mp4	0.0	200.3319058418274	1.000143051147461
39	181.40216898918152	pulse	0	t		37.0	2.5	/experiments/knapen_AOT/AOT_stimuli/rescaled_final/0566_rv.mp4	0.0	200.9071500301361	
39	181.82706785202026	movie	1		242	37.0	2.5	/experiments/knapen_AOT/AOT_stimuli/rescaled_final/0566_rv.mp4	0.0	201.33204889297485	2.500519037246704
39	183.00368690490723	pulse	1	t		37.0	2.5	/experiments/knapen_AOT/AOT_stimuli/rescaled_final/0566_rv.mp4	0.0	202.50866794586182	
39	184.32758688926697	fix_post	2		12	37.0	2.5	/experiments/knapen_AOT/AOT_stimuli/rescaled_final/0566_rv.mp4	0.0	203.83256793022156	0.09991312026977539
40	184.42750000953674	fix_pre	0		120	38.0	2.5	/experiments/knapen_AOT/AOT_stimuli/rescaled_final/1153_rv.mp4	0.0	203.93248105049133	1.000173807144165
40	184.60267782211304	pulse	0	t		38.0	2.5	/experiments/knapen_AOT/AOT_stimuli/rescaled_final/1153_rv.mp4	0.0	204.10765886306763	
40	185.4276738166809	movie	1		242	38.0	2.5	/experiments/knapen_AOT/AOT_stimuli/rescaled_final/1153_rv.mp4	0.0	204.9326548576355	2.492110013961792
40	186.20299983024597	pulse	1	t		38.0	2.5	/experiments/knapen_AOT/AOT_stimuli/rescaled_final/1153_rv.mp4	0.0	205.70798087120056	
40	187.80317783355713	pulse	1	t		38.0	2.5	/experiments/knapen_AOT/AOT_stimuli/rescaled_final/1153_rv.mp4	0.0	207.30815887451172	
40	187.9197838306427	fix_post	2		12	38.0	2.5	/experiments/knapen_AOT/AOT_stimuli/rescaled_final/1153_rv.mp4	0.0	207.4247648715973	0.0999150276184082
41	188.0196988582611	fix_pre	0		120	39.0	2.5	/experiments/knapen_AOT/AOT_stimuli/rescaled_final/0746_fw.mp4	0.0	207.5246798992157	1.000128984451294
41	189.0198278427124	movie	1		243	39.0	2.5	/experiments/knapen_AOT/AOT_stimuli/rescaled_final/0746_fw.mp4	0.0	208.524808883667	2.500408172607422
41	189.4046459197998	pulse	1	t		39.0	2.5	/experiments/knapen_AOT/AOT_stimuli/rescaled_final/0746_fw.mp4	0.0	208.9096269607544	
41	191.00368189811707	pulse	1	t		39.0	2.5	/experiments/knapen_AOT/AOT_stimuli/rescaled_final/0746_fw.mp4	0.0	210.50866293907166	
41	191.52023601531982	fix_post	2		12	39.0	2.5	/experiments/knapen_AOT/AOT_stimuli/rescaled_final/0746_fw.mp4	0.0	211.0252170562744	0.10000395774841309
42	191.62023997306824	fix_pre	0		119	40.0	2.5	blank	1.0	211.12522101402283	0.9917588233947754
42	192.6039719581604	pulse	0	t		40.0	2.5	blank	1.0	212.108952999115	
42	192.611998796463	movie	1		300	40.0	2.5	blank	1.0	212.1169798374176	2.508782148361206
42	194.2041368484497	pulse	1	t		40.0	2.5	blank	1.0	213.7091178894043	
42	195.12078094482422	fix_post	2		12	40.0	2.5	blank	1.0	214.6257619857788	0.10000300407409668
43	195.22078394889832	fix_pre	0		120	41.0	2.5	/experiments/knapen_AOT/AOT_stimuli/rescaled_final/0356_fw.mp4	0.0	214.7257649898529	1.000108003616333
43	195.80428886413574	pulse	0	t		41.0	2.5	/experiments/knapen_AOT/AOT_stimuli/rescaled_final/0356_fw.mp4	0.0	215.30926990509033	
43	196.22089195251465	movie	1		242	41.0	2.5	/experiments/knapen_AOT/AOT_stimuli/rescaled_final/0356_fw.mp4	0.0	215.72587299346924	2.5004148483276367
43	197.4047830104828	pulse	1	t		41.0	2.5	/experiments/knapen_AOT/AOT_stimuli/rescaled_final/0356_fw.mp4	0.0	216.90976405143738	
43	198.72130680084229	fix_post	2		12	41.0	2.5	/experiments/knapen_AOT/AOT_stimuli/rescaled_final/0356_fw.mp4	0.0	218.22628784179688	0.10004305839538574
44	198.82134985923767	fix_pre	0		120	42.0	2.5	/experiments/knapen_AOT/AOT_stimuli/rescaled_final/0768_rv.mp4	0.0	218.32633090019226	1.0001280307769775
44	199.00496196746826	pulse	0	t		42.0	2.5	/experiments/knapen_AOT/AOT_stimuli/rescaled_final/0768_rv.mp4	0.0	218.50994300842285	
44	199.82147789001465	movie	1		243	42.0	2.5	/experiments/knapen_AOT/AOT_stimuli/rescaled_final/0768_rv.mp4	0.0	219.32645893096924	2.500417947769165
44	200.6051869392395	pulse	1	t		42.0	2.5	/experiments/knapen_AOT/AOT_stimuli/rescaled_final/0768_rv.mp4	0.0	220.1101679801941	
44	202.20516395568848	pulse	1	t		42.0	2.5	/experiments/knapen_AOT/AOT_stimuli/rescaled_final/0768_rv.mp4	0.0	221.71014499664307	
44	202.3218958377838	fix_post	2		12	42.0	2.5	/experiments/knapen_AOT/AOT_stimuli/rescaled_final/0768_rv.mp4	0.0	221.8268768787384	0.09992313385009766
45	202.4218189716339	fix_pre	0		120	43.0	2.5	/experiments/knapen_AOT/AOT_stimuli/rescaled_final/0906_rv.mp4	0.0	221.9268000125885	1.0001318454742432
45	203.42195081710815	movie	1		244	43.0	2.5	/experiments/knapen_AOT/AOT_stimuli/rescaled_final/0906_rv.mp4	0.0	222.92693185806274	2.492056131362915
45	203.80599093437195	pulse	1	t		43.0	2.5	/experiments/knapen_AOT/AOT_stimuli/rescaled_final/0906_rv.mp4	0.0	223.31097197532654	
45	205.405916929245	pulse	1	t		43.0	2.5	/experiments/knapen_AOT/AOT_stimuli/rescaled_final/0906_rv.mp4	0.0	224.91089797019958	
45	205.91400694847107	fix_post	2		12	43.0	2.5	/experiments/knapen_AOT/AOT_stimuli/rescaled_final/0906_rv.mp4	0.0	225.41898798942566	0.0999908447265625
46	206.01399779319763	fix_pre	0		120	44.0	2.5	/experiments/knapen_AOT/AOT_stimuli/rescaled_final/1305_rv.mp4	0.0	225.51897883415222	1.0001699924468994
46	207.0061378479004	pulse	0	t		44.0	2.5	/experiments/knapen_AOT/AOT_stimuli/rescaled_final/1305_rv.mp4	0.0	226.51111888885498	
46	207.01416778564453	movie	1		244	44.0	2.5	/experiments/knapen_AOT/AOT_stimuli/rescaled_final/1305_rv.mp4	0.0	226.51914882659912	2.5087051391601562
46	208.6068558692932	pulse	1	t		44.0	2.5	/experiments/knapen_AOT/AOT_stimuli/rescaled_final/1305_rv.mp4	0.0	228.1118369102478	
46	209.5228729248047	fix_post	2		12	44.0	2.5	/experiments/knapen_AOT/AOT_stimuli/rescaled_final/1305_rv.mp4	0.0	229.02785396575928	0.10006093978881836
47	209.6229338645935	fix_pre	0		120	45.0	2.5	/experiments/knapen_AOT/AOT_stimuli/rescaled_final/1745_rv.mp4	0.0	229.1279149055481	1.0001001358032227
47	210.20657300949097	pulse	0	t		45.0	2.5	/experiments/knapen_AOT/AOT_stimuli/rescaled_final/1745_rv.mp4	0.0	229.71155405044556	
47	210.62303400039673	movie	1		242	45.0	2.5	/experiments/knapen_AOT/AOT_stimuli/rescaled_final/1745_rv.mp4	0.0	230.12801504135132	2.5005128383636475
47	211.80694389343262	pulse	1	t		45.0	2.5	/experiments/knapen_AOT/AOT_stimuli/rescaled_final/1745_rv.mp4	0.0	231.3119249343872	
47	213.12354683876038	fix_post	2		12	45.0	2.5	/experiments/knapen_AOT/AOT_stimuli/rescaled_final/1745_rv.mp4	0.0	232.62852787971497	0.0998990535736084
48	213.22344589233398	fix_pre	0		120	46.0	2.5	/experiments/knapen_AOT/AOT_stimuli/rescaled_final/1364_rv.mp4	0.0	232.72842693328857	1.0001769065856934
48	213.40708780288696	pulse	0	t		46.0	2.5	/experiments/knapen_AOT/AOT_stimuli/rescaled_final/1364_rv.mp4	0.0	232.91206884384155	
48	214.22362279891968	movie	1		242	46.0	2.5	/experiments/knapen_AOT/AOT_stimuli/rescaled_final/1364_rv.mp4	0.0	233.72860383987427	2.5004591941833496
48	215.00719690322876	pulse	1	t		46.0	2.5	/experiments/knapen_AOT/AOT_stimuli/rescaled_final/1364_rv.mp4	0.0	234.51217794418335	
48	216.60726690292358	pulse	1	t		46.0	2.5	/experiments/knapen_AOT/AOT_stimuli/rescaled_final/1364_rv.mp4	0.0	236.11224794387817	
48	216.72408199310303	fix_post	2		12	46.0	2.5	/experiments/knapen_AOT/AOT_stimuli/rescaled_final/1364_rv.mp4	0.0	236.22906303405762	0.09988594055175781
49	216.82396793365479	fix_pre	0		120	47.0	2.5	/experiments/knapen_AOT/AOT_stimuli/rescaled_final/0727_fw.mp4	0.0	236.32894897460938	1.000133991241455
49	217.82410192489624	movie	1		244	47.0	2.5	/experiments/knapen_AOT/AOT_stimuli/rescaled_final/0727_fw.mp4	0.0	237.32908296585083	2.4920549392700195
49	218.2082109451294	pulse	1	t		47.0	2.5	/experiments/knapen_AOT/AOT_stimuli/rescaled_final/0727_fw.mp4	0.0	237.71319198608398	
49	219.80799198150635	pulse	1	t		47.0	2.5	/experiments/knapen_AOT/AOT_stimuli/rescaled_final/0727_fw.mp4	0.0	239.31297302246094	
49	220.31615686416626	fix_post	2		12	47.0	2.5	/experiments/knapen_AOT/AOT_stimuli/rescaled_final/0727_fw.mp4	0.0	239.82113790512085	0.10003209114074707
50	220.416188955307	fix_pre	0		120	48.0	2.5	/experiments/knapen_AOT/AOT_stimuli/rescaled_final/0297_fw.mp4	0.0	239.9211699962616	1.000143051147461
50	221.40819096565247	pulse	0	t		48.0	2.5	/experiments/knapen_AOT/AOT_stimuli/rescaled_final/0297_fw.mp4	0.0	240.91317200660706	
50	221.41633200645447	movie	1		244	48.0	2.5	/experiments/knapen_AOT/AOT_stimuli/rescaled_final/0297_fw.mp4	0.0	240.92131304740906	2.508683919906616
50	223.00965785980225	pulse	1	t		48.0	2.5	/experiments/knapen_AOT/AOT_stimuli/rescaled_final/0297_fw.mp4	0.0	242.51463890075684	
50	223.92501592636108	fix_post	2		12	48.0	2.5	/experiments/knapen_AOT/AOT_stimuli/rescaled_final/0297_fw.mp4	0.0	243.42999696731567	0.10000896453857422
51	224.02502489089966	fix_pre	0		120	49.0	2.5	blank	1.0	243.53000593185425	1.0001659393310547
51	224.6086368560791	pulse	0	t		49.0	2.5	blank	1.0	244.1136178970337	
51	225.0251908302307	movie	1		300	49.0	2.5	blank	1.0	244.5301718711853	2.5004220008850098
51	226.20138502120972	pulse	1	t		49.0	2.5	blank	1.0	245.7063660621643	
51	227.52561283111572	fix_post	2		12	49.0	2.5	blank	1.0	247.0305938720703	0.0999760627746582
52	227.62558889389038	fix_pre	0		120	50.0	2.5	/experiments/knapen_AOT/AOT_stimuli/rescaled_final/0222_fw.mp4	0.0	247.13056993484497	1.0001308917999268
52	227.80159497261047	pulse	0	t		50.0	2.5	/experiments/knapen_AOT/AOT_stimuli/rescaled_final/0222_fw.mp4	0.0	247.30657601356506	
52	228.6257197856903	movie	1		243	50.0	2.5	/experiments/knapen_AOT/AOT_stimuli/rescaled_final/0222_fw.mp4	0.0	248.1307008266449	2.50045108795166
52	229.40208196640015	pulse	1	t		50.0	2.5	/experiments/knapen_AOT/AOT_stimuli/rescaled_final/0222_fw.mp4	0.0	248.90706300735474	
52	231.00943398475647	pulse	1	t		50.0	2.5	/experiments/knapen_AOT/AOT_stimuli/rescaled_final/0222_fw.mp4	0.0	250.51441502571106	
52	231.12617087364197	fix_post	2		12	50.0	2.5	/experiments/knapen_AOT/AOT_stimuli/rescaled_final/0222_fw.mp4	0.0	250.63115191459656	0.0999460220336914
53	231.22611689567566	fix_pre	0		120	51.0	2.5	/experiments/knapen_AOT/AOT_stimuli/rescaled_final/1711_rv.mp4	0.0	250.73109793663025	1.0001580715179443
53	232.2262749671936	movie	1		242	51.0	2.5	/experiments/knapen_AOT/AOT_stimuli/rescaled_final/1711_rv.mp4	0.0	251.7312560081482	2.4920878410339355
53	232.6014518737793	pulse	1	t		51.0	2.5	/experiments/knapen_AOT/AOT_stimuli/rescaled_final/1711_rv.mp4	0.0	252.1064329147339	
53	234.20180296897888	pulse	1	t		51.0	2.5	/experiments/knapen_AOT/AOT_stimuli/rescaled_final/1711_rv.mp4	0.0	253.70678400993347	
53	234.71836280822754	fix_post	2		12	51.0	2.5	/experiments/knapen_AOT/AOT_stimuli/rescaled_final/1711_rv.mp4	0.0	254.22334384918213	0.09999704360961914
54	234.81835985183716	fix_pre	0		119	52.0	2.5	/experiments/knapen_AOT/AOT_stimuli/rescaled_final/1126_fw.mp4	0.0	254.32334089279175	0.9917540550231934
54	235.80201482772827	pulse	0	t		52.0	2.5	/experiments/knapen_AOT/AOT_stimuli/rescaled_final/1126_fw.mp4	0.0	255.30699586868286	
54	235.81011390686035	movie	1		245	52.0	2.5	/experiments/knapen_AOT/AOT_stimuli/rescaled_final/1126_fw.mp4	0.0	255.31509494781494	2.508754014968872
54	237.40299892425537	pulse	1	t		52.0	2.5	/experiments/knapen_AOT/AOT_stimuli/rescaled_final/1126_fw.mp4	0.0	256.90797996520996	
54	238.31886792182922	fix_post	2		12	52.0	2.5	/experiments/knapen_AOT/AOT_stimuli/rescaled_final/1126_fw.mp4	0.0	257.8238489627838	0.10001587867736816
55	238.4188838005066	fix_pre	0		120	53.0	2.5	/experiments/knapen_AOT/AOT_stimuli/rescaled_final/1567_fw.mp4	0.0	257.9238648414612	1.0000941753387451
55	239.0024378299713	pulse	0	t		53.0	2.5	/experiments/knapen_AOT/AOT_stimuli/rescaled_final/1567_fw.mp4	0.0	258.5074188709259	
55	239.41897797584534	movie	1		243	53.0	2.5	/experiments/knapen_AOT/AOT_stimuli/rescaled_final/1567_fw.mp4	0.0	258.9239590167999	2.5004398822784424
55	240.6028687953949	pulse	1	t		53.0	2.5	/experiments/knapen_AOT/AOT_stimuli/rescaled_final/1567_fw.mp4	0.0	260.1078498363495	
55	241.91941785812378	fix_post	2		12	53.0	2.5	/experiments/knapen_AOT/AOT_stimuli/rescaled_final/1567_fw.mp4	0.0	261.42439889907837	0.09998011589050293
56	242.01939797401428	fix_pre	0		120	54.0	2.5	/experiments/knapen_AOT/AOT_stimuli/rescaled_final/0557_rv.mp4	0.0	261.5243790149689	1.0001089572906494
56	242.2029948234558	pulse	0	t		54.0	2.5	/experiments/knapen_AOT/AOT_stimuli/rescaled_final/0557_rv.mp4	0.0	261.7079758644104	
56	243.01950693130493	movie	1		243	54.0	2.5	/experiments/knapen_AOT/AOT_stimuli/rescaled_final/0557_rv.mp4	0.0	262.5244879722595	2.5004210472106934
56	243.8032009601593	pulse	1	t		54.0	2.5	/experiments/knapen_AOT/AOT_stimuli/rescaled_final/0557_rv.mp4	0.0	263.3081820011139	
56	245.40328001976013	pulse	1	t		54.0	2.5	/experiments/knapen_AOT/AOT_stimuli/rescaled_final/0557_rv.mp4	0.0	264.9082610607147	
56	245.51992797851562	fix_post	2		12	54.0	2.5	/experiments/knapen_AOT/AOT_stimuli/rescaled_final/0557_rv.mp4	0.0	265.0249090194702	0.10001802444458008
57	245.6199460029602	fix_pre	0		120	55.0	2.5	blank	1.0	265.1249270439148	1.00010085105896
57	246.62004685401917	movie	1		299	55.0	2.5	blank	1.0	266.12502789497375	2.492061138153076
57	247.00375390052795	pulse	1	t		55.0	2.5	blank	1.0	266.50873494148254	
57	248.60395288467407	pulse	1	t		55.0	2.5	blank	1.0	268.10893392562866	
57	249.11210799217224	fix_post	2		12	55.0	2.5	blank	1.0	268.61708903312683	0.10000896453857422
58	249.21211695671082	fix_pre	0		120	56.0	2.5	/experiments/knapen_AOT/AOT_stimuli/rescaled_final/0354_rv.mp4	0.0	268.7170979976654	1.0001888275146484
58	250.2041449546814	pulse	0	t		56.0	2.5	/experiments/knapen_AOT/AOT_stimuli/rescaled_final/0354_rv.mp4	0.0	269.709125995636	
58	250.21230578422546	movie	1		244	56.0	2.5	/experiments/knapen_AOT/AOT_stimuli/rescaled_final/0354_rv.mp4	0.0	269.71728682518005	2.508664131164551
58	251.80572080612183	pulse	1	t		56.0	2.5	/experiments/knapen_AOT/AOT_stimuli/rescaled_final/0354_rv.mp4	0.0	271.3107018470764	
58	252.72096991539001	fix_post	2		12	56.0	2.5	/experiments/knapen_AOT/AOT_stimuli/rescaled_final/0354_rv.mp4	0.0	272.2259509563446	0.10004496574401855
59	252.82101488113403	fix_pre	0		120	57.0	2.5	/experiments/knapen_AOT/AOT_stimuli/rescaled_final/1963_fw.mp4	0.0	272.3259959220886	1.0001471042633057
59	253.40473079681396	pulse	0	t		57.0	2.5	/experiments/knapen_AOT/AOT_stimuli/rescaled_final/1963_fw.mp4	0.0	272.90971183776855	
59	253.82116198539734	movie	1		240	57.0	2.5	/experiments/knapen_AOT/AOT_stimuli/rescaled_final/1963_fw.mp4	0.0	273.32614302635193	2.500379800796509
59	255.00497484207153	pulse	1	t		57.0	2.5	/experiments/knapen_AOT/AOT_stimuli/rescaled_final/1963_fw.mp4	0.0	274.5099558830261	
59	256.32154178619385	fix_post	2		12	57.0	2.5	/experiments/knapen_AOT/AOT_stimuli/rescaled_final/1963_fw.mp4	0.0	275.82652282714844	0.10003209114074707
60	256.4215738773346	fix_pre	0		120	58.0	2.5	/experiments/knapen_AOT/AOT_stimuli/rescaled_final/0142_fw.mp4	0.0	275.9265549182892	1.0000951290130615
60	256.60514783859253	pulse	0	t		58.0	2.5	/experiments/knapen_AOT/AOT_stimuli/rescaled_final/0142_fw.mp4	0.0	276.1101288795471	
60	257.42166900634766	movie	1		244	58.0	2.5	/experiments/knapen_AOT/AOT_stimuli/rescaled_final/0142_fw.mp4	0.0	276.92665004730225	2.500405788421631
60	258.20543098449707	pulse	1	t		58.0	2.5	/experiments/knapen_AOT/AOT_stimuli/rescaled_final/0142_fw.mp4	0.0	277.71041202545166	
60	259.80552792549133	pulse	1	t		58.0	2.5	/experiments/knapen_AOT/AOT_stimuli/rescaled_final/0142_fw.mp4	0.0	279.3105089664459	
60	259.9220747947693	fix_post	2		12	58.0	2.5	/experiments/knapen_AOT/AOT_stimuli/rescaled_final/0142_fw.mp4	0.0	279.4270558357239	0.09998703002929688
61	260.0220618247986	fix_pre	0		120	59.0	2.5	/experiments/knapen_AOT/AOT_stimuli/rescaled_final/0370_rv.mp4	0.0	279.5270428657532	1.0002591609954834
61	261.02232098579407	movie	1		242	59.0	2.5	/experiments/knapen_AOT/AOT_stimuli/rescaled_final/0370_rv.mp4	0.0	280.52730202674866	2.4920928478240967
61	261.4061508178711	pulse	1	t		59.0	2.5	/experiments/knapen_AOT/AOT_stimuli/rescaled_final/0370_rv.mp4	0.0	280.9111318588257	
61	263.00607991218567	pulse	1	t		59.0	2.5	/experiments/knapen_AOT/AOT_stimuli/rescaled_final/0370_rv.mp4	0.0	282.51106095314026	
61	263.51441383361816	fix_post	2		12	59.0	2.5	/experiments/knapen_AOT/AOT_stimuli/rescaled_final/0370_rv.mp4	0.0	283.01939487457275	0.0999610424041748
62	263.61437487602234	fix_pre	0		120	60.0	2.5	/experiments/knapen_AOT/AOT_stimuli/rescaled_final/2043_fw.mp4	0.0	283.11935591697693	1.0000901222229004
62	264.6062150001526	pulse	0	t		60.0	2.5	/experiments/knapen_AOT/AOT_stimuli/rescaled_final/2043_fw.mp4	0.0	284.1111960411072	
62	264.61446499824524	movie	1		244	60.0	2.5	/experiments/knapen_AOT/AOT_stimuli/rescaled_final/2043_fw.mp4	0.0	284.11944603919983	2.5086889266967773
62	266.20786690711975	pulse	1	t		60.0	2.5	/experiments/knapen_AOT/AOT_stimuli/rescaled_final/2043_fw.mp4	0.0	285.71284794807434	
62	267.123153924942	fix_post	2		12	60.0	2.5	/experiments/knapen_AOT/AOT_stimuli/rescaled_final/2043_fw.mp4	0.0	286.6281349658966	0.09998297691345215
63	267.22313690185547	fix_pre	0		120	61.0	2.5	/experiments/knapen_AOT/AOT_stimuli/rescaled_final/1346_fw.mp4	0.0	286.72811794281006	1.0002350807189941
63	267.80689096450806	pulse	0	t		61.0	2.5	/experiments/knapen_AOT/AOT_stimuli/rescaled_final/1346_fw.mp4	0.0	287.31187200546265	
63	268.22337198257446	movie	1		242	61.0	2.5	/experiments/knapen_AOT/AOT_stimuli/rescaled_final/1346_fw.mp4	0.0	287.72835302352905	2.500485897064209
63	269.4026370048523	pulse	1	t		61.0	2.5	/experiments/knapen_AOT/AOT_stimuli/rescaled_final/1346_fw.mp4	0.0	288.9076180458069	
63	270.7238578796387	fix_post	2		12	61.0	2.5	/experiments/knapen_AOT/AOT_stimuli/rescaled_final/1346_fw.mp4	0.0	290.22883892059326	0.09987211227416992
64	270.82372999191284	fix_pre	0		120	62.0	2.5	blank	1.0	290.32871103286743	1.0001389980316162
64	271.007239818573	pulse	0	t		62.0	2.5	blank	1.0	290.5122208595276	
64	271.82386898994446	movie	1		300	62.0	2.5	blank	1.0	291.32885003089905	2.5003609657287598
64	272.6075088977814	pulse	1	t		62.0	2.5	blank	1.0	292.11248993873596	
64	274.20774698257446	pulse	1	t		62.0	2.5	blank	1.0	293.71272802352905	
64	274.3242299556732	fix_post	2		12	62.0	2.5	blank	1.0	293.8292109966278	0.1000359058380127
65	274.42426586151123	fix_pre	0		119	63.0	2.5	/experiments/knapen_AOT/AOT_stimuli/rescaled_final/1001_rv.mp4	0.0	293.9292469024658	0.9918050765991211
65	275.41607093811035	movie	1		243	63.0	2.5	/experiments/knapen_AOT/AOT_stimuli/rescaled_final/1001_rv.mp4	0.0	294.92105197906494	2.5004918575286865
65	275.80813479423523	pulse	1	t		63.0	2.5	/experiments/knapen_AOT/AOT_stimuli/rescaled_final/1001_rv.mp4	0.0	295.3131158351898	
65	277.40816497802734	pulse	1	t		63.0	2.5	/experiments/knapen_AOT/AOT_stimuli/rescaled_final/1001_rv.mp4	0.0	296.91314601898193	
65	277.91656279563904	fix_post	2		12	63.0	2.5	/experiments/knapen_AOT/AOT_stimuli/rescaled_final/1001_rv.mp4	0.0	297.4215438365936	0.09986209869384766
66	278.0164248943329	fix_pre	0		120	64.0	2.5	/experiments/knapen_AOT/AOT_stimuli/rescaled_final/2088_rv.mp4	0.0	297.5214059352875	1.0002460479736328
66	279.0084400177002	pulse	0	t		64.0	2.5	/experiments/knapen_AOT/AOT_stimuli/rescaled_final/2088_rv.mp4	0.0	298.5134210586548	
66	279.0166709423065	movie	1		245	64.0	2.5	/experiments/knapen_AOT/AOT_stimuli/rescaled_final/2088_rv.mp4	0.0	298.5216519832611	2.508702039718628
66	280.6090807914734	pulse	1	t		64.0	2.5	/experiments/knapen_AOT/AOT_stimuli/rescaled_final/2088_rv.mp4	0.0	300.114061832428	
66	281.52537298202515	fix_post	2		12	64.0	2.5	/experiments/knapen_AOT/AOT_stimuli/rescaled_final/2088_rv.mp4	0.0	301.03035402297974	0.09995698928833008
67	281.6253299713135	fix_pre	0		120	65.0	2.5	/experiments/knapen_AOT/AOT_stimuli/rescaled_final/0139_rv.mp4	0.0	301.13031101226807	1.0002198219299316
67	282.20899391174316	pulse	0	t		65.0	2.5	/experiments/knapen_AOT/AOT_stimuli/rescaled_final/0139_rv.mp4	0.0	301.71397495269775	
67	282.6255497932434	movie	1		242	65.0	2.5	/experiments/knapen_AOT/AOT_stimuli/rescaled_final/0139_rv.mp4	0.0	302.130530834198	2.500542163848877
67	283.80926489830017	pulse	1	t		65.0	2.5	/experiments/knapen_AOT/AOT_stimuli/rescaled_final/0139_rv.mp4	0.0	303.31424593925476	
67	285.1260919570923	fix_post	2		12	65.0	2.5	/experiments/knapen_AOT/AOT_stimuli/rescaled_final/0139_rv.mp4	0.0	304.6310729980469	0.09981799125671387
68	285.225909948349	fix_pre	0		120	66.0	2.5	/experiments/knapen_AOT/AOT_stimuli/rescaled_final/1321_rv.mp4	0.0	304.7308909893036	1.0000770092010498
68	285.4012088775635	pulse	0	t		66.0	2.5	/experiments/knapen_AOT/AOT_stimuli/rescaled_final/1321_rv.mp4	0.0	304.90618991851807	
68	286.22598695755005	movie	1		243	66.0	2.5	/experiments/knapen_AOT/AOT_stimuli/rescaled_final/1321_rv.mp4	0.0	305.73096799850464	2.500471830368042
68	287.0012288093567	pulse	1	t		66.0	2.5	/experiments/knapen_AOT/AOT_stimuli/rescaled_final/1321_rv.mp4	0.0	306.5062098503113	
68	288.60146284103394	pulse	1	t		66.0	2.5	/experiments/knapen_AOT/AOT_stimuli/rescaled_final/1321_rv.mp4	0.0	308.1064438819885	
68	288.7264587879181	fix_post	2		12	66.0	2.5	/experiments/knapen_AOT/AOT_stimuli/rescaled_final/1321_rv.mp4	0.0	308.2314398288727	0.09998607635498047
69	288.82644486427307	fix_pre	0		120	67.0	2.5	/experiments/knapen_AOT/AOT_stimuli/rescaled_final/0334_rv.mp4	0.0	308.33142590522766	1.0001139640808105
69	289.8265588283539	movie	1		243	67.0	2.5	/experiments/knapen_AOT/AOT_stimuli/rescaled_final/0334_rv.mp4	0.0	309.3315398693085	2.4920411109924316
69	290.2018778324127	pulse	1	t		67.0	2.5	/experiments/knapen_AOT/AOT_stimuli/rescaled_final/0334_rv.mp4	0.0	309.7068588733673	
69	291.8021478652954	pulse	1	t		67.0	2.5	/experiments/knapen_AOT/AOT_stimuli/rescaled_final/0334_rv.mp4	0.0	311.30712890625	
69	292.3185999393463	fix_post	2		12	67.0	2.5	/experiments/knapen_AOT/AOT_stimuli/rescaled_final/0334_rv.mp4	0.0	311.8235809803009	0.10001587867736816
70	292.4186158180237	fix_pre	0		119	68.0	2.5	/experiments/knapen_AOT/AOT_stimuli/rescaled_final/0947_fw.mp4	0.0	311.92359685897827	0.9917721748352051
70	293.4022009372711	pulse	0	t		68.0	2.5	/experiments/knapen_AOT/AOT_stimuli/rescaled_final/0947_fw.mp4	0.0	312.9071819782257	
70	293.4103879928589	movie	1		244	68.0	2.5	/experiments/knapen_AOT/AOT_stimuli/rescaled_final/0947_fw.mp4	0.0	312.9153690338135	2.5086939334869385
70	295.00691390037537	pulse	1	t		68.0	2.5	/experiments/knapen_AOT/AOT_stimuli/rescaled_final/0947_fw.mp4	0.0	314.51189494132996	
70	295.9190819263458	fix_post	2		12	68.0	2.5	/experiments/knapen_AOT/AOT_stimuli/rescaled_final/0947_fw.mp4	0.0	315.4240629673004	0.1000359058380127
71	296.01911783218384	fix_pre	0		120	69.0	2.5	blank	1.0	315.5240988731384	1.0002140998840332
71	296.60271096229553	pulse	0	t		69.0	2.5	blank	1.0	316.1076920032501	
71	297.01933193206787	movie	1		300	69.0	2.5	blank	1.0	316.52431297302246	2.5003108978271484
71	298.2030289173126	pulse	1	t		69.0	2.5	blank	1.0	317.7080099582672	
71	299.519642829895	fix_post	2		12	69.0	2.5	blank	1.0	319.0246238708496	0.1000361442565918
72	299.6196789741516	fix_pre	0		120	70.0	2.5	/experiments/knapen_AOT/AOT_stimuli/rescaled_final/1457_fw.mp4	0.0	319.1246600151062	1.000196933746338
72	299.80318880081177	pulse	0	t		70.0	2.5	/experiments/knapen_AOT/AOT_stimuli/rescaled_final/1457_fw.mp4	0.0	319.30816984176636	
72	300.61987590789795	movie	1		243	70.0	2.5	/experiments/knapen_AOT/AOT_stimuli/rescaled_final/1457_fw.mp4	0.0	320.12485694885254	2.50034499168396
72	301.40345287323	pulse	1	t		70.0	2.5	/experiments/knapen_AOT/AOT_stimuli/rescaled_final/1457_fw.mp4	0.0	320.90843391418457	
72	303.00356793403625	pulse	1	t		70.0	2.5	/experiments/knapen_AOT/AOT_stimuli/rescaled_final/1457_fw.mp4	0.0	322.50854897499084	
72	303.1202208995819	fix_post	2		12	70.0	2.5	/experiments/knapen_AOT/AOT_stimuli/rescaled_final/1457_fw.mp4	0.0	322.6252019405365	0.09995603561401367
73	303.2201769351959	fix_pre	0		119	71.0	2.5	/experiments/knapen_AOT/AOT_stimuli/rescaled_final/0800_rv.mp4	0.0	322.7251579761505	0.9918460845947266
73	304.21202301979065	movie	1		243	71.0	2.5	/experiments/knapen_AOT/AOT_stimuli/rescaled_final/0800_rv.mp4	0.0	323.71700406074524	2.500443935394287
73	304.6040289402008	pulse	1	t		71.0	2.5	/experiments/knapen_AOT/AOT_stimuli/rescaled_final/0800_rv.mp4	0.0	324.1090099811554	
73	306.204185962677	pulse	1	t		71.0	2.5	/experiments/knapen_AOT/AOT_stimuli/rescaled_final/0800_rv.mp4	0.0	325.7091670036316	
73	306.71246695518494	fix_post	2		12	71.0	2.5	/experiments/knapen_AOT/AOT_stimuli/rescaled_final/0800_rv.mp4	0.0	326.2174479961395	0.10001802444458008
74	306.8124849796295	fix_pre	0		120	72.0	2.5	/experiments/knapen_AOT/AOT_stimuli/rescaled_final/1567_rv.mp4	0.0	326.3174660205841	1.000133991241455
74	307.804447889328	pulse	0	t		72.0	2.5	/experiments/knapen_AOT/AOT_stimuli/rescaled_final/1567_rv.mp4	0.0	327.3094289302826	
74	307.812618970871	movie	1		243	72.0	2.5	/experiments/knapen_AOT/AOT_stimuli/rescaled_final/1567_rv.mp4	0.0	327.31760001182556	2.508744955062866
74	309.4052298069	pulse	1	t		72.0	2.5	/experiments/knapen_AOT/AOT_stimuli/rescaled_final/1567_rv.mp4	0.0	328.9102108478546	
74	310.32136392593384	fix_post	2		12	72.0	2.5	/experiments/knapen_AOT/AOT_stimuli/rescaled_final/1567_rv.mp4	0.0	329.8263449668884	0.09994697570800781
75	310.42131090164185	fix_pre	0		120	73.0	2.5	/experiments/knapen_AOT/AOT_stimuli/rescaled_final/1733_fw.mp4	0.0	329.92629194259644	1.0001349449157715
75	311.00493478775024	pulse	0	t		73.0	2.5	/experiments/knapen_AOT/AOT_stimuli/rescaled_final/1733_fw.mp4	0.0	330.50991582870483	
75	311.4214458465576	movie	1		242	73.0	2.5	/experiments/knapen_AOT/AOT_stimuli/rescaled_final/1733_fw.mp4	0.0	330.9264268875122	2.5004971027374268
75	312.6052269935608	pulse	1	t		73.0	2.5	/experiments/knapen_AOT/AOT_stimuli/rescaled_final/1733_fw.mp4	0.0	332.1102080345154	
75	313.92194294929504	fix_post	2		8	73.0	2.5	/experiments/knapen_AOT/AOT_stimuli/rescaled_final/1733_fw.mp4	0.0	333.42692399024963	0.099884033203125
76	314.02182698249817	fix_pre	0		120	74.0	2.5	/experiments/knapen_AOT/AOT_stimuli/rescaled_final/1292_fw.mp4	0.0	333.52680802345276	1.000169038772583
76	314.2053859233856	pulse	0	t		74.0	2.5	/experiments/knapen_AOT/AOT_stimuli/rescaled_final/1292_fw.mp4	0.0	333.7103669643402	
76	315.02199602127075	movie	1		243	74.0	2.5	/experiments/knapen_AOT/AOT_stimuli/rescaled_final/1292_fw.mp4	0.0	334.52697706222534	2.500462770462036
76	315.805615901947	pulse	1	t		74.0	2.5	/experiments/knapen_AOT/AOT_stimuli/rescaled_final/1292_fw.mp4	0.0	335.3105969429016	
76	317.40599179267883	pulse	1	t		74.0	2.5	/experiments/knapen_AOT/AOT_stimuli/rescaled_final/1292_fw.mp4	0.0	336.9109728336334	
76	317.5224587917328	fix_post	2		12	74.0	2.5	/experiments/knapen_AOT/AOT_stimuli/rescaled_final/1292_fw.mp4	0.0	337.0274398326874	0.09993410110473633
77	317.6223928928375	fix_pre	0		120	75.0	2.5	/experiments/knapen_AOT/AOT_stimuli/rescaled_final/0588_fw.mp4	0.0	337.1273739337921	1.0000779628753662
77	318.6224708557129	movie	1		241	75.0	2.5	/experiments/knapen_AOT/AOT_stimuli/rescaled_final/0588_fw.mp4	0.0	338.1274518966675	2.492141008377075
77	319.0075159072876	pulse	1	t		75.0	2.5	/experiments/knapen_AOT/AOT_stimuli/rescaled_final/0588_fw.mp4	0.0	338.5124969482422	
77	320.6062858104706	pulse	1	t		75.0	2.5	/experiments/knapen_AOT/AOT_stimuli/rescaled_final/0588_fw.mp4	0.0	340.11126685142517	
77	321.11461186408997	fix_post	2		12	75.0	2.5	/experiments/knapen_AOT/AOT_stimuli/rescaled_final/0588_fw.mp4	0.0	340.61959290504456	0.09998607635498047
78	321.21459794044495	fix_pre	0		120	76.0	2.5	blank	1.0	340.71957898139954	1.0001568794250488
78	322.20662784576416	pulse	0	t		76.0	2.5	blank	1.0	341.71160888671875	
78	322.21475481987	movie	1		301	76.0	2.5	blank	1.0	341.7197358608246	2.5086700916290283
78	323.80686688423157	pulse	1	t		76.0	2.5	blank	1.0	343.31184792518616	
78	324.723424911499	fix_post	2		12	76.0	2.5	blank	1.0	344.2284059524536	0.10005807876586914
79	324.8234829902649	fix_pre	0		120	77.0	2.5	/experiments/knapen_AOT/AOT_stimuli/rescaled_final/1751_rv.mp4	0.0	344.3284640312195	1.0001139640808105
79	325.40711092948914	pulse	0	t		77.0	2.5	/experiments/knapen_AOT/AOT_stimuli/rescaled_final/1751_rv.mp4	0.0	344.9120919704437	
79	325.8235969543457	movie	1		243	77.0	2.5	/experiments/knapen_AOT/AOT_stimuli/rescaled_final/1751_rv.mp4	0.0	345.3285779953003	2.5003459453582764
79	327.0073800086975	pulse	1	t		77.0	2.5	/experiments/knapen_AOT/AOT_stimuli/rescaled_final/1751_rv.mp4	0.0	346.5123610496521	
79	328.323942899704	fix_post	2		12	77.0	2.5	/experiments/knapen_AOT/AOT_stimuli/rescaled_final/1751_rv.mp4	0.0	347.82892394065857	0.10008811950683594
80	328.4240310192108	fix_pre	0		120	78.0	2.5	/experiments/knapen_AOT/AOT_stimuli/rescaled_final/2056_fw.mp4	0.0	347.9290120601654	1.0000758171081543
80	328.60748982429504	pulse	0	t		78.0	2.5	/experiments/knapen_AOT/AOT_stimuli/rescaled_final/2056_fw.mp4	0.0	348.11247086524963	
80	329.42410683631897	movie	1		243	78.0	2.5	/experiments/knapen_AOT/AOT_stimuli/rescaled_final/2056_fw.mp4	0.0	348.92908787727356	2.50046706199646
80	330.2077159881592	pulse	1	t		78.0	2.5	/experiments/knapen_AOT/AOT_stimuli/rescaled_final/2056_fw.mp4	0.0	349.71269702911377	
80	331.8078808784485	pulse	1	t		78.0	2.5	/experiments/knapen_AOT/AOT_stimuli/rescaled_final/2056_fw.mp4	0.0	351.3128619194031	
80	331.92457389831543	fix_post	2		12	78.0	2.5	/experiments/knapen_AOT/AOT_stimuli/rescaled_final/2056_fw.mp4	0.0	351.42955493927	0.09994292259216309
81	332.0245168209076	fix_pre	0		120	79.0	2.5	/experiments/knapen_AOT/AOT_stimuli/rescaled_final/0408_fw.mp4	0.0	351.5294978618622	1.000143051147461
81	333.02465987205505	movie	1		242	79.0	2.5	/experiments/knapen_AOT/AOT_stimuli/rescaled_final/0408_fw.mp4	0.0	352.52964091300964	2.4921250343322754
81	333.40872979164124	pulse	1	t		79.0	2.5	/experiments/knapen_AOT/AOT_stimuli/rescaled_final/0408_fw.mp4	0.0	352.9137108325958	
81	335.0085217952728	pulse	1	t		79.0	2.5	/experiments/knapen_AOT/AOT_stimuli/rescaled_final/0408_fw.mp4	0.0	354.5135028362274	
81	335.51678490638733	fix_post	2		12	79.0	2.5	/experiments/knapen_AOT/AOT_stimuli/rescaled_final/0408_fw.mp4	0.0	355.0217659473419	0.09993100166320801
82	335.61671590805054	fix_pre	0		120	80.0	2.5	/experiments/knapen_AOT/AOT_stimuli/rescaled_final/0662_rv.mp4	0.0	355.1216969490051	1.0001740455627441
82	336.6087188720703	pulse	0	t		80.0	2.5	/experiments/knapen_AOT/AOT_stimuli/rescaled_final/0662_rv.mp4	0.0	356.1136999130249	
82	336.6168899536133	movie	1		243	80.0	2.5	/experiments/knapen_AOT/AOT_stimuli/rescaled_final/0662_rv.mp4	0.0	356.12187099456787	2.508713960647583
82	338.21372389793396	pulse	1	t		80.0	2.5	/experiments/knapen_AOT/AOT_stimuli/rescaled_final/0662_rv.mp4	0.0	357.71870493888855	
82	339.12560391426086	fix_post	2		12	80.0	2.5	/experiments/knapen_AOT/AOT_stimuli/rescaled_final/0662_rv.mp4	0.0	358.63058495521545	0.09996700286865234
83	339.2255709171295	fix_pre	0		120	81.0	2.5	/experiments/knapen_AOT/AOT_stimuli/rescaled_final/1703_rv.mp4	0.0	358.7305519580841	1.0001599788665771
83	339.8016788959503	pulse	0	t		81.0	2.5	/experiments/knapen_AOT/AOT_stimuli/rescaled_final/1703_rv.mp4	0.0	359.3066599369049	
83	340.2257308959961	movie	1		242	81.0	2.5	/experiments/knapen_AOT/AOT_stimuli/rescaled_final/1703_rv.mp4	0.0	359.7307119369507	2.5004498958587646
83	341.4095199108124	pulse	1	t		81.0	2.5	/experiments/knapen_AOT/AOT_stimuli/rescaled_final/1703_rv.mp4	0.0	360.91450095176697	
83	342.72618079185486	fix_post	2		12	81.0	2.5	/experiments/knapen_AOT/AOT_stimuli/rescaled_final/1703_rv.mp4	0.0	362.23116183280945	0.09992718696594238
84	342.8261079788208	fix_pre	0		120	82.0	2.5	/experiments/knapen_AOT/AOT_stimuli/rescaled_final/1911_fw.mp4	0.0	362.3310890197754	1.0001559257507324
84	343.00219798088074	pulse	0	t		82.0	2.5	/experiments/knapen_AOT/AOT_stimuli/rescaled_final/1911_fw.mp4	0.0	362.5071790218353	
84	343.82626390457153	movie	1		242	82.0	2.5	/experiments/knapen_AOT/AOT_stimuli/rescaled_final/1911_fw.mp4	0.0	363.3312449455261	2.50049090385437
84	344.60245299339294	pulse	1	t		82.0	2.5	/experiments/knapen_AOT/AOT_stimuli/rescaled_final/1911_fw.mp4	0.0	364.10743403434753	
84	346.201917886734	pulse	1	t		82.0	2.5	/experiments/knapen_AOT/AOT_stimuli/rescaled_final/1911_fw.mp4	0.0	365.7068989276886	
84	346.3267548084259	fix_post	2		12	82.0	2.5	/experiments/knapen_AOT/AOT_stimuli/rescaled_final/1911_fw.mp4	0.0	365.8317358493805	0.0999901294708252
85	346.42674493789673	fix_pre	0		120	83.0	2.5	blank	1.0	365.9317259788513	1.0000770092010498
85	347.4268219470978	movie	1		299	83.0	2.5	blank	1.0	366.93180298805237	2.492053985595703
85	347.8020079135895	pulse	1	t		83.0	2.5	blank	1.0	367.30698895454407	
85	349.4021728038788	pulse	1	t		83.0	2.5	blank	1.0	368.9071538448334	
85	349.9188759326935	fix_post	2		12	83.0	2.5	blank	1.0	369.42385697364807	0.10006999969482422
87	350.0189459323883	stim	0		1716					369.5239269733429	14.302041053771973
87	351.0025599002838	pulse	0	t						370.5075409412384	
87	352.60286498069763	pulse	0	t						372.1078460216522	
87	354.20297479629517	pulse	0	t						373.70795583724976	
87	355.80311584472656	pulse	0	t						375.30809688568115	
87	357.4034140110016	pulse	0	t						376.9083950519562	
87	359.0037579536438	pulse	0	t						378.5087389945984	
87	360.603816986084	pulse	0	t						380.1087980270386	
87	362.20409297943115	pulse	0	t						381.70907402038574	
87	363.8043568134308	pulse	0	t						383.3093378543854	
