trial_nr	onset	event_type	phase	response	nr_frames	movie_index	movie_duration	movie_file	blank	onset_abs	duration
0	0.20815610885620117	stim	0		2167					29.12623405456543	18.0777108669281
0	18.27788496017456	response	0	space						47.19596290588379	
1	18.2858669757843	stim	0		4258					47.20394492149353	35.49176216125488
1	53.76638698577881	pulse	0	t						82.68446493148804	
1	53.777629137039185	stim	1		1715					82.69570708274841	14.299005031585693
1	55.358317136764526	pulse	1	t						84.27639508247375	
1	56.95851111412048	pulse	1	t						85.87658905982971	
1	58.558619022369385	pulse	1	t						87.47669696807861	
1	60.15898299217224	pulse	1	t						89.07706093788147	
1	61.759252071380615	pulse	1	t						90.67733001708984	
1	63.359474182128906	pulse	1	t						92.27755212783813	
1	64.95961904525757	pulse	1	t						93.8776969909668	
1	66.55986499786377	pulse	1	t						95.477942943573	
2	68.07663416862488	fix_pre	0		11	0.0	2.5	/experiments/knapen_AOT/AOT_stimuli/rescaled_final/0129_fw.mp4	0.0	96.9947121143341	0.10012602806091309
2	68.16026306152344	pulse	0	t		0.0	2.5	/experiments/knapen_AOT/AOT_stimuli/rescaled_final/0129_fw.mp4	0.0	97.07834100723267	
2	68.17676019668579	movie	1		241	0.0	2.5	/experiments/knapen_AOT/AOT_stimuli/rescaled_final/0129_fw.mp4	0.0	97.09483814239502	2.500309944152832
2	69.7607409954071	pulse	1	t		0.0	2.5	/experiments/knapen_AOT/AOT_stimuli/rescaled_final/0129_fw.mp4	0.0	98.67881894111633	
2	70.67707014083862	fix_post	2		12	0.0	2.5	/experiments/knapen_AOT/AOT_stimuli/rescaled_final/0129_fw.mp4	0.0	99.59514808654785	0.09994697570800781
3	70.77701711654663	fix_pre	0		120	1.0	2.5	/experiments/knapen_AOT/AOT_stimuli/rescaled_final/0744_fw.mp4	0.0	99.69509506225586	1.0002009868621826
3	71.36064219474792	pulse	0	t		1.0	2.5	/experiments/knapen_AOT/AOT_stimuli/rescaled_final/0744_fw.mp4	0.0	100.27872014045715	
3	71.77721810340881	movie	1		245	1.0	2.5	/experiments/knapen_AOT/AOT_stimuli/rescaled_final/0744_fw.mp4	0.0	100.69529604911804	2.5003299713134766
3	72.96093511581421	pulse	1	t		1.0	2.5	/experiments/knapen_AOT/AOT_stimuli/rescaled_final/0744_fw.mp4	0.0	101.87901306152344	
3	74.27754807472229	fix_post	2		12	1.0	2.5	/experiments/knapen_AOT/AOT_stimuli/rescaled_final/0744_fw.mp4	0.0	103.19562602043152	0.0999751091003418
4	74.37752318382263	fix_pre	0		120	2.0	2.5	/experiments/knapen_AOT/AOT_stimuli/rescaled_final/1051_rv.mp4	0.0	103.29560112953186	1.0002448558807373
4	74.56110215187073	pulse	0	t		2.0	2.5	/experiments/knapen_AOT/AOT_stimuli/rescaled_final/1051_rv.mp4	0.0	103.47918009757996	
4	75.37776803970337	movie	1		245	2.0	2.5	/experiments/knapen_AOT/AOT_stimuli/rescaled_final/1051_rv.mp4	0.0	104.2958459854126	2.500386953353882
4	76.1614179611206	pulse	1	t		2.0	2.5	/experiments/knapen_AOT/AOT_stimuli/rescaled_final/1051_rv.mp4	0.0	105.07949590682983	
4	77.76167297363281	pulse	1	t		2.0	2.5	/experiments/knapen_AOT/AOT_stimuli/rescaled_final/1051_rv.mp4	0.0	106.67975091934204	
4	77.87815499305725	fix_post	2		12	2.0	2.5	/experiments/knapen_AOT/AOT_stimuli/rescaled_final/1051_rv.mp4	0.0	106.79623293876648	0.09993314743041992
5	77.97808814048767	fix_pre	0		120	3.0	2.5	/experiments/knapen_AOT/AOT_stimuli/rescaled_final/1920_fw.mp4	0.0	106.8961660861969	1.000190019607544
5	78.97827816009521	movie	1		243	3.0	2.5	/experiments/knapen_AOT/AOT_stimuli/rescaled_final/1920_fw.mp4	0.0	107.89635610580444	2.5003578662872314
5	79.36325216293335	pulse	1	t		3.0	2.5	/experiments/knapen_AOT/AOT_stimuli/rescaled_final/1920_fw.mp4	0.0	108.28133010864258	
5	80.96211099624634	pulse	1	t		3.0	2.5	/experiments/knapen_AOT/AOT_stimuli/rescaled_final/1920_fw.mp4	0.0	109.88018894195557	
5	81.47863602638245	fix_post	2		12	3.0	2.5	/experiments/knapen_AOT/AOT_stimuli/rescaled_final/1920_fw.mp4	0.0	110.39671397209167	0.09999203681945801
6	81.5786280632019	fix_pre	0		119	4.0	2.5	/experiments/knapen_AOT/AOT_stimuli/rescaled_final/0028_fw.mp4	0.0	110.49670600891113	0.991826057434082
6	82.56235718727112	pulse	0	t		4.0	2.5	/experiments/knapen_AOT/AOT_stimuli/rescaled_final/0028_fw.mp4	0.0	111.48043513298035	
6	82.57045412063599	movie	1		244	4.0	2.5	/experiments/knapen_AOT/AOT_stimuli/rescaled_final/0028_fw.mp4	0.0	111.48853206634521	2.5087239742279053
6	84.16284108161926	pulse	1	t		4.0	2.5	/experiments/knapen_AOT/AOT_stimuli/rescaled_final/0028_fw.mp4	0.0	113.08091902732849	
6	85.07917809486389	fix_post	2		12	4.0	2.5	/experiments/knapen_AOT/AOT_stimuli/rescaled_final/0028_fw.mp4	0.0	113.99725604057312	0.1000220775604248
7	85.17920017242432	fix_pre	0		120	5.0	2.5	/experiments/knapen_AOT/AOT_stimuli/rescaled_final/2174_fw.mp4	0.0	114.09727811813354	1.0002198219299316
7	85.76285314559937	pulse	0	t		5.0	2.5	/experiments/knapen_AOT/AOT_stimuli/rescaled_final/2174_fw.mp4	0.0	114.6809310913086	
7	86.17941999435425	movie	1		244	5.0	2.5	/experiments/knapen_AOT/AOT_stimuli/rescaled_final/2174_fw.mp4	0.0	115.09749794006348	2.500277042388916
7	87.36320209503174	pulse	1	t		5.0	2.5	/experiments/knapen_AOT/AOT_stimuli/rescaled_final/2174_fw.mp4	0.0	116.28128004074097	
7	88.67969703674316	fix_post	2		12	5.0	2.5	/experiments/knapen_AOT/AOT_stimuli/rescaled_final/2174_fw.mp4	0.0	117.59777498245239	0.10004401206970215
8	88.77974104881287	fix_pre	0		120	6.0	2.5	/experiments/knapen_AOT/AOT_stimuli/rescaled_final/0527_rv.mp4	0.0	117.6978189945221	1.0001709461212158
8	88.96326398849487	pulse	0	t		6.0	2.5	/experiments/knapen_AOT/AOT_stimuli/rescaled_final/0527_rv.mp4	0.0	117.8813419342041	
8	89.77991199493408	movie	1		242	6.0	2.5	/experiments/knapen_AOT/AOT_stimuli/rescaled_final/0527_rv.mp4	0.0	118.69798994064331	2.5005359649658203
8	90.56352615356445	pulse	1	t		6.0	2.5	/experiments/knapen_AOT/AOT_stimuli/rescaled_final/0527_rv.mp4	0.0	119.48160409927368	
8	92.16364908218384	pulse	1	t		6.0	2.5	/experiments/knapen_AOT/AOT_stimuli/rescaled_final/0527_rv.mp4	0.0	121.08172702789307	
8	92.2804479598999	fix_post	2		12	6.0	2.5	/experiments/knapen_AOT/AOT_stimuli/rescaled_final/0527_rv.mp4	0.0	121.19852590560913	0.09981417655944824
9	92.38026213645935	fix_pre	0		119	7.0	2.5	blank	1.0	121.29834008216858	0.9918398857116699
9	93.37210202217102	movie	1		300	7.0	2.5	blank	1.0	122.29017996788025	2.500333070755005
9	93.76411318778992	pulse	1	t		7.0	2.5	blank	1.0	122.68219113349915	
9	95.35669898986816	pulse	1	t		7.0	2.5	blank	1.0	124.27477693557739	
9	95.87243509292603	fix_post	2		12	7.0	2.5	blank	1.0	124.79051303863525	0.10001897811889648
10	95.97245407104492	fix_pre	0		120	8.0	2.5	/experiments/knapen_AOT/AOT_stimuli/rescaled_final/1920_rv.mp4	0.0	124.89053201675415	1.0001590251922607
10	96.95701599121094	pulse	0	t		8.0	2.5	/experiments/knapen_AOT/AOT_stimuli/rescaled_final/1920_rv.mp4	0.0	125.87509393692017	
10	96.97261309623718	movie	1		244	8.0	2.5	/experiments/knapen_AOT/AOT_stimuli/rescaled_final/1920_rv.mp4	0.0	125.89069104194641	2.5086750984191895
10	98.56529116630554	pulse	1	t		8.0	2.5	/experiments/knapen_AOT/AOT_stimuli/rescaled_final/1920_rv.mp4	0.0	127.48336911201477	
10	99.48128819465637	fix_post	2		12	8.0	2.5	/experiments/knapen_AOT/AOT_stimuli/rescaled_final/1920_rv.mp4	0.0	128.3993661403656	0.1000208854675293
11	99.5813090801239	fix_pre	0		120	9.0	2.5	/experiments/knapen_AOT/AOT_stimuli/rescaled_final/2076_rv.mp4	0.0	128.49938702583313	1.00016188621521
11	100.15744209289551	pulse	0	t		9.0	2.5	/experiments/knapen_AOT/AOT_stimuli/rescaled_final/2076_rv.mp4	0.0	129.07552003860474	
11	100.58147096633911	movie	1		245	9.0	2.5	/experiments/knapen_AOT/AOT_stimuli/rescaled_final/2076_rv.mp4	0.0	129.49954891204834	2.500380039215088
11	101.75743007659912	pulse	1	t		9.0	2.5	/experiments/knapen_AOT/AOT_stimuli/rescaled_final/2076_rv.mp4	0.0	130.67550802230835	
11	103.0818510055542	fix_post	2		12	9.0	2.5	/experiments/knapen_AOT/AOT_stimuli/rescaled_final/2076_rv.mp4	0.0	131.99992895126343	0.09999608993530273
12	103.1818470954895	fix_pre	0		120	10.0	2.5	/experiments/knapen_AOT/AOT_stimuli/rescaled_final/1761_rv.mp4	0.0	132.09992504119873	1.000195026397705
12	103.35702896118164	pulse	0	t		10.0	2.5	/experiments/knapen_AOT/AOT_stimuli/rescaled_final/1761_rv.mp4	0.0	132.27510690689087	
12	104.1820421218872	movie	1		243	10.0	2.5	/experiments/knapen_AOT/AOT_stimuli/rescaled_final/1761_rv.mp4	0.0	133.10012006759644	2.492043972015381
12	104.95729899406433	pulse	1	t		10.0	2.5	/experiments/knapen_AOT/AOT_stimuli/rescaled_final/1761_rv.mp4	0.0	133.87537693977356	
12	106.55754899978638	pulse	1	t		10.0	2.5	/experiments/knapen_AOT/AOT_stimuli/rescaled_final/1761_rv.mp4	0.0	135.4756269454956	
12	106.67408609390259	fix_post	2		12	10.0	2.5	/experiments/knapen_AOT/AOT_stimuli/rescaled_final/1761_rv.mp4	0.0	135.59216403961182	0.09998297691345215
13	106.77406907081604	fix_pre	0		120	11.0	2.5	/experiments/knapen_AOT/AOT_stimuli/rescaled_final/1138_fw.mp4	0.0	135.69214701652527	1.0001521110534668
13	107.7742211818695	movie	1		243	11.0	2.5	/experiments/knapen_AOT/AOT_stimuli/rescaled_final/1138_fw.mp4	0.0	136.69229912757874	2.5003550052642822
13	108.16224217414856	pulse	1	t		11.0	2.5	/experiments/knapen_AOT/AOT_stimuli/rescaled_final/1138_fw.mp4	0.0	137.0803201198578	
13	109.75811100006104	pulse	1	t		11.0	2.5	/experiments/knapen_AOT/AOT_stimuli/rescaled_final/1138_fw.mp4	0.0	138.67618894577026	
13	110.27457618713379	fix_post	2		12	11.0	2.5	/experiments/knapen_AOT/AOT_stimuli/rescaled_final/1138_fw.mp4	0.0	139.19265413284302	0.10000991821289062
14	110.37458610534668	fix_pre	0		119	12.0	2.5	blank	1.0	139.2926640510559	0.9918529987335205
14	111.35825610160828	pulse	0	t		12.0	2.5	blank	1.0	140.2763340473175	
14	111.3664391040802	movie	1		301	12.0	2.5	blank	1.0	140.28451704978943	2.5086748600006104
14	112.95847702026367	pulse	1	t		12.0	2.5	blank	1.0	141.8765549659729	
14	113.87511396408081	fix_post	2		12	12.0	2.5	blank	1.0	142.79319190979004	0.10003304481506348
15	113.97514700889587	fix_pre	0		120	13.0	2.5	/experiments/knapen_AOT/AOT_stimuli/rescaled_final/0158_rv.mp4	0.0	142.8932249546051	1.000154972076416
15	114.5587911605835	pulse	0	t		13.0	2.5	/experiments/knapen_AOT/AOT_stimuli/rescaled_final/0158_rv.mp4	0.0	143.47686910629272	
15	114.97530198097229	movie	1		243	13.0	2.5	/experiments/knapen_AOT/AOT_stimuli/rescaled_final/0158_rv.mp4	0.0	143.89337992668152	2.5003821849823
15	116.15919017791748	pulse	1	t		13.0	2.5	/experiments/knapen_AOT/AOT_stimuli/rescaled_final/0158_rv.mp4	0.0	145.0772681236267	
15	117.47568416595459	fix_post	2		12	13.0	2.5	/experiments/knapen_AOT/AOT_stimuli/rescaled_final/0158_rv.mp4	0.0	146.39376211166382	0.1001288890838623
16	117.57581305503845	fix_pre	0		120	14.0	2.5	/experiments/knapen_AOT/AOT_stimuli/rescaled_final/0654_rv.mp4	0.0	146.49389100074768	1.0000309944152832
16	117.75945901870728	pulse	0	t		14.0	2.5	/experiments/knapen_AOT/AOT_stimuli/rescaled_final/0654_rv.mp4	0.0	146.6775369644165	
16	118.57584404945374	movie	1		243	14.0	2.5	/experiments/knapen_AOT/AOT_stimuli/rescaled_final/0654_rv.mp4	0.0	147.49392199516296	2.500359058380127
16	119.35938811302185	pulse	1	t		14.0	2.5	/experiments/knapen_AOT/AOT_stimuli/rescaled_final/0654_rv.mp4	0.0	148.27746605873108	
16	120.95970606803894	pulse	1	t		14.0	2.5	/experiments/knapen_AOT/AOT_stimuli/rescaled_final/0654_rv.mp4	0.0	149.87778401374817	
16	121.07620310783386	fix_post	2		12	14.0	2.5	/experiments/knapen_AOT/AOT_stimuli/rescaled_final/0654_rv.mp4	0.0	149.9942810535431	0.09999990463256836
17	121.17620301246643	fix_pre	0		116	15.0	2.5	/experiments/knapen_AOT/AOT_stimuli/rescaled_final/0841_rv.mp4	0.0	150.09428095817566	0.9918279647827148
17	122.16803097724915	movie	1		246	15.0	2.5	/experiments/knapen_AOT/AOT_stimuli/rescaled_final/0841_rv.mp4	0.0	151.08610892295837	2.500371217727661
17	122.56015110015869	pulse	1	t		15.0	2.5	/experiments/knapen_AOT/AOT_stimuli/rescaled_final/0841_rv.mp4	0.0	151.47822904586792	
17	124.16018509864807	pulse	1	t		15.0	2.5	/experiments/knapen_AOT/AOT_stimuli/rescaled_final/0841_rv.mp4	0.0	153.0782630443573	
17	124.6684021949768	fix_post	2		12	15.0	2.5	/experiments/knapen_AOT/AOT_stimuli/rescaled_final/0841_rv.mp4	0.0	153.58648014068604	0.10001397132873535
18	124.76841616630554	fix_pre	0		120	16.0	2.5	/experiments/knapen_AOT/AOT_stimuli/rescaled_final/0719_rv.mp4	0.0	153.68649411201477	1.0001559257507324
18	125.7605550289154	pulse	0	t		16.0	2.5	/experiments/knapen_AOT/AOT_stimuli/rescaled_final/0719_rv.mp4	0.0	154.67863297462463	
18	125.76857209205627	movie	1		245	16.0	2.5	/experiments/knapen_AOT/AOT_stimuli/rescaled_final/0719_rv.mp4	0.0	154.6866500377655	2.5087039470672607
18	127.36112213134766	pulse	1	t		16.0	2.5	/experiments/knapen_AOT/AOT_stimuli/rescaled_final/0719_rv.mp4	0.0	156.27920007705688	
18	128.27727603912354	fix_post	2		12	16.0	2.5	/experiments/knapen_AOT/AOT_stimuli/rescaled_final/0719_rv.mp4	0.0	157.19535398483276	0.10002708435058594
19	128.37730312347412	fix_pre	0		120	17.0	2.5	/experiments/knapen_AOT/AOT_stimuli/rescaled_final/0743_rv.mp4	0.0	157.29538106918335	1.0001609325408936
19	128.9610149860382	pulse	0	t		17.0	2.5	/experiments/knapen_AOT/AOT_stimuli/rescaled_final/0743_rv.mp4	0.0	157.87909293174744	
19	129.37746405601501	movie	1		244	17.0	2.5	/experiments/knapen_AOT/AOT_stimuli/rescaled_final/0743_rv.mp4	0.0	158.29554200172424	2.500333070755005
19	130.56128811836243	pulse	1	t		17.0	2.5	/experiments/knapen_AOT/AOT_stimuli/rescaled_final/0743_rv.mp4	0.0	159.47936606407166	
19	131.87779712677002	fix_post	2		12	17.0	2.5	/experiments/knapen_AOT/AOT_stimuli/rescaled_final/0743_rv.mp4	0.0	160.79587507247925	0.10004901885986328
20	131.97784614562988	fix_pre	0		120	18.0	2.5	/experiments/knapen_AOT/AOT_stimuli/rescaled_final/0437_rv.mp4	0.0	160.8959240913391	1.000166893005371
20	132.16150212287903	pulse	0	t		18.0	2.5	/experiments/knapen_AOT/AOT_stimuli/rescaled_final/0437_rv.mp4	0.0	161.07958006858826	
20	132.97801303863525	movie	1		243	18.0	2.5	/experiments/knapen_AOT/AOT_stimuli/rescaled_final/0437_rv.mp4	0.0	161.89609098434448	2.500352144241333
20	133.76161098480225	pulse	1	t		18.0	2.5	/experiments/knapen_AOT/AOT_stimuli/rescaled_final/0437_rv.mp4	0.0	162.67968893051147	
20	135.36175417900085	pulse	1	t		18.0	2.5	/experiments/knapen_AOT/AOT_stimuli/rescaled_final/0437_rv.mp4	0.0	164.27983212471008	
20	135.4783651828766	fix_post	2		12	18.0	2.5	/experiments/knapen_AOT/AOT_stimuli/rescaled_final/0437_rv.mp4	0.0	164.39644312858582	0.10003280639648438
21	135.57839798927307	fix_pre	0		120	19.0	2.5	blank	1.0	164.4964759349823	1.0001211166381836
21	136.57851910591125	movie	1		299	19.0	2.5	blank	1.0	165.49659705162048	2.4920499324798584
21	136.962256193161	pulse	1	t		19.0	2.5	blank	1.0	165.88033413887024	
21	138.56240606307983	pulse	1	t		19.0	2.5	blank	1.0	167.48048400878906	
21	139.0705690383911	fix_post	2		12	19.0	2.5	blank	1.0	167.98864698410034	0.10007905960083008
22	139.17064809799194	fix_pre	0		120	20.0	2.5	/experiments/knapen_AOT/AOT_stimuli/rescaled_final/1301_rv.mp4	0.0	168.08872604370117	1.000079870223999
22	140.16263604164124	pulse	0	t		20.0	2.5	/experiments/knapen_AOT/AOT_stimuli/rescaled_final/1301_rv.mp4	0.0	169.08071398735046	
22	140.17072796821594	movie	1		245	20.0	2.5	/experiments/knapen_AOT/AOT_stimuli/rescaled_final/1301_rv.mp4	0.0	169.08880591392517	2.5086991786956787
22	141.7634150981903	pulse	1	t		20.0	2.5	/experiments/knapen_AOT/AOT_stimuli/rescaled_final/1301_rv.mp4	0.0	170.68149304389954	
22	142.67942714691162	fix_post	2		12	20.0	2.5	/experiments/knapen_AOT/AOT_stimuli/rescaled_final/1301_rv.mp4	0.0	171.59750509262085	0.10002589225769043
23	142.7794530391693	fix_pre	0		120	21.0	2.5	/experiments/knapen_AOT/AOT_stimuli/rescaled_final/0654_fw.mp4	0.0	171.69753098487854	1.0001411437988281
23	143.3631739616394	pulse	0	t		21.0	2.5	/experiments/knapen_AOT/AOT_stimuli/rescaled_final/0654_fw.mp4	0.0	172.28125190734863	
23	143.77959418296814	movie	1		243	21.0	2.5	/experiments/knapen_AOT/AOT_stimuli/rescaled_final/0654_fw.mp4	0.0	172.69767212867737	2.500365972518921
23	144.96357917785645	pulse	1	t		21.0	2.5	/experiments/knapen_AOT/AOT_stimuli/rescaled_final/0654_fw.mp4	0.0	173.88165712356567	
23	146.27996015548706	fix_post	2		12	21.0	2.5	/experiments/knapen_AOT/AOT_stimuli/rescaled_final/0654_fw.mp4	0.0	175.1980381011963	0.10002899169921875
24	146.37998914718628	fix_pre	0		120	22.0	2.5	/experiments/knapen_AOT/AOT_stimuli/rescaled_final/0735_rv.mp4	0.0	175.2980670928955	1.0001649856567383
24	146.56359219551086	pulse	0	t		22.0	2.5	/experiments/knapen_AOT/AOT_stimuli/rescaled_final/0735_rv.mp4	0.0	175.4816701412201	
24	147.38015413284302	movie	1		246	22.0	2.5	/experiments/knapen_AOT/AOT_stimuli/rescaled_final/0735_rv.mp4	0.0	176.29823207855225	2.5003509521484375
24	148.16383910179138	pulse	1	t		22.0	2.5	/experiments/knapen_AOT/AOT_stimuli/rescaled_final/0735_rv.mp4	0.0	177.0819170475006	
24	149.7641429901123	pulse	1	t		22.0	2.5	/experiments/knapen_AOT/AOT_stimuli/rescaled_final/0735_rv.mp4	0.0	178.68222093582153	
24	149.88050508499146	fix_post	2		12	22.0	2.5	/experiments/knapen_AOT/AOT_stimuli/rescaled_final/0735_rv.mp4	0.0	178.79858303070068	0.10001206398010254
25	149.98051714897156	fix_pre	0		120	23.0	2.5	/experiments/knapen_AOT/AOT_stimuli/rescaled_final/0305_fw.mp4	0.0	178.8985950946808	1.0001509189605713
25	150.98066806793213	movie	1		242	23.0	2.5	/experiments/knapen_AOT/AOT_stimuli/rescaled_final/0305_fw.mp4	0.0	179.89874601364136	2.492064952850342
25	151.36542510986328	pulse	1	t		23.0	2.5	/experiments/knapen_AOT/AOT_stimuli/rescaled_final/0305_fw.mp4	0.0	180.2835030555725	
25	152.96454405784607	pulse	1	t		23.0	2.5	/experiments/knapen_AOT/AOT_stimuli/rescaled_final/0305_fw.mp4	0.0	181.8826220035553	
25	153.47273302078247	fix_post	2		12	23.0	2.5	/experiments/knapen_AOT/AOT_stimuli/rescaled_final/0305_fw.mp4	0.0	182.3908109664917	0.10001206398010254
26	153.57274508476257	fix_pre	0		120	24.0	2.5	/experiments/knapen_AOT/AOT_stimuli/rescaled_final/1502_rv.mp4	0.0	182.4908230304718	1.0001161098480225
26	154.56469416618347	pulse	0	t		24.0	2.5	/experiments/knapen_AOT/AOT_stimuli/rescaled_final/1502_rv.mp4	0.0	183.4827721118927	
26	154.5728611946106	movie	1		246	24.0	2.5	/experiments/knapen_AOT/AOT_stimuli/rescaled_final/1502_rv.mp4	0.0	183.49093914031982	2.5087127685546875
26	156.16558504104614	pulse	1	t		24.0	2.5	/experiments/knapen_AOT/AOT_stimuli/rescaled_final/1502_rv.mp4	0.0	185.08366298675537	
26	157.08157396316528	fix_post	2		12	24.0	2.5	/experiments/knapen_AOT/AOT_stimuli/rescaled_final/1502_rv.mp4	0.0	185.9996519088745	0.10003113746643066
27	157.1816051006317	fix_pre	0		120	25.0	2.5	/experiments/knapen_AOT/AOT_stimuli/rescaled_final/0257_rv.mp4	0.0	186.09968304634094	1.0001749992370605
27	157.75766015052795	pulse	0	t		25.0	2.5	/experiments/knapen_AOT/AOT_stimuli/rescaled_final/0257_rv.mp4	0.0	186.67573809623718	
27	158.18178009986877	movie	1		243	25.0	2.5	/experiments/knapen_AOT/AOT_stimuli/rescaled_final/0257_rv.mp4	0.0	187.099858045578	2.500304937362671
27	159.3575530052185	pulse	1	t		25.0	2.5	/experiments/knapen_AOT/AOT_stimuli/rescaled_final/0257_rv.mp4	0.0	188.27563095092773	
27	160.68208503723145	fix_post	2		12	25.0	2.5	/experiments/knapen_AOT/AOT_stimuli/rescaled_final/0257_rv.mp4	0.0	189.60016298294067	0.10014009475708008
28	160.78222513198853	fix_pre	0		120	26.0	2.5	/experiments/knapen_AOT/AOT_stimuli/rescaled_final/1344_rv.mp4	0.0	189.70030307769775	1.0000519752502441
28	160.95746898651123	pulse	0	t		26.0	2.5	/experiments/knapen_AOT/AOT_stimuli/rescaled_final/1344_rv.mp4	0.0	189.87554693222046	
28	161.78227710723877	movie	1		244	26.0	2.5	/experiments/knapen_AOT/AOT_stimuli/rescaled_final/1344_rv.mp4	0.0	190.700355052948	2.5003910064697266
28	162.55758619308472	pulse	1	t		26.0	2.5	/experiments/knapen_AOT/AOT_stimuli/rescaled_final/1344_rv.mp4	0.0	191.47566413879395	
28	164.15783405303955	pulse	1	t		26.0	2.5	/experiments/knapen_AOT/AOT_stimuli/rescaled_final/1344_rv.mp4	0.0	193.07591199874878	
28	164.2826681137085	fix_post	2		12	26.0	2.5	/experiments/knapen_AOT/AOT_stimuli/rescaled_final/1344_rv.mp4	0.0	193.20074605941772	0.09999394416809082
29	164.3826620578766	fix_pre	0		119	27.0	2.5	/experiments/knapen_AOT/AOT_stimuli/rescaled_final/0697_rv.mp4	0.0	193.30074000358582	0.9918301105499268
29	165.3744921684265	movie	1		243	27.0	2.5	/experiments/knapen_AOT/AOT_stimuli/rescaled_final/0697_rv.mp4	0.0	194.29257011413574	2.5003600120544434
29	165.75922918319702	pulse	1	t		27.0	2.5	/experiments/knapen_AOT/AOT_stimuli/rescaled_final/0697_rv.mp4	0.0	194.67730712890625	
29	167.3583540916443	pulse	1	t		27.0	2.5	/experiments/knapen_AOT/AOT_stimuli/rescaled_final/0697_rv.mp4	0.0	196.27643203735352	
29	167.87485218048096	fix_post	2		12	27.0	2.5	/experiments/knapen_AOT/AOT_stimuli/rescaled_final/0697_rv.mp4	0.0	196.79293012619019	0.10001182556152344
30	167.97486400604248	fix_pre	0		119	28.0	2.5	blank	1.0	196.8929419517517	0.9918520450592041
30	168.95858001708984	pulse	0	t		28.0	2.5	blank	1.0	197.87665796279907	
30	168.96671605110168	movie	1		301	28.0	2.5	blank	1.0	197.8847939968109	2.5087931156158447
30	170.55882811546326	pulse	1	t		28.0	2.5	blank	1.0	199.47690606117249	
30	171.47550916671753	fix_post	2		12	28.0	2.5	blank	1.0	200.39358711242676	0.09989190101623535
31	171.57540106773376	fix_pre	0		120	29.0	2.5	/experiments/knapen_AOT/AOT_stimuli/rescaled_final/1667_fw.mp4	0.0	200.493479013443	1.0001819133758545
31	172.15904116630554	pulse	0	t		29.0	2.5	/experiments/knapen_AOT/AOT_stimuli/rescaled_final/1667_fw.mp4	0.0	201.07711911201477	
31	172.57558298110962	movie	1		244	29.0	2.5	/experiments/knapen_AOT/AOT_stimuli/rescaled_final/1667_fw.mp4	0.0	201.49366092681885	2.5004031658172607
31	173.7593650817871	pulse	1	t		29.0	2.5	/experiments/knapen_AOT/AOT_stimuli/rescaled_final/1667_fw.mp4	0.0	202.67744302749634	
31	175.07598614692688	fix_post	2		12	29.0	2.5	/experiments/knapen_AOT/AOT_stimuli/rescaled_final/1667_fw.mp4	0.0	203.9940640926361	0.09999203681945801
32	175.17597818374634	fix_pre	0		120	30.0	2.5	/experiments/knapen_AOT/AOT_stimuli/rescaled_final/1326_rv.mp4	0.0	204.09405612945557	1.0002059936523438
32	175.359619140625	pulse	0	t		30.0	2.5	/experiments/knapen_AOT/AOT_stimuli/rescaled_final/1326_rv.mp4	0.0	204.27769708633423	
32	176.17618417739868	movie	1		243	30.0	2.5	/experiments/knapen_AOT/AOT_stimuli/rescaled_final/1326_rv.mp4	0.0	205.0942621231079	2.5003089904785156
32	176.95970702171326	pulse	1	t		30.0	2.5	/experiments/knapen_AOT/AOT_stimuli/rescaled_final/1326_rv.mp4	0.0	205.87778496742249	
32	178.56001901626587	pulse	1	t		30.0	2.5	/experiments/knapen_AOT/AOT_stimuli/rescaled_final/1326_rv.mp4	0.0	207.4780969619751	
32	178.6764931678772	fix_post	2		12	30.0	2.5	/experiments/knapen_AOT/AOT_stimuli/rescaled_final/1326_rv.mp4	0.0	207.59457111358643	0.10005879402160645
33	178.7765519618988	fix_pre	0		120	31.0	2.5	/experiments/knapen_AOT/AOT_stimuli/rescaled_final/0666_rv.mp4	0.0	207.69462990760803	1.0001311302185059
33	179.7766830921173	movie	1		239	31.0	2.5	/experiments/knapen_AOT/AOT_stimuli/rescaled_final/0666_rv.mp4	0.0	208.69476103782654	2.492029905319214
33	180.1608691215515	pulse	1	t		31.0	2.5	/experiments/knapen_AOT/AOT_stimuli/rescaled_final/0666_rv.mp4	0.0	209.07894706726074	
33	181.7605459690094	pulse	1	t		31.0	2.5	/experiments/knapen_AOT/AOT_stimuli/rescaled_final/0666_rv.mp4	0.0	210.67862391471863	
33	182.26871299743652	fix_post	2		12	31.0	2.5	/experiments/knapen_AOT/AOT_stimuli/rescaled_final/0666_rv.mp4	0.0	211.18679094314575	0.0999760627746582
34	182.36868906021118	fix_pre	0		120	32.0	2.5	/experiments/knapen_AOT/AOT_stimuli/rescaled_final/1092_rv.mp4	0.0	211.2867670059204	1.000143051147461
34	183.36068415641785	pulse	0	t		32.0	2.5	/experiments/knapen_AOT/AOT_stimuli/rescaled_final/1092_rv.mp4	0.0	212.27876210212708	
34	183.36883211135864	movie	1		245	32.0	2.5	/experiments/knapen_AOT/AOT_stimuli/rescaled_final/1092_rv.mp4	0.0	212.28691005706787	2.508718967437744
34	184.96155714988708	pulse	1	t		32.0	2.5	/experiments/knapen_AOT/AOT_stimuli/rescaled_final/1092_rv.mp4	0.0	213.8796350955963	
34	185.8775510787964	fix_post	2		12	32.0	2.5	/experiments/knapen_AOT/AOT_stimuli/rescaled_final/1092_rv.mp4	0.0	214.79562902450562	0.10004401206970215
35	185.9775950908661	fix_pre	0		120	33.0	2.5	/experiments/knapen_AOT/AOT_stimuli/rescaled_final/1416_rv.mp4	0.0	214.89567303657532	1.0001299381256104
35	186.56122612953186	pulse	0	t		33.0	2.5	/experiments/knapen_AOT/AOT_stimuli/rescaled_final/1416_rv.mp4	0.0	215.4793040752411	
35	186.9777250289917	movie	1		244	33.0	2.5	/experiments/knapen_AOT/AOT_stimuli/rescaled_final/1416_rv.mp4	0.0	215.89580297470093	2.500365972518921
35	188.16150307655334	pulse	1	t		33.0	2.5	/experiments/knapen_AOT/AOT_stimuli/rescaled_final/1416_rv.mp4	0.0	217.07958102226257	
35	189.47809100151062	fix_post	2		12	33.0	2.5	/experiments/knapen_AOT/AOT_stimuli/rescaled_final/1416_rv.mp4	0.0	218.39616894721985	0.10001301765441895
36	189.57810401916504	fix_pre	0		120	34.0	2.5	blank	1.0	218.49618196487427	1.0001780986785889
36	189.76178002357483	pulse	0	t		34.0	2.5	blank	1.0	218.67985796928406	
36	190.57828211784363	movie	1		300	34.0	2.5	blank	1.0	219.49636006355286	2.5003340244293213
36	191.36201310157776	pulse	1	t		34.0	2.5	blank	1.0	220.280091047287	
36	192.9621000289917	pulse	1	t		34.0	2.5	blank	1.0	221.88017797470093	
36	193.07861614227295	fix_post	2		12	34.0	2.5	blank	1.0	221.99669408798218	0.10004782676696777
37	193.17866396903992	fix_pre	0		120	35.0	2.5	/experiments/knapen_AOT/AOT_stimuli/rescaled_final/1641_rv.mp4	0.0	222.09674191474915	1.0002031326293945
37	194.1788671016693	movie	1		242	35.0	2.5	/experiments/knapen_AOT/AOT_stimuli/rescaled_final/1641_rv.mp4	0.0	223.09694504737854	2.491973876953125
37	194.56664609909058	pulse	1	t		35.0	2.5	/experiments/knapen_AOT/AOT_stimuli/rescaled_final/1641_rv.mp4	0.0	223.4847240447998	
37	196.1625621318817	pulse	1	t		35.0	2.5	/experiments/knapen_AOT/AOT_stimuli/rescaled_final/1641_rv.mp4	0.0	225.08064007759094	
37	196.67084097862244	fix_post	2		12	35.0	2.5	/experiments/knapen_AOT/AOT_stimuli/rescaled_final/1641_rv.mp4	0.0	225.58891892433167	0.10013198852539062
38	196.77097296714783	fix_pre	0		120	36.0	2.5	/experiments/knapen_AOT/AOT_stimuli/rescaled_final/0643_fw.mp4	0.0	225.68905091285706	1.0000121593475342
38	197.76285219192505	pulse	0	t		36.0	2.5	/experiments/knapen_AOT/AOT_stimuli/rescaled_final/0643_fw.mp4	0.0	226.68093013763428	
38	197.77098512649536	movie	1		244	36.0	2.5	/experiments/knapen_AOT/AOT_stimuli/rescaled_final/0643_fw.mp4	0.0	226.6890630722046	2.5087130069732666
38	199.3634421825409	pulse	1	t		36.0	2.5	/experiments/knapen_AOT/AOT_stimuli/rescaled_final/0643_fw.mp4	0.0	228.28152012825012	
38	200.27969813346863	fix_post	2		12	36.0	2.5	/experiments/knapen_AOT/AOT_stimuli/rescaled_final/0643_fw.mp4	0.0	229.19777607917786	0.10003900527954102
39	200.37973713874817	fix_pre	0		120	37.0	2.5	/experiments/knapen_AOT/AOT_stimuli/rescaled_final/1939_rv.mp4	0.0	229.2978150844574	1.0001509189605713
39	200.96337604522705	pulse	0	t		37.0	2.5	/experiments/knapen_AOT/AOT_stimuli/rescaled_final/1939_rv.mp4	0.0	229.88145399093628	
39	201.37988805770874	movie	1		244	37.0	2.5	/experiments/knapen_AOT/AOT_stimuli/rescaled_final/1939_rv.mp4	0.0	230.29796600341797	2.500375986099243
39	202.56365418434143	pulse	1	t		37.0	2.5	/experiments/knapen_AOT/AOT_stimuli/rescaled_final/1939_rv.mp4	0.0	231.48173213005066	
39	203.88026404380798	fix_post	2		12	37.0	2.5	/experiments/knapen_AOT/AOT_stimuli/rescaled_final/1939_rv.mp4	0.0	232.7983419895172	0.09998703002929688
40	203.98025107383728	fix_pre	0		120	38.0	2.5	/experiments/knapen_AOT/AOT_stimuli/rescaled_final/2060_fw.mp4	0.0	232.8983290195465	1.0001749992370605
40	204.16385507583618	pulse	0	t		38.0	2.5	/experiments/knapen_AOT/AOT_stimuli/rescaled_final/2060_fw.mp4	0.0	233.0819330215454	
40	204.98042607307434	movie	1		243	38.0	2.5	/experiments/knapen_AOT/AOT_stimuli/rescaled_final/2060_fw.mp4	0.0	233.89850401878357	2.5003581047058105
40	205.76415514945984	pulse	1	t		38.0	2.5	/experiments/knapen_AOT/AOT_stimuli/rescaled_final/2060_fw.mp4	0.0	234.68223309516907	
40	207.36405897140503	pulse	1	t		38.0	2.5	/experiments/knapen_AOT/AOT_stimuli/rescaled_final/2060_fw.mp4	0.0	236.28213691711426	
40	207.48078417778015	fix_post	2		12	38.0	2.5	/experiments/knapen_AOT/AOT_stimuli/rescaled_final/2060_fw.mp4	0.0	236.39886212348938	0.10001897811889648
41	207.58080315589905	fix_pre	0		120	39.0	2.5	/experiments/knapen_AOT/AOT_stimuli/rescaled_final/1821_fw.mp4	0.0	236.49888110160828	1.0001978874206543
41	208.5810010433197	movie	1		244	39.0	2.5	/experiments/knapen_AOT/AOT_stimuli/rescaled_final/1821_fw.mp4	0.0	237.49907898902893	2.4919769763946533
41	208.96492719650269	pulse	1	t		39.0	2.5	/experiments/knapen_AOT/AOT_stimuli/rescaled_final/1821_fw.mp4	0.0	237.8830051422119	
41	210.5575680732727	pulse	1	t		39.0	2.5	/experiments/knapen_AOT/AOT_stimuli/rescaled_final/1821_fw.mp4	0.0	239.47564601898193	
41	211.07297801971436	fix_post	2		12	39.0	2.5	/experiments/knapen_AOT/AOT_stimuli/rescaled_final/1821_fw.mp4	0.0	239.99105596542358	0.10005307197570801
42	211.17303109169006	fix_pre	0		120	40.0	2.5	blank	1.0	240.0911090373993	1.000140905380249
42	212.15753507614136	pulse	0	t		40.0	2.5	blank	1.0	241.0756130218506	
42	212.1731719970703	movie	1		301	40.0	2.5	blank	1.0	241.09124994277954	2.508687973022461
42	213.7576940059662	pulse	1	t		40.0	2.5	blank	1.0	242.67577195167542	
42	214.68185997009277	fix_post	2		12	40.0	2.5	blank	1.0	243.599937915802	0.10003113746643066
43	214.7818911075592	fix_pre	0		120	41.0	2.5	/experiments/knapen_AOT/AOT_stimuli/rescaled_final/2164_rv.mp4	0.0	243.69996905326843	1.000166893005371
43	215.3579080104828	pulse	0	t		41.0	2.5	/experiments/knapen_AOT/AOT_stimuli/rescaled_final/2164_rv.mp4	0.0	244.27598595619202	
43	215.78205800056458	movie	1		243	41.0	2.5	/experiments/knapen_AOT/AOT_stimuli/rescaled_final/2164_rv.mp4	0.0	244.7001359462738	2.5003390312194824
43	216.9578320980072	pulse	1	t		41.0	2.5	/experiments/knapen_AOT/AOT_stimuli/rescaled_final/2164_rv.mp4	0.0	245.87591004371643	
43	218.28239703178406	fix_post	2		12	41.0	2.5	/experiments/knapen_AOT/AOT_stimuli/rescaled_final/2164_rv.mp4	0.0	247.2004749774933	0.100006103515625
44	218.38240313529968	fix_pre	0		120	42.0	2.5	/experiments/knapen_AOT/AOT_stimuli/rescaled_final/0726_rv.mp4	0.0	247.3004810810089	1.0001740455627441
44	218.5575590133667	pulse	0	t		42.0	2.5	/experiments/knapen_AOT/AOT_stimuli/rescaled_final/0726_rv.mp4	0.0	247.47563695907593	
44	219.38257718086243	movie	1		246	42.0	2.5	/experiments/knapen_AOT/AOT_stimuli/rescaled_final/0726_rv.mp4	0.0	248.30065512657166	2.500316858291626
44	220.15787410736084	pulse	1	t		42.0	2.5	/experiments/knapen_AOT/AOT_stimuli/rescaled_final/0726_rv.mp4	0.0	249.07595205307007	
44	221.75828504562378	pulse	1	t		42.0	2.5	/experiments/knapen_AOT/AOT_stimuli/rescaled_final/0726_rv.mp4	0.0	250.676362991333	
44	221.88289403915405	fix_post	2		12	42.0	2.5	/experiments/knapen_AOT/AOT_stimuli/rescaled_final/0726_rv.mp4	0.0	250.80097198486328	0.1000521183013916
45	221.98294615745544	fix_pre	0		120	43.0	2.5	/experiments/knapen_AOT/AOT_stimuli/rescaled_final/1636_fw.mp4	0.0	250.90102410316467	1.0001699924468994
45	222.98311614990234	movie	1		244	43.0	2.5	/experiments/knapen_AOT/AOT_stimuli/rescaled_final/1636_fw.mp4	0.0	251.90119409561157	2.4921388626098633
45	223.35840511322021	pulse	1	t		43.0	2.5	/experiments/knapen_AOT/AOT_stimuli/rescaled_final/1636_fw.mp4	0.0	252.27648305892944	
45	224.95859718322754	pulse	1	t		43.0	2.5	/experiments/knapen_AOT/AOT_stimuli/rescaled_final/1636_fw.mp4	0.0	253.87667512893677	
45	225.4752550125122	fix_post	2		12	43.0	2.5	/experiments/knapen_AOT/AOT_stimuli/rescaled_final/1636_fw.mp4	0.0	254.39333295822144	0.09994101524353027
46	225.57519602775574	fix_pre	0		119	44.0	2.5	/experiments/knapen_AOT/AOT_stimuli/rescaled_final/1240_rv.mp4	0.0	254.49327397346497	0.9918241500854492
46	226.55877804756165	pulse	0	t		44.0	2.5	/experiments/knapen_AOT/AOT_stimuli/rescaled_final/1240_rv.mp4	0.0	255.47685599327087	
46	226.5670201778412	movie	1		245	44.0	2.5	/experiments/knapen_AOT/AOT_stimuli/rescaled_final/1240_rv.mp4	0.0	255.48509812355042	2.508669853210449
46	228.15989208221436	pulse	1	t		44.0	2.5	/experiments/knapen_AOT/AOT_stimuli/rescaled_final/1240_rv.mp4	0.0	257.0779700279236	
46	229.07569003105164	fix_post	2		12	44.0	2.5	/experiments/knapen_AOT/AOT_stimuli/rescaled_final/1240_rv.mp4	0.0	257.99376797676086	0.10000395774841309
47	229.17569398880005	fix_pre	0		120	45.0	2.5	/experiments/knapen_AOT/AOT_stimuli/rescaled_final/0257_fw.mp4	0.0	258.0937719345093	1.00018310546875
47	229.75943613052368	pulse	0	t		45.0	2.5	/experiments/knapen_AOT/AOT_stimuli/rescaled_final/0257_fw.mp4	0.0	258.6775140762329	
47	230.1758770942688	movie	1		242	45.0	2.5	/experiments/knapen_AOT/AOT_stimuli/rescaled_final/0257_fw.mp4	0.0	259.093955039978	2.5005528926849365
47	231.35976219177246	pulse	1	t		45.0	2.5	/experiments/knapen_AOT/AOT_stimuli/rescaled_final/0257_fw.mp4	0.0	260.2778401374817	
47	232.67642998695374	fix_post	2		12	45.0	2.5	/experiments/knapen_AOT/AOT_stimuli/rescaled_final/0257_fw.mp4	0.0	261.59450793266296	0.09979820251464844
48	232.77622818946838	fix_pre	0		120	46.0	2.5	/experiments/knapen_AOT/AOT_stimuli/rescaled_final/1753_fw.mp4	0.0	261.6943061351776	1.000152826309204
48	232.95974016189575	pulse	0	t		46.0	2.5	/experiments/knapen_AOT/AOT_stimuli/rescaled_final/1753_fw.mp4	0.0	261.877818107605	
48	233.7763810157776	movie	1		243	46.0	2.5	/experiments/knapen_AOT/AOT_stimuli/rescaled_final/1753_fw.mp4	0.0	262.6944589614868	2.5003530979156494
48	234.56011509895325	pulse	1	t		46.0	2.5	/experiments/knapen_AOT/AOT_stimuli/rescaled_final/1753_fw.mp4	0.0	263.4781930446625	
48	236.16016817092896	pulse	1	t		46.0	2.5	/experiments/knapen_AOT/AOT_stimuli/rescaled_final/1753_fw.mp4	0.0	265.0782461166382	
48	236.27673411369324	fix_post	2		11	46.0	2.5	/experiments/knapen_AOT/AOT_stimuli/rescaled_final/1753_fw.mp4	0.0	265.19481205940247	0.09170699119567871
49	236.36844110488892	fix_pre	0		121	47.0	2.5	blank	1.0	265.28651905059814	1.008457899093628
49	237.37689900398254	movie	1		299	47.0	2.5	blank	1.0	266.2949769496918	2.4922220706939697
49	237.76053404808044	pulse	1	t		47.0	2.5	blank	1.0	266.6786119937897	
49	239.3607029914856	pulse	1	t		47.0	2.5	blank	1.0	268.2787809371948	
49	239.8691210746765	fix_post	2		12	47.0	2.5	blank	1.0	268.78719902038574	0.09985709190368652
50	239.9689781665802	fix_pre	0		120	48.0	2.5	/experiments/knapen_AOT/AOT_stimuli/rescaled_final/0005_fw.mp4	0.0	268.88705611228943	1.0001440048217773
50	240.96094799041748	pulse	0	t		48.0	2.5	/experiments/knapen_AOT/AOT_stimuli/rescaled_final/0005_fw.mp4	0.0	269.8790259361267	
50	240.96912217140198	movie	1		241	48.0	2.5	/experiments/knapen_AOT/AOT_stimuli/rescaled_final/0005_fw.mp4	0.0	269.8872001171112	2.5087008476257324
50	242.56213998794556	pulse	1	t		48.0	2.5	/experiments/knapen_AOT/AOT_stimuli/rescaled_final/0005_fw.mp4	0.0	271.4802179336548	
50	243.4778230190277	fix_post	2		12	48.0	2.5	/experiments/knapen_AOT/AOT_stimuli/rescaled_final/0005_fw.mp4	0.0	272.39590096473694	0.10001897811889648
51	243.5778419971466	fix_pre	0		120	49.0	2.5	/experiments/knapen_AOT/AOT_stimuli/rescaled_final/1191_rv.mp4	0.0	272.49591994285583	1.0001771450042725
51	244.16143012046814	pulse	0	t		49.0	2.5	/experiments/knapen_AOT/AOT_stimuli/rescaled_final/1191_rv.mp4	0.0	273.07950806617737	
51	244.57801914215088	movie	1		244	49.0	2.5	/experiments/knapen_AOT/AOT_stimuli/rescaled_final/1191_rv.mp4	0.0	273.4960970878601	2.500335931777954
51	245.76174306869507	pulse	1	t		49.0	2.5	/experiments/knapen_AOT/AOT_stimuli/rescaled_final/1191_rv.mp4	0.0	274.6798210144043	
51	247.07835507392883	fix_post	2		12	49.0	2.5	/experiments/knapen_AOT/AOT_stimuli/rescaled_final/1191_rv.mp4	0.0	275.99643301963806	0.10006403923034668
52	247.17841911315918	fix_pre	0		120	50.0	2.5	/experiments/knapen_AOT/AOT_stimuli/rescaled_final/1017_rv.mp4	0.0	276.0964970588684	1.0001399517059326
52	247.36193919181824	pulse	0	t		50.0	2.5	/experiments/knapen_AOT/AOT_stimuli/rescaled_final/1017_rv.mp4	0.0	276.28001713752747	
52	248.1785590648651	movie	1		245	50.0	2.5	/experiments/knapen_AOT/AOT_stimuli/rescaled_final/1017_rv.mp4	0.0	277.09663701057434	2.5003390312194824
52	248.96225905418396	pulse	1	t		50.0	2.5	/experiments/knapen_AOT/AOT_stimuli/rescaled_final/1017_rv.mp4	0.0	277.8803369998932	
52	250.55994701385498	pulse	1	t		50.0	2.5	/experiments/knapen_AOT/AOT_stimuli/rescaled_final/1017_rv.mp4	0.0	279.4780249595642	
52	250.6788980960846	fix_post	2		12	50.0	2.5	/experiments/knapen_AOT/AOT_stimuli/rescaled_final/1017_rv.mp4	0.0	279.5969760417938	0.10005807876586914
53	250.77895617485046	fix_pre	0		119	51.0	2.5	/experiments/knapen_AOT/AOT_stimuli/rescaled_final/1103_fw.mp4	0.0	279.6970341205597	0.9917697906494141
53	251.77072596549988	movie	1		243	51.0	2.5	/experiments/knapen_AOT/AOT_stimuli/rescaled_final/1103_fw.mp4	0.0	280.6888039112091	2.5003821849823
53	252.16280698776245	pulse	1	t		51.0	2.5	/experiments/knapen_AOT/AOT_stimuli/rescaled_final/1103_fw.mp4	0.0	281.0808849334717	
53	253.76292204856873	pulse	1	t		51.0	2.5	/experiments/knapen_AOT/AOT_stimuli/rescaled_final/1103_fw.mp4	0.0	282.68099999427795	
53	254.27110815048218	fix_post	2		12	51.0	2.5	/experiments/knapen_AOT/AOT_stimuli/rescaled_final/1103_fw.mp4	0.0	283.1891860961914	0.09999895095825195
54	254.37110710144043	fix_pre	0		120	52.0	2.5	/experiments/knapen_AOT/AOT_stimuli/rescaled_final/1191_fw.mp4	0.0	283.28918504714966	1.0001819133758545
54	255.36310601234436	pulse	0	t		52.0	2.5	/experiments/knapen_AOT/AOT_stimuli/rescaled_final/1191_fw.mp4	0.0	284.2811839580536	
54	255.37128901481628	movie	1		245	52.0	2.5	/experiments/knapen_AOT/AOT_stimuli/rescaled_final/1191_fw.mp4	0.0	284.2893669605255	2.508679151535034
54	256.96444606781006	pulse	1	t		52.0	2.5	/experiments/knapen_AOT/AOT_stimuli/rescaled_final/1191_fw.mp4	0.0	285.8825240135193	
54	257.8799681663513	fix_post	2		12	52.0	2.5	/experiments/knapen_AOT/AOT_stimuli/rescaled_final/1191_fw.mp4	0.0	286.79804611206055	0.1000368595123291
55	257.98000502586365	fix_pre	0		120	53.0	2.5	/experiments/knapen_AOT/AOT_stimuli/rescaled_final/0724_rv.mp4	0.0	286.8980829715729	1.0001270771026611
55	258.56359696388245	pulse	0	t		53.0	2.5	/experiments/knapen_AOT/AOT_stimuli/rescaled_final/0724_rv.mp4	0.0	287.4816749095917	
55	258.9801321029663	movie	1		247	53.0	2.5	/experiments/knapen_AOT/AOT_stimuli/rescaled_final/0724_rv.mp4	0.0	287.89821004867554	2.500382900238037
55	260.1639530658722	pulse	1	t		53.0	2.5	/experiments/knapen_AOT/AOT_stimuli/rescaled_final/0724_rv.mp4	0.0	289.0820310115814	
55	261.48051500320435	fix_post	2		12	53.0	2.5	/experiments/knapen_AOT/AOT_stimuli/rescaled_final/0724_rv.mp4	0.0	290.3985929489136	0.100006103515625
56	261.58052110671997	fix_pre	0		120	54.0	2.5	blank	1.0	290.4985990524292	1.0001840591430664
56	261.7640571594238	pulse	0	t		54.0	2.5	blank	1.0	290.68213510513306	
56	262.58070516586304	movie	1		300	54.0	2.5	blank	1.0	291.49878311157227	2.5003650188446045
56	263.3569030761719	pulse	1	t		54.0	2.5	blank	1.0	292.2749810218811	
56	264.9570450782776	pulse	1	t		54.0	2.5	blank	1.0	293.8751230239868	
56	265.08107018470764	fix_post	2		12	54.0	2.5	blank	1.0	293.99914813041687	0.09999990463256836
57	265.1810700893402	fix_pre	0		120	55.0	2.5	/experiments/knapen_AOT/AOT_stimuli/rescaled_final/0494_rv.mp4	0.0	294.09914803504944	1.0001420974731445
57	266.18121218681335	movie	1		242	55.0	2.5	/experiments/knapen_AOT/AOT_stimuli/rescaled_final/0494_rv.mp4	0.0	295.0992901325226	2.4920458793640137
57	266.5697281360626	pulse	1	t		55.0	2.5	/experiments/knapen_AOT/AOT_stimuli/rescaled_final/0494_rv.mp4	0.0	295.48780608177185	
57	268.1576421260834	pulse	1	t		55.0	2.5	/experiments/knapen_AOT/AOT_stimuli/rescaled_final/0494_rv.mp4	0.0	297.0757200717926	
57	268.67325806617737	fix_post	2		12	55.0	2.5	/experiments/knapen_AOT/AOT_stimuli/rescaled_final/0494_rv.mp4	0.0	297.5913360118866	0.10005807876586914
58	268.77331614494324	fix_pre	0		119	56.0	2.5	/experiments/knapen_AOT/AOT_stimuli/rescaled_final/1955_fw.mp4	0.0	297.69139409065247	0.9917709827423096
58	269.75695419311523	pulse	0	t		56.0	2.5	/experiments/knapen_AOT/AOT_stimuli/rescaled_final/1955_fw.mp4	0.0	298.67503213882446	
58	269.76508712768555	movie	1		244	56.0	2.5	/experiments/knapen_AOT/AOT_stimuli/rescaled_final/1955_fw.mp4	0.0	298.6831650733948	2.5086870193481445
58	271.3575990200043	pulse	1	t		56.0	2.5	/experiments/knapen_AOT/AOT_stimuli/rescaled_final/1955_fw.mp4	0.0	300.2756769657135	
58	272.2737741470337	fix_post	2		12	56.0	2.5	/experiments/knapen_AOT/AOT_stimuli/rescaled_final/1955_fw.mp4	0.0	301.1918520927429	0.1000518798828125
59	272.3738260269165	fix_pre	0		120	57.0	2.5	/experiments/knapen_AOT/AOT_stimuli/rescaled_final/1957_fw.mp4	0.0	301.29190397262573	1.0001349449157715
59	272.95751214027405	pulse	0	t		57.0	2.5	/experiments/knapen_AOT/AOT_stimuli/rescaled_final/1957_fw.mp4	0.0	301.8755900859833	
59	273.3739609718323	movie	1		243	57.0	2.5	/experiments/knapen_AOT/AOT_stimuli/rescaled_final/1957_fw.mp4	0.0	302.2920389175415	2.500399112701416
59	274.5577530860901	pulse	1	t		57.0	2.5	/experiments/knapen_AOT/AOT_stimuli/rescaled_final/1957_fw.mp4	0.0	303.4758310317993	
59	275.8743600845337	fix_post	2		12	57.0	2.5	/experiments/knapen_AOT/AOT_stimuli/rescaled_final/1957_fw.mp4	0.0	304.7924380302429	0.10000395774841309
60	275.9743640422821	fix_pre	0		120	58.0	2.5	/experiments/knapen_AOT/AOT_stimuli/rescaled_final/0588_fw.mp4	0.0	304.89244198799133	1.0001380443572998
60	276.15800619125366	pulse	0	t		58.0	2.5	/experiments/knapen_AOT/AOT_stimuli/rescaled_final/0588_fw.mp4	0.0	305.0760841369629	
60	276.9745020866394	movie	1		244	58.0	2.5	/experiments/knapen_AOT/AOT_stimuli/rescaled_final/0588_fw.mp4	0.0	305.89258003234863	2.5003819465637207
60	277.75820112228394	pulse	1	t		58.0	2.5	/experiments/knapen_AOT/AOT_stimuli/rescaled_final/0588_fw.mp4	0.0	306.67627906799316	
60	279.35821199417114	pulse	1	t		58.0	2.5	/experiments/knapen_AOT/AOT_stimuli/rescaled_final/0588_fw.mp4	0.0	308.27628993988037	
60	279.4748840332031	fix_post	2		12	58.0	2.5	/experiments/knapen_AOT/AOT_stimuli/rescaled_final/0588_fw.mp4	0.0	308.39296197891235	0.10002708435058594
61	279.5749111175537	fix_pre	0		120	59.0	2.5	/experiments/knapen_AOT/AOT_stimuli/rescaled_final/0079_rv.mp4	0.0	308.49298906326294	1.0001440048217773
61	280.5750551223755	movie	1		242	59.0	2.5	/experiments/knapen_AOT/AOT_stimuli/rescaled_final/0079_rv.mp4	0.0	309.4931330680847	2.492032051086426
61	280.9598271846771	pulse	1	t		59.0	2.5	/experiments/knapen_AOT/AOT_stimuli/rescaled_final/0079_rv.mp4	0.0	309.87790513038635	
61	282.558984041214	pulse	1	t		59.0	2.5	/experiments/knapen_AOT/AOT_stimuli/rescaled_final/0079_rv.mp4	0.0	311.4770619869232	
61	283.0670871734619	fix_post	2		12	59.0	2.5	/experiments/knapen_AOT/AOT_stimuli/rescaled_final/0079_rv.mp4	0.0	311.98516511917114	0.10000085830688477
62	283.1670880317688	fix_pre	0		120	60.0	2.5	/experiments/knapen_AOT/AOT_stimuli/rescaled_final/0437_fw.mp4	0.0	312.085165977478	1.000169038772583
62	284.15909004211426	pulse	0	t		60.0	2.5	/experiments/knapen_AOT/AOT_stimuli/rescaled_final/0437_fw.mp4	0.0	313.0771679878235	
62	284.1672570705414	movie	1		244	60.0	2.5	/experiments/knapen_AOT/AOT_stimuli/rescaled_final/0437_fw.mp4	0.0	313.0853350162506	2.508686065673828
62	285.76068806648254	pulse	1	t		60.0	2.5	/experiments/knapen_AOT/AOT_stimuli/rescaled_final/0437_fw.mp4	0.0	314.6787660121918	
62	286.6759431362152	fix_post	2		12	60.0	2.5	/experiments/knapen_AOT/AOT_stimuli/rescaled_final/0437_fw.mp4	0.0	315.59402108192444	0.10000896453857422
63	286.7759521007538	fix_pre	0		120	61.0	2.5	blank	1.0	315.694030046463	1.0002620220184326
63	287.3595390319824	pulse	0	t		61.0	2.5	blank	1.0	316.27761697769165	
63	287.7762141227722	movie	1		300	61.0	2.5	blank	1.0	316.69429206848145	2.500298023223877
63	288.9599521160126	pulse	1	t		61.0	2.5	blank	1.0	317.8780300617218	
63	290.2765121459961	fix_post	2		12	61.0	2.5	blank	1.0	319.1945900917053	0.1000058650970459
64	290.37651801109314	fix_pre	0		120	62.0	2.5	/experiments/knapen_AOT/AOT_stimuli/rescaled_final/1424_fw.mp4	0.0	319.29459595680237	1.0001540184020996
64	290.5601580142975	pulse	0	t		62.0	2.5	/experiments/knapen_AOT/AOT_stimuli/rescaled_final/1424_fw.mp4	0.0	319.4782359600067	
64	291.37667202949524	movie	1		244	62.0	2.5	/experiments/knapen_AOT/AOT_stimuli/rescaled_final/1424_fw.mp4	0.0	320.29474997520447	2.500394105911255
64	292.1603491306305	pulse	1	t		62.0	2.5	/experiments/knapen_AOT/AOT_stimuli/rescaled_final/1424_fw.mp4	0.0	321.0784270763397	
64	293.7606370449066	pulse	1	t		62.0	2.5	/experiments/knapen_AOT/AOT_stimuli/rescaled_final/1424_fw.mp4	0.0	322.67871499061584	
64	293.8770661354065	fix_post	2		12	62.0	2.5	/experiments/knapen_AOT/AOT_stimuli/rescaled_final/1424_fw.mp4	0.0	322.7951440811157	0.1000070571899414
65	293.97707319259644	fix_pre	0		120	63.0	2.5	/experiments/knapen_AOT/AOT_stimuli/rescaled_final/0221_rv.mp4	0.0	322.89515113830566	1.0001108646392822
65	294.9771840572357	movie	1		242	63.0	2.5	/experiments/knapen_AOT/AOT_stimuli/rescaled_final/0221_rv.mp4	0.0	323.89526200294495	2.4920461177825928
65	295.3611011505127	pulse	1	t		63.0	2.5	/experiments/knapen_AOT/AOT_stimuli/rescaled_final/0221_rv.mp4	0.0	324.2791790962219	
65	296.96112608909607	pulse	1	t		63.0	2.5	/experiments/knapen_AOT/AOT_stimuli/rescaled_final/0221_rv.mp4	0.0	325.8792040348053	
65	297.4692301750183	fix_post	2		12	63.0	2.5	/experiments/knapen_AOT/AOT_stimuli/rescaled_final/0221_rv.mp4	0.0	326.38730812072754	0.10000991821289062
66	297.5692400932312	fix_pre	0		120	64.0	2.5	/experiments/knapen_AOT/AOT_stimuli/rescaled_final/1983_fw.mp4	0.0	326.48731803894043	1.000135898590088
66	298.5613811016083	pulse	0	t		64.0	2.5	/experiments/knapen_AOT/AOT_stimuli/rescaled_final/1983_fw.mp4	0.0	327.4794590473175	
66	298.5693759918213	movie	1		245	64.0	2.5	/experiments/knapen_AOT/AOT_stimuli/rescaled_final/1983_fw.mp4	0.0	327.4874539375305	2.508754014968872
66	300.1623430252075	pulse	1	t		64.0	2.5	/experiments/knapen_AOT/AOT_stimuli/rescaled_final/1983_fw.mp4	0.0	329.08042097091675	
66	301.07813000679016	fix_post	2		12	64.0	2.5	/experiments/knapen_AOT/AOT_stimuli/rescaled_final/1983_fw.mp4	0.0	329.9962079524994	0.09997200965881348
67	301.178102016449	fix_pre	0		120	65.0	2.5	/experiments/knapen_AOT/AOT_stimuli/rescaled_final/1106_fw.mp4	0.0	330.0961799621582	1.0001640319824219
67	301.7617561817169	pulse	0	t		65.0	2.5	/experiments/knapen_AOT/AOT_stimuli/rescaled_final/1106_fw.mp4	0.0	330.67983412742615	
67	302.1782660484314	movie	1		243	65.0	2.5	/experiments/knapen_AOT/AOT_stimuli/rescaled_final/1106_fw.mp4	0.0	331.0963439941406	2.5003859996795654
67	303.36208319664	pulse	1	t		65.0	2.5	/experiments/knapen_AOT/AOT_stimuli/rescaled_final/1106_fw.mp4	0.0	332.28016114234924	
67	304.67865204811096	fix_post	2		12	65.0	2.5	/experiments/knapen_AOT/AOT_stimuli/rescaled_final/1106_fw.mp4	0.0	333.5967299938202	0.10000896453857422
68	304.77866101264954	fix_pre	0		120	66.0	2.5	/experiments/knapen_AOT/AOT_stimuli/rescaled_final/0643_rv.mp4	0.0	333.69673895835876	1.0001411437988281
68	304.96234011650085	pulse	0	t		66.0	2.5	/experiments/knapen_AOT/AOT_stimuli/rescaled_final/0643_rv.mp4	0.0	333.8804180622101	
68	305.77880215644836	movie	1		243	66.0	2.5	/experiments/knapen_AOT/AOT_stimuli/rescaled_final/0643_rv.mp4	0.0	334.6968801021576	2.50036883354187
68	306.5625309944153	pulse	1	t		66.0	2.5	/experiments/knapen_AOT/AOT_stimuli/rescaled_final/0643_rv.mp4	0.0	335.4806089401245	
68	308.1627471446991	pulse	1	t		66.0	2.5	/experiments/knapen_AOT/AOT_stimuli/rescaled_final/0643_rv.mp4	0.0	337.0808250904083	
68	308.27917098999023	fix_post	2		12	66.0	2.5	/experiments/knapen_AOT/AOT_stimuli/rescaled_final/0643_rv.mp4	0.0	337.19724893569946	0.10002017021179199
69	308.379191160202	fix_pre	0		120	67.0	2.5	/experiments/knapen_AOT/AOT_stimuli/rescaled_final/0378_fw.mp4	0.0	337.29726910591125	1.000140905380249
69	309.3793320655823	movie	1		244	67.0	2.5	/experiments/knapen_AOT/AOT_stimuli/rescaled_final/0378_fw.mp4	0.0	338.2974100112915	2.492033004760742
69	309.7631239891052	pulse	1	t		67.0	2.5	/experiments/knapen_AOT/AOT_stimuli/rescaled_final/0378_fw.mp4	0.0	338.68120193481445	
69	311.36318802833557	pulse	1	t		67.0	2.5	/experiments/knapen_AOT/AOT_stimuli/rescaled_final/0378_fw.mp4	0.0	340.2812659740448	
69	311.871365070343	fix_post	2		12	67.0	2.5	/experiments/knapen_AOT/AOT_stimuli/rescaled_final/0378_fw.mp4	0.0	340.78944301605225	0.1000070571899414
70	311.97137212753296	fix_pre	0		120	68.0	2.5	blank	1.0	340.8894500732422	1.0001540184020996
70	312.9634690284729	pulse	0	t		68.0	2.5	blank	1.0	341.88154697418213	
70	312.97152614593506	movie	1		301	68.0	2.5	blank	1.0	341.8896040916443	2.508739948272705
70	314.56358098983765	pulse	1	t		68.0	2.5	blank	1.0	343.4816589355469	
70	315.48026609420776	fix_post	2		12	68.0	2.5	blank	1.0	344.398344039917	0.09997701644897461
71	315.58024311065674	fix_pre	0		120	69.0	2.5	/experiments/knapen_AOT/AOT_stimuli/rescaled_final/0594_fw.mp4	0.0	344.49832105636597	1.000166893005371
71	316.16397309303284	pulse	0	t		69.0	2.5	/experiments/knapen_AOT/AOT_stimuli/rescaled_final/0594_fw.mp4	0.0	345.08205103874207	
71	316.5804100036621	movie	1		243	69.0	2.5	/experiments/knapen_AOT/AOT_stimuli/rescaled_final/0594_fw.mp4	0.0	345.49848794937134	2.5004241466522217
71	317.76433396339417	pulse	1	t		69.0	2.5	/experiments/knapen_AOT/AOT_stimuli/rescaled_final/0594_fw.mp4	0.0	346.6824119091034	
71	319.08083415031433	fix_post	2		12	69.0	2.5	/experiments/knapen_AOT/AOT_stimuli/rescaled_final/0594_fw.mp4	0.0	347.99891209602356	0.09995603561401367
72	319.18079018592834	fix_pre	0		120	70.0	2.5	/experiments/knapen_AOT/AOT_stimuli/rescaled_final/1502_fw.mp4	0.0	348.0988681316376	1.0001959800720215
72	319.36453318595886	pulse	0	t		70.0	2.5	/experiments/knapen_AOT/AOT_stimuli/rescaled_final/1502_fw.mp4	0.0	348.2826111316681	
72	320.18098616600037	movie	1		246	70.0	2.5	/experiments/knapen_AOT/AOT_stimuli/rescaled_final/1502_fw.mp4	0.0	349.0990641117096	2.500339984893799
72	320.9645869731903	pulse	1	t		70.0	2.5	/experiments/knapen_AOT/AOT_stimuli/rescaled_final/1502_fw.mp4	0.0	349.88266491889954	
72	322.55735206604004	pulse	1	t		70.0	2.5	/experiments/knapen_AOT/AOT_stimuli/rescaled_final/1502_fw.mp4	0.0	351.47543001174927	
72	322.68132615089417	fix_post	2		12	70.0	2.5	/experiments/knapen_AOT/AOT_stimuli/rescaled_final/1502_fw.mp4	0.0	351.5994040966034	0.10001683235168457
73	322.78134298324585	fix_pre	0		120	71.0	2.5	/experiments/knapen_AOT/AOT_stimuli/rescaled_final/2149_fw.mp4	0.0	351.6994209289551	1.0001451969146729
73	323.7814881801605	movie	1		242	71.0	2.5	/experiments/knapen_AOT/AOT_stimuli/rescaled_final/2149_fw.mp4	0.0	352.69956612586975	2.4920148849487305
73	324.1663851737976	pulse	1	t		71.0	2.5	/experiments/knapen_AOT/AOT_stimuli/rescaled_final/2149_fw.mp4	0.0	353.08446311950684	
73	325.7580101490021	pulse	1	t		71.0	2.5	/experiments/knapen_AOT/AOT_stimuli/rescaled_final/2149_fw.mp4	0.0	354.6760880947113	
73	326.27350306510925	fix_post	2		12	71.0	2.5	/experiments/knapen_AOT/AOT_stimuli/rescaled_final/2149_fw.mp4	0.0	355.1915810108185	0.10002994537353516
74	326.3735330104828	fix_pre	0		120	72.0	2.5	/experiments/knapen_AOT/AOT_stimuli/rescaled_final/0079_rv.mp4	0.0	355.291610956192	1.000162124633789
74	327.3581120967865	pulse	0	t		72.0	2.5	/experiments/knapen_AOT/AOT_stimuli/rescaled_final/0079_rv.mp4	0.0	356.2761900424957	
74	327.3736951351166	movie	1		244	72.0	2.5	/experiments/knapen_AOT/AOT_stimuli/rescaled_final/0079_rv.mp4	0.0	356.2917730808258	2.5087368488311768
74	328.97031903266907	pulse	1	t		72.0	2.5	/experiments/knapen_AOT/AOT_stimuli/rescaled_final/0079_rv.mp4	0.0	357.8883969783783	
74	329.88243198394775	fix_post	2		12	72.0	2.5	/experiments/knapen_AOT/AOT_stimuli/rescaled_final/0079_rv.mp4	0.0	358.800509929657	0.09999299049377441
75	329.9824249744415	fix_pre	0		120	73.0	2.5	/experiments/knapen_AOT/AOT_stimuli/rescaled_final/1519_rv.mp4	0.0	358.90050292015076	1.0001230239868164
75	330.5577940940857	pulse	0	t		73.0	2.5	/experiments/knapen_AOT/AOT_stimuli/rescaled_final/1519_rv.mp4	0.0	359.4758720397949	
75	330.98254799842834	movie	1		243	73.0	2.5	/experiments/knapen_AOT/AOT_stimuli/rescaled_final/1519_rv.mp4	0.0	359.9006259441376	2.5004100799560547
75	332.1621341705322	pulse	1	t		73.0	2.5	/experiments/knapen_AOT/AOT_stimuli/rescaled_final/1519_rv.mp4	0.0	361.08021211624146	
75	333.4829580783844	fix_post	2		12	73.0	2.5	/experiments/knapen_AOT/AOT_stimuli/rescaled_final/1519_rv.mp4	0.0	362.4010360240936	0.10010695457458496
76	333.583065032959	fix_pre	0		120	74.0	2.5	/experiments/knapen_AOT/AOT_stimuli/rescaled_final/2002_fw.mp4	0.0	362.5011429786682	1.000082015991211
76	333.7582151889801	pulse	0	t		74.0	2.5	/experiments/knapen_AOT/AOT_stimuli/rescaled_final/2002_fw.mp4	0.0	362.67629313468933	
76	334.5831470489502	movie	1		244	74.0	2.5	/experiments/knapen_AOT/AOT_stimuli/rescaled_final/2002_fw.mp4	0.0	363.5012249946594	2.5003631114959717
76	335.3585660457611	pulse	1	t		74.0	2.5	/experiments/knapen_AOT/AOT_stimuli/rescaled_final/2002_fw.mp4	0.0	364.27664399147034	
76	336.9586169719696	pulse	1	t		74.0	2.5	/experiments/knapen_AOT/AOT_stimuli/rescaled_final/2002_fw.mp4	0.0	365.87669491767883	
76	337.08351016044617	fix_post	2		12	74.0	2.5	/experiments/knapen_AOT/AOT_stimuli/rescaled_final/2002_fw.mp4	0.0	366.0015881061554	0.09998798370361328
77	337.1834981441498	fix_pre	0		119	75.0	2.5	/experiments/knapen_AOT/AOT_stimuli/rescaled_final/1011_fw.mp4	0.0	366.101576089859	0.9918508529663086
77	338.1753489971161	movie	1		244	75.0	2.5	/experiments/knapen_AOT/AOT_stimuli/rescaled_final/1011_fw.mp4	0.0	367.0934269428253	2.5003020763397217
77	338.56314301490784	pulse	1	t		75.0	2.5	/experiments/knapen_AOT/AOT_stimuli/rescaled_final/1011_fw.mp4	0.0	367.48122096061707	
77	340.15910816192627	pulse	1	t		75.0	2.5	/experiments/knapen_AOT/AOT_stimuli/rescaled_final/1011_fw.mp4	0.0	369.0771861076355	
77	340.6756510734558	fix_post	2		12	75.0	2.5	/experiments/knapen_AOT/AOT_stimuli/rescaled_final/1011_fw.mp4	0.0	369.59372901916504	0.10005402565002441
78	340.77570509910583	fix_pre	0		119	76.0	2.5	blank	1.0	369.69378304481506	0.9917938709259033
78	341.75943517684937	pulse	0	t		76.0	2.5	blank	1.0	370.6775131225586	
78	341.76749897003174	movie	1		301	76.0	2.5	blank	1.0	370.68557691574097	2.508740186691284
78	343.35958218574524	pulse	1	t		76.0	2.5	blank	1.0	372.27766013145447	
78	344.276239156723	fix_post	2		12	76.0	2.5	blank	1.0	373.19431710243225	0.10001802444458008
79	344.3762571811676	fix_pre	0		120	77.0	2.5	/experiments/knapen_AOT/AOT_stimuli/rescaled_final/0425_rv.mp4	0.0	373.29433512687683	1.000135898590088
79	344.95987606048584	pulse	0	t		77.0	2.5	/experiments/knapen_AOT/AOT_stimuli/rescaled_final/0425_rv.mp4	0.0	373.87795400619507	
79	345.3763930797577	movie	1		245	77.0	2.5	/experiments/knapen_AOT/AOT_stimuli/rescaled_final/0425_rv.mp4	0.0	374.2944710254669	2.500351905822754
79	346.5601179599762	pulse	1	t		77.0	2.5	/experiments/knapen_AOT/AOT_stimuli/rescaled_final/0425_rv.mp4	0.0	375.4781959056854	
79	347.87674498558044	fix_post	2		12	77.0	2.5	/experiments/knapen_AOT/AOT_stimuli/rescaled_final/0425_rv.mp4	0.0	376.7948229312897	0.10004210472106934
80	347.9767870903015	fix_pre	0		120	78.0	2.5	/experiments/knapen_AOT/AOT_stimuli/rescaled_final/2060_rv.mp4	0.0	376.89486503601074	1.0001220703125
80	348.1603960990906	pulse	0	t		78.0	2.5	/experiments/knapen_AOT/AOT_stimuli/rescaled_final/2060_rv.mp4	0.0	377.0784740447998	
80	348.976909160614	movie	1		244	78.0	2.5	/experiments/knapen_AOT/AOT_stimuli/rescaled_final/2060_rv.mp4	0.0	377.89498710632324	2.500365972518921
80	349.76063108444214	pulse	1	t		78.0	2.5	/experiments/knapen_AOT/AOT_stimuli/rescaled_final/2060_rv.mp4	0.0	378.67870903015137	
80	351.36105513572693	pulse	1	t		78.0	2.5	/experiments/knapen_AOT/AOT_stimuli/rescaled_final/2060_rv.mp4	0.0	380.27913308143616	
80	351.47727513313293	fix_post	2		12	78.0	2.5	/experiments/knapen_AOT/AOT_stimuli/rescaled_final/2060_rv.mp4	0.0	380.39535307884216	0.10003304481506348
81	351.577308177948	fix_pre	0		120	79.0	2.5	/experiments/knapen_AOT/AOT_stimuli/rescaled_final/1802_rv.mp4	0.0	380.4953861236572	1.0001788139343262
81	352.5774869918823	movie	1		242	79.0	2.5	/experiments/knapen_AOT/AOT_stimuli/rescaled_final/1802_rv.mp4	0.0	381.49556493759155	2.4920241832733154
81	352.9619550704956	pulse	1	t		79.0	2.5	/experiments/knapen_AOT/AOT_stimuli/rescaled_final/1802_rv.mp4	0.0	381.88003301620483	
81	354.5612471103668	pulse	1	t		79.0	2.5	/experiments/knapen_AOT/AOT_stimuli/rescaled_final/1802_rv.mp4	0.0	383.47932505607605	
81	355.06951117515564	fix_post	2		12	79.0	2.5	/experiments/knapen_AOT/AOT_stimuli/rescaled_final/1802_rv.mp4	0.0	383.98758912086487	0.10002589225769043
82	355.16953706741333	fix_pre	0		120	80.0	2.5	/experiments/knapen_AOT/AOT_stimuli/rescaled_final/0105_fw.mp4	0.0	384.08761501312256	1.0001249313354492
82	356.1615581512451	pulse	0	t		80.0	2.5	/experiments/knapen_AOT/AOT_stimuli/rescaled_final/0105_fw.mp4	0.0	385.07963609695435	
82	356.1696619987488	movie	1		245	80.0	2.5	/experiments/knapen_AOT/AOT_stimuli/rescaled_final/0105_fw.mp4	0.0	385.087739944458	2.5086851119995117
82	357.7624809741974	pulse	1	t		80.0	2.5	/experiments/knapen_AOT/AOT_stimuli/rescaled_final/0105_fw.mp4	0.0	386.6805589199066	
82	358.6783471107483	fix_post	2		12	80.0	2.5	/experiments/knapen_AOT/AOT_stimuli/rescaled_final/0105_fw.mp4	0.0	387.5964250564575	0.10002493858337402
83	358.77837204933167	fix_pre	0		120	81.0	2.5	/experiments/knapen_AOT/AOT_stimuli/rescaled_final/0129_rv.mp4	0.0	387.6964499950409	1.0001730918884277
83	359.3621230125427	pulse	0	t		81.0	2.5	/experiments/knapen_AOT/AOT_stimuli/rescaled_final/0129_rv.mp4	0.0	388.28020095825195	
83	359.7785451412201	movie	1		243	81.0	2.5	/experiments/knapen_AOT/AOT_stimuli/rescaled_final/0129_rv.mp4	0.0	388.6966230869293	2.5003788471221924
83	360.96225905418396	pulse	1	t		81.0	2.5	/experiments/knapen_AOT/AOT_stimuli/rescaled_final/0129_rv.mp4	0.0	389.8803369998932	
83	362.2789239883423	fix_post	2		10	81.0	2.5	/experiments/knapen_AOT/AOT_stimuli/rescaled_final/0129_rv.mp4	0.0	391.1970019340515	0.09998106956481934
84	362.3789050579071	fix_pre	0		120	82.0	2.5	/experiments/knapen_AOT/AOT_stimuli/rescaled_final/1988_fw.mp4	0.0	391.29698300361633	1.000196933746338
84	362.5624740123749	pulse	0	t		82.0	2.5	/experiments/knapen_AOT/AOT_stimuli/rescaled_final/1988_fw.mp4	0.0	391.4805519580841	
84	363.37910199165344	movie	1		246	82.0	2.5	/experiments/knapen_AOT/AOT_stimuli/rescaled_final/1988_fw.mp4	0.0	392.29717993736267	2.5003340244293213
84	364.1627070903778	pulse	1	t		82.0	2.5	/experiments/knapen_AOT/AOT_stimuli/rescaled_final/1988_fw.mp4	0.0	393.08078503608704	
84	365.76307702064514	pulse	1	t		82.0	2.5	/experiments/knapen_AOT/AOT_stimuli/rescaled_final/1988_fw.mp4	0.0	394.68115496635437	
84	365.87943601608276	fix_post	2		12	82.0	2.5	/experiments/knapen_AOT/AOT_stimuli/rescaled_final/1988_fw.mp4	0.0	394.797513961792	0.10001015663146973
85	365.97944617271423	fix_pre	0		120	83.0	2.5	blank	1.0	394.89752411842346	1.000140905380249
85	366.9795870780945	movie	1		299	83.0	2.5	blank	1.0	395.8976650238037	2.492079019546509
85	367.363233089447	pulse	1	t		83.0	2.5	blank	1.0	396.28131103515625	
85	368.96337699890137	pulse	1	t		83.0	2.5	blank	1.0	397.8814549446106	
85	369.471666097641	fix_post	2		12	83.0	2.5	blank	1.0	398.3897440433502	0.09997296333312988
87	369.5716390609741	stim	0		1716					398.48971700668335	14.302263975143433
87	370.5636670589447	pulse	0	t						399.48174500465393	
87	372.16394114494324	pulse	0	t						401.08201909065247	
87	373.7568919658661	pulse	0	t						402.6749699115753	
87	375.35706305503845	pulse	0	t						404.2751410007477	
87	376.95736598968506	pulse	0	t						405.8754439353943	
87	378.5574769973755	pulse	0	t						407.4755549430847	
87	380.1577000617981	pulse	0	t						409.0757780075073	
87	381.757933139801	pulse	0	t						410.67601108551025	
87	383.3571779727936	pulse	0	t						412.2752559185028	
