trial_nr	onset	event_type	phase	response	nr_frames	movie_index	movie_duration	movie_file	blank	onset_abs	duration
0	0.17490077018737793	stim	0		91					15.577684879302979	0.7582828998565674
0	0.9250402450561523	response	0	space						16.327824354171753	
1	0.9331836700439453	stim	0		5214					16.335967779159546	43.4658477306366
1	44.389193534851074	pulse	0	t						59.791977643966675	
1	44.39903140068054	stim	1		1715					59.80181550979614	14.301188945770264
1	45.981828451156616	pulse	1	t						61.38461256027222	
1	47.58214974403381	pulse	1	t						62.984933853149414	
1	49.18245339393616	pulse	1	t						64.58523750305176	
1	50.78254461288452	pulse	1	t						66.18532872200012	
1	52.38280439376831	pulse	1	t						67.78558850288391	
1	53.983038663864136	pulse	1	t						69.38582277297974	
1	55.58344912528992	pulse	1	t						70.98623323440552	
1	57.1835675239563	pulse	1	t						72.5863516330719	
2	58.700220346450806	fix_pre	0		11	0.0	2.5	/experiments/knapen_AOT/AOT_stimuli/rescaled_final/0317_fw.mp4	0.0	74.1030044555664	0.10842680931091309
2	58.78387689590454	pulse	0	t		0.0	2.5	/experiments/knapen_AOT/AOT_stimuli/rescaled_final/0317_fw.mp4	0.0	74.18666100502014	
2	58.80864715576172	movie	1		269	0.0	2.5	/experiments/knapen_AOT/AOT_stimuli/rescaled_final/0317_fw.mp4	0.0	74.21143126487732	2.491975784301758
2	60.38245463371277	pulse	1	t		0.0	2.5	/experiments/knapen_AOT/AOT_stimuli/rescaled_final/0317_fw.mp4	0.0	75.78523874282837	
2	61.30062294006348	fix_post	2		12	0.0	2.5	/experiments/knapen_AOT/AOT_stimuli/rescaled_final/0317_fw.mp4	0.0	76.70340704917908	0.10012221336364746
3	61.400745153427124	fix_pre	0		120	1.0	2.5	/experiments/knapen_AOT/AOT_stimuli/rescaled_final/0676_rv.mp4	0.0	76.80352926254272	1.0084357261657715
3	61.984293699264526	pulse	0	t		1.0	2.5	/experiments/knapen_AOT/AOT_stimuli/rescaled_final/0676_rv.mp4	0.0	77.38707780838013	
3	62.409180879592896	movie	1		276	1.0	2.5	/experiments/knapen_AOT/AOT_stimuli/rescaled_final/0676_rv.mp4	0.0	77.8119649887085	2.4919707775115967
3	63.582499980926514	pulse	1	t		1.0	2.5	/experiments/knapen_AOT/AOT_stimuli/rescaled_final/0676_rv.mp4	0.0	78.98528409004211	
3	64.90115165710449	fix_post	2		12	1.0	2.5	/experiments/knapen_AOT/AOT_stimuli/rescaled_final/0676_rv.mp4	0.0	80.30393576622009	0.10011577606201172
4	65.0012674331665	fix_pre	0		120	2.0	2.5	/experiments/knapen_AOT/AOT_stimuli/rescaled_final/1662_fw.mp4	0.0	80.4040515422821	1.0083935260772705
4	65.18475794792175	pulse	0	t		2.0	2.5	/experiments/knapen_AOT/AOT_stimuli/rescaled_final/1662_fw.mp4	0.0	80.58754205703735	
4	66.00966095924377	movie	1		264	2.0	2.5	/experiments/knapen_AOT/AOT_stimuli/rescaled_final/1662_fw.mp4	0.0	81.41244506835938	2.492091655731201
4	66.7851402759552	pulse	1	t		2.0	2.5	/experiments/knapen_AOT/AOT_stimuli/rescaled_final/1662_fw.mp4	0.0	82.1879243850708	
4	68.3855893611908	pulse	1	t		2.0	2.5	/experiments/knapen_AOT/AOT_stimuli/rescaled_final/1662_fw.mp4	0.0	83.7883734703064	
4	68.50175261497498	fix_post	2		12	2.0	2.5	/experiments/knapen_AOT/AOT_stimuli/rescaled_final/1662_fw.mp4	0.0	83.90453672409058	0.10001564025878906
5	68.60176825523376	fix_pre	0		120	3.0	2.5	/experiments/knapen_AOT/AOT_stimuli/rescaled_final/1422_rv.mp4	0.0	84.00455236434937	1.0085134506225586
5	69.61028170585632	movie	1		269	3.0	2.5	/experiments/knapen_AOT/AOT_stimuli/rescaled_final/1422_rv.mp4	0.0	85.01306581497192	2.4919867515563965
5	69.98411321640015	pulse	1	t		3.0	2.5	/experiments/knapen_AOT/AOT_stimuli/rescaled_final/1422_rv.mp4	0.0	85.38689732551575	
5	71.58366870880127	pulse	1	t		3.0	2.5	/experiments/knapen_AOT/AOT_stimuli/rescaled_final/1422_rv.mp4	0.0	86.98645281791687	
5	72.10226845741272	fix_post	2		12	3.0	2.5	/experiments/knapen_AOT/AOT_stimuli/rescaled_final/1422_rv.mp4	0.0	87.50505256652832	0.09998297691345215
6	72.20225143432617	fix_pre	0		119	4.0	2.5	/experiments/knapen_AOT/AOT_stimuli/rescaled_final/0381_rv.mp4	0.0	87.60503554344177	1.00016188621521
6	73.18602180480957	pulse	0	t		4.0	2.5	/experiments/knapen_AOT/AOT_stimuli/rescaled_final/0381_rv.mp4	0.0	88.58880591392517	
6	73.20241332054138	movie	1		281	4.0	2.5	/experiments/knapen_AOT/AOT_stimuli/rescaled_final/0381_rv.mp4	0.0	88.60519742965698	2.5003740787506104
6	74.78453803062439	pulse	1	t		4.0	2.5	/experiments/knapen_AOT/AOT_stimuli/rescaled_final/0381_rv.mp4	0.0	90.18732213973999	
6	75.70278739929199	fix_post	2		12	4.0	2.5	/experiments/knapen_AOT/AOT_stimuli/rescaled_final/0381_rv.mp4	0.0	91.10557150840759	0.10000300407409668
7	75.80279040336609	fix_pre	0		120	5.0	2.5	/experiments/knapen_AOT/AOT_stimuli/rescaled_final/1214_rv.mp4	0.0	91.20557451248169	1.0085556507110596
7	76.37879490852356	pulse	0	t		5.0	2.5	/experiments/knapen_AOT/AOT_stimuli/rescaled_final/1214_rv.mp4	0.0	91.78157901763916	
7	76.81134605407715	movie	1		269	5.0	2.5	/experiments/knapen_AOT/AOT_stimuli/rescaled_final/1214_rv.mp4	0.0	92.21413016319275	2.4919769763946533
7	77.978764295578	pulse	1	t		5.0	2.5	/experiments/knapen_AOT/AOT_stimuli/rescaled_final/1214_rv.mp4	0.0	93.3815484046936	
7	79.3033230304718	fix_post	2		12	5.0	2.5	/experiments/knapen_AOT/AOT_stimuli/rescaled_final/1214_rv.mp4	0.0	94.7061071395874	0.10000824928283691
8	79.40333127975464	fix_pre	0		120	6.0	2.5	/experiments/knapen_AOT/AOT_stimuli/rescaled_final/0830_fw.mp4	0.0	94.80611538887024	1.0085630416870117
8	79.57868647575378	pulse	0	t		6.0	2.5	/experiments/knapen_AOT/AOT_stimuli/rescaled_final/0830_fw.mp4	0.0	94.98147058486938	
8	80.41189432144165	movie	1		281	6.0	2.5	/experiments/knapen_AOT/AOT_stimuli/rescaled_final/0830_fw.mp4	0.0	95.81467843055725	2.492004871368408
8	81.17887592315674	pulse	1	t		6.0	2.5	/experiments/knapen_AOT/AOT_stimuli/rescaled_final/0830_fw.mp4	0.0	96.58166003227234	
8	82.78013110160828	pulse	1	t		6.0	2.5	/experiments/knapen_AOT/AOT_stimuli/rescaled_final/0830_fw.mp4	0.0	98.18291521072388	
8	82.90389919281006	fix_post	2		12	6.0	2.5	/experiments/knapen_AOT/AOT_stimuli/rescaled_final/0830_fw.mp4	0.0	98.30668330192566	0.09997892379760742
9	83.00387811660767	fix_pre	0		120	7.0	2.5	blank	1.0	98.40666222572327	1.000150203704834
9	84.0040283203125	movie	1		300	7.0	2.5	blank	1.0	99.4068124294281	2.5003817081451416
9	84.37928175926208	pulse	1	t		7.0	2.5	blank	1.0	99.78206586837769	
9	85.97957754135132	pulse	1	t		7.0	2.5	blank	1.0	101.38236165046692	
9	86.50441002845764	fix_post	2		12	7.0	2.5	blank	1.0	101.90719413757324	0.10013675689697266
10	86.60454678535461	fix_pre	0		118	8.0	2.5	/experiments/knapen_AOT/AOT_stimuli/rescaled_final/0099_fw.mp4	0.0	102.00733089447021	0.9917526245117188
10	87.5798888206482	pulse	0	t		8.0	2.5	/experiments/knapen_AOT/AOT_stimuli/rescaled_final/0099_fw.mp4	0.0	102.9826729297638	
10	87.59629940986633	movie	1		280	8.0	2.5	/experiments/knapen_AOT/AOT_stimuli/rescaled_final/0099_fw.mp4	0.0	102.99908351898193	2.5004491806030273
10	89.17983627319336	pulse	1	t		8.0	2.5	/experiments/knapen_AOT/AOT_stimuli/rescaled_final/0099_fw.mp4	0.0	104.58262038230896	
10	90.09674859046936	fix_post	2		12	8.0	2.5	/experiments/knapen_AOT/AOT_stimuli/rescaled_final/0099_fw.mp4	0.0	105.49953269958496	0.09992623329162598
11	90.19667482376099	fix_pre	0		120	9.0	2.5	/experiments/knapen_AOT/AOT_stimuli/rescaled_final/0424_rv.mp4	0.0	105.59945893287659	1.0085015296936035
11	90.7803246974945	pulse	0	t		9.0	2.5	/experiments/knapen_AOT/AOT_stimuli/rescaled_final/0424_rv.mp4	0.0	106.18310880661011	
11	91.20517635345459	movie	1		271	9.0	2.5	/experiments/knapen_AOT/AOT_stimuli/rescaled_final/0424_rv.mp4	0.0	106.60796046257019	2.4919753074645996
11	92.37994074821472	pulse	1	t		9.0	2.5	/experiments/knapen_AOT/AOT_stimuli/rescaled_final/0424_rv.mp4	0.0	107.78272485733032	
11	93.69715166091919	fix_post	2		12	9.0	2.5	/experiments/knapen_AOT/AOT_stimuli/rescaled_final/0424_rv.mp4	0.0	109.09993577003479	0.10004448890686035
12	93.79719614982605	fix_pre	0		120	10.0	2.5	/experiments/knapen_AOT/AOT_stimuli/rescaled_final/1836_fw.mp4	0.0	109.19998025894165	1.0084967613220215
12	93.98074722290039	pulse	0	t		10.0	2.5	/experiments/knapen_AOT/AOT_stimuli/rescaled_final/1836_fw.mp4	0.0	109.38353133201599	
12	94.80569291114807	movie	1		267	10.0	2.5	/experiments/knapen_AOT/AOT_stimuli/rescaled_final/1836_fw.mp4	0.0	110.20847702026367	2.4920854568481445
12	95.57891392707825	pulse	1	t		10.0	2.5	/experiments/knapen_AOT/AOT_stimuli/rescaled_final/1836_fw.mp4	0.0	110.98169803619385	
12	97.17900800704956	pulse	1	t		10.0	2.5	/experiments/knapen_AOT/AOT_stimuli/rescaled_final/1836_fw.mp4	0.0	112.58179211616516	
12	97.29777836799622	fix_post	2		12	10.0	2.5	/experiments/knapen_AOT/AOT_stimuli/rescaled_final/1836_fw.mp4	0.0	112.70056247711182	0.09995675086975098
13	97.39773511886597	fix_pre	0		120	11.0	2.5	/experiments/knapen_AOT/AOT_stimuli/rescaled_final/1134_fw.mp4	0.0	112.80051922798157	1.0085053443908691
13	98.40624046325684	movie	1		280	11.0	2.5	/experiments/knapen_AOT/AOT_stimuli/rescaled_final/1134_fw.mp4	0.0	113.80902457237244	2.491992235183716
13	98.7795672416687	pulse	1	t		11.0	2.5	/experiments/knapen_AOT/AOT_stimuli/rescaled_final/1134_fw.mp4	0.0	114.1823513507843	
13	100.37961292266846	pulse	1	t		11.0	2.5	/experiments/knapen_AOT/AOT_stimuli/rescaled_final/1134_fw.mp4	0.0	115.78239703178406	
13	100.89823269844055	fix_post	2		12	11.0	2.5	/experiments/knapen_AOT/AOT_stimuli/rescaled_final/1134_fw.mp4	0.0	116.30101680755615	0.10007977485656738
14	100.99831247329712	fix_pre	0		119	12.0	2.5	blank	1.0	116.40109658241272	0.9917597770690918
14	101.98205161094666	pulse	0	t		12.0	2.5	blank	1.0	117.38483572006226	
14	101.99007225036621	movie	1		301	12.0	2.5	blank	1.0	117.39285635948181	2.5087292194366455
14	103.58216285705566	pulse	1	t		12.0	2.5	blank	1.0	118.98494696617126	
14	104.49880146980286	fix_post	2		12	12.0	2.5	blank	1.0	119.90158557891846	0.09998583793640137
15	104.59878730773926	fix_pre	0		120	13.0	2.5	/experiments/knapen_AOT/AOT_stimuli/rescaled_final/1895_rv.mp4	0.0	120.00157141685486	1.0085783004760742
15	105.18242049217224	pulse	0	t		13.0	2.5	/experiments/knapen_AOT/AOT_stimuli/rescaled_final/1895_rv.mp4	0.0	120.58520460128784	
15	105.60736560821533	movie	1		289	13.0	2.5	/experiments/knapen_AOT/AOT_stimuli/rescaled_final/1895_rv.mp4	0.0	121.01014971733093	2.491992473602295
15	106.78167653083801	pulse	1	t		13.0	2.5	/experiments/knapen_AOT/AOT_stimuli/rescaled_final/1895_rv.mp4	0.0	122.18446063995361	
15	108.09935808181763	fix_post	2		12	13.0	2.5	/experiments/knapen_AOT/AOT_stimuli/rescaled_final/1895_rv.mp4	0.0	123.50214219093323	0.10002899169921875
16	108.19938707351685	fix_pre	0		120	14.0	2.5	/experiments/knapen_AOT/AOT_stimuli/rescaled_final/2074_rv.mp4	0.0	123.60217118263245	1.0084693431854248
16	108.38289880752563	pulse	0	t		14.0	2.5	/experiments/knapen_AOT/AOT_stimuli/rescaled_final/2074_rv.mp4	0.0	123.78568291664124	
16	109.20785641670227	movie	1		263	14.0	2.5	/experiments/knapen_AOT/AOT_stimuli/rescaled_final/2074_rv.mp4	0.0	124.61064052581787	2.4920005798339844
16	109.98103284835815	pulse	1	t		14.0	2.5	/experiments/knapen_AOT/AOT_stimuli/rescaled_final/2074_rv.mp4	0.0	125.38381695747375	
16	111.58367252349854	pulse	1	t		14.0	2.5	/experiments/knapen_AOT/AOT_stimuli/rescaled_final/2074_rv.mp4	0.0	126.98645663261414	
16	111.69985699653625	fix_post	2		12	14.0	2.5	/experiments/knapen_AOT/AOT_stimuli/rescaled_final/2074_rv.mp4	0.0	127.10264110565186	0.09998822212219238
17	111.79984521865845	fix_pre	0		120	15.0	2.5	/experiments/knapen_AOT/AOT_stimuli/rescaled_final/0794_rv.mp4	0.0	127.20262932777405	1.008537769317627
17	112.80838298797607	movie	1		280	15.0	2.5	/experiments/knapen_AOT/AOT_stimuli/rescaled_final/0794_rv.mp4	0.0	128.21116709709167	2.4920153617858887
17	113.18194198608398	pulse	1	t		15.0	2.5	/experiments/knapen_AOT/AOT_stimuli/rescaled_final/0794_rv.mp4	0.0	128.58472609519958	
17	114.78156876564026	pulse	1	t		15.0	2.5	/experiments/knapen_AOT/AOT_stimuli/rescaled_final/0794_rv.mp4	0.0	130.18435287475586	
17	115.30039834976196	fix_post	2		12	15.0	2.5	/experiments/knapen_AOT/AOT_stimuli/rescaled_final/0794_rv.mp4	0.0	130.70318245887756	0.10001325607299805
18	115.40041160583496	fix_pre	0		119	16.0	2.5	/experiments/knapen_AOT/AOT_stimuli/rescaled_final/0315_rv.mp4	0.0	130.80319571495056	1.0002026557922363
18	116.38406252861023	pulse	0	t		16.0	2.5	/experiments/knapen_AOT/AOT_stimuli/rescaled_final/0315_rv.mp4	0.0	131.78684663772583	
18	116.4006142616272	movie	1		278	16.0	2.5	/experiments/knapen_AOT/AOT_stimuli/rescaled_final/0315_rv.mp4	0.0	131.8033983707428	2.5004525184631348
18	117.98288297653198	pulse	1	t		16.0	2.5	/experiments/knapen_AOT/AOT_stimuli/rescaled_final/0315_rv.mp4	0.0	133.38566708564758	
18	118.90106678009033	fix_post	2		12	16.0	2.5	/experiments/knapen_AOT/AOT_stimuli/rescaled_final/0315_rv.mp4	0.0	134.30385088920593	0.09990811347961426
19	119.00097489356995	fix_pre	0		120	17.0	2.5	/experiments/knapen_AOT/AOT_stimuli/rescaled_final/1412_fw.mp4	0.0	134.40375900268555	1.008500337600708
19	119.58456516265869	pulse	0	t		17.0	2.5	/experiments/knapen_AOT/AOT_stimuli/rescaled_final/1412_fw.mp4	0.0	134.9873492717743	
19	120.00947523117065	movie	1		264	17.0	2.5	/experiments/knapen_AOT/AOT_stimuli/rescaled_final/1412_fw.mp4	0.0	135.41225934028625	2.4920032024383545
19	121.18335342407227	pulse	1	t		17.0	2.5	/experiments/knapen_AOT/AOT_stimuli/rescaled_final/1412_fw.mp4	0.0	136.58613753318787	
19	122.50147843360901	fix_post	2		12	17.0	2.5	/experiments/knapen_AOT/AOT_stimuli/rescaled_final/1412_fw.mp4	0.0	137.9042625427246	0.1000819206237793
20	122.60156035423279	fix_pre	0		120	18.0	2.5	/experiments/knapen_AOT/AOT_stimuli/rescaled_final/0183_fw.mp4	0.0	138.0043444633484	1.0084459781646729
20	122.78525424003601	pulse	0	t		18.0	2.5	/experiments/knapen_AOT/AOT_stimuli/rescaled_final/0183_fw.mp4	0.0	138.1880383491516	
20	123.61000633239746	movie	1		276	18.0	2.5	/experiments/knapen_AOT/AOT_stimuli/rescaled_final/0183_fw.mp4	0.0	139.01279044151306	2.4920129776000977
20	124.38434648513794	pulse	1	t		18.0	2.5	/experiments/knapen_AOT/AOT_stimuli/rescaled_final/0183_fw.mp4	0.0	139.78713059425354	
20	125.98355412483215	pulse	1	t		18.0	2.5	/experiments/knapen_AOT/AOT_stimuli/rescaled_final/0183_fw.mp4	0.0	141.38633823394775	
20	126.10201930999756	fix_post	2		12	18.0	2.5	/experiments/knapen_AOT/AOT_stimuli/rescaled_final/0183_fw.mp4	0.0	141.50480341911316	0.10002803802490234
21	126.20204734802246	fix_pre	0		120	19.0	2.5	blank	1.0	141.60483145713806	1.000124454498291
21	127.20217180252075	movie	1		300	19.0	2.5	blank	1.0	142.60495591163635	2.5004327297210693
21	127.57825231552124	pulse	1	t		19.0	2.5	blank	1.0	142.98103642463684	
21	129.17793035507202	pulse	1	t		19.0	2.5	blank	1.0	144.58071446418762	
21	129.70260453224182	fix_post	2		12	19.0	2.5	blank	1.0	145.10538864135742	0.10000491142272949
22	129.80260944366455	fix_pre	0		118	20.0	2.5	/experiments/knapen_AOT/AOT_stimuli/rescaled_final/0410_rv.mp4	0.0	145.20539355278015	0.9919466972351074
22	130.7779884338379	pulse	0	t		20.0	2.5	/experiments/knapen_AOT/AOT_stimuli/rescaled_final/0410_rv.mp4	0.0	146.1807725429535	
22	130.79455614089966	movie	1		272	20.0	2.5	/experiments/knapen_AOT/AOT_stimuli/rescaled_final/0410_rv.mp4	0.0	146.19734025001526	2.5002264976501465
22	132.37822127342224	pulse	1	t		20.0	2.5	/experiments/knapen_AOT/AOT_stimuli/rescaled_final/0410_rv.mp4	0.0	147.78100538253784	
22	133.2947826385498	fix_post	2		12	20.0	2.5	/experiments/knapen_AOT/AOT_stimuli/rescaled_final/0410_rv.mp4	0.0	148.6975667476654	0.10001492500305176
23	133.39479756355286	fix_pre	0		120	21.0	2.5	/experiments/knapen_AOT/AOT_stimuli/rescaled_final/0788_rv.mp4	0.0	148.79758167266846	1.0084810256958008
23	133.97860097885132	pulse	0	t		21.0	2.5	/experiments/knapen_AOT/AOT_stimuli/rescaled_final/0788_rv.mp4	0.0	149.38138508796692	
23	134.40327858924866	movie	1		276	21.0	2.5	/experiments/knapen_AOT/AOT_stimuli/rescaled_final/0788_rv.mp4	0.0	149.80606269836426	2.4920785427093506
23	135.57869291305542	pulse	1	t		21.0	2.5	/experiments/knapen_AOT/AOT_stimuli/rescaled_final/0788_rv.mp4	0.0	150.98147702217102	
23	136.895357131958	fix_post	2		12	21.0	2.5	/experiments/knapen_AOT/AOT_stimuli/rescaled_final/0788_rv.mp4	0.0	152.2981412410736	0.10002779960632324
24	136.99538493156433	fix_pre	0		120	22.0	2.5	/experiments/knapen_AOT/AOT_stimuli/rescaled_final/0525_rv.mp4	0.0	152.39816904067993	1.0084433555603027
24	137.17892718315125	pulse	0	t		22.0	2.5	/experiments/knapen_AOT/AOT_stimuli/rescaled_final/0525_rv.mp4	0.0	152.58171129226685	
24	138.00382828712463	movie	1		266	22.0	2.5	/experiments/knapen_AOT/AOT_stimuli/rescaled_final/0525_rv.mp4	0.0	153.40661239624023	2.492034673690796
24	138.7792353630066	pulse	1	t		22.0	2.5	/experiments/knapen_AOT/AOT_stimuli/rescaled_final/0525_rv.mp4	0.0	154.1820194721222	
24	140.37927293777466	pulse	1	t		22.0	2.5	/experiments/knapen_AOT/AOT_stimuli/rescaled_final/0525_rv.mp4	0.0	155.78205704689026	
24	140.49586296081543	fix_post	2		12	22.0	2.5	/experiments/knapen_AOT/AOT_stimuli/rescaled_final/0525_rv.mp4	0.0	155.89864706993103	0.1000676155090332
25	140.59593057632446	fix_pre	0		120	23.0	2.5	/experiments/knapen_AOT/AOT_stimuli/rescaled_final/1180_rv.mp4	0.0	155.99871468544006	1.008429765701294
25	141.60436034202576	movie	1		257	23.0	2.5	/experiments/knapen_AOT/AOT_stimuli/rescaled_final/1180_rv.mp4	0.0	157.00714445114136	2.4921326637268066
25	141.97963643074036	pulse	1	t		23.0	2.5	/experiments/knapen_AOT/AOT_stimuli/rescaled_final/1180_rv.mp4	0.0	157.38242053985596	
25	143.5799822807312	pulse	1	t		23.0	2.5	/experiments/knapen_AOT/AOT_stimuli/rescaled_final/1180_rv.mp4	0.0	158.9827663898468	
25	144.09649300575256	fix_post	2		12	23.0	2.5	/experiments/knapen_AOT/AOT_stimuli/rescaled_final/1180_rv.mp4	0.0	159.49927711486816	0.09991168975830078
26	144.19640469551086	fix_pre	0		119	24.0	2.5	/experiments/knapen_AOT/AOT_stimuli/rescaled_final/1650_fw.mp4	0.0	159.59918880462646	1.0002741813659668
26	145.18015837669373	pulse	0	t		24.0	2.5	/experiments/knapen_AOT/AOT_stimuli/rescaled_final/1650_fw.mp4	0.0	160.58294248580933	
26	145.19667887687683	movie	1		263	24.0	2.5	/experiments/knapen_AOT/AOT_stimuli/rescaled_final/1650_fw.mp4	0.0	160.59946298599243	2.5004258155822754
26	146.77923321723938	pulse	1	t		24.0	2.5	/experiments/knapen_AOT/AOT_stimuli/rescaled_final/1650_fw.mp4	0.0	162.18201732635498	
26	147.6971046924591	fix_post	2		12	24.0	2.5	/experiments/knapen_AOT/AOT_stimuli/rescaled_final/1650_fw.mp4	0.0	163.0998888015747	0.09985232353210449
27	147.7969570159912	fix_pre	0		120	25.0	2.5	/experiments/knapen_AOT/AOT_stimuli/rescaled_final/1106_rv.mp4	0.0	163.1997411251068	1.0084936618804932
27	148.380624294281	pulse	0	t		25.0	2.5	/experiments/knapen_AOT/AOT_stimuli/rescaled_final/1106_rv.mp4	0.0	163.7834084033966	
27	148.8054506778717	movie	1		275	25.0	2.5	/experiments/knapen_AOT/AOT_stimuli/rescaled_final/1106_rv.mp4	0.0	164.2082347869873	2.4920265674591064
27	149.9791202545166	pulse	1	t		25.0	2.5	/experiments/knapen_AOT/AOT_stimuli/rescaled_final/1106_rv.mp4	0.0	165.3819043636322	
27	151.2974772453308	fix_post	2		12	25.0	2.5	/experiments/knapen_AOT/AOT_stimuli/rescaled_final/1106_rv.mp4	0.0	166.7002613544464	0.10002779960632324
28	151.39750504493713	fix_pre	0		120	26.0	2.5	/experiments/knapen_AOT/AOT_stimuli/rescaled_final/1646_fw.mp4	0.0	166.80028915405273	1.0084843635559082
28	151.58115315437317	pulse	0	t		26.0	2.5	/experiments/knapen_AOT/AOT_stimuli/rescaled_final/1646_fw.mp4	0.0	166.98393726348877	
28	152.40598940849304	movie	1		270	26.0	2.5	/experiments/knapen_AOT/AOT_stimuli/rescaled_final/1646_fw.mp4	0.0	167.80877351760864	2.492023229598999
28	153.17925119400024	pulse	1	t		26.0	2.5	/experiments/knapen_AOT/AOT_stimuli/rescaled_final/1646_fw.mp4	0.0	168.58203530311584	
28	154.77939343452454	pulse	1	t		26.0	2.5	/experiments/knapen_AOT/AOT_stimuli/rescaled_final/1646_fw.mp4	0.0	170.18217754364014	
28	154.89801263809204	fix_post	2		12	26.0	2.5	/experiments/knapen_AOT/AOT_stimuli/rescaled_final/1646_fw.mp4	0.0	170.30079674720764	0.10006880760192871
29	154.99808144569397	fix_pre	0		120	27.0	2.5	/experiments/knapen_AOT/AOT_stimuli/rescaled_final/0143_rv.mp4	0.0	170.40086555480957	1.0084590911865234
29	156.0065405368805	movie	1		279	27.0	2.5	/experiments/knapen_AOT/AOT_stimuli/rescaled_final/0143_rv.mp4	0.0	171.4093246459961	2.49202299118042
29	156.38030338287354	pulse	1	t		27.0	2.5	/experiments/knapen_AOT/AOT_stimuli/rescaled_final/0143_rv.mp4	0.0	171.78308749198914	
29	157.98281407356262	pulse	1	t		27.0	2.5	/experiments/knapen_AOT/AOT_stimuli/rescaled_final/0143_rv.mp4	0.0	173.38559818267822	
29	158.4985635280609	fix_post	2		12	27.0	2.5	/experiments/knapen_AOT/AOT_stimuli/rescaled_final/0143_rv.mp4	0.0	173.9013476371765	0.10003280639648438
30	158.5985963344574	fix_pre	0		119	28.0	2.5	blank	1.0	174.001380443573	0.9918429851531982
30	159.58224272727966	pulse	0	t		28.0	2.5	blank	1.0	174.98502683639526	
30	159.5904393196106	movie	1		301	28.0	2.5	blank	1.0	174.9932234287262	2.508653163909912
30	161.18251252174377	pulse	1	t		28.0	2.5	blank	1.0	176.58529663085938	
30	162.0990924835205	fix_post	2		12	28.0	2.5	blank	1.0	177.5018765926361	0.10003066062927246
31	162.19912314414978	fix_pre	0		120	29.0	2.5	/experiments/knapen_AOT/AOT_stimuli/rescaled_final/0987_fw.mp4	0.0	177.60190725326538	1.0085234642028809
31	162.78272986412048	pulse	0	t		29.0	2.5	/experiments/knapen_AOT/AOT_stimuli/rescaled_final/0987_fw.mp4	0.0	178.18551397323608	
31	163.20764660835266	movie	1		286	29.0	2.5	/experiments/knapen_AOT/AOT_stimuli/rescaled_final/0987_fw.mp4	0.0	178.61043071746826	2.4920461177825928
31	164.3808674812317	pulse	1	t		29.0	2.5	/experiments/knapen_AOT/AOT_stimuli/rescaled_final/0987_fw.mp4	0.0	179.7836515903473	
31	165.69969272613525	fix_post	2		12	29.0	2.5	/experiments/knapen_AOT/AOT_stimuli/rescaled_final/0987_fw.mp4	0.0	181.10247683525085	0.09995913505554199
32	165.7996518611908	fix_pre	0		120	30.0	2.5	/experiments/knapen_AOT/AOT_stimuli/rescaled_final/1892_rv.mp4	0.0	181.2024359703064	1.0085864067077637
32	165.9832046031952	pulse	0	t		30.0	2.5	/experiments/knapen_AOT/AOT_stimuli/rescaled_final/1892_rv.mp4	0.0	181.3859887123108	
32	166.80823826789856	movie	1		283	30.0	2.5	/experiments/knapen_AOT/AOT_stimuli/rescaled_final/1892_rv.mp4	0.0	182.21102237701416	2.491936206817627
32	167.583003282547	pulse	1	t		30.0	2.5	/experiments/knapen_AOT/AOT_stimuli/rescaled_final/1892_rv.mp4	0.0	182.9857873916626	
32	169.1818642616272	pulse	1	t		30.0	2.5	/experiments/knapen_AOT/AOT_stimuli/rescaled_final/1892_rv.mp4	0.0	184.5846483707428	
32	169.3001744747162	fix_post	2		12	30.0	2.5	/experiments/knapen_AOT/AOT_stimuli/rescaled_final/1892_rv.mp4	0.0	184.7029585838318	0.10001802444458008
33	169.40019249916077	fix_pre	0		120	31.0	2.5	/experiments/knapen_AOT/AOT_stimuli/rescaled_final/1506_fw.mp4	0.0	184.80297660827637	1.0084991455078125
33	170.40869164466858	movie	1		273	31.0	2.5	/experiments/knapen_AOT/AOT_stimuli/rescaled_final/1506_fw.mp4	0.0	185.81147575378418	2.4920434951782227
33	170.78241896629333	pulse	1	t		31.0	2.5	/experiments/knapen_AOT/AOT_stimuli/rescaled_final/1506_fw.mp4	0.0	186.18520307540894	
33	172.3820538520813	pulse	1	t		31.0	2.5	/experiments/knapen_AOT/AOT_stimuli/rescaled_final/1506_fw.mp4	0.0	187.7848379611969	
33	172.9007351398468	fix_post	2		12	31.0	2.5	/experiments/knapen_AOT/AOT_stimuli/rescaled_final/1506_fw.mp4	0.0	188.3035192489624	0.10004234313964844
34	173.00077748298645	fix_pre	0		119	32.0	2.5	/experiments/knapen_AOT/AOT_stimuli/rescaled_final/1492_fw.mp4	0.0	188.40356159210205	1.0001029968261719
34	173.98444938659668	pulse	0	t		32.0	2.5	/experiments/knapen_AOT/AOT_stimuli/rescaled_final/1492_fw.mp4	0.0	189.38723349571228	
34	174.00088047981262	movie	1		277	32.0	2.5	/experiments/knapen_AOT/AOT_stimuli/rescaled_final/1492_fw.mp4	0.0	189.40366458892822	2.5003678798675537
34	175.58338284492493	pulse	1	t		32.0	2.5	/experiments/knapen_AOT/AOT_stimuli/rescaled_final/1492_fw.mp4	0.0	190.98616695404053	
34	176.50124835968018	fix_post	2		12	32.0	2.5	/experiments/knapen_AOT/AOT_stimuli/rescaled_final/1492_fw.mp4	0.0	191.90403246879578	0.10007977485656738
35	176.60132813453674	fix_pre	0		120	33.0	2.5	/experiments/knapen_AOT/AOT_stimuli/rescaled_final/0173_rv.mp4	0.0	192.00411224365234	1.0084383487701416
35	177.18494582176208	pulse	0	t		33.0	2.5	/experiments/knapen_AOT/AOT_stimuli/rescaled_final/0173_rv.mp4	0.0	192.58772993087769	
35	177.60976648330688	movie	1		282	33.0	2.5	/experiments/knapen_AOT/AOT_stimuli/rescaled_final/0173_rv.mp4	0.0	193.01255059242249	2.4920237064361572
35	178.78343415260315	pulse	1	t		33.0	2.5	/experiments/knapen_AOT/AOT_stimuli/rescaled_final/0173_rv.mp4	0.0	194.18621826171875	
35	180.10179018974304	fix_post	2		12	33.0	2.5	/experiments/knapen_AOT/AOT_stimuli/rescaled_final/0173_rv.mp4	0.0	195.50457429885864	0.1000523567199707
36	180.201842546463	fix_pre	0		120	34.0	2.5	blank	1.0	195.6046266555786	1.0001258850097656
36	180.38544392585754	pulse	0	t		34.0	2.5	blank	1.0	195.78822803497314	
36	181.20196843147278	movie	1		300	34.0	2.5	blank	1.0	196.60475254058838	2.500377655029297
36	181.98565459251404	pulse	1	t		34.0	2.5	blank	1.0	197.38843870162964	
36	183.5859398841858	pulse	1	t		34.0	2.5	blank	1.0	198.9887239933014	
36	183.70234608650208	fix_post	2		12	34.0	2.5	blank	1.0	199.10513019561768	0.1000218391418457
37	183.80236792564392	fix_pre	0		120	35.0	2.5	/experiments/knapen_AOT/AOT_stimuli/rescaled_final/1594_fw.mp4	0.0	199.20515203475952	1.008497714996338
37	184.81086564064026	movie	1		272	35.0	2.5	/experiments/knapen_AOT/AOT_stimuli/rescaled_final/1594_fw.mp4	0.0	200.21364974975586	2.4920105934143066
37	185.18460249900818	pulse	1	t		35.0	2.5	/experiments/knapen_AOT/AOT_stimuli/rescaled_final/1594_fw.mp4	0.0	200.58738660812378	
37	186.77841353416443	pulse	1	t		35.0	2.5	/experiments/knapen_AOT/AOT_stimuli/rescaled_final/1594_fw.mp4	0.0	202.18119764328003	
37	187.30287623405457	fix_post	2		12	35.0	2.5	/experiments/knapen_AOT/AOT_stimuli/rescaled_final/1594_fw.mp4	0.0	202.70566034317017	0.10001540184020996
38	187.40289163589478	fix_pre	0		118	36.0	2.5	/experiments/knapen_AOT/AOT_stimuli/rescaled_final/1984_rv.mp4	0.0	202.80567574501038	0.991844892501831
38	188.3782877922058	pulse	0	t		36.0	2.5	/experiments/knapen_AOT/AOT_stimuli/rescaled_final/1984_rv.mp4	0.0	203.7810719013214	
38	188.3947365283966	movie	1		280	36.0	2.5	/experiments/knapen_AOT/AOT_stimuli/rescaled_final/1984_rv.mp4	0.0	203.7975206375122	2.5003840923309326
38	189.98710227012634	pulse	1	t		36.0	2.5	/experiments/knapen_AOT/AOT_stimuli/rescaled_final/1984_rv.mp4	0.0	205.38988637924194	
38	190.89512062072754	fix_post	2		12	36.0	2.5	/experiments/knapen_AOT/AOT_stimuli/rescaled_final/1984_rv.mp4	0.0	206.29790472984314	0.10000967979431152
39	190.99513030052185	fix_pre	0		120	37.0	2.5	/experiments/knapen_AOT/AOT_stimuli/rescaled_final/1204_rv.mp4	0.0	206.39791440963745	1.008500576019287
39	191.57926869392395	pulse	0	t		37.0	2.5	/experiments/knapen_AOT/AOT_stimuli/rescaled_final/1204_rv.mp4	0.0	206.98205280303955	
39	192.00363087654114	movie	1		275	37.0	2.5	/experiments/knapen_AOT/AOT_stimuli/rescaled_final/1204_rv.mp4	0.0	207.40641498565674	2.4920074939727783
39	193.17911100387573	pulse	1	t		37.0	2.5	/experiments/knapen_AOT/AOT_stimuli/rescaled_final/1204_rv.mp4	0.0	208.58189511299133	
39	194.49563837051392	fix_post	2		12	37.0	2.5	/experiments/knapen_AOT/AOT_stimuli/rescaled_final/1204_rv.mp4	0.0	209.89842247962952	0.10002708435058594
40	194.5956654548645	fix_pre	0		120	38.0	2.5	/experiments/knapen_AOT/AOT_stimuli/rescaled_final/2067_rv.mp4	0.0	209.9984495639801	1.008491039276123
40	194.77918815612793	pulse	0	t		38.0	2.5	/experiments/knapen_AOT/AOT_stimuli/rescaled_final/2067_rv.mp4	0.0	210.18197226524353	
40	195.60415649414062	movie	1		287	38.0	2.5	/experiments/knapen_AOT/AOT_stimuli/rescaled_final/2067_rv.mp4	0.0	211.00694060325623	2.4920225143432617
40	196.37943387031555	pulse	1	t		38.0	2.5	/experiments/knapen_AOT/AOT_stimuli/rescaled_final/2067_rv.mp4	0.0	211.78221797943115	
40	197.97964572906494	pulse	1	t		38.0	2.5	/experiments/knapen_AOT/AOT_stimuli/rescaled_final/2067_rv.mp4	0.0	213.38242983818054	
40	198.0961790084839	fix_post	2		12	38.0	2.5	/experiments/knapen_AOT/AOT_stimuli/rescaled_final/2067_rv.mp4	0.0	213.4989631175995	0.10008716583251953
41	198.1962661743164	fix_pre	0		120	39.0	2.5	/experiments/knapen_AOT/AOT_stimuli/rescaled_final/0993_rv.mp4	0.0	213.599050283432	1.0084173679351807
41	199.2046835422516	movie	1		280	39.0	2.5	/experiments/knapen_AOT/AOT_stimuli/rescaled_final/0993_rv.mp4	0.0	214.6074676513672	2.492044687271118
41	199.580393075943	pulse	1	t		39.0	2.5	/experiments/knapen_AOT/AOT_stimuli/rescaled_final/0993_rv.mp4	0.0	214.9831771850586	
41	201.18021082878113	pulse	1	t		39.0	2.5	/experiments/knapen_AOT/AOT_stimuli/rescaled_final/0993_rv.mp4	0.0	216.58299493789673	
41	201.6967282295227	fix_post	2		12	39.0	2.5	/experiments/knapen_AOT/AOT_stimuli/rescaled_final/0993_rv.mp4	0.0	217.0995123386383	0.10002374649047852
42	201.79675197601318	fix_pre	0		119	40.0	2.5	/experiments/knapen_AOT/AOT_stimuli/rescaled_final/1186_rv.mp4	0.0	217.19953608512878	1.0001351833343506
42	202.7804718017578	pulse	0	t		40.0	2.5	/experiments/knapen_AOT/AOT_stimuli/rescaled_final/1186_rv.mp4	0.0	218.1832559108734	
42	202.79688715934753	movie	1		274	40.0	2.5	/experiments/knapen_AOT/AOT_stimuli/rescaled_final/1186_rv.mp4	0.0	218.19967126846313	2.500380754470825
42	204.37903261184692	pulse	1	t		40.0	2.5	/experiments/knapen_AOT/AOT_stimuli/rescaled_final/1186_rv.mp4	0.0	219.78181672096252	
42	205.29726791381836	fix_post	2		12	40.0	2.5	/experiments/knapen_AOT/AOT_stimuli/rescaled_final/1186_rv.mp4	0.0	220.70005202293396	0.10002398490905762
43	205.39729189872742	fix_pre	0		120	41.0	2.5	blank	1.0	220.80007600784302	1.0001380443572998
43	205.98089408874512	pulse	0	t		41.0	2.5	blank	1.0	221.38367819786072	
43	206.39742994308472	movie	1		300	41.0	2.5	blank	1.0	221.80021405220032	2.5003812313079834
43	207.58116364479065	pulse	1	t		41.0	2.5	blank	1.0	222.98394775390625	
43	208.8978111743927	fix_post	2		12	41.0	2.5	blank	1.0	224.3005952835083	0.10005044937133789
44	208.99786162376404	fix_pre	0		120	42.0	2.5	/experiments/knapen_AOT/AOT_stimuli/rescaled_final/1239_fw.mp4	0.0	224.40064573287964	1.0085313320159912
44	209.18137288093567	pulse	0	t		42.0	2.5	/experiments/knapen_AOT/AOT_stimuli/rescaled_final/1239_fw.mp4	0.0	224.58415699005127	
44	210.00639295578003	movie	1		287	42.0	2.5	/experiments/knapen_AOT/AOT_stimuli/rescaled_final/1239_fw.mp4	0.0	225.40917706489563	2.4919753074645996
44	210.78201603889465	pulse	1	t		42.0	2.5	/experiments/knapen_AOT/AOT_stimuli/rescaled_final/1239_fw.mp4	0.0	226.18480014801025	
44	212.37995624542236	pulse	1	t		42.0	2.5	/experiments/knapen_AOT/AOT_stimuli/rescaled_final/1239_fw.mp4	0.0	227.78274035453796	
44	212.49836826324463	fix_post	2		12	42.0	2.5	/experiments/knapen_AOT/AOT_stimuli/rescaled_final/1239_fw.mp4	0.0	227.90115237236023	0.09998750686645508
45	212.59835577011108	fix_pre	0		120	43.0	2.5	/experiments/knapen_AOT/AOT_stimuli/rescaled_final/0020_fw.mp4	0.0	228.00113987922668	1.0084874629974365
45	213.60684323310852	movie	1		281	43.0	2.5	/experiments/knapen_AOT/AOT_stimuli/rescaled_final/0020_fw.mp4	0.0	229.00962734222412	2.492048978805542
45	213.98063015937805	pulse	1	t		43.0	2.5	/experiments/knapen_AOT/AOT_stimuli/rescaled_final/0020_fw.mp4	0.0	229.38341426849365	
45	215.5801875591278	pulse	1	t		43.0	2.5	/experiments/knapen_AOT/AOT_stimuli/rescaled_final/0020_fw.mp4	0.0	230.9829716682434	
45	216.09889221191406	fix_post	2		12	43.0	2.5	/experiments/knapen_AOT/AOT_stimuli/rescaled_final/0020_fw.mp4	0.0	231.50167632102966	0.10000801086425781
46	216.19890022277832	fix_pre	0		119	44.0	2.5	/experiments/knapen_AOT/AOT_stimuli/rescaled_final/1903_fw.mp4	0.0	231.60168433189392	1.000154972076416
46	217.18279004096985	pulse	0	t		44.0	2.5	/experiments/knapen_AOT/AOT_stimuli/rescaled_final/1903_fw.mp4	0.0	232.58557415008545	
46	217.19905519485474	movie	1		277	44.0	2.5	/experiments/knapen_AOT/AOT_stimuli/rescaled_final/1903_fw.mp4	0.0	232.60183930397034	2.5003578662872314
46	218.7816822528839	pulse	1	t		44.0	2.5	/experiments/knapen_AOT/AOT_stimuli/rescaled_final/1903_fw.mp4	0.0	234.1844663619995	
46	219.69941306114197	fix_post	2		12	44.0	2.5	/experiments/knapen_AOT/AOT_stimuli/rescaled_final/1903_fw.mp4	0.0	235.10219717025757	0.10020089149475098
47	219.79961395263672	fix_pre	0		105	45.0	2.5	/experiments/knapen_AOT/AOT_stimuli/rescaled_final/0328_rv.mp4	0.0	235.20239806175232	1.0083396434783936
47	220.38307189941406	pulse	0	t		45.0	2.5	/experiments/knapen_AOT/AOT_stimuli/rescaled_final/0328_rv.mp4	0.0	235.78585600852966	
47	220.8079535961151	movie	1		278	45.0	2.5	/experiments/knapen_AOT/AOT_stimuli/rescaled_final/0328_rv.mp4	0.0	236.2107377052307	2.492021322250366
47	221.98144841194153	pulse	1	t		45.0	2.5	/experiments/knapen_AOT/AOT_stimuli/rescaled_final/0328_rv.mp4	0.0	237.38423252105713	
47	223.29997491836548	fix_post	2		12	45.0	2.5	/experiments/knapen_AOT/AOT_stimuli/rescaled_final/0328_rv.mp4	0.0	238.70275902748108	0.10001969337463379
48	223.3999946117401	fix_pre	0		120	46.0	2.5	/experiments/knapen_AOT/AOT_stimuli/rescaled_final/2055_fw.mp4	0.0	238.8027787208557	1.0085015296936035
48	223.58355712890625	pulse	0	t		46.0	2.5	/experiments/knapen_AOT/AOT_stimuli/rescaled_final/2055_fw.mp4	0.0	238.98634123802185	
48	224.40849614143372	movie	1		277	46.0	2.5	/experiments/knapen_AOT/AOT_stimuli/rescaled_final/2055_fw.mp4	0.0	239.81128025054932	2.4920668601989746
48	225.18183732032776	pulse	1	t		46.0	2.5	/experiments/knapen_AOT/AOT_stimuli/rescaled_final/2055_fw.mp4	0.0	240.58462142944336	
48	226.78233766555786	pulse	1	t		46.0	2.5	/experiments/knapen_AOT/AOT_stimuli/rescaled_final/2055_fw.mp4	0.0	242.18512177467346	
48	226.9005630016327	fix_post	2		12	46.0	2.5	/experiments/knapen_AOT/AOT_stimuli/rescaled_final/2055_fw.mp4	0.0	242.3033471107483	0.0999753475189209
49	227.0005383491516	fix_pre	0		120	47.0	2.5	blank	1.0	242.4033224582672	1.0001537799835205
49	228.00069212913513	movie	1		300	47.0	2.5	blank	1.0	243.40347623825073	2.5003585815429688
49	228.3842692375183	pulse	1	t		47.0	2.5	blank	1.0	243.7870533466339	
49	229.984521150589	pulse	1	t		47.0	2.5	blank	1.0	245.3873052597046	
49	230.5010507106781	fix_post	2		12	47.0	2.5	blank	1.0	245.9038348197937	0.10002470016479492
50	230.6010754108429	fix_pre	0		119	48.0	2.5	/experiments/knapen_AOT/AOT_stimuli/rescaled_final/1463_fw.mp4	0.0	246.0038595199585	1.0002014636993408
50	231.58484411239624	pulse	0	t		48.0	2.5	/experiments/knapen_AOT/AOT_stimuli/rescaled_final/1463_fw.mp4	0.0	246.98762822151184	
50	231.60127687454224	movie	1		289	48.0	2.5	/experiments/knapen_AOT/AOT_stimuli/rescaled_final/1463_fw.mp4	0.0	247.00406098365784	2.5003106594085693
50	233.18321752548218	pulse	1	t		48.0	2.5	/experiments/knapen_AOT/AOT_stimuli/rescaled_final/1463_fw.mp4	0.0	248.58600163459778	
50	234.1015875339508	fix_post	2		12	48.0	2.5	/experiments/knapen_AOT/AOT_stimuli/rescaled_final/1463_fw.mp4	0.0	249.5043716430664	0.1000220775604248
51	234.20160961151123	fix_pre	0		120	49.0	2.5	/experiments/knapen_AOT/AOT_stimuli/rescaled_final/0521_fw.mp4	0.0	249.60439372062683	1.0085136890411377
51	234.78532576560974	pulse	0	t		49.0	2.5	/experiments/knapen_AOT/AOT_stimuli/rescaled_final/0521_fw.mp4	0.0	250.18810987472534	
51	235.21012330055237	movie	1		280	49.0	2.5	/experiments/knapen_AOT/AOT_stimuli/rescaled_final/0521_fw.mp4	0.0	250.61290740966797	2.49218487739563
51	236.38458704948425	pulse	1	t		49.0	2.5	/experiments/knapen_AOT/AOT_stimuli/rescaled_final/0521_fw.mp4	0.0	251.78737115859985	
51	237.702308177948	fix_post	2		12	49.0	2.5	/experiments/knapen_AOT/AOT_stimuli/rescaled_final/0521_fw.mp4	0.0	253.1050922870636	0.09984064102172852
52	237.80214881896973	fix_pre	0		120	50.0	2.5	/experiments/knapen_AOT/AOT_stimuli/rescaled_final/1093_fw.mp4	0.0	253.20493292808533	1.0086236000061035
52	237.98579049110413	pulse	0	t		50.0	2.5	/experiments/knapen_AOT/AOT_stimuli/rescaled_final/1093_fw.mp4	0.0	253.38857460021973	
52	238.81077241897583	movie	1		274	50.0	2.5	/experiments/knapen_AOT/AOT_stimuli/rescaled_final/1093_fw.mp4	0.0	254.21355652809143	2.491867780685425
52	239.5845170021057	pulse	1	t		50.0	2.5	/experiments/knapen_AOT/AOT_stimuli/rescaled_final/1093_fw.mp4	0.0	254.9873011112213	
52	241.18450593948364	pulse	1	t		50.0	2.5	/experiments/knapen_AOT/AOT_stimuli/rescaled_final/1093_fw.mp4	0.0	256.58729004859924	
52	241.30264019966125	fix_post	2		12	50.0	2.5	/experiments/knapen_AOT/AOT_stimuli/rescaled_final/1093_fw.mp4	0.0	256.70542430877686	0.10002803802490234
53	241.40266823768616	fix_pre	0		120	51.0	2.5	/experiments/knapen_AOT/AOT_stimuli/rescaled_final/0200_fw.mp4	0.0	256.80545234680176	1.0085418224334717
53	242.41121006011963	movie	1		283	51.0	2.5	/experiments/knapen_AOT/AOT_stimuli/rescaled_final/0200_fw.mp4	0.0	257.81399416923523	2.4919819831848145
53	242.78529524803162	pulse	1	t		51.0	2.5	/experiments/knapen_AOT/AOT_stimuli/rescaled_final/0200_fw.mp4	0.0	258.1880793571472	
53	244.38450241088867	pulse	1	t		51.0	2.5	/experiments/knapen_AOT/AOT_stimuli/rescaled_final/0200_fw.mp4	0.0	259.7872865200043	
53	244.90319204330444	fix_post	2		12	51.0	2.5	/experiments/knapen_AOT/AOT_stimuli/rescaled_final/0200_fw.mp4	0.0	260.30597615242004	0.1000208854675293
54	245.00321292877197	fix_pre	0		118	52.0	2.5	/experiments/knapen_AOT/AOT_stimuli/rescaled_final/1629_fw.mp4	0.0	260.4059970378876	0.9918112754821777
54	245.97875237464905	pulse	0	t		52.0	2.5	/experiments/knapen_AOT/AOT_stimuli/rescaled_final/1629_fw.mp4	0.0	261.38153648376465	
54	245.99502420425415	movie	1		277	52.0	2.5	/experiments/knapen_AOT/AOT_stimuli/rescaled_final/1629_fw.mp4	0.0	261.39780831336975	2.5004239082336426
54	247.57900071144104	pulse	1	t		52.0	2.5	/experiments/knapen_AOT/AOT_stimuli/rescaled_final/1629_fw.mp4	0.0	262.98178482055664	
54	248.4954481124878	fix_post	2		12	52.0	2.5	/experiments/knapen_AOT/AOT_stimuli/rescaled_final/1629_fw.mp4	0.0	263.8982322216034	0.09999489784240723
55	248.5954430103302	fix_pre	0		120	53.0	2.5	/experiments/knapen_AOT/AOT_stimuli/rescaled_final/1656_fw.mp4	0.0	263.9982271194458	1.0085115432739258
55	249.17907094955444	pulse	0	t		53.0	2.5	/experiments/knapen_AOT/AOT_stimuli/rescaled_final/1656_fw.mp4	0.0	264.58185505867004	
55	249.60395455360413	movie	1		287	53.0	2.5	/experiments/knapen_AOT/AOT_stimuli/rescaled_final/1656_fw.mp4	0.0	265.0067386627197	2.492041826248169
55	250.77929425239563	pulse	1	t		53.0	2.5	/experiments/knapen_AOT/AOT_stimuli/rescaled_final/1656_fw.mp4	0.0	266.18207836151123	
55	252.0959963798523	fix_post	2		12	53.0	2.5	/experiments/knapen_AOT/AOT_stimuli/rescaled_final/1656_fw.mp4	0.0	267.4987804889679	0.09996891021728516
56	252.19596529006958	fix_pre	0		120	54.0	2.5	blank	1.0	267.5987493991852	1.0001895427703857
56	252.3795771598816	pulse	0	t		54.0	2.5	blank	1.0	267.7823612689972	
56	253.19615483283997	movie	1		300	54.0	2.5	blank	1.0	268.59893894195557	2.500361442565918
56	253.97983622550964	pulse	1	t		54.0	2.5	blank	1.0	269.38262033462524	
56	255.5800220966339	pulse	1	t		54.0	2.5	blank	1.0	270.9828062057495	
56	255.69651627540588	fix_post	2		12	54.0	2.5	blank	1.0	271.0993003845215	0.1000375747680664
57	255.79655385017395	fix_pre	0		120	55.0	2.5	/experiments/knapen_AOT/AOT_stimuli/rescaled_final/0387_rv.mp4	0.0	271.19933795928955	1.0084667205810547
57	256.805020570755	movie	1		292	55.0	2.5	/experiments/knapen_AOT/AOT_stimuli/rescaled_final/0387_rv.mp4	0.0	272.2078046798706	2.4920666217803955
57	257.17879700660706	pulse	1	t		55.0	2.5	/experiments/knapen_AOT/AOT_stimuli/rescaled_final/0387_rv.mp4	0.0	272.58158111572266	
57	258.7805263996124	pulse	1	t		55.0	2.5	/experiments/knapen_AOT/AOT_stimuli/rescaled_final/0387_rv.mp4	0.0	274.183310508728	
57	259.2970871925354	fix_post	2		12	55.0	2.5	/experiments/knapen_AOT/AOT_stimuli/rescaled_final/0387_rv.mp4	0.0	274.699871301651	0.09997034072875977
58	259.39705753326416	fix_pre	0		119	56.0	2.5	/experiments/knapen_AOT/AOT_stimuli/rescaled_final/0087_rv.mp4	0.0	274.79984164237976	1.000150442123413
58	260.3808879852295	pulse	0	t		56.0	2.5	/experiments/knapen_AOT/AOT_stimuli/rescaled_final/0087_rv.mp4	0.0	275.7836720943451	
58	260.3972079753876	movie	1		271	56.0	2.5	/experiments/knapen_AOT/AOT_stimuli/rescaled_final/0087_rv.mp4	0.0	275.7999920845032	2.5004425048828125
58	261.9802451133728	pulse	1	t		56.0	2.5	/experiments/knapen_AOT/AOT_stimuli/rescaled_final/0087_rv.mp4	0.0	277.3830292224884	
58	262.8976504802704	fix_post	2		12	56.0	2.5	/experiments/knapen_AOT/AOT_stimuli/rescaled_final/0087_rv.mp4	0.0	278.300434589386	0.10002446174621582
59	262.9976749420166	fix_pre	0		120	57.0	2.5	/experiments/knapen_AOT/AOT_stimuli/rescaled_final/1975_fw.mp4	0.0	278.4004590511322	1.008409023284912
59	263.58124470710754	pulse	0	t		57.0	2.5	/experiments/knapen_AOT/AOT_stimuli/rescaled_final/1975_fw.mp4	0.0	278.98402881622314	
59	264.0060839653015	movie	1		281	57.0	2.5	/experiments/knapen_AOT/AOT_stimuli/rescaled_final/1975_fw.mp4	0.0	279.4088680744171	2.492025136947632
59	265.1793837547302	pulse	1	t		57.0	2.5	/experiments/knapen_AOT/AOT_stimuli/rescaled_final/1975_fw.mp4	0.0	280.5821678638458	
59	266.49810910224915	fix_post	2		12	57.0	2.5	/experiments/knapen_AOT/AOT_stimuli/rescaled_final/1975_fw.mp4	0.0	281.90089321136475	0.10003542900085449
60	266.59814453125	fix_pre	0		120	58.0	2.5	/experiments/knapen_AOT/AOT_stimuli/rescaled_final/1907_rv.mp4	0.0	282.0009286403656	1.0085418224334717
60	266.7817611694336	pulse	0	t		58.0	2.5	/experiments/knapen_AOT/AOT_stimuli/rescaled_final/1907_rv.mp4	0.0	282.1845452785492	
60	267.6066863536835	movie	1		283	58.0	2.5	/experiments/knapen_AOT/AOT_stimuli/rescaled_final/1907_rv.mp4	0.0	283.0094704627991	2.4920008182525635
60	268.3806121349335	pulse	1	t		58.0	2.5	/experiments/knapen_AOT/AOT_stimuli/rescaled_final/1907_rv.mp4	0.0	283.7833962440491	
60	269.9801895618439	pulse	1	t		58.0	2.5	/experiments/knapen_AOT/AOT_stimuli/rescaled_final/1907_rv.mp4	0.0	285.3829736709595	
60	270.09868717193604	fix_post	2		12	58.0	2.5	/experiments/knapen_AOT/AOT_stimuli/rescaled_final/1907_rv.mp4	0.0	285.50147128105164	0.09999871253967285
61	270.1986858844757	fix_pre	0		120	59.0	2.5	/experiments/knapen_AOT/AOT_stimuli/rescaled_final/1537_fw.mp4	0.0	285.6014699935913	1.0085039138793945
61	271.2071897983551	movie	1		278	59.0	2.5	/experiments/knapen_AOT/AOT_stimuli/rescaled_final/1537_fw.mp4	0.0	286.6099739074707	2.4920122623443604
61	271.5815510749817	pulse	1	t		59.0	2.5	/experiments/knapen_AOT/AOT_stimuli/rescaled_final/1537_fw.mp4	0.0	286.9843351840973	
61	273.1806802749634	pulse	1	t		59.0	2.5	/experiments/knapen_AOT/AOT_stimuli/rescaled_final/1537_fw.mp4	0.0	288.583464384079	
61	273.69920206069946	fix_post	2		12	59.0	2.5	/experiments/knapen_AOT/AOT_stimuli/rescaled_final/1537_fw.mp4	0.0	289.10198616981506	0.10004568099975586
62	273.7992477416992	fix_pre	0		119	60.0	2.5	/experiments/knapen_AOT/AOT_stimuli/rescaled_final/0304_fw.mp4	0.0	289.2020318508148	1.0001368522644043
62	274.7830502986908	pulse	0	t		60.0	2.5	/experiments/knapen_AOT/AOT_stimuli/rescaled_final/0304_fw.mp4	0.0	290.1858344078064	
62	274.7993845939636	movie	1		287	60.0	2.5	/experiments/knapen_AOT/AOT_stimuli/rescaled_final/0304_fw.mp4	0.0	290.2021687030792	2.500410795211792
62	276.3815085887909	pulse	1	t		60.0	2.5	/experiments/knapen_AOT/AOT_stimuli/rescaled_final/0304_fw.mp4	0.0	291.7842926979065	
62	277.2997953891754	fix_post	2		12	60.0	2.5	/experiments/knapen_AOT/AOT_stimuli/rescaled_final/0304_fw.mp4	0.0	292.702579498291	0.10000848770141602
63	277.39980387687683	fix_pre	0		120	61.0	2.5	/experiments/knapen_AOT/AOT_stimuli/rescaled_final/0180_rv.mp4	0.0	292.80258798599243	1.0084738731384277
63	277.9834222793579	pulse	0	t		61.0	2.5	/experiments/knapen_AOT/AOT_stimuli/rescaled_final/0180_rv.mp4	0.0	293.3862063884735	
63	278.40827775001526	movie	1		284	61.0	2.5	/experiments/knapen_AOT/AOT_stimuli/rescaled_final/0180_rv.mp4	0.0	293.81106185913086	2.4920260906219482
63	279.5821409225464	pulse	1	t		61.0	2.5	/experiments/knapen_AOT/AOT_stimuli/rescaled_final/0180_rv.mp4	0.0	294.984925031662	
63	280.9003038406372	fix_post	2		12	61.0	2.5	/experiments/knapen_AOT/AOT_stimuli/rescaled_final/0180_rv.mp4	0.0	296.3030879497528	0.09999895095825195
64	281.00030279159546	fix_pre	0		120	62.0	2.5	blank	1.0	296.40308690071106	1.0001704692840576
64	281.18389773368835	pulse	0	t		62.0	2.5	blank	1.0	296.58668184280396	
64	282.0004732608795	movie	1		300	62.0	2.5	blank	1.0	297.4032573699951	2.5003914833068848
64	282.7841811180115	pulse	1	t		62.0	2.5	blank	1.0	298.1869652271271	
64	284.38432097435	pulse	1	t		62.0	2.5	blank	1.0	299.7871050834656	
64	284.5008647441864	fix_post	2		12	62.0	2.5	blank	1.0	299.903648853302	0.1000213623046875
65	284.6008861064911	fix_pre	0		120	63.0	2.5	/experiments/knapen_AOT/AOT_stimuli/rescaled_final/0317_rv.mp4	0.0	300.0036702156067	1.0084714889526367
65	285.6093575954437	movie	1		270	63.0	2.5	/experiments/knapen_AOT/AOT_stimuli/rescaled_final/0317_rv.mp4	0.0	301.0121417045593	2.4920079708099365
65	285.9835994243622	pulse	1	t		63.0	2.5	/experiments/knapen_AOT/AOT_stimuli/rescaled_final/0317_rv.mp4	0.0	301.3863835334778	
65	287.5831696987152	pulse	1	t		63.0	2.5	/experiments/knapen_AOT/AOT_stimuli/rescaled_final/0317_rv.mp4	0.0	302.9859538078308	
65	288.10136556625366	fix_post	2		12	63.0	2.5	/experiments/knapen_AOT/AOT_stimuli/rescaled_final/0317_rv.mp4	0.0	303.50414967536926	0.10002517700195312
66	288.2013907432556	fix_pre	0		119	64.0	2.5	/experiments/knapen_AOT/AOT_stimuli/rescaled_final/0164_fw.mp4	0.0	303.6041748523712	1.0001602172851562
66	289.1851830482483	pulse	0	t		64.0	2.5	/experiments/knapen_AOT/AOT_stimuli/rescaled_final/0164_fw.mp4	0.0	304.5879671573639	
66	289.20155096054077	movie	1		281	64.0	2.5	/experiments/knapen_AOT/AOT_stimuli/rescaled_final/0164_fw.mp4	0.0	304.6043350696564	2.5004031658172607
66	290.78391003608704	pulse	1	t		64.0	2.5	/experiments/knapen_AOT/AOT_stimuli/rescaled_final/0164_fw.mp4	0.0	306.18669414520264	
66	291.70195412635803	fix_post	2		12	64.0	2.5	/experiments/knapen_AOT/AOT_stimuli/rescaled_final/0164_fw.mp4	0.0	307.10473823547363	0.10002470016479492
67	291.8019788265228	fix_pre	0		120	65.0	2.5	/experiments/knapen_AOT/AOT_stimuli/rescaled_final/1186_rv.mp4	0.0	307.2047629356384	1.0084254741668701
67	292.385484457016	pulse	0	t		65.0	2.5	/experiments/knapen_AOT/AOT_stimuli/rescaled_final/1186_rv.mp4	0.0	307.7882685661316	
67	292.8104043006897	movie	1		291	65.0	2.5	/experiments/knapen_AOT/AOT_stimuli/rescaled_final/1186_rv.mp4	0.0	308.2131884098053	2.4920499324798584
67	293.98399448394775	pulse	1	t		65.0	2.5	/experiments/knapen_AOT/AOT_stimuli/rescaled_final/1186_rv.mp4	0.0	309.38677859306335	
67	295.30245423316956	fix_post	2		12	65.0	2.5	/experiments/knapen_AOT/AOT_stimuli/rescaled_final/1186_rv.mp4	0.0	310.70523834228516	0.09999823570251465
68	295.40245246887207	fix_pre	0		120	66.0	2.5	/experiments/knapen_AOT/AOT_stimuli/rescaled_final/0856_fw.mp4	0.0	310.80523657798767	1.0085675716400146
68	295.57806062698364	pulse	0	t		66.0	2.5	/experiments/knapen_AOT/AOT_stimuli/rescaled_final/0856_fw.mp4	0.0	310.98084473609924	
68	296.4110200405121	movie	1		274	66.0	2.5	/experiments/knapen_AOT/AOT_stimuli/rescaled_final/0856_fw.mp4	0.0	311.8138041496277	2.49198579788208
68	297.17813301086426	pulse	1	t		66.0	2.5	/experiments/knapen_AOT/AOT_stimuli/rescaled_final/0856_fw.mp4	0.0	312.58091711997986	
68	298.77829003334045	pulse	1	t		66.0	2.5	/experiments/knapen_AOT/AOT_stimuli/rescaled_final/0856_fw.mp4	0.0	314.18107414245605	
68	298.90300583839417	fix_post	2		12	66.0	2.5	/experiments/knapen_AOT/AOT_stimuli/rescaled_final/0856_fw.mp4	0.0	314.30578994750977	0.10005521774291992
69	299.0030610561371	fix_pre	0		120	67.0	2.5	/experiments/knapen_AOT/AOT_stimuli/rescaled_final/0295_fw.mp4	0.0	314.4058451652527	1.0084607601165771
69	300.01152181625366	movie	1		288	67.0	2.5	/experiments/knapen_AOT/AOT_stimuli/rescaled_final/0295_fw.mp4	0.0	315.41430592536926	2.492027997970581
69	300.3786242008209	pulse	1	t		67.0	2.5	/experiments/knapen_AOT/AOT_stimuli/rescaled_final/0295_fw.mp4	0.0	315.7814083099365	
69	301.97868633270264	pulse	1	t		67.0	2.5	/experiments/knapen_AOT/AOT_stimuli/rescaled_final/0295_fw.mp4	0.0	317.38147044181824	
69	302.50354981422424	fix_post	2		12	67.0	2.5	/experiments/knapen_AOT/AOT_stimuli/rescaled_final/0295_fw.mp4	0.0	317.90633392333984	0.10001420974731445
70	302.60356402397156	fix_pre	0		118	68.0	2.5	/experiments/knapen_AOT/AOT_stimuli/rescaled_final/0795_rv.mp4	0.0	318.00634813308716	0.9918277263641357
70	303.5790824890137	pulse	0	t		68.0	2.5	/experiments/knapen_AOT/AOT_stimuli/rescaled_final/0795_rv.mp4	0.0	318.9818665981293	
70	303.5953917503357	movie	1		274	68.0	2.5	/experiments/knapen_AOT/AOT_stimuli/rescaled_final/0795_rv.mp4	0.0	318.9981758594513	2.5003674030303955
70	305.17862343788147	pulse	1	t		68.0	2.5	/experiments/knapen_AOT/AOT_stimuli/rescaled_final/0795_rv.mp4	0.0	320.58140754699707	
70	306.0957591533661	fix_post	2		12	68.0	2.5	/experiments/knapen_AOT/AOT_stimuli/rescaled_final/0795_rv.mp4	0.0	321.4985432624817	0.10000133514404297
71	306.19576048851013	fix_pre	0		120	69.0	2.5	blank	1.0	321.59854459762573	1.0001606941223145
71	306.7795264720917	pulse	0	t		69.0	2.5	blank	1.0	322.1823105812073	
71	307.19592118263245	movie	1		300	69.0	2.5	blank	1.0	322.59870529174805	2.500349998474121
71	308.37964391708374	pulse	1	t		69.0	2.5	blank	1.0	323.78242802619934	
71	309.69627118110657	fix_post	2		12	69.0	2.5	blank	1.0	325.09905529022217	0.10005998611450195
72	309.79633116722107	fix_pre	0		120	70.0	2.5	/experiments/knapen_AOT/AOT_stimuli/rescaled_final/0788_fw.mp4	0.0	325.19911527633667	1.0084846019744873
72	309.97990250587463	pulse	0	t		70.0	2.5	/experiments/knapen_AOT/AOT_stimuli/rescaled_final/0788_fw.mp4	0.0	325.38268661499023	
72	310.80481576919556	movie	1		288	70.0	2.5	/experiments/knapen_AOT/AOT_stimuli/rescaled_final/0788_fw.mp4	0.0	326.20759987831116	2.492004156112671
72	311.57831716537476	pulse	1	t		70.0	2.5	/experiments/knapen_AOT/AOT_stimuli/rescaled_final/0788_fw.mp4	0.0	326.98110127449036	
72	313.1782898902893	pulse	1	t		70.0	2.5	/experiments/knapen_AOT/AOT_stimuli/rescaled_final/0788_fw.mp4	0.0	328.5810739994049	
72	313.2968199253082	fix_post	2		12	70.0	2.5	/experiments/knapen_AOT/AOT_stimuli/rescaled_final/0788_fw.mp4	0.0	328.6996040344238	0.10007667541503906
73	313.39689660072327	fix_pre	0		120	71.0	2.5	/experiments/knapen_AOT/AOT_stimuli/rescaled_final/0257_rv.mp4	0.0	328.79968070983887	1.0084302425384521
73	314.4053268432617	movie	1		276	71.0	2.5	/experiments/knapen_AOT/AOT_stimuli/rescaled_final/0257_rv.mp4	0.0	329.8081109523773	2.4920506477355957
73	314.7788915634155	pulse	1	t		71.0	2.5	/experiments/knapen_AOT/AOT_stimuli/rescaled_final/0257_rv.mp4	0.0	330.1816756725311	
73	316.3814468383789	pulse	1	t		71.0	2.5	/experiments/knapen_AOT/AOT_stimuli/rescaled_final/0257_rv.mp4	0.0	331.7842309474945	
73	316.8973774909973	fix_post	2		12	71.0	2.5	/experiments/knapen_AOT/AOT_stimuli/rescaled_final/0257_rv.mp4	0.0	332.3001616001129	0.10001111030578613
74	316.9973886013031	fix_pre	0		119	72.0	2.5	/experiments/knapen_AOT/AOT_stimuli/rescaled_final/1310_rv.mp4	0.0	332.4001727104187	1.0085475444793701
74	317.98120164871216	pulse	0	t		72.0	2.5	/experiments/knapen_AOT/AOT_stimuli/rescaled_final/1310_rv.mp4	0.0	333.38398575782776	
74	318.00593614578247	movie	1		272	72.0	2.5	/experiments/knapen_AOT/AOT_stimuli/rescaled_final/1310_rv.mp4	0.0	333.40872025489807	2.491969108581543
74	319.58051562309265	pulse	1	t		72.0	2.5	/experiments/knapen_AOT/AOT_stimuli/rescaled_final/1310_rv.mp4	0.0	334.98329973220825	
74	320.497905254364	fix_post	2		12	72.0	2.5	/experiments/knapen_AOT/AOT_stimuli/rescaled_final/1310_rv.mp4	0.0	335.9006893634796	0.10005521774291992
75	320.59796047210693	fix_pre	0		120	73.0	2.5	/experiments/knapen_AOT/AOT_stimuli/rescaled_final/1268_rv.mp4	0.0	336.00074458122253	1.0084664821624756
75	321.1815576553345	pulse	0	t		73.0	2.5	/experiments/knapen_AOT/AOT_stimuli/rescaled_final/1268_rv.mp4	0.0	336.5843417644501	
75	321.6064269542694	movie	1		285	73.0	2.5	/experiments/knapen_AOT/AOT_stimuli/rescaled_final/1268_rv.mp4	0.0	337.009211063385	2.4921717643737793
75	322.7801344394684	pulse	1	t		73.0	2.5	/experiments/knapen_AOT/AOT_stimuli/rescaled_final/1268_rv.mp4	0.0	338.182918548584	
75	324.0985987186432	fix_post	2		12	73.0	2.5	/experiments/knapen_AOT/AOT_stimuli/rescaled_final/1268_rv.mp4	0.0	339.5013828277588	0.09989523887634277
76	324.19849395751953	fix_pre	0		120	74.0	2.5	/experiments/knapen_AOT/AOT_stimuli/rescaled_final/0426_rv.mp4	0.0	339.60127806663513	1.0084550380706787
76	324.3822531700134	pulse	0	t		74.0	2.5	/experiments/knapen_AOT/AOT_stimuli/rescaled_final/0426_rv.mp4	0.0	339.785037279129	
76	325.2069489955902	movie	1		270	74.0	2.5	/experiments/knapen_AOT/AOT_stimuli/rescaled_final/0426_rv.mp4	0.0	340.6097331047058	2.492039918899536
76	325.9803578853607	pulse	1	t		74.0	2.5	/experiments/knapen_AOT/AOT_stimuli/rescaled_final/0426_rv.mp4	0.0	341.3831419944763	
76	327.58090710639954	pulse	1	t		74.0	2.5	/experiments/knapen_AOT/AOT_stimuli/rescaled_final/0426_rv.mp4	0.0	342.98369121551514	
76	327.69898891448975	fix_post	2		12	74.0	2.5	/experiments/knapen_AOT/AOT_stimuli/rescaled_final/0426_rv.mp4	0.0	343.10177302360535	0.10009288787841797
77	327.79908180236816	fix_pre	0		120	75.0	2.5	/experiments/knapen_AOT/AOT_stimuli/rescaled_final/1555_rv.mp4	0.0	343.20186591148376	1.0084314346313477
77	328.8075132369995	movie	1		277	75.0	2.5	/experiments/knapen_AOT/AOT_stimuli/rescaled_final/1555_rv.mp4	0.0	344.2102973461151	2.492030382156372
77	329.1830883026123	pulse	1	t		75.0	2.5	/experiments/knapen_AOT/AOT_stimuli/rescaled_final/1555_rv.mp4	0.0	344.5858724117279	
77	330.7808063030243	pulse	1	t		75.0	2.5	/experiments/knapen_AOT/AOT_stimuli/rescaled_final/1555_rv.mp4	0.0	346.1835904121399	
77	331.2995436191559	fix_post	2		12	75.0	2.5	/experiments/knapen_AOT/AOT_stimuli/rescaled_final/1555_rv.mp4	0.0	346.7023277282715	0.10010242462158203
78	331.39964604377747	fix_pre	0		119	76.0	2.5	/experiments/knapen_AOT/AOT_stimuli/rescaled_final/0536_rv.mp4	0.0	346.80243015289307	1.0001020431518555
78	332.38322496414185	pulse	0	t		76.0	2.5	/experiments/knapen_AOT/AOT_stimuli/rescaled_final/0536_rv.mp4	0.0	347.78600907325745	
78	332.3997480869293	movie	1		277	76.0	2.5	/experiments/knapen_AOT/AOT_stimuli/rescaled_final/0536_rv.mp4	0.0	347.8025321960449	2.5003180503845215
78	333.98179173469543	pulse	1	t		76.0	2.5	/experiments/knapen_AOT/AOT_stimuli/rescaled_final/0536_rv.mp4	0.0	349.38457584381104	
78	334.90006613731384	fix_post	2		12	76.0	2.5	/experiments/knapen_AOT/AOT_stimuli/rescaled_final/0536_rv.mp4	0.0	350.30285024642944	0.1000220775604248
79	335.00008821487427	fix_pre	0		120	77.0	2.5	blank	1.0	350.40287232398987	1.0001368522644043
79	335.5837016105652	pulse	0	t		77.0	2.5	blank	1.0	350.9864857196808	
79	336.0002250671387	movie	1		300	77.0	2.5	blank	1.0	351.4030091762543	2.5003836154937744
79	337.183963060379	pulse	1	t		77.0	2.5	blank	1.0	352.58674716949463	
79	338.50060868263245	fix_post	2		12	77.0	2.5	blank	1.0	353.90339279174805	0.10008049011230469
80	338.60068917274475	fix_pre	0		120	78.0	2.5	/experiments/knapen_AOT/AOT_stimuli/rescaled_final/1650_rv.mp4	0.0	354.00347328186035	1.008448600769043
80	338.7841877937317	pulse	0	t		78.0	2.5	/experiments/knapen_AOT/AOT_stimuli/rescaled_final/1650_rv.mp4	0.0	354.1869719028473	
80	339.6091377735138	movie	1		288	78.0	2.5	/experiments/knapen_AOT/AOT_stimuli/rescaled_final/1650_rv.mp4	0.0	355.0119218826294	2.4920077323913574
80	340.3823821544647	pulse	1	t		78.0	2.5	/experiments/knapen_AOT/AOT_stimuli/rescaled_final/1650_rv.mp4	0.0	355.7851662635803	
80	341.9829773902893	pulse	1	t		78.0	2.5	/experiments/knapen_AOT/AOT_stimuli/rescaled_final/1650_rv.mp4	0.0	357.3857614994049	
80	342.10114550590515	fix_post	2		12	78.0	2.5	/experiments/knapen_AOT/AOT_stimuli/rescaled_final/1650_rv.mp4	0.0	357.50392961502075	0.10003018379211426
81	342.20117568969727	fix_pre	0		120	79.0	2.5	/experiments/knapen_AOT/AOT_stimuli/rescaled_final/0676_fw.mp4	0.0	357.60395979881287	1.0085008144378662
81	343.20967650413513	movie	1		280	79.0	2.5	/experiments/knapen_AOT/AOT_stimuli/rescaled_final/0676_fw.mp4	0.0	358.61246061325073	2.492032527923584
81	343.5831768512726	pulse	1	t		79.0	2.5	/experiments/knapen_AOT/AOT_stimuli/rescaled_final/0676_fw.mp4	0.0	358.9859609603882	
81	345.18350410461426	pulse	1	t		79.0	2.5	/experiments/knapen_AOT/AOT_stimuli/rescaled_final/0676_fw.mp4	0.0	360.58628821372986	
81	345.7017090320587	fix_post	2		12	79.0	2.5	/experiments/knapen_AOT/AOT_stimuli/rescaled_final/0676_fw.mp4	0.0	361.1044931411743	0.10001206398010254
82	345.8017210960388	fix_pre	0		119	80.0	2.5	/experiments/knapen_AOT/AOT_stimuli/rescaled_final/1006_rv.mp4	0.0	361.2045052051544	1.0001368522644043
82	346.7853968143463	pulse	0	t		80.0	2.5	/experiments/knapen_AOT/AOT_stimuli/rescaled_final/1006_rv.mp4	0.0	362.1881809234619	
82	346.8018579483032	movie	1		290	80.0	2.5	/experiments/knapen_AOT/AOT_stimuli/rescaled_final/1006_rv.mp4	0.0	362.2046420574188	2.500415802001953
82	348.3839440345764	pulse	1	t		80.0	2.5	/experiments/knapen_AOT/AOT_stimuli/rescaled_final/1006_rv.mp4	0.0	363.786728143692	
82	349.3022737503052	fix_post	2		12	80.0	2.5	/experiments/knapen_AOT/AOT_stimuli/rescaled_final/1006_rv.mp4	0.0	364.7050578594208	0.09998559951782227
83	349.402259349823	fix_pre	0		120	81.0	2.5	/experiments/knapen_AOT/AOT_stimuli/rescaled_final/2062_rv.mp4	0.0	364.8050434589386	1.008490800857544
83	349.9858932495117	pulse	0	t		81.0	2.5	/experiments/knapen_AOT/AOT_stimuli/rescaled_final/2062_rv.mp4	0.0	365.3886773586273	
83	350.41075015068054	movie	1		276	81.0	2.5	/experiments/knapen_AOT/AOT_stimuli/rescaled_final/2062_rv.mp4	0.0	365.81353425979614	2.491990327835083
83	351.5841073989868	pulse	1	t		81.0	2.5	/experiments/knapen_AOT/AOT_stimuli/rescaled_final/2062_rv.mp4	0.0	366.9868915081024	
83	352.9027404785156	fix_post	2		12	81.0	2.5	/experiments/knapen_AOT/AOT_stimuli/rescaled_final/2062_rv.mp4	0.0	368.3055245876312	0.10003948211669922
84	353.0027799606323	fix_pre	0		120	82.0	2.5	blank	1.0	368.4055640697479	1.0001277923583984
84	353.17860555648804	pulse	0	t		82.0	2.5	blank	1.0	368.58138966560364	
84	354.0029077529907	movie	1		300	82.0	2.5	blank	1.0	369.4056918621063	2.5003931522369385
84	354.77862095832825	pulse	1	t		82.0	2.5	blank	1.0	370.18140506744385	
84	356.37853360176086	pulse	1	t		82.0	2.5	blank	1.0	371.78131771087646	
84	356.50330090522766	fix_post	2		12	82.0	2.5	blank	1.0	371.90608501434326	0.10002017021179199
85	356.60332107543945	fix_pre	0		120	83.0	2.5	/experiments/knapen_AOT/AOT_stimuli/rescaled_final/1180_rv.mp4	0.0	372.00610518455505	1.0084686279296875
85	357.61178970336914	movie	1		268	83.0	2.5	/experiments/knapen_AOT/AOT_stimuli/rescaled_final/1180_rv.mp4	0.0	373.01457381248474	2.4920566082000732
85	357.9874541759491	pulse	1	t		83.0	2.5	/experiments/knapen_AOT/AOT_stimuli/rescaled_final/1180_rv.mp4	0.0	373.3902382850647	
85	359.57898020744324	pulse	1	t		83.0	2.5	/experiments/knapen_AOT/AOT_stimuli/rescaled_final/1180_rv.mp4	0.0	374.98176431655884	
85	360.1038463115692	fix_post	2		12	83.0	2.5	/experiments/knapen_AOT/AOT_stimuli/rescaled_final/1180_rv.mp4	0.0	375.5066304206848	0.10000014305114746
87	360.20384645462036	stim	0		1715					375.60663056373596	14.293836832046509
87	361.17935967445374	pulse	0	t						376.58214378356934	
87	362.7794885635376	pulse	0	t						378.1822726726532	
87	364.37967824935913	pulse	0	t						379.78246235847473	
87	365.9799563884735	pulse	0	t						381.3827404975891	
87	367.58043694496155	pulse	0	t						382.98322105407715	
87	369.1804213523865	pulse	0	t						384.5832054615021	
87	370.7806861400604	pulse	0	t						386.183470249176	
87	372.38101148605347	pulse	0	t						387.78379559516907	
87	373.9811387062073	pulse	0	t						389.3839228153229	
