trial_nr	onset	event_type	phase	response	nr_frames	movie_index	movie_duration	movie_file	blank	onset_abs	duration
0	0.1578519344329834	stim	0		28					20.198659896850586	0.23360490798950195
0	0.383497953414917	response	0	space						20.42430591583252	
1	0.39145684242248535	stim	0		15899					20.432264804840088	132.4906041622162
1	132.87917590141296	pulse	0	t						152.91998386383057	
1	132.88206100463867	stim	1		1717					152.92286896705627	14.308794975280762
1	134.4743869304657	pulse	1	t						154.5151948928833	
1	136.07437801361084	pulse	1	t						156.11518597602844	
1	137.6742720603943	pulse	1	t						157.7150800228119	
1	139.27435302734375	pulse	1	t						159.31516098976135	
1	140.87443089485168	pulse	1	t						160.9152388572693	
1	142.47428703308105	pulse	1	t						162.51509499549866	
1	144.07437896728516	pulse	1	t						164.11518692970276	
1	145.67430996894836	pulse	1	t						165.71511793136597	
2	147.19085597991943	fix_pre	0		11	0.0	2.5	/experiments/AOT/AOT_stimuli/rescaled_final/1796_rv.mp4	0.0	167.23166394233704	0.09164786338806152
2	147.27426195144653	pulse	0	t		0.0	2.5	/experiments/AOT/AOT_stimuli/rescaled_final/1796_rv.mp4	0.0	167.31506991386414	
2	147.2825038433075	movie	1		244	0.0	2.5	/experiments/AOT/AOT_stimuli/rescaled_final/1796_rv.mp4	0.0	167.3233118057251	2.50789213180542
2	148.87403988838196	pulse	1	t		0.0	2.5	/experiments/AOT/AOT_stimuli/rescaled_final/1796_rv.mp4	0.0	168.91484785079956	
2	149.79039597511292	fix_post	2		12	0.0	2.5	/experiments/AOT/AOT_stimuli/rescaled_final/1796_rv.mp4	0.0	169.83120393753052	0.10039401054382324
3	149.89078998565674	fix_pre	0		120	1.0	2.5	/experiments/AOT/AOT_stimuli/rescaled_final/0881_rv.mp4	0.0	169.93159794807434	0.9999949932098389
3	150.47423696517944	pulse	0	t		1.0	2.5	/experiments/AOT/AOT_stimuli/rescaled_final/0881_rv.mp4	0.0	170.51504492759705	
3	150.89078497886658	movie	1		245	1.0	2.5	/experiments/AOT/AOT_stimuli/rescaled_final/0881_rv.mp4	0.0	170.93159294128418	2.500030994415283
3	152.07432198524475	pulse	1	t		1.0	2.5	/experiments/AOT/AOT_stimuli/rescaled_final/0881_rv.mp4	0.0	172.11512994766235	
3	153.39081597328186	fix_post	2		12	1.0	2.5	/experiments/AOT/AOT_stimuli/rescaled_final/0881_rv.mp4	0.0	173.43162393569946	0.10000085830688477
4	153.49081683158875	fix_pre	0		120	2.0	2.5	/experiments/AOT/AOT_stimuli/rescaled_final/0926_fw.mp4	0.0	173.53162479400635	1.000028133392334
4	153.67428994178772	pulse	0	t		2.0	2.5	/experiments/AOT/AOT_stimuli/rescaled_final/0926_fw.mp4	0.0	173.71509790420532	
4	154.49084496498108	movie	1		244	2.0	2.5	/experiments/AOT/AOT_stimuli/rescaled_final/0926_fw.mp4	0.0	174.53165292739868	2.49953293800354
4	155.27434492111206	pulse	1	t		2.0	2.5	/experiments/AOT/AOT_stimuli/rescaled_final/0926_fw.mp4	0.0	175.31515288352966	
4	156.87284088134766	pulse	1	t		2.0	2.5	/experiments/AOT/AOT_stimuli/rescaled_final/0926_fw.mp4	0.0	176.91364884376526	
4	156.99037790298462	fix_post	2		12	2.0	2.5	/experiments/AOT/AOT_stimuli/rescaled_final/0926_fw.mp4	0.0	177.03118586540222	0.10046005249023438
5	157.09083795547485	fix_pre	0		120	3.0	2.5	/experiments/AOT/AOT_stimuli/rescaled_final/0502_rv.mp4	0.0	177.13164591789246	0.9999189376831055
5	158.09075689315796	movie	1		243	3.0	2.5	/experiments/AOT/AOT_stimuli/rescaled_final/0502_rv.mp4	0.0	178.13156485557556	2.5000970363616943
5	158.47397804260254	pulse	1	t		3.0	2.5	/experiments/AOT/AOT_stimuli/rescaled_final/0502_rv.mp4	0.0	178.51478600502014	
5	160.07429885864258	pulse	1	t		3.0	2.5	/experiments/AOT/AOT_stimuli/rescaled_final/0502_rv.mp4	0.0	180.11510682106018	
5	160.59085392951965	fix_post	2		12	3.0	2.5	/experiments/AOT/AOT_stimuli/rescaled_final/0502_rv.mp4	0.0	180.63166189193726	0.09993696212768555
6	160.69079089164734	fix_pre	0		119	4.0	2.5	/experiments/AOT/AOT_stimuli/rescaled_final/0502_fw.mp4	0.0	180.73159885406494	0.9915781021118164
6	161.67424702644348	pulse	0	t		4.0	2.5	/experiments/AOT/AOT_stimuli/rescaled_final/0502_fw.mp4	0.0	181.71505498886108	
6	161.68236899375916	movie	1		245	4.0	2.5	/experiments/AOT/AOT_stimuli/rescaled_final/0502_fw.mp4	0.0	181.72317695617676	2.5080039501190186
6	163.27516984939575	pulse	1	t		4.0	2.5	/experiments/AOT/AOT_stimuli/rescaled_final/0502_fw.mp4	0.0	183.31597781181335	
6	164.19037294387817	fix_post	2		12	4.0	2.5	/experiments/AOT/AOT_stimuli/rescaled_final/0502_fw.mp4	0.0	184.23118090629578	0.1004490852355957
7	164.29082202911377	fix_pre	0		120	5.0	2.5	/experiments/AOT/AOT_stimuli/rescaled_final/1586_rv.mp4	0.0	184.33162999153137	0.9999728202819824
7	164.87429690361023	pulse	0	t		5.0	2.5	/experiments/AOT/AOT_stimuli/rescaled_final/1586_rv.mp4	0.0	184.91510486602783	
7	165.29079484939575	movie	1		246	5.0	2.5	/experiments/AOT/AOT_stimuli/rescaled_final/1586_rv.mp4	0.0	185.33160281181335	2.4998831748962402
7	166.47424292564392	pulse	1	t		5.0	2.5	/experiments/AOT/AOT_stimuli/rescaled_final/1586_rv.mp4	0.0	186.51505088806152	
7	167.790678024292	fix_post	2		12	5.0	2.5	/experiments/AOT/AOT_stimuli/rescaled_final/1586_rv.mp4	0.0	187.8314859867096	0.10004401206970215
8	167.8907220363617	fix_pre	0		120	6.0	2.5	/experiments/AOT/AOT_stimuli/rescaled_final/1302_fw.mp4	0.0	187.9315299987793	0.9999818801879883
8	168.0741879940033	pulse	0	t		6.0	2.5	/experiments/AOT/AOT_stimuli/rescaled_final/1302_fw.mp4	0.0	188.1149959564209	
8	168.89070391654968	movie	1		242	6.0	2.5	/experiments/AOT/AOT_stimuli/rescaled_final/1302_fw.mp4	0.0	188.93151187896729	2.5000360012054443
8	169.674213886261	pulse	1	t		6.0	2.5	/experiments/AOT/AOT_stimuli/rescaled_final/1302_fw.mp4	0.0	189.7150218486786	
8	171.28268694877625	pulse	1	t		6.0	2.5	/experiments/AOT/AOT_stimuli/rescaled_final/1302_fw.mp4	0.0	191.32349491119385	
8	171.39073991775513	fix_post	2		12	6.0	2.5	/experiments/AOT/AOT_stimuli/rescaled_final/1302_fw.mp4	0.0	191.43154788017273	0.09993505477905273
9	171.49067497253418	fix_pre	0		120	7.0	2.5	blank	1.0	191.53148293495178	1.0000848770141602
9	172.49075984954834	movie	1		300	7.0	2.5	blank	1.0	192.53156781196594	2.4998440742492676
9	172.87415289878845	pulse	1	t		7.0	2.5	blank	1.0	192.91496086120605	
9	174.47418594360352	pulse	1	t		7.0	2.5	blank	1.0	194.51499390602112	
9	174.9906039237976	fix_post	2		12	7.0	2.5	blank	1.0	195.0314118862152	0.10013508796691895
10	175.09073901176453	fix_pre	0		119	8.0	2.5	/experiments/AOT/AOT_stimuli/rescaled_final/2106_rv.mp4	0.0	195.13154697418213	0.9916160106658936
10	176.07413983345032	pulse	0	t		8.0	2.5	/experiments/AOT/AOT_stimuli/rescaled_final/2106_rv.mp4	0.0	196.11494779586792	
10	176.08235502243042	movie	1		244	8.0	2.5	/experiments/AOT/AOT_stimuli/rescaled_final/2106_rv.mp4	0.0	196.12316298484802	2.5083630084991455
10	177.67373204231262	pulse	1	t		8.0	2.5	/experiments/AOT/AOT_stimuli/rescaled_final/2106_rv.mp4	0.0	197.71454000473022	
10	178.59071803092957	fix_post	2		12	8.0	2.5	/experiments/AOT/AOT_stimuli/rescaled_final/2106_rv.mp4	0.0	198.63152599334717	0.09998893737792969
11	178.6907069683075	fix_pre	0		120	9.0	2.5	/experiments/AOT/AOT_stimuli/rescaled_final/0881_fw.mp4	0.0	198.7315149307251	1.0000009536743164
11	179.27424788475037	pulse	0	t		9.0	2.5	/experiments/AOT/AOT_stimuli/rescaled_final/0881_fw.mp4	0.0	199.31505584716797	
11	179.6907079219818	movie	1		246	9.0	2.5	/experiments/AOT/AOT_stimuli/rescaled_final/0881_fw.mp4	0.0	199.7315158843994	2.499753952026367
11	180.8737609386444	pulse	1	t		9.0	2.5	/experiments/AOT/AOT_stimuli/rescaled_final/0881_fw.mp4	0.0	200.914568901062	
11	182.19046187400818	fix_post	2		12	9.0	2.5	/experiments/AOT/AOT_stimuli/rescaled_final/0881_fw.mp4	0.0	202.23126983642578	0.09999513626098633
12	182.29045701026917	fix_pre	0		120	10.0	2.5	/experiments/AOT/AOT_stimuli/rescaled_final/1170_fw.mp4	0.0	202.33126497268677	1.0001158714294434
12	182.47393798828125	pulse	0	t		10.0	2.5	/experiments/AOT/AOT_stimuli/rescaled_final/1170_fw.mp4	0.0	202.51474595069885	
12	183.2905728816986	movie	1		245	10.0	2.5	/experiments/AOT/AOT_stimuli/rescaled_final/1170_fw.mp4	0.0	203.3313808441162	2.499727964401245
12	184.0742678642273	pulse	1	t		10.0	2.5	/experiments/AOT/AOT_stimuli/rescaled_final/1170_fw.mp4	0.0	204.1150758266449	
12	185.67376589775085	pulse	1	t		10.0	2.5	/experiments/AOT/AOT_stimuli/rescaled_final/1170_fw.mp4	0.0	205.71457386016846	
12	185.79030084609985	fix_post	2		12	10.0	2.5	/experiments/AOT/AOT_stimuli/rescaled_final/1170_fw.mp4	0.0	205.83110880851746	0.10039114952087402
13	185.89069199562073	fix_pre	0		120	11.0	2.5	/experiments/AOT/AOT_stimuli/rescaled_final/1774_fw.mp4	0.0	205.93149995803833	0.9999659061431885
13	186.89065790176392	movie	1		245	11.0	2.5	/experiments/AOT/AOT_stimuli/rescaled_final/1774_fw.mp4	0.0	206.93146586418152	2.49995493888855
13	187.27363801002502	pulse	1	t		11.0	2.5	/experiments/AOT/AOT_stimuli/rescaled_final/1774_fw.mp4	0.0	207.31444597244263	
13	188.87414693832397	pulse	1	t		11.0	2.5	/experiments/AOT/AOT_stimuli/rescaled_final/1774_fw.mp4	0.0	208.91495490074158	
13	189.39061284065247	fix_post	2		12	11.0	2.5	/experiments/AOT/AOT_stimuli/rescaled_final/1774_fw.mp4	0.0	209.43142080307007	0.10001707077026367
14	189.49062991142273	fix_pre	0		119	12.0	2.5	/experiments/AOT/AOT_stimuli/rescaled_final/0126_fw.mp4	0.0	209.53143787384033	0.9916250705718994
14	190.47404289245605	pulse	0	t		12.0	2.5	/experiments/AOT/AOT_stimuli/rescaled_final/0126_fw.mp4	0.0	210.51485085487366	
14	190.48225498199463	movie	1		245	12.0	2.5	/experiments/AOT/AOT_stimuli/rescaled_final/0126_fw.mp4	0.0	210.52306294441223	2.508327007293701
14	192.07383394241333	pulse	1	t		12.0	2.5	/experiments/AOT/AOT_stimuli/rescaled_final/0126_fw.mp4	0.0	212.11464190483093	
14	192.99058198928833	fix_post	2		12	12.0	2.5	/experiments/AOT/AOT_stimuli/rescaled_final/0126_fw.mp4	0.0	213.03138995170593	0.10008096694946289
15	193.0906629562378	fix_pre	0		120	13.0	2.5	blank	1.0	213.1314709186554	0.9999630451202393
15	193.67405700683594	pulse	0	t		13.0	2.5	blank	1.0	213.71486496925354	
15	194.09062600135803	movie	1		300	13.0	2.5	blank	1.0	214.13143396377563	2.4999840259552
15	195.2739658355713	pulse	1	t		13.0	2.5	blank	1.0	215.3147737979889	
15	196.59061002731323	fix_post	2		12	13.0	2.5	blank	1.0	216.63141798973083	0.09996891021728516
16	196.69057893753052	fix_pre	0		120	14.0	2.5	/experiments/AOT/AOT_stimuli/rescaled_final/1417_rv.mp4	0.0	216.73138689994812	0.9999880790710449
16	196.874009847641	pulse	0	t		14.0	2.5	/experiments/AOT/AOT_stimuli/rescaled_final/1417_rv.mp4	0.0	216.9148178100586	
16	197.69056701660156	movie	1		245	14.0	2.5	/experiments/AOT/AOT_stimuli/rescaled_final/1417_rv.mp4	0.0	217.73137497901917	2.5000720024108887
16	198.4740719795227	pulse	1	t		14.0	2.5	/experiments/AOT/AOT_stimuli/rescaled_final/1417_rv.mp4	0.0	218.5148799419403	
16	200.0825159549713	pulse	1	t		14.0	2.5	/experiments/AOT/AOT_stimuli/rescaled_final/1417_rv.mp4	0.0	220.12332391738892	
16	200.19063901901245	fix_post	2		12	14.0	2.5	/experiments/AOT/AOT_stimuli/rescaled_final/1417_rv.mp4	0.0	220.23144698143005	0.10000181198120117
17	200.29064083099365	fix_pre	0		120	15.0	2.5	/experiments/AOT/AOT_stimuli/rescaled_final/1070_rv.mp4	0.0	220.33144879341125	1.0000391006469727
17	201.29067993164062	movie	1		243	15.0	2.5	/experiments/AOT/AOT_stimuli/rescaled_final/1070_rv.mp4	0.0	221.33148789405823	2.500044107437134
17	201.6739239692688	pulse	1	t		15.0	2.5	/experiments/AOT/AOT_stimuli/rescaled_final/1070_rv.mp4	0.0	221.7147319316864	
17	203.27404689788818	pulse	1	t		15.0	2.5	/experiments/AOT/AOT_stimuli/rescaled_final/1070_rv.mp4	0.0	223.3148548603058	
17	203.79072403907776	fix_post	2		12	15.0	2.5	/experiments/AOT/AOT_stimuli/rescaled_final/1070_rv.mp4	0.0	223.83153200149536	0.09989190101623535
18	203.890615940094	fix_pre	0		119	16.0	2.5	/experiments/AOT/AOT_stimuli/rescaled_final/1224_rv.mp4	0.0	223.9314239025116	0.9916419982910156
18	204.87412786483765	pulse	0	t		16.0	2.5	/experiments/AOT/AOT_stimuli/rescaled_final/1224_rv.mp4	0.0	224.91493582725525	
18	204.882257938385	movie	1		247	16.0	2.5	/experiments/AOT/AOT_stimuli/rescaled_final/1224_rv.mp4	0.0	224.9230659008026	2.5082569122314453
18	206.4736578464508	pulse	1	t		16.0	2.5	/experiments/AOT/AOT_stimuli/rescaled_final/1224_rv.mp4	0.0	226.5144658088684	
18	207.39051485061646	fix_post	2		12	16.0	2.5	/experiments/AOT/AOT_stimuli/rescaled_final/1224_rv.mp4	0.0	227.43132281303406	0.10009312629699707
19	207.49060797691345	fix_pre	0		120	17.0	2.5	/experiments/AOT/AOT_stimuli/rescaled_final/0088_fw.mp4	0.0	227.53141593933105	0.9999709129333496
19	208.07404398918152	pulse	0	t		17.0	2.5	/experiments/AOT/AOT_stimuli/rescaled_final/0088_fw.mp4	0.0	228.11485195159912	
19	208.4905788898468	movie	1		247	17.0	2.5	/experiments/AOT/AOT_stimuli/rescaled_final/0088_fw.mp4	0.0	228.5313868522644	2.5000381469726562
19	209.67412495613098	pulse	1	t		17.0	2.5	/experiments/AOT/AOT_stimuli/rescaled_final/0088_fw.mp4	0.0	229.71493291854858	
19	210.99061703681946	fix_post	2		12	17.0	2.5	/experiments/AOT/AOT_stimuli/rescaled_final/0088_fw.mp4	0.0	231.03142499923706	0.09998297691345215
20	211.0906000137329	fix_pre	0		120	18.0	2.5	/experiments/AOT/AOT_stimuli/rescaled_final/0126_fw.mp4	0.0	231.1314079761505	0.9998910427093506
20	211.2740409374237	pulse	0	t		18.0	2.5	/experiments/AOT/AOT_stimuli/rescaled_final/0126_fw.mp4	0.0	231.3148488998413	
20	212.09049105644226	movie	1		243	18.0	2.5	/experiments/AOT/AOT_stimuli/rescaled_final/0126_fw.mp4	0.0	232.13129901885986	2.5000438690185547
20	212.874018907547	pulse	1	t		18.0	2.5	/experiments/AOT/AOT_stimuli/rescaled_final/0126_fw.mp4	0.0	232.9148268699646	
20	214.47350192070007	pulse	1	t		18.0	2.5	/experiments/AOT/AOT_stimuli/rescaled_final/0126_fw.mp4	0.0	234.51430988311768	
20	214.59053492546082	fix_post	2		12	18.0	2.5	/experiments/AOT/AOT_stimuli/rescaled_final/0126_fw.mp4	0.0	234.63134288787842	0.0995631217956543
21	214.69009804725647	fix_pre	0		120	19.0	2.5	blank	1.0	234.73090600967407	1.000396966934204
21	215.69049501419067	movie	1		300	19.0	2.5	blank	1.0	235.73130297660828	2.4999828338623047
21	216.07402300834656	pulse	1	t		19.0	2.5	blank	1.0	236.11483097076416	
21	217.67398500442505	pulse	1	t		19.0	2.5	blank	1.0	237.71479296684265	
21	218.19047784805298	fix_post	2		12	19.0	2.5	blank	1.0	238.23128581047058	0.10003900527954102
22	218.29051685333252	fix_pre	0		119	20.0	2.5	/experiments/AOT/AOT_stimuli/rescaled_final/0047_rv.mp4	0.0	238.33132481575012	0.9916560649871826
22	219.27398490905762	pulse	0	t		20.0	2.5	/experiments/AOT/AOT_stimuli/rescaled_final/0047_rv.mp4	0.0	239.31479287147522	
22	219.2821729183197	movie	1		244	20.0	2.5	/experiments/AOT/AOT_stimuli/rescaled_final/0047_rv.mp4	0.0	239.3229808807373	2.508336067199707
22	220.87367296218872	pulse	1	t		20.0	2.5	/experiments/AOT/AOT_stimuli/rescaled_final/0047_rv.mp4	0.0	240.91448092460632	
22	221.7905089855194	fix_post	2		12	20.0	2.5	/experiments/AOT/AOT_stimuli/rescaled_final/0047_rv.mp4	0.0	241.831316947937	0.09998297691345215
23	221.89049196243286	fix_pre	0		120	21.0	2.5	/experiments/AOT/AOT_stimuli/rescaled_final/1796_rv.mp4	0.0	241.93129992485046	0.9996628761291504
23	222.47397994995117	pulse	0	t		21.0	2.5	/experiments/AOT/AOT_stimuli/rescaled_final/1796_rv.mp4	0.0	242.51478791236877	
23	222.890154838562	movie	1		244	21.0	2.5	/experiments/AOT/AOT_stimuli/rescaled_final/1796_rv.mp4	0.0	242.93096280097961	2.500349998474121
23	224.07400703430176	pulse	1	t		21.0	2.5	/experiments/AOT/AOT_stimuli/rescaled_final/1796_rv.mp4	0.0	244.11481499671936	
23	225.39050483703613	fix_post	2		12	21.0	2.5	/experiments/AOT/AOT_stimuli/rescaled_final/1796_rv.mp4	0.0	245.43131279945374	0.10000920295715332
24	225.4905140399933	fix_pre	0		120	22.0	2.5	/experiments/AOT/AOT_stimuli/rescaled_final/0751_fw.mp4	0.0	245.5313220024109	1.0000848770141602
24	225.6739318370819	pulse	0	t		22.0	2.5	/experiments/AOT/AOT_stimuli/rescaled_final/0751_fw.mp4	0.0	245.7147397994995	
24	226.49059891700745	movie	1		246	22.0	2.5	/experiments/AOT/AOT_stimuli/rescaled_final/0751_fw.mp4	0.0	246.53140687942505	2.4994161128997803
24	227.27390503883362	pulse	1	t		22.0	2.5	/experiments/AOT/AOT_stimuli/rescaled_final/0751_fw.mp4	0.0	247.31471300125122	
24	228.87393999099731	pulse	1	t		22.0	2.5	/experiments/AOT/AOT_stimuli/rescaled_final/0751_fw.mp4	0.0	248.91474795341492	
24	228.99001502990723	fix_post	2		12	22.0	2.5	/experiments/AOT/AOT_stimuli/rescaled_final/0751_fw.mp4	0.0	249.03082299232483	0.10044097900390625
25	229.09045600891113	fix_pre	0		120	23.0	2.5	/experiments/AOT/AOT_stimuli/rescaled_final/0155_rv.mp4	0.0	249.13126397132874	0.9999840259552002
25	230.09044003486633	movie	1		244	23.0	2.5	/experiments/AOT/AOT_stimuli/rescaled_final/0155_rv.mp4	0.0	250.13124799728394	2.500041961669922
25	230.47377800941467	pulse	1	t		23.0	2.5	/experiments/AOT/AOT_stimuli/rescaled_final/0155_rv.mp4	0.0	250.51458597183228	
25	232.07385182380676	pulse	1	t		23.0	2.5	/experiments/AOT/AOT_stimuli/rescaled_final/0155_rv.mp4	0.0	252.11465978622437	
25	232.59048199653625	fix_post	2		12	23.0	2.5	/experiments/AOT/AOT_stimuli/rescaled_final/0155_rv.mp4	0.0	252.63128995895386	0.10006594657897949
26	232.69054794311523	fix_pre	0		119	24.0	2.5	/experiments/AOT/AOT_stimuli/rescaled_final/1784_rv.mp4	0.0	252.73135590553284	0.9915609359741211
26	233.67409491539001	pulse	0	t		24.0	2.5	/experiments/AOT/AOT_stimuli/rescaled_final/1784_rv.mp4	0.0	253.71490287780762	
26	233.68210887908936	movie	1		245	24.0	2.5	/experiments/AOT/AOT_stimuli/rescaled_final/1784_rv.mp4	0.0	253.72291684150696	2.508466958999634
26	235.27374291419983	pulse	1	t		24.0	2.5	/experiments/AOT/AOT_stimuli/rescaled_final/1784_rv.mp4	0.0	255.31455087661743	
26	236.190575838089	fix_post	2		12	24.0	2.5	/experiments/AOT/AOT_stimuli/rescaled_final/1784_rv.mp4	0.0	256.2313838005066	0.09985017776489258
27	236.29042601585388	fix_pre	0		120	25.0	2.5	/experiments/AOT/AOT_stimuli/rescaled_final/1500_fw.mp4	0.0	256.3312339782715	0.9996018409729004
27	236.873920917511	pulse	0	t		25.0	2.5	/experiments/AOT/AOT_stimuli/rescaled_final/1500_fw.mp4	0.0	256.9147288799286	
27	237.29002785682678	movie	1		245	25.0	2.5	/experiments/AOT/AOT_stimuli/rescaled_final/1500_fw.mp4	0.0	257.3308358192444	2.5004260540008545
27	238.47407388687134	pulse	1	t		25.0	2.5	/experiments/AOT/AOT_stimuli/rescaled_final/1500_fw.mp4	0.0	258.51488184928894	
27	239.79045391082764	fix_post	2		12	25.0	2.5	/experiments/AOT/AOT_stimuli/rescaled_final/1500_fw.mp4	0.0	259.83126187324524	0.10002899169921875
28	239.89048290252686	fix_pre	0		120	26.0	2.5	/experiments/AOT/AOT_stimuli/rescaled_final/1681_fw.mp4	0.0	259.93129086494446	0.9998941421508789
28	240.07396697998047	pulse	0	t		26.0	2.5	/experiments/AOT/AOT_stimuli/rescaled_final/1681_fw.mp4	0.0	260.11477494239807	
28	240.89037704467773	movie	1		245	26.0	2.5	/experiments/AOT/AOT_stimuli/rescaled_final/1681_fw.mp4	0.0	260.93118500709534	2.5000898838043213
28	241.67384099960327	pulse	1	t		26.0	2.5	/experiments/AOT/AOT_stimuli/rescaled_final/1681_fw.mp4	0.0	261.7146489620209	
28	243.27406883239746	pulse	1	t		26.0	2.5	/experiments/AOT/AOT_stimuli/rescaled_final/1681_fw.mp4	0.0	263.31487679481506	
28	243.39046692848206	fix_post	2		12	26.0	2.5	/experiments/AOT/AOT_stimuli/rescaled_final/1681_fw.mp4	0.0	263.43127489089966	0.09996294975280762
29	243.49042987823486	fix_pre	0		120	27.0	2.5	blank	1.0	263.53123784065247	0.9999861717224121
29	244.49041604995728	movie	1		300	27.0	2.5	blank	1.0	264.5312240123749	2.49995493888855
29	244.8738670349121	pulse	1	t		27.0	2.5	blank	1.0	264.9146749973297	
29	246.47383499145508	pulse	1	t		27.0	2.5	blank	1.0	266.5146429538727	
29	246.99037098884583	fix_post	2		12	27.0	2.5	blank	1.0	267.0311789512634	0.09995388984680176
30	247.09032487869263	fix_pre	0		119	28.0	2.5	/experiments/AOT/AOT_stimuli/rescaled_final/0162_fw.mp4	0.0	267.13113284111023	0.9917001724243164
30	248.07392001152039	pulse	0	t		28.0	2.5	/experiments/AOT/AOT_stimuli/rescaled_final/0162_fw.mp4	0.0	268.114727973938	
30	248.08202505111694	movie	1		245	28.0	2.5	/experiments/AOT/AOT_stimuli/rescaled_final/0162_fw.mp4	0.0	268.12283301353455	2.5083019733428955
30	249.6736969947815	pulse	1	t		28.0	2.5	/experiments/AOT/AOT_stimuli/rescaled_final/0162_fw.mp4	0.0	269.7145049571991	
30	250.59032702445984	fix_post	2		12	28.0	2.5	/experiments/AOT/AOT_stimuli/rescaled_final/0162_fw.mp4	0.0	270.63113498687744	0.10007691383361816
31	250.69040393829346	fix_pre	0		120	29.0	2.5	/experiments/AOT/AOT_stimuli/rescaled_final/1776_rv.mp4	0.0	270.73121190071106	0.9999580383300781
31	251.27381992340088	pulse	0	t		29.0	2.5	/experiments/AOT/AOT_stimuli/rescaled_final/1776_rv.mp4	0.0	271.3146278858185	
31	251.69036197662354	movie	1		245	29.0	2.5	/experiments/AOT/AOT_stimuli/rescaled_final/1776_rv.mp4	0.0	271.73116993904114	2.4999990463256836
31	252.873783826828	pulse	1	t		29.0	2.5	/experiments/AOT/AOT_stimuli/rescaled_final/1776_rv.mp4	0.0	272.9145917892456	
31	254.19036102294922	fix_post	2		12	29.0	2.5	/experiments/AOT/AOT_stimuli/rescaled_final/1776_rv.mp4	0.0	274.2311689853668	0.09997081756591797
32	254.29033184051514	fix_pre	0		120	30.0	2.5	/experiments/AOT/AOT_stimuli/rescaled_final/1081_rv.mp4	0.0	274.33113980293274	1.0000112056732178
32	254.47387290000916	pulse	0	t		30.0	2.5	/experiments/AOT/AOT_stimuli/rescaled_final/1081_rv.mp4	0.0	274.51468086242676	
32	255.29034304618835	movie	1		246	30.0	2.5	/experiments/AOT/AOT_stimuli/rescaled_final/1081_rv.mp4	0.0	275.33115100860596	2.500001907348633
32	256.07383489608765	pulse	1	t		30.0	2.5	/experiments/AOT/AOT_stimuli/rescaled_final/1081_rv.mp4	0.0	276.11464285850525	
32	257.6738369464874	pulse	1	t		30.0	2.5	/experiments/AOT/AOT_stimuli/rescaled_final/1081_rv.mp4	0.0	277.71464490890503	
32	257.790344953537	fix_post	2		12	30.0	2.5	/experiments/AOT/AOT_stimuli/rescaled_final/1081_rv.mp4	0.0	277.8311529159546	0.10004806518554688
33	257.89039301872253	fix_pre	0		120	31.0	2.5	/experiments/AOT/AOT_stimuli/rescaled_final/0736_fw.mp4	0.0	277.93120098114014	0.9999618530273438
33	258.8903548717499	movie	1		247	31.0	2.5	/experiments/AOT/AOT_stimuli/rescaled_final/0736_fw.mp4	0.0	278.9311628341675	2.4999489784240723
33	259.2736539840698	pulse	1	t		31.0	2.5	/experiments/AOT/AOT_stimuli/rescaled_final/0736_fw.mp4	0.0	279.3144619464874	
33	260.87393593788147	pulse	1	t		31.0	2.5	/experiments/AOT/AOT_stimuli/rescaled_final/0736_fw.mp4	0.0	280.9147439002991	
33	261.39030385017395	fix_post	2		12	31.0	2.5	/experiments/AOT/AOT_stimuli/rescaled_final/0736_fw.mp4	0.0	281.43111181259155	0.1000361442565918
34	261.49033999443054	fix_pre	0		119	32.0	2.5	/experiments/AOT/AOT_stimuli/rescaled_final/0188_fw.mp4	0.0	281.53114795684814	0.9915740489959717
34	262.4737639427185	pulse	0	t		32.0	2.5	/experiments/AOT/AOT_stimuli/rescaled_final/0188_fw.mp4	0.0	282.5145719051361	
34	262.4819140434265	movie	1		248	32.0	2.5	/experiments/AOT/AOT_stimuli/rescaled_final/0188_fw.mp4	0.0	282.5227220058441	2.5085859298706055
34	264.0732488632202	pulse	1	t		32.0	2.5	/experiments/AOT/AOT_stimuli/rescaled_final/0188_fw.mp4	0.0	284.1140568256378	
34	264.9904999732971	fix_post	2		12	32.0	2.5	/experiments/AOT/AOT_stimuli/rescaled_final/0188_fw.mp4	0.0	285.0313079357147	0.09979391098022461
35	265.09029388427734	fix_pre	0		120	33.0	2.5	/experiments/AOT/AOT_stimuli/rescaled_final/1402_fw.mp4	0.0	285.13110184669495	0.9999899864196777
35	265.67370200157166	pulse	0	t		33.0	2.5	/experiments/AOT/AOT_stimuli/rescaled_final/1402_fw.mp4	0.0	285.71450996398926	
35	266.090283870697	movie	1		243	33.0	2.5	/experiments/AOT/AOT_stimuli/rescaled_final/1402_fw.mp4	0.0	286.1310918331146	2.4999380111694336
35	267.2738308906555	pulse	1	t		33.0	2.5	/experiments/AOT/AOT_stimuli/rescaled_final/1402_fw.mp4	0.0	287.3146388530731	
35	268.59022188186646	fix_post	2		12	33.0	2.5	/experiments/AOT/AOT_stimuli/rescaled_final/1402_fw.mp4	0.0	288.63102984428406	0.10000395774841309
36	268.69022583961487	fix_pre	0		120	34.0	2.5	/experiments/AOT/AOT_stimuli/rescaled_final/1259_rv.mp4	0.0	288.73103380203247	1.0000600814819336
36	268.87371301651	pulse	0	t		34.0	2.5	/experiments/AOT/AOT_stimuli/rescaled_final/1259_rv.mp4	0.0	288.9145209789276	
36	269.6902859210968	movie	1		244	34.0	2.5	/experiments/AOT/AOT_stimuli/rescaled_final/1259_rv.mp4	0.0	289.7310938835144	2.5000369548797607
36	270.4737949371338	pulse	1	t		34.0	2.5	/experiments/AOT/AOT_stimuli/rescaled_final/1259_rv.mp4	0.0	290.5146028995514	
36	272.0821168422699	pulse	1	t		34.0	2.5	/experiments/AOT/AOT_stimuli/rescaled_final/1259_rv.mp4	0.0	292.1229248046875	
36	272.19032287597656	fix_post	2		12	34.0	2.5	/experiments/AOT/AOT_stimuli/rescaled_final/1259_rv.mp4	0.0	292.23113083839417	0.0999760627746582
37	272.2902989387512	fix_pre	0		120	35.0	2.5	blank	1.0	292.3311069011688	0.9999821186065674
37	273.2902810573578	movie	1		300	35.0	2.5	blank	1.0	293.3310890197754	2.5000247955322266
37	273.6736550331116	pulse	1	t		35.0	2.5	blank	1.0	293.7144629955292	
37	275.2737829685211	pulse	1	t		35.0	2.5	blank	1.0	295.3145909309387	
37	275.79030585289	fix_post	2		12	35.0	2.5	blank	1.0	295.8311138153076	0.09996604919433594
38	275.89027190208435	fix_pre	0		119	36.0	2.5	/experiments/AOT/AOT_stimuli/rescaled_final/0751_rv.mp4	0.0	295.93107986450195	0.9916541576385498
38	276.873703956604	pulse	0	t		36.0	2.5	/experiments/AOT/AOT_stimuli/rescaled_final/0751_rv.mp4	0.0	296.9145119190216	
38	276.8819260597229	movie	1		249	36.0	2.5	/experiments/AOT/AOT_stimuli/rescaled_final/0751_rv.mp4	0.0	296.9227340221405	2.5082719326019287
38	278.4732449054718	pulse	1	t		36.0	2.5	/experiments/AOT/AOT_stimuli/rescaled_final/0751_rv.mp4	0.0	298.5140528678894	
38	279.39019799232483	fix_post	2		12	36.0	2.5	/experiments/AOT/AOT_stimuli/rescaled_final/0751_rv.mp4	0.0	299.43100595474243	0.10012197494506836
39	279.4903199672699	fix_pre	0		120	37.0	2.5	/experiments/AOT/AOT_stimuli/rescaled_final/1302_rv.mp4	0.0	299.5311279296875	0.9998369216918945
39	280.0750288963318	pulse	0	t		37.0	2.5	/experiments/AOT/AOT_stimuli/rescaled_final/1302_rv.mp4	0.0	300.1158368587494	
39	280.4901568889618	movie	1		242	37.0	2.5	/experiments/AOT/AOT_stimuli/rescaled_final/1302_rv.mp4	0.0	300.5309648513794	2.500087022781372
39	281.6737229824066	pulse	1	t		37.0	2.5	/experiments/AOT/AOT_stimuli/rescaled_final/1302_rv.mp4	0.0	301.7145309448242	
39	282.99024391174316	fix_post	2		12	37.0	2.5	/experiments/AOT/AOT_stimuli/rescaled_final/1302_rv.mp4	0.0	303.03105187416077	0.09997010231018066
40	283.09021401405334	fix_pre	0		120	38.0	2.5	/experiments/AOT/AOT_stimuli/rescaled_final/0518_rv.mp4	0.0	303.13102197647095	0.9999828338623047
40	283.2736508846283	pulse	0	t		38.0	2.5	/experiments/AOT/AOT_stimuli/rescaled_final/0518_rv.mp4	0.0	303.3144588470459	
40	284.09019684791565	movie	1		244	38.0	2.5	/experiments/AOT/AOT_stimuli/rescaled_final/0518_rv.mp4	0.0	304.13100481033325	2.4995810985565186
40	284.8737199306488	pulse	1	t		38.0	2.5	/experiments/AOT/AOT_stimuli/rescaled_final/0518_rv.mp4	0.0	304.9145278930664	
40	286.4820580482483	pulse	1	t		38.0	2.5	/experiments/AOT/AOT_stimuli/rescaled_final/0518_rv.mp4	0.0	306.5228660106659	
40	286.58977794647217	fix_post	2		12	38.0	2.5	/experiments/AOT/AOT_stimuli/rescaled_final/0518_rv.mp4	0.0	306.63058590888977	0.10041093826293945
41	286.6901888847351	fix_pre	0		120	39.0	2.5	/experiments/AOT/AOT_stimuli/rescaled_final/1976_fw.mp4	0.0	306.7309968471527	0.9995920658111572
41	287.68978095054626	movie	1		243	39.0	2.5	/experiments/AOT/AOT_stimuli/rescaled_final/1976_fw.mp4	0.0	307.73058891296387	2.5003740787506104
41	288.0732228755951	pulse	1	t		39.0	2.5	/experiments/AOT/AOT_stimuli/rescaled_final/1976_fw.mp4	0.0	308.1140308380127	
41	289.6736350059509	pulse	1	t		39.0	2.5	/experiments/AOT/AOT_stimuli/rescaled_final/1976_fw.mp4	0.0	309.71444296836853	
41	290.1901550292969	fix_post	2		12	39.0	2.5	/experiments/AOT/AOT_stimuli/rescaled_final/1976_fw.mp4	0.0	310.2309629917145	0.10010290145874023
42	290.2902579307556	fix_pre	0		119	40.0	2.5	blank	1.0	310.3310658931732	0.9916720390319824
42	291.2736909389496	pulse	0	t		40.0	2.5	blank	1.0	311.3144989013672	
42	291.2819299697876	movie	1		301	40.0	2.5	blank	1.0	311.3227379322052	2.508405923843384
42	292.87327003479004	pulse	1	t		40.0	2.5	blank	1.0	312.91407799720764	
42	293.790335893631	fix_post	2		12	40.0	2.5	blank	1.0	313.8311438560486	0.09996199607849121
43	293.8902978897095	fix_pre	0		120	41.0	2.5	/experiments/AOT/AOT_stimuli/rescaled_final/0613_rv.mp4	0.0	313.9311058521271	0.9997830390930176
43	294.47388792037964	pulse	0	t		41.0	2.5	/experiments/AOT/AOT_stimuli/rescaled_final/0613_rv.mp4	0.0	314.51469588279724	
43	294.8900809288025	movie	1		245	41.0	2.5	/experiments/AOT/AOT_stimuli/rescaled_final/0613_rv.mp4	0.0	314.9308888912201	2.5000669956207275
43	296.07372093200684	pulse	1	t		41.0	2.5	/experiments/AOT/AOT_stimuli/rescaled_final/0613_rv.mp4	0.0	316.11452889442444	
43	297.3901479244232	fix_post	2		12	41.0	2.5	/experiments/AOT/AOT_stimuli/rescaled_final/0613_rv.mp4	0.0	317.4309558868408	0.10001301765441895
44	297.49016094207764	fix_pre	0		120	42.0	2.5	/experiments/AOT/AOT_stimuli/rescaled_final/1090_rv.mp4	0.0	317.53096890449524	0.9999959468841553
44	297.67371582984924	pulse	0	t		42.0	2.5	/experiments/AOT/AOT_stimuli/rescaled_final/1090_rv.mp4	0.0	317.71452379226685	
44	298.4901568889618	movie	1		245	42.0	2.5	/experiments/AOT/AOT_stimuli/rescaled_final/1090_rv.mp4	0.0	318.5309648513794	2.4999959468841553
44	299.27352499961853	pulse	1	t		42.0	2.5	/experiments/AOT/AOT_stimuli/rescaled_final/1090_rv.mp4	0.0	319.31433296203613	
44	300.8729920387268	pulse	1	t		42.0	2.5	/experiments/AOT/AOT_stimuli/rescaled_final/1090_rv.mp4	0.0	320.9138000011444	
44	300.99015283584595	fix_post	2		12	42.0	2.5	/experiments/AOT/AOT_stimuli/rescaled_final/1090_rv.mp4	0.0	321.03096079826355	0.09986615180969238
45	301.09001898765564	fix_pre	0		120	43.0	2.5	/experiments/AOT/AOT_stimuli/rescaled_final/0745_fw.mp4	0.0	321.13082695007324	1.0000429153442383
45	302.0900619029999	movie	1		247	43.0	2.5	/experiments/AOT/AOT_stimuli/rescaled_final/0745_fw.mp4	0.0	322.1308698654175	2.500041961669922
45	302.4732859134674	pulse	1	t		43.0	2.5	/experiments/AOT/AOT_stimuli/rescaled_final/0745_fw.mp4	0.0	322.514093875885	
45	304.07343196868896	pulse	1	t		43.0	2.5	/experiments/AOT/AOT_stimuli/rescaled_final/0745_fw.mp4	0.0	324.11423993110657	
45	304.5901038646698	fix_post	2		12	43.0	2.5	/experiments/AOT/AOT_stimuli/rescaled_final/0745_fw.mp4	0.0	324.6309118270874	0.09993815422058105
46	304.6900420188904	fix_pre	0		119	44.0	2.5	/experiments/AOT/AOT_stimuli/rescaled_final/1681_rv.mp4	0.0	324.730849981308	0.991675853729248
46	305.6735198497772	pulse	0	t		44.0	2.5	/experiments/AOT/AOT_stimuli/rescaled_final/1681_rv.mp4	0.0	325.7143278121948	
46	305.68171787261963	movie	1		245	44.0	2.5	/experiments/AOT/AOT_stimuli/rescaled_final/1681_rv.mp4	0.0	325.72252583503723	2.508366107940674
46	307.2819230556488	pulse	1	t		44.0	2.5	/experiments/AOT/AOT_stimuli/rescaled_final/1681_rv.mp4	0.0	327.3227310180664	
46	308.1900839805603	fix_post	2		12	44.0	2.5	/experiments/AOT/AOT_stimuli/rescaled_final/1681_rv.mp4	0.0	328.2308919429779	0.10003304481506348
47	308.29011702537537	fix_pre	0		120	45.0	2.5	/experiments/AOT/AOT_stimuli/rescaled_final/0657_fw.mp4	0.0	328.33092498779297	0.9999959468841553
47	308.8735649585724	pulse	0	t		45.0	2.5	/experiments/AOT/AOT_stimuli/rescaled_final/0657_fw.mp4	0.0	328.91437292099	
47	309.2901129722595	movie	1		245	45.0	2.5	/experiments/AOT/AOT_stimuli/rescaled_final/0657_fw.mp4	0.0	329.3309209346771	2.499919891357422
47	310.47357082366943	pulse	1	t		45.0	2.5	/experiments/AOT/AOT_stimuli/rescaled_final/0657_fw.mp4	0.0	330.51437878608704	
47	311.79003286361694	fix_post	2		12	45.0	2.5	/experiments/AOT/AOT_stimuli/rescaled_final/0657_fw.mp4	0.0	331.83084082603455	0.10000896453857422
48	311.8900418281555	fix_pre	0		120	46.0	2.5	/experiments/AOT/AOT_stimuli/rescaled_final/1266_fw.mp4	0.0	331.9308497905731	0.9996960163116455
48	312.0735650062561	pulse	0	t		46.0	2.5	/experiments/AOT/AOT_stimuli/rescaled_final/1266_fw.mp4	0.0	332.1143729686737	
48	312.88973784446716	movie	1		244	46.0	2.5	/experiments/AOT/AOT_stimuli/rescaled_final/1266_fw.mp4	0.0	332.93054580688477	2.5002830028533936
48	313.6735599040985	pulse	1	t		46.0	2.5	/experiments/AOT/AOT_stimuli/rescaled_final/1266_fw.mp4	0.0	333.7143678665161	
48	315.273619890213	pulse	1	t		46.0	2.5	/experiments/AOT/AOT_stimuli/rescaled_final/1266_fw.mp4	0.0	335.3144278526306	
48	315.39002084732056	fix_post	2		12	46.0	2.5	/experiments/AOT/AOT_stimuli/rescaled_final/1266_fw.mp4	0.0	335.43082880973816	0.0999610424041748
49	315.48998188972473	fix_pre	0		120	47.0	2.5	/experiments/AOT/AOT_stimuli/rescaled_final/0613_rv.mp4	0.0	335.53078985214233	1.0000741481781006
49	316.49005603790283	movie	1		242	47.0	2.5	/experiments/AOT/AOT_stimuli/rescaled_final/0613_rv.mp4	0.0	336.53086400032043	2.4999518394470215
49	316.8746359348297	pulse	1	t		47.0	2.5	/experiments/AOT/AOT_stimuli/rescaled_final/0613_rv.mp4	0.0	336.9154438972473	
49	318.4735858440399	pulse	1	t		47.0	2.5	/experiments/AOT/AOT_stimuli/rescaled_final/0613_rv.mp4	0.0	338.5143938064575	
49	318.99000787734985	fix_post	2		12	47.0	2.5	/experiments/AOT/AOT_stimuli/rescaled_final/0613_rv.mp4	0.0	339.03081583976746	0.09963798522949219
50	319.08964586257935	fix_pre	0		119	48.0	2.5	/experiments/AOT/AOT_stimuli/rescaled_final/1170_rv.mp4	0.0	339.13045382499695	0.9920060634613037
50	320.07358503341675	pulse	0	t		48.0	2.5	/experiments/AOT/AOT_stimuli/rescaled_final/1170_rv.mp4	0.0	340.11439299583435	
50	320.08165192604065	movie	1		245	48.0	2.5	/experiments/AOT/AOT_stimuli/rescaled_final/1170_rv.mp4	0.0	340.12245988845825	2.50839900970459
50	321.6747679710388	pulse	1	t		48.0	2.5	/experiments/AOT/AOT_stimuli/rescaled_final/1170_rv.mp4	0.0	341.7155759334564	
50	322.59005093574524	fix_post	2		12	48.0	2.5	/experiments/AOT/AOT_stimuli/rescaled_final/1170_rv.mp4	0.0	342.63085889816284	0.09997701644897461
51	322.6900279521942	fix_pre	0		120	49.0	2.5	blank	1.0	342.7308359146118	0.9999570846557617
51	323.2734749317169	pulse	0	t		49.0	2.5	blank	1.0	343.3142828941345	
51	323.68998503685	movie	1		300	49.0	2.5	blank	1.0	343.7307929992676	2.500034809112549
51	324.87347388267517	pulse	1	t		49.0	2.5	blank	1.0	344.9142818450928	
51	326.1900198459625	fix_post	2		12	49.0	2.5	blank	1.0	346.2308278083801	0.09997701644897461
52	326.2899968624115	fix_pre	0		120	50.0	2.5	/experiments/AOT/AOT_stimuli/rescaled_final/0607_fw.mp4	0.0	346.3308048248291	1.000028133392334
52	326.47346782684326	pulse	0	t		50.0	2.5	/experiments/AOT/AOT_stimuli/rescaled_final/0607_fw.mp4	0.0	346.51427578926086	
52	327.29002499580383	movie	1		246	50.0	2.5	/experiments/AOT/AOT_stimuli/rescaled_final/0607_fw.mp4	0.0	347.33083295822144	2.5000438690185547
52	328.07347083091736	pulse	1	t		50.0	2.5	/experiments/AOT/AOT_stimuli/rescaled_final/0607_fw.mp4	0.0	348.11427879333496	
52	329.6818120479584	pulse	1	t		50.0	2.5	/experiments/AOT/AOT_stimuli/rescaled_final/0607_fw.mp4	0.0	349.722620010376	
52	329.7900688648224	fix_post	2		12	50.0	2.5	/experiments/AOT/AOT_stimuli/rescaled_final/0607_fw.mp4	0.0	349.83087682724	0.0999300479888916
53	329.8899989128113	fix_pre	0		120	51.0	2.5	/experiments/AOT/AOT_stimuli/rescaled_final/0613_fw.mp4	0.0	349.9308068752289	0.9999361038208008
53	330.8899350166321	movie	1		243	51.0	2.5	/experiments/AOT/AOT_stimuli/rescaled_final/0613_fw.mp4	0.0	350.9307429790497	2.500037908554077
53	331.2729859352112	pulse	1	t		51.0	2.5	/experiments/AOT/AOT_stimuli/rescaled_final/0613_fw.mp4	0.0	351.3137938976288	
53	332.87351083755493	pulse	1	t		51.0	2.5	/experiments/AOT/AOT_stimuli/rescaled_final/0613_fw.mp4	0.0	352.91431879997253	
53	333.38997292518616	fix_post	2		12	51.0	2.5	/experiments/AOT/AOT_stimuli/rescaled_final/0613_fw.mp4	0.0	353.43078088760376	0.09996891021728516
54	333.48994183540344	fix_pre	0		119	52.0	2.5	/experiments/AOT/AOT_stimuli/rescaled_final/1847_fw.mp4	0.0	353.53074979782104	0.9916150569915771
54	334.4734618663788	pulse	0	t		52.0	2.5	/experiments/AOT/AOT_stimuli/rescaled_final/1847_fw.mp4	0.0	354.5142698287964	
54	334.481556892395	movie	1		244	52.0	2.5	/experiments/AOT/AOT_stimuli/rescaled_final/1847_fw.mp4	0.0	354.5223648548126	2.508420944213867
54	336.0731279850006	pulse	1	t		52.0	2.5	/experiments/AOT/AOT_stimuli/rescaled_final/1847_fw.mp4	0.0	356.1139359474182	
54	336.9899778366089	fix_post	2		12	52.0	2.5	/experiments/AOT/AOT_stimuli/rescaled_final/1847_fw.mp4	0.0	357.0307857990265	0.0999600887298584
55	337.08993792533875	fix_pre	0		120	53.0	2.5	/experiments/AOT/AOT_stimuli/rescaled_final/1404_rv.mp4	0.0	357.13074588775635	0.9999830722808838
55	337.6735599040985	pulse	0	t		53.0	2.5	/experiments/AOT/AOT_stimuli/rescaled_final/1404_rv.mp4	0.0	357.7143678665161	
55	338.08992099761963	movie	1		244	53.0	2.5	/experiments/AOT/AOT_stimuli/rescaled_final/1404_rv.mp4	0.0	358.13072896003723	2.499577045440674
55	339.2735068798065	pulse	1	t		53.0	2.5	/experiments/AOT/AOT_stimuli/rescaled_final/1404_rv.mp4	0.0	359.3143148422241	
55	340.5894980430603	fix_post	2		12	53.0	2.5	/experiments/AOT/AOT_stimuli/rescaled_final/1404_rv.mp4	0.0	360.6303060054779	0.10048294067382812
56	340.68998098373413	fix_pre	0		120	54.0	2.5	/experiments/AOT/AOT_stimuli/rescaled_final/0736_fw.mp4	0.0	360.73078894615173	0.9999749660491943
56	340.8734939098358	pulse	0	t		54.0	2.5	/experiments/AOT/AOT_stimuli/rescaled_final/0736_fw.mp4	0.0	360.9143018722534	
56	341.6899559497833	movie	1		244	54.0	2.5	/experiments/AOT/AOT_stimuli/rescaled_final/0736_fw.mp4	0.0	361.7307639122009	2.5000200271606445
56	342.47340989112854	pulse	1	t		54.0	2.5	/experiments/AOT/AOT_stimuli/rescaled_final/0736_fw.mp4	0.0	362.51421785354614	
56	344.0818040370941	pulse	1	t		54.0	2.5	/experiments/AOT/AOT_stimuli/rescaled_final/0736_fw.mp4	0.0	364.1226119995117	
56	344.18997597694397	fix_post	2		12	54.0	2.5	/experiments/AOT/AOT_stimuli/rescaled_final/0736_fw.mp4	0.0	364.2307839393616	0.09990286827087402
57	344.28987884521484	fix_pre	0		120	55.0	2.5	blank	1.0	364.33068680763245	1.0002000331878662
57	345.2900788784027	movie	1		300	55.0	2.5	blank	1.0	365.3308868408203	2.4993841648101807
57	345.6734459400177	pulse	1	t		55.0	2.5	blank	1.0	365.7142539024353	
57	347.27342200279236	pulse	1	t		55.0	2.5	blank	1.0	367.31422996520996	
57	347.7894630432129	fix_post	2		12	55.0	2.5	blank	1.0	367.8302710056305	0.10042786598205566
58	347.88989090919495	fix_pre	0		119	56.0	2.5	/experiments/AOT/AOT_stimuli/rescaled_final/1741_fw.mp4	0.0	367.93069887161255	0.9912710189819336
58	348.8730049133301	pulse	0	t		56.0	2.5	/experiments/AOT/AOT_stimuli/rescaled_final/1741_fw.mp4	0.0	368.9138128757477	
58	348.8811619281769	movie	1		246	56.0	2.5	/experiments/AOT/AOT_stimuli/rescaled_final/1741_fw.mp4	0.0	368.9219698905945	2.508734941482544
58	350.4735188484192	pulse	1	t		56.0	2.5	/experiments/AOT/AOT_stimuli/rescaled_final/1741_fw.mp4	0.0	370.5143268108368	
58	351.3898968696594	fix_post	2		12	56.0	2.5	/experiments/AOT/AOT_stimuli/rescaled_final/1741_fw.mp4	0.0	371.430704832077	0.1000361442565918
59	351.489933013916	fix_pre	0		120	57.0	2.5	/experiments/AOT/AOT_stimuli/rescaled_final/0574_rv.mp4	0.0	371.5307409763336	0.9999008178710938
59	352.07339787483215	pulse	0	t		57.0	2.5	/experiments/AOT/AOT_stimuli/rescaled_final/0574_rv.mp4	0.0	372.11420583724976	
59	352.4898338317871	movie	1		246	57.0	2.5	/experiments/AOT/AOT_stimuli/rescaled_final/0574_rv.mp4	0.0	372.5306417942047	2.499997138977051
59	353.6735119819641	pulse	1	t		57.0	2.5	/experiments/AOT/AOT_stimuli/rescaled_final/0574_rv.mp4	0.0	373.7143199443817	
59	354.98983097076416	fix_post	2		12	57.0	2.5	/experiments/AOT/AOT_stimuli/rescaled_final/0574_rv.mp4	0.0	375.03063893318176	0.09998703002929688
60	355.08981800079346	fix_pre	0		120	58.0	2.5	/experiments/AOT/AOT_stimuli/rescaled_final/1776_rv.mp4	0.0	375.13062596321106	0.9996209144592285
60	355.27427887916565	pulse	0	t		58.0	2.5	/experiments/AOT/AOT_stimuli/rescaled_final/1776_rv.mp4	0.0	375.31508684158325	
60	356.0894389152527	movie	1		243	58.0	2.5	/experiments/AOT/AOT_stimuli/rescaled_final/1776_rv.mp4	0.0	376.1302468776703	2.500333070755005
60	356.87413692474365	pulse	1	t		58.0	2.5	/experiments/AOT/AOT_stimuli/rescaled_final/1776_rv.mp4	0.0	376.91494488716125	
60	358.481703042984	pulse	1	t		58.0	2.5	/experiments/AOT/AOT_stimuli/rescaled_final/1776_rv.mp4	0.0	378.5225110054016	
60	358.5897719860077	fix_post	2		12	58.0	2.5	/experiments/AOT/AOT_stimuli/rescaled_final/1776_rv.mp4	0.0	378.6305799484253	0.10006904602050781
61	358.6898410320282	fix_pre	0		120	59.0	2.5	/experiments/AOT/AOT_stimuli/rescaled_final/0322_fw.mp4	0.0	378.7306489944458	0.9999849796295166
61	359.6898260116577	movie	1		244	59.0	2.5	/experiments/AOT/AOT_stimuli/rescaled_final/0322_fw.mp4	0.0	379.7306339740753	2.4999940395355225
61	360.07328486442566	pulse	1	t		59.0	2.5	/experiments/AOT/AOT_stimuli/rescaled_final/0322_fw.mp4	0.0	380.11409282684326	
61	361.6732180118561	pulse	1	t		59.0	2.5	/experiments/AOT/AOT_stimuli/rescaled_final/0322_fw.mp4	0.0	381.7140259742737	
61	362.18982005119324	fix_post	2		12	59.0	2.5	/experiments/AOT/AOT_stimuli/rescaled_final/0322_fw.mp4	0.0	382.23062801361084	0.09995484352111816
62	362.28977489471436	fix_pre	0		119	60.0	2.5	/experiments/AOT/AOT_stimuli/rescaled_final/0482_fw.mp4	0.0	382.33058285713196	0.9916839599609375
62	363.2732729911804	pulse	0	t		60.0	2.5	/experiments/AOT/AOT_stimuli/rescaled_final/0482_fw.mp4	0.0	383.314080953598	
62	363.2814588546753	movie	1		244	60.0	2.5	/experiments/AOT/AOT_stimuli/rescaled_final/0482_fw.mp4	0.0	383.3222668170929	2.5083420276641846
62	364.8729438781738	pulse	1	t		60.0	2.5	/experiments/AOT/AOT_stimuli/rescaled_final/0482_fw.mp4	0.0	384.91375184059143	
62	365.7898008823395	fix_post	2		12	60.0	2.5	/experiments/AOT/AOT_stimuli/rescaled_final/0482_fw.mp4	0.0	385.8306088447571	0.09998798370361328
63	365.8897888660431	fix_pre	0		120	61.0	2.5	blank	1.0	385.9305968284607	0.9999620914459229
63	366.47337102890015	pulse	0	t		61.0	2.5	blank	1.0	386.51417899131775	
63	366.889750957489	movie	1		300	61.0	2.5	blank	1.0	386.9305589199066	2.500051975250244
63	368.0733280181885	pulse	1	t		61.0	2.5	blank	1.0	388.1141359806061	
63	369.38980293273926	fix_post	2		12	61.0	2.5	blank	1.0	389.43061089515686	0.09998607635498047
64	369.48978900909424	fix_pre	0		120	62.0	2.5	/experiments/AOT/AOT_stimuli/rescaled_final/0759_rv.mp4	0.0	389.53059697151184	1.0000858306884766
64	369.67328786849976	pulse	0	t		62.0	2.5	/experiments/AOT/AOT_stimuli/rescaled_final/0759_rv.mp4	0.0	389.71409583091736	
64	370.4898748397827	movie	1		245	62.0	2.5	/experiments/AOT/AOT_stimuli/rescaled_final/0759_rv.mp4	0.0	390.5306828022003	2.4998741149902344
64	371.27410101890564	pulse	1	t		62.0	2.5	/experiments/AOT/AOT_stimuli/rescaled_final/0759_rv.mp4	0.0	391.31490898132324	
64	372.8818328380585	pulse	1	t		62.0	2.5	/experiments/AOT/AOT_stimuli/rescaled_final/0759_rv.mp4	0.0	392.9226408004761	
64	372.98974895477295	fix_post	2		12	62.0	2.5	/experiments/AOT/AOT_stimuli/rescaled_final/0759_rv.mp4	0.0	393.03055691719055	0.10002994537353516
65	373.0897789001465	fix_pre	0		120	63.0	2.5	/experiments/AOT/AOT_stimuli/rescaled_final/0607_rv.mp4	0.0	393.1305868625641	0.9999411106109619
65	374.08972001075745	movie	1		245	63.0	2.5	/experiments/AOT/AOT_stimuli/rescaled_final/0607_rv.mp4	0.0	394.13052797317505	2.5000739097595215
65	374.47337198257446	pulse	1	t		63.0	2.5	/experiments/AOT/AOT_stimuli/rescaled_final/0607_rv.mp4	0.0	394.51417994499207	
65	376.0732100009918	pulse	1	t		63.0	2.5	/experiments/AOT/AOT_stimuli/rescaled_final/0607_rv.mp4	0.0	396.1140179634094	
65	376.58979392051697	fix_post	2		12	63.0	2.5	/experiments/AOT/AOT_stimuli/rescaled_final/0607_rv.mp4	0.0	396.63060188293457	0.10004496574401855
66	376.689838886261	fix_pre	0		119	64.0	2.5	/experiments/AOT/AOT_stimuli/rescaled_final/1677_fw.mp4	0.0	396.7306468486786	0.9916000366210938
66	377.6732280254364	pulse	0	t		64.0	2.5	/experiments/AOT/AOT_stimuli/rescaled_final/1677_fw.mp4	0.0	397.714035987854	
66	377.6814389228821	movie	1		246	64.0	2.5	/experiments/AOT/AOT_stimuli/rescaled_final/1677_fw.mp4	0.0	397.7222468852997	2.507869005203247
66	379.27319383621216	pulse	1	t		64.0	2.5	/experiments/AOT/AOT_stimuli/rescaled_final/1677_fw.mp4	0.0	399.31400179862976	
66	380.1893079280853	fix_post	2		12	64.0	2.5	/experiments/AOT/AOT_stimuli/rescaled_final/1677_fw.mp4	0.0	400.23011589050293	0.10040998458862305
67	380.28971791267395	fix_pre	0		120	65.0	2.5	/experiments/AOT/AOT_stimuli/rescaled_final/1761_rv.mp4	0.0	400.33052587509155	1.0000250339508057
67	380.873162984848	pulse	0	t		65.0	2.5	/experiments/AOT/AOT_stimuli/rescaled_final/1761_rv.mp4	0.0	400.9139709472656	
67	381.28974294662476	movie	1		244	65.0	2.5	/experiments/AOT/AOT_stimuli/rescaled_final/1761_rv.mp4	0.0	401.33055090904236	2.5000219345092773
67	382.4732608795166	pulse	1	t		65.0	2.5	/experiments/AOT/AOT_stimuli/rescaled_final/1761_rv.mp4	0.0	402.5140688419342	
67	383.78976488113403	fix_post	2		12	65.0	2.5	/experiments/AOT/AOT_stimuli/rescaled_final/1761_rv.mp4	0.0	403.83057284355164	0.09996294975280762
68	383.88972783088684	fix_pre	0		120	66.0	2.5	/experiments/AOT/AOT_stimuli/rescaled_final/1186_rv.mp4	0.0	403.93053579330444	1.000002145767212
68	384.0731840133667	pulse	0	t		66.0	2.5	/experiments/AOT/AOT_stimuli/rescaled_final/1186_rv.mp4	0.0	404.1139919757843	
68	384.88972997665405	movie	1		243	66.0	2.5	/experiments/AOT/AOT_stimuli/rescaled_final/1186_rv.mp4	0.0	404.93053793907166	2.4999899864196777
68	385.6732540130615	pulse	1	t		66.0	2.5	/experiments/AOT/AOT_stimuli/rescaled_final/1186_rv.mp4	0.0	405.7140619754791	
68	387.28155994415283	pulse	1	t		66.0	2.5	/experiments/AOT/AOT_stimuli/rescaled_final/1186_rv.mp4	0.0	407.32236790657043	
68	387.38971996307373	fix_post	2		12	66.0	2.5	/experiments/AOT/AOT_stimuli/rescaled_final/1186_rv.mp4	0.0	407.43052792549133	0.09993886947631836
69	387.48965883255005	fix_pre	0		120	67.0	2.5	/experiments/AOT/AOT_stimuli/rescaled_final/2177_rv.mp4	0.0	407.53046679496765	1.0001130104064941
69	388.48977184295654	movie	1		244	67.0	2.5	/experiments/AOT/AOT_stimuli/rescaled_final/2177_rv.mp4	0.0	408.53057980537415	2.4998581409454346
69	388.8815598487854	pulse	1	t		67.0	2.5	/experiments/AOT/AOT_stimuli/rescaled_final/2177_rv.mp4	0.0	408.922367811203	
69	390.4740078449249	pulse	1	t		67.0	2.5	/experiments/AOT/AOT_stimuli/rescaled_final/2177_rv.mp4	0.0	410.51481580734253	
69	390.989629983902	fix_post	2		12	67.0	2.5	/experiments/AOT/AOT_stimuli/rescaled_final/2177_rv.mp4	0.0	411.0304379463196	0.10007905960083008
70	391.0897090435028	fix_pre	0		119	68.0	2.5	blank	1.0	411.1305170059204	0.9916470050811768
70	392.07323598861694	pulse	0	t		68.0	2.5	blank	1.0	412.11404395103455	
70	392.081356048584	movie	1		301	68.0	2.5	blank	1.0	412.1221640110016	2.50832200050354
70	393.67310094833374	pulse	1	t		68.0	2.5	blank	1.0	413.71390891075134	
70	394.5896780490875	fix_post	2		12	68.0	2.5	blank	1.0	414.6304860115051	0.09997892379760742
71	394.68965697288513	fix_pre	0		120	69.0	2.5	/experiments/AOT/AOT_stimuli/rescaled_final/1752_rv.mp4	0.0	414.73046493530273	0.9999890327453613
71	395.27314591407776	pulse	0	t		69.0	2.5	/experiments/AOT/AOT_stimuli/rescaled_final/1752_rv.mp4	0.0	415.31395387649536	
71	395.6896460056305	movie	1		246	69.0	2.5	/experiments/AOT/AOT_stimuli/rescaled_final/1752_rv.mp4	0.0	415.7304539680481	2.5000898838043213
71	396.87329292297363	pulse	1	t		69.0	2.5	/experiments/AOT/AOT_stimuli/rescaled_final/1752_rv.mp4	0.0	416.91410088539124	
71	398.1897358894348	fix_post	2		12	69.0	2.5	/experiments/AOT/AOT_stimuli/rescaled_final/1752_rv.mp4	0.0	418.2305438518524	0.10000801086425781
72	398.2897439002991	fix_pre	0		120	70.0	2.5	/experiments/AOT/AOT_stimuli/rescaled_final/0088_rv.mp4	0.0	418.3305518627167	0.9995460510253906
72	398.4732048511505	pulse	0	t		70.0	2.5	/experiments/AOT/AOT_stimuli/rescaled_final/0088_rv.mp4	0.0	418.5140128135681	
72	399.28928995132446	movie	1		244	70.0	2.5	/experiments/AOT/AOT_stimuli/rescaled_final/0088_rv.mp4	0.0	419.33009791374207	2.500277042388916
72	400.07320189476013	pulse	1	t		70.0	2.5	/experiments/AOT/AOT_stimuli/rescaled_final/0088_rv.mp4	0.0	420.11400985717773	
72	401.6731798648834	pulse	1	t		70.0	2.5	/experiments/AOT/AOT_stimuli/rescaled_final/0088_rv.mp4	0.0	421.713987827301	
72	401.7895669937134	fix_post	2		12	70.0	2.5	/experiments/AOT/AOT_stimuli/rescaled_final/0088_rv.mp4	0.0	421.830374956131	0.10015106201171875
73	401.8897180557251	fix_pre	0		120	71.0	2.5	/experiments/AOT/AOT_stimuli/rescaled_final/0736_rv.mp4	0.0	421.9305260181427	0.9998610019683838
73	402.8895790576935	movie	1		247	71.0	2.5	/experiments/AOT/AOT_stimuli/rescaled_final/0736_rv.mp4	0.0	422.9303870201111	2.5001797676086426
73	403.2814209461212	pulse	1	t		71.0	2.5	/experiments/AOT/AOT_stimuli/rescaled_final/0736_rv.mp4	0.0	423.3222289085388	
73	404.8736050128937	pulse	1	t		71.0	2.5	/experiments/AOT/AOT_stimuli/rescaled_final/0736_rv.mp4	0.0	424.9144129753113	
73	405.3897588253021	fix_post	2		12	71.0	2.5	/experiments/AOT/AOT_stimuli/rescaled_final/0736_rv.mp4	0.0	425.4305667877197	0.09995508193969727
74	405.4897139072418	fix_pre	0		119	72.0	2.5	/experiments/AOT/AOT_stimuli/rescaled_final/1436_rv.mp4	0.0	425.5305218696594	0.9918920993804932
74	406.4734048843384	pulse	0	t		72.0	2.5	/experiments/AOT/AOT_stimuli/rescaled_final/1436_rv.mp4	0.0	426.514212846756	
74	406.4816060066223	movie	1		244	72.0	2.5	/experiments/AOT/AOT_stimuli/rescaled_final/1436_rv.mp4	0.0	426.5224139690399	2.508046865463257
74	408.07407689094543	pulse	1	t		72.0	2.5	/experiments/AOT/AOT_stimuli/rescaled_final/1436_rv.mp4	0.0	428.11488485336304	
74	408.98965287208557	fix_post	2		12	72.0	2.5	/experiments/AOT/AOT_stimuli/rescaled_final/1436_rv.mp4	0.0	429.0304608345032	0.0999441146850586
75	409.08959698677063	fix_pre	0		120	73.0	2.5	/experiments/AOT/AOT_stimuli/rescaled_final/1248_fw.mp4	0.0	429.13040494918823	0.999971866607666
75	409.6739480495453	pulse	0	t		73.0	2.5	/experiments/AOT/AOT_stimuli/rescaled_final/1248_fw.mp4	0.0	429.7147560119629	
75	410.0895688533783	movie	1		247	73.0	2.5	/experiments/AOT/AOT_stimuli/rescaled_final/1248_fw.mp4	0.0	430.1303768157959	2.4999911785125732
75	411.27310395240784	pulse	1	t		73.0	2.5	/experiments/AOT/AOT_stimuli/rescaled_final/1248_fw.mp4	0.0	431.31391191482544	
75	412.58956003189087	fix_post	2		12	73.0	2.5	/experiments/AOT/AOT_stimuli/rescaled_final/1248_fw.mp4	0.0	432.6303679943085	0.09997296333312988
76	412.689532995224	fix_pre	0		120	74.0	2.5	/experiments/AOT/AOT_stimuli/rescaled_final/2084_fw.mp4	0.0	432.7303409576416	1.000058889389038
76	412.8730318546295	pulse	0	t		74.0	2.5	/experiments/AOT/AOT_stimuli/rescaled_final/2084_fw.mp4	0.0	432.9138398170471	
76	413.68959188461304	movie	1		245	74.0	2.5	/experiments/AOT/AOT_stimuli/rescaled_final/2084_fw.mp4	0.0	433.73039984703064	2.4996020793914795
76	414.47293496131897	pulse	1	t		74.0	2.5	/experiments/AOT/AOT_stimuli/rescaled_final/2084_fw.mp4	0.0	434.5137429237366	
76	416.07338786125183	pulse	1	t		74.0	2.5	/experiments/AOT/AOT_stimuli/rescaled_final/2084_fw.mp4	0.0	436.11419582366943	
76	416.1891939640045	fix_post	2		12	74.0	2.5	/experiments/AOT/AOT_stimuli/rescaled_final/2084_fw.mp4	0.0	436.2300019264221	0.10034489631652832
77	416.28953886032104	fix_pre	0		120	75.0	2.5	/experiments/AOT/AOT_stimuli/rescaled_final/1752_fw.mp4	0.0	436.33034682273865	0.999981164932251
77	417.2895200252533	movie	1		246	75.0	2.5	/experiments/AOT/AOT_stimuli/rescaled_final/1752_fw.mp4	0.0	437.3303279876709	2.500105857849121
77	417.6729199886322	pulse	1	t		75.0	2.5	/experiments/AOT/AOT_stimuli/rescaled_final/1752_fw.mp4	0.0	437.7137279510498	
77	419.27388191223145	pulse	1	t		75.0	2.5	/experiments/AOT/AOT_stimuli/rescaled_final/1752_fw.mp4	0.0	439.31468987464905	
77	419.7896258831024	fix_post	2		12	75.0	2.5	/experiments/AOT/AOT_stimuli/rescaled_final/1752_fw.mp4	0.0	439.83043384552	0.09993815422058105
78	419.889564037323	fix_pre	0		120	76.0	2.5	/experiments/AOT/AOT_stimuli/rescaled_final/1367_rv.mp4	0.0	439.9303719997406	0.9999639987945557
78	420.873685836792	pulse	0	t		76.0	2.5	/experiments/AOT/AOT_stimuli/rescaled_final/1367_rv.mp4	0.0	440.9144937992096	
78	420.88952803611755	movie	1		246	76.0	2.5	/experiments/AOT/AOT_stimuli/rescaled_final/1367_rv.mp4	0.0	440.93033599853516	2.508297920227051
78	422.48068404197693	pulse	1	t		76.0	2.5	/experiments/AOT/AOT_stimuli/rescaled_final/1367_rv.mp4	0.0	442.52149200439453	
78	423.3978259563446	fix_post	2		12	76.0	2.5	/experiments/AOT/AOT_stimuli/rescaled_final/1367_rv.mp4	0.0	443.4386339187622	0.10008597373962402
79	423.49791193008423	fix_pre	0		120	77.0	2.5	blank	1.0	443.53871989250183	0.999967098236084
79	424.0738160610199	pulse	0	t		77.0	2.5	blank	1.0	444.1146240234375	
79	424.4978790283203	movie	1		300	77.0	2.5	blank	1.0	444.5386869907379	2.5000808238983154
79	425.673672914505	pulse	1	t		77.0	2.5	blank	1.0	445.7144808769226	
79	426.9979598522186	fix_post	2		12	77.0	2.5	blank	1.0	447.03876781463623	0.09990620613098145
80	427.0978660583496	fix_pre	0		120	78.0	2.5	/experiments/AOT/AOT_stimuli/rescaled_final/0659_fw.mp4	0.0	447.1386740207672	1.0000009536743164
80	427.2737329006195	pulse	0	t		78.0	2.5	/experiments/AOT/AOT_stimuli/rescaled_final/0659_fw.mp4	0.0	447.3145408630371	
80	428.0978670120239	movie	1		244	78.0	2.5	/experiments/AOT/AOT_stimuli/rescaled_final/0659_fw.mp4	0.0	448.1386749744415	2.4999778270721436
80	428.8729739189148	pulse	1	t		78.0	2.5	/experiments/AOT/AOT_stimuli/rescaled_final/0659_fw.mp4	0.0	448.9137818813324	
80	430.47295093536377	pulse	1	t		78.0	2.5	/experiments/AOT/AOT_stimuli/rescaled_final/0659_fw.mp4	0.0	450.5137588977814	
80	430.59784483909607	fix_post	2		12	78.0	2.5	/experiments/AOT/AOT_stimuli/rescaled_final/0659_fw.mp4	0.0	450.6386528015137	0.09992408752441406
81	430.6977689266205	fix_pre	0		120	79.0	2.5	/experiments/AOT/AOT_stimuli/rescaled_final/1132_fw.mp4	0.0	450.7385768890381	1.0000619888305664
81	431.69783091545105	movie	1		248	79.0	2.5	/experiments/AOT/AOT_stimuli/rescaled_final/1132_fw.mp4	0.0	451.73863887786865	2.499980926513672
81	432.07291889190674	pulse	1	t		79.0	2.5	/experiments/AOT/AOT_stimuli/rescaled_final/1132_fw.mp4	0.0	452.11372685432434	
81	433.6729700565338	pulse	1	t		79.0	2.5	/experiments/AOT/AOT_stimuli/rescaled_final/1132_fw.mp4	0.0	453.7137780189514	
81	434.1978118419647	fix_post	2		12	79.0	2.5	/experiments/AOT/AOT_stimuli/rescaled_final/1132_fw.mp4	0.0	454.2386198043823	0.10001420974731445
82	434.29782605171204	fix_pre	0		119	80.0	2.5	/experiments/AOT/AOT_stimuli/rescaled_final/0646_fw.mp4	0.0	454.33863401412964	0.9915759563446045
82	435.2737169265747	pulse	0	t		80.0	2.5	/experiments/AOT/AOT_stimuli/rescaled_final/0646_fw.mp4	0.0	455.3145248889923	
82	435.28940200805664	movie	1		248	80.0	2.5	/experiments/AOT/AOT_stimuli/rescaled_final/0646_fw.mp4	0.0	455.33020997047424	2.5084609985351562
82	436.88085293769836	pulse	1	t		80.0	2.5	/experiments/AOT/AOT_stimuli/rescaled_final/0646_fw.mp4	0.0	456.92166090011597	
82	437.7978630065918	fix_post	2		12	80.0	2.5	/experiments/AOT/AOT_stimuli/rescaled_final/0646_fw.mp4	0.0	457.8386709690094	0.09992289543151855
83	437.8977859020233	fix_pre	0		120	81.0	2.5	/experiments/AOT/AOT_stimuli/rescaled_final/0541_rv.mp4	0.0	457.9385938644409	1.0000550746917725
83	438.4737639427185	pulse	0	t		81.0	2.5	/experiments/AOT/AOT_stimuli/rescaled_final/0541_rv.mp4	0.0	458.5145719051361	
83	438.8978409767151	movie	1		246	81.0	2.5	/experiments/AOT/AOT_stimuli/rescaled_final/0541_rv.mp4	0.0	458.9386489391327	2.499561071395874
83	440.0812759399414	pulse	1	t		81.0	2.5	/experiments/AOT/AOT_stimuli/rescaled_final/0541_rv.mp4	0.0	460.122083902359	
83	441.39740204811096	fix_post	2		12	81.0	2.5	/experiments/AOT/AOT_stimuli/rescaled_final/0541_rv.mp4	0.0	461.43821001052856	0.10046195983886719
84	441.49786400794983	fix_pre	0		120	82.0	2.5	blank	1.0	461.53867197036743	0.99993896484375
84	441.67371582984924	pulse	0	t		82.0	2.5	blank	1.0	461.71452379226685	
84	442.4978029727936	movie	1		300	82.0	2.5	blank	1.0	462.5386109352112	2.4999608993530273
84	443.2738449573517	pulse	1	t		82.0	2.5	blank	1.0	463.3146529197693	
84	444.872948884964	pulse	1	t		82.0	2.5	blank	1.0	464.9137568473816	
84	444.9977638721466	fix_post	2		12	82.0	2.5	blank	1.0	465.0385718345642	0.09996414184570312
85	445.0977280139923	fix_pre	0		120	83.0	2.5	/experiments/AOT/AOT_stimuli/rescaled_final/1818_fw.mp4	0.0	465.1385359764099	1.0000708103179932
85	446.0977988243103	movie	1		243	83.0	2.5	/experiments/AOT/AOT_stimuli/rescaled_final/1818_fw.mp4	0.0	466.1386067867279	2.4999141693115234
85	446.48123502731323	pulse	1	t		83.0	2.5	/experiments/AOT/AOT_stimuli/rescaled_final/1818_fw.mp4	0.0	466.52204298973083	
85	448.07292795181274	pulse	1	t		83.0	2.5	/experiments/AOT/AOT_stimuli/rescaled_final/1818_fw.mp4	0.0	468.11373591423035	
85	448.5977129936218	fix_post	2		12	83.0	2.5	/experiments/AOT/AOT_stimuli/rescaled_final/1818_fw.mp4	0.0	468.63852095603943	0.09996390342712402
87	448.69767689704895	stim	0		1716					468.73848485946655	14.30005693435669
87	449.6729619503021	pulse	0	t						469.7137699127197	
87	451.27372193336487	pulse	0	t						471.31452989578247	
87	452.87379693984985	pulse	0	t						472.91460490226746	
87	454.47377490997314	pulse	0	t						474.51458287239075	
87	456.0738089084625	pulse	0	t						476.1146168708801	
87	457.67373991012573	pulse	0	t						477.71454787254333	
87	459.2738449573517	pulse	0	t						479.3146529197693	
87	460.8733949661255	pulse	0	t						480.9142029285431	
87	462.4735929965973	pulse	0	t						482.5144009590149	
