trial_nr	onset	event_type	phase	response	nr_frames	movie_index	movie_duration	movie_file	blank	onset_abs	duration
0	0.1494739055633545	stim	0		632					88.79793405532837	5.267081022262573
0	5.408509969711304	response	0	space						94.05697011947632	
1	5.416554927825928	stim	0		4344					94.06501507759094	36.19923996925354
1	41.61301898956299	pulse	0	t						130.261479139328	
1	41.61579489707947	stim	1		1717					130.26425504684448	14.308779954910278
1	43.208136796951294	pulse	1	t						131.8565969467163	
1	44.80815100669861	pulse	1	t						133.45661115646362	
1	46.40813684463501	pulse	1	t						135.05659699440002	
1	48.00817394256592	pulse	1	t						136.65663409233093	
1	49.608144998550415	pulse	1	t						138.25660514831543	
1	51.20817184448242	pulse	1	t						139.85663199424744	
1	52.80819487571716	pulse	1	t						141.45665502548218	
1	54.40821886062622	pulse	1	t						143.05667901039124	
2	55.924574851989746	fix_pre	0		11	0.0	2.5	/experiments/AOT/AOT_stimuli/rescaled_final/0308_rv.mp4	0.0	144.57303500175476	0.09125709533691406
2	56.00765299797058	pulse	0	t		0.0	2.5	/experiments/AOT/AOT_stimuli/rescaled_final/0308_rv.mp4	0.0	144.6561131477356	
2	56.01583194732666	movie	1		244	0.0	2.5	/experiments/AOT/AOT_stimuli/rescaled_final/0308_rv.mp4	0.0	144.66429209709167	2.5089879035949707
2	57.607730865478516	pulse	1	t		0.0	2.5	/experiments/AOT/AOT_stimuli/rescaled_final/0308_rv.mp4	0.0	146.25619101524353	
2	58.52481985092163	fix_post	2		12	0.0	2.5	/experiments/AOT/AOT_stimuli/rescaled_final/0308_rv.mp4	0.0	147.17328000068665	0.09962010383605957
3	58.62443995475769	fix_pre	0		120	1.0	2.5	/experiments/AOT/AOT_stimuli/rescaled_final/0313_fw.mp4	0.0	147.2729001045227	1.0001678466796875
3	59.208027839660645	pulse	0	t		1.0	2.5	/experiments/AOT/AOT_stimuli/rescaled_final/0313_fw.mp4	0.0	147.85648798942566	
3	59.62460780143738	movie	1		246	1.0	2.5	/experiments/AOT/AOT_stimuli/rescaled_final/0313_fw.mp4	0.0	148.2730679512024	2.499606132507324
3	60.8082230091095	pulse	1	t		1.0	2.5	/experiments/AOT/AOT_stimuli/rescaled_final/0313_fw.mp4	0.0	149.4566831588745	
3	62.1242139339447	fix_post	2		12	1.0	2.5	/experiments/AOT/AOT_stimuli/rescaled_final/0313_fw.mp4	0.0	150.77267408370972	0.10034298896789551
4	62.2245569229126	fix_pre	0		120	2.0	2.5	/experiments/AOT/AOT_stimuli/rescaled_final/1968_rv.mp4	0.0	150.8730170726776	1.0000569820404053
4	62.40815496444702	pulse	0	t		2.0	2.5	/experiments/AOT/AOT_stimuli/rescaled_final/1968_rv.mp4	0.0	151.05661511421204	
4	63.224613904953	movie	1		245	2.0	2.5	/experiments/AOT/AOT_stimuli/rescaled_final/1968_rv.mp4	0.0	151.87307405471802	2.4994959831237793
4	64.00799679756165	pulse	1	t		2.0	2.5	/experiments/AOT/AOT_stimuli/rescaled_final/1968_rv.mp4	0.0	152.65645694732666	
4	65.60675883293152	pulse	1	t		2.0	2.5	/experiments/AOT/AOT_stimuli/rescaled_final/1968_rv.mp4	0.0	154.25521898269653	
4	65.72410988807678	fix_post	2		12	2.0	2.5	/experiments/AOT/AOT_stimuli/rescaled_final/1968_rv.mp4	0.0	154.3725700378418	0.10000109672546387
5	65.82411098480225	fix_pre	0		120	3.0	2.5	/experiments/AOT/AOT_stimuli/rescaled_final/0133_fw.mp4	0.0	154.47257113456726	1.0004630088806152
5	66.82457399368286	movie	1		242	3.0	2.5	/experiments/AOT/AOT_stimuli/rescaled_final/0133_fw.mp4	0.0	155.47303414344788	2.4999589920043945
5	67.20782995223999	pulse	1	t		3.0	2.5	/experiments/AOT/AOT_stimuli/rescaled_final/0133_fw.mp4	0.0	155.856290102005	
5	68.80805897712708	pulse	1	t		3.0	2.5	/experiments/AOT/AOT_stimuli/rescaled_final/0133_fw.mp4	0.0	157.4565191268921	
5	69.32453298568726	fix_post	2		12	3.0	2.5	/experiments/AOT/AOT_stimuli/rescaled_final/0133_fw.mp4	0.0	157.97299313545227	0.09964585304260254
6	69.42417883872986	fix_pre	0		119	4.0	2.5	/experiments/AOT/AOT_stimuli/rescaled_final/0877_rv.mp4	0.0	158.07263898849487	0.9920001029968262
6	70.4079818725586	pulse	0	t		4.0	2.5	/experiments/AOT/AOT_stimuli/rescaled_final/0877_rv.mp4	0.0	159.0564420223236	
6	70.41617894172668	movie	1		244	4.0	2.5	/experiments/AOT/AOT_stimuli/rescaled_final/0877_rv.mp4	0.0	159.0646390914917	2.507917881011963
6	72.00781393051147	pulse	1	t		4.0	2.5	/experiments/AOT/AOT_stimuli/rescaled_final/0877_rv.mp4	0.0	160.6562740802765	
6	72.92409682273865	fix_post	2		12	4.0	2.5	/experiments/AOT/AOT_stimuli/rescaled_final/0877_rv.mp4	0.0	161.57255697250366	0.10042405128479004
7	73.02452087402344	fix_pre	0		120	5.0	2.5	blank	1.0	161.67298102378845	1.0000369548797607
7	73.60807180404663	pulse	0	t		5.0	2.5	blank	1.0	162.25653195381165	
7	74.0245578289032	movie	1		300	5.0	2.5	blank	1.0	162.6730179786682	2.4999840259552
7	75.20817995071411	pulse	1	t		5.0	2.5	blank	1.0	163.85664010047913	
7	76.5245418548584	fix_post	2		12	5.0	2.5	blank	1.0	165.1730020046234	0.09990215301513672
8	76.62444400787354	fix_pre	0		120	6.0	2.5	/experiments/AOT/AOT_stimuli/rescaled_final/0289_fw.mp4	0.0	165.27290415763855	1.0000808238983154
8	76.80803680419922	pulse	0	t		6.0	2.5	/experiments/AOT/AOT_stimuli/rescaled_final/0289_fw.mp4	0.0	165.45649695396423	
8	77.62452483177185	movie	1		244	6.0	2.5	/experiments/AOT/AOT_stimuli/rescaled_final/0289_fw.mp4	0.0	166.27298498153687	2.499490976333618
8	78.40797686576843	pulse	1	t		6.0	2.5	/experiments/AOT/AOT_stimuli/rescaled_final/0289_fw.mp4	0.0	167.05643701553345	
8	80.00414991378784	pulse	1	t		6.0	2.5	/experiments/AOT/AOT_stimuli/rescaled_final/0289_fw.mp4	0.0	168.65261006355286	
8	80.12401580810547	fix_post	2		12	6.0	2.5	/experiments/AOT/AOT_stimuli/rescaled_final/0289_fw.mp4	0.0	168.77247595787048	0.1004800796508789
9	80.22449588775635	fix_pre	0		120	7.0	2.5	/experiments/AOT/AOT_stimuli/rescaled_final/1685_rv.mp4	0.0	168.87295603752136	0.9996249675750732
9	81.22412085533142	movie	1		244	7.0	2.5	/experiments/AOT/AOT_stimuli/rescaled_final/1685_rv.mp4	0.0	169.87258100509644	2.4998929500579834
9	81.60740280151367	pulse	1	t		7.0	2.5	/experiments/AOT/AOT_stimuli/rescaled_final/1685_rv.mp4	0.0	170.2558629512787	
9	83.20794582366943	pulse	1	t		7.0	2.5	/experiments/AOT/AOT_stimuli/rescaled_final/1685_rv.mp4	0.0	171.85640597343445	
9	83.7240138053894	fix_post	2		12	7.0	2.5	/experiments/AOT/AOT_stimuli/rescaled_final/1685_rv.mp4	0.0	172.37247395515442	0.10050010681152344
10	83.82451391220093	fix_pre	0		119	8.0	2.5	/experiments/AOT/AOT_stimuli/rescaled_final/2161_fw.mp4	0.0	172.47297406196594	0.9915649890899658
10	84.80799794197083	pulse	0	t		8.0	2.5	/experiments/AOT/AOT_stimuli/rescaled_final/2161_fw.mp4	0.0	173.45645809173584	
10	84.8160789012909	movie	1		247	8.0	2.5	/experiments/AOT/AOT_stimuli/rescaled_final/2161_fw.mp4	0.0	173.4645390510559	2.5079190731048584
10	86.40770602226257	pulse	1	t		8.0	2.5	/experiments/AOT/AOT_stimuli/rescaled_final/2161_fw.mp4	0.0	175.0561661720276	
10	87.32399797439575	fix_post	2		12	8.0	2.5	/experiments/AOT/AOT_stimuli/rescaled_final/2161_fw.mp4	0.0	175.97245812416077	0.10040903091430664
11	87.42440700531006	fix_pre	0		120	9.0	2.5	/experiments/AOT/AOT_stimuli/rescaled_final/1690_rv.mp4	0.0	176.07286715507507	1.0001299381256104
11	88.00788187980652	pulse	0	t		9.0	2.5	/experiments/AOT/AOT_stimuli/rescaled_final/1690_rv.mp4	0.0	176.65634202957153	
11	88.42453694343567	movie	1		245	9.0	2.5	/experiments/AOT/AOT_stimuli/rescaled_final/1690_rv.mp4	0.0	177.07299709320068	2.499469041824341
11	89.6079490184784	pulse	1	t		9.0	2.5	/experiments/AOT/AOT_stimuli/rescaled_final/1690_rv.mp4	0.0	178.2564091682434	
11	90.92400598526001	fix_post	2		12	9.0	2.5	/experiments/AOT/AOT_stimuli/rescaled_final/1690_rv.mp4	0.0	179.57246613502502	0.10048794746398926
12	91.024493932724	fix_pre	0		120	10.0	2.5	/experiments/AOT/AOT_stimuli/rescaled_final/0153_fw.mp4	0.0	179.672954082489	0.999971866607666
12	91.20789194107056	pulse	0	t		10.0	2.5	/experiments/AOT/AOT_stimuli/rescaled_final/0153_fw.mp4	0.0	179.85635209083557	
12	92.02446579933167	movie	1		245	10.0	2.5	/experiments/AOT/AOT_stimuli/rescaled_final/0153_fw.mp4	0.0	180.67292594909668	2.499887228012085
12	92.80785298347473	pulse	1	t		10.0	2.5	/experiments/AOT/AOT_stimuli/rescaled_final/0153_fw.mp4	0.0	181.45631313323975	
12	94.40658187866211	pulse	1	t		10.0	2.5	/experiments/AOT/AOT_stimuli/rescaled_final/0153_fw.mp4	0.0	183.05504202842712	
12	94.52435302734375	fix_post	2		12	10.0	2.5	/experiments/AOT/AOT_stimuli/rescaled_final/0153_fw.mp4	0.0	183.17281317710876	0.09998488426208496
13	94.62433791160583	fix_pre	0		120	11.0	2.5	/experiments/AOT/AOT_stimuli/rescaled_final/0292_rv.mp4	0.0	183.27279806137085	1.0000200271606445
13	95.62435793876648	movie	1		245	11.0	2.5	/experiments/AOT/AOT_stimuli/rescaled_final/0292_rv.mp4	0.0	184.2728180885315	2.5000579357147217
13	96.00736379623413	pulse	1	t		11.0	2.5	/experiments/AOT/AOT_stimuli/rescaled_final/0292_rv.mp4	0.0	184.65582394599915	
13	97.60792183876038	pulse	1	t		11.0	2.5	/experiments/AOT/AOT_stimuli/rescaled_final/0292_rv.mp4	0.0	186.2563819885254	
13	98.1244158744812	fix_post	2		12	11.0	2.5	/experiments/AOT/AOT_stimuli/rescaled_final/0292_rv.mp4	0.0	186.77287602424622	0.10003304481506348
14	98.22444891929626	fix_pre	0		119	12.0	2.5	blank	1.0	186.87290906906128	0.991645097732544
14	99.2079210281372	pulse	0	t		12.0	2.5	blank	1.0	187.85638117790222	
14	99.21609401702881	movie	1		301	12.0	2.5	blank	1.0	187.86455416679382	2.508286952972412
14	100.80789494514465	pulse	1	t		12.0	2.5	blank	1.0	189.45635509490967	
14	101.72438097000122	fix_post	2		12	12.0	2.5	blank	1.0	190.37284111976624	0.10002899169921875
15	101.82440996170044	fix_pre	0		120	13.0	2.5	/experiments/AOT/AOT_stimuli/rescaled_final/1397_rv.mp4	0.0	190.47287011146545	1.000035047531128
15	102.40790796279907	pulse	0	t		13.0	2.5	/experiments/AOT/AOT_stimuli/rescaled_final/1397_rv.mp4	0.0	191.0563681125641	
15	102.82444500923157	movie	1		244	13.0	2.5	/experiments/AOT/AOT_stimuli/rescaled_final/1397_rv.mp4	0.0	191.47290515899658	2.4999477863311768
15	104.0079460144043	pulse	1	t		13.0	2.5	/experiments/AOT/AOT_stimuli/rescaled_final/1397_rv.mp4	0.0	192.6564061641693	
15	105.32439279556274	fix_post	2		12	13.0	2.5	/experiments/AOT/AOT_stimuli/rescaled_final/1397_rv.mp4	0.0	193.97285294532776	0.09998703002929688
16	105.42437982559204	fix_pre	0		120	14.0	2.5	/experiments/AOT/AOT_stimuli/rescaled_final/1499_fw.mp4	0.0	194.07283997535706	1.000020980834961
16	105.60790991783142	pulse	0	t		14.0	2.5	/experiments/AOT/AOT_stimuli/rescaled_final/1499_fw.mp4	0.0	194.25637006759644	
16	106.424400806427	movie	1		244	14.0	2.5	/experiments/AOT/AOT_stimuli/rescaled_final/1499_fw.mp4	0.0	195.07286095619202	2.499601125717163
16	107.20789694786072	pulse	1	t		14.0	2.5	/experiments/AOT/AOT_stimuli/rescaled_final/1499_fw.mp4	0.0	195.85635709762573	
16	108.80668592453003	pulse	1	t		14.0	2.5	/experiments/AOT/AOT_stimuli/rescaled_final/1499_fw.mp4	0.0	197.45514607429504	
16	108.92400193214417	fix_post	2		12	14.0	2.5	/experiments/AOT/AOT_stimuli/rescaled_final/1499_fw.mp4	0.0	197.57246208190918	0.10037708282470703
17	109.02437901496887	fix_pre	0		120	15.0	2.5	/experiments/AOT/AOT_stimuli/rescaled_final/0491_fw.mp4	0.0	197.6728391647339	1.0000309944152832
17	110.02441000938416	movie	1		247	15.0	2.5	/experiments/AOT/AOT_stimuli/rescaled_final/0491_fw.mp4	0.0	198.67287015914917	2.4999518394470215
17	110.40722990036011	pulse	1	t		15.0	2.5	/experiments/AOT/AOT_stimuli/rescaled_final/0491_fw.mp4	0.0	199.05569005012512	
17	112.00736284255981	pulse	1	t		15.0	2.5	/experiments/AOT/AOT_stimuli/rescaled_final/0491_fw.mp4	0.0	200.65582299232483	
17	112.52436184883118	fix_post	2		12	15.0	2.5	/experiments/AOT/AOT_stimuli/rescaled_final/0491_fw.mp4	0.0	201.1728219985962	0.09963202476501465
18	112.62399387359619	fix_pre	0		119	16.0	2.5	/experiments/AOT/AOT_stimuli/rescaled_final/1743_fw.mp4	0.0	201.2724540233612	0.9918210506439209
18	113.6075849533081	pulse	0	t		16.0	2.5	/experiments/AOT/AOT_stimuli/rescaled_final/1743_fw.mp4	0.0	202.25604510307312	
18	113.61581492424011	movie	1		244	16.0	2.5	/experiments/AOT/AOT_stimuli/rescaled_final/1743_fw.mp4	0.0	202.26427507400513	2.5085949897766113
18	115.20790982246399	pulse	1	t		16.0	2.5	/experiments/AOT/AOT_stimuli/rescaled_final/1743_fw.mp4	0.0	203.856369972229	
18	116.12440991401672	fix_post	2		12	16.0	2.5	/experiments/AOT/AOT_stimuli/rescaled_final/1743_fw.mp4	0.0	204.77287006378174	0.09998297691345215
19	116.22439289093018	fix_pre	0		120	17.0	2.5	/experiments/AOT/AOT_stimuli/rescaled_final/2041_rv.mp4	0.0	204.8728530406952	0.9999630451202393
19	116.807856798172	pulse	0	t		17.0	2.5	/experiments/AOT/AOT_stimuli/rescaled_final/2041_rv.mp4	0.0	205.456316947937	
19	117.22435593605042	movie	1		243	17.0	2.5	/experiments/AOT/AOT_stimuli/rescaled_final/2041_rv.mp4	0.0	205.87281608581543	2.499863862991333
19	118.40784502029419	pulse	1	t		17.0	2.5	/experiments/AOT/AOT_stimuli/rescaled_final/2041_rv.mp4	0.0	207.0563051700592	
19	119.72421979904175	fix_post	2		12	17.0	2.5	/experiments/AOT/AOT_stimuli/rescaled_final/2041_rv.mp4	0.0	208.37267994880676	0.1000511646270752
20	119.82427096366882	fix_pre	0		120	18.0	2.5	/experiments/AOT/AOT_stimuli/rescaled_final/0020_rv.mp4	0.0	208.47273111343384	0.9999618530273438
20	120.00776100158691	pulse	0	t		18.0	2.5	/experiments/AOT/AOT_stimuli/rescaled_final/0020_rv.mp4	0.0	208.65622115135193	
20	120.82423281669617	movie	1		244	18.0	2.5	/experiments/AOT/AOT_stimuli/rescaled_final/0020_rv.mp4	0.0	209.47269296646118	2.500070095062256
20	121.60784196853638	pulse	1	t		18.0	2.5	/experiments/AOT/AOT_stimuli/rescaled_final/0020_rv.mp4	0.0	210.2563021183014	
20	123.20630383491516	pulse	1	t		18.0	2.5	/experiments/AOT/AOT_stimuli/rescaled_final/0020_rv.mp4	0.0	211.85476398468018	
20	123.32430291175842	fix_post	2		12	18.0	2.5	/experiments/AOT/AOT_stimuli/rescaled_final/0020_rv.mp4	0.0	211.97276306152344	0.09989190101623535
21	123.42419481277466	fix_pre	0		120	19.0	2.5	/experiments/AOT/AOT_stimuli/rescaled_final/0624_rv.mp4	0.0	212.07265496253967	1.000054121017456
21	124.42424893379211	movie	1		243	19.0	2.5	/experiments/AOT/AOT_stimuli/rescaled_final/0624_rv.mp4	0.0	213.07270908355713	2.4999680519104004
21	124.80756783485413	pulse	1	t		19.0	2.5	/experiments/AOT/AOT_stimuli/rescaled_final/0624_rv.mp4	0.0	213.45602798461914	
21	126.40776681900024	pulse	1	t		19.0	2.5	/experiments/AOT/AOT_stimuli/rescaled_final/0624_rv.mp4	0.0	215.05622696876526	
21	126.92421698570251	fix_post	2		12	19.0	2.5	/experiments/AOT/AOT_stimuli/rescaled_final/0624_rv.mp4	0.0	215.57267713546753	0.10003995895385742
22	127.02425694465637	fix_pre	0		119	20.0	2.5	blank	1.0	215.6727170944214	0.9916620254516602
22	128.00774502754211	pulse	0	t		20.0	2.5	blank	1.0	216.65620517730713	
22	128.01591897010803	movie	1		301	20.0	2.5	blank	1.0	216.66437911987305	2.508342981338501
22	129.60788893699646	pulse	1	t		20.0	2.5	blank	1.0	218.25634908676147	
22	130.52426195144653	fix_post	2		12	20.0	2.5	blank	1.0	219.17272210121155	0.0999300479888916
23	130.62419199943542	fix_pre	0		120	21.0	2.5	/experiments/AOT/AOT_stimuli/rescaled_final/0793_fw.mp4	0.0	219.27265214920044	1.000046968460083
23	131.20772886276245	pulse	0	t		21.0	2.5	/experiments/AOT/AOT_stimuli/rescaled_final/0793_fw.mp4	0.0	219.85618901252747	
23	131.6242389678955	movie	1		245	21.0	2.5	/experiments/AOT/AOT_stimuli/rescaled_final/0793_fw.mp4	0.0	220.27269911766052	2.499932050704956
23	132.80776691436768	pulse	1	t		21.0	2.5	/experiments/AOT/AOT_stimuli/rescaled_final/0793_fw.mp4	0.0	221.4562270641327	
23	134.12417101860046	fix_post	2		12	21.0	2.5	/experiments/AOT/AOT_stimuli/rescaled_final/0793_fw.mp4	0.0	222.77263116836548	0.10015177726745605
24	134.22432279586792	fix_pre	0		120	22.0	2.5	/experiments/AOT/AOT_stimuli/rescaled_final/0192_rv.mp4	0.0	222.87278294563293	0.9998672008514404
24	134.4078299999237	pulse	0	t		22.0	2.5	/experiments/AOT/AOT_stimuli/rescaled_final/0192_rv.mp4	0.0	223.05629014968872	
24	135.22418999671936	movie	1		247	22.0	2.5	/experiments/AOT/AOT_stimuli/rescaled_final/0192_rv.mp4	0.0	223.87265014648438	2.4999849796295166
24	136.00801396369934	pulse	1	t		22.0	2.5	/experiments/AOT/AOT_stimuli/rescaled_final/0192_rv.mp4	0.0	224.65647411346436	
24	137.6072587966919	pulse	1	t		22.0	2.5	/experiments/AOT/AOT_stimuli/rescaled_final/0192_rv.mp4	0.0	226.2557189464569	
24	137.72417497634888	fix_post	2		12	22.0	2.5	/experiments/AOT/AOT_stimuli/rescaled_final/0192_rv.mp4	0.0	226.3726351261139	0.10005497932434082
25	137.82422995567322	fix_pre	0		120	23.0	2.5	/experiments/AOT/AOT_stimuli/rescaled_final/0807_fw.mp4	0.0	226.47269010543823	1.0000169277191162
25	138.82424688339233	movie	1		242	23.0	2.5	/experiments/AOT/AOT_stimuli/rescaled_final/0807_fw.mp4	0.0	227.47270703315735	2.500035047531128
25	139.20755290985107	pulse	1	t		23.0	2.5	/experiments/AOT/AOT_stimuli/rescaled_final/0807_fw.mp4	0.0	227.8560130596161	
25	140.80795979499817	pulse	1	t		23.0	2.5	/experiments/AOT/AOT_stimuli/rescaled_final/0807_fw.mp4	0.0	229.45641994476318	
25	141.32428193092346	fix_post	2		12	23.0	2.5	/experiments/AOT/AOT_stimuli/rescaled_final/0807_fw.mp4	0.0	229.97274208068848	0.09993386268615723
26	141.42421579360962	fix_pre	0		119	24.0	2.5	/experiments/AOT/AOT_stimuli/rescaled_final/1422_fw.mp4	0.0	230.07267594337463	0.9916841983795166
26	142.40768694877625	pulse	0	t		24.0	2.5	/experiments/AOT/AOT_stimuli/rescaled_final/1422_fw.mp4	0.0	231.05614709854126	
26	142.41589999198914	movie	1		247	24.0	2.5	/experiments/AOT/AOT_stimuli/rescaled_final/1422_fw.mp4	0.0	231.06436014175415	2.508227825164795
26	144.0073459148407	pulse	1	t		24.0	2.5	/experiments/AOT/AOT_stimuli/rescaled_final/1422_fw.mp4	0.0	232.6558060646057	
26	144.92412781715393	fix_post	2		12	24.0	2.5	/experiments/AOT/AOT_stimuli/rescaled_final/1422_fw.mp4	0.0	233.57258796691895	0.09963703155517578
27	145.0237648487091	fix_pre	0		120	25.0	2.5	/experiments/AOT/AOT_stimuli/rescaled_final/0150_fw.mp4	0.0	233.67222499847412	1.0003540515899658
27	145.6076648235321	pulse	0	t		25.0	2.5	/experiments/AOT/AOT_stimuli/rescaled_final/0150_fw.mp4	0.0	234.25612497329712	
27	146.02411890029907	movie	1		242	25.0	2.5	/experiments/AOT/AOT_stimuli/rescaled_final/0150_fw.mp4	0.0	234.6725790500641	2.499666929244995
27	147.2076380252838	pulse	1	t		25.0	2.5	/experiments/AOT/AOT_stimuli/rescaled_final/0150_fw.mp4	0.0	235.85609817504883	
27	148.52378582954407	fix_post	2		12	25.0	2.5	/experiments/AOT/AOT_stimuli/rescaled_final/0150_fw.mp4	0.0	237.17224597930908	0.10035920143127441
28	148.62414503097534	fix_pre	0		120	26.0	2.5	/experiments/AOT/AOT_stimuli/rescaled_final/0506_rv.mp4	0.0	237.27260518074036	1.0000419616699219
28	148.80759191513062	pulse	0	t		26.0	2.5	/experiments/AOT/AOT_stimuli/rescaled_final/0506_rv.mp4	0.0	237.45605206489563	
28	149.62418699264526	movie	1		244	26.0	2.5	/experiments/AOT/AOT_stimuli/rescaled_final/0506_rv.mp4	0.0	238.27264714241028	2.500088930130005
28	150.407616853714	pulse	1	t		26.0	2.5	/experiments/AOT/AOT_stimuli/rescaled_final/0506_rv.mp4	0.0	239.056077003479	
28	152.00671291351318	pulse	1	t		26.0	2.5	/experiments/AOT/AOT_stimuli/rescaled_final/0506_rv.mp4	0.0	240.6551730632782	
28	152.12427592277527	fix_post	2		12	26.0	2.5	/experiments/AOT/AOT_stimuli/rescaled_final/0506_rv.mp4	0.0	240.77273607254028	0.09987592697143555
29	152.2241518497467	fix_pre	0		120	27.0	2.5	blank	1.0	240.87261199951172	0.9996590614318848
29	153.2238109111786	movie	1		300	27.0	2.5	blank	1.0	241.8722710609436	2.5003299713134766
29	153.6077048778534	pulse	1	t		27.0	2.5	blank	1.0	242.2561650276184	
29	155.2074568271637	pulse	1	t		27.0	2.5	blank	1.0	243.8559169769287	
29	155.72414088249207	fix_post	2		12	27.0	2.5	blank	1.0	244.37260103225708	0.09993791580200195
30	155.82407879829407	fix_pre	0		119	28.0	2.5	/experiments/AOT/AOT_stimuli/rescaled_final/0503_rv.mp4	0.0	244.47253894805908	0.9916491508483887
30	156.80763387680054	pulse	0	t		28.0	2.5	/experiments/AOT/AOT_stimuli/rescaled_final/0503_rv.mp4	0.0	245.45609402656555	
30	156.81572794914246	movie	1		245	28.0	2.5	/experiments/AOT/AOT_stimuli/rescaled_final/0503_rv.mp4	0.0	245.46418809890747	2.5083770751953125
30	158.40717387199402	pulse	1	t		28.0	2.5	/experiments/AOT/AOT_stimuli/rescaled_final/0503_rv.mp4	0.0	247.05563402175903	
30	159.32410502433777	fix_post	2		12	28.0	2.5	/experiments/AOT/AOT_stimuli/rescaled_final/0503_rv.mp4	0.0	247.97256517410278	0.09998393058776855
31	159.42408895492554	fix_pre	0		120	29.0	2.5	/experiments/AOT/AOT_stimuli/rescaled_final/1237_fw.mp4	0.0	248.07254910469055	1.0000579357147217
31	160.00764298439026	pulse	0	t		29.0	2.5	/experiments/AOT/AOT_stimuli/rescaled_final/1237_fw.mp4	0.0	248.65610313415527	
31	160.42414689064026	movie	1		243	29.0	2.5	/experiments/AOT/AOT_stimuli/rescaled_final/1237_fw.mp4	0.0	249.07260704040527	2.4999499320983887
31	161.60768389701843	pulse	1	t		29.0	2.5	/experiments/AOT/AOT_stimuli/rescaled_final/1237_fw.mp4	0.0	250.25614404678345	
31	162.92409682273865	fix_post	2		12	29.0	2.5	/experiments/AOT/AOT_stimuli/rescaled_final/1237_fw.mp4	0.0	251.57255697250366	0.09999299049377441
32	163.02408981323242	fix_pre	0		120	30.0	2.5	/experiments/AOT/AOT_stimuli/rescaled_final/2132_rv.mp4	0.0	251.67254996299744	0.9999420642852783
32	163.20753693580627	pulse	0	t		30.0	2.5	/experiments/AOT/AOT_stimuli/rescaled_final/2132_rv.mp4	0.0	251.8559970855713	
32	164.0240318775177	movie	1		243	30.0	2.5	/experiments/AOT/AOT_stimuli/rescaled_final/2132_rv.mp4	0.0	252.67249202728271	2.5000951290130615
32	164.8076889514923	pulse	1	t		30.0	2.5	/experiments/AOT/AOT_stimuli/rescaled_final/2132_rv.mp4	0.0	253.45614910125732	
32	166.40620684623718	pulse	1	t		30.0	2.5	/experiments/AOT/AOT_stimuli/rescaled_final/2132_rv.mp4	0.0	255.0546669960022	
32	166.52412700653076	fix_post	2		12	30.0	2.5	/experiments/AOT/AOT_stimuli/rescaled_final/2132_rv.mp4	0.0	255.17258715629578	0.0998837947845459
33	166.6240108013153	fix_pre	0		120	31.0	2.5	/experiments/AOT/AOT_stimuli/rescaled_final/0516_fw.mp4	0.0	255.27247095108032	0.9997000694274902
33	167.6237108707428	movie	1		244	31.0	2.5	/experiments/AOT/AOT_stimuli/rescaled_final/0516_fw.mp4	0.0	256.2721710205078	2.5005710124969482
33	168.00827598571777	pulse	1	t		31.0	2.5	/experiments/AOT/AOT_stimuli/rescaled_final/0516_fw.mp4	0.0	256.6567361354828	
33	169.60732889175415	pulse	1	t		31.0	2.5	/experiments/AOT/AOT_stimuli/rescaled_final/0516_fw.mp4	0.0	258.25578904151917	
33	170.12428188323975	fix_post	2		12	31.0	2.5	/experiments/AOT/AOT_stimuli/rescaled_final/0516_fw.mp4	0.0	258.77274203300476	0.100067138671875
34	170.22434902191162	fix_pre	0		119	32.0	2.5	/experiments/AOT/AOT_stimuli/rescaled_final/1968_fw.mp4	0.0	258.87280917167664	0.9914028644561768
34	171.20753502845764	pulse	0	t		32.0	2.5	/experiments/AOT/AOT_stimuli/rescaled_final/1968_fw.mp4	0.0	259.85599517822266	
34	171.2157518863678	movie	1		245	32.0	2.5	/experiments/AOT/AOT_stimuli/rescaled_final/1968_fw.mp4	0.0	259.8642120361328	2.508302927017212
34	172.8078269958496	pulse	1	t		32.0	2.5	/experiments/AOT/AOT_stimuli/rescaled_final/1968_fw.mp4	0.0	261.4562871456146	
34	173.724054813385	fix_post	2		12	32.0	2.5	/experiments/AOT/AOT_stimuli/rescaled_final/1968_fw.mp4	0.0	262.37251496315	0.09999418258666992
35	173.82404899597168	fix_pre	0		120	33.0	2.5	/experiments/AOT/AOT_stimuli/rescaled_final/1101_rv.mp4	0.0	262.4725091457367	1.0000269412994385
35	174.4075059890747	pulse	0	t		33.0	2.5	/experiments/AOT/AOT_stimuli/rescaled_final/1101_rv.mp4	0.0	263.0559661388397	
35	174.82407593727112	movie	1		245	33.0	2.5	/experiments/AOT/AOT_stimuli/rescaled_final/1101_rv.mp4	0.0	263.47253608703613	2.499980926513672
35	176.00753784179688	pulse	1	t		33.0	2.5	/experiments/AOT/AOT_stimuli/rescaled_final/1101_rv.mp4	0.0	264.6559979915619	
35	177.3240568637848	fix_post	2		12	33.0	2.5	/experiments/AOT/AOT_stimuli/rescaled_final/1101_rv.mp4	0.0	265.9725170135498	0.09992003440856934
36	177.42397689819336	fix_pre	0		120	34.0	2.5	blank	1.0	266.0724370479584	0.9999780654907227
36	177.6075038909912	pulse	0	t		34.0	2.5	blank	1.0	266.2559640407562	
36	178.42395496368408	movie	1		300	34.0	2.5	blank	1.0	267.0724151134491	2.4999709129333496
36	179.2075068950653	pulse	1	t		34.0	2.5	blank	1.0	267.8559670448303	
36	180.80744886398315	pulse	1	t		34.0	2.5	blank	1.0	269.45590901374817	
36	180.92392587661743	fix_post	2		12	34.0	2.5	blank	1.0	269.57238602638245	0.10002899169921875
37	181.02395486831665	fix_pre	0		120	35.0	2.5	/experiments/AOT/AOT_stimuli/rescaled_final/1101_fw.mp4	0.0	269.67241501808167	0.9999780654907227
37	182.02393293380737	movie	1		242	35.0	2.5	/experiments/AOT/AOT_stimuli/rescaled_final/1101_fw.mp4	0.0	270.6723930835724	2.500088930130005
37	182.4086618423462	pulse	1	t		35.0	2.5	/experiments/AOT/AOT_stimuli/rescaled_final/1101_fw.mp4	0.0	271.0571219921112	
37	184.00739097595215	pulse	1	t		35.0	2.5	/experiments/AOT/AOT_stimuli/rescaled_final/1101_fw.mp4	0.0	272.65585112571716	
37	184.52402186393738	fix_post	2		12	35.0	2.5	/experiments/AOT/AOT_stimuli/rescaled_final/1101_fw.mp4	0.0	273.1724820137024	0.09989309310913086
38	184.6239149570465	fix_pre	0		119	36.0	2.5	/experiments/AOT/AOT_stimuli/rescaled_final/1869_fw.mp4	0.0	273.2723751068115	0.9917490482330322
38	185.60751080513	pulse	0	t		36.0	2.5	/experiments/AOT/AOT_stimuli/rescaled_final/1869_fw.mp4	0.0	274.255970954895	
38	185.61566400527954	movie	1		244	36.0	2.5	/experiments/AOT/AOT_stimuli/rescaled_final/1869_fw.mp4	0.0	274.26412415504456	2.5082459449768066
38	187.2071340084076	pulse	1	t		36.0	2.5	/experiments/AOT/AOT_stimuli/rescaled_final/1869_fw.mp4	0.0	275.8555941581726	
38	188.12390995025635	fix_post	2		12	36.0	2.5	/experiments/AOT/AOT_stimuli/rescaled_final/1869_fw.mp4	0.0	276.77237010002136	0.10007500648498535
39	188.22398495674133	fix_pre	0		120	37.0	2.5	/experiments/AOT/AOT_stimuli/rescaled_final/1612_fw.mp4	0.0	276.87244510650635	0.9995958805084229
39	188.80748891830444	pulse	0	t		37.0	2.5	/experiments/AOT/AOT_stimuli/rescaled_final/1612_fw.mp4	0.0	277.45594906806946	
39	189.22358083724976	movie	1		244	37.0	2.5	/experiments/AOT/AOT_stimuli/rescaled_final/1612_fw.mp4	0.0	277.87204098701477	2.500308036804199
39	190.40751600265503	pulse	1	t		37.0	2.5	/experiments/AOT/AOT_stimuli/rescaled_final/1612_fw.mp4	0.0	279.05597615242004	
39	191.72388887405396	fix_post	2		12	37.0	2.5	/experiments/AOT/AOT_stimuli/rescaled_final/1612_fw.mp4	0.0	280.37234902381897	0.09996914863586426
40	191.82385802268982	fix_pre	0		120	38.0	2.5	/experiments/AOT/AOT_stimuli/rescaled_final/1079_fw.mp4	0.0	280.47231817245483	1.0000948905944824
40	192.00740694999695	pulse	0	t		38.0	2.5	/experiments/AOT/AOT_stimuli/rescaled_final/1079_fw.mp4	0.0	280.65586709976196	
40	192.8239529132843	movie	1		243	38.0	2.5	/experiments/AOT/AOT_stimuli/rescaled_final/1079_fw.mp4	0.0	281.4724130630493	2.5000689029693604
40	193.60748481750488	pulse	1	t		38.0	2.5	/experiments/AOT/AOT_stimuli/rescaled_final/1079_fw.mp4	0.0	282.2559449672699	
40	195.20593190193176	pulse	1	t		38.0	2.5	/experiments/AOT/AOT_stimuli/rescaled_final/1079_fw.mp4	0.0	283.8543920516968	
40	195.32402181625366	fix_post	2		12	38.0	2.5	/experiments/AOT/AOT_stimuli/rescaled_final/1079_fw.mp4	0.0	283.9724819660187	0.09995818138122559
41	195.4239799976349	fix_pre	0		120	39.0	2.5	/experiments/AOT/AOT_stimuli/rescaled_final/1472_rv.mp4	0.0	284.0724401473999	0.9999878406524658
41	196.42396783828735	movie	1		244	39.0	2.5	/experiments/AOT/AOT_stimuli/rescaled_final/1472_rv.mp4	0.0	285.07242798805237	2.4994890689849854
41	196.80775785446167	pulse	1	t		39.0	2.5	/experiments/AOT/AOT_stimuli/rescaled_final/1472_rv.mp4	0.0	285.4562180042267	
41	198.40733981132507	pulse	1	t		39.0	2.5	/experiments/AOT/AOT_stimuli/rescaled_final/1472_rv.mp4	0.0	287.0557999610901	
41	198.92345690727234	fix_post	2		12	39.0	2.5	/experiments/AOT/AOT_stimuli/rescaled_final/1472_rv.mp4	0.0	287.57191705703735	0.10039091110229492
42	199.02384781837463	fix_pre	0		119	40.0	2.5	/experiments/AOT/AOT_stimuli/rescaled_final/1620_rv.mp4	0.0	287.67230796813965	0.9917640686035156
42	200.00745582580566	pulse	0	t		40.0	2.5	/experiments/AOT/AOT_stimuli/rescaled_final/1620_rv.mp4	0.0	288.6559159755707	
42	200.01561188697815	movie	1		247	40.0	2.5	/experiments/AOT/AOT_stimuli/rescaled_final/1620_rv.mp4	0.0	288.66407203674316	2.5082759857177734
42	201.6071138381958	pulse	1	t		40.0	2.5	/experiments/AOT/AOT_stimuli/rescaled_final/1620_rv.mp4	0.0	290.2555739879608	
42	202.52388787269592	fix_post	2		12	40.0	2.5	/experiments/AOT/AOT_stimuli/rescaled_final/1620_rv.mp4	0.0	291.17234802246094	0.09959101676940918
43	202.62347888946533	fix_pre	0		120	41.0	2.5	blank	1.0	291.27193903923035	1.0004570484161377
43	203.20738887786865	pulse	0	t		41.0	2.5	blank	1.0	291.85584902763367	
43	203.62393593788147	movie	1		300	41.0	2.5	blank	1.0	292.2723960876465	2.499937057495117
43	204.80745387077332	pulse	1	t		41.0	2.5	blank	1.0	293.45591402053833	
43	206.1238729953766	fix_post	2		12	41.0	2.5	blank	1.0	294.7723331451416	0.09959888458251953
44	206.2234718799591	fix_pre	0		120	42.0	2.5	/experiments/AOT/AOT_stimuli/rescaled_final/0866_rv.mp4	0.0	294.8719320297241	1.0003819465637207
44	206.407390832901	pulse	0	t		42.0	2.5	/experiments/AOT/AOT_stimuli/rescaled_final/0866_rv.mp4	0.0	295.055850982666	
44	207.22385382652283	movie	1		244	42.0	2.5	/experiments/AOT/AOT_stimuli/rescaled_final/0866_rv.mp4	0.0	295.87231397628784	2.499572992324829
44	208.00742483139038	pulse	1	t		42.0	2.5	/experiments/AOT/AOT_stimuli/rescaled_final/0866_rv.mp4	0.0	296.6558849811554	
44	209.60579299926758	pulse	1	t		42.0	2.5	/experiments/AOT/AOT_stimuli/rescaled_final/0866_rv.mp4	0.0	298.2542531490326	
44	209.72342681884766	fix_post	2		12	42.0	2.5	/experiments/AOT/AOT_stimuli/rescaled_final/0866_rv.mp4	0.0	298.37188696861267	0.10040807723999023
45	209.82383489608765	fix_pre	0		120	43.0	2.5	/experiments/AOT/AOT_stimuli/rescaled_final/1945_fw.mp4	0.0	298.47229504585266	0.9999959468841553
45	210.8238308429718	movie	1		244	43.0	2.5	/experiments/AOT/AOT_stimuli/rescaled_final/1945_fw.mp4	0.0	299.4722909927368	2.499955177307129
45	211.20688486099243	pulse	1	t		43.0	2.5	/experiments/AOT/AOT_stimuli/rescaled_final/1945_fw.mp4	0.0	299.85534501075745	
45	212.80727887153625	pulse	1	t		43.0	2.5	/experiments/AOT/AOT_stimuli/rescaled_final/1945_fw.mp4	0.0	301.45573902130127	
45	213.32378602027893	fix_post	2		12	43.0	2.5	/experiments/AOT/AOT_stimuli/rescaled_final/1945_fw.mp4	0.0	301.97224617004395	0.10010600090026855
46	213.4238920211792	fix_pre	0		119	44.0	2.5	/experiments/AOT/AOT_stimuli/rescaled_final/1895_fw.mp4	0.0	302.0723521709442	0.9916198253631592
46	214.40733695030212	pulse	0	t		44.0	2.5	/experiments/AOT/AOT_stimuli/rescaled_final/1895_fw.mp4	0.0	303.05579710006714	
46	214.41551184654236	movie	1		246	44.0	2.5	/experiments/AOT/AOT_stimuli/rescaled_final/1895_fw.mp4	0.0	303.0639719963074	2.5082321166992188
46	216.0069649219513	pulse	1	t		44.0	2.5	/experiments/AOT/AOT_stimuli/rescaled_final/1895_fw.mp4	0.0	304.6554250717163	
46	216.92374396324158	fix_post	2		12	44.0	2.5	/experiments/AOT/AOT_stimuli/rescaled_final/1895_fw.mp4	0.0	305.5722041130066	0.10009503364562988
47	217.0238389968872	fix_pre	0		120	45.0	2.5	/experiments/AOT/AOT_stimuli/rescaled_final/0739_rv.mp4	0.0	305.6722991466522	1.000011920928955
47	217.60734295845032	pulse	0	t		45.0	2.5	/experiments/AOT/AOT_stimuli/rescaled_final/0739_rv.mp4	0.0	306.25580310821533	
47	218.02385091781616	movie	1		244	45.0	2.5	/experiments/AOT/AOT_stimuli/rescaled_final/0739_rv.mp4	0.0	306.6723110675812	2.4999160766601562
47	219.20738291740417	pulse	1	t		45.0	2.5	/experiments/AOT/AOT_stimuli/rescaled_final/0739_rv.mp4	0.0	307.8558430671692	
47	220.52376699447632	fix_post	2		12	45.0	2.5	/experiments/AOT/AOT_stimuli/rescaled_final/0739_rv.mp4	0.0	309.17222714424133	0.10003900527954102
48	220.62380599975586	fix_pre	0		120	46.0	2.5	/experiments/AOT/AOT_stimuli/rescaled_final/1669_rv.mp4	0.0	309.2722661495209	0.9999778270721436
48	220.80728197097778	pulse	0	t		46.0	2.5	/experiments/AOT/AOT_stimuli/rescaled_final/1669_rv.mp4	0.0	309.4557421207428	
48	221.623783826828	movie	1		246	46.0	2.5	/experiments/AOT/AOT_stimuli/rescaled_final/1669_rv.mp4	0.0	310.272243976593	2.499610185623169
48	222.40739583969116	pulse	1	t		46.0	2.5	/experiments/AOT/AOT_stimuli/rescaled_final/1669_rv.mp4	0.0	311.0558559894562	
48	224.00544500350952	pulse	1	t		46.0	2.5	/experiments/AOT/AOT_stimuli/rescaled_final/1669_rv.mp4	0.0	312.65390515327454	
48	224.12339401245117	fix_post	2		12	46.0	2.5	/experiments/AOT/AOT_stimuli/rescaled_final/1669_rv.mp4	0.0	312.7718541622162	0.1000678539276123
49	224.22346186637878	fix_pre	0		120	47.0	2.5	/experiments/AOT/AOT_stimuli/rescaled_final/0297_rv.mp4	0.0	312.8719220161438	1.0004360675811768
49	225.22389793395996	movie	1		244	47.0	2.5	/experiments/AOT/AOT_stimuli/rescaled_final/0297_rv.mp4	0.0	313.872358083725	2.4999189376831055
49	225.60664892196655	pulse	1	t		47.0	2.5	/experiments/AOT/AOT_stimuli/rescaled_final/0297_rv.mp4	0.0	314.25510907173157	
49	227.20721292495728	pulse	1	t		47.0	2.5	/experiments/AOT/AOT_stimuli/rescaled_final/0297_rv.mp4	0.0	315.8556730747223	
49	227.72381687164307	fix_post	2		12	47.0	2.5	/experiments/AOT/AOT_stimuli/rescaled_final/0297_rv.mp4	0.0	316.3722770214081	0.09999608993530273
50	227.82381296157837	fix_pre	0		119	48.0	2.5	/experiments/AOT/AOT_stimuli/rescaled_final/1992_fw.mp4	0.0	316.4722731113434	0.9915890693664551
50	228.8072350025177	pulse	0	t		48.0	2.5	/experiments/AOT/AOT_stimuli/rescaled_final/1992_fw.mp4	0.0	317.4556951522827	
50	228.81540203094482	movie	1		246	48.0	2.5	/experiments/AOT/AOT_stimuli/rescaled_final/1992_fw.mp4	0.0	317.46386218070984	2.507964849472046
50	230.40682697296143	pulse	1	t		48.0	2.5	/experiments/AOT/AOT_stimuli/rescaled_final/1992_fw.mp4	0.0	319.05528712272644	
50	231.32336688041687	fix_post	2		12	48.0	2.5	/experiments/AOT/AOT_stimuli/rescaled_final/1992_fw.mp4	0.0	319.9718270301819	0.1003870964050293
51	231.4237539768219	fix_pre	0		120	49.0	2.5	blank	1.0	320.0722141265869	0.9999580383300781
51	232.00718188285828	pulse	0	t		49.0	2.5	blank	1.0	320.6556420326233	
51	232.42371201515198	movie	1		300	49.0	2.5	blank	1.0	321.072172164917	2.4995949268341064
51	233.60718894004822	pulse	1	t		49.0	2.5	blank	1.0	322.25564908981323	
51	234.92330694198608	fix_post	2		12	49.0	2.5	blank	1.0	323.5717670917511	0.10042285919189453
52	235.02372980117798	fix_pre	0		120	50.0	2.5	/experiments/AOT/AOT_stimuli/rescaled_final/0289_fw.mp4	0.0	323.672189950943	0.999946117401123
52	235.20721793174744	pulse	0	t		50.0	2.5	/experiments/AOT/AOT_stimuli/rescaled_final/0289_fw.mp4	0.0	323.85567808151245	
52	236.0236759185791	movie	1		245	50.0	2.5	/experiments/AOT/AOT_stimuli/rescaled_final/0289_fw.mp4	0.0	324.6721360683441	2.500011920928955
52	236.80724382400513	pulse	1	t		50.0	2.5	/experiments/AOT/AOT_stimuli/rescaled_final/0289_fw.mp4	0.0	325.45570397377014	
52	238.40325379371643	pulse	1	t		50.0	2.5	/experiments/AOT/AOT_stimuli/rescaled_final/0289_fw.mp4	0.0	327.05171394348145	
52	238.52368783950806	fix_post	2		12	50.0	2.5	/experiments/AOT/AOT_stimuli/rescaled_final/0289_fw.mp4	0.0	327.17214798927307	0.09993696212768555
53	238.62362480163574	fix_pre	0		120	51.0	2.5	/experiments/AOT/AOT_stimuli/rescaled_final/0940_rv.mp4	0.0	327.27208495140076	1.0000791549682617
53	239.623703956604	movie	1		244	51.0	2.5	/experiments/AOT/AOT_stimuli/rescaled_final/0940_rv.mp4	0.0	328.272164106369	2.499626874923706
53	240.00856399536133	pulse	1	t		51.0	2.5	/experiments/AOT/AOT_stimuli/rescaled_final/0940_rv.mp4	0.0	328.65702414512634	
53	241.6072449684143	pulse	1	t		51.0	2.5	/experiments/AOT/AOT_stimuli/rescaled_final/0940_rv.mp4	0.0	330.2557051181793	
53	242.1233308315277	fix_post	2		12	51.0	2.5	/experiments/AOT/AOT_stimuli/rescaled_final/0940_rv.mp4	0.0	330.7717909812927	0.10038208961486816
54	242.22371292114258	fix_pre	0		119	52.0	2.5	/experiments/AOT/AOT_stimuli/rescaled_final/2097_fw.mp4	0.0	330.8721730709076	0.9916648864746094
54	243.2072558403015	pulse	0	t		52.0	2.5	/experiments/AOT/AOT_stimuli/rescaled_final/2097_fw.mp4	0.0	331.8557159900665	
54	243.2153778076172	movie	1		246	52.0	2.5	/experiments/AOT/AOT_stimuli/rescaled_final/2097_fw.mp4	0.0	331.8638379573822	2.5083401203155518
54	244.8069088459015	pulse	1	t		52.0	2.5	/experiments/AOT/AOT_stimuli/rescaled_final/2097_fw.mp4	0.0	333.4553689956665	
54	245.72371792793274	fix_post	2		12	52.0	2.5	/experiments/AOT/AOT_stimuli/rescaled_final/2097_fw.mp4	0.0	334.37217807769775	0.09995603561401367
55	245.82367396354675	fix_pre	0		120	53.0	2.5	/experiments/AOT/AOT_stimuli/rescaled_final/0153_fw.mp4	0.0	334.47213411331177	1.0000100135803223
55	246.40723395347595	pulse	0	t		53.0	2.5	/experiments/AOT/AOT_stimuli/rescaled_final/0153_fw.mp4	0.0	335.05569410324097	
55	246.82368397712708	movie	1		244	53.0	2.5	/experiments/AOT/AOT_stimuli/rescaled_final/0153_fw.mp4	0.0	335.4721441268921	2.5000078678131104
55	248.00725483894348	pulse	1	t		53.0	2.5	/experiments/AOT/AOT_stimuli/rescaled_final/0153_fw.mp4	0.0	336.6557149887085	
55	249.32369184494019	fix_post	2		12	53.0	2.5	/experiments/AOT/AOT_stimuli/rescaled_final/0153_fw.mp4	0.0	337.9721519947052	0.09995818138122559
56	249.4236500263214	fix_pre	0		120	54.0	2.5	/experiments/AOT/AOT_stimuli/rescaled_final/1878_fw.mp4	0.0	338.0721101760864	0.9995458126068115
56	249.60721588134766	pulse	0	t		54.0	2.5	/experiments/AOT/AOT_stimuli/rescaled_final/1878_fw.mp4	0.0	338.25567603111267	
56	250.42319583892822	movie	1		245	54.0	2.5	/experiments/AOT/AOT_stimuli/rescaled_final/1878_fw.mp4	0.0	339.07165598869324	2.500452995300293
56	251.20722103118896	pulse	1	t		54.0	2.5	/experiments/AOT/AOT_stimuli/rescaled_final/1878_fw.mp4	0.0	339.855681180954	
56	252.80327892303467	pulse	1	t		54.0	2.5	/experiments/AOT/AOT_stimuli/rescaled_final/1878_fw.mp4	0.0	341.4517390727997	
56	252.92364883422852	fix_post	2		12	54.0	2.5	/experiments/AOT/AOT_stimuli/rescaled_final/1878_fw.mp4	0.0	341.57210898399353	0.09995412826538086
57	253.0236029624939	fix_pre	0		120	55.0	2.5	/experiments/AOT/AOT_stimuli/rescaled_final/1437_rv.mp4	0.0	341.6720631122589	1.0000050067901611
57	254.02360796928406	movie	1		244	55.0	2.5	/experiments/AOT/AOT_stimuli/rescaled_final/1437_rv.mp4	0.0	342.6720681190491	2.5000159740448
57	254.4072139263153	pulse	1	t		55.0	2.5	/experiments/AOT/AOT_stimuli/rescaled_final/1437_rv.mp4	0.0	343.0556740760803	
57	256.00715684890747	pulse	1	t		55.0	2.5	/experiments/AOT/AOT_stimuli/rescaled_final/1437_rv.mp4	0.0	344.6556169986725	
57	256.52362394332886	fix_post	2		12	55.0	2.5	/experiments/AOT/AOT_stimuli/rescaled_final/1437_rv.mp4	0.0	345.1720840930939	0.10001087188720703
58	256.62363481521606	fix_pre	0		119	56.0	2.5	blank	1.0	345.2720949649811	0.9916541576385498
58	257.60712695121765	pulse	0	t		56.0	2.5	blank	1.0	346.25558710098267	
58	257.6152889728546	movie	1		301	56.0	2.5	blank	1.0	346.26374912261963	2.508291006088257
58	259.20706486701965	pulse	1	t		56.0	2.5	blank	1.0	347.85552501678467	
58	260.12357997894287	fix_post	2		12	56.0	2.5	blank	1.0	348.7720401287079	0.09961795806884766
59	260.2231979370117	fix_pre	0		120	57.0	2.5	/experiments/AOT/AOT_stimuli/rescaled_final/0246_rv.mp4	0.0	348.87165808677673	1.0003490447998047
59	260.80713391304016	pulse	0	t		57.0	2.5	/experiments/AOT/AOT_stimuli/rescaled_final/0246_rv.mp4	0.0	349.4555940628052	
59	261.2235469818115	movie	1		246	57.0	2.5	/experiments/AOT/AOT_stimuli/rescaled_final/0246_rv.mp4	0.0	349.87200713157654	2.500013828277588
59	262.40716195106506	pulse	1	t		57.0	2.5	/experiments/AOT/AOT_stimuli/rescaled_final/0246_rv.mp4	0.0	351.0556221008301	
59	263.7235608100891	fix_post	2		12	57.0	2.5	/experiments/AOT/AOT_stimuli/rescaled_final/0246_rv.mp4	0.0	352.3720209598541	0.09999513626098633
60	263.8235559463501	fix_pre	0		120	58.0	2.5	/experiments/AOT/AOT_stimuli/rescaled_final/0540_rv.mp4	0.0	352.4720160961151	1.0000600814819336
60	264.0071678161621	pulse	0	t		58.0	2.5	/experiments/AOT/AOT_stimuli/rescaled_final/0540_rv.mp4	0.0	352.6556279659271	
60	264.82361602783203	movie	1		247	58.0	2.5	/experiments/AOT/AOT_stimuli/rescaled_final/0540_rv.mp4	0.0	353.47207617759705	2.4995439052581787
60	265.60705184936523	pulse	1	t		58.0	2.5	/experiments/AOT/AOT_stimuli/rescaled_final/0540_rv.mp4	0.0	354.25551199913025	
60	267.2071039676666	pulse	1	t		58.0	2.5	/experiments/AOT/AOT_stimuli/rescaled_final/0540_rv.mp4	0.0	355.85556411743164	
60	267.3231599330902	fix_post	2		12	58.0	2.5	/experiments/AOT/AOT_stimuli/rescaled_final/0540_rv.mp4	0.0	355.9716200828552	0.10039806365966797
61	267.4235579967499	fix_pre	0		120	59.0	2.5	/experiments/AOT/AOT_stimuli/rescaled_final/0312_fw.mp4	0.0	356.0720181465149	0.9996209144592285
61	268.4231789112091	movie	1		243	59.0	2.5	/experiments/AOT/AOT_stimuli/rescaled_final/0312_fw.mp4	0.0	357.0716390609741	2.499912977218628
61	268.8073019981384	pulse	1	t		59.0	2.5	/experiments/AOT/AOT_stimuli/rescaled_final/0312_fw.mp4	0.0	357.45576214790344	
61	270.4071478843689	pulse	1	t		59.0	2.5	/experiments/AOT/AOT_stimuli/rescaled_final/0312_fw.mp4	0.0	359.0556080341339	
61	270.92309188842773	fix_post	2		12	59.0	2.5	/experiments/AOT/AOT_stimuli/rescaled_final/0312_fw.mp4	0.0	359.57155203819275	0.10049891471862793
62	271.02359080314636	fix_pre	0		119	60.0	2.5	/experiments/AOT/AOT_stimuli/rescaled_final/0107_rv.mp4	0.0	359.6720509529114	0.9915750026702881
62	272.0070469379425	pulse	0	t		60.0	2.5	/experiments/AOT/AOT_stimuli/rescaled_final/0107_rv.mp4	0.0	360.6555070877075	
62	272.01516580581665	movie	1		247	60.0	2.5	/experiments/AOT/AOT_stimuli/rescaled_final/0107_rv.mp4	0.0	360.66362595558167	2.5083580017089844
62	273.60828590393066	pulse	1	t		60.0	2.5	/experiments/AOT/AOT_stimuli/rescaled_final/0107_rv.mp4	0.0	362.2567460536957	
62	274.52352380752563	fix_post	2		12	60.0	2.5	/experiments/AOT/AOT_stimuli/rescaled_final/0107_rv.mp4	0.0	363.17198395729065	0.10001301765441895
63	274.62353682518005	fix_pre	0		120	61.0	2.5	/experiments/AOT/AOT_stimuli/rescaled_final/0721_fw.mp4	0.0	363.27199697494507	1.0000851154327393
63	275.20702385902405	pulse	0	t		61.0	2.5	/experiments/AOT/AOT_stimuli/rescaled_final/0721_fw.mp4	0.0	363.85548400878906	
63	275.6236219406128	movie	1		245	61.0	2.5	/experiments/AOT/AOT_stimuli/rescaled_final/0721_fw.mp4	0.0	364.2720820903778	2.4998619556427
63	276.80703592300415	pulse	1	t		61.0	2.5	/experiments/AOT/AOT_stimuli/rescaled_final/0721_fw.mp4	0.0	365.45549607276917	
63	278.1234838962555	fix_post	2		12	61.0	2.5	/experiments/AOT/AOT_stimuli/rescaled_final/0721_fw.mp4	0.0	366.7719440460205	0.1000521183013916
64	278.2235360145569	fix_pre	0		120	62.0	2.5	blank	1.0	366.8719961643219	0.999971866607666
64	278.4070518016815	pulse	0	t		62.0	2.5	blank	1.0	367.05551195144653	
64	279.22350788116455	movie	1		300	62.0	2.5	blank	1.0	367.87196803092957	2.499833106994629
64	280.0066318511963	pulse	1	t		62.0	2.5	blank	1.0	368.6550920009613	
64	281.6067159175873	pulse	1	t		62.0	2.5	blank	1.0	370.2551760673523	
64	281.7233409881592	fix_post	2		12	62.0	2.5	blank	1.0	370.3718011379242	0.10000991821289062
65	281.82335090637207	fix_pre	0		120	63.0	2.5	/experiments/AOT/AOT_stimuli/rescaled_final/2091_fw.mp4	0.0	370.4718110561371	1.0001919269561768
65	282.82354283332825	movie	1		246	63.0	2.5	/experiments/AOT/AOT_stimuli/rescaled_final/2091_fw.mp4	0.0	371.47200298309326	2.4998960494995117
65	283.20653796195984	pulse	1	t		63.0	2.5	/experiments/AOT/AOT_stimuli/rescaled_final/2091_fw.mp4	0.0	371.85499811172485	
65	284.807030916214	pulse	1	t		63.0	2.5	/experiments/AOT/AOT_stimuli/rescaled_final/2091_fw.mp4	0.0	373.455491065979	
65	285.32343888282776	fix_post	2		12	63.0	2.5	/experiments/AOT/AOT_stimuli/rescaled_final/2091_fw.mp4	0.0	373.9718990325928	0.10012507438659668
66	285.42356395721436	fix_pre	0		119	64.0	2.5	/experiments/AOT/AOT_stimuli/rescaled_final/0266_fw.mp4	0.0	374.07202410697937	0.9916808605194092
66	286.4069848060608	pulse	0	t		64.0	2.5	/experiments/AOT/AOT_stimuli/rescaled_final/0266_fw.mp4	0.0	375.0554449558258	
66	286.41524481773376	movie	1		247	64.0	2.5	/experiments/AOT/AOT_stimuli/rescaled_final/0266_fw.mp4	0.0	375.0637049674988	2.508280038833618
66	288.00811195373535	pulse	1	t		64.0	2.5	/experiments/AOT/AOT_stimuli/rescaled_final/0266_fw.mp4	0.0	376.65657210350037	
66	288.9235248565674	fix_post	2		12	64.0	2.5	/experiments/AOT/AOT_stimuli/rescaled_final/0266_fw.mp4	0.0	377.5719850063324	0.09992814064025879
67	289.02345299720764	fix_pre	0		120	65.0	2.5	/experiments/AOT/AOT_stimuli/rescaled_final/1314_fw.mp4	0.0	377.67191314697266	1.000074863433838
67	289.6069779396057	pulse	0	t		65.0	2.5	/experiments/AOT/AOT_stimuli/rescaled_final/1314_fw.mp4	0.0	378.2554380893707	
67	290.0235278606415	movie	1		245	65.0	2.5	/experiments/AOT/AOT_stimuli/rescaled_final/1314_fw.mp4	0.0	378.6719880104065	2.499890089035034
67	291.206974029541	pulse	1	t		65.0	2.5	/experiments/AOT/AOT_stimuli/rescaled_final/1314_fw.mp4	0.0	379.85543417930603	
67	292.5234179496765	fix_post	2		12	65.0	2.5	/experiments/AOT/AOT_stimuli/rescaled_final/1314_fw.mp4	0.0	381.1718780994415	0.10014486312866211
68	292.6235628128052	fix_pre	0		120	66.0	2.5	/experiments/AOT/AOT_stimuli/rescaled_final/0509_rv.mp4	0.0	381.2720229625702	0.9998891353607178
68	292.80696392059326	pulse	0	t		66.0	2.5	/experiments/AOT/AOT_stimuli/rescaled_final/0509_rv.mp4	0.0	381.4554240703583	
68	293.6234519481659	movie	1		248	66.0	2.5	/experiments/AOT/AOT_stimuli/rescaled_final/0509_rv.mp4	0.0	382.2719120979309	2.49953293800354
68	294.4069149494171	pulse	1	t		66.0	2.5	/experiments/AOT/AOT_stimuli/rescaled_final/0509_rv.mp4	0.0	383.05537509918213	
68	296.0065248012543	pulse	1	t		66.0	2.5	/experiments/AOT/AOT_stimuli/rescaled_final/0509_rv.mp4	0.0	384.6549849510193	
68	296.12298488616943	fix_post	2		12	66.0	2.5	/experiments/AOT/AOT_stimuli/rescaled_final/0509_rv.mp4	0.0	384.77144503593445	0.10042309761047363
69	296.2234079837799	fix_pre	0		120	67.0	2.5	/experiments/AOT/AOT_stimuli/rescaled_final/1483_rv.mp4	0.0	384.8718681335449	1.0000360012054443
69	297.22344398498535	movie	1		243	67.0	2.5	/experiments/AOT/AOT_stimuli/rescaled_final/1483_rv.mp4	0.0	385.87190413475037	2.4995439052581787
69	297.606645822525	pulse	1	t		67.0	2.5	/experiments/AOT/AOT_stimuli/rescaled_final/1483_rv.mp4	0.0	386.25510597229004	
69	299.2069478034973	pulse	1	t		67.0	2.5	/experiments/AOT/AOT_stimuli/rescaled_final/1483_rv.mp4	0.0	387.85540795326233	
69	299.72298789024353	fix_post	2		12	67.0	2.5	/experiments/AOT/AOT_stimuli/rescaled_final/1483_rv.mp4	0.0	388.37144804000854	0.10042500495910645
70	299.82341289520264	fix_pre	0		119	68.0	2.5	/experiments/AOT/AOT_stimuli/rescaled_final/1538_fw.mp4	0.0	388.47187304496765	0.9916419982910156
70	300.806902885437	pulse	0	t		68.0	2.5	/experiments/AOT/AOT_stimuli/rescaled_final/1538_fw.mp4	0.0	389.455363035202	
70	300.81505489349365	movie	1		244	68.0	2.5	/experiments/AOT/AOT_stimuli/rescaled_final/1538_fw.mp4	0.0	389.46351504325867	2.508302927017212
70	302.406445980072	pulse	1	t		68.0	2.5	/experiments/AOT/AOT_stimuli/rescaled_final/1538_fw.mp4	0.0	391.05490612983704	
70	303.32335782051086	fix_post	2		12	68.0	2.5	/experiments/AOT/AOT_stimuli/rescaled_final/1538_fw.mp4	0.0	391.9718179702759	0.09997200965881348
71	303.4233298301697	fix_pre	0		120	69.0	2.5	/experiments/AOT/AOT_stimuli/rescaled_final/1032_fw.mp4	0.0	392.0717899799347	1.0001261234283447
71	304.0069417953491	pulse	0	t		69.0	2.5	/experiments/AOT/AOT_stimuli/rescaled_final/1032_fw.mp4	0.0	392.65540194511414	
71	304.423455953598	movie	1		243	69.0	2.5	/experiments/AOT/AOT_stimuli/rescaled_final/1032_fw.mp4	0.0	393.07191610336304	2.4994750022888184
71	305.6069710254669	pulse	1	t		69.0	2.5	/experiments/AOT/AOT_stimuli/rescaled_final/1032_fw.mp4	0.0	394.25543117523193	
71	306.92293095588684	fix_post	2		12	69.0	2.5	/experiments/AOT/AOT_stimuli/rescaled_final/1032_fw.mp4	0.0	395.57139110565186	0.10045504570007324
72	307.0233860015869	fix_pre	0		120	70.0	2.5	blank	1.0	395.67184615135193	0.99993896484375
72	307.20695090293884	pulse	0	t		70.0	2.5	blank	1.0	395.85541105270386	
72	308.02332496643066	movie	1		300	70.0	2.5	blank	1.0	396.6717851161957	2.500030994415283
72	308.80685091018677	pulse	1	t		70.0	2.5	blank	1.0	397.4553110599518	
72	310.4067687988281	pulse	1	t		70.0	2.5	blank	1.0	399.05522894859314	
72	310.52335596084595	fix_post	2		12	70.0	2.5	blank	1.0	399.17181611061096	0.10000300407409668
73	310.62335896492004	fix_pre	0		120	71.0	2.5	/experiments/AOT/AOT_stimuli/rescaled_final/1499_rv.mp4	0.0	399.27181911468506	0.999971866607666
73	311.6233308315277	movie	1		245	71.0	2.5	/experiments/AOT/AOT_stimuli/rescaled_final/1499_rv.mp4	0.0	400.2717909812927	2.499988079071045
73	312.00644183158875	pulse	1	t		71.0	2.5	/experiments/AOT/AOT_stimuli/rescaled_final/1499_rv.mp4	0.0	400.65490198135376	
73	313.6068778038025	pulse	1	t		71.0	2.5	/experiments/AOT/AOT_stimuli/rescaled_final/1499_rv.mp4	0.0	402.2553379535675	
73	314.12331891059875	fix_post	2		12	71.0	2.5	/experiments/AOT/AOT_stimuli/rescaled_final/1499_rv.mp4	0.0	402.77177906036377	0.10009288787841797
74	314.2234117984772	fix_pre	0		119	72.0	2.5	/experiments/AOT/AOT_stimuli/rescaled_final/2091_rv.mp4	0.0	402.8718719482422	0.9916419982910156
74	315.20680689811707	pulse	0	t		72.0	2.5	/experiments/AOT/AOT_stimuli/rescaled_final/2091_rv.mp4	0.0	403.8552670478821	
74	315.2150537967682	movie	1		247	72.0	2.5	/experiments/AOT/AOT_stimuli/rescaled_final/2091_rv.mp4	0.0	403.8635139465332	2.5082931518554688
74	316.80674386024475	pulse	1	t		72.0	2.5	/experiments/AOT/AOT_stimuli/rescaled_final/2091_rv.mp4	0.0	405.45520401000977	
74	317.72334694862366	fix_post	2		12	72.0	2.5	/experiments/AOT/AOT_stimuli/rescaled_final/2091_rv.mp4	0.0	406.3718070983887	0.10003089904785156
75	317.8233778476715	fix_pre	0		120	73.0	2.5	/experiments/AOT/AOT_stimuli/rescaled_final/0308_fw.mp4	0.0	406.4718379974365	1.0000059604644775
75	318.4068260192871	pulse	0	t		73.0	2.5	/experiments/AOT/AOT_stimuli/rescaled_final/0308_fw.mp4	0.0	407.0552861690521	
75	318.823383808136	movie	1		244	73.0	2.5	/experiments/AOT/AOT_stimuli/rescaled_final/0308_fw.mp4	0.0	407.471843957901	2.4998931884765625
75	320.00688791275024	pulse	1	t		73.0	2.5	/experiments/AOT/AOT_stimuli/rescaled_final/0308_fw.mp4	0.0	408.65534806251526	
75	321.32327699661255	fix_post	2		12	73.0	2.5	/experiments/AOT/AOT_stimuli/rescaled_final/0308_fw.mp4	0.0	409.97173714637756	0.10004281997680664
76	321.42331981658936	fix_pre	0		120	74.0	2.5	/experiments/AOT/AOT_stimuli/rescaled_final/1032_rv.mp4	0.0	410.07177996635437	1.0000290870666504
76	321.60687494277954	pulse	0	t		74.0	2.5	/experiments/AOT/AOT_stimuli/rescaled_final/1032_rv.mp4	0.0	410.25533509254456	
76	322.423348903656	movie	1		243	74.0	2.5	/experiments/AOT/AOT_stimuli/rescaled_final/1032_rv.mp4	0.0	411.071809053421	2.4998769760131836
76	323.2068648338318	pulse	1	t		74.0	2.5	/experiments/AOT/AOT_stimuli/rescaled_final/1032_rv.mp4	0.0	411.8553249835968	
76	324.80518889427185	pulse	1	t		74.0	2.5	/experiments/AOT/AOT_stimuli/rescaled_final/1032_rv.mp4	0.0	413.45364904403687	
76	324.9232258796692	fix_post	2		12	74.0	2.5	/experiments/AOT/AOT_stimuli/rescaled_final/1032_rv.mp4	0.0	413.5716860294342	0.10004591941833496
77	325.0232717990875	fix_pre	0		120	75.0	2.5	blank	1.0	413.67173194885254	0.9999871253967285
77	326.02325892448425	movie	1		300	75.0	2.5	blank	1.0	414.67171907424927	2.4999840259552
77	326.40677094459534	pulse	1	t		75.0	2.5	blank	1.0	415.05523109436035	
77	328.0067238807678	pulse	1	t		75.0	2.5	blank	1.0	416.65518403053284	
77	328.52324295043945	fix_post	2		12	75.0	2.5	blank	1.0	417.17170310020447	0.10001993179321289
78	328.62326288223267	fix_pre	0		119	76.0	2.5	/experiments/AOT/AOT_stimuli/rescaled_final/2114_rv.mp4	0.0	417.2717230319977	0.991718053817749
78	329.6067838668823	pulse	0	t		76.0	2.5	/experiments/AOT/AOT_stimuli/rescaled_final/2114_rv.mp4	0.0	418.25524401664734	
78	329.6149809360504	movie	1		245	76.0	2.5	/experiments/AOT/AOT_stimuli/rescaled_final/2114_rv.mp4	0.0	418.26344108581543	2.5082390308380127
78	331.20643281936646	pulse	1	t		76.0	2.5	/experiments/AOT/AOT_stimuli/rescaled_final/2114_rv.mp4	0.0	419.85489296913147	
78	332.1232199668884	fix_post	2		12	76.0	2.5	/experiments/AOT/AOT_stimuli/rescaled_final/2114_rv.mp4	0.0	420.77168011665344	0.1000058650970459
79	332.2232258319855	fix_pre	0		120	77.0	2.5	/experiments/AOT/AOT_stimuli/rescaled_final/2012_fw.mp4	0.0	420.8716859817505	1.0000669956207275
79	332.8067388534546	pulse	0	t		77.0	2.5	/experiments/AOT/AOT_stimuli/rescaled_final/2012_fw.mp4	0.0	421.4551990032196	
79	333.2232928276062	movie	1		247	77.0	2.5	/experiments/AOT/AOT_stimuli/rescaled_final/2012_fw.mp4	0.0	421.8717529773712	2.499567985534668
79	334.4068109989166	pulse	1	t		77.0	2.5	/experiments/AOT/AOT_stimuli/rescaled_final/2012_fw.mp4	0.0	423.05527114868164	
79	335.72286081314087	fix_post	2		12	77.0	2.5	/experiments/AOT/AOT_stimuli/rescaled_final/2012_fw.mp4	0.0	424.3713209629059	0.1000361442565918
80	335.82289695739746	fix_pre	0		120	78.0	2.5	/experiments/AOT/AOT_stimuli/rescaled_final/0902_rv.mp4	0.0	424.4713571071625	1.0004289150238037
80	336.0063920021057	pulse	0	t		78.0	2.5	/experiments/AOT/AOT_stimuli/rescaled_final/0902_rv.mp4	0.0	424.6548521518707	
80	336.82332587242126	movie	1		248	78.0	2.5	/experiments/AOT/AOT_stimuli/rescaled_final/0902_rv.mp4	0.0	425.4717860221863	2.49992299079895
80	337.60649394989014	pulse	1	t		78.0	2.5	/experiments/AOT/AOT_stimuli/rescaled_final/0902_rv.mp4	0.0	426.25495409965515	
80	339.20633482933044	pulse	1	t		78.0	2.5	/experiments/AOT/AOT_stimuli/rescaled_final/0902_rv.mp4	0.0	427.85479497909546	
80	339.3232488632202	fix_post	2		12	78.0	2.5	/experiments/AOT/AOT_stimuli/rescaled_final/0902_rv.mp4	0.0	427.97170901298523	0.09998106956481934
81	339.42322993278503	fix_pre	0		120	79.0	2.5	/experiments/AOT/AOT_stimuli/rescaled_final/1084_fw.mp4	0.0	428.07169008255005	0.9999899864196777
81	340.4232199192047	movie	1		246	79.0	2.5	/experiments/AOT/AOT_stimuli/rescaled_final/1084_fw.mp4	0.0	429.0716800689697	2.4999520778656006
81	340.8075089454651	pulse	1	t		79.0	2.5	/experiments/AOT/AOT_stimuli/rescaled_final/1084_fw.mp4	0.0	429.4559690952301	
81	342.40669679641724	pulse	1	t		79.0	2.5	/experiments/AOT/AOT_stimuli/rescaled_final/1084_fw.mp4	0.0	431.05515694618225	
81	342.9231719970703	fix_post	2		12	79.0	2.5	/experiments/AOT/AOT_stimuli/rescaled_final/1084_fw.mp4	0.0	431.5716321468353	0.10000801086425781
82	343.02318000793457	fix_pre	0		119	80.0	2.5	/experiments/AOT/AOT_stimuli/rescaled_final/1374_rv.mp4	0.0	431.6716401576996	0.9916279315948486
82	344.0066819190979	pulse	0	t		80.0	2.5	/experiments/AOT/AOT_stimuli/rescaled_final/1374_rv.mp4	0.0	432.6551420688629	
82	344.0148079395294	movie	1		245	80.0	2.5	/experiments/AOT/AOT_stimuli/rescaled_final/1374_rv.mp4	0.0	432.66326808929443	2.5084340572357178
82	345.6078658103943	pulse	1	t		80.0	2.5	/experiments/AOT/AOT_stimuli/rescaled_final/1374_rv.mp4	0.0	434.2563259601593	
82	346.52324199676514	fix_post	2		12	80.0	2.5	/experiments/AOT/AOT_stimuli/rescaled_final/1374_rv.mp4	0.0	435.17170214653015	0.1000218391418457
83	346.623263835907	fix_pre	0		120	81.0	2.5	/experiments/AOT/AOT_stimuli/rescaled_final/1602_rv.mp4	0.0	435.271723985672	0.9999129772186279
83	347.20665287971497	pulse	0	t		81.0	2.5	/experiments/AOT/AOT_stimuli/rescaled_final/1602_rv.mp4	0.0	435.85511302948	
83	347.6231768131256	movie	1		243	81.0	2.5	/experiments/AOT/AOT_stimuli/rescaled_final/1602_rv.mp4	0.0	436.2716369628906	2.4995980262756348
83	348.8067328929901	pulse	1	t		81.0	2.5	/experiments/AOT/AOT_stimuli/rescaled_final/1602_rv.mp4	0.0	437.4551930427551	
83	350.12277483940125	fix_post	2		12	81.0	2.5	/experiments/AOT/AOT_stimuli/rescaled_final/1602_rv.mp4	0.0	438.77123498916626	0.10033512115478516
84	350.22310996055603	fix_pre	0		120	82.0	2.5	blank	1.0	438.87157011032104	1.0000829696655273
84	350.4066379070282	pulse	0	t		82.0	2.5	blank	1.0	439.0550980567932	
84	351.22319293022156	movie	1		300	82.0	2.5	blank	1.0	439.8716530799866	2.4999399185180664
84	352.0066339969635	pulse	1	t		82.0	2.5	blank	1.0	440.6550941467285	
84	353.60669684410095	pulse	1	t		82.0	2.5	blank	1.0	442.25515699386597	
84	353.7231328487396	fix_post	2		12	82.0	2.5	blank	1.0	442.37159299850464	0.0997459888458252
85	353.82287883758545	fix_pre	0		120	83.0	2.5	/experiments/AOT/AOT_stimuli/rescaled_final/0949_rv.mp4	0.0	442.47133898735046	1.0003180503845215
85	354.82319688796997	movie	1		246	83.0	2.5	/experiments/AOT/AOT_stimuli/rescaled_final/0949_rv.mp4	0.0	443.471657037735	2.499516010284424
85	355.2063059806824	pulse	1	t		83.0	2.5	/experiments/AOT/AOT_stimuli/rescaled_final/0949_rv.mp4	0.0	443.8547661304474	
85	356.80663990974426	pulse	1	t		83.0	2.5	/experiments/AOT/AOT_stimuli/rescaled_final/0949_rv.mp4	0.0	445.4551000595093	
85	357.3227128982544	fix_post	2		12	83.0	2.5	/experiments/AOT/AOT_stimuli/rescaled_final/0949_rv.mp4	0.0	445.9711730480194	0.10038304328918457
87	357.4230959415436	stim	0		1716					446.0715560913086	14.300085067749023
87	358.40666580200195	pulse	0	t						447.05512595176697	
87	360.00657391548157	pulse	0	t						448.6550340652466	
87	361.60658288002014	pulse	0	t						450.25504302978516	
87	363.20662784576416	pulse	0	t						451.8550879955292	
87	364.80663800239563	pulse	0	t						453.45509815216064	
87	366.40660095214844	pulse	0	t						455.05506110191345	
87	368.0065748691559	pulse	0	t						456.6550350189209	
87	369.60657596588135	pulse	0	t						458.25503611564636	
87	371.2065098285675	pulse	0	t						459.8549699783325	
