trial_nr	onset	event_type	phase	response	nr_frames	movie_index	movie_duration	movie_file	blank	onset_abs	duration
0	0.20813703536987305	stim	0		999					25.697682857513428	8.334656000137329
0	8.53459906578064	response	0	space						34.024144887924194	
1	8.542793035507202	stim	0		4940					34.03233885765076	41.185893058776855
1	49.71343517303467	pulse	0	t						75.20298099517822	
1	49.72868609428406	stim	1		1715					75.21823191642761	14.297395944595337
1	51.29933214187622	pulse	1	t						76.78887796401978	
1	52.899537086486816	pulse	1	t						78.38908290863037	
1	54.49970507621765	pulse	1	t						79.9892508983612	
1	56.10008001327515	pulse	1	t						81.5896258354187	
1	57.700210094451904	pulse	1	t						83.18975591659546	
1	59.30050206184387	pulse	1	t						84.79004788398743	
1	60.90074610710144	pulse	1	t						86.390291929245	
1	62.501057147979736	pulse	1	t						87.99060297012329	
2	64.0260820388794	fix_pre	0		10	0.0	2.5	/experiments/knapen_AOT/AOT_stimuli/rescaled_final/0497_rv.mp4	0.0	89.51562786102295	0.11667704582214355
2	64.10122919082642	pulse	0	t		0.0	2.5	/experiments/knapen_AOT/AOT_stimuli/rescaled_final/0497_rv.mp4	0.0	89.59077501296997	
2	64.14275908470154	movie	1		239	0.0	2.5	/experiments/knapen_AOT/AOT_stimuli/rescaled_final/0497_rv.mp4	0.0	89.63230490684509	2.4752869606018066
2	65.7020001411438	pulse	1	t		0.0	2.5	/experiments/knapen_AOT/AOT_stimuli/rescaled_final/0497_rv.mp4	0.0	91.19154596328735	
2	66.61804604530334	fix_post	2		12	0.0	2.5	/experiments/knapen_AOT/AOT_stimuli/rescaled_final/0497_rv.mp4	0.0	92.1075918674469	0.09999513626098633
3	66.71804118156433	fix_pre	0		120	1.0	2.5	/experiments/knapen_AOT/AOT_stimuli/rescaled_final/1115_fw.mp4	0.0	92.20758700370789	1.0001888275146484
3	67.30174612998962	pulse	0	t		1.0	2.5	/experiments/knapen_AOT/AOT_stimuli/rescaled_final/1115_fw.mp4	0.0	92.79129195213318	
3	67.71823000907898	movie	1		243	1.0	2.5	/experiments/knapen_AOT/AOT_stimuli/rescaled_final/1115_fw.mp4	0.0	93.20777583122253	2.500357151031494
3	68.90201616287231	pulse	1	t		1.0	2.5	/experiments/knapen_AOT/AOT_stimuli/rescaled_final/1115_fw.mp4	0.0	94.39156198501587	
3	70.21858716011047	fix_post	2		12	1.0	2.5	/experiments/knapen_AOT/AOT_stimuli/rescaled_final/1115_fw.mp4	0.0	95.70813298225403	0.10006999969482422
4	70.3186571598053	fix_pre	0		120	2.0	2.5	/experiments/knapen_AOT/AOT_stimuli/rescaled_final/0220_fw.mp4	0.0	95.80820298194885	1.0001170635223389
4	70.50215816497803	pulse	0	t		2.0	2.5	/experiments/knapen_AOT/AOT_stimuli/rescaled_final/0220_fw.mp4	0.0	95.99170398712158	
4	71.31877422332764	movie	1		244	2.0	2.5	/experiments/knapen_AOT/AOT_stimuli/rescaled_final/0220_fw.mp4	0.0	96.80832004547119	2.5003418922424316
4	72.1024022102356	pulse	1	t		2.0	2.5	/experiments/knapen_AOT/AOT_stimuli/rescaled_final/0220_fw.mp4	0.0	97.59194803237915	
4	73.70257210731506	pulse	1	t		2.0	2.5	/experiments/knapen_AOT/AOT_stimuli/rescaled_final/0220_fw.mp4	0.0	99.19211792945862	
4	73.81911611557007	fix_post	2		12	2.0	2.5	/experiments/knapen_AOT/AOT_stimuli/rescaled_final/0220_fw.mp4	0.0	99.30866193771362	0.1000359058380127
5	73.91915202140808	fix_pre	0		120	3.0	2.5	/experiments/knapen_AOT/AOT_stimuli/rescaled_final/0804_rv.mp4	0.0	99.40869784355164	1.0001440048217773
5	74.91929602622986	movie	1		243	3.0	2.5	/experiments/knapen_AOT/AOT_stimuli/rescaled_final/0804_rv.mp4	0.0	100.40884184837341	2.4920551776885986
5	75.3042140007019	pulse	1	t		3.0	2.5	/experiments/knapen_AOT/AOT_stimuli/rescaled_final/0804_rv.mp4	0.0	100.79375982284546	
5	76.9030830860138	pulse	1	t		3.0	2.5	/experiments/knapen_AOT/AOT_stimuli/rescaled_final/0804_rv.mp4	0.0	102.39262890815735	
5	77.41135120391846	fix_post	2		12	3.0	2.5	/experiments/knapen_AOT/AOT_stimuli/rescaled_final/0804_rv.mp4	0.0	102.90089702606201	0.10008382797241211
6	77.51143503189087	fix_pre	0		120	4.0	2.5	/experiments/knapen_AOT/AOT_stimuli/rescaled_final/1721_rv.mp4	0.0	103.00098085403442	1.0000560283660889
6	78.50328803062439	pulse	0	t		4.0	2.5	/experiments/knapen_AOT/AOT_stimuli/rescaled_final/1721_rv.mp4	0.0	103.99283385276794	
6	78.51149106025696	movie	1		244	4.0	2.5	/experiments/knapen_AOT/AOT_stimuli/rescaled_final/1721_rv.mp4	0.0	104.00103688240051	2.508721113204956
6	80.10763502120972	pulse	1	t		4.0	2.5	/experiments/knapen_AOT/AOT_stimuli/rescaled_final/1721_rv.mp4	0.0	105.59718084335327	
6	81.02021217346191	fix_post	2		12	4.0	2.5	/experiments/knapen_AOT/AOT_stimuli/rescaled_final/1721_rv.mp4	0.0	106.50975799560547	0.1004190444946289
7	81.12063121795654	fix_pre	0		120	5.0	2.5	blank	1.0	106.6101770401001	0.9997367858886719
7	81.7038881778717	pulse	0	t		5.0	2.5	blank	1.0	107.19343400001526	
7	82.12036800384521	movie	1		300	5.0	2.5	blank	1.0	107.60991382598877	2.500371217727661
7	83.30404210090637	pulse	1	t		5.0	2.5	blank	1.0	108.79358792304993	
7	84.62073922157288	fix_post	2		12	5.0	2.5	blank	1.0	110.11028504371643	0.1000528335571289
8	84.72079205513	fix_pre	0		120	6.0	2.5	/experiments/knapen_AOT/AOT_stimuli/rescaled_final/2118_rv.mp4	0.0	110.21033787727356	1.0001330375671387
8	84.9042592048645	pulse	0	t		6.0	2.5	/experiments/knapen_AOT/AOT_stimuli/rescaled_final/2118_rv.mp4	0.0	110.39380502700806	
8	85.72092509269714	movie	1		245	6.0	2.5	/experiments/knapen_AOT/AOT_stimuli/rescaled_final/2118_rv.mp4	0.0	111.2104709148407	2.5003509521484375
8	86.50462007522583	pulse	1	t		6.0	2.5	/experiments/knapen_AOT/AOT_stimuli/rescaled_final/2118_rv.mp4	0.0	111.99416589736938	
8	88.10490322113037	pulse	1	t		6.0	2.5	/experiments/knapen_AOT/AOT_stimuli/rescaled_final/2118_rv.mp4	0.0	113.59444904327393	
8	88.22127604484558	fix_post	2		12	6.0	2.5	/experiments/knapen_AOT/AOT_stimuli/rescaled_final/2118_rv.mp4	0.0	113.71082186698914	0.10004115104675293
9	88.32131719589233	fix_pre	0		119	7.0	2.5	/experiments/knapen_AOT/AOT_stimuli/rescaled_final/1107_rv.mp4	0.0	113.81086301803589	0.9917769432067871
9	89.31309413909912	movie	1		243	7.0	2.5	/experiments/knapen_AOT/AOT_stimuli/rescaled_final/1107_rv.mp4	0.0	114.80263996124268	2.5004119873046875
9	89.70512509346008	pulse	1	t		7.0	2.5	/experiments/knapen_AOT/AOT_stimuli/rescaled_final/1107_rv.mp4	0.0	115.19467091560364	
9	91.29788517951965	pulse	1	t		7.0	2.5	/experiments/knapen_AOT/AOT_stimuli/rescaled_final/1107_rv.mp4	0.0	116.78743100166321	
9	91.81350612640381	fix_post	2		12	7.0	2.5	/experiments/knapen_AOT/AOT_stimuli/rescaled_final/1107_rv.mp4	0.0	117.30305194854736	0.1000208854675293
10	91.91352701187134	fix_pre	0		120	8.0	2.5	/experiments/knapen_AOT/AOT_stimuli/rescaled_final/1149_rv.mp4	0.0	117.40307283401489	1.0001280307769775
10	92.89797520637512	pulse	0	t		8.0	2.5	/experiments/knapen_AOT/AOT_stimuli/rescaled_final/1149_rv.mp4	0.0	118.38752102851868	
10	92.91365504264832	movie	1		244	8.0	2.5	/experiments/knapen_AOT/AOT_stimuli/rescaled_final/1149_rv.mp4	0.0	118.40320086479187	2.508690118789673
10	94.50618100166321	pulse	1	t		8.0	2.5	/experiments/knapen_AOT/AOT_stimuli/rescaled_final/1149_rv.mp4	0.0	119.99572682380676	
10	95.42234516143799	fix_post	2		12	8.0	2.5	/experiments/knapen_AOT/AOT_stimuli/rescaled_final/1149_rv.mp4	0.0	120.91189098358154	0.10001897811889648
11	95.52236413955688	fix_pre	0		120	9.0	2.5	/experiments/knapen_AOT/AOT_stimuli/rescaled_final/0944_rv.mp4	0.0	121.01190996170044	1.000148057937622
11	96.09840607643127	pulse	0	t		9.0	2.5	/experiments/knapen_AOT/AOT_stimuli/rescaled_final/0944_rv.mp4	0.0	121.58795189857483	
11	96.5225121974945	movie	1		243	9.0	2.5	/experiments/knapen_AOT/AOT_stimuli/rescaled_final/0944_rv.mp4	0.0	122.01205801963806	2.500440835952759
11	97.69904398918152	pulse	1	t		9.0	2.5	/experiments/knapen_AOT/AOT_stimuli/rescaled_final/0944_rv.mp4	0.0	123.18858981132507	
11	99.02295303344727	fix_post	2		12	9.0	2.5	/experiments/knapen_AOT/AOT_stimuli/rescaled_final/0944_rv.mp4	0.0	124.51249885559082	0.09996318817138672
12	99.12291622161865	fix_pre	0		120	10.0	2.5	/experiments/knapen_AOT/AOT_stimuli/rescaled_final/2037_rv.mp4	0.0	124.6124620437622	1.0001487731933594
12	99.29805302619934	pulse	0	t		10.0	2.5	/experiments/knapen_AOT/AOT_stimuli/rescaled_final/2037_rv.mp4	0.0	124.7875988483429	
12	100.12306499481201	movie	1		244	10.0	2.5	/experiments/knapen_AOT/AOT_stimuli/rescaled_final/2037_rv.mp4	0.0	125.61261081695557	2.500357151031494
12	100.89831805229187	pulse	1	t		10.0	2.5	/experiments/knapen_AOT/AOT_stimuli/rescaled_final/2037_rv.mp4	0.0	126.38786387443542	
12	102.49872422218323	pulse	1	t		10.0	2.5	/experiments/knapen_AOT/AOT_stimuli/rescaled_final/2037_rv.mp4	0.0	127.98827004432678	
12	102.6234221458435	fix_post	2		12	10.0	2.5	/experiments/knapen_AOT/AOT_stimuli/rescaled_final/2037_rv.mp4	0.0	128.11296796798706	0.10002589225769043
13	102.7234480381012	fix_pre	0		119	11.0	2.5	/experiments/knapen_AOT/AOT_stimuli/rescaled_final/1596_rv.mp4	0.0	128.21299386024475	0.9918429851531982
13	103.7152910232544	movie	1		244	11.0	2.5	/experiments/knapen_AOT/AOT_stimuli/rescaled_final/1596_rv.mp4	0.0	129.20483684539795	2.5003740787506104
13	104.0992841720581	pulse	1	t		11.0	2.5	/experiments/knapen_AOT/AOT_stimuli/rescaled_final/1596_rv.mp4	0.0	129.58882999420166	
13	105.6991651058197	pulse	1	t		11.0	2.5	/experiments/knapen_AOT/AOT_stimuli/rescaled_final/1596_rv.mp4	0.0	131.18871092796326	
13	106.215665102005	fix_post	2		12	11.0	2.5	/experiments/knapen_AOT/AOT_stimuli/rescaled_final/1596_rv.mp4	0.0	131.70521092414856	0.1000070571899414
14	106.31567215919495	fix_pre	0		119	12.0	2.5	blank	1.0	131.8052179813385	0.991771936416626
14	107.29926705360413	pulse	0	t		12.0	2.5	blank	1.0	132.78881287574768	
14	107.30744409561157	movie	1		301	12.0	2.5	blank	1.0	132.79698991775513	2.508754014968872
14	108.89966320991516	pulse	1	t		12.0	2.5	blank	1.0	134.38920903205872	
14	109.81619811058044	fix_post	2		12	12.0	2.5	blank	1.0	135.305743932724	0.09997200965881348
15	109.91617012023926	fix_pre	0		120	13.0	2.5	/experiments/knapen_AOT/AOT_stimuli/rescaled_final/1512_rv.mp4	0.0	135.4057159423828	1.0001599788665771
15	110.4999451637268	pulse	0	t		13.0	2.5	/experiments/knapen_AOT/AOT_stimuli/rescaled_final/1512_rv.mp4	0.0	135.98949098587036	
15	110.91633009910583	movie	1		239	13.0	2.5	/experiments/knapen_AOT/AOT_stimuli/rescaled_final/1512_rv.mp4	0.0	136.4058759212494	2.5004189014434814
15	112.10022211074829	pulse	1	t		13.0	2.5	/experiments/knapen_AOT/AOT_stimuli/rescaled_final/1512_rv.mp4	0.0	137.58976793289185	
15	113.41674900054932	fix_post	2		12	13.0	2.5	/experiments/knapen_AOT/AOT_stimuli/rescaled_final/1512_rv.mp4	0.0	138.90629482269287	0.09996509552001953
16	113.51671409606934	fix_pre	0		120	14.0	2.5	/experiments/knapen_AOT/AOT_stimuli/rescaled_final/0563_fw.mp4	0.0	139.0062599182129	1.0001499652862549
16	113.70032000541687	pulse	0	t		14.0	2.5	/experiments/knapen_AOT/AOT_stimuli/rescaled_final/0563_fw.mp4	0.0	139.18986582756042	
16	114.51686406135559	movie	1		244	14.0	2.5	/experiments/knapen_AOT/AOT_stimuli/rescaled_final/0563_fw.mp4	0.0	140.00640988349915	2.5003881454467773
16	115.30049419403076	pulse	1	t		14.0	2.5	/experiments/knapen_AOT/AOT_stimuli/rescaled_final/0563_fw.mp4	0.0	140.79004001617432	
16	116.90070819854736	pulse	1	t		14.0	2.5	/experiments/knapen_AOT/AOT_stimuli/rescaled_final/0563_fw.mp4	0.0	142.39025402069092	
16	117.01725220680237	fix_post	2		11	14.0	2.5	/experiments/knapen_AOT/AOT_stimuli/rescaled_final/0563_fw.mp4	0.0	142.50679802894592	0.09171390533447266
17	117.10896611213684	fix_pre	0		120	15.0	2.5	/experiments/knapen_AOT/AOT_stimuli/rescaled_final/0008_fw.mp4	0.0	142.5985119342804	1.0001130104064941
17	118.10907912254333	movie	1		243	15.0	2.5	/experiments/knapen_AOT/AOT_stimuli/rescaled_final/0008_fw.mp4	0.0	143.5986249446869	2.5003650188446045
17	118.50110220909119	pulse	1	t		15.0	2.5	/experiments/knapen_AOT/AOT_stimuli/rescaled_final/0008_fw.mp4	0.0	143.99064803123474	
17	120.10122108459473	pulse	1	t		15.0	2.5	/experiments/knapen_AOT/AOT_stimuli/rescaled_final/0008_fw.mp4	0.0	145.59076690673828	
17	120.60944414138794	fix_post	2		12	15.0	2.5	/experiments/knapen_AOT/AOT_stimuli/rescaled_final/0008_fw.mp4	0.0	146.0989899635315	0.10010290145874023
18	120.70954704284668	fix_pre	0		120	16.0	2.5	/experiments/knapen_AOT/AOT_stimuli/rescaled_final/0120_fw.mp4	0.0	146.19909286499023	1.0000550746917725
18	121.70145416259766	pulse	0	t		16.0	2.5	/experiments/knapen_AOT/AOT_stimuli/rescaled_final/0120_fw.mp4	0.0	147.1909999847412	
18	121.70960211753845	movie	1		245	16.0	2.5	/experiments/knapen_AOT/AOT_stimuli/rescaled_final/0120_fw.mp4	0.0	147.199147939682	2.508744955062866
18	123.30200815200806	pulse	1	t		16.0	2.5	/experiments/knapen_AOT/AOT_stimuli/rescaled_final/0120_fw.mp4	0.0	148.7915539741516	
18	124.21834707260132	fix_post	2		12	16.0	2.5	/experiments/knapen_AOT/AOT_stimuli/rescaled_final/0120_fw.mp4	0.0	149.70789289474487	0.09998607635498047
19	124.3183331489563	fix_pre	0		120	17.0	2.5	/experiments/knapen_AOT/AOT_stimuli/rescaled_final/1982_fw.mp4	0.0	149.80787897109985	1.000154972076416
19	124.90207099914551	pulse	0	t		17.0	2.5	/experiments/knapen_AOT/AOT_stimuli/rescaled_final/1982_fw.mp4	0.0	150.39161682128906	
19	125.31848812103271	movie	1		244	17.0	2.5	/experiments/knapen_AOT/AOT_stimuli/rescaled_final/1982_fw.mp4	0.0	150.80803394317627	2.5004069805145264
19	126.50235509872437	pulse	1	t		17.0	2.5	/experiments/knapen_AOT/AOT_stimuli/rescaled_final/1982_fw.mp4	0.0	151.99190092086792	
19	127.81889510154724	fix_post	2		12	17.0	2.5	/experiments/knapen_AOT/AOT_stimuli/rescaled_final/1982_fw.mp4	0.0	153.3084409236908	0.10000991821289062
20	127.91890501976013	fix_pre	0		120	18.0	2.5	/experiments/knapen_AOT/AOT_stimuli/rescaled_final/0985_fw.mp4	0.0	153.4084508419037	1.000096082687378
20	128.10237503051758	pulse	0	t		18.0	2.5	/experiments/knapen_AOT/AOT_stimuli/rescaled_final/0985_fw.mp4	0.0	153.59192085266113	
20	128.9190011024475	movie	1		244	18.0	2.5	/experiments/knapen_AOT/AOT_stimuli/rescaled_final/0985_fw.mp4	0.0	154.40854692459106	2.5003790855407715
20	129.70267820358276	pulse	1	t		18.0	2.5	/experiments/knapen_AOT/AOT_stimuli/rescaled_final/0985_fw.mp4	0.0	155.19222402572632	
20	131.30289912223816	pulse	1	t		18.0	2.5	/experiments/knapen_AOT/AOT_stimuli/rescaled_final/0985_fw.mp4	0.0	156.7924449443817	
20	131.41938018798828	fix_post	2		12	18.0	2.5	/experiments/knapen_AOT/AOT_stimuli/rescaled_final/0985_fw.mp4	0.0	156.90892601013184	0.10004401206970215
21	131.51942420005798	fix_pre	0		119	19.0	2.5	/experiments/knapen_AOT/AOT_stimuli/rescaled_final/1051_rv.mp4	0.0	157.00897002220154	0.9917809963226318
21	132.51120519638062	movie	1		245	19.0	2.5	/experiments/knapen_AOT/AOT_stimuli/rescaled_final/1051_rv.mp4	0.0	158.00075101852417	2.5003650188446045
21	132.8989851474762	pulse	1	t		19.0	2.5	/experiments/knapen_AOT/AOT_stimuli/rescaled_final/1051_rv.mp4	0.0	158.38853096961975	
21	134.50336813926697	pulse	1	t		19.0	2.5	/experiments/knapen_AOT/AOT_stimuli/rescaled_final/1051_rv.mp4	0.0	159.99291396141052	
21	135.01157021522522	fix_post	2		12	19.0	2.5	/experiments/knapen_AOT/AOT_stimuli/rescaled_final/1051_rv.mp4	0.0	160.50111603736877	0.10008096694946289
22	135.11165118217468	fix_pre	0		120	20.0	2.5	/experiments/knapen_AOT/AOT_stimuli/rescaled_final/1366_rv.mp4	0.0	160.60119700431824	1.000121831893921
22	136.10361909866333	pulse	0	t		20.0	2.5	/experiments/knapen_AOT/AOT_stimuli/rescaled_final/1366_rv.mp4	0.0	161.59316492080688	
22	136.1117730140686	movie	1		247	20.0	2.5	/experiments/knapen_AOT/AOT_stimuli/rescaled_final/1366_rv.mp4	0.0	161.60131883621216	2.508687973022461
22	137.70775508880615	pulse	1	t		20.0	2.5	/experiments/knapen_AOT/AOT_stimuli/rescaled_final/1366_rv.mp4	0.0	163.1973009109497	
22	138.62046098709106	fix_post	2		12	20.0	2.5	/experiments/knapen_AOT/AOT_stimuli/rescaled_final/1366_rv.mp4	0.0	164.11000680923462	0.10001206398010254
23	138.72047305107117	fix_pre	0		120	21.0	2.5	blank	1.0	164.21001887321472	1.0001580715179443
23	139.30416321754456	pulse	0	t		21.0	2.5	blank	1.0	164.7937090396881	
23	139.7206311225891	movie	1		300	21.0	2.5	blank	1.0	165.21017694473267	2.5003790855407715
23	140.90431809425354	pulse	1	t		21.0	2.5	blank	1.0	166.3938639163971	
23	142.22101020812988	fix_post	2		12	21.0	2.5	blank	1.0	167.71055603027344	0.09999799728393555
24	142.32100820541382	fix_pre	0		120	22.0	2.5	/experiments/knapen_AOT/AOT_stimuli/rescaled_final/1287_rv.mp4	0.0	167.81055402755737	1.0001628398895264
24	142.5045940876007	pulse	0	t		22.0	2.5	/experiments/knapen_AOT/AOT_stimuli/rescaled_final/1287_rv.mp4	0.0	167.99413990974426	
24	143.32117104530334	movie	1		244	22.0	2.5	/experiments/knapen_AOT/AOT_stimuli/rescaled_final/1287_rv.mp4	0.0	168.8107168674469	2.5003840923309326
24	144.0973801612854	pulse	1	t		22.0	2.5	/experiments/knapen_AOT/AOT_stimuli/rescaled_final/1287_rv.mp4	0.0	169.58692598342896	
24	145.705087184906	pulse	1	t		22.0	2.5	/experiments/knapen_AOT/AOT_stimuli/rescaled_final/1287_rv.mp4	0.0	171.19463300704956	
24	145.82155513763428	fix_post	2		12	22.0	2.5	/experiments/knapen_AOT/AOT_stimuli/rescaled_final/1287_rv.mp4	0.0	171.31110095977783	0.1000509262084961
25	145.92160606384277	fix_pre	0		120	23.0	2.5	/experiments/knapen_AOT/AOT_stimuli/rescaled_final/1133_fw.mp4	0.0	171.41115188598633	1.0001881122589111
25	146.92179417610168	movie	1		243	23.0	2.5	/experiments/knapen_AOT/AOT_stimuli/rescaled_final/1133_fw.mp4	0.0	172.41133999824524	2.4919910430908203
25	147.3061170578003	pulse	1	t		23.0	2.5	/experiments/knapen_AOT/AOT_stimuli/rescaled_final/1133_fw.mp4	0.0	172.79566287994385	
25	148.89829802513123	pulse	1	t		23.0	2.5	/experiments/knapen_AOT/AOT_stimuli/rescaled_final/1133_fw.mp4	0.0	174.38784384727478	
25	149.4137852191925	fix_post	2		12	23.0	2.5	/experiments/knapen_AOT/AOT_stimuli/rescaled_final/1133_fw.mp4	0.0	174.90333104133606	0.10000395774841309
26	149.51378917694092	fix_pre	0		119	24.0	2.5	/experiments/knapen_AOT/AOT_stimuli/rescaled_final/1478_fw.mp4	0.0	175.00333499908447	0.9917609691619873
26	150.49753713607788	pulse	0	t		24.0	2.5	/experiments/knapen_AOT/AOT_stimuli/rescaled_final/1478_fw.mp4	0.0	175.98708295822144	
26	150.5055501461029	movie	1		246	24.0	2.5	/experiments/knapen_AOT/AOT_stimuli/rescaled_final/1478_fw.mp4	0.0	175.99509596824646	2.5087480545043945
26	152.09820699691772	pulse	1	t		24.0	2.5	/experiments/knapen_AOT/AOT_stimuli/rescaled_final/1478_fw.mp4	0.0	177.58775281906128	
26	153.0142982006073	fix_post	2		12	24.0	2.5	/experiments/knapen_AOT/AOT_stimuli/rescaled_final/1478_fw.mp4	0.0	178.50384402275085	0.10000181198120117
27	153.1143000125885	fix_pre	0		120	25.0	2.5	/experiments/knapen_AOT/AOT_stimuli/rescaled_final/0354_fw.mp4	0.0	178.60384583473206	1.000162124633789
27	153.69787216186523	pulse	0	t		25.0	2.5	/experiments/knapen_AOT/AOT_stimuli/rescaled_final/0354_fw.mp4	0.0	179.1874179840088	
27	154.1144621372223	movie	1		245	25.0	2.5	/experiments/knapen_AOT/AOT_stimuli/rescaled_final/0354_fw.mp4	0.0	179.60400795936584	2.5003888607025146
27	155.29822611808777	pulse	1	t		25.0	2.5	/experiments/knapen_AOT/AOT_stimuli/rescaled_final/0354_fw.mp4	0.0	180.78777194023132	
27	156.6148509979248	fix_post	2		12	25.0	2.5	/experiments/knapen_AOT/AOT_stimuli/rescaled_final/0354_fw.mp4	0.0	182.10439682006836	0.10000419616699219
28	156.7148551940918	fix_pre	0		120	26.0	2.5	blank	1.0	182.20440101623535	1.0001158714294434
28	156.89835119247437	pulse	0	t		26.0	2.5	blank	1.0	182.38789701461792	
28	157.71497106552124	movie	1		300	26.0	2.5	blank	1.0	183.2045168876648	2.5004401206970215
28	158.49865698814392	pulse	1	t		26.0	2.5	blank	1.0	183.98820281028748	
28	160.0988700389862	pulse	1	t		26.0	2.5	blank	1.0	185.58841586112976	
28	160.21541118621826	fix_post	2		12	26.0	2.5	blank	1.0	185.70495700836182	0.09998488426208496
29	160.31539607048035	fix_pre	0		120	27.0	2.5	/experiments/knapen_AOT/AOT_stimuli/rescaled_final/1919_fw.mp4	0.0	185.8049418926239	1.0002050399780273
29	161.31560111045837	movie	1		243	27.0	2.5	/experiments/knapen_AOT/AOT_stimuli/rescaled_final/1919_fw.mp4	0.0	186.80514693260193	2.4919660091400146
29	161.6999180316925	pulse	1	t		27.0	2.5	/experiments/knapen_AOT/AOT_stimuli/rescaled_final/1919_fw.mp4	0.0	187.18946385383606	
29	163.29929900169373	pulse	1	t		27.0	2.5	/experiments/knapen_AOT/AOT_stimuli/rescaled_final/1919_fw.mp4	0.0	188.78884482383728	
29	163.8075671195984	fix_post	2		12	27.0	2.5	/experiments/knapen_AOT/AOT_stimuli/rescaled_final/1919_fw.mp4	0.0	189.29711294174194	0.10006308555603027
30	163.90763020515442	fix_pre	0		120	28.0	2.5	/experiments/knapen_AOT/AOT_stimuli/rescaled_final/0393_fw.mp4	0.0	189.39717602729797	1.000074863433838
30	164.89970302581787	pulse	0	t		28.0	2.5	/experiments/knapen_AOT/AOT_stimuli/rescaled_final/0393_fw.mp4	0.0	190.38924884796143	
30	164.90770506858826	movie	1		245	28.0	2.5	/experiments/knapen_AOT/AOT_stimuli/rescaled_final/0393_fw.mp4	0.0	190.3972508907318	2.508713960647583
30	166.50052905082703	pulse	1	t		28.0	2.5	/experiments/knapen_AOT/AOT_stimuli/rescaled_final/0393_fw.mp4	0.0	191.99007487297058	
30	167.41641902923584	fix_post	2		9	28.0	2.5	/experiments/knapen_AOT/AOT_stimuli/rescaled_final/0393_fw.mp4	0.0	192.9059648513794	0.10004806518554688
31	167.5164670944214	fix_pre	0		120	29.0	2.5	/experiments/knapen_AOT/AOT_stimuli/rescaled_final/0120_fw.mp4	0.0	193.00601291656494	1.0001280307769775
31	168.10003399848938	pulse	0	t		29.0	2.5	/experiments/knapen_AOT/AOT_stimuli/rescaled_final/0120_fw.mp4	0.0	193.58957982063293	
31	168.51659512519836	movie	1		244	29.0	2.5	/experiments/knapen_AOT/AOT_stimuli/rescaled_final/0120_fw.mp4	0.0	194.00614094734192	2.5003890991210938
31	169.7004702091217	pulse	1	t		29.0	2.5	/experiments/knapen_AOT/AOT_stimuli/rescaled_final/0120_fw.mp4	0.0	195.19001603126526	
31	171.01698422431946	fix_post	2		12	29.0	2.5	/experiments/knapen_AOT/AOT_stimuli/rescaled_final/0120_fw.mp4	0.0	196.506530046463	0.10002684593200684
32	171.11701107025146	fix_pre	0		120	30.0	2.5	/experiments/knapen_AOT/AOT_stimuli/rescaled_final/2173_fw.mp4	0.0	196.60655689239502	1.0001020431518555
32	171.3006091117859	pulse	0	t		30.0	2.5	/experiments/knapen_AOT/AOT_stimuli/rescaled_final/2173_fw.mp4	0.0	196.79015493392944	
32	172.11711311340332	movie	1		246	30.0	2.5	/experiments/knapen_AOT/AOT_stimuli/rescaled_final/2173_fw.mp4	0.0	197.60665893554688	2.5003950595855713
32	172.90083122253418	pulse	1	t		30.0	2.5	/experiments/knapen_AOT/AOT_stimuli/rescaled_final/2173_fw.mp4	0.0	198.39037704467773	
32	174.5011122226715	pulse	1	t		30.0	2.5	/experiments/knapen_AOT/AOT_stimuli/rescaled_final/2173_fw.mp4	0.0	199.99065804481506	
32	174.6175081729889	fix_post	2		12	30.0	2.5	/experiments/knapen_AOT/AOT_stimuli/rescaled_final/2173_fw.mp4	0.0	200.10705399513245	0.10000300407409668
33	174.717511177063	fix_pre	0		120	31.0	2.5	/experiments/knapen_AOT/AOT_stimuli/rescaled_final/0384_rv.mp4	0.0	200.20705699920654	1.0001609325408936
33	175.71767210960388	movie	1		242	31.0	2.5	/experiments/knapen_AOT/AOT_stimuli/rescaled_final/0384_rv.mp4	0.0	201.20721793174744	2.4920530319213867
33	176.1018340587616	pulse	1	t		31.0	2.5	/experiments/knapen_AOT/AOT_stimuli/rescaled_final/0384_rv.mp4	0.0	201.59137988090515	
33	177.7015860080719	pulse	1	t		31.0	2.5	/experiments/knapen_AOT/AOT_stimuli/rescaled_final/0384_rv.mp4	0.0	203.19113183021545	
33	178.20972514152527	fix_post	2		12	31.0	2.5	/experiments/knapen_AOT/AOT_stimuli/rescaled_final/0384_rv.mp4	0.0	203.69927096366882	0.10003995895385742
34	178.30976510047913	fix_pre	0		120	32.0	2.5	/experiments/knapen_AOT/AOT_stimuli/rescaled_final/1993_rv.mp4	0.0	203.79931092262268	1.0001509189605713
34	179.3018012046814	pulse	0	t		32.0	2.5	/experiments/knapen_AOT/AOT_stimuli/rescaled_final/1993_rv.mp4	0.0	204.79134702682495	
34	179.3099160194397	movie	1		245	32.0	2.5	/experiments/knapen_AOT/AOT_stimuli/rescaled_final/1993_rv.mp4	0.0	204.79946184158325	2.508665084838867
34	180.90243101119995	pulse	1	t		32.0	2.5	/experiments/knapen_AOT/AOT_stimuli/rescaled_final/1993_rv.mp4	0.0	206.3919768333435	
34	181.81858110427856	fix_post	2		12	32.0	2.5	/experiments/knapen_AOT/AOT_stimuli/rescaled_final/1993_rv.mp4	0.0	207.30812692642212	0.1000831127166748
35	181.91866421699524	fix_pre	0		120	33.0	2.5	/experiments/knapen_AOT/AOT_stimuli/rescaled_final/1656_fw.mp4	0.0	207.4082100391388	1.0000998973846436
35	182.5021960735321	pulse	0	t		33.0	2.5	/experiments/knapen_AOT/AOT_stimuli/rescaled_final/1656_fw.mp4	0.0	207.99174189567566	
35	182.91876411437988	movie	1		243	33.0	2.5	/experiments/knapen_AOT/AOT_stimuli/rescaled_final/1656_fw.mp4	0.0	208.40830993652344	2.500349998474121
35	184.1027021408081	pulse	1	t		33.0	2.5	/experiments/knapen_AOT/AOT_stimuli/rescaled_final/1656_fw.mp4	0.0	209.59224796295166	
35	185.419114112854	fix_post	2		12	33.0	2.5	/experiments/knapen_AOT/AOT_stimuli/rescaled_final/1656_fw.mp4	0.0	210.90865993499756	0.10000300407409668
36	185.5191171169281	fix_pre	0		120	34.0	2.5	blank	1.0	211.00866293907166	1.0001568794250488
36	185.70280599594116	pulse	0	t		34.0	2.5	blank	1.0	211.19235181808472	
36	186.51927399635315	movie	1		300	34.0	2.5	blank	1.0	212.0088198184967	2.5003821849823
36	187.30303812026978	pulse	1	t		34.0	2.5	blank	1.0	212.79258394241333	
36	188.9031491279602	pulse	1	t		34.0	2.5	blank	1.0	214.39269495010376	
36	189.01965618133545	fix_post	2		12	34.0	2.5	blank	1.0	214.509202003479	0.10006093978881836
37	189.11971712112427	fix_pre	0		120	35.0	2.5	/experiments/knapen_AOT/AOT_stimuli/rescaled_final/1200_fw.mp4	0.0	214.60926294326782	1.0000889301300049
37	190.11980605125427	movie	1		242	35.0	2.5	/experiments/knapen_AOT/AOT_stimuli/rescaled_final/1200_fw.mp4	0.0	215.60935187339783	2.4920589923858643
37	190.50363516807556	pulse	1	t		35.0	2.5	/experiments/knapen_AOT/AOT_stimuli/rescaled_final/1200_fw.mp4	0.0	215.99318099021912	
37	192.1037220954895	pulse	1	t		35.0	2.5	/experiments/knapen_AOT/AOT_stimuli/rescaled_final/1200_fw.mp4	0.0	217.59326791763306	
37	192.61186504364014	fix_post	2		12	35.0	2.5	/experiments/knapen_AOT/AOT_stimuli/rescaled_final/1200_fw.mp4	0.0	218.1014108657837	0.100006103515625
38	192.71187114715576	fix_pre	0		120	36.0	2.5	/experiments/knapen_AOT/AOT_stimuli/rescaled_final/1700_rv.mp4	0.0	218.20141696929932	1.000196933746338
38	193.7039451599121	pulse	0	t		36.0	2.5	/experiments/knapen_AOT/AOT_stimuli/rescaled_final/1700_rv.mp4	0.0	219.19349098205566	
38	193.7120680809021	movie	1		244	36.0	2.5	/experiments/knapen_AOT/AOT_stimuli/rescaled_final/1700_rv.mp4	0.0	219.20161390304565	2.5087130069732666
38	195.30465817451477	pulse	1	t		36.0	2.5	/experiments/knapen_AOT/AOT_stimuli/rescaled_final/1700_rv.mp4	0.0	220.79420399665833	
38	196.22078108787537	fix_post	2		12	36.0	2.5	/experiments/knapen_AOT/AOT_stimuli/rescaled_final/1700_rv.mp4	0.0	221.71032691001892	0.10002398490905762
39	196.32080507278442	fix_pre	0		120	37.0	2.5	/experiments/knapen_AOT/AOT_stimuli/rescaled_final/0409_rv.mp4	0.0	221.81035089492798	1.000087022781372
39	196.90434217453003	pulse	0	t		37.0	2.5	/experiments/knapen_AOT/AOT_stimuli/rescaled_final/0409_rv.mp4	0.0	222.39388799667358	
39	197.3208920955658	movie	1		244	37.0	2.5	/experiments/knapen_AOT/AOT_stimuli/rescaled_final/0409_rv.mp4	0.0	222.81043791770935	2.5003950595855713
39	198.5047881603241	pulse	1	t		37.0	2.5	/experiments/knapen_AOT/AOT_stimuli/rescaled_final/0409_rv.mp4	0.0	223.99433398246765	
39	199.82128715515137	fix_post	2		12	37.0	2.5	/experiments/knapen_AOT/AOT_stimuli/rescaled_final/0409_rv.mp4	0.0	225.31083297729492	0.10001492500305176
40	199.92130208015442	fix_pre	0		120	38.0	2.5	/experiments/knapen_AOT/AOT_stimuli/rescaled_final/1919_rv.mp4	0.0	225.41084790229797	1.0001671314239502
40	200.10488200187683	pulse	0	t		38.0	2.5	/experiments/knapen_AOT/AOT_stimuli/rescaled_final/1919_rv.mp4	0.0	225.59442782402039	
40	200.92146921157837	movie	1		244	38.0	2.5	/experiments/knapen_AOT/AOT_stimuli/rescaled_final/1919_rv.mp4	0.0	226.41101503372192	2.5003418922424316
40	201.70517110824585	pulse	1	t		38.0	2.5	/experiments/knapen_AOT/AOT_stimuli/rescaled_final/1919_rv.mp4	0.0	227.1947169303894	
40	203.30547404289246	pulse	1	t		38.0	2.5	/experiments/knapen_AOT/AOT_stimuli/rescaled_final/1919_rv.mp4	0.0	228.795019865036	
40	203.4218111038208	fix_post	2		12	38.0	2.5	/experiments/knapen_AOT/AOT_stimuli/rescaled_final/1919_rv.mp4	0.0	228.91135692596436	0.09998297691345215
41	203.52179408073425	fix_pre	0		120	39.0	2.5	/experiments/knapen_AOT/AOT_stimuli/rescaled_final/1235_fw.mp4	0.0	229.0113399028778	1.000180959701538
41	204.5219750404358	movie	1		243	39.0	2.5	/experiments/knapen_AOT/AOT_stimuli/rescaled_final/1235_fw.mp4	0.0	230.01152086257935	2.492093086242676
41	204.90610313415527	pulse	1	t		39.0	2.5	/experiments/knapen_AOT/AOT_stimuli/rescaled_final/1235_fw.mp4	0.0	230.39564895629883	
41	206.49839520454407	pulse	1	t		39.0	2.5	/experiments/knapen_AOT/AOT_stimuli/rescaled_final/1235_fw.mp4	0.0	231.98794102668762	
41	207.01406812667847	fix_post	2		12	39.0	2.5	/experiments/knapen_AOT/AOT_stimuli/rescaled_final/1235_fw.mp4	0.0	232.50361394882202	0.09997892379760742
42	207.11404705047607	fix_pre	0		120	40.0	2.5	/experiments/knapen_AOT/AOT_stimuli/rescaled_final/0341_fw.mp4	0.0	232.60359287261963	1.0001821517944336
42	208.09851002693176	pulse	0	t		40.0	2.5	/experiments/knapen_AOT/AOT_stimuli/rescaled_final/0341_fw.mp4	0.0	233.58805584907532	
42	208.1142292022705	movie	1		247	40.0	2.5	/experiments/knapen_AOT/AOT_stimuli/rescaled_final/0341_fw.mp4	0.0	233.60377502441406	2.5086448192596436
42	209.6979842185974	pulse	1	t		40.0	2.5	/experiments/knapen_AOT/AOT_stimuli/rescaled_final/0341_fw.mp4	0.0	235.18753004074097	
42	210.62287402153015	fix_post	2		12	40.0	2.5	/experiments/knapen_AOT/AOT_stimuli/rescaled_final/0341_fw.mp4	0.0	236.1124198436737	0.10006499290466309
43	210.72293901443481	fix_pre	0		120	41.0	2.5	blank	1.0	236.21248483657837	1.0001351833343506
43	211.29821515083313	pulse	0	t		41.0	2.5	blank	1.0	236.78776097297668	
43	211.72307419776917	movie	1		300	41.0	2.5	blank	1.0	237.21262001991272	2.500351905822754
43	212.89843106269836	pulse	1	t		41.0	2.5	blank	1.0	238.38797688484192	
43	214.22342610359192	fix_post	2		12	41.0	2.5	blank	1.0	239.71297192573547	0.10000300407409668
44	214.32342910766602	fix_pre	0		120	42.0	2.5	/experiments/knapen_AOT/AOT_stimuli/rescaled_final/1125_fw.mp4	0.0	239.81297492980957	1.0001459121704102
44	214.49865221977234	pulse	0	t		42.0	2.5	/experiments/knapen_AOT/AOT_stimuli/rescaled_final/1125_fw.mp4	0.0	239.9881980419159	
44	215.32357501983643	movie	1		244	42.0	2.5	/experiments/knapen_AOT/AOT_stimuli/rescaled_final/1125_fw.mp4	0.0	240.81312084197998	2.5003910064697266
44	216.09898710250854	pulse	1	t		42.0	2.5	/experiments/knapen_AOT/AOT_stimuli/rescaled_final/1125_fw.mp4	0.0	241.5885329246521	
44	217.69922399520874	pulse	1	t		42.0	2.5	/experiments/knapen_AOT/AOT_stimuli/rescaled_final/1125_fw.mp4	0.0	243.1887698173523	
44	217.82396602630615	fix_post	2		12	42.0	2.5	/experiments/knapen_AOT/AOT_stimuli/rescaled_final/1125_fw.mp4	0.0	243.3135118484497	0.10003519058227539
45	217.92400121688843	fix_pre	0		120	43.0	2.5	/experiments/knapen_AOT/AOT_stimuli/rescaled_final/1661_rv.mp4	0.0	243.41354703903198	1.0001468658447266
45	218.92414808273315	movie	1		243	43.0	2.5	/experiments/knapen_AOT/AOT_stimuli/rescaled_final/1661_rv.mp4	0.0	244.4136939048767	2.492003917694092
45	219.29936814308167	pulse	1	t		43.0	2.5	/experiments/knapen_AOT/AOT_stimuli/rescaled_final/1661_rv.mp4	0.0	244.78891396522522	
45	220.8996741771698	pulse	1	t		43.0	2.5	/experiments/knapen_AOT/AOT_stimuli/rescaled_final/1661_rv.mp4	0.0	246.38921999931335	
45	221.41615200042725	fix_post	2		12	43.0	2.5	/experiments/knapen_AOT/AOT_stimuli/rescaled_final/1661_rv.mp4	0.0	246.9056978225708	0.10004401206970215
46	221.51619601249695	fix_pre	0		119	44.0	2.5	/experiments/knapen_AOT/AOT_stimuli/rescaled_final/0934_rv.mp4	0.0	247.0057418346405	0.9917960166931152
46	222.49984312057495	pulse	0	t		44.0	2.5	/experiments/knapen_AOT/AOT_stimuli/rescaled_final/0934_rv.mp4	0.0	247.9893889427185	
46	222.50799202919006	movie	1		244	44.0	2.5	/experiments/knapen_AOT/AOT_stimuli/rescaled_final/0934_rv.mp4	0.0	247.99753785133362	2.5087239742279053
46	224.10068821907043	pulse	1	t		44.0	2.5	/experiments/knapen_AOT/AOT_stimuli/rescaled_final/0934_rv.mp4	0.0	249.590234041214	
46	225.01671600341797	fix_post	2		12	44.0	2.5	/experiments/knapen_AOT/AOT_stimuli/rescaled_final/0934_rv.mp4	0.0	250.50626182556152	0.10005307197570801
47	225.11676907539368	fix_pre	0		120	45.0	2.5	/experiments/knapen_AOT/AOT_stimuli/rescaled_final/1352_rv.mp4	0.0	250.60631489753723	1.0001411437988281
47	225.7003412246704	pulse	0	t		45.0	2.5	/experiments/knapen_AOT/AOT_stimuli/rescaled_final/1352_rv.mp4	0.0	251.18988704681396	
47	226.1169102191925	movie	1		240	45.0	2.5	/experiments/knapen_AOT/AOT_stimuli/rescaled_final/1352_rv.mp4	0.0	251.60645604133606	2.5003669261932373
47	227.30072617530823	pulse	1	t		45.0	2.5	/experiments/knapen_AOT/AOT_stimuli/rescaled_final/1352_rv.mp4	0.0	252.79027199745178	
47	228.61727714538574	fix_post	2		12	45.0	2.5	/experiments/knapen_AOT/AOT_stimuli/rescaled_final/1352_rv.mp4	0.0	254.1068229675293	0.09993505477905273
48	228.7172122001648	fix_pre	0		120	46.0	2.5	/experiments/knapen_AOT/AOT_stimuli/rescaled_final/1661_fw.mp4	0.0	254.20675802230835	1.000196933746338
48	228.900817155838	pulse	0	t		46.0	2.5	/experiments/knapen_AOT/AOT_stimuli/rescaled_final/1661_fw.mp4	0.0	254.39036297798157	
48	229.71740913391113	movie	1		244	46.0	2.5	/experiments/knapen_AOT/AOT_stimuli/rescaled_final/1661_fw.mp4	0.0	255.2069549560547	2.500354051589966
48	230.50112915039062	pulse	1	t		46.0	2.5	/experiments/knapen_AOT/AOT_stimuli/rescaled_final/1661_fw.mp4	0.0	255.99067497253418	
48	232.10140419006348	pulse	1	t		46.0	2.5	/experiments/knapen_AOT/AOT_stimuli/rescaled_final/1661_fw.mp4	0.0	257.59095001220703	
48	232.2177631855011	fix_post	2		12	46.0	2.5	/experiments/knapen_AOT/AOT_stimuli/rescaled_final/1661_fw.mp4	0.0	257.70730900764465	0.10003399848937988
49	232.31779718399048	fix_pre	0		120	47.0	2.5	blank	1.0	257.80734300613403	1.000169038772583
49	233.31796622276306	movie	1		299	47.0	2.5	blank	1.0	258.8075120449066	2.492039918899536
49	233.70158004760742	pulse	1	t		47.0	2.5	blank	1.0	259.191125869751	
49	235.3017611503601	pulse	1	t		47.0	2.5	blank	1.0	260.79130697250366	
49	235.8100061416626	fix_post	2		12	47.0	2.5	blank	1.0	261.29955196380615	0.10001993179321289
50	235.9100260734558	fix_pre	0		120	48.0	2.5	/experiments/knapen_AOT/AOT_stimuli/rescaled_final/0230_fw.mp4	0.0	261.39957189559937	1.0001051425933838
50	236.90198802947998	pulse	0	t		48.0	2.5	/experiments/knapen_AOT/AOT_stimuli/rescaled_final/0230_fw.mp4	0.0	262.39153385162354	
50	236.9101312160492	movie	1		244	48.0	2.5	/experiments/knapen_AOT/AOT_stimuli/rescaled_final/0230_fw.mp4	0.0	262.39967703819275	2.508718967437744
50	238.5028531551361	pulse	1	t		48.0	2.5	/experiments/knapen_AOT/AOT_stimuli/rescaled_final/0230_fw.mp4	0.0	263.99239897727966	
50	239.41885018348694	fix_post	2		12	48.0	2.5	/experiments/knapen_AOT/AOT_stimuli/rescaled_final/0230_fw.mp4	0.0	264.9083960056305	0.10014081001281738
51	239.51899099349976	fix_pre	0		120	49.0	2.5	/experiments/knapen_AOT/AOT_stimuli/rescaled_final/1700_rv.mp4	0.0	265.0085368156433	1.0000171661376953
51	240.10242414474487	pulse	0	t		49.0	2.5	/experiments/knapen_AOT/AOT_stimuli/rescaled_final/1700_rv.mp4	0.0	265.5919699668884	
51	240.51900815963745	movie	1		243	49.0	2.5	/experiments/knapen_AOT/AOT_stimuli/rescaled_final/1700_rv.mp4	0.0	266.008553981781	2.5003838539123535
51	241.70281314849854	pulse	1	t		49.0	2.5	/experiments/knapen_AOT/AOT_stimuli/rescaled_final/1700_rv.mp4	0.0	267.1923589706421	
51	243.0193920135498	fix_post	2		12	49.0	2.5	/experiments/knapen_AOT/AOT_stimuli/rescaled_final/1700_rv.mp4	0.0	268.50893783569336	0.09998202323913574
52	243.11937403678894	fix_pre	0		120	50.0	2.5	/experiments/knapen_AOT/AOT_stimuli/rescaled_final/0393_rv.mp4	0.0	268.6089198589325	1.0001800060272217
52	243.302983045578	pulse	0	t		50.0	2.5	/experiments/knapen_AOT/AOT_stimuli/rescaled_final/0393_rv.mp4	0.0	268.79252886772156	
52	244.11955404281616	movie	1		243	50.0	2.5	/experiments/knapen_AOT/AOT_stimuli/rescaled_final/0393_rv.mp4	0.0	269.6090998649597	2.5003559589385986
52	244.9032051563263	pulse	1	t		50.0	2.5	/experiments/knapen_AOT/AOT_stimuli/rescaled_final/0393_rv.mp4	0.0	270.39275097846985	
52	246.5034739971161	pulse	1	t		50.0	2.5	/experiments/knapen_AOT/AOT_stimuli/rescaled_final/0393_rv.mp4	0.0	271.99301981925964	
52	246.61991000175476	fix_post	2		12	50.0	2.5	/experiments/knapen_AOT/AOT_stimuli/rescaled_final/0393_rv.mp4	0.0	272.1094558238983	0.100067138671875
53	246.71997714042664	fix_pre	0		120	51.0	2.5	/experiments/knapen_AOT/AOT_stimuli/rescaled_final/0557_fw.mp4	0.0	272.2095229625702	1.0000970363616943
53	247.72007417678833	movie	1		243	51.0	2.5	/experiments/knapen_AOT/AOT_stimuli/rescaled_final/0557_fw.mp4	0.0	273.2096199989319	2.492043972015381
53	248.10487008094788	pulse	1	t		51.0	2.5	/experiments/knapen_AOT/AOT_stimuli/rescaled_final/0557_fw.mp4	0.0	273.59441590309143	
53	249.70407009124756	pulse	1	t		51.0	2.5	/experiments/knapen_AOT/AOT_stimuli/rescaled_final/0557_fw.mp4	0.0	275.1936159133911	
53	250.2121181488037	fix_post	2		12	51.0	2.5	/experiments/knapen_AOT/AOT_stimuli/rescaled_final/0557_fw.mp4	0.0	275.70166397094727	0.10001897811889648
54	250.3121371269226	fix_pre	0		120	52.0	2.5	/experiments/knapen_AOT/AOT_stimuli/rescaled_final/0220_fw.mp4	0.0	275.80168294906616	1.0001499652862549
54	251.30416417121887	pulse	0	t		52.0	2.5	/experiments/knapen_AOT/AOT_stimuli/rescaled_final/0220_fw.mp4	0.0	276.7937099933624	
54	251.31228709220886	movie	1		245	52.0	2.5	/experiments/knapen_AOT/AOT_stimuli/rescaled_final/0220_fw.mp4	0.0	276.8018329143524	2.508760929107666
54	252.90878415107727	pulse	1	t		52.0	2.5	/experiments/knapen_AOT/AOT_stimuli/rescaled_final/0220_fw.mp4	0.0	278.3983299732208	
54	253.82104802131653	fix_post	2		12	52.0	2.5	/experiments/knapen_AOT/AOT_stimuli/rescaled_final/0220_fw.mp4	0.0	279.3105938434601	0.09996700286865234
55	253.92101502418518	fix_pre	0		120	53.0	2.5	/experiments/knapen_AOT/AOT_stimuli/rescaled_final/1241_rv.mp4	0.0	279.41056084632874	1.0001380443572998
55	254.50465202331543	pulse	0	t		53.0	2.5	/experiments/knapen_AOT/AOT_stimuli/rescaled_final/1241_rv.mp4	0.0	279.994197845459	
55	254.92115306854248	movie	1		244	53.0	2.5	/experiments/knapen_AOT/AOT_stimuli/rescaled_final/1241_rv.mp4	0.0	280.41069889068604	2.5003960132598877
55	256.1049680709839	pulse	1	t		53.0	2.5	/experiments/knapen_AOT/AOT_stimuli/rescaled_final/1241_rv.mp4	0.0	281.59451389312744	
55	257.42154908180237	fix_post	2		12	53.0	2.5	/experiments/knapen_AOT/AOT_stimuli/rescaled_final/1241_rv.mp4	0.0	282.9110949039459	0.09999203681945801
56	257.5215411186218	fix_pre	0		120	54.0	2.5	/experiments/knapen_AOT/AOT_stimuli/rescaled_final/1119_fw.mp4	0.0	283.0110869407654	1.0001590251922607
56	257.69793701171875	pulse	0	t		54.0	2.5	/experiments/knapen_AOT/AOT_stimuli/rescaled_final/1119_fw.mp4	0.0	283.1874828338623	
56	258.5217001438141	movie	1		244	54.0	2.5	/experiments/knapen_AOT/AOT_stimuli/rescaled_final/1119_fw.mp4	0.0	284.01124596595764	2.500364065170288
56	259.29791021347046	pulse	1	t		54.0	2.5	/experiments/knapen_AOT/AOT_stimuli/rescaled_final/1119_fw.mp4	0.0	284.787456035614	
56	260.90546107292175	pulse	1	t		54.0	2.5	/experiments/knapen_AOT/AOT_stimuli/rescaled_final/1119_fw.mp4	0.0	286.3950068950653	
56	261.0220642089844	fix_post	2		12	54.0	2.5	/experiments/knapen_AOT/AOT_stimuli/rescaled_final/1119_fw.mp4	0.0	286.51161003112793	0.10006093978881836
57	261.1221251487732	fix_pre	0		120	55.0	2.5	/experiments/knapen_AOT/AOT_stimuli/rescaled_final/1591_rv.mp4	0.0	286.61167097091675	1.0001418590545654
57	262.12226700782776	movie	1		243	55.0	2.5	/experiments/knapen_AOT/AOT_stimuli/rescaled_final/1591_rv.mp4	0.0	287.6118128299713	2.4919931888580322
57	262.50652408599854	pulse	1	t		55.0	2.5	/experiments/knapen_AOT/AOT_stimuli/rescaled_final/1591_rv.mp4	0.0	287.9960699081421	
57	264.0986280441284	pulse	1	t		55.0	2.5	/experiments/knapen_AOT/AOT_stimuli/rescaled_final/1591_rv.mp4	0.0	289.588173866272	
57	264.6142601966858	fix_post	2		12	55.0	2.5	/experiments/knapen_AOT/AOT_stimuli/rescaled_final/1591_rv.mp4	0.0	290.10380601882935	0.1000518798828125
58	264.7143120765686	fix_pre	0		119	56.0	2.5	blank	1.0	290.20385789871216	0.9917769432067871
58	265.6979100704193	pulse	0	t		56.0	2.5	blank	1.0	291.18745589256287	
58	265.7060890197754	movie	1		301	56.0	2.5	blank	1.0	291.19563484191895	2.508782148361206
58	267.29811906814575	pulse	1	t		56.0	2.5	blank	1.0	292.7876648902893	
58	268.2148711681366	fix_post	2		12	56.0	2.5	blank	1.0	293.70441699028015	0.10003805160522461
59	268.3149092197418	fix_pre	0		120	57.0	2.5	/experiments/knapen_AOT/AOT_stimuli/rescaled_final/0899_fw.mp4	0.0	293.8044550418854	1.0000879764556885
59	268.89839816093445	pulse	0	t		57.0	2.5	/experiments/knapen_AOT/AOT_stimuli/rescaled_final/0899_fw.mp4	0.0	294.387943983078	
59	269.3149971961975	movie	1		243	57.0	2.5	/experiments/knapen_AOT/AOT_stimuli/rescaled_final/0899_fw.mp4	0.0	294.80454301834106	2.5003719329833984
59	270.4988570213318	pulse	1	t		57.0	2.5	/experiments/knapen_AOT/AOT_stimuli/rescaled_final/0899_fw.mp4	0.0	295.98840284347534	
59	271.8153691291809	fix_post	2		12	57.0	2.5	/experiments/knapen_AOT/AOT_stimuli/rescaled_final/0899_fw.mp4	0.0	297.30491495132446	0.09999489784240723
60	271.9153640270233	fix_pre	0		120	58.0	2.5	/experiments/knapen_AOT/AOT_stimuli/rescaled_final/2020_rv.mp4	0.0	297.40490984916687	1.000162124633789
60	272.0989730358124	pulse	0	t		58.0	2.5	/experiments/knapen_AOT/AOT_stimuli/rescaled_final/2020_rv.mp4	0.0	297.58851885795593	
60	272.9155261516571	movie	1		243	58.0	2.5	/experiments/knapen_AOT/AOT_stimuli/rescaled_final/2020_rv.mp4	0.0	298.40507197380066	2.5003628730773926
60	273.69918513298035	pulse	1	t		58.0	2.5	/experiments/knapen_AOT/AOT_stimuli/rescaled_final/2020_rv.mp4	0.0	299.1887309551239	
60	275.2992022037506	pulse	1	t		58.0	2.5	/experiments/knapen_AOT/AOT_stimuli/rescaled_final/2020_rv.mp4	0.0	300.78874802589417	
60	275.4158890247345	fix_post	2		12	58.0	2.5	/experiments/knapen_AOT/AOT_stimuli/rescaled_final/2020_rv.mp4	0.0	300.90543484687805	0.10008811950683594
61	275.51597714424133	fix_pre	0		119	59.0	2.5	/experiments/knapen_AOT/AOT_stimuli/rescaled_final/0263_rv.mp4	0.0	301.0055229663849	0.991786003112793
61	276.5077631473541	movie	1		244	59.0	2.5	/experiments/knapen_AOT/AOT_stimuli/rescaled_final/0263_rv.mp4	0.0	301.9973089694977	2.5003318786621094
61	276.8997461795807	pulse	1	t		59.0	2.5	/experiments/knapen_AOT/AOT_stimuli/rescaled_final/0263_rv.mp4	0.0	302.38929200172424	
61	278.50001406669617	pulse	1	t		59.0	2.5	/experiments/knapen_AOT/AOT_stimuli/rescaled_final/0263_rv.mp4	0.0	303.9895598888397	
61	279.00809502601624	fix_post	2		12	59.0	2.5	/experiments/knapen_AOT/AOT_stimuli/rescaled_final/0263_rv.mp4	0.0	304.4976408481598	0.10000801086425781
62	279.1081030368805	fix_pre	0		120	60.0	2.5	/experiments/knapen_AOT/AOT_stimuli/rescaled_final/1528_fw.mp4	0.0	304.59764885902405	1.0001640319824219
62	280.1000761985779	pulse	0	t		60.0	2.5	/experiments/knapen_AOT/AOT_stimuli/rescaled_final/1528_fw.mp4	0.0	305.58962202072144	
62	280.1082670688629	movie	1		248	60.0	2.5	/experiments/knapen_AOT/AOT_stimuli/rescaled_final/1528_fw.mp4	0.0	305.59781289100647	2.508700132369995
62	281.7009902000427	pulse	1	t		60.0	2.5	/experiments/knapen_AOT/AOT_stimuli/rescaled_final/1528_fw.mp4	0.0	307.1905360221863	
62	282.6169672012329	fix_post	2		12	60.0	2.5	/experiments/knapen_AOT/AOT_stimuli/rescaled_final/1528_fw.mp4	0.0	308.10651302337646	0.10008978843688965
63	282.7170569896698	fix_pre	0		120	61.0	2.5	/experiments/knapen_AOT/AOT_stimuli/rescaled_final/0768_rv.mp4	0.0	308.20660281181335	1.000068187713623
63	283.30063915252686	pulse	0	t		61.0	2.5	/experiments/knapen_AOT/AOT_stimuli/rescaled_final/0768_rv.mp4	0.0	308.7901849746704	
63	283.7171251773834	movie	1		245	61.0	2.5	/experiments/knapen_AOT/AOT_stimuli/rescaled_final/0768_rv.mp4	0.0	309.206670999527	2.5004358291625977
63	284.9009871482849	pulse	1	t		61.0	2.5	/experiments/knapen_AOT/AOT_stimuli/rescaled_final/0768_rv.mp4	0.0	310.39053297042847	
63	286.217561006546	fix_post	2		12	61.0	2.5	/experiments/knapen_AOT/AOT_stimuli/rescaled_final/0768_rv.mp4	0.0	311.7071068286896	0.09995913505554199
64	286.31752014160156	fix_pre	0		120	62.0	2.5	/experiments/knapen_AOT/AOT_stimuli/rescaled_final/1997_fw.mp4	0.0	311.8070659637451	1.000140905380249
64	286.5011432170868	pulse	0	t		62.0	2.5	/experiments/knapen_AOT/AOT_stimuli/rescaled_final/1997_fw.mp4	0.0	311.99068903923035	
64	287.3176610469818	movie	1		241	62.0	2.5	/experiments/knapen_AOT/AOT_stimuli/rescaled_final/1997_fw.mp4	0.0	312.80720686912537	2.5089011192321777
64	288.10126519203186	pulse	1	t		62.0	2.5	/experiments/knapen_AOT/AOT_stimuli/rescaled_final/1997_fw.mp4	0.0	313.5908110141754	
64	289.70142817497253	pulse	1	t		62.0	2.5	/experiments/knapen_AOT/AOT_stimuli/rescaled_final/1997_fw.mp4	0.0	315.1909739971161	
64	289.826562166214	fix_post	2		11	62.0	2.5	/experiments/knapen_AOT/AOT_stimuli/rescaled_final/1997_fw.mp4	0.0	315.31610798835754	0.09150004386901855
65	289.918062210083	fix_pre	0		120	63.0	2.5	blank	1.0	315.40760803222656	1.0001130104064941
65	290.9181752204895	movie	1		299	63.0	2.5	blank	1.0	316.40772104263306	2.492067813873291
65	291.3018980026245	pulse	1	t		63.0	2.5	blank	1.0	316.79144382476807	
65	292.9021100997925	pulse	1	t		63.0	2.5	blank	1.0	318.39165592193604	
65	293.4102430343628	fix_post	2		12	63.0	2.5	blank	1.0	318.89978885650635	0.10004806518554688
66	293.51029109954834	fix_pre	0		120	64.0	2.5	/experiments/knapen_AOT/AOT_stimuli/rescaled_final/0330_fw.mp4	0.0	318.9998369216919	1.0000929832458496
66	294.50223898887634	pulse	0	t		64.0	2.5	/experiments/knapen_AOT/AOT_stimuli/rescaled_final/0330_fw.mp4	0.0	319.9917848110199	
66	294.5103840827942	movie	1		244	64.0	2.5	/experiments/knapen_AOT/AOT_stimuli/rescaled_final/0330_fw.mp4	0.0	319.99992990493774	2.5087289810180664
66	296.1028699874878	pulse	1	t		64.0	2.5	/experiments/knapen_AOT/AOT_stimuli/rescaled_final/0330_fw.mp4	0.0	321.59241580963135	
66	297.01911306381226	fix_post	2		12	64.0	2.5	/experiments/knapen_AOT/AOT_stimuli/rescaled_final/0330_fw.mp4	0.0	322.5086588859558	0.1000051498413086
67	297.11911821365356	fix_pre	0		120	65.0	2.5	/experiments/knapen_AOT/AOT_stimuli/rescaled_final/1260_fw.mp4	0.0	322.6086640357971	1.000175952911377
67	297.70283102989197	pulse	0	t		65.0	2.5	/experiments/knapen_AOT/AOT_stimuli/rescaled_final/1260_fw.mp4	0.0	323.1923768520355	
67	298.11929416656494	movie	1		245	65.0	2.5	/experiments/knapen_AOT/AOT_stimuli/rescaled_final/1260_fw.mp4	0.0	323.6088399887085	2.5003769397735596
67	299.2985141277313	pulse	1	t		65.0	2.5	/experiments/knapen_AOT/AOT_stimuli/rescaled_final/1260_fw.mp4	0.0	324.7880599498749	
67	300.6196711063385	fix_post	2		12	65.0	2.5	/experiments/knapen_AOT/AOT_stimuli/rescaled_final/1260_fw.mp4	0.0	326.10921692848206	0.10002708435058594
68	300.7196981906891	fix_pre	0		120	66.0	2.5	/experiments/knapen_AOT/AOT_stimuli/rescaled_final/1051_fw.mp4	0.0	326.20924401283264	1.0001518726348877
68	300.90324807167053	pulse	0	t		66.0	2.5	/experiments/knapen_AOT/AOT_stimuli/rescaled_final/1051_fw.mp4	0.0	326.3927938938141	
68	301.719850063324	movie	1		244	66.0	2.5	/experiments/knapen_AOT/AOT_stimuli/rescaled_final/1051_fw.mp4	0.0	327.20939588546753	2.5003371238708496
68	302.5034911632538	pulse	1	t		66.0	2.5	/experiments/knapen_AOT/AOT_stimuli/rescaled_final/1051_fw.mp4	0.0	327.99303698539734	
68	304.1035749912262	pulse	1	t		66.0	2.5	/experiments/knapen_AOT/AOT_stimuli/rescaled_final/1051_fw.mp4	0.0	329.59312081336975	
68	304.2201871871948	fix_post	2		12	66.0	2.5	/experiments/knapen_AOT/AOT_stimuli/rescaled_final/1051_fw.mp4	0.0	329.7097330093384	0.10001587867736816
69	304.3202030658722	fix_pre	0		119	67.0	2.5	/experiments/knapen_AOT/AOT_stimuli/rescaled_final/1978_fw.mp4	0.0	329.80974888801575	0.9918410778045654
69	305.31204414367676	movie	1		244	67.0	2.5	/experiments/knapen_AOT/AOT_stimuli/rescaled_final/1978_fw.mp4	0.0	330.8015899658203	2.5003440380096436
69	305.70421600341797	pulse	1	t		67.0	2.5	/experiments/knapen_AOT/AOT_stimuli/rescaled_final/1978_fw.mp4	0.0	331.1937618255615	
69	307.30426716804504	pulse	1	t		67.0	2.5	/experiments/knapen_AOT/AOT_stimuli/rescaled_final/1978_fw.mp4	0.0	332.7938129901886	
69	307.8123881816864	fix_post	2		12	67.0	2.5	/experiments/knapen_AOT/AOT_stimuli/rescaled_final/1978_fw.mp4	0.0	333.30193400382996	0.10001587867736816
70	307.91240406036377	fix_pre	0		120	68.0	2.5	/experiments/knapen_AOT/AOT_stimuli/rescaled_final/0165_rv.mp4	0.0	333.4019498825073	1.0001730918884277
70	308.90442419052124	pulse	0	t		68.0	2.5	/experiments/knapen_AOT/AOT_stimuli/rescaled_final/0165_rv.mp4	0.0	334.3939700126648	
70	308.9125771522522	movie	1		244	68.0	2.5	/experiments/knapen_AOT/AOT_stimuli/rescaled_final/0165_rv.mp4	0.0	334.40212297439575	2.508673906326294
70	310.50560116767883	pulse	1	t		68.0	2.5	/experiments/knapen_AOT/AOT_stimuli/rescaled_final/0165_rv.mp4	0.0	335.9951469898224	
70	311.4212510585785	fix_post	2		12	68.0	2.5	/experiments/knapen_AOT/AOT_stimuli/rescaled_final/0165_rv.mp4	0.0	336.91079688072205	0.10001301765441895
71	311.5212640762329	fix_pre	0		120	69.0	2.5	blank	1.0	337.01080989837646	1.0001559257507324
71	312.09737515449524	pulse	0	t		69.0	2.5	blank	1.0	337.5869209766388	
71	312.52142000198364	movie	1		300	69.0	2.5	blank	1.0	338.0109658241272	2.500399112701416
71	313.6977422237396	pulse	1	t		69.0	2.5	blank	1.0	339.1872880458832	
71	315.02181911468506	fix_post	2		12	69.0	2.5	blank	1.0	340.5113649368286	0.10000991821289062
72	315.12182903289795	fix_pre	0		120	70.0	2.5	/experiments/knapen_AOT/AOT_stimuli/rescaled_final/1034_fw.mp4	0.0	340.6113748550415	1.0001640319824219
72	315.2980010509491	pulse	0	t		70.0	2.5	/experiments/knapen_AOT/AOT_stimuli/rescaled_final/1034_fw.mp4	0.0	340.78754687309265	
72	316.12199306488037	movie	1		246	70.0	2.5	/experiments/knapen_AOT/AOT_stimuli/rescaled_final/1034_fw.mp4	0.0	341.6115388870239	2.500322103500366
72	316.89818811416626	pulse	1	t		70.0	2.5	/experiments/knapen_AOT/AOT_stimuli/rescaled_final/1034_fw.mp4	0.0	342.3877339363098	
72	318.49757409095764	pulse	1	t		70.0	2.5	/experiments/knapen_AOT/AOT_stimuli/rescaled_final/1034_fw.mp4	0.0	343.9871199131012	
72	318.62231516838074	fix_post	2		12	70.0	2.5	/experiments/knapen_AOT/AOT_stimuli/rescaled_final/1034_fw.mp4	0.0	344.1118609905243	0.1000058650970459
73	318.7223210334778	fix_pre	0		119	71.0	2.5	/experiments/knapen_AOT/AOT_stimuli/rescaled_final/2140_fw.mp4	0.0	344.21186685562134	0.9918291568756104
73	319.7141501903534	movie	1		244	71.0	2.5	/experiments/knapen_AOT/AOT_stimuli/rescaled_final/2140_fw.mp4	0.0	345.20369601249695	2.5004148483276367
73	320.0991702079773	pulse	1	t		71.0	2.5	/experiments/knapen_AOT/AOT_stimuli/rescaled_final/2140_fw.mp4	0.0	345.58871603012085	
73	321.69810700416565	pulse	1	t		71.0	2.5	/experiments/knapen_AOT/AOT_stimuli/rescaled_final/2140_fw.mp4	0.0	347.1876528263092	
73	322.21456503868103	fix_post	2		12	71.0	2.5	/experiments/knapen_AOT/AOT_stimuli/rescaled_final/2140_fw.mp4	0.0	347.7041108608246	0.09998798370361328
74	322.31455302238464	fix_pre	0		119	72.0	2.5	/experiments/knapen_AOT/AOT_stimuli/rescaled_final/2123_rv.mp4	0.0	347.8040988445282	0.9918451309204102
74	323.2982711791992	pulse	0	t		72.0	2.5	/experiments/knapen_AOT/AOT_stimuli/rescaled_final/2123_rv.mp4	0.0	348.7878170013428	
74	323.30639815330505	movie	1		244	72.0	2.5	/experiments/knapen_AOT/AOT_stimuli/rescaled_final/2123_rv.mp4	0.0	348.7959439754486	2.5086779594421387
74	324.9027659893036	pulse	1	t		72.0	2.5	/experiments/knapen_AOT/AOT_stimuli/rescaled_final/2123_rv.mp4	0.0	350.39231181144714	
74	325.8150761127472	fix_post	2		12	72.0	2.5	/experiments/knapen_AOT/AOT_stimuli/rescaled_final/2123_rv.mp4	0.0	351.30462193489075	0.10001206398010254
75	325.9150881767273	fix_pre	0		120	73.0	2.5	/experiments/knapen_AOT/AOT_stimuli/rescaled_final/1090_fw.mp4	0.0	351.40463399887085	1.0001769065856934
75	326.49875807762146	pulse	0	t		73.0	2.5	/experiments/knapen_AOT/AOT_stimuli/rescaled_final/1090_fw.mp4	0.0	351.988303899765	
75	326.915265083313	movie	1		244	73.0	2.5	/experiments/knapen_AOT/AOT_stimuli/rescaled_final/1090_fw.mp4	0.0	352.40481090545654	2.500333070755005
75	328.0990400314331	pulse	1	t		73.0	2.5	/experiments/knapen_AOT/AOT_stimuli/rescaled_final/1090_fw.mp4	0.0	353.58858585357666	
75	329.415598154068	fix_post	2		12	73.0	2.5	/experiments/knapen_AOT/AOT_stimuli/rescaled_final/1090_fw.mp4	0.0	354.90514397621155	0.10003089904785156
76	329.51562905311584	fix_pre	0		120	74.0	2.5	/experiments/knapen_AOT/AOT_stimuli/rescaled_final/0694_fw.mp4	0.0	355.0051748752594	1.0001800060272217
76	329.6992380619049	pulse	0	t		74.0	2.5	/experiments/knapen_AOT/AOT_stimuli/rescaled_final/0694_fw.mp4	0.0	355.18878388404846	
76	330.51580905914307	movie	1		243	74.0	2.5	/experiments/knapen_AOT/AOT_stimuli/rescaled_final/0694_fw.mp4	0.0	356.0053548812866	2.5003390312194824
76	331.2994041442871	pulse	1	t		74.0	2.5	/experiments/knapen_AOT/AOT_stimuli/rescaled_final/0694_fw.mp4	0.0	356.78894996643066	
76	332.90006709098816	pulse	1	t		74.0	2.5	/experiments/knapen_AOT/AOT_stimuli/rescaled_final/0694_fw.mp4	0.0	358.3896129131317	
76	333.01614809036255	fix_post	2		12	74.0	2.5	/experiments/knapen_AOT/AOT_stimuli/rescaled_final/0694_fw.mp4	0.0	358.5056939125061	0.09999704360961914
77	333.11614513397217	fix_pre	0		120	75.0	2.5	blank	1.0	358.6056909561157	1.000213861465454
77	334.1163589954376	movie	1		299	75.0	2.5	blank	1.0	359.6059048175812	2.4920411109924316
77	334.4998722076416	pulse	1	t		75.0	2.5	blank	1.0	359.98941802978516	
77	336.100200176239	pulse	1	t		75.0	2.5	blank	1.0	361.58974599838257	
77	336.60840010643005	fix_post	2		12	75.0	2.5	blank	1.0	362.0979459285736	0.09994697570800781
78	336.70834708213806	fix_pre	0		120	76.0	2.5	/experiments/knapen_AOT/AOT_stimuli/rescaled_final/1090_fw.mp4	0.0	362.1978929042816	1.000227928161621
78	337.7003171443939	pulse	0	t		76.0	2.5	/experiments/knapen_AOT/AOT_stimuli/rescaled_final/1090_fw.mp4	0.0	363.1898629665375	
78	337.7085750102997	movie	1		245	76.0	2.5	/experiments/knapen_AOT/AOT_stimuli/rescaled_final/1090_fw.mp4	0.0	363.19812083244324	2.508665084838867
78	339.30115604400635	pulse	1	t		76.0	2.5	/experiments/knapen_AOT/AOT_stimuli/rescaled_final/1090_fw.mp4	0.0	364.7907018661499	
78	340.21724009513855	fix_post	2		12	76.0	2.5	/experiments/knapen_AOT/AOT_stimuli/rescaled_final/1090_fw.mp4	0.0	365.7067859172821	0.09999489784240723
79	340.31723499298096	fix_pre	0		120	77.0	2.5	/experiments/knapen_AOT/AOT_stimuli/rescaled_final/0292_rv.mp4	0.0	365.8067808151245	1.0001890659332275
79	340.9008810520172	pulse	0	t		77.0	2.5	/experiments/knapen_AOT/AOT_stimuli/rescaled_final/0292_rv.mp4	0.0	366.39042687416077	
79	341.3174240589142	movie	1		245	77.0	2.5	/experiments/knapen_AOT/AOT_stimuli/rescaled_final/0292_rv.mp4	0.0	366.80696988105774	2.5003371238708496
79	342.50118803977966	pulse	1	t		77.0	2.5	/experiments/knapen_AOT/AOT_stimuli/rescaled_final/0292_rv.mp4	0.0	367.9907338619232	
79	343.81776118278503	fix_post	2		12	77.0	2.5	/experiments/knapen_AOT/AOT_stimuli/rescaled_final/0292_rv.mp4	0.0	369.3073070049286	0.10001182556152344
80	343.91777300834656	fix_pre	0		120	78.0	2.5	/experiments/knapen_AOT/AOT_stimuli/rescaled_final/1798_fw.mp4	0.0	369.4073188304901	1.0002031326293945
80	344.1013271808624	pulse	0	t		78.0	2.5	/experiments/knapen_AOT/AOT_stimuli/rescaled_final/1798_fw.mp4	0.0	369.590873003006	
80	344.91797614097595	movie	1		243	78.0	2.5	/experiments/knapen_AOT/AOT_stimuli/rescaled_final/1798_fw.mp4	0.0	370.4075219631195	2.5003650188446045
80	345.7017080783844	pulse	1	t		78.0	2.5	/experiments/knapen_AOT/AOT_stimuli/rescaled_final/1798_fw.mp4	0.0	371.19125390052795	
80	347.3017110824585	pulse	1	t		78.0	2.5	/experiments/knapen_AOT/AOT_stimuli/rescaled_final/1798_fw.mp4	0.0	372.79125690460205	
80	347.41834115982056	fix_post	2		12	78.0	2.5	/experiments/knapen_AOT/AOT_stimuli/rescaled_final/1798_fw.mp4	0.0	372.9078869819641	0.10000395774841309
81	347.51834511756897	fix_pre	0		119	79.0	2.5	/experiments/knapen_AOT/AOT_stimuli/rescaled_final/0684_fw.mp4	0.0	373.0078909397125	0.991797924041748
81	348.5101430416107	movie	1		243	79.0	2.5	/experiments/knapen_AOT/AOT_stimuli/rescaled_final/0684_fw.mp4	0.0	373.9996888637543	2.50039005279541
81	348.9022150039673	pulse	1	t		79.0	2.5	/experiments/knapen_AOT/AOT_stimuli/rescaled_final/0684_fw.mp4	0.0	374.39176082611084	
81	350.50223112106323	pulse	1	t		79.0	2.5	/experiments/knapen_AOT/AOT_stimuli/rescaled_final/0684_fw.mp4	0.0	375.9917769432068	
81	351.0105330944061	fix_post	2		12	79.0	2.5	/experiments/knapen_AOT/AOT_stimuli/rescaled_final/0684_fw.mp4	0.0	376.5000789165497	0.10046195983886719
82	351.110995054245	fix_pre	0		118	80.0	2.5	/experiments/knapen_AOT/AOT_stimuli/rescaled_final/1200_rv.mp4	0.0	376.60054087638855	0.999683141708374
82	352.102658033371	pulse	0	t		80.0	2.5	/experiments/knapen_AOT/AOT_stimuli/rescaled_final/1200_rv.mp4	0.0	377.5922038555145	
82	352.11067819595337	movie	1		245	80.0	2.5	/experiments/knapen_AOT/AOT_stimuli/rescaled_final/1200_rv.mp4	0.0	377.6002240180969	2.5086920261383057
82	353.70395708084106	pulse	1	t		80.0	2.5	/experiments/knapen_AOT/AOT_stimuli/rescaled_final/1200_rv.mp4	0.0	379.1935029029846	
82	354.6193702220917	fix_post	2		12	80.0	2.5	/experiments/knapen_AOT/AOT_stimuli/rescaled_final/1200_rv.mp4	0.0	380.10891604423523	0.10001492500305176
83	354.7193851470947	fix_pre	0		120	81.0	2.5	/experiments/knapen_AOT/AOT_stimuli/rescaled_final/0994_fw.mp4	0.0	380.2089309692383	1.0001850128173828
83	355.3030331134796	pulse	0	t		81.0	2.5	/experiments/knapen_AOT/AOT_stimuli/rescaled_final/0994_fw.mp4	0.0	380.79257893562317	
83	355.7195701599121	movie	1		244	81.0	2.5	/experiments/knapen_AOT/AOT_stimuli/rescaled_final/0994_fw.mp4	0.0	381.20911598205566	2.5003459453582764
83	356.9032771587372	pulse	1	t		81.0	2.5	/experiments/knapen_AOT/AOT_stimuli/rescaled_final/0994_fw.mp4	0.0	382.39282298088074	
83	358.2199161052704	fix_post	2		12	81.0	2.5	/experiments/knapen_AOT/AOT_stimuli/rescaled_final/0994_fw.mp4	0.0	383.70946192741394	0.10001206398010254
84	358.3199281692505	fix_pre	0		120	82.0	2.5	blank	1.0	383.80947399139404	1.0001418590545654
84	358.5035631656647	pulse	0	t		82.0	2.5	blank	1.0	383.9931089878082	
84	359.32007002830505	movie	1		300	82.0	2.5	blank	1.0	384.8096158504486	2.500370979309082
84	360.1037211418152	pulse	1	t		82.0	2.5	blank	1.0	385.59326696395874	
84	361.70402812957764	pulse	1	t		82.0	2.5	blank	1.0	387.1935739517212	
84	361.82044100761414	fix_post	2		12	82.0	2.5	blank	1.0	387.3099868297577	0.10002803802490234
85	361.92046904563904	fix_pre	0		120	83.0	2.5	/experiments/knapen_AOT/AOT_stimuli/rescaled_final/0342_rv.mp4	0.0	387.4100148677826	1.0001411437988281
85	362.92061018943787	movie	1		244	83.0	2.5	/experiments/knapen_AOT/AOT_stimuli/rescaled_final/0342_rv.mp4	0.0	388.4101560115814	2.4920618534088135
85	363.3054370880127	pulse	1	t		83.0	2.5	/experiments/knapen_AOT/AOT_stimuli/rescaled_final/0342_rv.mp4	0.0	388.79498291015625	
85	364.9044871330261	pulse	1	t		83.0	2.5	/experiments/knapen_AOT/AOT_stimuli/rescaled_final/0342_rv.mp4	0.0	390.3940329551697	
85	365.4126720428467	fix_post	2		12	83.0	2.5	/experiments/knapen_AOT/AOT_stimuli/rescaled_final/0342_rv.mp4	0.0	390.90221786499023	0.1000051498413086
87	365.512677192688	stim	0		1716					391.00222301483154	14.302291870117188
87	366.5047891139984	pulse	0	t						391.99433493614197	
87	368.1050012111664	pulse	0	t						393.59454703330994	
87	369.69794821739197	pulse	0	t						395.1874940395355	
87	371.2982029914856	pulse	0	t						396.78774881362915	
87	372.89820313453674	pulse	0	t						398.3877489566803	
87	374.498526096344	pulse	0	t						399.98807191848755	
87	376.09871006011963	pulse	0	t						401.5882558822632	
87	377.6981101036072	pulse	0	t						403.18765592575073	
87	379.29815101623535	pulse	0	t						404.7876968383789	
