trial_nr	onset	event_type	phase	response	nr_frames	movie_index	movie_duration	movie_file	blank	onset_abs	duration
0	0.16648268699645996	stim	0		1					17.264068126678467	0.008314371109008789
0	0.11808395385742188	response	0	space						17.21566939353943	
1	0.17479705810546875	stim	0		2532					17.272382497787476	21.113924980163574
1	21.278658390045166	pulse	0	t						38.37624382972717	
1	21.288722038269043	stim	1		1716					38.38630747795105	14.30790400505066
1	22.869906663894653	pulse	1	t						39.96749210357666	
1	24.47034454345703	pulse	1	t						41.56792998313904	
1	26.070361852645874	pulse	1	t						43.16794729232788	
1	27.670794010162354	pulse	1	t						44.76837944984436	
1	29.263111352920532	pulse	1	t						46.36069679260254	
1	30.863126277923584	pulse	1	t						47.96071171760559	
1	32.46313452720642	pulse	1	t						49.56071996688843	
1	34.06323862075806	pulse	1	t						51.16082406044006	
2	35.5966260433197	fix_pre	0		9	0.0	2.5	/experiments/knapen_AOT/AOT_stimuli/rescaled_final/0119_rv.mp4	0.0	52.69421148300171	0.09174799919128418
2	35.66368293762207	pulse	0	t		0.0	2.5	/experiments/knapen_AOT/AOT_stimuli/rescaled_final/0119_rv.mp4	0.0	52.76126837730408	
2	35.688374042510986	movie	1		287	0.0	2.5	/experiments/knapen_AOT/AOT_stimuli/rescaled_final/0119_rv.mp4	0.0	52.78595948219299	2.4919662475585938
2	37.26381206512451	pulse	1	t		0.0	2.5	/experiments/knapen_AOT/AOT_stimuli/rescaled_final/0119_rv.mp4	0.0	54.36139750480652	
2	38.18034029006958	fix_post	2		12	0.0	2.5	/experiments/knapen_AOT/AOT_stimuli/rescaled_final/0119_rv.mp4	0.0	55.27792572975159	0.09999942779541016
3	38.28033971786499	fix_pre	0		120	1.0	2.5	/experiments/knapen_AOT/AOT_stimuli/rescaled_final/0057_fw.mp4	0.0	55.377925157547	1.0085208415985107
3	38.86402988433838	pulse	0	t		1.0	2.5	/experiments/knapen_AOT/AOT_stimuli/rescaled_final/0057_fw.mp4	0.0	55.961615324020386	
3	39.2888605594635	movie	1		291	1.0	2.5	/experiments/knapen_AOT/AOT_stimuli/rescaled_final/0057_fw.mp4	0.0	56.38644599914551	2.4920034408569336
3	40.464235067367554	pulse	1	t		1.0	2.5	/experiments/knapen_AOT/AOT_stimuli/rescaled_final/0057_fw.mp4	0.0	57.56182050704956	
3	41.780864000320435	fix_post	2		12	1.0	2.5	/experiments/knapen_AOT/AOT_stimuli/rescaled_final/0057_fw.mp4	0.0	58.87844944000244	0.10001873970031738
4	41.88088274002075	fix_pre	0		120	2.0	2.5	/experiments/knapen_AOT/AOT_stimuli/rescaled_final/1651_fw.mp4	0.0	58.97846817970276	1.0085175037384033
4	42.064507484436035	pulse	0	t		2.0	2.5	/experiments/knapen_AOT/AOT_stimuli/rescaled_final/1651_fw.mp4	0.0	59.16209292411804	
4	42.889400243759155	movie	1		291	2.0	2.5	/experiments/knapen_AOT/AOT_stimuli/rescaled_final/1651_fw.mp4	0.0	59.98698568344116	2.4920313358306885
4	43.66474103927612	pulse	1	t		2.0	2.5	/experiments/knapen_AOT/AOT_stimuli/rescaled_final/1651_fw.mp4	0.0	60.76232647895813	
4	45.26313233375549	pulse	1	t		2.0	2.5	/experiments/knapen_AOT/AOT_stimuli/rescaled_final/1651_fw.mp4	0.0	62.3607177734375	
4	45.381431579589844	fix_post	2		12	2.0	2.5	/experiments/knapen_AOT/AOT_stimuli/rescaled_final/1651_fw.mp4	0.0	62.47901701927185	0.10000348091125488
5	45.4814350605011	fix_pre	0		120	3.0	2.5	/experiments/knapen_AOT/AOT_stimuli/rescaled_final/0601_fw.mp4	0.0	62.579020500183105	1.0084865093231201
5	46.48992156982422	movie	1		272	3.0	2.5	/experiments/knapen_AOT/AOT_stimuli/rescaled_final/0601_fw.mp4	0.0	63.587507009506226	2.492081642150879
5	46.86527490615845	pulse	1	t		3.0	2.5	/experiments/knapen_AOT/AOT_stimuli/rescaled_final/0601_fw.mp4	0.0	63.962860345840454	
5	48.463042974472046	pulse	1	t		3.0	2.5	/experiments/knapen_AOT/AOT_stimuli/rescaled_final/0601_fw.mp4	0.0	65.56062841415405	
5	48.9820032119751	fix_post	2		12	3.0	2.5	/experiments/knapen_AOT/AOT_stimuli/rescaled_final/0601_fw.mp4	0.0	66.0795886516571	0.1000068187713623
6	49.08201003074646	fix_pre	0		119	4.0	2.5	/experiments/knapen_AOT/AOT_stimuli/rescaled_final/1649_rv.mp4	0.0	66.17959547042847	1.0005707740783691
6	50.06577277183533	pulse	0	t		4.0	2.5	/experiments/knapen_AOT/AOT_stimuli/rescaled_final/1649_rv.mp4	0.0	67.16335821151733	
6	50.08258080482483	movie	1		278	4.0	2.5	/experiments/knapen_AOT/AOT_stimuli/rescaled_final/1649_rv.mp4	0.0	67.18016624450684	2.4999232292175293
6	51.66622066497803	pulse	1	t		4.0	2.5	/experiments/knapen_AOT/AOT_stimuli/rescaled_final/1649_rv.mp4	0.0	68.76380610466003	
6	52.58250403404236	fix_post	2		12	4.0	2.5	/experiments/knapen_AOT/AOT_stimuli/rescaled_final/1649_rv.mp4	0.0	69.68008947372437	0.1000068187713623
7	52.68251085281372	fix_pre	0		120	5.0	2.5	/experiments/knapen_AOT/AOT_stimuli/rescaled_final/0057_rv.mp4	0.0	69.78009629249573	1.0085630416870117
7	53.26616930961609	pulse	0	t		5.0	2.5	/experiments/knapen_AOT/AOT_stimuli/rescaled_final/0057_rv.mp4	0.0	70.3637547492981	
7	53.69107389450073	movie	1		289	5.0	2.5	/experiments/knapen_AOT/AOT_stimuli/rescaled_final/0057_rv.mp4	0.0	70.78865933418274	2.491978883743286
7	54.86436700820923	pulse	1	t		5.0	2.5	/experiments/knapen_AOT/AOT_stimuli/rescaled_final/0057_rv.mp4	0.0	71.96195244789124	
7	56.18305277824402	fix_post	2		12	5.0	2.5	/experiments/knapen_AOT/AOT_stimuli/rescaled_final/0057_rv.mp4	0.0	73.28063821792603	0.0999915599822998
8	56.28304433822632	fix_pre	0		120	6.0	2.5	/experiments/knapen_AOT/AOT_stimuli/rescaled_final/2142_fw.mp4	0.0	73.38062977790833	1.008509874343872
8	56.466683864593506	pulse	0	t		6.0	2.5	/experiments/knapen_AOT/AOT_stimuli/rescaled_final/2142_fw.mp4	0.0	73.56426930427551	
8	57.29155421257019	movie	1		279	6.0	2.5	/experiments/knapen_AOT/AOT_stimuli/rescaled_final/2142_fw.mp4	0.0	74.3891396522522	2.492144823074341
8	58.06630516052246	pulse	1	t		6.0	2.5	/experiments/knapen_AOT/AOT_stimuli/rescaled_final/2142_fw.mp4	0.0	75.16389060020447	
8	59.66506385803223	pulse	1	t		6.0	2.5	/experiments/knapen_AOT/AOT_stimuli/rescaled_final/2142_fw.mp4	0.0	76.76264929771423	
8	59.78369903564453	fix_post	2		12	6.0	2.5	/experiments/knapen_AOT/AOT_stimuli/rescaled_final/2142_fw.mp4	0.0	76.88128447532654	0.09992051124572754
9	59.88361954689026	fix_pre	0		120	7.0	2.5	blank	1.0	76.98120498657227	1.000108003616333
9	60.88372755050659	movie	1		300	7.0	2.5	blank	1.0	77.9813129901886	2.500377655029297
9	61.26740574836731	pulse	1	t		7.0	2.5	blank	1.0	78.36499118804932	
9	62.86757564544678	pulse	1	t		7.0	2.5	blank	1.0	79.96516108512878	
9	63.38410520553589	fix_post	2		12	7.0	2.5	blank	1.0	80.4816906452179	0.10002541542053223
10	63.48413062095642	fix_pre	0		119	8.0	2.5	/experiments/knapen_AOT/AOT_stimuli/rescaled_final/0935_rv.mp4	0.0	80.58171606063843	1.0001723766326904
10	64.46801590919495	pulse	0	t		8.0	2.5	/experiments/knapen_AOT/AOT_stimuli/rescaled_final/0935_rv.mp4	0.0	81.56560134887695	
10	64.48430299758911	movie	1		273	8.0	2.5	/experiments/knapen_AOT/AOT_stimuli/rescaled_final/0935_rv.mp4	0.0	81.58188843727112	2.5004022121429443
10	66.06742238998413	pulse	1	t		8.0	2.5	/experiments/knapen_AOT/AOT_stimuli/rescaled_final/0935_rv.mp4	0.0	83.16500782966614	
10	66.98470520973206	fix_post	2		12	8.0	2.5	/experiments/knapen_AOT/AOT_stimuli/rescaled_final/0935_rv.mp4	0.0	84.08229064941406	0.0999751091003418
11	67.0846803188324	fix_pre	0		120	9.0	2.5	/experiments/knapen_AOT/AOT_stimuli/rescaled_final/0033_rv.mp4	0.0	84.1822657585144	1.0084831714630127
11	67.66832494735718	pulse	0	t		9.0	2.5	/experiments/knapen_AOT/AOT_stimuli/rescaled_final/0033_rv.mp4	0.0	84.76591038703918	
11	68.09316349029541	movie	1		281	9.0	2.5	/experiments/knapen_AOT/AOT_stimuli/rescaled_final/0033_rv.mp4	0.0	85.19074892997742	2.4920244216918945
11	69.26870322227478	pulse	1	t		9.0	2.5	/experiments/knapen_AOT/AOT_stimuli/rescaled_final/0033_rv.mp4	0.0	86.36628866195679	
11	70.5851879119873	fix_post	2		12	9.0	2.5	/experiments/knapen_AOT/AOT_stimuli/rescaled_final/0033_rv.mp4	0.0	87.68277335166931	0.10001921653747559
12	70.68520712852478	fix_pre	0		120	10.0	2.5	/experiments/knapen_AOT/AOT_stimuli/rescaled_final/2153_fw.mp4	0.0	87.78279256820679	1.0085113048553467
12	70.86876964569092	pulse	0	t		10.0	2.5	/experiments/knapen_AOT/AOT_stimuli/rescaled_final/2153_fw.mp4	0.0	87.96635508537292	
12	71.69371843338013	movie	1		266	10.0	2.5	/experiments/knapen_AOT/AOT_stimuli/rescaled_final/2153_fw.mp4	0.0	88.79130387306213	2.4920437335968018
12	72.46691703796387	pulse	1	t		10.0	2.5	/experiments/knapen_AOT/AOT_stimuli/rescaled_final/2153_fw.mp4	0.0	89.56450247764587	
12	74.06708145141602	pulse	1	t		10.0	2.5	/experiments/knapen_AOT/AOT_stimuli/rescaled_final/2153_fw.mp4	0.0	91.16466689109802	
12	74.18576216697693	fix_post	2		12	10.0	2.5	/experiments/knapen_AOT/AOT_stimuli/rescaled_final/2153_fw.mp4	0.0	91.28334760665894	0.09999394416809082
13	74.28575611114502	fix_pre	0		120	11.0	2.5	/experiments/knapen_AOT/AOT_stimuli/rescaled_final/1498_fw.mp4	0.0	91.38334155082703	1.0085034370422363
13	75.29425954818726	movie	1		280	11.0	2.5	/experiments/knapen_AOT/AOT_stimuli/rescaled_final/1498_fw.mp4	0.0	92.39184498786926	2.4921653270721436
13	75.66827344894409	pulse	1	t		11.0	2.5	/experiments/knapen_AOT/AOT_stimuli/rescaled_final/1498_fw.mp4	0.0	92.7658588886261	
13	77.26741552352905	pulse	1	t		11.0	2.5	/experiments/knapen_AOT/AOT_stimuli/rescaled_final/1498_fw.mp4	0.0	94.36500096321106	
13	77.7864248752594	fix_post	2		12	11.0	2.5	/experiments/knapen_AOT/AOT_stimuli/rescaled_final/1498_fw.mp4	0.0	94.8840103149414	0.09987282752990723
14	77.8862977027893	fix_pre	0		119	12.0	2.5	blank	1.0	94.98388314247131	0.9918031692504883
14	78.86997532844543	pulse	0	t		12.0	2.5	blank	1.0	95.96756076812744	
14	78.8781008720398	movie	1		301	12.0	2.5	blank	1.0	95.9756863117218	2.508753538131714
14	80.46260714530945	pulse	1	t		12.0	2.5	blank	1.0	97.56019258499146	
14	81.38685441017151	fix_post	2		12	12.0	2.5	blank	1.0	98.48443984985352	0.09997320175170898
15	81.48682761192322	fix_pre	0		120	13.0	2.5	/experiments/knapen_AOT/AOT_stimuli/rescaled_final/1014_rv.mp4	0.0	98.58441305160522	1.0085151195526123
15	82.06276607513428	pulse	0	t		13.0	2.5	/experiments/knapen_AOT/AOT_stimuli/rescaled_final/1014_rv.mp4	0.0	99.16035151481628	
15	82.49534273147583	movie	1		269	13.0	2.5	/experiments/knapen_AOT/AOT_stimuli/rescaled_final/1014_rv.mp4	0.0	99.59292817115784	2.4920217990875244
15	83.66252970695496	pulse	1	t		13.0	2.5	/experiments/knapen_AOT/AOT_stimuli/rescaled_final/1014_rv.mp4	0.0	100.76011514663696	
15	84.98736453056335	fix_post	2		12	13.0	2.5	/experiments/knapen_AOT/AOT_stimuli/rescaled_final/1014_rv.mp4	0.0	102.08494997024536	0.10000824928283691
16	85.08737277984619	fix_pre	0		120	14.0	2.5	/experiments/knapen_AOT/AOT_stimuli/rescaled_final/1702_rv.mp4	0.0	102.1849582195282	1.0085172653198242
16	85.26273512840271	pulse	0	t		14.0	2.5	/experiments/knapen_AOT/AOT_stimuli/rescaled_final/1702_rv.mp4	0.0	102.36032056808472	
16	86.09589004516602	movie	1		265	14.0	2.5	/experiments/knapen_AOT/AOT_stimuli/rescaled_final/1702_rv.mp4	0.0	103.19347548484802	2.492023229598999
16	86.86302757263184	pulse	1	t		14.0	2.5	/experiments/knapen_AOT/AOT_stimuli/rescaled_final/1702_rv.mp4	0.0	103.96061301231384	
16	88.46344184875488	pulse	1	t		14.0	2.5	/experiments/knapen_AOT/AOT_stimuli/rescaled_final/1702_rv.mp4	0.0	105.56102728843689	
16	88.58791327476501	fix_post	2		12	14.0	2.5	/experiments/knapen_AOT/AOT_stimuli/rescaled_final/1702_rv.mp4	0.0	105.68549871444702	0.10006332397460938
17	88.68797659873962	fix_pre	0		120	15.0	2.5	/experiments/knapen_AOT/AOT_stimuli/rescaled_final/0840_fw.mp4	0.0	105.78556203842163	1.008404016494751
17	89.69638061523438	movie	1		263	15.0	2.5	/experiments/knapen_AOT/AOT_stimuli/rescaled_final/0840_fw.mp4	0.0	106.79396605491638	2.492050886154175
17	90.06338334083557	pulse	1	t		15.0	2.5	/experiments/knapen_AOT/AOT_stimuli/rescaled_final/0840_fw.mp4	0.0	107.16096878051758	
17	91.66372561454773	pulse	1	t		15.0	2.5	/experiments/knapen_AOT/AOT_stimuli/rescaled_final/0840_fw.mp4	0.0	108.76131105422974	
17	92.18843150138855	fix_post	2		12	15.0	2.5	/experiments/knapen_AOT/AOT_stimuli/rescaled_final/0840_fw.mp4	0.0	109.28601694107056	0.10006308555603027
18	92.28849458694458	fix_pre	0		118	16.0	2.5	/experiments/knapen_AOT/AOT_stimuli/rescaled_final/0452_fw.mp4	0.0	109.38608002662659	0.9917867183685303
18	93.26386094093323	pulse	0	t		16.0	2.5	/experiments/knapen_AOT/AOT_stimuli/rescaled_final/0452_fw.mp4	0.0	110.36144638061523	
18	93.28028130531311	movie	1		281	16.0	2.5	/experiments/knapen_AOT/AOT_stimuli/rescaled_final/0452_fw.mp4	0.0	110.37786674499512	2.500415563583374
18	94.8634250164032	pulse	1	t		16.0	2.5	/experiments/knapen_AOT/AOT_stimuli/rescaled_final/0452_fw.mp4	0.0	111.9610104560852	
18	95.78069686889648	fix_post	2		12	16.0	2.5	/experiments/knapen_AOT/AOT_stimuli/rescaled_final/0452_fw.mp4	0.0	112.87828230857849	0.10001897811889648
19	95.88071584701538	fix_pre	0		120	17.0	2.5	/experiments/knapen_AOT/AOT_stimuli/rescaled_final/2153_rv.mp4	0.0	112.97830128669739	1.008432388305664
19	96.46450543403625	pulse	0	t		17.0	2.5	/experiments/knapen_AOT/AOT_stimuli/rescaled_final/2153_rv.mp4	0.0	113.56209087371826	
19	96.88914823532104	movie	1		280	17.0	2.5	/experiments/knapen_AOT/AOT_stimuli/rescaled_final/2153_rv.mp4	0.0	113.98673367500305	2.492035388946533
19	98.0645432472229	pulse	1	t		17.0	2.5	/experiments/knapen_AOT/AOT_stimuli/rescaled_final/2153_rv.mp4	0.0	115.16212868690491	
19	99.38118362426758	fix_post	2		12	17.0	2.5	/experiments/knapen_AOT/AOT_stimuli/rescaled_final/2153_rv.mp4	0.0	116.47876906394958	0.10002541542053223
20	99.48120903968811	fix_pre	0		120	18.0	2.5	/experiments/knapen_AOT/AOT_stimuli/rescaled_final/1223_fw.mp4	0.0	116.57879447937012	1.0085017681121826
20	99.66479182243347	pulse	0	t		18.0	2.5	/experiments/knapen_AOT/AOT_stimuli/rescaled_final/1223_fw.mp4	0.0	116.76237726211548	
20	100.4897108078003	movie	1		268	18.0	2.5	/experiments/knapen_AOT/AOT_stimuli/rescaled_final/1223_fw.mp4	0.0	117.5872962474823	2.492016077041626
20	101.26329183578491	pulse	1	t		18.0	2.5	/experiments/knapen_AOT/AOT_stimuli/rescaled_final/1223_fw.mp4	0.0	118.36087727546692	
20	102.8630735874176	pulse	1	t		18.0	2.5	/experiments/knapen_AOT/AOT_stimuli/rescaled_final/1223_fw.mp4	0.0	119.96065902709961	
20	102.98172688484192	fix_post	2		12	18.0	2.5	/experiments/knapen_AOT/AOT_stimuli/rescaled_final/1223_fw.mp4	0.0	120.07931232452393	0.10002517700195312
21	103.08175206184387	fix_pre	0		120	19.0	2.5	/experiments/knapen_AOT/AOT_stimuli/rescaled_final/0513_fw.mp4	0.0	120.17933750152588	1.008486032485962
21	104.09023809432983	movie	1		275	19.0	2.5	/experiments/knapen_AOT/AOT_stimuli/rescaled_final/0513_fw.mp4	0.0	121.18782353401184	2.492149829864502
21	104.46404242515564	pulse	1	t		19.0	2.5	/experiments/knapen_AOT/AOT_stimuli/rescaled_final/0513_fw.mp4	0.0	121.56162786483765	
21	106.06358695030212	pulse	1	t		19.0	2.5	/experiments/knapen_AOT/AOT_stimuli/rescaled_final/0513_fw.mp4	0.0	123.16117238998413	
21	106.58238792419434	fix_post	2		12	19.0	2.5	/experiments/knapen_AOT/AOT_stimuli/rescaled_final/0513_fw.mp4	0.0	123.67997336387634	0.09990167617797852
22	106.68228960037231	fix_pre	0		119	20.0	2.5	/experiments/knapen_AOT/AOT_stimuli/rescaled_final/0701_fw.mp4	0.0	123.77987504005432	1.0001864433288574
22	107.6659882068634	pulse	0	t		20.0	2.5	/experiments/knapen_AOT/AOT_stimuli/rescaled_final/0701_fw.mp4	0.0	124.76357364654541	
22	107.68247604370117	movie	1		285	20.0	2.5	/experiments/knapen_AOT/AOT_stimuli/rescaled_final/0701_fw.mp4	0.0	124.78006148338318	2.500338315963745
22	109.26484513282776	pulse	1	t		20.0	2.5	/experiments/knapen_AOT/AOT_stimuli/rescaled_final/0701_fw.mp4	0.0	126.36243057250977	
22	110.18281435966492	fix_post	2		12	20.0	2.5	/experiments/knapen_AOT/AOT_stimuli/rescaled_final/0701_fw.mp4	0.0	127.28039979934692	0.1000068187713623
23	110.28282117843628	fix_pre	0		120	21.0	2.5	blank	1.0	127.38040661811829	1.0001676082611084
23	110.86647319793701	pulse	0	t		21.0	2.5	blank	1.0	127.96405863761902	
23	111.28298878669739	movie	1		300	21.0	2.5	blank	1.0	128.3805742263794	2.5003609657287598
23	112.46667909622192	pulse	1	t		21.0	2.5	blank	1.0	129.56426453590393	
23	113.78334975242615	fix_post	2		12	21.0	2.5	blank	1.0	130.88093519210815	0.1001737117767334
24	113.88352346420288	fix_pre	0		120	22.0	2.5	/experiments/knapen_AOT/AOT_stimuli/rescaled_final/1809_fw.mp4	0.0	130.9811089038849	1.0083370208740234
24	114.06691980361938	pulse	0	t		22.0	2.5	/experiments/knapen_AOT/AOT_stimuli/rescaled_final/1809_fw.mp4	0.0	131.1645052433014	
24	114.8918604850769	movie	1		271	22.0	2.5	/experiments/knapen_AOT/AOT_stimuli/rescaled_final/1809_fw.mp4	0.0	131.9894459247589	2.4920365810394287
24	115.66498351097107	pulse	1	t		22.0	2.5	/experiments/knapen_AOT/AOT_stimuli/rescaled_final/1809_fw.mp4	0.0	132.76256895065308	
24	117.26556324958801	pulse	1	t		22.0	2.5	/experiments/knapen_AOT/AOT_stimuli/rescaled_final/1809_fw.mp4	0.0	134.36314868927002	
24	117.38389706611633	fix_post	2		12	22.0	2.5	/experiments/knapen_AOT/AOT_stimuli/rescaled_final/1809_fw.mp4	0.0	134.48148250579834	0.10001158714294434
25	117.48390865325928	fix_pre	0		120	23.0	2.5	/experiments/knapen_AOT/AOT_stimuli/rescaled_final/1212_rv.mp4	0.0	134.58149409294128	1.0085475444793701
25	118.49245619773865	movie	1		281	23.0	2.5	/experiments/knapen_AOT/AOT_stimuli/rescaled_final/1212_rv.mp4	0.0	135.59004163742065	2.491974353790283
25	118.86636352539062	pulse	1	t		23.0	2.5	/experiments/knapen_AOT/AOT_stimuli/rescaled_final/1212_rv.mp4	0.0	135.96394896507263	
25	120.46561336517334	pulse	1	t		23.0	2.5	/experiments/knapen_AOT/AOT_stimuli/rescaled_final/1212_rv.mp4	0.0	137.56319880485535	
25	120.98443055152893	fix_post	2		12	23.0	2.5	/experiments/knapen_AOT/AOT_stimuli/rescaled_final/1212_rv.mp4	0.0	138.08201599121094	0.10003328323364258
26	121.08446383476257	fix_pre	0		119	24.0	2.5	/experiments/knapen_AOT/AOT_stimuli/rescaled_final/1412_fw.mp4	0.0	138.18204927444458	1.0001575946807861
26	122.06819677352905	pulse	0	t		24.0	2.5	/experiments/knapen_AOT/AOT_stimuli/rescaled_final/1412_fw.mp4	0.0	139.16578221321106	
26	122.08462142944336	movie	1		271	24.0	2.5	/experiments/knapen_AOT/AOT_stimuli/rescaled_final/1412_fw.mp4	0.0	139.18220686912537	2.508746862411499
26	123.6667308807373	pulse	1	t		24.0	2.5	/experiments/knapen_AOT/AOT_stimuli/rescaled_final/1412_fw.mp4	0.0	140.7643163204193	
26	124.59336829185486	fix_post	2		11	24.0	2.5	/experiments/knapen_AOT/AOT_stimuli/rescaled_final/1412_fw.mp4	0.0	141.69095373153687	0.09165334701538086
27	124.68502163887024	fix_pre	0		120	25.0	2.5	/experiments/knapen_AOT/AOT_stimuli/rescaled_final/0028_fw.mp4	0.0	141.78260707855225	1.0084710121154785
27	125.26884770393372	pulse	0	t		25.0	2.5	/experiments/knapen_AOT/AOT_stimuli/rescaled_final/0028_fw.mp4	0.0	142.36643314361572	
27	125.69349265098572	movie	1		276	25.0	2.5	/experiments/knapen_AOT/AOT_stimuli/rescaled_final/0028_fw.mp4	0.0	142.79107809066772	2.4920191764831543
27	126.86704659461975	pulse	1	t		25.0	2.5	/experiments/knapen_AOT/AOT_stimuli/rescaled_final/0028_fw.mp4	0.0	143.96463203430176	
27	128.18551182746887	fix_post	2		12	25.0	2.5	/experiments/knapen_AOT/AOT_stimuli/rescaled_final/0028_fw.mp4	0.0	145.28309726715088	0.10002946853637695
28	128.28554129600525	fix_pre	0		120	26.0	2.5	blank	1.0	145.38312673568726	1.0001695156097412
28	128.46914982795715	pulse	0	t		26.0	2.5	blank	1.0	145.56673526763916	
28	129.285710811615	movie	1		300	26.0	2.5	blank	1.0	146.383296251297	2.5003302097320557
28	130.0693576335907	pulse	1	t		26.0	2.5	blank	1.0	147.1669430732727	
28	131.66958951950073	pulse	1	t		26.0	2.5	blank	1.0	148.76717495918274	
28	131.78604102134705	fix_post	2		12	26.0	2.5	blank	1.0	148.88362646102905	0.10004043579101562
29	131.88608145713806	fix_pre	0		120	27.0	2.5	/experiments/knapen_AOT/AOT_stimuli/rescaled_final/1248_fw.mp4	0.0	148.98366689682007	1.0084826946258545
29	132.89456415176392	movie	1		282	27.0	2.5	/experiments/knapen_AOT/AOT_stimuli/rescaled_final/1248_fw.mp4	0.0	149.99214959144592	2.4921133518218994
29	133.26991081237793	pulse	1	t		27.0	2.5	/experiments/knapen_AOT/AOT_stimuli/rescaled_final/1248_fw.mp4	0.0	150.36749625205994	
29	134.86801862716675	pulse	1	t		27.0	2.5	/experiments/knapen_AOT/AOT_stimuli/rescaled_final/1248_fw.mp4	0.0	151.96560406684875	
29	135.38667750358582	fix_post	2		12	27.0	2.5	/experiments/knapen_AOT/AOT_stimuli/rescaled_final/1248_fw.mp4	0.0	152.48426294326782	0.10004091262817383
30	135.486718416214	fix_pre	0		119	28.0	2.5	/experiments/knapen_AOT/AOT_stimuli/rescaled_final/0541_rv.mp4	0.0	152.584303855896	1.0000524520874023
30	136.47034168243408	pulse	0	t		28.0	2.5	/experiments/knapen_AOT/AOT_stimuli/rescaled_final/0541_rv.mp4	0.0	153.5679271221161	
30	136.4867708683014	movie	1		279	28.0	2.5	/experiments/knapen_AOT/AOT_stimuli/rescaled_final/0541_rv.mp4	0.0	153.5843563079834	2.500380516052246
30	138.06870889663696	pulse	1	t		28.0	2.5	/experiments/knapen_AOT/AOT_stimuli/rescaled_final/0541_rv.mp4	0.0	155.16629433631897	
30	138.98715138435364	fix_post	2		12	28.0	2.5	/experiments/knapen_AOT/AOT_stimuli/rescaled_final/0541_rv.mp4	0.0	156.08473682403564	0.1000204086303711
31	139.087171792984	fix_pre	0		120	29.0	2.5	/experiments/knapen_AOT/AOT_stimuli/rescaled_final/1807_rv.mp4	0.0	156.18475723266602	1.0085437297821045
31	139.6631669998169	pulse	0	t		29.0	2.5	/experiments/knapen_AOT/AOT_stimuli/rescaled_final/1807_rv.mp4	0.0	156.7607524394989	
31	140.0957155227661	movie	1		277	29.0	2.5	/experiments/knapen_AOT/AOT_stimuli/rescaled_final/1807_rv.mp4	0.0	157.19330096244812	2.4919803142547607
31	141.26302671432495	pulse	1	t		29.0	2.5	/experiments/knapen_AOT/AOT_stimuli/rescaled_final/1807_rv.mp4	0.0	158.36061215400696	
31	142.58769583702087	fix_post	2		12	29.0	2.5	/experiments/knapen_AOT/AOT_stimuli/rescaled_final/1807_rv.mp4	0.0	159.68528127670288	0.10000467300415039
32	142.68770051002502	fix_pre	0		120	30.0	2.5	/experiments/knapen_AOT/AOT_stimuli/rescaled_final/1704_rv.mp4	0.0	159.78528594970703	1.0085556507110596
32	142.863046169281	pulse	0	t		30.0	2.5	/experiments/knapen_AOT/AOT_stimuli/rescaled_final/1704_rv.mp4	0.0	159.960631608963	
32	143.69625616073608	movie	1		272	30.0	2.5	/experiments/knapen_AOT/AOT_stimuli/rescaled_final/1704_rv.mp4	0.0	160.7938416004181	2.4919543266296387
32	144.4632170200348	pulse	1	t		30.0	2.5	/experiments/knapen_AOT/AOT_stimuli/rescaled_final/1704_rv.mp4	0.0	161.5608024597168	
32	146.06317329406738	pulse	1	t		30.0	2.5	/experiments/knapen_AOT/AOT_stimuli/rescaled_final/1704_rv.mp4	0.0	163.1607587337494	
32	146.18821048736572	fix_post	2		12	30.0	2.5	/experiments/knapen_AOT/AOT_stimuli/rescaled_final/1704_rv.mp4	0.0	163.28579592704773	0.10004496574401855
33	146.28825545310974	fix_pre	0		120	31.0	2.5	/experiments/knapen_AOT/AOT_stimuli/rescaled_final/1965_fw.mp4	0.0	163.38584089279175	1.0085484981536865
33	147.29680395126343	movie	1		267	31.0	2.5	/experiments/knapen_AOT/AOT_stimuli/rescaled_final/1965_fw.mp4	0.0	164.39438939094543	2.491947889328003
33	147.6637258529663	pulse	1	t		31.0	2.5	/experiments/knapen_AOT/AOT_stimuli/rescaled_final/1965_fw.mp4	0.0	164.76131129264832	
33	149.2640860080719	pulse	1	t		31.0	2.5	/experiments/knapen_AOT/AOT_stimuli/rescaled_final/1965_fw.mp4	0.0	166.3616714477539	
33	149.78875184059143	fix_post	2		12	31.0	2.5	/experiments/knapen_AOT/AOT_stimuli/rescaled_final/1965_fw.mp4	0.0	166.88633728027344	0.10002803802490234
34	149.88877987861633	fix_pre	0		118	32.0	2.5	/experiments/knapen_AOT/AOT_stimuli/rescaled_final/1182_fw.mp4	0.0	166.98636531829834	0.9918026924133301
34	150.86414504051208	pulse	0	t		32.0	2.5	/experiments/knapen_AOT/AOT_stimuli/rescaled_final/1182_fw.mp4	0.0	167.9617304801941	
34	150.88058257102966	movie	1		278	32.0	2.5	/experiments/knapen_AOT/AOT_stimuli/rescaled_final/1182_fw.mp4	0.0	167.97816801071167	2.500377893447876
34	152.46450209617615	pulse	1	t		32.0	2.5	/experiments/knapen_AOT/AOT_stimuli/rescaled_final/1182_fw.mp4	0.0	169.56208753585815	
34	153.38096046447754	fix_post	2		12	32.0	2.5	/experiments/knapen_AOT/AOT_stimuli/rescaled_final/1182_fw.mp4	0.0	170.47854590415955	0.10006594657897949
35	153.48102641105652	fix_pre	0		120	33.0	2.5	blank	1.0	170.57861185073853	1.0000896453857422
35	154.06467986106873	pulse	0	t		33.0	2.5	blank	1.0	171.16226530075073	
35	154.48111605644226	movie	1		300	33.0	2.5	blank	1.0	171.57870149612427	2.500401020050049
35	155.66495180130005	pulse	1	t		33.0	2.5	blank	1.0	172.76253724098206	
35	156.9815170764923	fix_post	2		12	33.0	2.5	blank	1.0	174.07910251617432	0.10000014305114746
36	157.08151721954346	fix_pre	0		120	34.0	2.5	/experiments/knapen_AOT/AOT_stimuli/rescaled_final/0002_fw.mp4	0.0	174.17910265922546	1.0085053443908691
36	157.2651014328003	pulse	0	t		34.0	2.5	/experiments/knapen_AOT/AOT_stimuli/rescaled_final/0002_fw.mp4	0.0	174.3626868724823	
36	158.09002256393433	movie	1		278	34.0	2.5	/experiments/knapen_AOT/AOT_stimuli/rescaled_final/0002_fw.mp4	0.0	175.18760800361633	2.492025136947632
36	158.86560368537903	pulse	1	t		34.0	2.5	/experiments/knapen_AOT/AOT_stimuli/rescaled_final/0002_fw.mp4	0.0	175.96318912506104	
36	160.46370601654053	pulse	1	t		34.0	2.5	/experiments/knapen_AOT/AOT_stimuli/rescaled_final/0002_fw.mp4	0.0	177.56129145622253	
36	160.58204770088196	fix_post	2		12	34.0	2.5	/experiments/knapen_AOT/AOT_stimuli/rescaled_final/0002_fw.mp4	0.0	177.67963314056396	0.10001993179321289
37	160.68206763267517	fix_pre	0		120	35.0	2.5	/experiments/knapen_AOT/AOT_stimuli/rescaled_final/1135_rv.mp4	0.0	177.77965307235718	1.0085039138793945
37	161.69057154655457	movie	1		281	35.0	2.5	/experiments/knapen_AOT/AOT_stimuli/rescaled_final/1135_rv.mp4	0.0	178.78815698623657	2.4920592308044434
37	162.06539297103882	pulse	1	t		35.0	2.5	/experiments/knapen_AOT/AOT_stimuli/rescaled_final/1135_rv.mp4	0.0	179.16297841072083	
37	163.66368079185486	pulse	1	t		35.0	2.5	/experiments/knapen_AOT/AOT_stimuli/rescaled_final/1135_rv.mp4	0.0	180.76126623153687	
37	164.182630777359	fix_post	2		12	35.0	2.5	/experiments/knapen_AOT/AOT_stimuli/rescaled_final/1135_rv.mp4	0.0	181.28021621704102	0.09998083114624023
38	164.28261160850525	fix_pre	0		119	36.0	2.5	/experiments/knapen_AOT/AOT_stimuli/rescaled_final/0428_rv.mp4	0.0	181.38019704818726	1.0001707077026367
38	165.26631212234497	pulse	0	t		36.0	2.5	/experiments/knapen_AOT/AOT_stimuli/rescaled_final/0428_rv.mp4	0.0	182.36389756202698	
38	165.28278231620789	movie	1		281	36.0	2.5	/experiments/knapen_AOT/AOT_stimuli/rescaled_final/0428_rv.mp4	0.0	182.3803677558899	2.500335931777954
38	166.86518001556396	pulse	1	t		36.0	2.5	/experiments/knapen_AOT/AOT_stimuli/rescaled_final/0428_rv.mp4	0.0	183.96276545524597	
38	167.78311824798584	fix_post	2		12	36.0	2.5	/experiments/knapen_AOT/AOT_stimuli/rescaled_final/0428_rv.mp4	0.0	184.88070368766785	0.10002636909484863
39	167.8831446170807	fix_pre	0		120	37.0	2.5	/experiments/knapen_AOT/AOT_stimuli/rescaled_final/1343_fw.mp4	0.0	184.9807300567627	1.0085172653198242
39	168.4667775630951	pulse	0	t		37.0	2.5	/experiments/knapen_AOT/AOT_stimuli/rescaled_final/1343_fw.mp4	0.0	185.5643630027771	
39	168.8916618824005	movie	1		287	37.0	2.5	/experiments/knapen_AOT/AOT_stimuli/rescaled_final/1343_fw.mp4	0.0	185.98924732208252	2.4920411109924316
39	170.06508469581604	pulse	1	t		37.0	2.5	/experiments/knapen_AOT/AOT_stimuli/rescaled_final/1343_fw.mp4	0.0	187.16267013549805	
39	171.38370299339294	fix_post	2		12	37.0	2.5	/experiments/knapen_AOT/AOT_stimuli/rescaled_final/1343_fw.mp4	0.0	188.48128843307495	0.10003113746643066
40	171.48373413085938	fix_pre	0		120	38.0	2.5	/experiments/knapen_AOT/AOT_stimuli/rescaled_final/1310_rv.mp4	0.0	188.58131957054138	1.008453130722046
40	171.66730165481567	pulse	0	t		38.0	2.5	/experiments/knapen_AOT/AOT_stimuli/rescaled_final/1310_rv.mp4	0.0	188.76488709449768	
40	172.49218726158142	movie	1		272	38.0	2.5	/experiments/knapen_AOT/AOT_stimuli/rescaled_final/1310_rv.mp4	0.0	189.58977270126343	2.4920246601104736
40	173.26541233062744	pulse	1	t		38.0	2.5	/experiments/knapen_AOT/AOT_stimuli/rescaled_final/1310_rv.mp4	0.0	190.36299777030945	
40	174.86582493782043	pulse	1	t		38.0	2.5	/experiments/knapen_AOT/AOT_stimuli/rescaled_final/1310_rv.mp4	0.0	191.96341037750244	
40	174.9842119216919	fix_post	2		12	38.0	2.5	/experiments/knapen_AOT/AOT_stimuli/rescaled_final/1310_rv.mp4	0.0	192.0817973613739	0.10007643699645996
41	175.08428835868835	fix_pre	0		120	39.0	2.5	/experiments/knapen_AOT/AOT_stimuli/rescaled_final/1294_rv.mp4	0.0	192.18187379837036	1.0084447860717773
41	176.09273314476013	movie	1		285	39.0	2.5	/experiments/knapen_AOT/AOT_stimuli/rescaled_final/1294_rv.mp4	0.0	193.19031858444214	2.492016315460205
41	176.46650314331055	pulse	1	t		39.0	2.5	/experiments/knapen_AOT/AOT_stimuli/rescaled_final/1294_rv.mp4	0.0	193.56408858299255	
41	178.06592869758606	pulse	1	t		39.0	2.5	/experiments/knapen_AOT/AOT_stimuli/rescaled_final/1294_rv.mp4	0.0	195.16351413726807	
41	178.58474946022034	fix_post	2		12	39.0	2.5	/experiments/knapen_AOT/AOT_stimuli/rescaled_final/1294_rv.mp4	0.0	195.68233489990234	0.10002422332763672
42	178.68477368354797	fix_pre	0		119	40.0	2.5	/experiments/knapen_AOT/AOT_stimuli/rescaled_final/0031_rv.mp4	0.0	195.78235912322998	1.0001530647277832
42	179.668438911438	pulse	0	t		40.0	2.5	/experiments/knapen_AOT/AOT_stimuli/rescaled_final/0031_rv.mp4	0.0	196.76602435112	
42	179.68492674827576	movie	1		278	40.0	2.5	/experiments/knapen_AOT/AOT_stimuli/rescaled_final/0031_rv.mp4	0.0	196.78251218795776	2.500452995300293
42	181.2674388885498	pulse	1	t		40.0	2.5	/experiments/knapen_AOT/AOT_stimuli/rescaled_final/0031_rv.mp4	0.0	198.3650243282318	
42	182.18537974357605	fix_post	2		12	40.0	2.5	/experiments/knapen_AOT/AOT_stimuli/rescaled_final/0031_rv.mp4	0.0	199.28296518325806	0.09993696212768555
43	182.28531670570374	fix_pre	0		120	41.0	2.5	blank	1.0	199.38290214538574	1.0001444816589355
43	182.86898636817932	pulse	0	t		41.0	2.5	blank	1.0	199.96657180786133	
43	183.28546118736267	movie	1		300	41.0	2.5	blank	1.0	200.38304662704468	2.500370502471924
43	184.4692120552063	pulse	1	t		41.0	2.5	blank	1.0	201.5667974948883	
43	185.7858316898346	fix_post	2		12	41.0	2.5	blank	1.0	202.8834171295166	0.10001826286315918
44	185.88584995269775	fix_pre	0		120	42.0	2.5	/experiments/knapen_AOT/AOT_stimuli/rescaled_final/0974_rv.mp4	0.0	202.98343539237976	1.008495569229126
44	186.06960153579712	pulse	0	t		42.0	2.5	/experiments/knapen_AOT/AOT_stimuli/rescaled_final/0974_rv.mp4	0.0	203.16718697547913	
44	186.89434552192688	movie	1		277	42.0	2.5	/experiments/knapen_AOT/AOT_stimuli/rescaled_final/0974_rv.mp4	0.0	203.9919309616089	2.492020606994629
44	187.66851329803467	pulse	1	t		42.0	2.5	/experiments/knapen_AOT/AOT_stimuli/rescaled_final/0974_rv.mp4	0.0	204.76609873771667	
44	189.26809859275818	pulse	1	t		42.0	2.5	/experiments/knapen_AOT/AOT_stimuli/rescaled_final/0974_rv.mp4	0.0	206.36568403244019	
44	189.3863661289215	fix_post	2		12	42.0	2.5	/experiments/knapen_AOT/AOT_stimuli/rescaled_final/0974_rv.mp4	0.0	206.48395156860352	0.10009074211120605
45	189.48645687103271	fix_pre	0		120	43.0	2.5	/experiments/knapen_AOT/AOT_stimuli/rescaled_final/0055_fw.mp4	0.0	206.58404231071472	1.0084421634674072
45	190.49489903450012	movie	1		267	43.0	2.5	/experiments/knapen_AOT/AOT_stimuli/rescaled_final/0055_fw.mp4	0.0	207.59248447418213	2.4920146465301514
45	190.86901807785034	pulse	1	t		43.0	2.5	/experiments/knapen_AOT/AOT_stimuli/rescaled_final/0055_fw.mp4	0.0	207.96660351753235	
45	192.46841716766357	pulse	1	t		43.0	2.5	/experiments/knapen_AOT/AOT_stimuli/rescaled_final/0055_fw.mp4	0.0	209.56600260734558	
45	192.98691368103027	fix_post	2		12	43.0	2.5	/experiments/knapen_AOT/AOT_stimuli/rescaled_final/0055_fw.mp4	0.0	210.08449912071228	0.1000673770904541
46	193.08698105812073	fix_pre	0		119	44.0	2.5	/experiments/knapen_AOT/AOT_stimuli/rescaled_final/0308_fw.mp4	0.0	210.18456649780273	1.0085809230804443
46	194.07072234153748	pulse	0	t		44.0	2.5	/experiments/knapen_AOT/AOT_stimuli/rescaled_final/0308_fw.mp4	0.0	211.16830778121948	
46	194.09556198120117	movie	1		283	44.0	2.5	/experiments/knapen_AOT/AOT_stimuli/rescaled_final/0308_fw.mp4	0.0	211.19314742088318	2.5002431869506836
46	195.66956067085266	pulse	1	t		44.0	2.5	/experiments/knapen_AOT/AOT_stimuli/rescaled_final/0308_fw.mp4	0.0	212.76714611053467	
46	196.59580516815186	fix_post	2		11	44.0	2.5	/experiments/knapen_AOT/AOT_stimuli/rescaled_final/0308_fw.mp4	0.0	213.69339060783386	0.09169650077819824
47	196.68750166893005	fix_pre	0		120	45.0	2.5	/experiments/knapen_AOT/AOT_stimuli/rescaled_final/0360_rv.mp4	0.0	213.78508710861206	1.008474349975586
47	197.2639389038086	pulse	0	t		45.0	2.5	/experiments/knapen_AOT/AOT_stimuli/rescaled_final/0360_rv.mp4	0.0	214.3615243434906	
47	197.69597601890564	movie	1		275	45.0	2.5	/experiments/knapen_AOT/AOT_stimuli/rescaled_final/0360_rv.mp4	0.0	214.79356145858765	2.4920077323913574
47	198.86950516700745	pulse	1	t		45.0	2.5	/experiments/knapen_AOT/AOT_stimuli/rescaled_final/0360_rv.mp4	0.0	215.96709060668945	
47	200.187983751297	fix_post	2		12	45.0	2.5	/experiments/knapen_AOT/AOT_stimuli/rescaled_final/0360_rv.mp4	0.0	217.285569190979	0.10007810592651367
48	200.2880618572235	fix_pre	0		120	46.0	2.5	/experiments/knapen_AOT/AOT_stimuli/rescaled_final/1359_fw.mp4	0.0	217.38564729690552	1.0084319114685059
48	200.46340084075928	pulse	0	t		46.0	2.5	/experiments/knapen_AOT/AOT_stimuli/rescaled_final/1359_fw.mp4	0.0	217.56098628044128	
48	201.29649376869202	movie	1		266	46.0	2.5	/experiments/knapen_AOT/AOT_stimuli/rescaled_final/1359_fw.mp4	0.0	218.39407920837402	2.4920480251312256
48	202.06383275985718	pulse	1	t		46.0	2.5	/experiments/knapen_AOT/AOT_stimuli/rescaled_final/1359_fw.mp4	0.0	219.16141819953918	
48	203.66374039649963	pulse	1	t		46.0	2.5	/experiments/knapen_AOT/AOT_stimuli/rescaled_final/1359_fw.mp4	0.0	220.76132583618164	
48	203.78854179382324	fix_post	2		12	46.0	2.5	/experiments/knapen_AOT/AOT_stimuli/rescaled_final/1359_fw.mp4	0.0	220.88612723350525	0.10002422332763672
49	203.88856601715088	fix_pre	0		120	47.0	2.5	blank	1.0	220.98615145683289	1.0001370906829834
49	204.88870310783386	movie	1		300	47.0	2.5	blank	1.0	221.98628854751587	2.50038480758667
49	205.26398825645447	pulse	1	t		47.0	2.5	blank	1.0	222.36157369613647	
49	206.86423254013062	pulse	1	t		47.0	2.5	blank	1.0	223.96181797981262	
49	207.38908791542053	fix_post	2		12	47.0	2.5	blank	1.0	224.48667335510254	0.10003018379211426
50	207.48911809921265	fix_pre	0		118	48.0	2.5	/experiments/knapen_AOT/AOT_stimuli/rescaled_final/1815_rv.mp4	0.0	224.58670353889465	0.9918029308319092
50	208.4644513130188	pulse	0	t		48.0	2.5	/experiments/knapen_AOT/AOT_stimuli/rescaled_final/1815_rv.mp4	0.0	225.5620367527008	
50	208.48092103004456	movie	1		285	48.0	2.5	/experiments/knapen_AOT/AOT_stimuli/rescaled_final/1815_rv.mp4	0.0	225.57850646972656	2.5003626346588135
50	210.0647268295288	pulse	1	t		48.0	2.5	/experiments/knapen_AOT/AOT_stimuli/rescaled_final/1815_rv.mp4	0.0	227.16231226921082	
50	210.98128366470337	fix_post	2		12	48.0	2.5	/experiments/knapen_AOT/AOT_stimuli/rescaled_final/1815_rv.mp4	0.0	228.07886910438538	0.10001158714294434
51	211.0812952518463	fix_pre	0		120	49.0	2.5	/experiments/knapen_AOT/AOT_stimuli/rescaled_final/1649_fw.mp4	0.0	228.17888069152832	1.0085110664367676
51	211.66499495506287	pulse	0	t		49.0	2.5	/experiments/knapen_AOT/AOT_stimuli/rescaled_final/1649_fw.mp4	0.0	228.76258039474487	
51	212.08980631828308	movie	1		271	49.0	2.5	/experiments/knapen_AOT/AOT_stimuli/rescaled_final/1649_fw.mp4	0.0	229.1873917579651	2.492013692855835
51	213.26509594917297	pulse	1	t		49.0	2.5	/experiments/knapen_AOT/AOT_stimuli/rescaled_final/1649_fw.mp4	0.0	230.36268138885498	
51	214.58182001113892	fix_post	2		12	49.0	2.5	/experiments/knapen_AOT/AOT_stimuli/rescaled_final/1649_fw.mp4	0.0	231.67940545082092	0.10006451606750488
52	214.68188452720642	fix_pre	0		120	50.0	2.5	/experiments/knapen_AOT/AOT_stimuli/rescaled_final/1871_rv.mp4	0.0	231.77946996688843	1.0085318088531494
52	214.86541223526	pulse	0	t		50.0	2.5	/experiments/knapen_AOT/AOT_stimuli/rescaled_final/1871_rv.mp4	0.0	231.96299767494202	
52	215.69041633605957	movie	1		267	50.0	2.5	/experiments/knapen_AOT/AOT_stimuli/rescaled_final/1871_rv.mp4	0.0	232.78800177574158	2.4919443130493164
52	216.4653639793396	pulse	1	t		50.0	2.5	/experiments/knapen_AOT/AOT_stimuli/rescaled_final/1871_rv.mp4	0.0	233.5629494190216	
52	218.0639636516571	pulse	1	t		50.0	2.5	/experiments/knapen_AOT/AOT_stimuli/rescaled_final/1871_rv.mp4	0.0	235.1615490913391	
52	218.1823606491089	fix_post	2		12	50.0	2.5	/experiments/knapen_AOT/AOT_stimuli/rescaled_final/1871_rv.mp4	0.0	235.2799460887909	0.1000211238861084
53	218.282381772995	fix_pre	0		120	51.0	2.5	/experiments/knapen_AOT/AOT_stimuli/rescaled_final/1730_rv.mp4	0.0	235.379967212677	1.008509635925293
53	219.2908914089203	movie	1		260	51.0	2.5	/experiments/knapen_AOT/AOT_stimuli/rescaled_final/1730_rv.mp4	0.0	236.3884768486023	2.492163896560669
53	219.66567826271057	pulse	1	t		51.0	2.5	/experiments/knapen_AOT/AOT_stimuli/rescaled_final/1730_rv.mp4	0.0	236.76326370239258	
53	221.2641704082489	pulse	1	t		51.0	2.5	/experiments/knapen_AOT/AOT_stimuli/rescaled_final/1730_rv.mp4	0.0	238.3617558479309	
53	221.78305530548096	fix_post	2		12	51.0	2.5	/experiments/knapen_AOT/AOT_stimuli/rescaled_final/1730_rv.mp4	0.0	238.88064074516296	0.09987974166870117
54	221.88293504714966	fix_pre	0		119	52.0	2.5	/experiments/knapen_AOT/AOT_stimuli/rescaled_final/2017_rv.mp4	0.0	238.98052048683167	1.000270128250122
54	222.86670970916748	pulse	0	t		52.0	2.5	/experiments/knapen_AOT/AOT_stimuli/rescaled_final/2017_rv.mp4	0.0	239.9642951488495	
54	222.88320517539978	movie	1		287	52.0	2.5	/experiments/knapen_AOT/AOT_stimuli/rescaled_final/2017_rv.mp4	0.0	239.9807906150818	2.500239849090576
54	224.46539330482483	pulse	1	t		52.0	2.5	/experiments/knapen_AOT/AOT_stimuli/rescaled_final/2017_rv.mp4	0.0	241.56297874450684	
54	225.38344502449036	fix_post	2		12	52.0	2.5	/experiments/knapen_AOT/AOT_stimuli/rescaled_final/2017_rv.mp4	0.0	242.48103046417236	0.10003232955932617
55	225.48347735404968	fix_pre	0		120	53.0	2.5	/experiments/knapen_AOT/AOT_stimuli/rescaled_final/0649_rv.mp4	0.0	242.5810627937317	1.0084905624389648
55	226.06706881523132	pulse	0	t		53.0	2.5	/experiments/knapen_AOT/AOT_stimuli/rescaled_final/0649_rv.mp4	0.0	243.16465425491333	
55	226.49196791648865	movie	1		290	53.0	2.5	/experiments/knapen_AOT/AOT_stimuli/rescaled_final/0649_rv.mp4	0.0	243.58955335617065	2.492013692855835
55	227.6656415462494	pulse	1	t		53.0	2.5	/experiments/knapen_AOT/AOT_stimuli/rescaled_final/0649_rv.mp4	0.0	244.7632269859314	
55	228.98398160934448	fix_post	2		12	53.0	2.5	/experiments/knapen_AOT/AOT_stimuli/rescaled_final/0649_rv.mp4	0.0	246.0815670490265	0.10003542900085449
56	229.08401703834534	fix_pre	0		120	54.0	2.5	/experiments/knapen_AOT/AOT_stimuli/rescaled_final/1813_fw.mp4	0.0	246.18160247802734	1.0084731578826904
56	229.26755928993225	pulse	0	t		54.0	2.5	/experiments/knapen_AOT/AOT_stimuli/rescaled_final/1813_fw.mp4	0.0	246.36514472961426	
56	230.09249019622803	movie	1		279	54.0	2.5	/experiments/knapen_AOT/AOT_stimuli/rescaled_final/1813_fw.mp4	0.0	247.19007563591003	2.4922263622283936
56	230.86566162109375	pulse	1	t		54.0	2.5	/experiments/knapen_AOT/AOT_stimuli/rescaled_final/1813_fw.mp4	0.0	247.96324706077576	
56	232.46590614318848	pulse	1	t		54.0	2.5	/experiments/knapen_AOT/AOT_stimuli/rescaled_final/1813_fw.mp4	0.0	249.56349158287048	
56	232.58471655845642	fix_post	2		12	54.0	2.5	/experiments/knapen_AOT/AOT_stimuli/rescaled_final/1813_fw.mp4	0.0	249.68230199813843	0.09984374046325684
57	232.68456029891968	fix_pre	0		120	55.0	2.5	/experiments/knapen_AOT/AOT_stimuli/rescaled_final/1813_rv.mp4	0.0	249.78214573860168	1.0085070133209229
57	233.6930673122406	movie	1		271	55.0	2.5	/experiments/knapen_AOT/AOT_stimuli/rescaled_final/1813_rv.mp4	0.0	250.7906527519226	2.492048978805542
57	234.06669402122498	pulse	1	t		55.0	2.5	/experiments/knapen_AOT/AOT_stimuli/rescaled_final/1813_rv.mp4	0.0	251.16427946090698	
57	235.66650366783142	pulse	1	t		55.0	2.5	/experiments/knapen_AOT/AOT_stimuli/rescaled_final/1813_rv.mp4	0.0	252.76408910751343	
57	236.18511629104614	fix_post	2		12	55.0	2.5	/experiments/knapen_AOT/AOT_stimuli/rescaled_final/1813_rv.mp4	0.0	253.28270173072815	0.10002708435058594
58	236.28514337539673	fix_pre	0		119	56.0	2.5	blank	1.0	253.38272881507874	0.9917364120483398
58	237.26879000663757	pulse	0	t		56.0	2.5	blank	1.0	254.36637544631958	
58	237.27687978744507	movie	1		301	56.0	2.5	blank	1.0	254.37446522712708	2.508728504180908
58	238.8692216873169	pulse	1	t		56.0	2.5	blank	1.0	255.9668071269989	
58	239.78560829162598	fix_post	2		12	56.0	2.5	blank	1.0	256.883193731308	0.10003972053527832
59	239.88564801216125	fix_pre	0		120	57.0	2.5	/experiments/knapen_AOT/AOT_stimuli/rescaled_final/1458_fw.mp4	0.0	256.98323345184326	1.0084855556488037
59	240.4693341255188	pulse	0	t		57.0	2.5	/experiments/knapen_AOT/AOT_stimuli/rescaled_final/1458_fw.mp4	0.0	257.5669195652008	
59	240.89413356781006	movie	1		270	57.0	2.5	/experiments/knapen_AOT/AOT_stimuli/rescaled_final/1458_fw.mp4	0.0	257.99171900749207	2.4920194149017334
59	242.06783747673035	pulse	1	t		57.0	2.5	/experiments/knapen_AOT/AOT_stimuli/rescaled_final/1458_fw.mp4	0.0	259.16542291641235	
59	243.3861529827118	fix_post	2		12	57.0	2.5	/experiments/knapen_AOT/AOT_stimuli/rescaled_final/1458_fw.mp4	0.0	260.4837384223938	0.10001301765441895
60	243.4861660003662	fix_pre	0		120	58.0	2.5	/experiments/knapen_AOT/AOT_stimuli/rescaled_final/0281_rv.mp4	0.0	260.5837514400482	1.0085992813110352
60	243.66981077194214	pulse	0	t		58.0	2.5	/experiments/knapen_AOT/AOT_stimuli/rescaled_final/0281_rv.mp4	0.0	260.76739621162415	
60	244.49476528167725	movie	1		271	58.0	2.5	/experiments/knapen_AOT/AOT_stimuli/rescaled_final/0281_rv.mp4	0.0	261.59235072135925	2.4919326305389404
60	245.26920866966248	pulse	1	t		58.0	2.5	/experiments/knapen_AOT/AOT_stimuli/rescaled_final/0281_rv.mp4	0.0	262.3667941093445	
60	246.868182182312	pulse	1	t		58.0	2.5	/experiments/knapen_AOT/AOT_stimuli/rescaled_final/0281_rv.mp4	0.0	263.965767621994	
60	246.9866979122162	fix_post	2		12	58.0	2.5	/experiments/knapen_AOT/AOT_stimuli/rescaled_final/0281_rv.mp4	0.0	264.0842833518982	0.10001802444458008
61	247.08671593666077	fix_pre	0		120	59.0	2.5	/experiments/knapen_AOT/AOT_stimuli/rescaled_final/0859_rv.mp4	0.0	264.1843013763428	1.0084774494171143
61	248.09519338607788	movie	1		271	59.0	2.5	/experiments/knapen_AOT/AOT_stimuli/rescaled_final/0859_rv.mp4	0.0	265.1927788257599	2.492039680480957
61	248.4694652557373	pulse	1	t		59.0	2.5	/experiments/knapen_AOT/AOT_stimuli/rescaled_final/0859_rv.mp4	0.0	265.5670506954193	
61	250.06283020973206	pulse	1	t		59.0	2.5	/experiments/knapen_AOT/AOT_stimuli/rescaled_final/0859_rv.mp4	0.0	267.16041564941406	
61	250.58723306655884	fix_post	2		12	59.0	2.5	/experiments/knapen_AOT/AOT_stimuli/rescaled_final/0859_rv.mp4	0.0	267.68481850624084	0.10002446174621582
62	250.68725752830505	fix_pre	0		118	60.0	2.5	/experiments/knapen_AOT/AOT_stimuli/rescaled_final/1187_fw.mp4	0.0	267.78484296798706	0.9918560981750488
62	251.66276788711548	pulse	0	t		60.0	2.5	/experiments/knapen_AOT/AOT_stimuli/rescaled_final/1187_fw.mp4	0.0	268.7603533267975	
62	251.6791136264801	movie	1		280	60.0	2.5	/experiments/knapen_AOT/AOT_stimuli/rescaled_final/1187_fw.mp4	0.0	268.7766990661621	2.5003275871276855
62	253.26305294036865	pulse	1	t		60.0	2.5	/experiments/knapen_AOT/AOT_stimuli/rescaled_final/1187_fw.mp4	0.0	270.36063838005066	
62	254.1794412136078	fix_post	2		12	60.0	2.5	/experiments/knapen_AOT/AOT_stimuli/rescaled_final/1187_fw.mp4	0.0	271.2770266532898	0.10000991821289062
63	254.27945113182068	fix_pre	0		120	61.0	2.5	blank	1.0	271.3770365715027	1.0001881122589111
63	254.86315536499023	pulse	0	t		61.0	2.5	blank	1.0	271.96074080467224	
63	255.2796392440796	movie	1		300	61.0	2.5	blank	1.0	272.3772246837616	2.500349283218384
63	256.46366357803345	pulse	1	t		61.0	2.5	blank	1.0	273.56124901771545	
63	257.779988527298	fix_post	2		12	61.0	2.5	blank	1.0	274.87757396698	0.10002946853637695
64	257.88001799583435	fix_pre	0		120	62.0	2.5	/experiments/knapen_AOT/AOT_stimuli/rescaled_final/2131_rv.mp4	0.0	274.97760343551636	1.0084624290466309
64	258.0637512207031	pulse	0	t		62.0	2.5	/experiments/knapen_AOT/AOT_stimuli/rescaled_final/2131_rv.mp4	0.0	275.16133666038513	
64	258.888480424881	movie	1		280	62.0	2.5	/experiments/knapen_AOT/AOT_stimuli/rescaled_final/2131_rv.mp4	0.0	275.986065864563	2.4920356273651123
64	259.6639246940613	pulse	1	t		62.0	2.5	/experiments/knapen_AOT/AOT_stimuli/rescaled_final/2131_rv.mp4	0.0	276.7615101337433	
64	261.26402592658997	pulse	1	t		62.0	2.5	/experiments/knapen_AOT/AOT_stimuli/rescaled_final/2131_rv.mp4	0.0	278.361611366272	
64	261.3805160522461	fix_post	2		12	62.0	2.5	/experiments/knapen_AOT/AOT_stimuli/rescaled_final/2131_rv.mp4	0.0	278.4781014919281	0.10010552406311035
65	261.4806215763092	fix_pre	0		120	63.0	2.5	/experiments/knapen_AOT/AOT_stimuli/rescaled_final/1029_rv.mp4	0.0	278.5782070159912	1.0084693431854248
65	262.48909091949463	movie	1		269	63.0	2.5	/experiments/knapen_AOT/AOT_stimuli/rescaled_final/1029_rv.mp4	0.0	279.58667635917664	2.4919867515563965
65	262.8628373146057	pulse	1	t		63.0	2.5	/experiments/knapen_AOT/AOT_stimuli/rescaled_final/1029_rv.mp4	0.0	279.9604227542877	
65	264.46447801589966	pulse	1	t		63.0	2.5	/experiments/knapen_AOT/AOT_stimuli/rescaled_final/1029_rv.mp4	0.0	281.56206345558167	
65	264.981077671051	fix_post	2		12	63.0	2.5	/experiments/knapen_AOT/AOT_stimuli/rescaled_final/1029_rv.mp4	0.0	282.07866311073303	0.0999898910522461
66	265.08106756210327	fix_pre	0		119	64.0	2.5	/experiments/knapen_AOT/AOT_stimuli/rescaled_final/1300_fw.mp4	0.0	282.1786530017853	1.0001883506774902
66	266.06485414505005	pulse	0	t		64.0	2.5	/experiments/knapen_AOT/AOT_stimuli/rescaled_final/1300_fw.mp4	0.0	283.16243958473206	
66	266.08125591278076	movie	1		277	64.0	2.5	/experiments/knapen_AOT/AOT_stimuli/rescaled_final/1300_fw.mp4	0.0	283.17884135246277	2.5003652572631836
66	267.6647307872772	pulse	1	t		64.0	2.5	/experiments/knapen_AOT/AOT_stimuli/rescaled_final/1300_fw.mp4	0.0	284.76231622695923	
66	268.58162117004395	fix_post	2		12	64.0	2.5	/experiments/knapen_AOT/AOT_stimuli/rescaled_final/1300_fw.mp4	0.0	285.67920660972595	0.10002398490905762
67	268.681645154953	fix_pre	0		120	65.0	2.5	/experiments/knapen_AOT/AOT_stimuli/rescaled_final/0421_fw.mp4	0.0	285.779230594635	1.0085010528564453
67	269.2653498649597	pulse	0	t		65.0	2.5	/experiments/knapen_AOT/AOT_stimuli/rescaled_final/0421_fw.mp4	0.0	286.3629353046417	
67	269.69014620780945	movie	1		288	65.0	2.5	/experiments/knapen_AOT/AOT_stimuli/rescaled_final/0421_fw.mp4	0.0	286.78773164749146	2.4921507835388184
67	270.8641085624695	pulse	1	t		65.0	2.5	/experiments/knapen_AOT/AOT_stimuli/rescaled_final/0421_fw.mp4	0.0	287.9616940021515	
67	272.18229699134827	fix_post	2		12	65.0	2.5	/experiments/knapen_AOT/AOT_stimuli/rescaled_final/0421_fw.mp4	0.0	289.2798824310303	0.09987401962280273
68	272.28217101097107	fix_pre	0		120	66.0	2.5	/experiments/knapen_AOT/AOT_stimuli/rescaled_final/1236_fw.mp4	0.0	289.3797564506531	1.008528232574463
68	272.46573662757874	pulse	0	t		66.0	2.5	/experiments/knapen_AOT/AOT_stimuli/rescaled_final/1236_fw.mp4	0.0	289.56332206726074	
68	273.29069924354553	movie	1		291	66.0	2.5	/experiments/knapen_AOT/AOT_stimuli/rescaled_final/1236_fw.mp4	0.0	290.38828468322754	2.4919822216033936
68	274.0638768672943	pulse	1	t		66.0	2.5	/experiments/knapen_AOT/AOT_stimuli/rescaled_final/1236_fw.mp4	0.0	291.1614623069763	
68	275.6642744541168	pulse	1	t		66.0	2.5	/experiments/knapen_AOT/AOT_stimuli/rescaled_final/1236_fw.mp4	0.0	292.7618598937988	
68	275.7826814651489	fix_post	2		12	66.0	2.5	/experiments/knapen_AOT/AOT_stimuli/rescaled_final/1236_fw.mp4	0.0	292.88026690483093	0.10001230239868164
69	275.8826937675476	fix_pre	0		120	67.0	2.5	/experiments/knapen_AOT/AOT_stimuli/rescaled_final/1823_fw.mp4	0.0	292.9802792072296	1.008547067642212
69	276.8912408351898	movie	1		284	67.0	2.5	/experiments/knapen_AOT/AOT_stimuli/rescaled_final/1823_fw.mp4	0.0	293.9888262748718	2.4920268058776855
69	277.26496958732605	pulse	1	t		67.0	2.5	/experiments/knapen_AOT/AOT_stimuli/rescaled_final/1823_fw.mp4	0.0	294.36255502700806	
69	278.8647668361664	pulse	1	t		67.0	2.5	/experiments/knapen_AOT/AOT_stimuli/rescaled_final/1823_fw.mp4	0.0	295.9623522758484	
69	279.3832676410675	fix_post	2		12	67.0	2.5	/experiments/knapen_AOT/AOT_stimuli/rescaled_final/1823_fw.mp4	0.0	296.4808530807495	0.0999913215637207
70	279.4832589626312	fix_pre	0		119	68.0	2.5	/experiments/knapen_AOT/AOT_stimuli/rescaled_final/1196_fw.mp4	0.0	296.58084440231323	1.000173807144165
70	280.46693301200867	pulse	0	t		68.0	2.5	/experiments/knapen_AOT/AOT_stimuli/rescaled_final/1196_fw.mp4	0.0	297.5645184516907	
70	280.4834327697754	movie	1		277	68.0	2.5	/experiments/knapen_AOT/AOT_stimuli/rescaled_final/1196_fw.mp4	0.0	297.5810182094574	2.5003662109375
70	282.06568694114685	pulse	1	t		68.0	2.5	/experiments/knapen_AOT/AOT_stimuli/rescaled_final/1196_fw.mp4	0.0	299.16327238082886	
70	282.9837989807129	fix_post	2		12	68.0	2.5	/experiments/knapen_AOT/AOT_stimuli/rescaled_final/1196_fw.mp4	0.0	300.0813844203949	0.10002779960632324
71	283.0838267803192	fix_pre	0		120	69.0	2.5	blank	1.0	300.1814122200012	1.0001215934753418
71	283.66749000549316	pulse	0	t		69.0	2.5	blank	1.0	300.76507544517517	
71	284.08394837379456	movie	1		300	69.0	2.5	blank	1.0	301.18153381347656	2.5003764629364014
71	285.26774549484253	pulse	1	t		69.0	2.5	blank	1.0	302.36533093452454	
71	286.58432483673096	fix_post	2		12	69.0	2.5	blank	1.0	303.68191027641296	0.10000228881835938
72	286.6843271255493	fix_pre	0		120	70.0	2.5	/experiments/knapen_AOT/AOT_stimuli/rescaled_final/1807_fw.mp4	0.0	303.7819125652313	1.0087013244628906
72	286.8678948879242	pulse	0	t		70.0	2.5	/experiments/knapen_AOT/AOT_stimuli/rescaled_final/1807_fw.mp4	0.0	303.9654803276062	
72	287.6930284500122	movie	1		276	70.0	2.5	/experiments/knapen_AOT/AOT_stimuli/rescaled_final/1807_fw.mp4	0.0	304.7906138896942	2.4918172359466553
72	288.4661920070648	pulse	1	t		70.0	2.5	/experiments/knapen_AOT/AOT_stimuli/rescaled_final/1807_fw.mp4	0.0	305.5637774467468	
72	290.0666079521179	pulse	1	t		70.0	2.5	/experiments/knapen_AOT/AOT_stimuli/rescaled_final/1807_fw.mp4	0.0	307.1641933917999	
72	290.18484568595886	fix_post	2		12	70.0	2.5	/experiments/knapen_AOT/AOT_stimuli/rescaled_final/1807_fw.mp4	0.0	307.28243112564087	0.10004830360412598
73	290.284893989563	fix_pre	0		120	71.0	2.5	/experiments/knapen_AOT/AOT_stimuli/rescaled_final/2022_rv.mp4	0.0	307.382479429245	1.0084547996520996
73	291.2933487892151	movie	1		274	71.0	2.5	/experiments/knapen_AOT/AOT_stimuli/rescaled_final/2022_rv.mp4	0.0	308.3909342288971	2.4920547008514404
73	291.66734743118286	pulse	1	t		71.0	2.5	/experiments/knapen_AOT/AOT_stimuli/rescaled_final/2022_rv.mp4	0.0	308.76493287086487	
73	293.26693296432495	pulse	1	t		71.0	2.5	/experiments/knapen_AOT/AOT_stimuli/rescaled_final/2022_rv.mp4	0.0	310.36451840400696	
73	293.7854034900665	fix_post	2		12	71.0	2.5	/experiments/knapen_AOT/AOT_stimuli/rescaled_final/2022_rv.mp4	0.0	310.88298892974854	0.10001707077026367
74	293.8854205608368	fix_pre	0		119	72.0	2.5	/experiments/knapen_AOT/AOT_stimuli/rescaled_final/1236_rv.mp4	0.0	310.9830060005188	1.000173807144165
74	294.8692729473114	pulse	0	t		72.0	2.5	/experiments/knapen_AOT/AOT_stimuli/rescaled_final/1236_rv.mp4	0.0	311.9668583869934	
74	294.88559436798096	movie	1		283	72.0	2.5	/experiments/knapen_AOT/AOT_stimuli/rescaled_final/1236_rv.mp4	0.0	311.98317980766296	2.500349760055542
74	296.46752285957336	pulse	1	t		72.0	2.5	/experiments/knapen_AOT/AOT_stimuli/rescaled_final/1236_rv.mp4	0.0	313.56510829925537	
74	297.3859441280365	fix_post	2		12	72.0	2.5	/experiments/knapen_AOT/AOT_stimuli/rescaled_final/1236_rv.mp4	0.0	314.4835295677185	0.09999895095825195
75	297.48594307899475	fix_pre	0		119	73.0	2.5	/experiments/knapen_AOT/AOT_stimuli/rescaled_final/1042_rv.mp4	0.0	314.58352851867676	1.0084733963012695
75	298.0695836544037	pulse	0	t		73.0	2.5	/experiments/knapen_AOT/AOT_stimuli/rescaled_final/1042_rv.mp4	0.0	315.1671690940857	
75	298.494416475296	movie	1		279	73.0	2.5	/experiments/knapen_AOT/AOT_stimuli/rescaled_final/1042_rv.mp4	0.0	315.592001914978	2.4921209812164307
75	299.66832542419434	pulse	1	t		73.0	2.5	/experiments/knapen_AOT/AOT_stimuli/rescaled_final/1042_rv.mp4	0.0	316.76591086387634	
75	300.98653745651245	fix_post	2		12	73.0	2.5	/experiments/knapen_AOT/AOT_stimuli/rescaled_final/1042_rv.mp4	0.0	318.08412289619446	0.1000669002532959
76	301.08660435676575	fix_pre	0		120	74.0	2.5	/experiments/knapen_AOT/AOT_stimuli/rescaled_final/1898_fw.mp4	0.0	318.18418979644775	1.0083951950073242
76	301.26350140571594	pulse	0	t		74.0	2.5	/experiments/knapen_AOT/AOT_stimuli/rescaled_final/1898_fw.mp4	0.0	318.36108684539795	
76	302.09499955177307	movie	1		291	74.0	2.5	/experiments/knapen_AOT/AOT_stimuli/rescaled_final/1898_fw.mp4	0.0	319.1925849914551	2.4920263290405273
76	302.86883783340454	pulse	1	t		74.0	2.5	/experiments/knapen_AOT/AOT_stimuli/rescaled_final/1898_fw.mp4	0.0	319.96642327308655	
76	304.4687612056732	pulse	1	t		74.0	2.5	/experiments/knapen_AOT/AOT_stimuli/rescaled_final/1898_fw.mp4	0.0	321.5663466453552	
76	304.5870258808136	fix_post	2		12	74.0	2.5	/experiments/knapen_AOT/AOT_stimuli/rescaled_final/1898_fw.mp4	0.0	321.6846113204956	0.10000419616699219
77	304.6870300769806	fix_pre	0		120	75.0	2.5	blank	1.0	321.7846155166626	1.0002520084381104
77	305.6872820854187	movie	1		300	75.0	2.5	blank	1.0	322.7848675251007	2.5003488063812256
77	306.06384110450745	pulse	1	t		75.0	2.5	blank	1.0	323.16142654418945	
77	307.66318368911743	pulse	1	t		75.0	2.5	blank	1.0	324.76076912879944	
77	308.1876308917999	fix_post	2		12	75.0	2.5	blank	1.0	325.28521633148193	0.09998774528503418
78	308.28761863708496	fix_pre	0		118	76.0	2.5	/experiments/knapen_AOT/AOT_stimuli/rescaled_final/0945_rv.mp4	0.0	325.38520407676697	0.9918417930603027
78	309.26324105262756	pulse	0	t		76.0	2.5	/experiments/knapen_AOT/AOT_stimuli/rescaled_final/0945_rv.mp4	0.0	326.36082649230957	
78	309.27946043014526	movie	1		277	76.0	2.5	/experiments/knapen_AOT/AOT_stimuli/rescaled_final/0945_rv.mp4	0.0	326.37704586982727	2.5003514289855957
78	310.8717849254608	pulse	1	t		76.0	2.5	/experiments/knapen_AOT/AOT_stimuli/rescaled_final/0945_rv.mp4	0.0	327.9693703651428	
78	311.77981185913086	fix_post	2		12	76.0	2.5	/experiments/knapen_AOT/AOT_stimuli/rescaled_final/0945_rv.mp4	0.0	328.87739729881287	0.10000729560852051
79	311.8798191547394	fix_pre	0		120	77.0	2.5	/experiments/knapen_AOT/AOT_stimuli/rescaled_final/0642_fw.mp4	0.0	328.9774045944214	1.0084500312805176
79	312.4635181427002	pulse	0	t		77.0	2.5	/experiments/knapen_AOT/AOT_stimuli/rescaled_final/0642_fw.mp4	0.0	329.5611035823822	
79	312.8882691860199	movie	1		271	77.0	2.5	/experiments/knapen_AOT/AOT_stimuli/rescaled_final/0642_fw.mp4	0.0	329.9858546257019	2.4920494556427
79	314.06391286849976	pulse	1	t		77.0	2.5	/experiments/knapen_AOT/AOT_stimuli/rescaled_final/0642_fw.mp4	0.0	331.16149830818176	
79	315.3803186416626	fix_post	2		12	77.0	2.5	/experiments/knapen_AOT/AOT_stimuli/rescaled_final/0642_fw.mp4	0.0	332.4779040813446	0.10001325607299805
80	315.4803318977356	fix_pre	0		120	78.0	2.5	/experiments/knapen_AOT/AOT_stimuli/rescaled_final/1226_rv.mp4	0.0	332.5779173374176	1.008460521697998
80	315.66398906707764	pulse	0	t		78.0	2.5	/experiments/knapen_AOT/AOT_stimuli/rescaled_final/1226_rv.mp4	0.0	332.76157450675964	
80	316.4887924194336	movie	1		270	78.0	2.5	/experiments/knapen_AOT/AOT_stimuli/rescaled_final/1226_rv.mp4	0.0	333.5863778591156	2.492079973220825
80	317.264208316803	pulse	1	t		78.0	2.5	/experiments/knapen_AOT/AOT_stimuli/rescaled_final/1226_rv.mp4	0.0	334.361793756485	
80	318.8635983467102	pulse	1	t		78.0	2.5	/experiments/knapen_AOT/AOT_stimuli/rescaled_final/1226_rv.mp4	0.0	335.9611837863922	
80	318.9808723926544	fix_post	2		12	78.0	2.5	/experiments/knapen_AOT/AOT_stimuli/rescaled_final/1226_rv.mp4	0.0	336.0784578323364	0.10004115104675293
81	319.0809135437012	fix_pre	0		120	79.0	2.5	/experiments/knapen_AOT/AOT_stimuli/rescaled_final/0463_fw.mp4	0.0	336.1784989833832	1.008450984954834
81	320.089364528656	movie	1		271	79.0	2.5	/experiments/knapen_AOT/AOT_stimuli/rescaled_final/0463_fw.mp4	0.0	337.186949968338	2.492171049118042
81	320.4635422229767	pulse	1	t		79.0	2.5	/experiments/knapen_AOT/AOT_stimuli/rescaled_final/0463_fw.mp4	0.0	337.5611276626587	
81	322.06486678123474	pulse	1	t		79.0	2.5	/experiments/knapen_AOT/AOT_stimuli/rescaled_final/0463_fw.mp4	0.0	339.16245222091675	
81	322.58153557777405	fix_post	2		12	79.0	2.5	/experiments/knapen_AOT/AOT_stimuli/rescaled_final/0463_fw.mp4	0.0	339.67912101745605	0.09987592697143555
82	322.6814115047455	fix_pre	0		119	80.0	2.5	/experiments/knapen_AOT/AOT_stimuli/rescaled_final/2024_rv.mp4	0.0	339.7789969444275	1.0001287460327148
82	323.6652669906616	pulse	0	t		80.0	2.5	/experiments/knapen_AOT/AOT_stimuli/rescaled_final/2024_rv.mp4	0.0	340.7628524303436	
82	323.6815402507782	movie	1		275	80.0	2.5	/experiments/knapen_AOT/AOT_stimuli/rescaled_final/2024_rv.mp4	0.0	340.7791256904602	2.5004444122314453
82	325.2637438774109	pulse	1	t		80.0	2.5	/experiments/knapen_AOT/AOT_stimuli/rescaled_final/2024_rv.mp4	0.0	342.3613293170929	
82	326.18198466300964	fix_post	2		11	80.0	2.5	/experiments/knapen_AOT/AOT_stimuli/rescaled_final/2024_rv.mp4	0.0	343.27957010269165	0.09999704360961914
83	326.28198170661926	fix_pre	0		120	81.0	2.5	/experiments/knapen_AOT/AOT_stimuli/rescaled_final/0601_fw.mp4	0.0	343.37956714630127	1.0084545612335205
83	326.86581325531006	pulse	0	t		81.0	2.5	/experiments/knapen_AOT/AOT_stimuli/rescaled_final/0601_fw.mp4	0.0	343.96339869499207	
83	327.2904362678528	movie	1		274	81.0	2.5	/experiments/knapen_AOT/AOT_stimuli/rescaled_final/0601_fw.mp4	0.0	344.3880217075348	2.4920237064361572
83	328.4641070365906	pulse	1	t		81.0	2.5	/experiments/knapen_AOT/AOT_stimuli/rescaled_final/0601_fw.mp4	0.0	345.5616924762726	
83	329.78245997428894	fix_post	2		12	81.0	2.5	/experiments/knapen_AOT/AOT_stimuli/rescaled_final/0601_fw.mp4	0.0	346.88004541397095	0.10005688667297363
84	329.8825168609619	fix_pre	0		120	82.0	2.5	/experiments/knapen_AOT/AOT_stimuli/rescaled_final/1273_rv.mp4	0.0	346.9801023006439	1.0084795951843262
84	330.06608486175537	pulse	0	t		82.0	2.5	/experiments/knapen_AOT/AOT_stimuli/rescaled_final/1273_rv.mp4	0.0	347.1636703014374	
84	330.89099645614624	movie	1		285	82.0	2.5	/experiments/knapen_AOT/AOT_stimuli/rescaled_final/1273_rv.mp4	0.0	347.98858189582825	2.492079973220825
84	331.66418051719666	pulse	1	t		82.0	2.5	/experiments/knapen_AOT/AOT_stimuli/rescaled_final/1273_rv.mp4	0.0	348.76176595687866	
84	333.26438331604004	pulse	1	t		82.0	2.5	/experiments/knapen_AOT/AOT_stimuli/rescaled_final/1273_rv.mp4	0.0	350.36196875572205	
84	333.38307642936707	fix_post	2		12	82.0	2.5	/experiments/knapen_AOT/AOT_stimuli/rescaled_final/1273_rv.mp4	0.0	350.4806618690491	0.09997940063476562
85	333.48305583000183	fix_pre	0		120	83.0	2.5	blank	1.0	350.58064126968384	1.0001013278961182
85	334.48315715789795	movie	1		300	83.0	2.5	blank	1.0	351.58074259757996	2.5004470348358154
85	334.86683678627014	pulse	1	t		83.0	2.5	blank	1.0	351.96442222595215	
85	336.46708512306213	pulse	1	t		83.0	2.5	blank	1.0	353.56467056274414	
85	336.98360419273376	fix_post	2		12	83.0	2.5	blank	1.0	354.08118963241577	0.0999593734741211
87	337.0835635662079	stim	0		1715					354.1811490058899	14.29382061958313
87	338.06742453575134	pulse	0	t						355.16500997543335	
87	339.66746616363525	pulse	0	t						356.76505160331726	
87	341.26772379875183	pulse	0	t						358.36530923843384	
87	342.86816334724426	pulse	0	t						359.96574878692627	
87	344.46821999549866	pulse	0	t						361.56580543518066	
87	346.06847953796387	pulse	0	t						363.1660649776459	
87	347.6687150001526	pulse	0	t						364.7663004398346	
87	349.26895213127136	pulse	0	t						366.36653757095337	
87	350.86916518211365	pulse	0	t						367.96675062179565	
