trial_nr	onset	event_type	phase	response	nr_frames	movie_index	movie_duration	movie_file	blank	onset_abs	duration
0	0.16663408279418945	stim	0		76					18.932891368865967	0.6333885192871094
0	0.791771650314331	response	0	space						19.55802893638611	
1	0.8000226020812988	stim	0		4563					19.566279888153076	38.04111313819885
1	38.83091115951538	pulse	0	t						57.59716844558716	
1	38.84113574028015	stim	1		1715					57.60739302635193	14.300015449523926
1	40.422895431518555	pulse	1	t						59.18915271759033	
1	42.02306056022644	pulse	1	t						60.78931784629822	
1	43.62321734428406	pulse	1	t						62.389474630355835	
1	45.22343611717224	pulse	1	t						63.98969340324402	
1	46.82387137413025	pulse	1	t						65.59012866020203	
1	48.42393398284912	pulse	1	t						67.1901912689209	
1	50.02417755126953	pulse	1	t						68.79043483734131	
1	51.62446069717407	pulse	1	t						70.39071798324585	
2	53.14115118980408	fix_pre	0		11	0.0	2.5	/experiments/Knapen_AOT/AOT_stimuli/rescaled_final/1169_rv.mp4	0.0	71.90740847587585	0.10840177536010742
2	53.22467112541199	pulse	0	t		0.0	2.5	/experiments/Knapen_AOT/AOT_stimuli/rescaled_final/1169_rv.mp4	0.0	71.99092841148376	
2	53.249552965164185	movie	1		288	0.0	2.5	/experiments/Knapen_AOT/AOT_stimuli/rescaled_final/1169_rv.mp4	0.0	72.01581025123596	2.4919729232788086
2	54.82432198524475	pulse	1	t		0.0	2.5	/experiments/Knapen_AOT/AOT_stimuli/rescaled_final/1169_rv.mp4	0.0	73.59057927131653	
2	55.74152588844299	fix_post	2		12	0.0	2.5	/experiments/Knapen_AOT/AOT_stimuli/rescaled_final/1169_rv.mp4	0.0	74.50778317451477	0.10002779960632324
3	55.841553688049316	fix_pre	0		120	1.0	2.5	/experiments/Knapen_AOT/AOT_stimuli/rescaled_final/1102_fw.mp4	0.0	74.6078109741211	1.0085422992706299
3	56.425190925598145	pulse	0	t		1.0	2.5	/experiments/Knapen_AOT/AOT_stimuli/rescaled_final/1102_fw.mp4	0.0	75.19144821166992	
3	56.850095987319946	movie	1		289	1.0	2.5	/experiments/Knapen_AOT/AOT_stimuli/rescaled_final/1102_fw.mp4	0.0	75.61635327339172	2.491999626159668
3	58.02358031272888	pulse	1	t		1.0	2.5	/experiments/Knapen_AOT/AOT_stimuli/rescaled_final/1102_fw.mp4	0.0	76.78983759880066	
3	59.342095613479614	fix_post	2		12	1.0	2.5	/experiments/Knapen_AOT/AOT_stimuli/rescaled_final/1102_fw.mp4	0.0	78.10835289955139	0.09999728202819824
4	59.44209289550781	fix_pre	0		120	2.0	2.5	/experiments/Knapen_AOT/AOT_stimuli/rescaled_final/0648_fw.mp4	0.0	78.20835018157959	1.008545160293579
4	59.62617826461792	pulse	0	t		2.0	2.5	/experiments/Knapen_AOT/AOT_stimuli/rescaled_final/0648_fw.mp4	0.0	78.3924355506897	
4	60.45063805580139	movie	1		284	2.0	2.5	/experiments/Knapen_AOT/AOT_stimuli/rescaled_final/0648_fw.mp4	0.0	79.21689534187317	2.4920032024383545
4	61.2259407043457	pulse	1	t		2.0	2.5	/experiments/Knapen_AOT/AOT_stimuli/rescaled_final/0648_fw.mp4	0.0	79.99219799041748	
4	62.824018478393555	pulse	1	t		2.0	2.5	/experiments/Knapen_AOT/AOT_stimuli/rescaled_final/0648_fw.mp4	0.0	81.59027576446533	
4	62.942641258239746	fix_post	2		12	2.0	2.5	/experiments/Knapen_AOT/AOT_stimuli/rescaled_final/0648_fw.mp4	0.0	81.70889854431152	0.10000348091125488
5	63.042644739151	fix_pre	0		120	3.0	2.5	/experiments/Knapen_AOT/AOT_stimuli/rescaled_final/1929_fw.mp4	0.0	81.80890202522278	1.0085248947143555
5	64.05116963386536	movie	1		285	3.0	2.5	/experiments/Knapen_AOT/AOT_stimuli/rescaled_final/1929_fw.mp4	0.0	82.81742691993713	2.4919803142547607
5	64.42481517791748	pulse	1	t		3.0	2.5	/experiments/Knapen_AOT/AOT_stimuli/rescaled_final/1929_fw.mp4	0.0	83.19107246398926	
5	66.02451372146606	pulse	1	t		3.0	2.5	/experiments/Knapen_AOT/AOT_stimuli/rescaled_final/1929_fw.mp4	0.0	84.79077100753784	
5	66.54314994812012	fix_post	2		12	3.0	2.5	/experiments/Knapen_AOT/AOT_stimuli/rescaled_final/1929_fw.mp4	0.0	85.3094072341919	0.10004496574401855
6	66.64319491386414	fix_pre	0		119	4.0	2.5	/experiments/Knapen_AOT/AOT_stimuli/rescaled_final/1654_fw.mp4	0.0	85.40945219993591	1.0002357959747314
6	67.62696647644043	pulse	0	t		4.0	2.5	/experiments/Knapen_AOT/AOT_stimuli/rescaled_final/1654_fw.mp4	0.0	86.3932237625122	
6	67.64343070983887	movie	1		286	4.0	2.5	/experiments/Knapen_AOT/AOT_stimuli/rescaled_final/1654_fw.mp4	0.0	86.40968799591064	2.5002708435058594
6	69.22546529769897	pulse	1	t		4.0	2.5	/experiments/Knapen_AOT/AOT_stimuli/rescaled_final/1654_fw.mp4	0.0	87.99172258377075	
6	70.14370155334473	fix_post	2		12	4.0	2.5	/experiments/Knapen_AOT/AOT_stimuli/rescaled_final/1654_fw.mp4	0.0	88.9099588394165	0.1000218391418457
7	70.24372339248657	fix_pre	0		120	5.0	2.5	/experiments/Knapen_AOT/AOT_stimuli/rescaled_final/0040_rv.mp4	0.0	89.00998067855835	1.0085258483886719
7	70.82737827301025	pulse	0	t		5.0	2.5	/experiments/Knapen_AOT/AOT_stimuli/rescaled_final/0040_rv.mp4	0.0	89.59363555908203	
7	71.25224924087524	movie	1		285	5.0	2.5	/experiments/Knapen_AOT/AOT_stimuli/rescaled_final/0040_rv.mp4	0.0	90.01850652694702	2.4919886589050293
7	72.42562198638916	pulse	1	t		5.0	2.5	/experiments/Knapen_AOT/AOT_stimuli/rescaled_final/0040_rv.mp4	0.0	91.19187927246094	
7	73.74423789978027	fix_post	2		12	5.0	2.5	/experiments/Knapen_AOT/AOT_stimuli/rescaled_final/0040_rv.mp4	0.0	92.51049518585205	0.10005307197570801
8	73.84429097175598	fix_pre	0		120	6.0	2.5	/experiments/Knapen_AOT/AOT_stimuli/rescaled_final/0691_rv.mp4	0.0	92.61054825782776	1.0085022449493408
8	74.01967024803162	pulse	0	t		6.0	2.5	/experiments/Knapen_AOT/AOT_stimuli/rescaled_final/0691_rv.mp4	0.0	92.7859275341034	
8	74.85279321670532	movie	1		285	6.0	2.5	/experiments/Knapen_AOT/AOT_stimuli/rescaled_final/0691_rv.mp4	0.0	93.6190505027771	2.491985321044922
8	75.61973237991333	pulse	1	t		6.0	2.5	/experiments/Knapen_AOT/AOT_stimuli/rescaled_final/0691_rv.mp4	0.0	94.38598966598511	
8	77.21995854377747	pulse	1	t		6.0	2.5	/experiments/Knapen_AOT/AOT_stimuli/rescaled_final/0691_rv.mp4	0.0	95.98621582984924	
8	77.34477853775024	fix_post	2		12	6.0	2.5	/experiments/Knapen_AOT/AOT_stimuli/rescaled_final/0691_rv.mp4	0.0	96.11103582382202	0.10001802444458008
9	77.44479656219482	fix_pre	0		120	7.0	2.5	blank	1.0	96.2110538482666	1.000152826309204
9	78.44494938850403	movie	1		300	7.0	2.5	blank	1.0	97.2112066745758	2.5003652572631836
9	78.8202109336853	pulse	1	t		7.0	2.5	blank	1.0	97.58646821975708	
9	80.42042946815491	pulse	1	t		7.0	2.5	blank	1.0	99.18668675422668	
9	80.94531464576721	fix_post	2		12	7.0	2.5	blank	1.0	99.71157193183899	0.10001039505004883
10	81.04532504081726	fix_pre	0		118	8.0	2.5	/experiments/Knapen_AOT/AOT_stimuli/rescaled_final/0832_fw.mp4	0.0	99.81158232688904	0.9918231964111328
10	82.0206024646759	pulse	0	t		8.0	2.5	/experiments/Knapen_AOT/AOT_stimuli/rescaled_final/0832_fw.mp4	0.0	100.78685975074768	
10	82.0371482372284	movie	1		288	8.0	2.5	/experiments/Knapen_AOT/AOT_stimuli/rescaled_final/0832_fw.mp4	0.0	100.80340552330017	2.5003795623779297
10	83.6209647655487	pulse	1	t		8.0	2.5	/experiments/Knapen_AOT/AOT_stimuli/rescaled_final/0832_fw.mp4	0.0	102.38722205162048	
10	84.53752779960632	fix_post	2		12	8.0	2.5	/experiments/Knapen_AOT/AOT_stimuli/rescaled_final/0832_fw.mp4	0.0	103.3037850856781	0.10002875328063965
11	84.63755655288696	fix_pre	0		120	9.0	2.5	/experiments/Knapen_AOT/AOT_stimuli/rescaled_final/2122_fw.mp4	0.0	103.40381383895874	1.0084989070892334
11	85.22114300727844	pulse	0	t		9.0	2.5	/experiments/Knapen_AOT/AOT_stimuli/rescaled_final/2122_fw.mp4	0.0	103.98740029335022	
11	85.6460554599762	movie	1		291	9.0	2.5	/experiments/Knapen_AOT/AOT_stimuli/rescaled_final/2122_fw.mp4	0.0	104.41231274604797	2.4920461177825928
11	86.82142329216003	pulse	1	t		9.0	2.5	/experiments/Knapen_AOT/AOT_stimuli/rescaled_final/2122_fw.mp4	0.0	105.58768057823181	
11	88.13810157775879	fix_post	2		12	9.0	2.5	/experiments/Knapen_AOT/AOT_stimuli/rescaled_final/2122_fw.mp4	0.0	106.90435886383057	0.09997391700744629
12	88.23807549476624	fix_pre	0		120	10.0	2.5	/experiments/Knapen_AOT/AOT_stimuli/rescaled_final/0693_fw.mp4	0.0	107.00433278083801	1.008552074432373
12	88.42168855667114	pulse	0	t		10.0	2.5	/experiments/Knapen_AOT/AOT_stimuli/rescaled_final/0693_fw.mp4	0.0	107.18794584274292	
12	89.24662756919861	movie	1		289	10.0	2.5	/experiments/Knapen_AOT/AOT_stimuli/rescaled_final/0693_fw.mp4	0.0	108.01288485527039	2.4919705390930176
12	90.01986598968506	pulse	1	t		10.0	2.5	/experiments/Knapen_AOT/AOT_stimuli/rescaled_final/0693_fw.mp4	0.0	108.78612327575684	
12	91.62055730819702	pulse	1	t		10.0	2.5	/experiments/Knapen_AOT/AOT_stimuli/rescaled_final/0693_fw.mp4	0.0	110.3868145942688	
12	91.73859810829163	fix_post	2		12	10.0	2.5	/experiments/Knapen_AOT/AOT_stimuli/rescaled_final/0693_fw.mp4	0.0	110.5048553943634	0.10002946853637695
13	91.838627576828	fix_pre	0		120	11.0	2.5	/experiments/Knapen_AOT/AOT_stimuli/rescaled_final/1028_fw.mp4	0.0	110.60488486289978	1.0085117816925049
13	92.84713935852051	movie	1		289	11.0	2.5	/experiments/Knapen_AOT/AOT_stimuli/rescaled_final/1028_fw.mp4	0.0	111.61339664459229	2.4920494556427
13	93.22078323364258	pulse	1	t		11.0	2.5	/experiments/Knapen_AOT/AOT_stimuli/rescaled_final/1028_fw.mp4	0.0	111.98704051971436	
13	94.82024335861206	pulse	1	t		11.0	2.5	/experiments/Knapen_AOT/AOT_stimuli/rescaled_final/1028_fw.mp4	0.0	113.58650064468384	
13	95.33918881416321	fix_post	2		12	11.0	2.5	/experiments/Knapen_AOT/AOT_stimuli/rescaled_final/1028_fw.mp4	0.0	114.10544610023499	0.09997081756591797
14	95.43915963172913	fix_pre	0		119	12.0	2.5	blank	1.0	114.2054169178009	0.9918415546417236
14	96.42302584648132	pulse	0	t		12.0	2.5	blank	1.0	115.1892831325531	
14	96.43100118637085	movie	1		301	12.0	2.5	blank	1.0	115.19725847244263	2.5087080001831055
14	98.02358102798462	pulse	1	t		12.0	2.5	blank	1.0	116.7898383140564	
14	98.93970918655396	fix_post	2		12	12.0	2.5	blank	1.0	117.70596647262573	0.09999656677246094
15	99.03970575332642	fix_pre	0		120	13.0	2.5	/experiments/Knapen_AOT/AOT_stimuli/rescaled_final/0798_rv.mp4	0.0	117.8059630393982	1.008502721786499
15	99.62326550483704	pulse	0	t		13.0	2.5	/experiments/Knapen_AOT/AOT_stimuli/rescaled_final/0798_rv.mp4	0.0	118.38952279090881	
15	100.04820847511292	movie	1		287	13.0	2.5	/experiments/Knapen_AOT/AOT_stimuli/rescaled_final/0798_rv.mp4	0.0	118.81446576118469	2.4920225143432617
15	101.22172164916992	pulse	1	t		13.0	2.5	/experiments/Knapen_AOT/AOT_stimuli/rescaled_final/0798_rv.mp4	0.0	119.9879789352417	
15	102.54023098945618	fix_post	2		12	13.0	2.5	/experiments/Knapen_AOT/AOT_stimuli/rescaled_final/0798_rv.mp4	0.0	121.30648827552795	0.10001087188720703
16	102.64024186134338	fix_pre	0		120	14.0	2.5	/experiments/Knapen_AOT/AOT_stimuli/rescaled_final/1123_rv.mp4	0.0	121.40649914741516	1.0084993839263916
16	102.8237509727478	pulse	0	t		14.0	2.5	/experiments/Knapen_AOT/AOT_stimuli/rescaled_final/1123_rv.mp4	0.0	121.59000825881958	
16	103.64874124526978	movie	1		289	14.0	2.5	/experiments/Knapen_AOT/AOT_stimuli/rescaled_final/1123_rv.mp4	0.0	122.41499853134155	2.4921622276306152
16	104.42205214500427	pulse	1	t		14.0	2.5	/experiments/Knapen_AOT/AOT_stimuli/rescaled_final/1123_rv.mp4	0.0	123.18830943107605	
16	106.02221393585205	pulse	1	t		14.0	2.5	/experiments/Knapen_AOT/AOT_stimuli/rescaled_final/1123_rv.mp4	0.0	124.78847122192383	
16	106.14090347290039	fix_post	2		12	14.0	2.5	/experiments/Knapen_AOT/AOT_stimuli/rescaled_final/1123_rv.mp4	0.0	124.90716075897217	0.09988093376159668
17	106.24078440666199	fix_pre	0		120	15.0	2.5	/experiments/Knapen_AOT/AOT_stimuli/rescaled_final/0854_fw.mp4	0.0	125.00704169273376	1.0085277557373047
17	107.24931216239929	movie	1		287	15.0	2.5	/experiments/Knapen_AOT/AOT_stimuli/rescaled_final/0854_fw.mp4	0.0	126.01556944847107	2.492032289505005
17	107.62281322479248	pulse	1	t		15.0	2.5	/experiments/Knapen_AOT/AOT_stimuli/rescaled_final/0854_fw.mp4	0.0	126.38907051086426	
17	109.22260761260986	pulse	1	t		15.0	2.5	/experiments/Knapen_AOT/AOT_stimuli/rescaled_final/0854_fw.mp4	0.0	127.98886489868164	
17	109.7413444519043	fix_post	2		12	15.0	2.5	/experiments/Knapen_AOT/AOT_stimuli/rescaled_final/0854_fw.mp4	0.0	128.50760173797607	0.09998345375061035
18	109.84132790565491	fix_pre	0		119	16.0	2.5	/experiments/Knapen_AOT/AOT_stimuli/rescaled_final/0062_rv.mp4	0.0	128.60758519172668	1.0002474784851074
18	110.8252444267273	pulse	0	t		16.0	2.5	/experiments/Knapen_AOT/AOT_stimuli/rescaled_final/0062_rv.mp4	0.0	129.59150171279907	
18	110.84157538414001	movie	1		294	16.0	2.5	/experiments/Knapen_AOT/AOT_stimuli/rescaled_final/0062_rv.mp4	0.0	129.6078326702118	2.5002808570861816
18	112.42373442649841	pulse	1	t		16.0	2.5	/experiments/Knapen_AOT/AOT_stimuli/rescaled_final/0062_rv.mp4	0.0	131.1899917125702	
18	113.3418562412262	fix_post	2		12	16.0	2.5	/experiments/Knapen_AOT/AOT_stimuli/rescaled_final/0062_rv.mp4	0.0	132.10811352729797	0.10004234313964844
19	113.44189858436584	fix_pre	0		120	17.0	2.5	/experiments/Knapen_AOT/AOT_stimuli/rescaled_final/0802_fw.mp4	0.0	132.20815587043762	1.008474588394165
19	114.02541494369507	pulse	0	t		17.0	2.5	/experiments/Knapen_AOT/AOT_stimuli/rescaled_final/0802_fw.mp4	0.0	132.79167222976685	
19	114.45037317276001	movie	1		288	17.0	2.5	/experiments/Knapen_AOT/AOT_stimuli/rescaled_final/0802_fw.mp4	0.0	133.2166304588318	2.4920191764831543
19	115.62384796142578	pulse	1	t		17.0	2.5	/experiments/Knapen_AOT/AOT_stimuli/rescaled_final/0802_fw.mp4	0.0	134.39010524749756	
19	116.94239234924316	fix_post	2		12	17.0	2.5	/experiments/Knapen_AOT/AOT_stimuli/rescaled_final/0802_fw.mp4	0.0	135.70864963531494	0.10001635551452637
20	117.04240870475769	fix_pre	0		120	18.0	2.5	/experiments/Knapen_AOT/AOT_stimuli/rescaled_final/1664_rv.mp4	0.0	135.80866599082947	1.0085198879241943
20	117.22592735290527	pulse	0	t		18.0	2.5	/experiments/Knapen_AOT/AOT_stimuli/rescaled_final/1664_rv.mp4	0.0	135.99218463897705	
20	118.05092859268188	movie	1		289	18.0	2.5	/experiments/Knapen_AOT/AOT_stimuli/rescaled_final/1664_rv.mp4	0.0	136.81718587875366	2.492088794708252
20	118.82425737380981	pulse	1	t		18.0	2.5	/experiments/Knapen_AOT/AOT_stimuli/rescaled_final/1664_rv.mp4	0.0	137.5905146598816	
20	120.42453241348267	pulse	1	t		18.0	2.5	/experiments/Knapen_AOT/AOT_stimuli/rescaled_final/1664_rv.mp4	0.0	139.19078969955444	
20	120.54301738739014	fix_post	2		12	18.0	2.5	/experiments/Knapen_AOT/AOT_stimuli/rescaled_final/1664_rv.mp4	0.0	139.3092746734619	0.09996819496154785
21	120.64298558235168	fix_pre	0		120	19.0	2.5	/experiments/Knapen_AOT/AOT_stimuli/rescaled_final/0466_fw.mp4	0.0	139.40924286842346	1.0084681510925293
21	121.65145373344421	movie	1		281	19.0	2.5	/experiments/Knapen_AOT/AOT_stimuli/rescaled_final/0466_fw.mp4	0.0	140.417711019516	2.4920175075531006
21	122.02501630783081	pulse	1	t		19.0	2.5	/experiments/Knapen_AOT/AOT_stimuli/rescaled_final/0466_fw.mp4	0.0	140.7912735939026	
21	123.62471103668213	pulse	1	t		19.0	2.5	/experiments/Knapen_AOT/AOT_stimuli/rescaled_final/0466_fw.mp4	0.0	142.3909683227539	
21	124.14347124099731	fix_post	2		12	19.0	2.5	/experiments/Knapen_AOT/AOT_stimuli/rescaled_final/0466_fw.mp4	0.0	142.9097285270691	0.10001111030578613
22	124.2434823513031	fix_pre	0		119	20.0	2.5	blank	1.0	143.00973963737488	0.9918251037597656
22	125.22729706764221	pulse	0	t		20.0	2.5	blank	1.0	143.993554353714	
22	125.23530745506287	movie	1		301	20.0	2.5	blank	1.0	144.00156474113464	2.508697748184204
22	126.82734036445618	pulse	1	t		20.0	2.5	blank	1.0	145.59359765052795	
22	127.74400520324707	fix_post	2		12	20.0	2.5	blank	1.0	146.51026248931885	0.10014176368713379
23	127.8441469669342	fix_pre	0		120	21.0	2.5	/experiments/Knapen_AOT/AOT_stimuli/rescaled_final/0698_rv.mp4	0.0	146.61040425300598	1.0084221363067627
23	128.42760491371155	pulse	0	t		21.0	2.5	/experiments/Knapen_AOT/AOT_stimuli/rescaled_final/0698_rv.mp4	0.0	147.19386219978333	
23	128.85256910324097	movie	1		288	21.0	2.5	/experiments/Knapen_AOT/AOT_stimuli/rescaled_final/0698_rv.mp4	0.0	147.61882638931274	2.4919769763946533
23	130.02602124214172	pulse	1	t		21.0	2.5	/experiments/Knapen_AOT/AOT_stimuli/rescaled_final/0698_rv.mp4	0.0	148.7922785282135	
23	131.34454607963562	fix_post	2		12	21.0	2.5	/experiments/Knapen_AOT/AOT_stimuli/rescaled_final/0698_rv.mp4	0.0	150.1108033657074	0.10000371932983398
24	131.44454979896545	fix_pre	0		120	22.0	2.5	/experiments/Knapen_AOT/AOT_stimuli/rescaled_final/0031_fw.mp4	0.0	150.21080708503723	1.008486032485962
24	131.62015438079834	pulse	0	t		22.0	2.5	/experiments/Knapen_AOT/AOT_stimuli/rescaled_final/0031_fw.mp4	0.0	150.38641166687012	
24	132.45303583145142	movie	1		287	22.0	2.5	/experiments/Knapen_AOT/AOT_stimuli/rescaled_final/0031_fw.mp4	0.0	151.2192931175232	2.492042303085327
24	133.22009754180908	pulse	1	t		22.0	2.5	/experiments/Knapen_AOT/AOT_stimuli/rescaled_final/0031_fw.mp4	0.0	151.98635482788086	
24	134.8202986717224	pulse	1	t		22.0	2.5	/experiments/Knapen_AOT/AOT_stimuli/rescaled_final/0031_fw.mp4	0.0	153.5865559577942	
24	134.94507813453674	fix_post	2		12	22.0	2.5	/experiments/Knapen_AOT/AOT_stimuli/rescaled_final/0031_fw.mp4	0.0	153.71133542060852	0.10001683235168457
25	135.04509496688843	fix_pre	0		120	23.0	2.5	/experiments/Knapen_AOT/AOT_stimuli/rescaled_final/0713_rv.mp4	0.0	153.8113522529602	1.0085046291351318
25	136.05359959602356	movie	1		294	23.0	2.5	/experiments/Knapen_AOT/AOT_stimuli/rescaled_final/0713_rv.mp4	0.0	154.81985688209534	2.4920570850372314
25	136.42052030563354	pulse	1	t		23.0	2.5	/experiments/Knapen_AOT/AOT_stimuli/rescaled_final/0713_rv.mp4	0.0	155.18677759170532	
25	138.02068400382996	pulse	1	t		23.0	2.5	/experiments/Knapen_AOT/AOT_stimuli/rescaled_final/0713_rv.mp4	0.0	156.78694128990173	
25	138.5456566810608	fix_post	2		12	23.0	2.5	/experiments/Knapen_AOT/AOT_stimuli/rescaled_final/0713_rv.mp4	0.0	157.31191396713257	0.09999275207519531
26	138.645649433136	fix_pre	0		118	24.0	2.5	/experiments/Knapen_AOT/AOT_stimuli/rescaled_final/0832_rv.mp4	0.0	157.41190671920776	0.9918224811553955
26	139.62093091011047	pulse	0	t		24.0	2.5	/experiments/Knapen_AOT/AOT_stimuli/rescaled_final/0832_rv.mp4	0.0	158.38718819618225	
26	139.63747191429138	movie	1		290	24.0	2.5	/experiments/Knapen_AOT/AOT_stimuli/rescaled_final/0832_rv.mp4	0.0	158.40372920036316	2.5003318786621094
26	141.2214424610138	pulse	1	t		24.0	2.5	/experiments/Knapen_AOT/AOT_stimuli/rescaled_final/0832_rv.mp4	0.0	159.98769974708557	
26	142.1378037929535	fix_post	2		12	24.0	2.5	/experiments/Knapen_AOT/AOT_stimuli/rescaled_final/0832_rv.mp4	0.0	160.90406107902527	0.10006022453308105
27	142.23786401748657	fix_pre	0		120	25.0	2.5	/experiments/Knapen_AOT/AOT_stimuli/rescaled_final/0232_rv.mp4	0.0	161.00412130355835	1.008589744567871
27	142.82141256332397	pulse	0	t		25.0	2.5	/experiments/Knapen_AOT/AOT_stimuli/rescaled_final/0232_rv.mp4	0.0	161.58766984939575	
27	143.24645376205444	movie	1		293	25.0	2.5	/experiments/Knapen_AOT/AOT_stimuli/rescaled_final/0232_rv.mp4	0.0	162.01271104812622	2.4918935298919678
27	144.42164182662964	pulse	1	t		25.0	2.5	/experiments/Knapen_AOT/AOT_stimuli/rescaled_final/0232_rv.mp4	0.0	163.18789911270142	
27	145.7383472919464	fix_post	2		12	25.0	2.5	/experiments/Knapen_AOT/AOT_stimuli/rescaled_final/0232_rv.mp4	0.0	164.5046045780182	0.10005378723144531
28	145.83840107917786	fix_pre	0		120	26.0	2.5	/experiments/Knapen_AOT/AOT_stimuli/rescaled_final/1453_rv.mp4	0.0	164.60465836524963	1.0084638595581055
28	146.02211022377014	pulse	0	t		26.0	2.5	/experiments/Knapen_AOT/AOT_stimuli/rescaled_final/1453_rv.mp4	0.0	164.78836750984192	
28	146.84686493873596	movie	1		274	26.0	2.5	/experiments/Knapen_AOT/AOT_stimuli/rescaled_final/1453_rv.mp4	0.0	165.61312222480774	2.4920411109924316
28	147.62028861045837	pulse	1	t		26.0	2.5	/experiments/Knapen_AOT/AOT_stimuli/rescaled_final/1453_rv.mp4	0.0	166.38654589653015	
28	149.22036623954773	pulse	1	t		26.0	2.5	/experiments/Knapen_AOT/AOT_stimuli/rescaled_final/1453_rv.mp4	0.0	167.9866235256195	
28	149.3389060497284	fix_post	2		12	26.0	2.5	/experiments/Knapen_AOT/AOT_stimuli/rescaled_final/1453_rv.mp4	0.0	168.10516333580017	0.10005474090576172
29	149.43896079063416	fix_pre	0		120	27.0	2.5	/experiments/Knapen_AOT/AOT_stimuli/rescaled_final/1345_rv.mp4	0.0	168.20521807670593	1.0084741115570068
29	150.44743490219116	movie	1		285	27.0	2.5	/experiments/Knapen_AOT/AOT_stimuli/rescaled_final/1345_rv.mp4	0.0	169.21369218826294	2.4920053482055664
29	150.82121992111206	pulse	1	t		27.0	2.5	/experiments/Knapen_AOT/AOT_stimuli/rescaled_final/1345_rv.mp4	0.0	169.58747720718384	
29	152.4210934638977	pulse	1	t		27.0	2.5	/experiments/Knapen_AOT/AOT_stimuli/rescaled_final/1345_rv.mp4	0.0	171.18735074996948	
29	152.93944025039673	fix_post	2		12	27.0	2.5	/experiments/Knapen_AOT/AOT_stimuli/rescaled_final/1345_rv.mp4	0.0	171.7056975364685	0.10001158714294434
30	153.03945183753967	fix_pre	0		119	28.0	2.5	blank	1.0	171.80570912361145	0.9918136596679688
30	154.02324271202087	pulse	0	t		28.0	2.5	blank	1.0	172.78949999809265	
30	154.03126549720764	movie	1		301	28.0	2.5	blank	1.0	172.79752278327942	2.508725166320801
30	155.6233413219452	pulse	1	t		28.0	2.5	blank	1.0	174.38959860801697	
30	156.53999066352844	fix_post	2		12	28.0	2.5	blank	1.0	175.30624794960022	0.1001594066619873
31	156.64015007019043	fix_pre	0		120	29.0	2.5	/experiments/Knapen_AOT/AOT_stimuli/rescaled_final/0042_fw.mp4	0.0	175.4064073562622	1.0084691047668457
31	157.2237012386322	pulse	0	t		29.0	2.5	/experiments/Knapen_AOT/AOT_stimuli/rescaled_final/0042_fw.mp4	0.0	175.98995852470398	
31	157.64861917495728	movie	1		283	29.0	2.5	/experiments/Knapen_AOT/AOT_stimuli/rescaled_final/0042_fw.mp4	0.0	176.41487646102905	2.491903781890869
31	158.82529377937317	pulse	1	t		29.0	2.5	/experiments/Knapen_AOT/AOT_stimuli/rescaled_final/0042_fw.mp4	0.0	177.59155106544495	
31	160.14052295684814	fix_post	2		12	29.0	2.5	/experiments/Knapen_AOT/AOT_stimuli/rescaled_final/0042_fw.mp4	0.0	178.90678024291992	0.1000213623046875
32	160.24054431915283	fix_pre	0		120	30.0	2.5	/experiments/Knapen_AOT/AOT_stimuli/rescaled_final/1862_fw.mp4	0.0	179.0068016052246	1.008535623550415
32	160.4241123199463	pulse	0	t		30.0	2.5	/experiments/Knapen_AOT/AOT_stimuli/rescaled_final/1862_fw.mp4	0.0	179.19036960601807	
32	161.24907994270325	movie	1		287	30.0	2.5	/experiments/Knapen_AOT/AOT_stimuli/rescaled_final/1862_fw.mp4	0.0	180.01533722877502	2.491975784301758
32	162.02240824699402	pulse	1	t		30.0	2.5	/experiments/Knapen_AOT/AOT_stimuli/rescaled_final/1862_fw.mp4	0.0	180.7886655330658	
32	163.62282609939575	pulse	1	t		30.0	2.5	/experiments/Knapen_AOT/AOT_stimuli/rescaled_final/1862_fw.mp4	0.0	182.38908338546753	
32	163.741055727005	fix_post	2		12	30.0	2.5	/experiments/Knapen_AOT/AOT_stimuli/rescaled_final/1862_fw.mp4	0.0	182.50731301307678	0.10009932518005371
33	163.84115505218506	fix_pre	0		120	31.0	2.5	/experiments/Knapen_AOT/AOT_stimuli/rescaled_final/0170_rv.mp4	0.0	182.60741233825684	1.0084235668182373
33	164.8495786190033	movie	1		281	31.0	2.5	/experiments/Knapen_AOT/AOT_stimuli/rescaled_final/0170_rv.mp4	0.0	183.61583590507507	2.4920194149017334
33	165.22324514389038	pulse	1	t		31.0	2.5	/experiments/Knapen_AOT/AOT_stimuli/rescaled_final/0170_rv.mp4	0.0	183.98950242996216	
33	166.82321524620056	pulse	1	t		31.0	2.5	/experiments/Knapen_AOT/AOT_stimuli/rescaled_final/0170_rv.mp4	0.0	185.58947253227234	
33	167.34159803390503	fix_post	2		12	31.0	2.5	/experiments/Knapen_AOT/AOT_stimuli/rescaled_final/0170_rv.mp4	0.0	186.1078553199768	0.10001373291015625
34	167.44161176681519	fix_pre	0		119	32.0	2.5	/experiments/Knapen_AOT/AOT_stimuli/rescaled_final/1691_rv.mp4	0.0	186.20786905288696	1.0001680850982666
34	168.4252417087555	pulse	0	t		32.0	2.5	/experiments/Knapen_AOT/AOT_stimuli/rescaled_final/1691_rv.mp4	0.0	187.19149899482727	
34	168.44177985191345	movie	1		287	32.0	2.5	/experiments/Knapen_AOT/AOT_stimuli/rescaled_final/1691_rv.mp4	0.0	187.20803713798523	2.5003888607025146
34	170.02423787117004	pulse	1	t		32.0	2.5	/experiments/Knapen_AOT/AOT_stimuli/rescaled_final/1691_rv.mp4	0.0	188.79049515724182	
34	170.94216871261597	fix_post	2		12	32.0	2.5	/experiments/Knapen_AOT/AOT_stimuli/rescaled_final/1691_rv.mp4	0.0	189.70842599868774	0.09999608993530273
35	171.04216480255127	fix_pre	0		120	33.0	2.5	blank	1.0	189.80842208862305	1.0001461505889893
35	171.62569165229797	pulse	0	t		33.0	2.5	blank	1.0	190.39194893836975	
35	172.04231095314026	movie	1		300	33.0	2.5	blank	1.0	190.80856823921204	2.5003435611724854
35	173.2259542942047	pulse	1	t		33.0	2.5	blank	1.0	191.9922115802765	
35	174.54265451431274	fix_post	2		12	33.0	2.5	blank	1.0	193.30891180038452	0.10002660751342773
36	174.64268112182617	fix_pre	0		120	34.0	2.5	/experiments/Knapen_AOT/AOT_stimuli/rescaled_final/0030_fw.mp4	0.0	193.40893840789795	1.0085086822509766
36	174.82616305351257	pulse	0	t		34.0	2.5	/experiments/Knapen_AOT/AOT_stimuli/rescaled_final/0030_fw.mp4	0.0	193.59242033958435	
36	175.65118980407715	movie	1		287	34.0	2.5	/experiments/Knapen_AOT/AOT_stimuli/rescaled_final/0030_fw.mp4	0.0	194.41744709014893	2.492011785507202
36	176.42478680610657	pulse	1	t		34.0	2.5	/experiments/Knapen_AOT/AOT_stimuli/rescaled_final/0030_fw.mp4	0.0	195.19104409217834	
36	178.02446174621582	pulse	1	t		34.0	2.5	/experiments/Knapen_AOT/AOT_stimuli/rescaled_final/0030_fw.mp4	0.0	196.7907190322876	
36	178.14320158958435	fix_post	2		12	34.0	2.5	/experiments/Knapen_AOT/AOT_stimuli/rescaled_final/0030_fw.mp4	0.0	196.90945887565613	0.10003280639648438
37	178.24323439598083	fix_pre	0		120	35.0	2.5	/experiments/Knapen_AOT/AOT_stimuli/rescaled_final/0887_fw.mp4	0.0	197.0094916820526	1.0084967613220215
37	179.25173115730286	movie	1		286	35.0	2.5	/experiments/Knapen_AOT/AOT_stimuli/rescaled_final/0887_fw.mp4	0.0	198.01798844337463	2.492008924484253
37	179.62605571746826	pulse	1	t		35.0	2.5	/experiments/Knapen_AOT/AOT_stimuli/rescaled_final/0887_fw.mp4	0.0	198.39231300354004	
37	181.22510313987732	pulse	1	t		35.0	2.5	/experiments/Knapen_AOT/AOT_stimuli/rescaled_final/0887_fw.mp4	0.0	199.9913604259491	
37	181.7437400817871	fix_post	2		12	35.0	2.5	/experiments/Knapen_AOT/AOT_stimuli/rescaled_final/0887_fw.mp4	0.0	200.5099973678589	0.10001802444458008
38	181.8437581062317	fix_pre	0		119	36.0	2.5	/experiments/Knapen_AOT/AOT_stimuli/rescaled_final/1070_fw.mp4	0.0	200.61001539230347	1.0001804828643799
38	182.82749962806702	pulse	0	t		36.0	2.5	/experiments/Knapen_AOT/AOT_stimuli/rescaled_final/1070_fw.mp4	0.0	201.5937569141388	
38	182.84393858909607	movie	1		288	36.0	2.5	/experiments/Knapen_AOT/AOT_stimuli/rescaled_final/1070_fw.mp4	0.0	201.61019587516785	2.5003418922424316
38	184.42737483978271	pulse	1	t		36.0	2.5	/experiments/Knapen_AOT/AOT_stimuli/rescaled_final/1070_fw.mp4	0.0	203.1936321258545	
38	185.3442804813385	fix_post	2		12	36.0	2.5	/experiments/Knapen_AOT/AOT_stimuli/rescaled_final/1070_fw.mp4	0.0	204.11053776741028	0.10006308555603027
39	185.44434356689453	fix_pre	0		120	37.0	2.5	/experiments/Knapen_AOT/AOT_stimuli/rescaled_final/1973_rv.mp4	0.0	204.2106008529663	1.008467435836792
39	186.02790117263794	pulse	0	t		37.0	2.5	/experiments/Knapen_AOT/AOT_stimuli/rescaled_final/1973_rv.mp4	0.0	204.79415845870972	
39	186.45281100273132	movie	1		293	37.0	2.5	/experiments/Knapen_AOT/AOT_stimuli/rescaled_final/1973_rv.mp4	0.0	205.2190682888031	2.4920389652252197
39	187.6264066696167	pulse	1	t		37.0	2.5	/experiments/Knapen_AOT/AOT_stimuli/rescaled_final/1973_rv.mp4	0.0	206.39266395568848	
39	188.94484996795654	fix_post	2		12	37.0	2.5	/experiments/Knapen_AOT/AOT_stimuli/rescaled_final/1973_rv.mp4	0.0	207.71110725402832	0.10000729560852051
40	189.04485726356506	fix_pre	0		120	38.0	2.5	/experiments/Knapen_AOT/AOT_stimuli/rescaled_final/2086_fw.mp4	0.0	207.81111454963684	1.008455514907837
40	189.22095561027527	pulse	0	t		38.0	2.5	/experiments/Knapen_AOT/AOT_stimuli/rescaled_final/2086_fw.mp4	0.0	207.98721289634705	
40	190.0533127784729	movie	1		292	38.0	2.5	/experiments/Knapen_AOT/AOT_stimuli/rescaled_final/2086_fw.mp4	0.0	208.81957006454468	2.4920332431793213
40	190.82058715820312	pulse	1	t		38.0	2.5	/experiments/Knapen_AOT/AOT_stimuli/rescaled_final/2086_fw.mp4	0.0	209.5868444442749	
40	192.4205641746521	pulse	1	t		38.0	2.5	/experiments/Knapen_AOT/AOT_stimuli/rescaled_final/2086_fw.mp4	0.0	211.18682146072388	
40	192.54534602165222	fix_post	2		12	38.0	2.5	/experiments/Knapen_AOT/AOT_stimuli/rescaled_final/2086_fw.mp4	0.0	211.311603307724	0.10001087188720703
41	192.64535689353943	fix_pre	0		120	39.0	2.5	/experiments/Knapen_AOT/AOT_stimuli/rescaled_final/0806_fw.mp4	0.0	211.4116141796112	1.0085206031799316
41	193.65387749671936	movie	1		283	39.0	2.5	/experiments/Knapen_AOT/AOT_stimuli/rescaled_final/0806_fw.mp4	0.0	212.42013478279114	2.492013692855835
41	194.02092957496643	pulse	1	t		39.0	2.5	/experiments/Knapen_AOT/AOT_stimuli/rescaled_final/0806_fw.mp4	0.0	212.7871868610382	
41	195.6209876537323	pulse	1	t		39.0	2.5	/experiments/Knapen_AOT/AOT_stimuli/rescaled_final/0806_fw.mp4	0.0	214.38724493980408	
41	196.1458911895752	fix_post	2		12	39.0	2.5	/experiments/Knapen_AOT/AOT_stimuli/rescaled_final/0806_fw.mp4	0.0	214.91214847564697	0.10002875328063965
42	196.24591994285583	fix_pre	0		118	40.0	2.5	blank	1.0	215.0121772289276	0.9835169315338135
42	197.2214801311493	pulse	0	t		40.0	2.5	blank	1.0	215.98773741722107	
42	197.22943687438965	movie	1		301	40.0	2.5	blank	1.0	215.99569416046143	2.5086586475372314
42	198.82145643234253	pulse	1	t		40.0	2.5	blank	1.0	217.5877137184143	
42	199.73809552192688	fix_post	2		12	40.0	2.5	blank	1.0	218.50435280799866	0.10004973411560059
43	199.83814525604248	fix_pre	0		120	41.0	2.5	/experiments/Knapen_AOT/AOT_stimuli/rescaled_final/0503_rv.mp4	0.0	218.60440254211426	1.0084989070892334
43	200.42168736457825	pulse	0	t		41.0	2.5	/experiments/Knapen_AOT/AOT_stimuli/rescaled_final/0503_rv.mp4	0.0	219.18794465065002	
43	200.8466441631317	movie	1		292	41.0	2.5	/experiments/Knapen_AOT/AOT_stimuli/rescaled_final/0503_rv.mp4	0.0	219.6129014492035	2.4919607639312744
43	202.02010560035706	pulse	1	t		41.0	2.5	/experiments/Knapen_AOT/AOT_stimuli/rescaled_final/0503_rv.mp4	0.0	220.78636288642883	
43	203.338604927063	fix_post	2		12	41.0	2.5	/experiments/Knapen_AOT/AOT_stimuli/rescaled_final/0503_rv.mp4	0.0	222.10486221313477	0.1000359058380127
44	203.438640832901	fix_pre	0		120	42.0	2.5	/experiments/Knapen_AOT/AOT_stimuli/rescaled_final/1986_rv.mp4	0.0	222.20489811897278	1.0084972381591797
44	203.62213516235352	pulse	0	t		42.0	2.5	/experiments/Knapen_AOT/AOT_stimuli/rescaled_final/1986_rv.mp4	0.0	222.3883924484253	
44	204.44713807106018	movie	1		292	42.0	2.5	/experiments/Knapen_AOT/AOT_stimuli/rescaled_final/1986_rv.mp4	0.0	223.21339535713196	2.492037296295166
44	205.2209756374359	pulse	1	t		42.0	2.5	/experiments/Knapen_AOT/AOT_stimuli/rescaled_final/1986_rv.mp4	0.0	223.9872329235077	
44	206.8209445476532	pulse	1	t		42.0	2.5	/experiments/Knapen_AOT/AOT_stimuli/rescaled_final/1986_rv.mp4	0.0	225.58720183372498	
44	206.93917536735535	fix_post	2		12	42.0	2.5	/experiments/Knapen_AOT/AOT_stimuli/rescaled_final/1986_rv.mp4	0.0	225.70543265342712	0.10002708435058594
45	207.03920245170593	fix_pre	0		120	43.0	2.5	/experiments/Knapen_AOT/AOT_stimuli/rescaled_final/0615_rv.mp4	0.0	225.8054597377777	1.0084562301635742
45	208.0476586818695	movie	1		289	43.0	2.5	/experiments/Knapen_AOT/AOT_stimuli/rescaled_final/0615_rv.mp4	0.0	226.81391596794128	2.492058038711548
45	208.42125940322876	pulse	1	t		43.0	2.5	/experiments/Knapen_AOT/AOT_stimuli/rescaled_final/0615_rv.mp4	0.0	227.18751668930054	
45	210.02260303497314	pulse	1	t		43.0	2.5	/experiments/Knapen_AOT/AOT_stimuli/rescaled_final/0615_rv.mp4	0.0	228.78886032104492	
45	210.53971672058105	fix_post	2		12	43.0	2.5	/experiments/Knapen_AOT/AOT_stimuli/rescaled_final/0615_rv.mp4	0.0	229.30597400665283	0.09999799728393555
46	210.639714717865	fix_pre	0		119	44.0	2.5	/experiments/Knapen_AOT/AOT_stimuli/rescaled_final/1536_fw.mp4	0.0	229.40597200393677	1.0001637935638428
46	211.62333011627197	pulse	0	t		44.0	2.5	/experiments/Knapen_AOT/AOT_stimuli/rescaled_final/1536_fw.mp4	0.0	230.38958740234375	
46	211.63987851142883	movie	1		291	44.0	2.5	/experiments/Knapen_AOT/AOT_stimuli/rescaled_final/1536_fw.mp4	0.0	230.4061357975006	2.5003836154937744
46	213.22229504585266	pulse	1	t		44.0	2.5	/experiments/Knapen_AOT/AOT_stimuli/rescaled_final/1536_fw.mp4	0.0	231.98855233192444	
46	214.1402621269226	fix_post	2		12	44.0	2.5	/experiments/Knapen_AOT/AOT_stimuli/rescaled_final/1536_fw.mp4	0.0	232.90651941299438	0.10001635551452637
47	214.24027848243713	fix_pre	0		120	45.0	2.5	/experiments/Knapen_AOT/AOT_stimuli/rescaled_final/1123_fw.mp4	0.0	233.0065357685089	1.0085153579711914
47	214.82381534576416	pulse	0	t		45.0	2.5	/experiments/Knapen_AOT/AOT_stimuli/rescaled_final/1123_fw.mp4	0.0	233.59007263183594	
47	215.24879384040833	movie	1		273	45.0	2.5	/experiments/Knapen_AOT/AOT_stimuli/rescaled_final/1123_fw.mp4	0.0	234.0150511264801	2.4920201301574707
47	216.42415308952332	pulse	1	t		45.0	2.5	/experiments/Knapen_AOT/AOT_stimuli/rescaled_final/1123_fw.mp4	0.0	235.1904103755951	
47	217.7408139705658	fix_post	2		12	45.0	2.5	/experiments/Knapen_AOT/AOT_stimuli/rescaled_final/1123_fw.mp4	0.0	236.50707125663757	0.10000371932983398
48	217.84081768989563	fix_pre	0		120	46.0	2.5	/experiments/Knapen_AOT/AOT_stimuli/rescaled_final/0107_rv.mp4	0.0	236.6070749759674	1.0085062980651855
48	218.02436184883118	pulse	0	t		46.0	2.5	/experiments/Knapen_AOT/AOT_stimuli/rescaled_final/0107_rv.mp4	0.0	236.79061913490295	
48	218.84932398796082	movie	1		293	46.0	2.5	/experiments/Knapen_AOT/AOT_stimuli/rescaled_final/0107_rv.mp4	0.0	237.6155812740326	2.492009401321411
48	219.6225287914276	pulse	1	t		46.0	2.5	/experiments/Knapen_AOT/AOT_stimuli/rescaled_final/0107_rv.mp4	0.0	238.3887860774994	
48	221.22305250167847	pulse	1	t		46.0	2.5	/experiments/Knapen_AOT/AOT_stimuli/rescaled_final/0107_rv.mp4	0.0	239.98930978775024	
48	221.34133338928223	fix_post	2		12	46.0	2.5	/experiments/Knapen_AOT/AOT_stimuli/rescaled_final/0107_rv.mp4	0.0	240.107590675354	0.1000373363494873
49	221.4413707256317	fix_pre	0		120	47.0	2.5	blank	1.0	240.2076280117035	1.0002622604370117
49	222.44163298606873	movie	1		300	47.0	2.5	blank	1.0	241.2078902721405	2.500272750854492
49	222.82524704933167	pulse	1	t		47.0	2.5	blank	1.0	241.59150433540344	
49	224.4253170490265	pulse	1	t		47.0	2.5	blank	1.0	243.19157433509827	
49	224.94190573692322	fix_post	2		12	47.0	2.5	blank	1.0	243.708163022995	0.0999906063079834
50	225.0418963432312	fix_pre	0		119	48.0	2.5	/experiments/Knapen_AOT/AOT_stimuli/rescaled_final/0693_fw.mp4	0.0	243.80815362930298	1.0001368522644043
50	226.02593421936035	pulse	0	t		48.0	2.5	/experiments/Knapen_AOT/AOT_stimuli/rescaled_final/0693_fw.mp4	0.0	244.79219150543213	
50	226.0420331954956	movie	1		293	48.0	2.5	/experiments/Knapen_AOT/AOT_stimuli/rescaled_final/0693_fw.mp4	0.0	244.80829048156738	2.500389337539673
50	227.6242651939392	pulse	1	t		48.0	2.5	/experiments/Knapen_AOT/AOT_stimuli/rescaled_final/0693_fw.mp4	0.0	246.390522480011	
50	228.54242253303528	fix_post	2		12	48.0	2.5	/experiments/Knapen_AOT/AOT_stimuli/rescaled_final/0693_fw.mp4	0.0	247.30867981910706	0.10004329681396484
51	228.64246582984924	fix_pre	0		120	49.0	2.5	/experiments/Knapen_AOT/AOT_stimuli/rescaled_final/0113_fw.mp4	0.0	247.40872311592102	1.0084762573242188
51	229.22605657577515	pulse	0	t		49.0	2.5	/experiments/Knapen_AOT/AOT_stimuli/rescaled_final/0113_fw.mp4	0.0	247.99231386184692	
51	229.65094208717346	movie	1		292	49.0	2.5	/experiments/Knapen_AOT/AOT_stimuli/rescaled_final/0113_fw.mp4	0.0	248.41719937324524	2.4920594692230225
51	230.82462644577026	pulse	1	t		49.0	2.5	/experiments/Knapen_AOT/AOT_stimuli/rescaled_final/0113_fw.mp4	0.0	249.59088373184204	
51	232.14300155639648	fix_post	2		12	49.0	2.5	/experiments/Knapen_AOT/AOT_stimuli/rescaled_final/0113_fw.mp4	0.0	250.90925884246826	0.10004568099975586
52	232.24304723739624	fix_pre	0		120	50.0	2.5	/experiments/Knapen_AOT/AOT_stimuli/rescaled_final/0763_fw.mp4	0.0	251.00930452346802	1.0085017681121826
52	232.42666149139404	pulse	0	t		50.0	2.5	/experiments/Knapen_AOT/AOT_stimuli/rescaled_final/0763_fw.mp4	0.0	251.19291877746582	
52	233.25154900550842	movie	1		287	50.0	2.5	/experiments/Knapen_AOT/AOT_stimuli/rescaled_final/0763_fw.mp4	0.0	252.0178062915802	2.491975784301758
52	234.02488613128662	pulse	1	t		50.0	2.5	/experiments/Knapen_AOT/AOT_stimuli/rescaled_final/0763_fw.mp4	0.0	252.7911434173584	
52	235.62544703483582	pulse	1	t		50.0	2.5	/experiments/Knapen_AOT/AOT_stimuli/rescaled_final/0763_fw.mp4	0.0	254.3917043209076	
52	235.74352478981018	fix_post	2		12	50.0	2.5	/experiments/Knapen_AOT/AOT_stimuli/rescaled_final/0763_fw.mp4	0.0	254.50978207588196	0.10001707077026367
53	235.84354186058044	fix_pre	0		120	51.0	2.5	/experiments/Knapen_AOT/AOT_stimuli/rescaled_final/1661_rv.mp4	0.0	254.60979914665222	1.008518934249878
53	236.85206079483032	movie	1		282	51.0	2.5	/experiments/Knapen_AOT/AOT_stimuli/rescaled_final/1661_rv.mp4	0.0	255.6183180809021	2.492048978805542
53	237.22548079490662	pulse	1	t		51.0	2.5	/experiments/Knapen_AOT/AOT_stimuli/rescaled_final/1661_rv.mp4	0.0	255.9917380809784	
53	238.82575273513794	pulse	1	t		51.0	2.5	/experiments/Knapen_AOT/AOT_stimuli/rescaled_final/1661_rv.mp4	0.0	257.5920100212097	
53	239.34410977363586	fix_post	2		12	51.0	2.5	/experiments/Knapen_AOT/AOT_stimuli/rescaled_final/1661_rv.mp4	0.0	258.11036705970764	0.10005640983581543
54	239.44416618347168	fix_pre	0		119	52.0	2.5	/experiments/Knapen_AOT/AOT_stimuli/rescaled_final/1140_rv.mp4	0.0	258.21042346954346	1.0000152587890625
54	240.41983604431152	pulse	0	t		52.0	2.5	/experiments/Knapen_AOT/AOT_stimuli/rescaled_final/1140_rv.mp4	0.0	259.1860933303833	
54	240.44418144226074	movie	1		290	52.0	2.5	/experiments/Knapen_AOT/AOT_stimuli/rescaled_final/1140_rv.mp4	0.0	259.2104387283325	2.5004255771636963
54	242.01991772651672	pulse	1	t		52.0	2.5	/experiments/Knapen_AOT/AOT_stimuli/rescaled_final/1140_rv.mp4	0.0	260.7861750125885	
54	242.94460701942444	fix_post	2		12	52.0	2.5	/experiments/Knapen_AOT/AOT_stimuli/rescaled_final/1140_rv.mp4	0.0	261.7108643054962	0.09999394416809082
55	243.04460096359253	fix_pre	0		120	53.0	2.5	/experiments/Knapen_AOT/AOT_stimuli/rescaled_final/0982_fw.mp4	0.0	261.8108582496643	1.0085675716400146
55	243.61994695663452	pulse	0	t		53.0	2.5	/experiments/Knapen_AOT/AOT_stimuli/rescaled_final/0982_fw.mp4	0.0	262.3862042427063	
55	244.05316853523254	movie	1		282	53.0	2.5	/experiments/Knapen_AOT/AOT_stimuli/rescaled_final/0982_fw.mp4	0.0	262.8194258213043	2.491999387741089
55	245.22054433822632	pulse	1	t		53.0	2.5	/experiments/Knapen_AOT/AOT_stimuli/rescaled_final/0982_fw.mp4	0.0	263.9868016242981	
55	246.54516792297363	fix_post	2		12	53.0	2.5	/experiments/Knapen_AOT/AOT_stimuli/rescaled_final/0982_fw.mp4	0.0	265.3114252090454	0.10000109672546387
56	246.6451690196991	fix_pre	0		120	54.0	2.5	blank	1.0	265.4114263057709	1.000105857849121
56	246.82040357589722	pulse	0	t		54.0	2.5	blank	1.0	265.586660861969	
56	247.64527487754822	movie	1		300	54.0	2.5	blank	1.0	266.41153216362	2.500386953353882
56	248.42055869102478	pulse	1	t		54.0	2.5	blank	1.0	267.18681597709656	
56	250.02084970474243	pulse	1	t		54.0	2.5	blank	1.0	268.7871069908142	
56	250.1456618309021	fix_post	2		12	54.0	2.5	blank	1.0	268.9119191169739	0.10007071495056152
57	250.24573254585266	fix_pre	0		120	55.0	2.5	/experiments/Knapen_AOT/AOT_stimuli/rescaled_final/0116_fw.mp4	0.0	269.01198983192444	1.008465051651001
57	251.25419759750366	movie	1		291	55.0	2.5	/experiments/Knapen_AOT/AOT_stimuli/rescaled_final/0116_fw.mp4	0.0	270.02045488357544	2.492037057876587
57	251.62131571769714	pulse	1	t		55.0	2.5	/experiments/Knapen_AOT/AOT_stimuli/rescaled_final/0116_fw.mp4	0.0	270.3875730037689	
57	253.2213728427887	pulse	1	t		55.0	2.5	/experiments/Knapen_AOT/AOT_stimuli/rescaled_final/0116_fw.mp4	0.0	271.9876301288605	
57	253.74623465538025	fix_post	2		12	55.0	2.5	/experiments/Knapen_AOT/AOT_stimuli/rescaled_final/0116_fw.mp4	0.0	272.512491941452	0.10001516342163086
58	253.84624981880188	fix_pre	0		118	56.0	2.5	/experiments/Knapen_AOT/AOT_stimuli/rescaled_final/0614_fw.mp4	0.0	272.61250710487366	0.9917850494384766
58	254.82160019874573	pulse	0	t		56.0	2.5	/experiments/Knapen_AOT/AOT_stimuli/rescaled_final/0614_fw.mp4	0.0	273.5878574848175	
58	254.83803486824036	movie	1		283	56.0	2.5	/experiments/Knapen_AOT/AOT_stimuli/rescaled_final/0614_fw.mp4	0.0	273.60429215431213	2.500361204147339
58	256.42062497138977	pulse	1	t		56.0	2.5	/experiments/Knapen_AOT/AOT_stimuli/rescaled_final/0614_fw.mp4	0.0	275.18688225746155	
58	257.3383960723877	fix_post	2		12	56.0	2.5	/experiments/Knapen_AOT/AOT_stimuli/rescaled_final/0614_fw.mp4	0.0	276.1046533584595	0.10003376007080078
59	257.4384298324585	fix_pre	0		120	57.0	2.5	/experiments/Knapen_AOT/AOT_stimuli/rescaled_final/0145_fw.mp4	0.0	276.2046871185303	1.0084948539733887
59	258.02211022377014	pulse	0	t		57.0	2.5	/experiments/Knapen_AOT/AOT_stimuli/rescaled_final/0145_fw.mp4	0.0	276.7883675098419	
59	258.4469246864319	movie	1		292	57.0	2.5	/experiments/Knapen_AOT/AOT_stimuli/rescaled_final/0145_fw.mp4	0.0	277.21318197250366	2.492202043533325
59	259.6209318637848	pulse	1	t		57.0	2.5	/experiments/Knapen_AOT/AOT_stimuli/rescaled_final/0145_fw.mp4	0.0	278.38718914985657	
59	260.9391267299652	fix_post	2		12	57.0	2.5	/experiments/Knapen_AOT/AOT_stimuli/rescaled_final/0145_fw.mp4	0.0	279.705384016037	0.09990835189819336
60	261.0390350818634	fix_pre	0		120	58.0	2.5	/experiments/Knapen_AOT/AOT_stimuli/rescaled_final/0309_fw.mp4	0.0	279.8052923679352	1.0084357261657715
60	261.2225270271301	pulse	0	t		58.0	2.5	/experiments/Knapen_AOT/AOT_stimuli/rescaled_final/0309_fw.mp4	0.0	279.9887843132019	
60	262.0474708080292	movie	1		283	58.0	2.5	/experiments/Knapen_AOT/AOT_stimuli/rescaled_final/0309_fw.mp4	0.0	280.81372809410095	2.491988182067871
60	262.8221073150635	pulse	1	t		58.0	2.5	/experiments/Knapen_AOT/AOT_stimuli/rescaled_final/0309_fw.mp4	0.0	281.58836460113525	
60	264.4211709499359	pulse	1	t		58.0	2.5	/experiments/Knapen_AOT/AOT_stimuli/rescaled_final/0309_fw.mp4	0.0	283.1874282360077	
60	264.53945899009705	fix_post	2		12	58.0	2.5	/experiments/Knapen_AOT/AOT_stimuli/rescaled_final/0309_fw.mp4	0.0	283.3057162761688	0.10003066062927246
61	264.6394896507263	fix_pre	0		120	59.0	2.5	/experiments/Knapen_AOT/AOT_stimuli/rescaled_final/0405_fw.mp4	0.0	283.4057469367981	1.0085132122039795
61	265.6480028629303	movie	1		283	59.0	2.5	/experiments/Knapen_AOT/AOT_stimuli/rescaled_final/0405_fw.mp4	0.0	284.4142601490021	2.4920241832733154
61	266.0222828388214	pulse	1	t		59.0	2.5	/experiments/Knapen_AOT/AOT_stimuli/rescaled_final/0405_fw.mp4	0.0	284.7885401248932	
61	267.6217315196991	pulse	1	t		59.0	2.5	/experiments/Knapen_AOT/AOT_stimuli/rescaled_final/0405_fw.mp4	0.0	286.3879888057709	
61	268.1400270462036	fix_post	2		12	59.0	2.5	/experiments/Knapen_AOT/AOT_stimuli/rescaled_final/0405_fw.mp4	0.0	286.9062843322754	0.10000824928283691
62	268.24003529548645	fix_pre	0		119	60.0	2.5	/experiments/Knapen_AOT/AOT_stimuli/rescaled_final/0982_rv.mp4	0.0	287.0062925815582	1.0001740455627441
62	269.22391629219055	pulse	0	t		60.0	2.5	/experiments/Knapen_AOT/AOT_stimuli/rescaled_final/0982_rv.mp4	0.0	287.99017357826233	
62	269.2402093410492	movie	1		281	60.0	2.5	/experiments/Knapen_AOT/AOT_stimuli/rescaled_final/0982_rv.mp4	0.0	288.006466627121	2.5003468990325928
62	270.8240134716034	pulse	1	t		60.0	2.5	/experiments/Knapen_AOT/AOT_stimuli/rescaled_final/0982_rv.mp4	0.0	289.59027075767517	
62	271.7405562400818	fix_post	2		12	60.0	2.5	/experiments/Knapen_AOT/AOT_stimuli/rescaled_final/0982_rv.mp4	0.0	290.50681352615356	0.10004520416259766
63	271.8406014442444	fix_pre	0		120	61.0	2.5	/experiments/Knapen_AOT/AOT_stimuli/rescaled_final/0769_fw.mp4	0.0	290.60685873031616	1.0085294246673584
63	272.424293756485	pulse	0	t		61.0	2.5	/experiments/Knapen_AOT/AOT_stimuli/rescaled_final/0769_fw.mp4	0.0	291.19055104255676	
63	272.84913086891174	movie	1		291	61.0	2.5	/experiments/Knapen_AOT/AOT_stimuli/rescaled_final/0769_fw.mp4	0.0	291.6153881549835	2.4919679164886475
63	274.02275824546814	pulse	1	t		61.0	2.5	/experiments/Knapen_AOT/AOT_stimuli/rescaled_final/0769_fw.mp4	0.0	292.7890155315399	
63	275.3410987854004	fix_post	2		12	61.0	2.5	/experiments/Knapen_AOT/AOT_stimuli/rescaled_final/0769_fw.mp4	0.0	294.10735607147217	0.1000514030456543
64	275.44115018844604	fix_pre	0		120	62.0	2.5	/experiments/Knapen_AOT/AOT_stimuli/rescaled_final/0877_rv.mp4	0.0	294.2074074745178	1.0085771083831787
64	275.62475061416626	pulse	0	t		62.0	2.5	/experiments/Knapen_AOT/AOT_stimuli/rescaled_final/0877_rv.mp4	0.0	294.39100790023804	
64	276.4497272968292	movie	1		285	62.0	2.5	/experiments/Knapen_AOT/AOT_stimuli/rescaled_final/0877_rv.mp4	0.0	295.215984582901	2.4919185638427734
64	277.2235028743744	pulse	1	t		62.0	2.5	/experiments/Knapen_AOT/AOT_stimuli/rescaled_final/0877_rv.mp4	0.0	295.98976016044617	
64	278.8232731819153	pulse	1	t		62.0	2.5	/experiments/Knapen_AOT/AOT_stimuli/rescaled_final/0877_rv.mp4	0.0	297.58953046798706	
64	278.941645860672	fix_post	2		12	62.0	2.5	/experiments/Knapen_AOT/AOT_stimuli/rescaled_final/0877_rv.mp4	0.0	297.7079031467438	0.10002708435058594
65	279.0416729450226	fix_pre	0		120	63.0	2.5	blank	1.0	297.80793023109436	1.000145435333252
65	280.04181838035583	movie	1		300	63.0	2.5	blank	1.0	298.8080756664276	2.5005087852478027
65	280.4253959655762	pulse	1	t		63.0	2.5	blank	1.0	299.19165325164795	
65	282.0256645679474	pulse	1	t		63.0	2.5	blank	1.0	300.79192185401917	
65	282.54232716560364	fix_post	2		12	63.0	2.5	blank	1.0	301.3085844516754	0.09991097450256348
66	282.6422381401062	fix_pre	0		119	64.0	2.5	/experiments/Knapen_AOT/AOT_stimuli/rescaled_final/0643_rv.mp4	0.0	301.408495426178	1.0001087188720703
66	283.6259722709656	pulse	0	t		64.0	2.5	/experiments/Knapen_AOT/AOT_stimuli/rescaled_final/0643_rv.mp4	0.0	302.39222955703735	
66	283.64234685897827	movie	1		288	64.0	2.5	/experiments/Knapen_AOT/AOT_stimuli/rescaled_final/0643_rv.mp4	0.0	302.40860414505005	2.5003859996795654
66	285.22469663619995	pulse	1	t		64.0	2.5	/experiments/Knapen_AOT/AOT_stimuli/rescaled_final/0643_rv.mp4	0.0	303.99095392227173	
66	286.14273285865784	fix_post	2		12	64.0	2.5	/experiments/Knapen_AOT/AOT_stimuli/rescaled_final/0643_rv.mp4	0.0	304.9089901447296	0.10002994537353516
67	286.2427628040314	fix_pre	0		120	65.0	2.5	/experiments/Knapen_AOT/AOT_stimuli/rescaled_final/1902_rv.mp4	0.0	305.00902009010315	1.008530616760254
67	286.82640171051025	pulse	0	t		65.0	2.5	/experiments/Knapen_AOT/AOT_stimuli/rescaled_final/1902_rv.mp4	0.0	305.59265899658203	
67	287.2512934207916	movie	1		280	65.0	2.5	/experiments/Knapen_AOT/AOT_stimuli/rescaled_final/1902_rv.mp4	0.0	306.0175507068634	2.4919674396514893
67	288.42486023902893	pulse	1	t		65.0	2.5	/experiments/Knapen_AOT/AOT_stimuli/rescaled_final/1902_rv.mp4	0.0	307.1911175251007	
67	289.7432608604431	fix_post	2		12	65.0	2.5	/experiments/Knapen_AOT/AOT_stimuli/rescaled_final/1902_rv.mp4	0.0	308.5095181465149	0.10006117820739746
68	289.8433220386505	fix_pre	0		120	66.0	2.5	/experiments/Knapen_AOT/AOT_stimuli/rescaled_final/0100_fw.mp4	0.0	308.6095793247223	1.0085103511810303
68	290.02685832977295	pulse	0	t		66.0	2.5	/experiments/Knapen_AOT/AOT_stimuli/rescaled_final/0100_fw.mp4	0.0	308.7931156158447	
68	290.85183238983154	movie	1		292	66.0	2.5	/experiments/Knapen_AOT/AOT_stimuli/rescaled_final/0100_fw.mp4	0.0	309.6180896759033	2.4919822216033936
68	291.6249849796295	pulse	1	t		66.0	2.5	/experiments/Knapen_AOT/AOT_stimuli/rescaled_final/0100_fw.mp4	0.0	310.3912422657013	
68	293.2255675792694	pulse	1	t		66.0	2.5	/experiments/Knapen_AOT/AOT_stimuli/rescaled_final/0100_fw.mp4	0.0	311.9918248653412	
68	293.34381461143494	fix_post	2		12	66.0	2.5	/experiments/Knapen_AOT/AOT_stimuli/rescaled_final/0100_fw.mp4	0.0	312.1100718975067	0.10000729560852051
69	293.44382190704346	fix_pre	0		120	67.0	2.5	/experiments/Knapen_AOT/AOT_stimuli/rescaled_final/1673_rv.mp4	0.0	312.21007919311523	1.0085573196411133
69	294.45237922668457	movie	1		279	67.0	2.5	/experiments/Knapen_AOT/AOT_stimuli/rescaled_final/1673_rv.mp4	0.0	313.21863651275635	2.4919729232788086
69	294.826030254364	pulse	1	t		67.0	2.5	/experiments/Knapen_AOT/AOT_stimuli/rescaled_final/1673_rv.mp4	0.0	313.5922875404358	
69	296.4254720211029	pulse	1	t		67.0	2.5	/experiments/Knapen_AOT/AOT_stimuli/rescaled_final/1673_rv.mp4	0.0	315.1917293071747	
69	296.9443521499634	fix_post	2		12	67.0	2.5	/experiments/Knapen_AOT/AOT_stimuli/rescaled_final/1673_rv.mp4	0.0	315.71060943603516	0.10000920295715332
70	297.04436135292053	fix_pre	0		119	68.0	2.5	/experiments/Knapen_AOT/AOT_stimuli/rescaled_final/2041_fw.mp4	0.0	315.8106186389923	1.0001564025878906
70	298.0204744338989	pulse	0	t		68.0	2.5	/experiments/Knapen_AOT/AOT_stimuli/rescaled_final/2041_fw.mp4	0.0	316.7867317199707	
70	298.0445177555084	movie	1		279	68.0	2.5	/experiments/Knapen_AOT/AOT_stimuli/rescaled_final/2041_fw.mp4	0.0	316.8107750415802	2.500375986099243
70	299.6205720901489	pulse	1	t		68.0	2.5	/experiments/Knapen_AOT/AOT_stimuli/rescaled_final/2041_fw.mp4	0.0	318.3868293762207	
70	300.54489374160767	fix_post	2		12	68.0	2.5	/experiments/Knapen_AOT/AOT_stimuli/rescaled_final/2041_fw.mp4	0.0	319.31115102767944	0.10007786750793457
71	300.6449716091156	fix_pre	0		120	69.0	2.5	/experiments/Knapen_AOT/AOT_stimuli/rescaled_final/1862_rv.mp4	0.0	319.4112288951874	1.0084223747253418
71	301.2206473350525	pulse	0	t		69.0	2.5	/experiments/Knapen_AOT/AOT_stimuli/rescaled_final/1862_rv.mp4	0.0	319.98690462112427	
71	301.65339398384094	movie	1		287	69.0	2.5	/experiments/Knapen_AOT/AOT_stimuli/rescaled_final/1862_rv.mp4	0.0	320.4196512699127	2.492032527923584
71	302.82069516181946	pulse	1	t		69.0	2.5	/experiments/Knapen_AOT/AOT_stimuli/rescaled_final/1862_rv.mp4	0.0	321.58695244789124	
71	304.1454265117645	fix_post	2		12	69.0	2.5	/experiments/Knapen_AOT/AOT_stimuli/rescaled_final/1862_rv.mp4	0.0	322.9116837978363	0.10024905204772949
72	304.24567556381226	fix_pre	0		120	70.0	2.5	blank	1.0	323.01193284988403	1.0000486373901367
72	304.42072796821594	pulse	0	t		70.0	2.5	blank	1.0	323.1869852542877	
72	305.2457242012024	movie	1		300	70.0	2.5	blank	1.0	324.01198148727417	2.5002667903900146
72	306.02101135253906	pulse	1	t		70.0	2.5	blank	1.0	324.78726863861084	
72	307.6213426589966	pulse	1	t		70.0	2.5	blank	1.0	326.38759994506836	
72	307.7459909915924	fix_post	2		12	70.0	2.5	blank	1.0	326.5122482776642	0.09996390342712402
73	307.84595489501953	fix_pre	0		120	71.0	2.5	/experiments/Knapen_AOT/AOT_stimuli/rescaled_final/1526_fw.mp4	0.0	326.6122121810913	1.0084953308105469
73	308.8544502258301	movie	1		283	71.0	2.5	/experiments/Knapen_AOT/AOT_stimuli/rescaled_final/1526_fw.mp4	0.0	327.62070751190186	2.4921116828918457
73	309.22065114974976	pulse	1	t		71.0	2.5	/experiments/Knapen_AOT/AOT_stimuli/rescaled_final/1526_fw.mp4	0.0	327.98690843582153	
73	310.821604013443	pulse	1	t		71.0	2.5	/experiments/Knapen_AOT/AOT_stimuli/rescaled_final/1526_fw.mp4	0.0	329.58786129951477	
73	311.3465619087219	fix_post	2		12	71.0	2.5	/experiments/Knapen_AOT/AOT_stimuli/rescaled_final/1526_fw.mp4	0.0	330.1128191947937	0.09998512268066406
74	311.4465470314026	fix_pre	0		118	72.0	2.5	/experiments/Knapen_AOT/AOT_stimuli/rescaled_final/1205_rv.mp4	0.0	330.21280431747437	0.9917988777160645
74	312.42191195487976	pulse	0	t		72.0	2.5	/experiments/Knapen_AOT/AOT_stimuli/rescaled_final/1205_rv.mp4	0.0	331.18816924095154	
74	312.43834590911865	movie	1		284	72.0	2.5	/experiments/Knapen_AOT/AOT_stimuli/rescaled_final/1205_rv.mp4	0.0	331.20460319519043	2.5004186630249023
74	314.0206866264343	pulse	1	t		72.0	2.5	/experiments/Knapen_AOT/AOT_stimuli/rescaled_final/1205_rv.mp4	0.0	332.7869439125061	
74	314.93876457214355	fix_post	2		12	72.0	2.5	/experiments/Knapen_AOT/AOT_stimuli/rescaled_final/1205_rv.mp4	0.0	333.70502185821533	0.09998869895935059
75	315.0387532711029	fix_pre	0		120	73.0	2.5	/experiments/Knapen_AOT/AOT_stimuli/rescaled_final/0031_rv.mp4	0.0	333.8050105571747	1.008500099182129
75	315.6223919391632	pulse	0	t		73.0	2.5	/experiments/Knapen_AOT/AOT_stimuli/rescaled_final/0031_rv.mp4	0.0	334.388649225235	
75	316.04725337028503	movie	1		285	73.0	2.5	/experiments/Knapen_AOT/AOT_stimuli/rescaled_final/0031_rv.mp4	0.0	334.8135106563568	2.4919962882995605
75	317.2210328578949	pulse	1	t		73.0	2.5	/experiments/Knapen_AOT/AOT_stimuli/rescaled_final/0031_rv.mp4	0.0	335.9872901439667	
75	318.5392496585846	fix_post	2		12	73.0	2.5	/experiments/Knapen_AOT/AOT_stimuli/rescaled_final/0031_rv.mp4	0.0	337.3055069446564	0.10001993179321289
76	318.6392695903778	fix_pre	0		120	74.0	2.5	/experiments/Knapen_AOT/AOT_stimuli/rescaled_final/1504_fw.mp4	0.0	337.4055268764496	1.0085198879241943
76	318.8228380680084	pulse	0	t		74.0	2.5	/experiments/Knapen_AOT/AOT_stimuli/rescaled_final/1504_fw.mp4	0.0	337.5890953540802	
76	319.647789478302	movie	1		286	74.0	2.5	/experiments/Knapen_AOT/AOT_stimuli/rescaled_final/1504_fw.mp4	0.0	338.4140467643738	2.491999387741089
76	320.4215986728668	pulse	1	t		74.0	2.5	/experiments/Knapen_AOT/AOT_stimuli/rescaled_final/1504_fw.mp4	0.0	339.1878559589386	
76	322.02160000801086	pulse	1	t		74.0	2.5	/experiments/Knapen_AOT/AOT_stimuli/rescaled_final/1504_fw.mp4	0.0	340.78785729408264	
76	322.1397888660431	fix_post	2		12	74.0	2.5	/experiments/Knapen_AOT/AOT_stimuli/rescaled_final/1504_fw.mp4	0.0	340.90604615211487	0.10001826286315918
77	322.23980712890625	fix_pre	0		120	75.0	2.5	/experiments/Knapen_AOT/AOT_stimuli/rescaled_final/1454_rv.mp4	0.0	341.006064414978	1.0085415840148926
77	323.24834871292114	movie	1		287	75.0	2.5	/experiments/Knapen_AOT/AOT_stimuli/rescaled_final/1454_rv.mp4	0.0	342.0146059989929	2.4919872283935547
77	323.62222719192505	pulse	1	t		75.0	2.5	/experiments/Knapen_AOT/AOT_stimuli/rescaled_final/1454_rv.mp4	0.0	342.3884844779968	
77	325.2219786643982	pulse	1	t		75.0	2.5	/experiments/Knapen_AOT/AOT_stimuli/rescaled_final/1454_rv.mp4	0.0	343.98823595046997	
77	325.7403359413147	fix_post	2		12	75.0	2.5	/experiments/Knapen_AOT/AOT_stimuli/rescaled_final/1454_rv.mp4	0.0	344.5065932273865	0.10006237030029297
78	325.840398311615	fix_pre	0		119	76.0	2.5	/experiments/Knapen_AOT/AOT_stimuli/rescaled_final/1902_fw.mp4	0.0	344.60665559768677	1.0001213550567627
78	326.82419323921204	pulse	0	t		76.0	2.5	/experiments/Knapen_AOT/AOT_stimuli/rescaled_final/1902_fw.mp4	0.0	345.5904505252838	
78	326.84051966667175	movie	1		290	76.0	2.5	/experiments/Knapen_AOT/AOT_stimuli/rescaled_final/1902_fw.mp4	0.0	345.60677695274353	2.500638246536255
78	328.4228913784027	pulse	1	t		76.0	2.5	/experiments/Knapen_AOT/AOT_stimuli/rescaled_final/1902_fw.mp4	0.0	347.1891486644745	
78	329.341157913208	fix_post	2		12	76.0	2.5	/experiments/Knapen_AOT/AOT_stimuli/rescaled_final/1902_fw.mp4	0.0	348.1074151992798	0.09975600242614746
79	329.44091391563416	fix_pre	0		120	77.0	2.5	blank	1.0	348.20717120170593	1.0001590251922607
79	330.02459263801575	pulse	0	t		77.0	2.5	blank	1.0	348.7908499240875	
79	330.4410729408264	movie	1		300	77.0	2.5	blank	1.0	349.2073302268982	2.5003509521484375
79	331.62488985061646	pulse	1	t		77.0	2.5	blank	1.0	350.39114713668823	
79	332.94142389297485	fix_post	2		12	77.0	2.5	blank	1.0	351.70768117904663	0.1000218391418457
80	333.0414457321167	fix_pre	0		120	78.0	2.5	/experiments/Knapen_AOT/AOT_stimuli/rescaled_final/2033_fw.mp4	0.0	351.8077030181885	1.0085296630859375
80	333.2249982357025	pulse	0	t		78.0	2.5	/experiments/Knapen_AOT/AOT_stimuli/rescaled_final/2033_fw.mp4	0.0	351.9912555217743	
80	334.04997539520264	movie	1		280	78.0	2.5	/experiments/Knapen_AOT/AOT_stimuli/rescaled_final/2033_fw.mp4	0.0	352.8162326812744	2.4919984340667725
80	334.8244891166687	pulse	1	t		78.0	2.5	/experiments/Knapen_AOT/AOT_stimuli/rescaled_final/2033_fw.mp4	0.0	353.5907464027405	
80	336.4237244129181	pulse	1	t		78.0	2.5	/experiments/Knapen_AOT/AOT_stimuli/rescaled_final/2033_fw.mp4	0.0	355.18998169898987	
80	336.5419738292694	fix_post	2		12	78.0	2.5	/experiments/Knapen_AOT/AOT_stimuli/rescaled_final/2033_fw.mp4	0.0	355.3082311153412	0.10002398490905762
81	336.64199781417847	fix_pre	0		120	79.0	2.5	/experiments/Knapen_AOT/AOT_stimuli/rescaled_final/1801_rv.mp4	0.0	355.40825510025024	1.0084717273712158
81	337.6504695415497	movie	1		276	79.0	2.5	/experiments/Knapen_AOT/AOT_stimuli/rescaled_final/1801_rv.mp4	0.0	356.41672682762146	2.492021083831787
81	338.02565264701843	pulse	1	t		79.0	2.5	/experiments/Knapen_AOT/AOT_stimuli/rescaled_final/1801_rv.mp4	0.0	356.7919099330902	
81	339.62417125701904	pulse	1	t		79.0	2.5	/experiments/Knapen_AOT/AOT_stimuli/rescaled_final/1801_rv.mp4	0.0	358.3904285430908	
81	340.14249062538147	fix_post	2		12	79.0	2.5	/experiments/Knapen_AOT/AOT_stimuli/rescaled_final/1801_rv.mp4	0.0	358.90874791145325	0.09998726844787598
82	340.24247789382935	fix_pre	0		119	80.0	2.5	/experiments/Knapen_AOT/AOT_stimuli/rescaled_final/0914_fw.mp4	0.0	359.0087351799011	1.000230312347412
82	341.22642731666565	pulse	0	t		80.0	2.5	/experiments/Knapen_AOT/AOT_stimuli/rescaled_final/0914_fw.mp4	0.0	359.9926846027374	
82	341.24270820617676	movie	1		286	80.0	2.5	/experiments/Knapen_AOT/AOT_stimuli/rescaled_final/0914_fw.mp4	0.0	360.00896549224854	2.500344753265381
82	342.826242685318	pulse	1	t		80.0	2.5	/experiments/Knapen_AOT/AOT_stimuli/rescaled_final/0914_fw.mp4	0.0	361.59249997138977	
82	343.74305295944214	fix_post	2		12	80.0	2.5	/experiments/Knapen_AOT/AOT_stimuli/rescaled_final/0914_fw.mp4	0.0	362.5093102455139	0.10004949569702148
83	343.84310245513916	fix_pre	0		120	81.0	2.5	/experiments/Knapen_AOT/AOT_stimuli/rescaled_final/1039_rv.mp4	0.0	362.60935974121094	1.008443832397461
83	344.426784992218	pulse	0	t		81.0	2.5	/experiments/Knapen_AOT/AOT_stimuli/rescaled_final/1039_rv.mp4	0.0	363.1930422782898	
83	344.8515462875366	movie	1		291	81.0	2.5	/experiments/Knapen_AOT/AOT_stimuli/rescaled_final/1039_rv.mp4	0.0	363.6178035736084	2.492079496383667
83	346.0252773761749	pulse	1	t		81.0	2.5	/experiments/Knapen_AOT/AOT_stimuli/rescaled_final/1039_rv.mp4	0.0	364.7915346622467	
83	347.3436257839203	fix_post	2		12	81.0	2.5	/experiments/Knapen_AOT/AOT_stimuli/rescaled_final/1039_rv.mp4	0.0	366.10988306999207	0.09998846054077148
84	347.44361424446106	fix_pre	0		120	82.0	2.5	/experiments/Knapen_AOT/AOT_stimuli/rescaled_final/1102_rv.mp4	0.0	366.20987153053284	1.0085115432739258
84	347.627370595932	pulse	0	t		82.0	2.5	/experiments/Knapen_AOT/AOT_stimuli/rescaled_final/1102_rv.mp4	0.0	366.3936278820038	
84	348.452125787735	movie	1		271	82.0	2.5	/experiments/Knapen_AOT/AOT_stimuli/rescaled_final/1102_rv.mp4	0.0	367.21838307380676	2.492023468017578
84	349.2257354259491	pulse	1	t		82.0	2.5	/experiments/Knapen_AOT/AOT_stimuli/rescaled_final/1102_rv.mp4	0.0	367.9919927120209	
84	350.8279023170471	pulse	1	t		82.0	2.5	/experiments/Knapen_AOT/AOT_stimuli/rescaled_final/1102_rv.mp4	0.0	369.5941596031189	
84	350.94414925575256	fix_post	2		12	82.0	2.5	/experiments/Knapen_AOT/AOT_stimuli/rescaled_final/1102_rv.mp4	0.0	369.71040654182434	0.10002541542053223
85	351.0441746711731	fix_pre	0		120	83.0	2.5	blank	1.0	369.8104319572449	1.000150203704834
85	352.04432487487793	movie	1		300	83.0	2.5	blank	1.0	370.8105821609497	2.500347852706909
85	352.4279828071594	pulse	1	t		83.0	2.5	blank	1.0	371.1942400932312	
85	354.0198347568512	pulse	1	t		83.0	2.5	blank	1.0	372.786092042923	
85	354.54467272758484	fix_post	2		12	83.0	2.5	blank	1.0	373.3109300136566	0.10001778602600098
87	354.64469051361084	stim	0		1715					373.4109477996826	14.293789386749268
87	355.62027978897095	pulse	0	t						374.3865370750427	
87	357.2206211090088	pulse	0	t						375.98687839508057	
87	358.8210217952728	pulse	0	t						377.5872790813446	
87	360.4213960170746	pulse	0	t						379.18765330314636	
87	362.02139496803284	pulse	0	t						380.7876522541046	
87	363.6213004589081	pulse	0	t						382.38755774497986	
87	365.2215759754181	pulse	0	t						383.98783326148987	
87	366.82186245918274	pulse	0	t						385.5881197452545	
87	368.4221308231354	pulse	0	t						387.18838810920715	
