trial_nr	onset	event_type	phase	response	nr_frames	movie_index	movie_duration	movie_file	blank	onset_abs	duration
0	0.20844697952270508	stim	0		115					25.295925855636597	0.9583001136779785
0	1.1588809490203857	response	0	space						26.246359825134277	
1	1.1667470932006836	stim	0		4599					26.254225969314575	38.34219789505005
1	39.4987530708313	pulse	0	t						64.58623194694519	
1	39.50894498825073	stim	1		1715					64.59642386436462	14.298995971679688
1	41.08969712257385	pulse	1	t						66.17717599868774	
1	42.68982911109924	pulse	1	t						67.77730798721313	
1	44.29004502296448	pulse	1	t						69.37752389907837	
1	45.89022707939148	pulse	1	t						70.97770595550537	
1	47.49056792259216	pulse	1	t						72.57804679870605	
1	49.090760946273804	pulse	1	t						74.1782398223877	
1	50.690967082977295	pulse	1	t						75.77844595909119	
1	52.29124903678894	pulse	1	t						77.37872791290283	
2	53.80794095993042	fix_pre	0		11	0.0	2.5	/experiments/knapen_AOT/AOT_stimuli/rescaled_final/0669_fw.mp4	0.0	78.89541983604431	0.10004901885986328
2	53.891546964645386	pulse	0	t		0.0	2.5	/experiments/knapen_AOT/AOT_stimuli/rescaled_final/0669_fw.mp4	0.0	78.97902584075928	
2	53.90798997879028	movie	1		244	0.0	2.5	/experiments/knapen_AOT/AOT_stimuli/rescaled_final/0669_fw.mp4	0.0	78.99546885490417	2.500404119491577
2	55.492942094802856	pulse	1	t		0.0	2.5	/experiments/knapen_AOT/AOT_stimuli/rescaled_final/0669_fw.mp4	0.0	80.58042097091675	
2	56.40839409828186	fix_post	2		12	0.0	2.5	/experiments/knapen_AOT/AOT_stimuli/rescaled_final/0669_fw.mp4	0.0	81.49587297439575	0.09992599487304688
3	56.50832009315491	fix_pre	0		120	1.0	2.5	/experiments/knapen_AOT/AOT_stimuli/rescaled_final/1048_rv.mp4	0.0	81.5957989692688	1.0001869201660156
3	57.09208393096924	pulse	0	t		1.0	2.5	/experiments/knapen_AOT/AOT_stimuli/rescaled_final/1048_rv.mp4	0.0	82.17956280708313	
3	57.50850701332092	movie	1		245	1.0	2.5	/experiments/knapen_AOT/AOT_stimuli/rescaled_final/1048_rv.mp4	0.0	82.59598588943481	2.5003600120544434
3	58.69239091873169	pulse	1	t		1.0	2.5	/experiments/knapen_AOT/AOT_stimuli/rescaled_final/1048_rv.mp4	0.0	83.77986979484558	
3	60.008867025375366	fix_post	2		12	1.0	2.5	/experiments/knapen_AOT/AOT_stimuli/rescaled_final/1048_rv.mp4	0.0	85.09634590148926	0.10001993179321289
4	60.10888695716858	fix_pre	0		120	2.0	2.5	/experiments/knapen_AOT/AOT_stimuli/rescaled_final/1789_rv.mp4	0.0	85.19636583328247	1.00018310546875
4	60.2924280166626	pulse	0	t		2.0	2.5	/experiments/knapen_AOT/AOT_stimuli/rescaled_final/1789_rv.mp4	0.0	85.37990689277649	
4	61.10907006263733	movie	1		246	2.0	2.5	/experiments/knapen_AOT/AOT_stimuli/rescaled_final/1789_rv.mp4	0.0	86.19654893875122	2.5003159046173096
4	61.89271306991577	pulse	1	t		2.0	2.5	/experiments/knapen_AOT/AOT_stimuli/rescaled_final/1789_rv.mp4	0.0	86.98019194602966	
4	63.49296998977661	pulse	1	t		2.0	2.5	/experiments/knapen_AOT/AOT_stimuli/rescaled_final/1789_rv.mp4	0.0	88.5804488658905	
4	63.60938596725464	fix_post	2		12	2.0	2.5	/experiments/knapen_AOT/AOT_stimuli/rescaled_final/1789_rv.mp4	0.0	88.69686484336853	0.10002613067626953
5	63.70941209793091	fix_pre	0		120	3.0	2.5	/experiments/knapen_AOT/AOT_stimuli/rescaled_final/1841_fw.mp4	0.0	88.7968909740448	1.0001189708709717
5	64.70953106880188	movie	1		244	3.0	2.5	/experiments/knapen_AOT/AOT_stimuli/rescaled_final/1841_fw.mp4	0.0	89.79700994491577	2.492090940475464
5	65.09382700920105	pulse	1	t		3.0	2.5	/experiments/knapen_AOT/AOT_stimuli/rescaled_final/1841_fw.mp4	0.0	90.18130588531494	
5	66.69342803955078	pulse	1	t		3.0	2.5	/experiments/knapen_AOT/AOT_stimuli/rescaled_final/1841_fw.mp4	0.0	91.78090691566467	
5	67.20162200927734	fix_post	2		12	3.0	2.5	/experiments/knapen_AOT/AOT_stimuli/rescaled_final/1841_fw.mp4	0.0	92.28910088539124	0.09999299049377441
6	67.30161499977112	fix_pre	0		120	4.0	2.5	/experiments/knapen_AOT/AOT_stimuli/rescaled_final/0913_rv.mp4	0.0	92.38909387588501	1.0002260208129883
6	68.29363894462585	pulse	0	t		4.0	2.5	/experiments/knapen_AOT/AOT_stimuli/rescaled_final/0913_rv.mp4	0.0	93.38111782073975	
6	68.3018410205841	movie	1		245	4.0	2.5	/experiments/knapen_AOT/AOT_stimuli/rescaled_final/0913_rv.mp4	0.0	93.389319896698	2.50860595703125
6	69.89429092407227	pulse	1	t		4.0	2.5	/experiments/knapen_AOT/AOT_stimuli/rescaled_final/0913_rv.mp4	0.0	94.98176980018616	
6	70.81044697761536	fix_post	2		12	4.0	2.5	/experiments/knapen_AOT/AOT_stimuli/rescaled_final/0913_rv.mp4	0.0	95.89792585372925	0.10006213188171387
7	70.91050910949707	fix_pre	0		120	5.0	2.5	blank	1.0	95.99798798561096	1.0001139640808105
7	71.49411702156067	pulse	0	t		5.0	2.5	blank	1.0	96.58159589767456	
7	71.91062307357788	movie	1		300	5.0	2.5	blank	1.0	96.99810194969177	2.5003819465637207
7	73.09431910514832	pulse	1	t		5.0	2.5	blank	1.0	98.1817979812622	
7	74.4110050201416	fix_post	2		12	5.0	2.5	blank	1.0	99.4984838962555	0.10001206398010254
8	74.5110170841217	fix_pre	0		120	6.0	2.5	/experiments/knapen_AOT/AOT_stimuli/rescaled_final/0543_fw.mp4	0.0	99.5984959602356	1.000187873840332
8	74.69462490081787	pulse	0	t		6.0	2.5	/experiments/knapen_AOT/AOT_stimuli/rescaled_final/0543_fw.mp4	0.0	99.78210377693176	
8	75.51120495796204	movie	1		245	6.0	2.5	/experiments/knapen_AOT/AOT_stimuli/rescaled_final/0543_fw.mp4	0.0	100.59868383407593	2.500383138656616
8	76.29495000839233	pulse	1	t		6.0	2.5	/experiments/knapen_AOT/AOT_stimuli/rescaled_final/0543_fw.mp4	0.0	101.38242888450623	
8	77.89295697212219	pulse	1	t		6.0	2.5	/experiments/knapen_AOT/AOT_stimuli/rescaled_final/0543_fw.mp4	0.0	102.98043584823608	
8	78.01158809661865	fix_post	2		12	6.0	2.5	/experiments/knapen_AOT/AOT_stimuli/rescaled_final/0543_fw.mp4	0.0	103.09906697273254	0.09997701644897461
9	78.11156511306763	fix_pre	0		120	7.0	2.5	/experiments/knapen_AOT/AOT_stimuli/rescaled_final/1832_rv.mp4	0.0	103.19904398918152	1.0001189708709717
9	79.1116840839386	movie	1		243	7.0	2.5	/experiments/knapen_AOT/AOT_stimuli/rescaled_final/1832_rv.mp4	0.0	104.19916296005249	2.492219924926758
9	79.49592089653015	pulse	1	t		7.0	2.5	/experiments/knapen_AOT/AOT_stimuli/rescaled_final/1832_rv.mp4	0.0	104.58339977264404	
9	81.09562492370605	pulse	1	t		7.0	2.5	/experiments/knapen_AOT/AOT_stimuli/rescaled_final/1832_rv.mp4	0.0	106.18310379981995	
9	81.60390400886536	fix_post	2		12	7.0	2.5	/experiments/knapen_AOT/AOT_stimuli/rescaled_final/1832_rv.mp4	0.0	106.69138288497925	0.09983301162719727
10	81.70373702049255	fix_pre	0		120	8.0	2.5	/experiments/knapen_AOT/AOT_stimuli/rescaled_final/0543_rv.mp4	0.0	106.79121589660645	1.0002329349517822
10	82.6958019733429	pulse	0	t		8.0	2.5	/experiments/knapen_AOT/AOT_stimuli/rescaled_final/0543_rv.mp4	0.0	107.78328084945679	
10	82.70396995544434	movie	1		246	8.0	2.5	/experiments/knapen_AOT/AOT_stimuli/rescaled_final/0543_rv.mp4	0.0	107.79144883155823	2.508636951446533
10	84.29679107666016	pulse	1	t		8.0	2.5	/experiments/knapen_AOT/AOT_stimuli/rescaled_final/0543_rv.mp4	0.0	109.38426995277405	
10	85.21260690689087	fix_post	2		12	8.0	2.5	/experiments/knapen_AOT/AOT_stimuli/rescaled_final/0543_rv.mp4	0.0	110.30008578300476	0.10002517700195312
11	85.31263208389282	fix_pre	0		120	9.0	2.5	/experiments/knapen_AOT/AOT_stimuli/rescaled_final/1833_rv.mp4	0.0	110.40011096000671	1.0001769065856934
11	85.88798308372498	pulse	0	t		9.0	2.5	/experiments/knapen_AOT/AOT_stimuli/rescaled_final/1833_rv.mp4	0.0	110.97546195983887	
11	86.31280899047852	movie	1		244	9.0	2.5	/experiments/knapen_AOT/AOT_stimuli/rescaled_final/1833_rv.mp4	0.0	111.40028786659241	2.5003039836883545
11	87.48872399330139	pulse	1	t		9.0	2.5	/experiments/knapen_AOT/AOT_stimuli/rescaled_final/1833_rv.mp4	0.0	112.57620286941528	
11	88.81311297416687	fix_post	2		12	9.0	2.5	/experiments/knapen_AOT/AOT_stimuli/rescaled_final/1833_rv.mp4	0.0	113.90059185028076	0.10007810592651367
12	88.91319108009338	fix_pre	0		120	10.0	2.5	/experiments/knapen_AOT/AOT_stimuli/rescaled_final/0747_rv.mp4	0.0	114.00066995620728	1.0001599788665771
12	89.08836197853088	pulse	0	t		10.0	2.5	/experiments/knapen_AOT/AOT_stimuli/rescaled_final/0747_rv.mp4	0.0	114.17584085464478	
12	89.91335105895996	movie	1		244	10.0	2.5	/experiments/knapen_AOT/AOT_stimuli/rescaled_final/0747_rv.mp4	0.0	115.00082993507385	2.5003159046173096
12	90.68867301940918	pulse	1	t		10.0	2.5	/experiments/knapen_AOT/AOT_stimuli/rescaled_final/0747_rv.mp4	0.0	115.77615189552307	
12	92.28892707824707	pulse	1	t		10.0	2.5	/experiments/knapen_AOT/AOT_stimuli/rescaled_final/0747_rv.mp4	0.0	117.37640595436096	
12	92.41366696357727	fix_post	2		12	10.0	2.5	/experiments/knapen_AOT/AOT_stimuli/rescaled_final/0747_rv.mp4	0.0	117.50114583969116	0.1000361442565918
13	92.51370310783386	fix_pre	0		120	11.0	2.5	/experiments/knapen_AOT/AOT_stimuli/rescaled_final/1137_fw.mp4	0.0	117.60118198394775	1.0001718997955322
13	93.5138750076294	movie	1		245	11.0	2.5	/experiments/knapen_AOT/AOT_stimuli/rescaled_final/1137_fw.mp4	0.0	118.60135388374329	2.492048978805542
13	93.88913011550903	pulse	1	t		11.0	2.5	/experiments/knapen_AOT/AOT_stimuli/rescaled_final/1137_fw.mp4	0.0	118.97660899162292	
13	95.48949599266052	pulse	1	t		11.0	2.5	/experiments/knapen_AOT/AOT_stimuli/rescaled_final/1137_fw.mp4	0.0	120.57697486877441	
13	96.00592398643494	fix_post	2		12	11.0	2.5	/experiments/knapen_AOT/AOT_stimuli/rescaled_final/1137_fw.mp4	0.0	121.09340286254883	0.10001301765441895
14	96.10593700408936	fix_pre	0		119	12.0	2.5	blank	1.0	121.19341588020325	0.9917941093444824
14	97.08958411216736	pulse	0	t		12.0	2.5	blank	1.0	122.17706298828125	
14	97.09773111343384	movie	1		301	12.0	2.5	blank	1.0	122.18520998954773	2.5091238021850586
14	98.68983101844788	pulse	1	t		12.0	2.5	blank	1.0	123.77730989456177	
14	99.6068549156189	fix_post	2		11	12.0	2.5	blank	1.0	124.69433379173279	0.09958004951477051
15	99.70643496513367	fix_pre	0		120	13.0	2.5	/experiments/knapen_AOT/AOT_stimuli/rescaled_final/1975_rv.mp4	0.0	124.79391384124756	1.0002081394195557
15	100.29007601737976	pulse	0	t		13.0	2.5	/experiments/knapen_AOT/AOT_stimuli/rescaled_final/1975_rv.mp4	0.0	125.37755489349365	
15	100.70664310455322	movie	1		248	13.0	2.5	/experiments/knapen_AOT/AOT_stimuli/rescaled_final/1975_rv.mp4	0.0	125.79412198066711	2.500321865081787
15	101.89041590690613	pulse	1	t		13.0	2.5	/experiments/knapen_AOT/AOT_stimuli/rescaled_final/1975_rv.mp4	0.0	126.97789478302002	
15	103.20696496963501	fix_post	2		12	13.0	2.5	/experiments/knapen_AOT/AOT_stimuli/rescaled_final/1975_rv.mp4	0.0	128.2944438457489	0.10001707077026367
16	103.30698204040527	fix_pre	0		120	14.0	2.5	/experiments/knapen_AOT/AOT_stimuli/rescaled_final/0601_rv.mp4	0.0	128.39446091651917	1.0001380443572998
16	103.4906690120697	pulse	0	t		14.0	2.5	/experiments/knapen_AOT/AOT_stimuli/rescaled_final/0601_rv.mp4	0.0	128.5781478881836	
16	104.30712008476257	movie	1		247	14.0	2.5	/experiments/knapen_AOT/AOT_stimuli/rescaled_final/0601_rv.mp4	0.0	129.39459896087646	2.5003750324249268
16	105.09079909324646	pulse	1	t		14.0	2.5	/experiments/knapen_AOT/AOT_stimuli/rescaled_final/0601_rv.mp4	0.0	130.17827796936035	
16	106.69100999832153	pulse	1	t		14.0	2.5	/experiments/knapen_AOT/AOT_stimuli/rescaled_final/0601_rv.mp4	0.0	131.77848887443542	
16	106.8074951171875	fix_post	2		12	14.0	2.5	/experiments/knapen_AOT/AOT_stimuli/rescaled_final/0601_rv.mp4	0.0	131.8949739933014	0.10008597373962402
17	106.90758109092712	fix_pre	0		120	15.0	2.5	/experiments/knapen_AOT/AOT_stimuli/rescaled_final/1476_fw.mp4	0.0	131.99505996704102	1.0001180171966553
17	107.90769910812378	movie	1		247	15.0	2.5	/experiments/knapen_AOT/AOT_stimuli/rescaled_final/1476_fw.mp4	0.0	132.99517798423767	2.4920430183410645
17	108.29173398017883	pulse	1	t		15.0	2.5	/experiments/knapen_AOT/AOT_stimuli/rescaled_final/1476_fw.mp4	0.0	133.37921285629272	
17	109.89155793190002	pulse	1	t		15.0	2.5	/experiments/knapen_AOT/AOT_stimuli/rescaled_final/1476_fw.mp4	0.0	134.97903680801392	
17	110.39974212646484	fix_post	2		12	15.0	2.5	/experiments/knapen_AOT/AOT_stimuli/rescaled_final/1476_fw.mp4	0.0	135.48722100257874	0.09998679161071777
18	110.49972891807556	fix_pre	0		120	16.0	2.5	/experiments/knapen_AOT/AOT_stimuli/rescaled_final/0404_fw.mp4	0.0	135.58720779418945	1.000171184539795
18	111.49183297157288	pulse	0	t		16.0	2.5	/experiments/knapen_AOT/AOT_stimuli/rescaled_final/0404_fw.mp4	0.0	136.57931184768677	
18	111.49990010261536	movie	1		247	16.0	2.5	/experiments/knapen_AOT/AOT_stimuli/rescaled_final/0404_fw.mp4	0.0	136.58737897872925	2.5086607933044434
18	113.09623694419861	pulse	1	t		16.0	2.5	/experiments/knapen_AOT/AOT_stimuli/rescaled_final/0404_fw.mp4	0.0	138.1837158203125	
18	114.0085608959198	fix_post	2		12	16.0	2.5	/experiments/knapen_AOT/AOT_stimuli/rescaled_final/0404_fw.mp4	0.0	139.0960397720337	0.10004019737243652
19	114.10860109329224	fix_pre	0		120	17.0	2.5	/experiments/knapen_AOT/AOT_stimuli/rescaled_final/1832_rv.mp4	0.0	139.19607996940613	1.0001978874206543
19	114.69220900535583	pulse	0	t		17.0	2.5	/experiments/knapen_AOT/AOT_stimuli/rescaled_final/1832_rv.mp4	0.0	139.77968788146973	
19	115.10879898071289	movie	1		246	17.0	2.5	/experiments/knapen_AOT/AOT_stimuli/rescaled_final/1832_rv.mp4	0.0	140.19627785682678	2.500365972518921
19	116.29265689849854	pulse	1	t		17.0	2.5	/experiments/knapen_AOT/AOT_stimuli/rescaled_final/1832_rv.mp4	0.0	141.38013577461243	
19	117.60916495323181	fix_post	2		12	17.0	2.5	/experiments/knapen_AOT/AOT_stimuli/rescaled_final/1832_rv.mp4	0.0	142.6966438293457	0.09998607635498047
20	117.70915102958679	fix_pre	0		120	18.0	2.5	/experiments/knapen_AOT/AOT_stimuli/rescaled_final/0934_fw.mp4	0.0	142.79662990570068	1.0002179145812988
20	117.89277505874634	pulse	0	t		18.0	2.5	/experiments/knapen_AOT/AOT_stimuli/rescaled_final/0934_fw.mp4	0.0	142.98025393486023	
20	118.70936894416809	movie	1		244	18.0	2.5	/experiments/knapen_AOT/AOT_stimuli/rescaled_final/0934_fw.mp4	0.0	143.79684782028198	2.5002920627593994
20	119.4930350780487	pulse	1	t		18.0	2.5	/experiments/knapen_AOT/AOT_stimuli/rescaled_final/0934_fw.mp4	0.0	144.5805139541626	
20	121.09317898750305	pulse	1	t		18.0	2.5	/experiments/knapen_AOT/AOT_stimuli/rescaled_final/0934_fw.mp4	0.0	146.18065786361694	
20	121.20966100692749	fix_post	2		12	18.0	2.5	/experiments/knapen_AOT/AOT_stimuli/rescaled_final/0934_fw.mp4	0.0	146.29713988304138	0.10000896453857422
21	121.30966997146606	fix_pre	0		120	19.0	2.5	/experiments/knapen_AOT/AOT_stimuli/rescaled_final/0203_fw.mp4	0.0	146.39714884757996	1.0001599788665771
21	122.30982995033264	movie	1		245	19.0	2.5	/experiments/knapen_AOT/AOT_stimuli/rescaled_final/0203_fw.mp4	0.0	147.39730882644653	2.492030143737793
21	122.69435405731201	pulse	1	t		19.0	2.5	/experiments/knapen_AOT/AOT_stimuli/rescaled_final/0203_fw.mp4	0.0	147.7818329334259	
21	124.29379105567932	pulse	1	t		19.0	2.5	/experiments/knapen_AOT/AOT_stimuli/rescaled_final/0203_fw.mp4	0.0	149.3812699317932	
21	124.80186009407043	fix_post	2		12	19.0	2.5	/experiments/knapen_AOT/AOT_stimuli/rescaled_final/0203_fw.mp4	0.0	149.88933897018433	0.1001119613647461
22	124.90197205543518	fix_pre	0		120	20.0	2.5	blank	1.0	149.98945093154907	1.0000829696655273
22	125.89402294158936	pulse	0	t		20.0	2.5	blank	1.0	150.98150181770325	
22	125.90205502510071	movie	1		301	20.0	2.5	blank	1.0	150.9895339012146	2.5087170600891113
22	127.49415898323059	pulse	1	t		20.0	2.5	blank	1.0	152.58163785934448	
22	128.41077208518982	fix_post	2		12	20.0	2.5	blank	1.0	153.4982509613037	0.0999898910522461
23	128.51076197624207	fix_pre	0		120	21.0	2.5	/experiments/knapen_AOT/AOT_stimuli/rescaled_final/1689_rv.mp4	0.0	153.59824085235596	1.0001411437988281
23	129.09438300132751	pulse	0	t		21.0	2.5	/experiments/knapen_AOT/AOT_stimuli/rescaled_final/1689_rv.mp4	0.0	154.1818618774414	
23	129.5109031200409	movie	1		247	21.0	2.5	/experiments/knapen_AOT/AOT_stimuli/rescaled_final/1689_rv.mp4	0.0	154.59838199615479	2.5003578662872314
23	130.69474697113037	pulse	1	t		21.0	2.5	/experiments/knapen_AOT/AOT_stimuli/rescaled_final/1689_rv.mp4	0.0	155.78222584724426	
23	132.01126098632812	fix_post	2		12	21.0	2.5	/experiments/knapen_AOT/AOT_stimuli/rescaled_final/1689_rv.mp4	0.0	157.09873986244202	0.10002708435058594
24	132.1112880706787	fix_pre	0		120	22.0	2.5	/experiments/knapen_AOT/AOT_stimuli/rescaled_final/1048_rv.mp4	0.0	157.1987669467926	1.0001299381256104
24	132.2949390411377	pulse	0	t		22.0	2.5	/experiments/knapen_AOT/AOT_stimuli/rescaled_final/1048_rv.mp4	0.0	157.3824179172516	
24	133.11141800880432	movie	1		245	22.0	2.5	/experiments/knapen_AOT/AOT_stimuli/rescaled_final/1048_rv.mp4	0.0	158.1988968849182	2.500430107116699
24	133.89517498016357	pulse	1	t		22.0	2.5	/experiments/knapen_AOT/AOT_stimuli/rescaled_final/1048_rv.mp4	0.0	158.98265385627747	
24	135.49546003341675	pulse	1	t		22.0	2.5	/experiments/knapen_AOT/AOT_stimuli/rescaled_final/1048_rv.mp4	0.0	160.58293890953064	
24	135.61184811592102	fix_post	2		12	22.0	2.5	/experiments/knapen_AOT/AOT_stimuli/rescaled_final/1048_rv.mp4	0.0	160.6993269920349	0.09998893737792969
25	135.71183705329895	fix_pre	0		120	23.0	2.5	/experiments/knapen_AOT/AOT_stimuli/rescaled_final/0387_rv.mp4	0.0	160.79931592941284	1.0001459121704102
25	136.71198296546936	movie	1		245	23.0	2.5	/experiments/knapen_AOT/AOT_stimuli/rescaled_final/0387_rv.mp4	0.0	161.79946184158325	2.4920051097869873
25	137.0965600013733	pulse	1	t		23.0	2.5	/experiments/knapen_AOT/AOT_stimuli/rescaled_final/0387_rv.mp4	0.0	162.18403887748718	
25	138.6958999633789	pulse	1	t		23.0	2.5	/experiments/knapen_AOT/AOT_stimuli/rescaled_final/0387_rv.mp4	0.0	163.7833788394928	
25	139.20398807525635	fix_post	2		12	23.0	2.5	/experiments/knapen_AOT/AOT_stimuli/rescaled_final/0387_rv.mp4	0.0	164.29146695137024	0.10003900527954102
26	139.3040270805359	fix_pre	0		120	24.0	2.5	/experiments/knapen_AOT/AOT_stimuli/rescaled_final/1697_rv.mp4	0.0	164.39150595664978	1.0001749992370605
26	140.28863096237183	pulse	0	t		24.0	2.5	/experiments/knapen_AOT/AOT_stimuli/rescaled_final/1697_rv.mp4	0.0	165.37610983848572	
26	140.30420207977295	movie	1		246	24.0	2.5	/experiments/knapen_AOT/AOT_stimuli/rescaled_final/1697_rv.mp4	0.0	165.39168095588684	2.5086560249328613
26	141.89663290977478	pulse	1	t		24.0	2.5	/experiments/knapen_AOT/AOT_stimuli/rescaled_final/1697_rv.mp4	0.0	166.98411178588867	
26	142.8128581047058	fix_post	2		12	24.0	2.5	/experiments/knapen_AOT/AOT_stimuli/rescaled_final/1697_rv.mp4	0.0	167.9003369808197	0.10010290145874023
27	142.91296100616455	fix_pre	0		120	25.0	2.5	/experiments/knapen_AOT/AOT_stimuli/rescaled_final/1442_fw.mp4	0.0	168.00043988227844	1.0000638961791992
27	143.48893904685974	pulse	0	t		25.0	2.5	/experiments/knapen_AOT/AOT_stimuli/rescaled_final/1442_fw.mp4	0.0	168.57641792297363	
27	143.91302490234375	movie	1		244	25.0	2.5	/experiments/knapen_AOT/AOT_stimuli/rescaled_final/1442_fw.mp4	0.0	169.00050377845764	2.500415086746216
27	145.08946204185486	pulse	1	t		25.0	2.5	/experiments/knapen_AOT/AOT_stimuli/rescaled_final/1442_fw.mp4	0.0	170.17694091796875	
27	146.41343998908997	fix_post	2		12	25.0	2.5	/experiments/knapen_AOT/AOT_stimuli/rescaled_final/1442_fw.mp4	0.0	171.50091886520386	0.1000070571899414
28	146.5134470462799	fix_pre	0		120	26.0	2.5	/experiments/knapen_AOT/AOT_stimuli/rescaled_final/0179_fw.mp4	0.0	171.6009259223938	1.000169038772583
28	146.68878507614136	pulse	0	t		26.0	2.5	/experiments/knapen_AOT/AOT_stimuli/rescaled_final/0179_fw.mp4	0.0	171.77626395225525	
28	147.5136160850525	movie	1		244	26.0	2.5	/experiments/knapen_AOT/AOT_stimuli/rescaled_final/0179_fw.mp4	0.0	172.60109496116638	2.5004258155822754
28	148.28894710540771	pulse	1	t		26.0	2.5	/experiments/knapen_AOT/AOT_stimuli/rescaled_final/0179_fw.mp4	0.0	173.3764259815216	
28	149.88909006118774	pulse	1	t		26.0	2.5	/experiments/knapen_AOT/AOT_stimuli/rescaled_final/0179_fw.mp4	0.0	174.97656893730164	
28	150.01404190063477	fix_post	2		12	26.0	2.5	/experiments/knapen_AOT/AOT_stimuli/rescaled_final/0179_fw.mp4	0.0	175.10152077674866	0.09991121292114258
29	150.1139531135559	fix_pre	0		119	27.0	2.5	blank	1.0	175.2014319896698	0.9918999671936035
29	151.1058530807495	movie	1		300	27.0	2.5	blank	1.0	176.1933319568634	2.5003068447113037
29	151.48946595191956	pulse	1	t		27.0	2.5	blank	1.0	176.57694482803345	
29	153.08962607383728	pulse	1	t		27.0	2.5	blank	1.0	178.17710494995117	
29	153.60615992546082	fix_post	2		12	27.0	2.5	blank	1.0	178.6936388015747	0.10001397132873535
30	153.70617389678955	fix_pre	0		119	28.0	2.5	/experiments/knapen_AOT/AOT_stimuli/rescaled_final/1643_fw.mp4	0.0	178.79365277290344	0.9918291568756104
30	154.68999910354614	pulse	0	t		28.0	2.5	/experiments/knapen_AOT/AOT_stimuli/rescaled_final/1643_fw.mp4	0.0	179.77747797966003	
30	154.69800305366516	movie	1		244	28.0	2.5	/experiments/knapen_AOT/AOT_stimuli/rescaled_final/1643_fw.mp4	0.0	179.78548192977905	2.508842945098877
30	156.29067492485046	pulse	1	t		28.0	2.5	/experiments/knapen_AOT/AOT_stimuli/rescaled_final/1643_fw.mp4	0.0	181.37815380096436	
30	157.20684599876404	fix_post	2		12	28.0	2.5	/experiments/knapen_AOT/AOT_stimuli/rescaled_final/1643_fw.mp4	0.0	182.29432487487793	0.0998530387878418
31	157.30669903755188	fix_pre	0		120	29.0	2.5	/experiments/knapen_AOT/AOT_stimuli/rescaled_final/0715_fw.mp4	0.0	182.39417791366577	1.0001928806304932
31	157.89033889770508	pulse	0	t		29.0	2.5	/experiments/knapen_AOT/AOT_stimuli/rescaled_final/0715_fw.mp4	0.0	182.97781777381897	
31	158.30689191818237	movie	1		245	29.0	2.5	/experiments/knapen_AOT/AOT_stimuli/rescaled_final/0715_fw.mp4	0.0	183.39437079429626	2.5003631114959717
31	159.49064302444458	pulse	1	t		29.0	2.5	/experiments/knapen_AOT/AOT_stimuli/rescaled_final/0715_fw.mp4	0.0	184.57812190055847	
31	160.80725502967834	fix_post	2		12	29.0	2.5	/experiments/knapen_AOT/AOT_stimuli/rescaled_final/0715_fw.mp4	0.0	185.89473390579224	0.10006594657897949
32	160.90732097625732	fix_pre	0		120	30.0	2.5	/experiments/knapen_AOT/AOT_stimuli/rescaled_final/0763_rv.mp4	0.0	185.99479985237122	1.0001440048217773
32	161.09084701538086	pulse	0	t		30.0	2.5	/experiments/knapen_AOT/AOT_stimuli/rescaled_final/0763_rv.mp4	0.0	186.17832589149475	
32	161.9074649810791	movie	1		246	30.0	2.5	/experiments/knapen_AOT/AOT_stimuli/rescaled_final/0763_rv.mp4	0.0	186.994943857193	2.5003161430358887
32	162.69110703468323	pulse	1	t		30.0	2.5	/experiments/knapen_AOT/AOT_stimuli/rescaled_final/0763_rv.mp4	0.0	187.77858591079712	
32	164.29133892059326	pulse	1	t		30.0	2.5	/experiments/knapen_AOT/AOT_stimuli/rescaled_final/0763_rv.mp4	0.0	189.37881779670715	
32	164.407781124115	fix_post	2		12	30.0	2.5	/experiments/knapen_AOT/AOT_stimuli/rescaled_final/0763_rv.mp4	0.0	189.49526000022888	0.1000058650970459
33	164.50778698921204	fix_pre	0		116	31.0	2.5	/experiments/knapen_AOT/AOT_stimuli/rescaled_final/0216_rv.mp4	0.0	189.59526586532593	1.0001780986785889
33	165.50796508789062	movie	1		244	31.0	2.5	/experiments/knapen_AOT/AOT_stimuli/rescaled_final/0216_rv.mp4	0.0	190.59544396400452	2.492079019546509
33	165.89275813102722	pulse	1	t		31.0	2.5	/experiments/knapen_AOT/AOT_stimuli/rescaled_final/0216_rv.mp4	0.0	190.9802370071411	
33	167.491760969162	pulse	1	t		31.0	2.5	/experiments/knapen_AOT/AOT_stimuli/rescaled_final/0216_rv.mp4	0.0	192.57923984527588	
33	168.00004410743713	fix_post	2		12	31.0	2.5	/experiments/knapen_AOT/AOT_stimuli/rescaled_final/0216_rv.mp4	0.0	193.08752298355103	0.09995889663696289
34	168.1000030040741	fix_pre	0		120	32.0	2.5	/experiments/knapen_AOT/AOT_stimuli/rescaled_final/1167_rv.mp4	0.0	193.187481880188	1.0001800060272217
34	169.09212708473206	pulse	0	t		32.0	2.5	/experiments/knapen_AOT/AOT_stimuli/rescaled_final/1167_rv.mp4	0.0	194.17960596084595	
34	169.10018301010132	movie	1		246	32.0	2.5	/experiments/knapen_AOT/AOT_stimuli/rescaled_final/1167_rv.mp4	0.0	194.1876618862152	2.508747100830078
34	170.69330310821533	pulse	1	t		32.0	2.5	/experiments/knapen_AOT/AOT_stimuli/rescaled_final/1167_rv.mp4	0.0	195.78078198432922	
34	171.6089301109314	fix_post	2		12	32.0	2.5	/experiments/knapen_AOT/AOT_stimuli/rescaled_final/1167_rv.mp4	0.0	196.6964089870453	0.09999895095825195
35	171.70892906188965	fix_pre	0		120	33.0	2.5	/experiments/knapen_AOT/AOT_stimuli/rescaled_final/0107_fw.mp4	0.0	196.79640793800354	1.0000848770141602
35	172.29261112213135	pulse	0	t		33.0	2.5	/experiments/knapen_AOT/AOT_stimuli/rescaled_final/0107_fw.mp4	0.0	197.38008999824524	
35	172.7090139389038	movie	1		246	33.0	2.5	/experiments/knapen_AOT/AOT_stimuli/rescaled_final/0107_fw.mp4	0.0	197.7964928150177	2.500537157058716
35	173.89275813102722	pulse	1	t		33.0	2.5	/experiments/knapen_AOT/AOT_stimuli/rescaled_final/0107_fw.mp4	0.0	198.9802370071411	
35	175.20955109596252	fix_post	2		12	33.0	2.5	/experiments/knapen_AOT/AOT_stimuli/rescaled_final/0107_fw.mp4	0.0	200.29702997207642	0.0998380184173584
36	175.30938911437988	fix_pre	0		120	34.0	2.5	blank	1.0	200.39686799049377	1.0001959800720215
36	175.49301290512085	pulse	0	t		34.0	2.5	blank	1.0	200.58049178123474	
36	176.3095850944519	movie	1		300	34.0	2.5	blank	1.0	201.3970639705658	2.5003910064697266
36	177.09317994117737	pulse	1	t		34.0	2.5	blank	1.0	202.18065881729126	
36	178.69352912902832	pulse	1	t		34.0	2.5	blank	1.0	203.7810080051422	
36	178.80997610092163	fix_post	2		12	34.0	2.5	blank	1.0	203.89745497703552	0.09996581077575684
37	178.9099419116974	fix_pre	0		120	35.0	2.5	/experiments/knapen_AOT/AOT_stimuli/rescaled_final/2147_fw.mp4	0.0	203.99742078781128	1.0001811981201172
37	179.9101231098175	movie	1		244	35.0	2.5	/experiments/knapen_AOT/AOT_stimuli/rescaled_final/2147_fw.mp4	0.0	204.9976019859314	2.49196195602417
37	180.29418802261353	pulse	1	t		35.0	2.5	/experiments/knapen_AOT/AOT_stimuli/rescaled_final/2147_fw.mp4	0.0	205.38166689872742	
37	181.8939299583435	pulse	1	t		35.0	2.5	/experiments/knapen_AOT/AOT_stimuli/rescaled_final/2147_fw.mp4	0.0	206.9814088344574	
37	182.40208506584167	fix_post	2		12	35.0	2.5	/experiments/knapen_AOT/AOT_stimuli/rescaled_final/2147_fw.mp4	0.0	207.48956394195557	0.10002899169921875
38	182.5021140575409	fix_pre	0		120	36.0	2.5	/experiments/knapen_AOT/AOT_stimuli/rescaled_final/0147_rv.mp4	0.0	207.58959293365479	1.0002210140228271
38	183.49412608146667	pulse	0	t		36.0	2.5	/experiments/knapen_AOT/AOT_stimuli/rescaled_final/0147_rv.mp4	0.0	208.58160495758057	
38	183.50233507156372	movie	1		245	36.0	2.5	/experiments/knapen_AOT/AOT_stimuli/rescaled_final/0147_rv.mp4	0.0	208.5898139476776	2.508697986602783
38	185.0955069065094	pulse	1	t		36.0	2.5	/experiments/knapen_AOT/AOT_stimuli/rescaled_final/0147_rv.mp4	0.0	210.1829857826233	
38	186.0110330581665	fix_post	2		12	36.0	2.5	/experiments/knapen_AOT/AOT_stimuli/rescaled_final/0147_rv.mp4	0.0	211.0985119342804	0.09999585151672363
39	186.11102890968323	fix_pre	0		120	37.0	2.5	/experiments/knapen_AOT/AOT_stimuli/rescaled_final/1221_fw.mp4	0.0	211.19850778579712	1.0002009868621826
39	186.69473695755005	pulse	0	t		37.0	2.5	/experiments/knapen_AOT/AOT_stimuli/rescaled_final/1221_fw.mp4	0.0	211.78221583366394	
39	187.1112298965454	movie	1		244	37.0	2.5	/experiments/knapen_AOT/AOT_stimuli/rescaled_final/1221_fw.mp4	0.0	212.1987087726593	2.5003130435943604
39	188.2949709892273	pulse	1	t		37.0	2.5	/experiments/knapen_AOT/AOT_stimuli/rescaled_final/1221_fw.mp4	0.0	213.3824498653412	
39	189.61154294013977	fix_post	2		12	37.0	2.5	/experiments/knapen_AOT/AOT_stimuli/rescaled_final/1221_fw.mp4	0.0	214.69902181625366	0.1000211238861084
40	189.71156406402588	fix_pre	0		120	38.0	2.5	/experiments/knapen_AOT/AOT_stimuli/rescaled_final/0275_rv.mp4	0.0	214.79904294013977	1.000169038772583
40	189.89509510993958	pulse	0	t		38.0	2.5	/experiments/knapen_AOT/AOT_stimuli/rescaled_final/0275_rv.mp4	0.0	214.98257398605347	
40	190.71173310279846	movie	1		243	38.0	2.5	/experiments/knapen_AOT/AOT_stimuli/rescaled_final/0275_rv.mp4	0.0	215.79921197891235	2.500339984893799
40	191.49547410011292	pulse	1	t		38.0	2.5	/experiments/knapen_AOT/AOT_stimuli/rescaled_final/0275_rv.mp4	0.0	216.5829529762268	
40	193.09525203704834	pulse	1	t		38.0	2.5	/experiments/knapen_AOT/AOT_stimuli/rescaled_final/0275_rv.mp4	0.0	218.18273091316223	
40	193.21207308769226	fix_post	2		12	38.0	2.5	/experiments/knapen_AOT/AOT_stimuli/rescaled_final/0275_rv.mp4	0.0	218.29955196380615	0.10003185272216797
41	193.31210494041443	fix_pre	0		119	39.0	2.5	/experiments/knapen_AOT/AOT_stimuli/rescaled_final/1232_rv.mp4	0.0	218.39958381652832	0.9917981624603271
41	194.30390310287476	movie	1		244	39.0	2.5	/experiments/knapen_AOT/AOT_stimuli/rescaled_final/1232_rv.mp4	0.0	219.39138197898865	2.5003578662872314
41	194.69599795341492	pulse	1	t		39.0	2.5	/experiments/knapen_AOT/AOT_stimuli/rescaled_final/1232_rv.mp4	0.0	219.7834768295288	
41	196.28878211975098	pulse	1	t		39.0	2.5	/experiments/knapen_AOT/AOT_stimuli/rescaled_final/1232_rv.mp4	0.0	221.37626099586487	
41	196.804260969162	fix_post	2		12	39.0	2.5	/experiments/knapen_AOT/AOT_stimuli/rescaled_final/1232_rv.mp4	0.0	221.89173984527588	0.10005998611450195
42	196.9043209552765	fix_pre	0		120	40.0	2.5	blank	1.0	221.99179983139038	1.0001790523529053
42	197.88886499404907	pulse	0	t		40.0	2.5	blank	1.0	222.97634387016296	
42	197.9045000076294	movie	1		301	40.0	2.5	blank	1.0	222.9919788837433	2.5086541175842285
42	199.4889271259308	pulse	1	t		40.0	2.5	blank	1.0	224.57640600204468	
42	200.41315412521362	fix_post	2		12	40.0	2.5	blank	1.0	225.50063300132751	0.10002279281616211
43	200.51317691802979	fix_pre	0		120	41.0	2.5	/experiments/knapen_AOT/AOT_stimuli/rescaled_final/2145_rv.mp4	0.0	225.60065579414368	1.000169038772583
43	201.08849501609802	pulse	0	t		41.0	2.5	/experiments/knapen_AOT/AOT_stimuli/rescaled_final/2145_rv.mp4	0.0	226.1759738922119	
43	201.51334595680237	movie	1		244	41.0	2.5	/experiments/knapen_AOT/AOT_stimuli/rescaled_final/2145_rv.mp4	0.0	226.60082483291626	2.500368118286133
43	202.689759016037	pulse	1	t		41.0	2.5	/experiments/knapen_AOT/AOT_stimuli/rescaled_final/2145_rv.mp4	0.0	227.77723789215088	
43	204.0137140750885	fix_post	2		12	41.0	2.5	/experiments/knapen_AOT/AOT_stimuli/rescaled_final/2145_rv.mp4	0.0	229.1011929512024	0.10000205039978027
44	204.11371612548828	fix_pre	0		120	42.0	2.5	/experiments/knapen_AOT/AOT_stimuli/rescaled_final/0044_rv.mp4	0.0	229.20119500160217	1.0001637935638428
44	204.28903007507324	pulse	0	t		42.0	2.5	/experiments/knapen_AOT/AOT_stimuli/rescaled_final/0044_rv.mp4	0.0	229.37650895118713	
44	205.11387991905212	movie	1		242	42.0	2.5	/experiments/knapen_AOT/AOT_stimuli/rescaled_final/0044_rv.mp4	0.0	230.20135879516602	2.492150068283081
44	205.8891761302948	pulse	1	t		42.0	2.5	/experiments/knapen_AOT/AOT_stimuli/rescaled_final/0044_rv.mp4	0.0	230.9766550064087	
44	207.48955297470093	pulse	1	t		42.0	2.5	/experiments/knapen_AOT/AOT_stimuli/rescaled_final/0044_rv.mp4	0.0	232.57703185081482	
44	207.6060299873352	fix_post	2		12	42.0	2.5	/experiments/knapen_AOT/AOT_stimuli/rescaled_final/0044_rv.mp4	0.0	232.6935088634491	0.09995412826538086
45	207.7059841156006	fix_pre	0		120	43.0	2.5	/experiments/knapen_AOT/AOT_stimuli/rescaled_final/2026_fw.mp4	0.0	232.79346299171448	1.0000569820404053
45	208.706041097641	movie	1		244	43.0	2.5	/experiments/knapen_AOT/AOT_stimuli/rescaled_final/2026_fw.mp4	0.0	233.79351997375488	2.500511884689331
45	209.08995008468628	pulse	1	t		43.0	2.5	/experiments/knapen_AOT/AOT_stimuli/rescaled_final/2026_fw.mp4	0.0	234.17742896080017	
45	210.68990302085876	pulse	1	t		43.0	2.5	/experiments/knapen_AOT/AOT_stimuli/rescaled_final/2026_fw.mp4	0.0	235.77738189697266	
45	211.20655298233032	fix_post	2		12	43.0	2.5	/experiments/knapen_AOT/AOT_stimuli/rescaled_final/2026_fw.mp4	0.0	236.2940318584442	0.09989213943481445
46	211.30644512176514	fix_pre	0		119	44.0	2.5	/experiments/knapen_AOT/AOT_stimuli/rescaled_final/1606_fw.mp4	0.0	236.39392399787903	0.9918529987335205
46	212.29009294509888	pulse	0	t		44.0	2.5	/experiments/knapen_AOT/AOT_stimuli/rescaled_final/1606_fw.mp4	0.0	237.37757182121277	
46	212.29829812049866	movie	1		245	44.0	2.5	/experiments/knapen_AOT/AOT_stimuli/rescaled_final/1606_fw.mp4	0.0	237.38577699661255	2.508685827255249
46	213.89079403877258	pulse	1	t		44.0	2.5	/experiments/knapen_AOT/AOT_stimuli/rescaled_final/1606_fw.mp4	0.0	238.97827291488647	
46	214.8069839477539	fix_post	2		12	44.0	2.5	/experiments/knapen_AOT/AOT_stimuli/rescaled_final/1606_fw.mp4	0.0	239.8944628238678	0.10003018379211426
47	214.90701413154602	fix_pre	0		120	45.0	2.5	/experiments/knapen_AOT/AOT_stimuli/rescaled_final/0070_rv.mp4	0.0	239.9944930076599	1.0001609325408936
47	215.4907259941101	pulse	0	t		45.0	2.5	/experiments/knapen_AOT/AOT_stimuli/rescaled_final/0070_rv.mp4	0.0	240.578204870224	
47	215.9071750640869	movie	1		246	45.0	2.5	/experiments/knapen_AOT/AOT_stimuli/rescaled_final/0070_rv.mp4	0.0	240.9946539402008	2.5003199577331543
47	217.0910520553589	pulse	1	t		45.0	2.5	/experiments/knapen_AOT/AOT_stimuli/rescaled_final/0070_rv.mp4	0.0	242.17853093147278	
47	218.40749502182007	fix_post	2		12	45.0	2.5	/experiments/knapen_AOT/AOT_stimuli/rescaled_final/0070_rv.mp4	0.0	243.49497389793396	0.10007405281066895
48	218.50756907463074	fix_pre	0		120	46.0	2.5	/experiments/knapen_AOT/AOT_stimuli/rescaled_final/0568_fw.mp4	0.0	243.59504795074463	1.0001208782196045
48	218.6910960674286	pulse	0	t		46.0	2.5	/experiments/knapen_AOT/AOT_stimuli/rescaled_final/0568_fw.mp4	0.0	243.77857494354248	
48	219.50768995285034	movie	1		244	46.0	2.5	/experiments/knapen_AOT/AOT_stimuli/rescaled_final/0568_fw.mp4	0.0	244.59516882896423	2.5003631114959717
48	220.2912950515747	pulse	1	t		46.0	2.5	/experiments/knapen_AOT/AOT_stimuli/rescaled_final/0568_fw.mp4	0.0	245.3787739276886	
48	221.8914110660553	pulse	1	t		46.0	2.5	/experiments/knapen_AOT/AOT_stimuli/rescaled_final/0568_fw.mp4	0.0	246.9788899421692	
48	222.0080530643463	fix_post	2		12	46.0	2.5	/experiments/knapen_AOT/AOT_stimuli/rescaled_final/0568_fw.mp4	0.0	247.0955319404602	0.1000208854675293
49	222.10807394981384	fix_pre	0		119	47.0	2.5	blank	1.0	247.19555282592773	0.9917969703674316
49	223.09987092018127	movie	1		300	47.0	2.5	blank	1.0	248.18734979629517	2.5003981590270996
49	223.49195003509521	pulse	1	t		47.0	2.5	blank	1.0	248.5794289112091	
49	225.0921049118042	pulse	1	t		47.0	2.5	blank	1.0	250.1795837879181	
49	225.60026907920837	fix_post	2		12	47.0	2.5	blank	1.0	250.68774795532227	0.09999799728393555
50	225.7002670764923	fix_pre	0		120	48.0	2.5	/experiments/knapen_AOT/AOT_stimuli/rescaled_final/0132_rv.mp4	0.0	250.7877459526062	1.00016188621521
50	226.69228601455688	pulse	0	t		48.0	2.5	/experiments/knapen_AOT/AOT_stimuli/rescaled_final/0132_rv.mp4	0.0	251.77976489067078	
50	226.70042896270752	movie	1		246	48.0	2.5	/experiments/knapen_AOT/AOT_stimuli/rescaled_final/0132_rv.mp4	0.0	251.7879078388214	2.5086960792541504
50	228.29296398162842	pulse	1	t		48.0	2.5	/experiments/knapen_AOT/AOT_stimuli/rescaled_final/0132_rv.mp4	0.0	253.3804428577423	
50	229.20912504196167	fix_post	2		12	48.0	2.5	/experiments/knapen_AOT/AOT_stimuli/rescaled_final/0132_rv.mp4	0.0	254.29660391807556	0.10002708435058594
51	229.30915212631226	fix_pre	0		120	49.0	2.5	/experiments/knapen_AOT/AOT_stimuli/rescaled_final/2142_rv.mp4	0.0	254.39663100242615	1.0001637935638428
51	229.89277505874634	pulse	0	t		49.0	2.5	/experiments/knapen_AOT/AOT_stimuli/rescaled_final/2142_rv.mp4	0.0	254.98025393486023	
51	230.3093159198761	movie	1		242	49.0	2.5	/experiments/knapen_AOT/AOT_stimuli/rescaled_final/2142_rv.mp4	0.0	255.39679479599	2.500354051589966
51	231.4931468963623	pulse	1	t		49.0	2.5	/experiments/knapen_AOT/AOT_stimuli/rescaled_final/2142_rv.mp4	0.0	256.5806257724762	
51	232.80966997146606	fix_post	2		12	49.0	2.5	/experiments/knapen_AOT/AOT_stimuli/rescaled_final/2142_rv.mp4	0.0	257.89714884757996	0.10001397132873535
52	232.9096839427948	fix_pre	0		120	50.0	2.5	/experiments/knapen_AOT/AOT_stimuli/rescaled_final/1785_rv.mp4	0.0	257.9971628189087	1.0001590251922607
52	233.0933699607849	pulse	0	t		50.0	2.5	/experiments/knapen_AOT/AOT_stimuli/rescaled_final/1785_rv.mp4	0.0	258.1808488368988	
52	233.90984296798706	movie	1		244	50.0	2.5	/experiments/knapen_AOT/AOT_stimuli/rescaled_final/1785_rv.mp4	0.0	258.99732184410095	2.500380039215088
52	234.69350004196167	pulse	1	t		50.0	2.5	/experiments/knapen_AOT/AOT_stimuli/rescaled_final/1785_rv.mp4	0.0	259.78097891807556	
52	236.29361605644226	pulse	1	t		50.0	2.5	/experiments/knapen_AOT/AOT_stimuli/rescaled_final/1785_rv.mp4	0.0	261.38109493255615	
52	236.41022300720215	fix_post	2		12	50.0	2.5	/experiments/knapen_AOT/AOT_stimuli/rescaled_final/1785_rv.mp4	0.0	261.49770188331604	0.09999394416809082
53	236.51021695137024	fix_pre	0		119	51.0	2.5	/experiments/knapen_AOT/AOT_stimuli/rescaled_final/1606_rv.mp4	0.0	261.59769582748413	0.9918110370635986
53	237.50202798843384	movie	1		245	51.0	2.5	/experiments/knapen_AOT/AOT_stimuli/rescaled_final/1606_rv.mp4	0.0	262.58950686454773	2.500359058380127
53	237.8941900730133	pulse	1	t		51.0	2.5	/experiments/knapen_AOT/AOT_stimuli/rescaled_final/1606_rv.mp4	0.0	262.9816689491272	
53	239.49423503875732	pulse	1	t		51.0	2.5	/experiments/knapen_AOT/AOT_stimuli/rescaled_final/1606_rv.mp4	0.0	264.5817139148712	
53	240.00238704681396	fix_post	2		12	51.0	2.5	/experiments/knapen_AOT/AOT_stimuli/rescaled_final/1606_rv.mp4	0.0	265.08986592292786	0.10002589225769043
54	240.10241293907166	fix_pre	0		120	52.0	2.5	/experiments/knapen_AOT/AOT_stimuli/rescaled_final/1177_fw.mp4	0.0	265.18989181518555	1.0001800060272217
54	241.0944550037384	pulse	0	t		52.0	2.5	/experiments/knapen_AOT/AOT_stimuli/rescaled_final/1177_fw.mp4	0.0	266.1819338798523	
54	241.10259294509888	movie	1		245	52.0	2.5	/experiments/knapen_AOT/AOT_stimuli/rescaled_final/1177_fw.mp4	0.0	266.19007182121277	2.508711099624634
54	242.69525003433228	pulse	1	t		52.0	2.5	/experiments/knapen_AOT/AOT_stimuli/rescaled_final/1177_fw.mp4	0.0	267.78272891044617	
54	243.6113040447235	fix_post	2		12	52.0	2.5	/experiments/knapen_AOT/AOT_stimuli/rescaled_final/1177_fw.mp4	0.0	268.6987829208374	0.0999748706817627
55	243.71127891540527	fix_pre	0		120	53.0	2.5	/experiments/knapen_AOT/AOT_stimuli/rescaled_final/0147_fw.mp4	0.0	268.79875779151917	1.0001800060272217
55	244.29492211341858	pulse	0	t		53.0	2.5	/experiments/knapen_AOT/AOT_stimuli/rescaled_final/0147_fw.mp4	0.0	269.38240098953247	
55	244.7114589214325	movie	1		244	53.0	2.5	/experiments/knapen_AOT/AOT_stimuli/rescaled_final/0147_fw.mp4	0.0	269.7989377975464	2.5003440380096436
55	245.89523696899414	pulse	1	t		53.0	2.5	/experiments/knapen_AOT/AOT_stimuli/rescaled_final/0147_fw.mp4	0.0	270.98271584510803	
55	247.21180295944214	fix_post	2		12	53.0	2.5	/experiments/knapen_AOT/AOT_stimuli/rescaled_final/0147_fw.mp4	0.0	272.29928183555603	0.10003399848937988
56	247.31183695793152	fix_pre	0		120	54.0	2.5	/experiments/knapen_AOT/AOT_stimuli/rescaled_final/2024_rv.mp4	0.0	272.3993158340454	1.0001671314239502
56	247.4954559803009	pulse	0	t		54.0	2.5	/experiments/knapen_AOT/AOT_stimuli/rescaled_final/2024_rv.mp4	0.0	272.5829348564148	
56	248.31200408935547	movie	1		246	54.0	2.5	/experiments/knapen_AOT/AOT_stimuli/rescaled_final/2024_rv.mp4	0.0	273.39948296546936	2.5007569789886475
56	249.09566593170166	pulse	1	t		54.0	2.5	/experiments/knapen_AOT/AOT_stimuli/rescaled_final/2024_rv.mp4	0.0	274.18314480781555	
56	250.6959629058838	pulse	1	t		54.0	2.5	/experiments/knapen_AOT/AOT_stimuli/rescaled_final/2024_rv.mp4	0.0	275.7834417819977	
56	250.81276106834412	fix_post	2		12	54.0	2.5	/experiments/knapen_AOT/AOT_stimuli/rescaled_final/2024_rv.mp4	0.0	275.900239944458	0.09964394569396973
57	250.9124050140381	fix_pre	0		120	55.0	2.5	/experiments/knapen_AOT/AOT_stimuli/rescaled_final/0515_rv.mp4	0.0	275.999883890152	1.0001349449157715
57	251.91253995895386	movie	1		245	55.0	2.5	/experiments/knapen_AOT/AOT_stimuli/rescaled_final/0515_rv.mp4	0.0	277.00001883506775	2.492141008377075
57	252.29669189453125	pulse	1	t		55.0	2.5	/experiments/knapen_AOT/AOT_stimuli/rescaled_final/0515_rv.mp4	0.0	277.38417077064514	
57	253.88912796974182	pulse	1	t		55.0	2.5	/experiments/knapen_AOT/AOT_stimuli/rescaled_final/0515_rv.mp4	0.0	278.9766068458557	
57	254.40468096733093	fix_post	2		12	55.0	2.5	/experiments/knapen_AOT/AOT_stimuli/rescaled_final/0515_rv.mp4	0.0	279.4921598434448	0.099884033203125
58	254.50456500053406	fix_pre	0		120	56.0	2.5	blank	1.0	279.59204387664795	1.0001890659332275
58	255.48917508125305	pulse	0	t		56.0	2.5	blank	1.0	280.57665395736694	
58	255.50475406646729	movie	1		301	56.0	2.5	blank	1.0	280.5922329425812	2.508708953857422
58	257.0894660949707	pulse	1	t		56.0	2.5	blank	1.0	282.1769449710846	
58	258.0134630203247	fix_post	2		12	56.0	2.5	blank	1.0	283.1009418964386	0.09995007514953613
59	258.11341309547424	fix_pre	0		120	57.0	2.5	/experiments/knapen_AOT/AOT_stimuli/rescaled_final/0286_rv.mp4	0.0	283.20089197158813	1.0001609325408936
59	258.6895430088043	pulse	0	t		57.0	2.5	/experiments/knapen_AOT/AOT_stimuli/rescaled_final/0286_rv.mp4	0.0	283.7770218849182	
59	259.11357402801514	movie	1		244	57.0	2.5	/experiments/knapen_AOT/AOT_stimuli/rescaled_final/0286_rv.mp4	0.0	284.201052904129	2.5003578662872314
59	260.2892279624939	pulse	1	t		57.0	2.5	/experiments/knapen_AOT/AOT_stimuli/rescaled_final/0286_rv.mp4	0.0	285.3767068386078	
59	261.61393189430237	fix_post	2		12	57.0	2.5	/experiments/knapen_AOT/AOT_stimuli/rescaled_final/0286_rv.mp4	0.0	286.70141077041626	0.1000511646270752
60	261.71398305892944	fix_pre	0		120	58.0	2.5	/experiments/knapen_AOT/AOT_stimuli/rescaled_final/0798_rv.mp4	0.0	286.80146193504333	1.0001749992370605
60	261.88919496536255	pulse	0	t		58.0	2.5	/experiments/knapen_AOT/AOT_stimuli/rescaled_final/0798_rv.mp4	0.0	286.97667384147644	
60	262.7141580581665	movie	1		244	58.0	2.5	/experiments/knapen_AOT/AOT_stimuli/rescaled_final/0798_rv.mp4	0.0	287.8016369342804	2.5003349781036377
60	263.48944091796875	pulse	1	t		58.0	2.5	/experiments/knapen_AOT/AOT_stimuli/rescaled_final/0798_rv.mp4	0.0	288.57691979408264	
60	265.089693069458	pulse	1	t		58.0	2.5	/experiments/knapen_AOT/AOT_stimuli/rescaled_final/0798_rv.mp4	0.0	290.1771719455719	
60	265.21449303627014	fix_post	2		12	58.0	2.5	/experiments/knapen_AOT/AOT_stimuli/rescaled_final/0798_rv.mp4	0.0	290.30197191238403	0.10000896453857422
61	265.3145020008087	fix_pre	0		120	59.0	2.5	/experiments/knapen_AOT/AOT_stimuli/rescaled_final/0703_rv.mp4	0.0	290.4019808769226	1.000133991241455
61	266.31463599205017	movie	1		244	59.0	2.5	/experiments/knapen_AOT/AOT_stimuli/rescaled_final/0703_rv.mp4	0.0	291.40211486816406	2.492061138153076
61	266.68996691703796	pulse	1	t		59.0	2.5	/experiments/knapen_AOT/AOT_stimuli/rescaled_final/0703_rv.mp4	0.0	291.77744579315186	
61	268.2902801036835	pulse	1	t		59.0	2.5	/experiments/knapen_AOT/AOT_stimuli/rescaled_final/0703_rv.mp4	0.0	293.37775897979736	
61	268.80669713020325	fix_post	2		12	59.0	2.5	/experiments/knapen_AOT/AOT_stimuli/rescaled_final/0703_rv.mp4	0.0	293.89417600631714	0.10003185272216797
62	268.9067289829254	fix_pre	0		119	60.0	2.5	/experiments/knapen_AOT/AOT_stimuli/rescaled_final/0007_fw.mp4	0.0	293.9942078590393	0.9918320178985596
62	269.89039397239685	pulse	0	t		60.0	2.5	/experiments/knapen_AOT/AOT_stimuli/rescaled_final/0007_fw.mp4	0.0	294.97787284851074	
62	269.898561000824	movie	1		245	60.0	2.5	/experiments/knapen_AOT/AOT_stimuli/rescaled_final/0007_fw.mp4	0.0	294.98603987693787	2.5087060928344727
62	271.4913170337677	pulse	1	t		60.0	2.5	/experiments/knapen_AOT/AOT_stimuli/rescaled_final/0007_fw.mp4	0.0	296.5787959098816	
62	272.40726709365845	fix_post	2		12	60.0	2.5	/experiments/knapen_AOT/AOT_stimuli/rescaled_final/0007_fw.mp4	0.0	297.49474596977234	0.0999758243560791
63	272.5072429180145	fix_pre	0		120	61.0	2.5	/experiments/knapen_AOT/AOT_stimuli/rescaled_final/0058_rv.mp4	0.0	297.5947217941284	1.0001471042633057
63	273.0908799171448	pulse	0	t		61.0	2.5	/experiments/knapen_AOT/AOT_stimuli/rescaled_final/0058_rv.mp4	0.0	298.17835879325867	
63	273.50739002227783	movie	1		245	61.0	2.5	/experiments/knapen_AOT/AOT_stimuli/rescaled_final/0058_rv.mp4	0.0	298.5948688983917	2.5004220008850098
63	274.69121503829956	pulse	1	t		61.0	2.5	/experiments/knapen_AOT/AOT_stimuli/rescaled_final/0058_rv.mp4	0.0	299.77869391441345	
63	276.00781202316284	fix_post	2		12	61.0	2.5	/experiments/knapen_AOT/AOT_stimuli/rescaled_final/0058_rv.mp4	0.0	301.09529089927673	0.100006103515625
64	276.10781812667847	fix_pre	0		120	62.0	2.5	blank	1.0	301.19529700279236	1.0001368522644043
64	276.2913579940796	pulse	0	t		62.0	2.5	blank	1.0	301.3788368701935	
64	277.10795497894287	movie	1		300	62.0	2.5	blank	1.0	302.19543385505676	2.5004220008850098
64	277.89173913002014	pulse	1	t		62.0	2.5	blank	1.0	302.97921800613403	
64	279.4918451309204	pulse	1	t		62.0	2.5	blank	1.0	304.5793240070343	
64	279.6083769798279	fix_post	2		12	62.0	2.5	blank	1.0	304.6958558559418	0.0999460220336914
65	279.7083230018616	fix_pre	0		120	63.0	2.5	/experiments/knapen_AOT/AOT_stimuli/rescaled_final/1782_fw.mp4	0.0	304.79580187797546	1.000196933746338
65	280.7085199356079	movie	1		243	63.0	2.5	/experiments/knapen_AOT/AOT_stimuli/rescaled_final/1782_fw.mp4	0.0	305.7959988117218	2.4920871257781982
65	281.09264302253723	pulse	1	t		63.0	2.5	/experiments/knapen_AOT/AOT_stimuli/rescaled_final/1782_fw.mp4	0.0	306.1801218986511	
65	282.6923520565033	pulse	1	t		63.0	2.5	/experiments/knapen_AOT/AOT_stimuli/rescaled_final/1782_fw.mp4	0.0	307.7798309326172	
65	283.2006070613861	fix_post	2		12	63.0	2.5	/experiments/knapen_AOT/AOT_stimuli/rescaled_final/1782_fw.mp4	0.0	308.2880859375	0.09994792938232422
66	283.30055499076843	fix_pre	0		120	64.0	2.5	/experiments/knapen_AOT/AOT_stimuli/rescaled_final/2152_rv.mp4	0.0	308.3880338668823	1.0002050399780273
66	284.29265904426575	pulse	0	t		64.0	2.5	/experiments/knapen_AOT/AOT_stimuli/rescaled_final/2152_rv.mp4	0.0	309.38013792037964	
66	284.30076003074646	movie	1		240	64.0	2.5	/experiments/knapen_AOT/AOT_stimuli/rescaled_final/2152_rv.mp4	0.0	309.38823890686035	2.5086429119110107
66	285.8932399749756	pulse	1	t		64.0	2.5	/experiments/knapen_AOT/AOT_stimuli/rescaled_final/2152_rv.mp4	0.0	310.9807188510895	
66	286.80940294265747	fix_post	2		12	64.0	2.5	/experiments/knapen_AOT/AOT_stimuli/rescaled_final/2152_rv.mp4	0.0	311.89688181877136	0.10001897811889648
67	286.90942192077637	fix_pre	0		120	65.0	2.5	/experiments/knapen_AOT/AOT_stimuli/rescaled_final/1137_rv.mp4	0.0	311.99690079689026	1.0001471042633057
67	287.4930810928345	pulse	0	t		65.0	2.5	/experiments/knapen_AOT/AOT_stimuli/rescaled_final/1137_rv.mp4	0.0	312.58055996894836	
67	287.9095690250397	movie	1		244	65.0	2.5	/experiments/knapen_AOT/AOT_stimuli/rescaled_final/1137_rv.mp4	0.0	312.99704790115356	2.5004100799560547
67	289.0933470726013	pulse	1	t		65.0	2.5	/experiments/knapen_AOT/AOT_stimuli/rescaled_final/1137_rv.mp4	0.0	314.1808259487152	
67	290.4099791049957	fix_post	2		12	65.0	2.5	/experiments/knapen_AOT/AOT_stimuli/rescaled_final/1137_rv.mp4	0.0	315.4974579811096	0.09995198249816895
68	290.5099310874939	fix_pre	0		120	66.0	2.5	/experiments/knapen_AOT/AOT_stimuli/rescaled_final/0640_rv.mp4	0.0	315.5974099636078	1.0001888275146484
68	290.6936869621277	pulse	0	t		66.0	2.5	/experiments/knapen_AOT/AOT_stimuli/rescaled_final/0640_rv.mp4	0.0	315.7811658382416	
68	291.51011991500854	movie	1		244	66.0	2.5	/experiments/knapen_AOT/AOT_stimuli/rescaled_final/0640_rv.mp4	0.0	316.59759879112244	2.50052809715271
68	292.29390692710876	pulse	1	t		66.0	2.5	/experiments/knapen_AOT/AOT_stimuli/rescaled_final/0640_rv.mp4	0.0	317.38138580322266	
68	293.8943381309509	pulse	1	t		66.0	2.5	/experiments/knapen_AOT/AOT_stimuli/rescaled_final/0640_rv.mp4	0.0	318.9818170070648	
68	294.01064801216125	fix_post	2		12	66.0	2.5	/experiments/knapen_AOT/AOT_stimuli/rescaled_final/0640_rv.mp4	0.0	319.09812688827515	0.09984898567199707
69	294.11049699783325	fix_pre	0		120	67.0	2.5	/experiments/knapen_AOT/AOT_stimuli/rescaled_final/1222_fw.mp4	0.0	319.19797587394714	1.0001039505004883
69	295.11060094833374	movie	1		243	67.0	2.5	/experiments/knapen_AOT/AOT_stimuli/rescaled_final/1222_fw.mp4	0.0	320.19807982444763	2.492042064666748
69	295.49519300460815	pulse	1	t		67.0	2.5	/experiments/knapen_AOT/AOT_stimuli/rescaled_final/1222_fw.mp4	0.0	320.58267188072205	
69	297.0945990085602	pulse	1	t		67.0	2.5	/experiments/knapen_AOT/AOT_stimuli/rescaled_final/1222_fw.mp4	0.0	322.1820778846741	
69	297.6026430130005	fix_post	2		12	67.0	2.5	/experiments/knapen_AOT/AOT_stimuli/rescaled_final/1222_fw.mp4	0.0	322.6901218891144	0.10003399848937988
70	297.70267701148987	fix_pre	0		120	68.0	2.5	/experiments/knapen_AOT/AOT_stimuli/rescaled_final/1712_fw.mp4	0.0	322.79015588760376	1.0001869201660156
70	298.6948139667511	pulse	0	t		68.0	2.5	/experiments/knapen_AOT/AOT_stimuli/rescaled_final/1712_fw.mp4	0.0	323.782292842865	
70	298.7028639316559	movie	1		245	68.0	2.5	/experiments/knapen_AOT/AOT_stimuli/rescaled_final/1712_fw.mp4	0.0	323.7903428077698	2.5086710453033447
70	300.2955210208893	pulse	1	t		68.0	2.5	/experiments/knapen_AOT/AOT_stimuli/rescaled_final/1712_fw.mp4	0.0	325.3829998970032	
70	301.21153497695923	fix_post	2		12	68.0	2.5	/experiments/knapen_AOT/AOT_stimuli/rescaled_final/1712_fw.mp4	0.0	326.2990138530731	0.10000801086425781
71	301.3115429878235	fix_pre	0		120	69.0	2.5	/experiments/knapen_AOT/AOT_stimuli/rescaled_final/0237_fw.mp4	0.0	326.3990218639374	1.000201940536499
71	301.8951849937439	pulse	0	t		69.0	2.5	/experiments/knapen_AOT/AOT_stimuli/rescaled_final/0237_fw.mp4	0.0	326.9826638698578	
71	302.31174492836	movie	1		245	69.0	2.5	/experiments/knapen_AOT/AOT_stimuli/rescaled_final/0237_fw.mp4	0.0	327.3992238044739	2.5004169940948486
71	303.4956591129303	pulse	1	t		69.0	2.5	/experiments/knapen_AOT/AOT_stimuli/rescaled_final/0237_fw.mp4	0.0	328.5831379890442	
71	304.81216192245483	fix_post	2		12	69.0	2.5	/experiments/knapen_AOT/AOT_stimuli/rescaled_final/0237_fw.mp4	0.0	329.8996407985687	0.09995317459106445
72	304.9121150970459	fix_pre	0		120	70.0	2.5	blank	1.0	329.9995939731598	1.0001678466796875
72	305.0957429409027	pulse	0	t		70.0	2.5	blank	1.0	330.1832218170166	
72	305.9122829437256	movie	1		300	70.0	2.5	blank	1.0	330.9997618198395	2.500399112701416
72	306.6960380077362	pulse	1	t		70.0	2.5	blank	1.0	331.7835168838501	
72	308.28865694999695	pulse	1	t		70.0	2.5	blank	1.0	333.37613582611084	
72	308.412682056427	fix_post	2		12	70.0	2.5	blank	1.0	333.5001609325409	0.09998798370361328
73	308.5126700401306	fix_pre	0		120	71.0	2.5	/experiments/knapen_AOT/AOT_stimuli/rescaled_final/1698_rv.mp4	0.0	333.6001489162445	1.0001530647277832
73	309.5128231048584	movie	1		244	71.0	2.5	/experiments/knapen_AOT/AOT_stimuli/rescaled_final/1698_rv.mp4	0.0	334.6003019809723	2.4919769763946533
73	309.89675402641296	pulse	1	t		71.0	2.5	/experiments/knapen_AOT/AOT_stimuli/rescaled_final/1698_rv.mp4	0.0	334.98423290252686	
73	311.4892649650574	pulse	1	t		71.0	2.5	/experiments/knapen_AOT/AOT_stimuli/rescaled_final/1698_rv.mp4	0.0	336.57674384117126	
73	312.00480008125305	fix_post	2		12	71.0	2.5	/experiments/knapen_AOT/AOT_stimuli/rescaled_final/1698_rv.mp4	0.0	337.09227895736694	0.10003900527954102
74	312.1048390865326	fix_pre	0		120	72.0	2.5	/experiments/knapen_AOT/AOT_stimuli/rescaled_final/1694_fw.mp4	0.0	337.1923179626465	1.0001919269561768
74	313.089359998703	pulse	0	t		72.0	2.5	/experiments/knapen_AOT/AOT_stimuli/rescaled_final/1694_fw.mp4	0.0	338.1768388748169	
74	313.10503101348877	movie	1		245	72.0	2.5	/experiments/knapen_AOT/AOT_stimuli/rescaled_final/1694_fw.mp4	0.0	338.19250988960266	2.5088260173797607
74	314.6979579925537	pulse	1	t		72.0	2.5	/experiments/knapen_AOT/AOT_stimuli/rescaled_final/1694_fw.mp4	0.0	339.7854368686676	
74	315.61385703086853	fix_post	2		12	72.0	2.5	/experiments/knapen_AOT/AOT_stimuli/rescaled_final/1694_fw.mp4	0.0	340.7013359069824	0.09985089302062988
75	315.71370792388916	fix_pre	0		120	73.0	2.5	/experiments/knapen_AOT/AOT_stimuli/rescaled_final/1543_fw.mp4	0.0	340.80118680000305	1.0001871585845947
75	316.2890570163727	pulse	0	t		73.0	2.5	/experiments/knapen_AOT/AOT_stimuli/rescaled_final/1543_fw.mp4	0.0	341.3765358924866	
75	316.71389508247375	movie	1		244	73.0	2.5	/experiments/knapen_AOT/AOT_stimuli/rescaled_final/1543_fw.mp4	0.0	341.80137395858765	2.500300884246826
75	317.89031505584717	pulse	1	t		73.0	2.5	/experiments/knapen_AOT/AOT_stimuli/rescaled_final/1543_fw.mp4	0.0	342.97779393196106	
75	319.2141959667206	fix_post	2		12	73.0	2.5	/experiments/knapen_AOT/AOT_stimuli/rescaled_final/1543_fw.mp4	0.0	344.3016748428345	0.10005497932434082
76	319.3142509460449	fix_pre	0		120	74.0	2.5	/experiments/knapen_AOT/AOT_stimuli/rescaled_final/0846_rv.mp4	0.0	344.4017298221588	1.0002169609069824
76	319.4895889759064	pulse	0	t		74.0	2.5	/experiments/knapen_AOT/AOT_stimuli/rescaled_final/0846_rv.mp4	0.0	344.57706785202026	
76	320.3144679069519	movie	1		245	74.0	2.5	/experiments/knapen_AOT/AOT_stimuli/rescaled_final/0846_rv.mp4	0.0	345.4019467830658	2.5003530979156494
76	321.0897340774536	pulse	1	t		74.0	2.5	/experiments/knapen_AOT/AOT_stimuli/rescaled_final/0846_rv.mp4	0.0	346.1772129535675	
76	322.6900689601898	pulse	1	t		74.0	2.5	/experiments/knapen_AOT/AOT_stimuli/rescaled_final/0846_rv.mp4	0.0	347.7775478363037	
76	322.81482100486755	fix_post	2		12	74.0	2.5	/experiments/knapen_AOT/AOT_stimuli/rescaled_final/0846_rv.mp4	0.0	347.90229988098145	0.10000491142272949
77	322.9148259162903	fix_pre	0		120	75.0	2.5	/experiments/knapen_AOT/AOT_stimuli/rescaled_final/0629_fw.mp4	0.0	348.0023047924042	1.0001211166381836
77	323.91494703292847	movie	1		244	75.0	2.5	/experiments/knapen_AOT/AOT_stimuli/rescaled_final/0629_fw.mp4	0.0	349.00242590904236	2.492013931274414
77	324.2902100086212	pulse	1	t		75.0	2.5	/experiments/knapen_AOT/AOT_stimuli/rescaled_final/0629_fw.mp4	0.0	349.3776888847351	
77	325.89054894447327	pulse	1	t		75.0	2.5	/experiments/knapen_AOT/AOT_stimuli/rescaled_final/0629_fw.mp4	0.0	350.97802782058716	
77	326.4069609642029	fix_post	2		12	75.0	2.5	/experiments/knapen_AOT/AOT_stimuli/rescaled_final/0629_fw.mp4	0.0	351.4944398403168	0.10003304481506348
78	326.50699400901794	fix_pre	0		119	76.0	2.5	/experiments/knapen_AOT/AOT_stimuli/rescaled_final/0084_fw.mp4	0.0	351.59447288513184	0.9918270111083984
78	327.49078702926636	pulse	0	t		76.0	2.5	/experiments/knapen_AOT/AOT_stimuli/rescaled_final/0084_fw.mp4	0.0	352.57826590538025	
78	327.49882102012634	movie	1		246	76.0	2.5	/experiments/knapen_AOT/AOT_stimuli/rescaled_final/0084_fw.mp4	0.0	352.58629989624023	2.508713960647583
78	329.0918810367584	pulse	1	t		76.0	2.5	/experiments/knapen_AOT/AOT_stimuli/rescaled_final/0084_fw.mp4	0.0	354.1793599128723	
78	330.0075349807739	fix_post	2		12	76.0	2.5	/experiments/knapen_AOT/AOT_stimuli/rescaled_final/0084_fw.mp4	0.0	355.0950138568878	0.1000070571899414
79	330.10754203796387	fix_pre	0		120	77.0	2.5	blank	1.0	355.19502091407776	1.0001740455627441
79	330.6912031173706	pulse	0	t		77.0	2.5	blank	1.0	355.7786819934845	
79	331.1077160835266	movie	1		300	77.0	2.5	blank	1.0	356.1951949596405	2.500377893447876
79	332.2913930416107	pulse	1	t		77.0	2.5	blank	1.0	357.3788719177246	
79	333.6080939769745	fix_post	2		12	77.0	2.5	blank	1.0	358.6955728530884	0.0999751091003418
80	333.70806908607483	fix_pre	0		120	78.0	2.5	/experiments/knapen_AOT/AOT_stimuli/rescaled_final/2042_rv.mp4	0.0	358.7955479621887	1.0001699924468994
80	333.8916549682617	pulse	0	t		78.0	2.5	/experiments/knapen_AOT/AOT_stimuli/rescaled_final/2042_rv.mp4	0.0	358.9791338443756	
80	334.70823907852173	movie	1		247	78.0	2.5	/experiments/knapen_AOT/AOT_stimuli/rescaled_final/2042_rv.mp4	0.0	359.7957179546356	2.5003719329833984
80	335.4920001029968	pulse	1	t		78.0	2.5	/experiments/knapen_AOT/AOT_stimuli/rescaled_final/2042_rv.mp4	0.0	360.5794789791107	
80	337.0921399593353	pulse	1	t		78.0	2.5	/experiments/knapen_AOT/AOT_stimuli/rescaled_final/2042_rv.mp4	0.0	362.1796188354492	
80	337.2086110115051	fix_post	2		12	78.0	2.5	/experiments/knapen_AOT/AOT_stimuli/rescaled_final/2042_rv.mp4	0.0	362.296089887619	0.09998202323913574
81	337.30859303474426	fix_pre	0		120	79.0	2.5	/experiments/knapen_AOT/AOT_stimuli/rescaled_final/0515_rv.mp4	0.0	362.39607191085815	1.000195026397705
81	338.30878806114197	movie	1		246	79.0	2.5	/experiments/knapen_AOT/AOT_stimuli/rescaled_final/0515_rv.mp4	0.0	363.39626693725586	2.492074966430664
81	338.6929769515991	pulse	1	t		79.0	2.5	/experiments/knapen_AOT/AOT_stimuli/rescaled_final/0515_rv.mp4	0.0	363.780455827713	
81	340.29261302948	pulse	1	t		79.0	2.5	/experiments/knapen_AOT/AOT_stimuli/rescaled_final/0515_rv.mp4	0.0	365.3800919055939	
81	340.80086302757263	fix_post	2		12	79.0	2.5	/experiments/knapen_AOT/AOT_stimuli/rescaled_final/0515_rv.mp4	0.0	365.8883419036865	0.09993600845336914
82	340.900799036026	fix_pre	0		120	80.0	2.5	/experiments/knapen_AOT/AOT_stimuli/rescaled_final/2026_rv.mp4	0.0	365.9882779121399	1.000175952911377
82	341.89297008514404	pulse	0	t		80.0	2.5	/experiments/knapen_AOT/AOT_stimuli/rescaled_final/2026_rv.mp4	0.0	366.98044896125793	
82	341.9009749889374	movie	1		246	80.0	2.5	/experiments/knapen_AOT/AOT_stimuli/rescaled_final/2026_rv.mp4	0.0	366.98845386505127	2.5086870193481445
82	343.4936830997467	pulse	1	t		80.0	2.5	/experiments/knapen_AOT/AOT_stimuli/rescaled_final/2026_rv.mp4	0.0	368.5811619758606	
82	344.4096620082855	fix_post	2		12	80.0	2.5	/experiments/knapen_AOT/AOT_stimuli/rescaled_final/2026_rv.mp4	0.0	369.4971408843994	0.1001889705657959
83	344.5098509788513	fix_pre	0		120	81.0	2.5	/experiments/knapen_AOT/AOT_stimuli/rescaled_final/0395_rv.mp4	0.0	369.5973298549652	1.0000331401824951
83	345.09333205223083	pulse	0	t		81.0	2.5	/experiments/knapen_AOT/AOT_stimuli/rescaled_final/0395_rv.mp4	0.0	370.1808109283447	
83	345.5098841190338	movie	1		245	81.0	2.5	/experiments/knapen_AOT/AOT_stimuli/rescaled_final/0395_rv.mp4	0.0	370.5973629951477	2.500271797180176
83	346.69370007514954	pulse	1	t		81.0	2.5	/experiments/knapen_AOT/AOT_stimuli/rescaled_final/0395_rv.mp4	0.0	371.7811789512634	
83	348.010155916214	fix_post	2		12	81.0	2.5	/experiments/knapen_AOT/AOT_stimuli/rescaled_final/0395_rv.mp4	0.0	373.0976347923279	0.10021018981933594
84	348.1103661060333	fix_pre	0		120	82.0	2.5	/experiments/knapen_AOT/AOT_stimuli/rescaled_final/0638_rv.mp4	0.0	373.1978449821472	0.9999969005584717
84	348.2938930988312	pulse	0	t		82.0	2.5	/experiments/knapen_AOT/AOT_stimuli/rescaled_final/0638_rv.mp4	0.0	373.38137197494507	
84	349.1103630065918	movie	1		245	82.0	2.5	/experiments/knapen_AOT/AOT_stimuli/rescaled_final/0638_rv.mp4	0.0	374.1978418827057	2.500330924987793
84	349.89404797554016	pulse	1	t		82.0	2.5	/experiments/knapen_AOT/AOT_stimuli/rescaled_final/0638_rv.mp4	0.0	374.98152685165405	
84	351.49200105667114	pulse	1	t		82.0	2.5	/experiments/knapen_AOT/AOT_stimuli/rescaled_final/0638_rv.mp4	0.0	376.57947993278503	
84	351.6106939315796	fix_post	2		12	82.0	2.5	/experiments/knapen_AOT/AOT_stimuli/rescaled_final/0638_rv.mp4	0.0	376.6981728076935	0.10006213188171387
85	351.7107560634613	fix_pre	0		120	83.0	2.5	blank	1.0	376.7982349395752	1.0002119541168213
85	352.7109680175781	movie	1		299	83.0	2.5	blank	1.0	377.798446893692	2.492032051086426
85	353.09461212158203	pulse	1	t		83.0	2.5	blank	1.0	378.1820909976959	
85	354.69472312927246	pulse	1	t		83.0	2.5	blank	1.0	379.78220200538635	
85	355.20300006866455	fix_post	2		12	83.0	2.5	blank	1.0	380.29047894477844	0.09997892379760742
87	355.30297899246216	stim	0		1716					380.39045786857605	14.302168130874634
87	356.29504108428955	pulse	0	t						381.38251996040344	
87	357.89541506767273	pulse	0	t						382.9828939437866	
87	359.49547696113586	pulse	0	t						384.58295583724976	
87	361.0957260131836	pulse	0	t						386.1832048892975	
87	362.6959090232849	pulse	0	t						387.7833878993988	
87	364.29616498947144	pulse	0	t						389.3836438655853	
87	365.8963830471039	pulse	0	t						390.9838619232178	
87	367.488322019577	pulse	0	t						392.5758008956909	
87	369.0884931087494	pulse	0	t						394.1759719848633	
