trial_nr	onset	event_type	phase	response	nr_frames	movie_index	movie_duration	movie_file	blank	onset_abs	duration
0	0.2083299160003662	stim	0		3					19.314146995544434	0.024938106536865234
0	0.21825599670410156	response	0	space						19.32407307624817	
1	0.23326802253723145	stim	0		4663					19.3390851020813	38.875680923461914
1	39.093777894973755	pulse	0	t						58.19959497451782	
1	39.108948945999146	stim	1		1715					58.21476602554321	14.29883885383606
1	40.68948698043823	pulse	1	t						59.7953040599823	
1	42.28975200653076	pulse	1	t						61.39556908607483	
1	43.889851808547974	pulse	1	t						62.99566888809204	
1	45.49020195007324	pulse	1	t						64.59601902961731	
1	47.090411901474	pulse	1	t						66.19622898101807	
1	48.690634965896606	pulse	1	t						67.79645204544067	
1	50.283329010009766	pulse	1	t						69.38914608955383	
1	51.88367295265198	pulse	1	t						70.98949003219604	
2	53.407787799835205	fix_pre	0		11	0.0	2.5	/experiments/knapen_AOT/AOT_stimuli/rescaled_final/1806_rv.mp4	0.0	72.51360487937927	0.09170007705688477
2	53.48369288444519	pulse	0	t		0.0	2.5	/experiments/knapen_AOT/AOT_stimuli/rescaled_final/1806_rv.mp4	0.0	72.58950996398926	
2	53.49948787689209	movie	1		242	0.0	2.5	/experiments/knapen_AOT/AOT_stimuli/rescaled_final/1806_rv.mp4	0.0	72.60530495643616	2.508692979812622
2	55.09281802177429	pulse	1	t		0.0	2.5	/experiments/knapen_AOT/AOT_stimuli/rescaled_final/1806_rv.mp4	0.0	74.19863510131836	
2	56.00818085670471	fix_post	2		12	0.0	2.5	/experiments/knapen_AOT/AOT_stimuli/rescaled_final/1806_rv.mp4	0.0	75.11399793624878	0.10002708435058594
3	56.1082079410553	fix_pre	0		120	1.0	2.5	/experiments/knapen_AOT/AOT_stimuli/rescaled_final/1216_rv.mp4	0.0	75.21402502059937	1.0001640319824219
3	56.68429780006409	pulse	0	t		1.0	2.5	/experiments/knapen_AOT/AOT_stimuli/rescaled_final/1216_rv.mp4	0.0	75.79011487960815	
3	57.10837197303772	movie	1		242	1.0	2.5	/experiments/knapen_AOT/AOT_stimuli/rescaled_final/1216_rv.mp4	0.0	76.21418905258179	2.5004279613494873
3	58.285135984420776	pulse	1	t		1.0	2.5	/experiments/knapen_AOT/AOT_stimuli/rescaled_final/1216_rv.mp4	0.0	77.39095306396484	
3	59.60879993438721	fix_post	2		12	1.0	2.5	/experiments/knapen_AOT/AOT_stimuli/rescaled_final/1216_rv.mp4	0.0	78.71461701393127	0.09992790222167969
4	59.70872783660889	fix_pre	0		120	2.0	2.5	/experiments/knapen_AOT/AOT_stimuli/rescaled_final/1246_fw.mp4	0.0	78.81454491615295	1.0001790523529053
4	59.88390398025513	pulse	0	t		2.0	2.5	/experiments/knapen_AOT/AOT_stimuli/rescaled_final/1246_fw.mp4	0.0	78.9897210597992	
4	60.70890688896179	movie	1		243	2.0	2.5	/experiments/knapen_AOT/AOT_stimuli/rescaled_final/1246_fw.mp4	0.0	79.81472396850586	2.500509023666382
4	61.48411703109741	pulse	1	t		2.0	2.5	/experiments/knapen_AOT/AOT_stimuli/rescaled_final/1246_fw.mp4	0.0	80.58993411064148	
4	63.084577798843384	pulse	1	t		2.0	2.5	/experiments/knapen_AOT/AOT_stimuli/rescaled_final/1246_fw.mp4	0.0	82.19039487838745	
4	63.209415912628174	fix_post	2		12	2.0	2.5	/experiments/knapen_AOT/AOT_stimuli/rescaled_final/1246_fw.mp4	0.0	82.31523299217224	0.09983992576599121
5	63.309255838394165	fix_pre	0		120	3.0	2.5	/experiments/knapen_AOT/AOT_stimuli/rescaled_final/0244_fw.mp4	0.0	82.41507291793823	1.0001530647277832
5	64.30940890312195	movie	1		242	3.0	2.5	/experiments/knapen_AOT/AOT_stimuli/rescaled_final/0244_fw.mp4	0.0	83.41522598266602	2.4921510219573975
5	64.68479299545288	pulse	1	t		3.0	2.5	/experiments/knapen_AOT/AOT_stimuli/rescaled_final/0244_fw.mp4	0.0	83.79061007499695	
5	66.28497385978699	pulse	1	t		3.0	2.5	/experiments/knapen_AOT/AOT_stimuli/rescaled_final/0244_fw.mp4	0.0	85.39079093933105	
5	66.80155992507935	fix_post	2		12	3.0	2.5	/experiments/knapen_AOT/AOT_stimuli/rescaled_final/0244_fw.mp4	0.0	85.90737700462341	0.09992694854736328
6	66.90148687362671	fix_pre	0		119	4.0	2.5	/experiments/knapen_AOT/AOT_stimuli/rescaled_final/0052_rv.mp4	0.0	86.00730395317078	0.991919994354248
6	67.88511085510254	pulse	0	t		4.0	2.5	/experiments/knapen_AOT/AOT_stimuli/rescaled_final/0052_rv.mp4	0.0	86.9909279346466	
6	67.89340686798096	movie	1		244	4.0	2.5	/experiments/knapen_AOT/AOT_stimuli/rescaled_final/0052_rv.mp4	0.0	86.99922394752502	2.508578062057495
6	69.4858009815216	pulse	1	t		4.0	2.5	/experiments/knapen_AOT/AOT_stimuli/rescaled_final/0052_rv.mp4	0.0	88.59161806106567	
6	70.40198493003845	fix_post	2		12	4.0	2.5	/experiments/knapen_AOT/AOT_stimuli/rescaled_final/0052_rv.mp4	0.0	89.50780200958252	0.10002493858337402
7	70.50200986862183	fix_pre	0		120	5.0	2.5	blank	1.0	89.6078269481659	1.0001561641693115
7	71.08569288253784	pulse	0	t		5.0	2.5	blank	1.0	90.19150996208191	
7	71.50216603279114	movie	1		300	5.0	2.5	blank	1.0	90.6079831123352	2.50038480758667
7	72.6859188079834	pulse	1	t		5.0	2.5	blank	1.0	91.79173588752747	
7	74.00255084037781	fix_post	2		12	5.0	2.5	blank	1.0	93.10836791992188	0.10001707077026367
8	74.10256791114807	fix_pre	0		120	6.0	2.5	/experiments/knapen_AOT/AOT_stimuli/rescaled_final/2176_rv.mp4	0.0	93.20838499069214	1.0001180171966553
8	74.28611302375793	pulse	0	t		6.0	2.5	/experiments/knapen_AOT/AOT_stimuli/rescaled_final/2176_rv.mp4	0.0	93.391930103302	
8	75.10268592834473	movie	1		243	6.0	2.5	/experiments/knapen_AOT/AOT_stimuli/rescaled_final/2176_rv.mp4	0.0	94.2085030078888	2.5005218982696533
8	75.88630986213684	pulse	1	t		6.0	2.5	/experiments/knapen_AOT/AOT_stimuli/rescaled_final/2176_rv.mp4	0.0	94.99212694168091	
8	77.48642086982727	pulse	1	t		6.0	2.5	/experiments/knapen_AOT/AOT_stimuli/rescaled_final/2176_rv.mp4	0.0	96.59223794937134	
8	77.60320782661438	fix_post	2		12	6.0	2.5	/experiments/knapen_AOT/AOT_stimuli/rescaled_final/2176_rv.mp4	0.0	96.70902490615845	0.0998680591583252
9	77.7030758857727	fix_pre	0		119	7.0	2.5	/experiments/knapen_AOT/AOT_stimuli/rescaled_final/0796_rv.mp4	0.0	96.80889296531677	0.9918360710144043
9	78.69491195678711	movie	1		242	7.0	2.5	/experiments/knapen_AOT/AOT_stimuli/rescaled_final/0796_rv.mp4	0.0	97.80072903633118	2.5255298614501953
9	79.08698797225952	pulse	1	t		7.0	2.5	/experiments/knapen_AOT/AOT_stimuli/rescaled_final/0796_rv.mp4	0.0	98.19280505180359	
9	80.6870949268341	pulse	1	t		7.0	2.5	/experiments/knapen_AOT/AOT_stimuli/rescaled_final/0796_rv.mp4	0.0	99.79291200637817	
9	81.2204418182373	fix_post	2		9	7.0	2.5	/experiments/knapen_AOT/AOT_stimuli/rescaled_final/0796_rv.mp4	0.0	100.32625889778137	0.07487821578979492
10	81.2953200340271	fix_pre	0		120	8.0	2.5	/experiments/knapen_AOT/AOT_stimuli/rescaled_final/1924_rv.mp4	0.0	100.40113711357117	1.0001897811889648
10	82.28731393814087	pulse	0	t		8.0	2.5	/experiments/knapen_AOT/AOT_stimuli/rescaled_final/1924_rv.mp4	0.0	101.39313101768494	
10	82.29550981521606	movie	1		244	8.0	2.5	/experiments/knapen_AOT/AOT_stimuli/rescaled_final/1924_rv.mp4	0.0	101.40132689476013	2.5086491107940674
10	83.8883228302002	pulse	1	t		8.0	2.5	/experiments/knapen_AOT/AOT_stimuli/rescaled_final/1924_rv.mp4	0.0	102.99413990974426	
10	84.80415892601013	fix_post	2		12	8.0	2.5	/experiments/knapen_AOT/AOT_stimuli/rescaled_final/1924_rv.mp4	0.0	103.9099760055542	0.09997105598449707
11	84.90412998199463	fix_pre	0		120	9.0	2.5	/experiments/knapen_AOT/AOT_stimuli/rescaled_final/0488_rv.mp4	0.0	104.0099470615387	1.0001928806304932
11	85.48785591125488	pulse	0	t		9.0	2.5	/experiments/knapen_AOT/AOT_stimuli/rescaled_final/0488_rv.mp4	0.0	104.59367299079895	
11	85.90432286262512	movie	1		243	9.0	2.5	/experiments/knapen_AOT/AOT_stimuli/rescaled_final/0488_rv.mp4	0.0	105.01013994216919	2.500425100326538
11	87.08815884590149	pulse	1	t		9.0	2.5	/experiments/knapen_AOT/AOT_stimuli/rescaled_final/0488_rv.mp4	0.0	106.19397592544556	
11	88.40474796295166	fix_post	2		12	9.0	2.5	/experiments/knapen_AOT/AOT_stimuli/rescaled_final/0488_rv.mp4	0.0	107.51056504249573	0.09993696212768555
12	88.50468492507935	fix_pre	0		120	10.0	2.5	/experiments/knapen_AOT/AOT_stimuli/rescaled_final/1344_fw.mp4	0.0	107.61050200462341	1.0001718997955322
12	88.68832588195801	pulse	0	t		10.0	2.5	/experiments/knapen_AOT/AOT_stimuli/rescaled_final/1344_fw.mp4	0.0	107.79414296150208	
12	89.50485682487488	movie	1		243	10.0	2.5	/experiments/knapen_AOT/AOT_stimuli/rescaled_final/1344_fw.mp4	0.0	108.61067390441895	2.500437021255493
12	90.28848099708557	pulse	1	t		10.0	2.5	/experiments/knapen_AOT/AOT_stimuli/rescaled_final/1344_fw.mp4	0.0	109.39429807662964	
12	91.88888382911682	pulse	1	t		10.0	2.5	/experiments/knapen_AOT/AOT_stimuli/rescaled_final/1344_fw.mp4	0.0	110.99470090866089	
12	92.00529384613037	fix_post	2		12	10.0	2.5	/experiments/knapen_AOT/AOT_stimuli/rescaled_final/1344_fw.mp4	0.0	111.11111092567444	0.09995412826538086
13	92.10524797439575	fix_pre	0		120	11.0	2.5	/experiments/knapen_AOT/AOT_stimuli/rescaled_final/1577_rv.mp4	0.0	111.21106505393982	1.0001380443572998
13	93.10538601875305	movie	1		241	11.0	2.5	/experiments/knapen_AOT/AOT_stimuli/rescaled_final/1577_rv.mp4	0.0	112.21120309829712	2.4922139644622803
13	93.48975586891174	pulse	1	t		11.0	2.5	/experiments/knapen_AOT/AOT_stimuli/rescaled_final/1577_rv.mp4	0.0	112.59557294845581	
13	95.08922481536865	pulse	1	t		11.0	2.5	/experiments/knapen_AOT/AOT_stimuli/rescaled_final/1577_rv.mp4	0.0	114.19504189491272	
13	95.59759998321533	fix_post	2		12	11.0	2.5	/experiments/knapen_AOT/AOT_stimuli/rescaled_final/1577_rv.mp4	0.0	114.7034170627594	0.09986591339111328
14	95.69746589660645	fix_pre	0		120	12.0	2.5	/experiments/knapen_AOT/AOT_stimuli/rescaled_final/1763_fw.mp4	0.0	114.80328297615051	1.0001509189605713
14	96.68949699401855	pulse	0	t		12.0	2.5	/experiments/knapen_AOT/AOT_stimuli/rescaled_final/1763_fw.mp4	0.0	115.79531407356262	
14	96.69761681556702	movie	1		243	12.0	2.5	/experiments/knapen_AOT/AOT_stimuli/rescaled_final/1763_fw.mp4	0.0	115.80343389511108	2.5086700916290283
14	98.29459595680237	pulse	1	t		12.0	2.5	/experiments/knapen_AOT/AOT_stimuli/rescaled_final/1763_fw.mp4	0.0	117.40041303634644	
14	99.20628690719604	fix_post	2		12	12.0	2.5	/experiments/knapen_AOT/AOT_stimuli/rescaled_final/1763_fw.mp4	0.0	118.31210398674011	0.09999704360961914
15	99.30628395080566	fix_pre	0		120	13.0	2.5	blank	1.0	118.41210103034973	1.000182867050171
15	99.88998579978943	pulse	0	t		13.0	2.5	blank	1.0	118.9958028793335	
15	100.30646681785583	movie	1		300	13.0	2.5	blank	1.0	119.4122838973999	2.5003621578216553
15	101.49024987220764	pulse	1	t		13.0	2.5	blank	1.0	120.59606695175171	
15	102.80682897567749	fix_post	2		12	13.0	2.5	blank	1.0	121.91264605522156	0.0999898910522461
16	102.90681886672974	fix_pre	0		120	14.0	2.5	/experiments/knapen_AOT/AOT_stimuli/rescaled_final/1482_fw.mp4	0.0	122.0126359462738	1.0002200603485107
16	103.09045100212097	pulse	0	t		14.0	2.5	/experiments/knapen_AOT/AOT_stimuli/rescaled_final/1482_fw.mp4	0.0	122.19626808166504	
16	103.90703892707825	movie	1		242	14.0	2.5	/experiments/knapen_AOT/AOT_stimuli/rescaled_final/1482_fw.mp4	0.0	123.01285600662231	2.5005199909210205
16	104.69065284729004	pulse	1	t		14.0	2.5	/experiments/knapen_AOT/AOT_stimuli/rescaled_final/1482_fw.mp4	0.0	123.7964699268341	
16	106.29079580307007	pulse	1	t		14.0	2.5	/experiments/knapen_AOT/AOT_stimuli/rescaled_final/1482_fw.mp4	0.0	125.39661288261414	
16	106.40755891799927	fix_post	2		12	14.0	2.5	/experiments/knapen_AOT/AOT_stimuli/rescaled_final/1482_fw.mp4	0.0	125.51337599754333	0.0998220443725586
17	106.50738096237183	fix_pre	0		120	15.0	2.5	/experiments/knapen_AOT/AOT_stimuli/rescaled_final/0435_rv.mp4	0.0	125.6131980419159	1.0001170635223389
17	107.50749802589417	movie	1		242	15.0	2.5	/experiments/knapen_AOT/AOT_stimuli/rescaled_final/0435_rv.mp4	0.0	126.61331510543823	2.4921038150787354
17	107.89181280136108	pulse	1	t		15.0	2.5	/experiments/knapen_AOT/AOT_stimuli/rescaled_final/0435_rv.mp4	0.0	126.99762988090515	
17	109.49140787124634	pulse	1	t		15.0	2.5	/experiments/knapen_AOT/AOT_stimuli/rescaled_final/0435_rv.mp4	0.0	128.5972249507904	
17	109.9996018409729	fix_post	2		12	15.0	2.5	/experiments/knapen_AOT/AOT_stimuli/rescaled_final/0435_rv.mp4	0.0	129.10541892051697	0.10008096694946289
18	110.09968280792236	fix_pre	0		120	16.0	2.5	/experiments/knapen_AOT/AOT_stimuli/rescaled_final/1701_rv.mp4	0.0	129.20549988746643	1.0000290870666504
18	111.0842878818512	pulse	0	t		16.0	2.5	/experiments/knapen_AOT/AOT_stimuli/rescaled_final/1701_rv.mp4	0.0	130.19010496139526	
18	111.09971189498901	movie	1		244	16.0	2.5	/experiments/knapen_AOT/AOT_stimuli/rescaled_final/1701_rv.mp4	0.0	130.20552897453308	2.5086679458618164
18	112.69241285324097	pulse	1	t		16.0	2.5	/experiments/knapen_AOT/AOT_stimuli/rescaled_final/1701_rv.mp4	0.0	131.79822993278503	
18	113.60837984085083	fix_post	2		12	16.0	2.5	/experiments/knapen_AOT/AOT_stimuli/rescaled_final/1701_rv.mp4	0.0	132.7141969203949	0.10007715225219727
19	113.70845699310303	fix_pre	0		120	17.0	2.5	/experiments/knapen_AOT/AOT_stimuli/rescaled_final/1773_rv.mp4	0.0	132.8142740726471	1.0001859664916992
19	114.28466296195984	pulse	0	t		17.0	2.5	/experiments/knapen_AOT/AOT_stimuli/rescaled_final/1773_rv.mp4	0.0	133.3904800415039	
19	114.70864295959473	movie	1		242	17.0	2.5	/experiments/knapen_AOT/AOT_stimuli/rescaled_final/1773_rv.mp4	0.0	133.8144600391388	2.500417947769165
19	115.88810896873474	pulse	1	t		17.0	2.5	/experiments/knapen_AOT/AOT_stimuli/rescaled_final/1773_rv.mp4	0.0	134.9939260482788	
19	117.20906090736389	fix_post	2		12	17.0	2.5	/experiments/knapen_AOT/AOT_stimuli/rescaled_final/1773_rv.mp4	0.0	136.31487798690796	0.09988689422607422
20	117.30894780158997	fix_pre	0		120	18.0	2.5	/experiments/knapen_AOT/AOT_stimuli/rescaled_final/0907_rv.mp4	0.0	136.41476488113403	1.0002100467681885
20	117.48439192771912	pulse	0	t		18.0	2.5	/experiments/knapen_AOT/AOT_stimuli/rescaled_final/0907_rv.mp4	0.0	136.59020900726318	
20	118.30915784835815	movie	1		242	18.0	2.5	/experiments/knapen_AOT/AOT_stimuli/rescaled_final/0907_rv.mp4	0.0	137.41497492790222	2.5004560947418213
20	119.08455896377563	pulse	1	t		18.0	2.5	/experiments/knapen_AOT/AOT_stimuli/rescaled_final/0907_rv.mp4	0.0	138.1903760433197	
20	120.68464088439941	pulse	1	t		18.0	2.5	/experiments/knapen_AOT/AOT_stimuli/rescaled_final/0907_rv.mp4	0.0	139.79045796394348	
20	120.80961394309998	fix_post	2		12	18.0	2.5	/experiments/knapen_AOT/AOT_stimuli/rescaled_final/0907_rv.mp4	0.0	139.91543102264404	0.09992003440856934
21	120.90953397750854	fix_pre	0		119	19.0	2.5	blank	1.0	140.0153510570526	0.9918019771575928
21	121.90133595466614	movie	1		300	19.0	2.5	blank	1.0	141.0071530342102	2.5003809928894043
21	122.28485584259033	pulse	1	t		19.0	2.5	blank	1.0	141.3906729221344	
21	123.88525986671448	pulse	1	t		19.0	2.5	blank	1.0	142.99107694625854	
21	124.40171694755554	fix_post	2		12	19.0	2.5	blank	1.0	143.5075340270996	0.09999895095825195
22	124.5017158985138	fix_pre	0		119	20.0	2.5	/experiments/knapen_AOT/AOT_stimuli/rescaled_final/0600_fw.mp4	0.0	143.60753297805786	0.9918320178985596
22	125.48552584648132	pulse	0	t		20.0	2.5	/experiments/knapen_AOT/AOT_stimuli/rescaled_final/0600_fw.mp4	0.0	144.5913429260254	
22	125.49354791641235	movie	1		244	20.0	2.5	/experiments/knapen_AOT/AOT_stimuli/rescaled_final/0600_fw.mp4	0.0	144.59936499595642	2.508718967437744
22	127.08614182472229	pulse	1	t		20.0	2.5	/experiments/knapen_AOT/AOT_stimuli/rescaled_final/0600_fw.mp4	0.0	146.19195890426636	
22	128.0022668838501	fix_post	2		12	20.0	2.5	/experiments/knapen_AOT/AOT_stimuli/rescaled_final/0600_fw.mp4	0.0	147.10808396339417	0.10006594657897949
23	128.10233283042908	fix_pre	0		120	21.0	2.5	/experiments/knapen_AOT/AOT_stimuli/rescaled_final/0213_rv.mp4	0.0	147.20814990997314	1.000075101852417
23	128.68583393096924	pulse	0	t		21.0	2.5	/experiments/knapen_AOT/AOT_stimuli/rescaled_final/0213_rv.mp4	0.0	147.7916510105133	
23	129.1024079322815	movie	1		243	21.0	2.5	/experiments/knapen_AOT/AOT_stimuli/rescaled_final/0213_rv.mp4	0.0	148.20822501182556	2.500365972518921
23	130.28620100021362	pulse	1	t		21.0	2.5	/experiments/knapen_AOT/AOT_stimuli/rescaled_final/0213_rv.mp4	0.0	149.3920180797577	
23	131.60277390480042	fix_post	2		12	21.0	2.5	/experiments/knapen_AOT/AOT_stimuli/rescaled_final/0213_rv.mp4	0.0	150.70859098434448	0.10006594657897949
24	131.7028398513794	fix_pre	0		120	22.0	2.5	/experiments/knapen_AOT/AOT_stimuli/rescaled_final/0576_fw.mp4	0.0	150.80865693092346	1.000096082687378
24	131.88643789291382	pulse	0	t		22.0	2.5	/experiments/knapen_AOT/AOT_stimuli/rescaled_final/0576_fw.mp4	0.0	150.99225497245789	
24	132.70293593406677	movie	1		244	22.0	2.5	/experiments/knapen_AOT/AOT_stimuli/rescaled_final/0576_fw.mp4	0.0	151.80875301361084	2.5004220008850098
24	133.48666191101074	pulse	1	t		22.0	2.5	/experiments/knapen_AOT/AOT_stimuli/rescaled_final/0576_fw.mp4	0.0	152.5924789905548	
24	135.08685183525085	pulse	1	t		22.0	2.5	/experiments/knapen_AOT/AOT_stimuli/rescaled_final/0576_fw.mp4	0.0	154.19266891479492	
24	135.20335793495178	fix_post	2		12	22.0	2.5	/experiments/knapen_AOT/AOT_stimuli/rescaled_final/0576_fw.mp4	0.0	154.30917501449585	0.10004591941833496
25	135.30340385437012	fix_pre	0		120	23.0	2.5	/experiments/knapen_AOT/AOT_stimuli/rescaled_final/0307_rv.mp4	0.0	154.40922093391418	1.0001039505004883
25	136.3035078048706	movie	1		241	23.0	2.5	/experiments/knapen_AOT/AOT_stimuli/rescaled_final/0307_rv.mp4	0.0	155.40932488441467	2.4921650886535645
25	136.68756985664368	pulse	1	t		23.0	2.5	/experiments/knapen_AOT/AOT_stimuli/rescaled_final/0307_rv.mp4	0.0	155.79338693618774	
25	138.2873659133911	pulse	1	t		23.0	2.5	/experiments/knapen_AOT/AOT_stimuli/rescaled_final/0307_rv.mp4	0.0	157.39318299293518	
25	138.79567289352417	fix_post	2		12	23.0	2.5	/experiments/knapen_AOT/AOT_stimuli/rescaled_final/0307_rv.mp4	0.0	157.90148997306824	0.09986996650695801
26	138.89554286003113	fix_pre	0		120	24.0	2.5	/experiments/knapen_AOT/AOT_stimuli/rescaled_final/0985_fw.mp4	0.0	158.0013599395752	1.0001590251922607
26	139.887619972229	pulse	0	t		24.0	2.5	/experiments/knapen_AOT/AOT_stimuli/rescaled_final/0985_fw.mp4	0.0	158.99343705177307	
26	139.8957018852234	movie	1		244	24.0	2.5	/experiments/knapen_AOT/AOT_stimuli/rescaled_final/0985_fw.mp4	0.0	159.00151896476746	2.5086629390716553
26	141.48848700523376	pulse	1	t		24.0	2.5	/experiments/knapen_AOT/AOT_stimuli/rescaled_final/0985_fw.mp4	0.0	160.59430408477783	
26	142.40436482429504	fix_post	2		12	24.0	2.5	/experiments/knapen_AOT/AOT_stimuli/rescaled_final/0985_fw.mp4	0.0	161.5101819038391	0.10007214546203613
27	142.50443696975708	fix_pre	0		120	25.0	2.5	/experiments/knapen_AOT/AOT_stimuli/rescaled_final/0278_rv.mp4	0.0	161.61025404930115	1.0001499652862549
27	143.08796787261963	pulse	0	t		25.0	2.5	/experiments/knapen_AOT/AOT_stimuli/rescaled_final/0278_rv.mp4	0.0	162.1937849521637	
27	143.50458693504333	movie	1		240	25.0	2.5	/experiments/knapen_AOT/AOT_stimuli/rescaled_final/0278_rv.mp4	0.0	162.6104040145874	2.5004100799560547
27	144.68835186958313	pulse	1	t		25.0	2.5	/experiments/knapen_AOT/AOT_stimuli/rescaled_final/0278_rv.mp4	0.0	163.7941689491272	
27	146.0049970149994	fix_post	2		12	25.0	2.5	/experiments/knapen_AOT/AOT_stimuli/rescaled_final/0278_rv.mp4	0.0	165.11081409454346	0.09995698928833008
28	146.10495400428772	fix_pre	0		120	26.0	2.5	/experiments/knapen_AOT/AOT_stimuli/rescaled_final/1710_rv.mp4	0.0	165.2107710838318	1.0001749992370605
28	146.28862881660461	pulse	0	t		26.0	2.5	/experiments/knapen_AOT/AOT_stimuli/rescaled_final/1710_rv.mp4	0.0	165.39444589614868	
28	147.10512900352478	movie	1		243	26.0	2.5	/experiments/knapen_AOT/AOT_stimuli/rescaled_final/1710_rv.mp4	0.0	166.21094608306885	2.5003809928894043
28	147.8887917995453	pulse	1	t		26.0	2.5	/experiments/knapen_AOT/AOT_stimuli/rescaled_final/1710_rv.mp4	0.0	166.99460887908936	
28	149.48940801620483	pulse	1	t		26.0	2.5	/experiments/knapen_AOT/AOT_stimuli/rescaled_final/1710_rv.mp4	0.0	168.5952250957489	
28	149.60550999641418	fix_post	2		12	26.0	2.5	/experiments/knapen_AOT/AOT_stimuli/rescaled_final/1710_rv.mp4	0.0	168.71132707595825	0.09998488426208496
29	149.70549488067627	fix_pre	0		119	27.0	2.5	/experiments/knapen_AOT/AOT_stimuli/rescaled_final/1966_fw.mp4	0.0	168.81131196022034	0.9918420314788818
29	150.69733691215515	movie	1		242	27.0	2.5	/experiments/knapen_AOT/AOT_stimuli/rescaled_final/1966_fw.mp4	0.0	169.80315399169922	2.5004401206970215
29	151.0893428325653	pulse	1	t		27.0	2.5	/experiments/knapen_AOT/AOT_stimuli/rescaled_final/1966_fw.mp4	0.0	170.19515991210938	
29	152.6894989013672	pulse	1	t		27.0	2.5	/experiments/knapen_AOT/AOT_stimuli/rescaled_final/1966_fw.mp4	0.0	171.79531598091125	
29	153.19777703285217	fix_post	2		12	27.0	2.5	/experiments/knapen_AOT/AOT_stimuli/rescaled_final/1966_fw.mp4	0.0	172.30359411239624	0.09991192817687988
30	153.29768896102905	fix_pre	0		120	28.0	2.5	blank	1.0	172.40350604057312	1.0001718997955322
30	154.28976488113403	pulse	0	t		28.0	2.5	blank	1.0	173.3955819606781	
30	154.29786086082458	movie	1		301	28.0	2.5	blank	1.0	173.40367794036865	2.5087101459503174
30	155.88994789123535	pulse	1	t		28.0	2.5	blank	1.0	174.99576497077942	
30	156.8065710067749	fix_post	2		12	28.0	2.5	blank	1.0	175.91238808631897	0.10005593299865723
31	156.90662693977356	fix_pre	0		120	29.0	2.5	/experiments/knapen_AOT/AOT_stimuli/rescaled_final/1839_fw.mp4	0.0	176.01244401931763	1.0000720024108887
31	157.49015188217163	pulse	0	t		29.0	2.5	/experiments/knapen_AOT/AOT_stimuli/rescaled_final/1839_fw.mp4	0.0	176.5959689617157	
31	157.90669894218445	movie	1		242	29.0	2.5	/experiments/knapen_AOT/AOT_stimuli/rescaled_final/1839_fw.mp4	0.0	177.01251602172852	2.5004520416259766
31	159.09053492546082	pulse	1	t		29.0	2.5	/experiments/knapen_AOT/AOT_stimuli/rescaled_final/1839_fw.mp4	0.0	178.19635200500488	
31	160.40715098381042	fix_post	2		12	29.0	2.5	/experiments/knapen_AOT/AOT_stimuli/rescaled_final/1839_fw.mp4	0.0	179.5129680633545	0.09999203681945801
32	160.50714302062988	fix_pre	0		120	30.0	2.5	/experiments/knapen_AOT/AOT_stimuli/rescaled_final/2060_rv.mp4	0.0	179.61296010017395	1.000121831893921
32	160.69071292877197	pulse	0	t		30.0	2.5	/experiments/knapen_AOT/AOT_stimuli/rescaled_final/2060_rv.mp4	0.0	179.79653000831604	
32	161.5072648525238	movie	1		242	30.0	2.5	/experiments/knapen_AOT/AOT_stimuli/rescaled_final/2060_rv.mp4	0.0	180.61308193206787	2.5004961490631104
32	162.2909300327301	pulse	1	t		30.0	2.5	/experiments/knapen_AOT/AOT_stimuli/rescaled_final/2060_rv.mp4	0.0	181.39674711227417	
32	163.89164781570435	pulse	1	t		30.0	2.5	/experiments/knapen_AOT/AOT_stimuli/rescaled_final/2060_rv.mp4	0.0	182.9974648952484	
32	164.0077610015869	fix_post	2		12	30.0	2.5	/experiments/knapen_AOT/AOT_stimuli/rescaled_final/2060_rv.mp4	0.0	183.11357808113098	0.09987998008728027
33	164.1076409816742	fix_pre	0		120	31.0	2.5	/experiments/knapen_AOT/AOT_stimuli/rescaled_final/1272_fw.mp4	0.0	183.21345806121826	1.0001800060272217
33	165.10782098770142	movie	1		243	31.0	2.5	/experiments/knapen_AOT/AOT_stimuli/rescaled_final/1272_fw.mp4	0.0	184.21363806724548	2.491971015930176
33	165.49203991889954	pulse	1	t		31.0	2.5	/experiments/knapen_AOT/AOT_stimuli/rescaled_final/1272_fw.mp4	0.0	184.5978569984436	
33	167.0843620300293	pulse	1	t		31.0	2.5	/experiments/knapen_AOT/AOT_stimuli/rescaled_final/1272_fw.mp4	0.0	186.19017910957336	
33	167.5997920036316	fix_post	2		12	31.0	2.5	/experiments/knapen_AOT/AOT_stimuli/rescaled_final/1272_fw.mp4	0.0	186.70560908317566	0.10002899169921875
34	167.6998209953308	fix_pre	0		120	32.0	2.5	/experiments/knapen_AOT/AOT_stimuli/rescaled_final/0181_rv.mp4	0.0	186.80563807487488	1.0001659393310547
34	168.68442296981812	pulse	0	t		32.0	2.5	/experiments/knapen_AOT/AOT_stimuli/rescaled_final/0181_rv.mp4	0.0	187.79024004936218	
34	168.69998693466187	movie	1		245	32.0	2.5	/experiments/knapen_AOT/AOT_stimuli/rescaled_final/0181_rv.mp4	0.0	187.80580401420593	2.5087039470672607
34	170.29651284217834	pulse	1	t		32.0	2.5	/experiments/knapen_AOT/AOT_stimuli/rescaled_final/0181_rv.mp4	0.0	189.4023299217224	
34	171.20869088172913	fix_post	2		12	32.0	2.5	/experiments/knapen_AOT/AOT_stimuli/rescaled_final/0181_rv.mp4	0.0	190.3145079612732	0.10001492500305176
35	171.30870580673218	fix_pre	0		120	33.0	2.5	/experiments/knapen_AOT/AOT_stimuli/rescaled_final/1788_rv.mp4	0.0	190.41452288627625	1.0001511573791504
35	171.8840789794922	pulse	0	t		33.0	2.5	/experiments/knapen_AOT/AOT_stimuli/rescaled_final/1788_rv.mp4	0.0	190.98989605903625	
35	172.30885696411133	movie	1		243	33.0	2.5	/experiments/knapen_AOT/AOT_stimuli/rescaled_final/1788_rv.mp4	0.0	191.4146740436554	2.500380039215088
35	173.48477387428284	pulse	1	t		33.0	2.5	/experiments/knapen_AOT/AOT_stimuli/rescaled_final/1788_rv.mp4	0.0	192.5905909538269	
35	174.80923700332642	fix_post	2		12	33.0	2.5	/experiments/knapen_AOT/AOT_stimuli/rescaled_final/1788_rv.mp4	0.0	193.91505408287048	0.1000218391418457
36	174.90925884246826	fix_pre	0		120	34.0	2.5	blank	1.0	194.01507592201233	1.000270128250122
36	175.08448386192322	pulse	0	t		34.0	2.5	blank	1.0	194.19030094146729	
36	175.90952897071838	movie	1		299	34.0	2.5	blank	1.0	195.01534605026245	2.4919168949127197
36	176.6847939491272	pulse	1	t		34.0	2.5	blank	1.0	195.79061102867126	
36	178.2848699092865	pulse	1	t		34.0	2.5	blank	1.0	197.39068698883057	
36	178.4014458656311	fix_post	2		13	34.0	2.5	blank	1.0	197.50726294517517	0.10834598541259766
37	178.5097918510437	fix_pre	0		119	35.0	2.5	/experiments/knapen_AOT/AOT_stimuli/rescaled_final/2068_fw.mp4	0.0	197.61560893058777	0.991826057434082
37	179.50161790847778	movie	1		243	35.0	2.5	/experiments/knapen_AOT/AOT_stimuli/rescaled_final/2068_fw.mp4	0.0	198.60743498802185	2.500369071960449
37	179.88565397262573	pulse	1	t		35.0	2.5	/experiments/knapen_AOT/AOT_stimuli/rescaled_final/2068_fw.mp4	0.0	198.9914710521698	
37	181.4854278564453	pulse	1	t		35.0	2.5	/experiments/knapen_AOT/AOT_stimuli/rescaled_final/2068_fw.mp4	0.0	200.59124493598938	
37	182.00198698043823	fix_post	2		12	35.0	2.5	/experiments/knapen_AOT/AOT_stimuli/rescaled_final/2068_fw.mp4	0.0	201.1078040599823	0.1000669002532959
38	182.10205388069153	fix_pre	0		119	36.0	2.5	/experiments/knapen_AOT/AOT_stimuli/rescaled_final/0753_fw.mp4	0.0	201.2078709602356	0.9917631149291992
38	183.08572387695312	pulse	0	t		36.0	2.5	/experiments/knapen_AOT/AOT_stimuli/rescaled_final/0753_fw.mp4	0.0	202.1915409564972	
38	183.09381699562073	movie	1		244	36.0	2.5	/experiments/knapen_AOT/AOT_stimuli/rescaled_final/0753_fw.mp4	0.0	202.1996340751648	2.508713960647583
38	184.68651294708252	pulse	1	t		36.0	2.5	/experiments/knapen_AOT/AOT_stimuli/rescaled_final/0753_fw.mp4	0.0	203.7923300266266	
38	185.6025309562683	fix_post	2		12	36.0	2.5	/experiments/knapen_AOT/AOT_stimuli/rescaled_final/0753_fw.mp4	0.0	204.70834803581238	0.10007286071777344
39	185.70260381698608	fix_pre	0		120	37.0	2.5	/experiments/knapen_AOT/AOT_stimuli/rescaled_final/1236_rv.mp4	0.0	204.80842089653015	1.0000929832458496
39	186.28614783287048	pulse	0	t		37.0	2.5	/experiments/knapen_AOT/AOT_stimuli/rescaled_final/1236_rv.mp4	0.0	205.39196491241455	
39	186.70269680023193	movie	1		242	37.0	2.5	/experiments/knapen_AOT/AOT_stimuli/rescaled_final/1236_rv.mp4	0.0	205.808513879776	2.500552177429199
39	187.88648295402527	pulse	1	t		37.0	2.5	/experiments/knapen_AOT/AOT_stimuli/rescaled_final/1236_rv.mp4	0.0	206.99230003356934	
39	189.20324897766113	fix_post	2		12	37.0	2.5	/experiments/knapen_AOT/AOT_stimuli/rescaled_final/1236_rv.mp4	0.0	208.3090660572052	0.09987783432006836
40	189.3031268119812	fix_pre	0		120	38.0	2.5	/experiments/knapen_AOT/AOT_stimuli/rescaled_final/0576_fw.mp4	0.0	208.40894389152527	1.0001311302185059
40	189.48657202720642	pulse	0	t		38.0	2.5	/experiments/knapen_AOT/AOT_stimuli/rescaled_final/0576_fw.mp4	0.0	208.5923891067505	
40	190.3032579421997	movie	1		243	38.0	2.5	/experiments/knapen_AOT/AOT_stimuli/rescaled_final/0576_fw.mp4	0.0	209.40907502174377	2.5003950595855713
40	191.0868468284607	pulse	1	t		38.0	2.5	/experiments/knapen_AOT/AOT_stimuli/rescaled_final/0576_fw.mp4	0.0	210.19266390800476	
40	192.68699979782104	pulse	1	t		38.0	2.5	/experiments/knapen_AOT/AOT_stimuli/rescaled_final/0576_fw.mp4	0.0	211.7928168773651	
40	192.80365300178528	fix_post	2		12	38.0	2.5	/experiments/knapen_AOT/AOT_stimuli/rescaled_final/0576_fw.mp4	0.0	211.90947008132935	0.0999748706817627
41	192.90362787246704	fix_pre	0		120	39.0	2.5	/experiments/knapen_AOT/AOT_stimuli/rescaled_final/1829_rv.mp4	0.0	212.0094449520111	1.0001211166381836
41	193.90374898910522	movie	1		242	39.0	2.5	/experiments/knapen_AOT/AOT_stimuli/rescaled_final/1829_rv.mp4	0.0	213.0095660686493	2.4921138286590576
41	194.28797602653503	pulse	1	t		39.0	2.5	/experiments/knapen_AOT/AOT_stimuli/rescaled_final/1829_rv.mp4	0.0	213.3937931060791	
41	195.88763880729675	pulse	1	t		39.0	2.5	/experiments/knapen_AOT/AOT_stimuli/rescaled_final/1829_rv.mp4	0.0	214.99345588684082	
41	196.39586281776428	fix_post	2		12	39.0	2.5	/experiments/knapen_AOT/AOT_stimuli/rescaled_final/1829_rv.mp4	0.0	215.50167989730835	0.09994316101074219
42	196.49580597877502	fix_pre	0		120	40.0	2.5	blank	1.0	215.6016230583191	1.000216007232666
42	197.48779582977295	pulse	0	t		40.0	2.5	blank	1.0	216.59361290931702	
42	197.4960219860077	movie	1		301	40.0	2.5	blank	1.0	216.60183906555176	2.5086398124694824
42	199.08812379837036	pulse	1	t		40.0	2.5	blank	1.0	218.19394087791443	
42	200.00466179847717	fix_post	2		12	40.0	2.5	blank	1.0	219.11047887802124	0.10002422332763672
43	200.1046860218048	fix_pre	0		120	41.0	2.5	/experiments/knapen_AOT/AOT_stimuli/rescaled_final/0435_fw.mp4	0.0	219.21050310134888	1.0001559257507324
43	200.68837594985962	pulse	0	t		41.0	2.5	/experiments/knapen_AOT/AOT_stimuli/rescaled_final/0435_fw.mp4	0.0	219.7941930294037	
43	201.10484194755554	movie	1		243	41.0	2.5	/experiments/knapen_AOT/AOT_stimuli/rescaled_final/0435_fw.mp4	0.0	220.2106590270996	2.5005199909210205
43	202.28876495361328	pulse	1	t		41.0	2.5	/experiments/knapen_AOT/AOT_stimuli/rescaled_final/0435_fw.mp4	0.0	221.39458203315735	
43	203.60536193847656	fix_post	2		12	41.0	2.5	/experiments/knapen_AOT/AOT_stimuli/rescaled_final/0435_fw.mp4	0.0	222.71117901802063	0.09987592697143555
44	203.705237865448	fix_pre	0		120	42.0	2.5	/experiments/knapen_AOT/AOT_stimuli/rescaled_final/0220_fw.mp4	0.0	222.81105494499207	1.0001499652862549
44	203.88892793655396	pulse	0	t		42.0	2.5	/experiments/knapen_AOT/AOT_stimuli/rescaled_final/0220_fw.mp4	0.0	222.99474501609802	
44	204.70538783073425	movie	1		243	42.0	2.5	/experiments/knapen_AOT/AOT_stimuli/rescaled_final/0220_fw.mp4	0.0	223.81120491027832	2.5003950595855713
44	205.48900985717773	pulse	1	t		42.0	2.5	/experiments/knapen_AOT/AOT_stimuli/rescaled_final/0220_fw.mp4	0.0	224.5948269367218	
44	207.08976292610168	pulse	1	t		42.0	2.5	/experiments/knapen_AOT/AOT_stimuli/rescaled_final/0220_fw.mp4	0.0	226.19558000564575	
44	207.20578289031982	fix_post	2		10	42.0	2.5	/experiments/knapen_AOT/AOT_stimuli/rescaled_final/0220_fw.mp4	0.0	226.3115999698639	0.09998512268066406
45	207.3057680130005	fix_pre	0		119	43.0	2.5	/experiments/knapen_AOT/AOT_stimuli/rescaled_final/1299_rv.mp4	0.0	226.41158509254456	0.9917929172515869
45	208.29756093025208	movie	1		242	43.0	2.5	/experiments/knapen_AOT/AOT_stimuli/rescaled_final/1299_rv.mp4	0.0	227.40337800979614	2.500433921813965
45	208.68964791297913	pulse	1	t		43.0	2.5	/experiments/knapen_AOT/AOT_stimuli/rescaled_final/1299_rv.mp4	0.0	227.7954649925232	
45	210.28976583480835	pulse	1	t		43.0	2.5	/experiments/knapen_AOT/AOT_stimuli/rescaled_final/1299_rv.mp4	0.0	229.39558291435242	
45	210.79799485206604	fix_post	2		12	43.0	2.5	/experiments/knapen_AOT/AOT_stimuli/rescaled_final/1299_rv.mp4	0.0	229.9038119316101	0.10004401206970215
46	210.89803886413574	fix_pre	0		120	44.0	2.5	/experiments/knapen_AOT/AOT_stimuli/rescaled_final/1710_fw.mp4	0.0	230.0038559436798	1.0001299381256104
46	211.88989996910095	pulse	0	t		44.0	2.5	/experiments/knapen_AOT/AOT_stimuli/rescaled_final/1710_fw.mp4	0.0	230.99571704864502	
46	211.89816880226135	movie	1		245	44.0	2.5	/experiments/knapen_AOT/AOT_stimuli/rescaled_final/1710_fw.mp4	0.0	231.00398588180542	2.508639097213745
46	213.49071502685547	pulse	1	t		44.0	2.5	/experiments/knapen_AOT/AOT_stimuli/rescaled_final/1710_fw.mp4	0.0	232.59653210639954	
46	214.4068078994751	fix_post	2		12	44.0	2.5	/experiments/knapen_AOT/AOT_stimuli/rescaled_final/1710_fw.mp4	0.0	233.51262497901917	0.10001707077026367
47	214.50682497024536	fix_pre	0		120	45.0	2.5	/experiments/knapen_AOT/AOT_stimuli/rescaled_final/0194_rv.mp4	0.0	233.61264204978943	1.0001909732818604
47	215.09044480323792	pulse	0	t		45.0	2.5	/experiments/knapen_AOT/AOT_stimuli/rescaled_final/0194_rv.mp4	0.0	234.19626188278198	
47	215.50701594352722	movie	1		246	45.0	2.5	/experiments/knapen_AOT/AOT_stimuli/rescaled_final/0194_rv.mp4	0.0	234.6128330230713	2.5003230571746826
47	216.69080090522766	pulse	1	t		45.0	2.5	/experiments/knapen_AOT/AOT_stimuli/rescaled_final/0194_rv.mp4	0.0	235.79661798477173	
47	218.0073390007019	fix_post	2		12	45.0	2.5	/experiments/knapen_AOT/AOT_stimuli/rescaled_final/0194_rv.mp4	0.0	237.11315608024597	0.10003781318664551
48	218.10737681388855	fix_pre	0		120	46.0	2.5	/experiments/knapen_AOT/AOT_stimuli/rescaled_final/0753_rv.mp4	0.0	237.21319389343262	1.000169038772583
48	218.29089999198914	pulse	0	t		46.0	2.5	/experiments/knapen_AOT/AOT_stimuli/rescaled_final/0753_rv.mp4	0.0	237.3967170715332	
48	219.10754585266113	movie	1		242	46.0	2.5	/experiments/knapen_AOT/AOT_stimuli/rescaled_final/0753_rv.mp4	0.0	238.2133629322052	2.492180109024048
48	219.89136600494385	pulse	1	t		46.0	2.5	/experiments/knapen_AOT/AOT_stimuli/rescaled_final/0753_rv.mp4	0.0	238.99718308448792	
48	221.4912188053131	pulse	1	t		46.0	2.5	/experiments/knapen_AOT/AOT_stimuli/rescaled_final/0753_rv.mp4	0.0	240.59703588485718	
48	221.59972596168518	fix_post	2		13	46.0	2.5	/experiments/knapen_AOT/AOT_stimuli/rescaled_final/0753_rv.mp4	0.0	240.70554304122925	0.10818886756896973
49	221.70791482925415	fix_pre	0		119	47.0	2.5	/experiments/knapen_AOT/AOT_stimuli/rescaled_final/1730_rv.mp4	0.0	240.81373190879822	0.9917910099029541
49	222.6997058391571	movie	1		243	47.0	2.5	/experiments/knapen_AOT/AOT_stimuli/rescaled_final/1730_rv.mp4	0.0	241.80552291870117	2.5004210472106934
49	223.08367681503296	pulse	1	t		47.0	2.5	/experiments/knapen_AOT/AOT_stimuli/rescaled_final/1730_rv.mp4	0.0	242.18949389457703	
49	224.68439888954163	pulse	1	t		47.0	2.5	/experiments/knapen_AOT/AOT_stimuli/rescaled_final/1730_rv.mp4	0.0	243.7902159690857	
49	225.2001268863678	fix_post	2		12	47.0	2.5	/experiments/knapen_AOT/AOT_stimuli/rescaled_final/1730_rv.mp4	0.0	244.30594396591187	0.10000109672546387
50	225.30012798309326	fix_pre	0		119	48.0	2.5	blank	1.0	244.40594506263733	0.9918768405914307
50	226.2838089466095	pulse	0	t		48.0	2.5	blank	1.0	245.38962602615356	
50	226.2920048236847	movie	1		301	48.0	2.5	blank	1.0	245.39782190322876	2.5086171627044678
50	227.88393783569336	pulse	1	t		48.0	2.5	blank	1.0	246.98975491523743	
50	228.80062198638916	fix_post	2		12	48.0	2.5	blank	1.0	247.90643906593323	0.10002684593200684
51	228.90064883232117	fix_pre	0		120	49.0	2.5	/experiments/knapen_AOT/AOT_stimuli/rescaled_final/1020_fw.mp4	0.0	248.00646591186523	1.0001380443572998
51	229.48430180549622	pulse	0	t		49.0	2.5	/experiments/knapen_AOT/AOT_stimuli/rescaled_final/1020_fw.mp4	0.0	248.59011888504028	
51	229.90078687667847	movie	1		243	49.0	2.5	/experiments/knapen_AOT/AOT_stimuli/rescaled_final/1020_fw.mp4	0.0	249.00660395622253	2.500563144683838
51	231.08455085754395	pulse	1	t		49.0	2.5	/experiments/knapen_AOT/AOT_stimuli/rescaled_final/1020_fw.mp4	0.0	250.190367937088	
51	232.4013500213623	fix_post	2		12	49.0	2.5	/experiments/knapen_AOT/AOT_stimuli/rescaled_final/1020_fw.mp4	0.0	251.50716710090637	0.09983301162719727
52	232.5011830329895	fix_pre	0		120	50.0	2.5	/experiments/knapen_AOT/AOT_stimuli/rescaled_final/0580_rv.mp4	0.0	251.60700011253357	1.0001418590545654
52	232.68479681015015	pulse	0	t		50.0	2.5	/experiments/knapen_AOT/AOT_stimuli/rescaled_final/0580_rv.mp4	0.0	251.7906138896942	
52	233.50132489204407	movie	1		242	50.0	2.5	/experiments/knapen_AOT/AOT_stimuli/rescaled_final/0580_rv.mp4	0.0	252.60714197158813	2.500430107116699
52	234.28496098518372	pulse	1	t		50.0	2.5	/experiments/knapen_AOT/AOT_stimuli/rescaled_final/0580_rv.mp4	0.0	253.39077806472778	
52	235.88511180877686	pulse	1	t		50.0	2.5	/experiments/knapen_AOT/AOT_stimuli/rescaled_final/0580_rv.mp4	0.0	254.99092888832092	
52	236.00175499916077	fix_post	2		12	50.0	2.5	/experiments/knapen_AOT/AOT_stimuli/rescaled_final/0580_rv.mp4	0.0	255.10757207870483	0.09996795654296875
53	236.10172295570374	fix_pre	0		120	51.0	2.5	/experiments/knapen_AOT/AOT_stimuli/rescaled_final/1819_rv.mp4	0.0	255.2075400352478	1.0001249313354492
53	237.10184788703918	movie	1		242	51.0	2.5	/experiments/knapen_AOT/AOT_stimuli/rescaled_final/1819_rv.mp4	0.0	256.20766496658325	2.492116928100586
53	237.4859800338745	pulse	1	t		51.0	2.5	/experiments/knapen_AOT/AOT_stimuli/rescaled_final/1819_rv.mp4	0.0	256.5917971134186	
53	239.08580684661865	pulse	1	t		51.0	2.5	/experiments/knapen_AOT/AOT_stimuli/rescaled_final/1819_rv.mp4	0.0	258.1916239261627	
53	239.59396481513977	fix_post	2		12	51.0	2.5	/experiments/knapen_AOT/AOT_stimuli/rescaled_final/1819_rv.mp4	0.0	258.69978189468384	0.10002803802490234
54	239.69399285316467	fix_pre	0		120	52.0	2.5	/experiments/knapen_AOT/AOT_stimuli/rescaled_final/2008_fw.mp4	0.0	258.79980993270874	1.0001029968261719
54	240.6858959197998	pulse	0	t		52.0	2.5	/experiments/knapen_AOT/AOT_stimuli/rescaled_final/2008_fw.mp4	0.0	259.7917129993439	
54	240.69409584999084	movie	1		244	52.0	2.5	/experiments/knapen_AOT/AOT_stimuli/rescaled_final/2008_fw.mp4	0.0	259.7999129295349	2.508686065673828
54	242.286612033844	pulse	1	t		52.0	2.5	/experiments/knapen_AOT/AOT_stimuli/rescaled_final/2008_fw.mp4	0.0	261.39242911338806	
54	243.20278191566467	fix_post	2		12	52.0	2.5	/experiments/knapen_AOT/AOT_stimuli/rescaled_final/2008_fw.mp4	0.0	262.30859899520874	0.1000359058380127
55	243.30281782150269	fix_pre	0		120	53.0	2.5	/experiments/knapen_AOT/AOT_stimuli/rescaled_final/0539_rv.mp4	0.0	262.40863490104675	1.0001330375671387
55	243.88658595085144	pulse	0	t		53.0	2.5	/experiments/knapen_AOT/AOT_stimuli/rescaled_final/0539_rv.mp4	0.0	262.9924030303955	
55	244.30295085906982	movie	1		243	53.0	2.5	/experiments/knapen_AOT/AOT_stimuli/rescaled_final/0539_rv.mp4	0.0	263.4087679386139	2.5005550384521484
55	245.48678183555603	pulse	1	t		53.0	2.5	/experiments/knapen_AOT/AOT_stimuli/rescaled_final/0539_rv.mp4	0.0	264.5925989151001	
55	246.80350589752197	fix_post	2		12	53.0	2.5	/experiments/knapen_AOT/AOT_stimuli/rescaled_final/0539_rv.mp4	0.0	265.90932297706604	0.09982609748840332
56	246.90333199501038	fix_pre	0		120	54.0	2.5	/experiments/knapen_AOT/AOT_stimuli/rescaled_final/2107_rv.mp4	0.0	266.00914907455444	1.0001609325408936
56	247.0868740081787	pulse	0	t		54.0	2.5	/experiments/knapen_AOT/AOT_stimuli/rescaled_final/2107_rv.mp4	0.0	266.1926910877228	
56	247.90349292755127	movie	1		246	54.0	2.5	/experiments/knapen_AOT/AOT_stimuli/rescaled_final/2107_rv.mp4	0.0	267.00931000709534	2.5003480911254883
56	248.68720197677612	pulse	1	t		54.0	2.5	/experiments/knapen_AOT/AOT_stimuli/rescaled_final/2107_rv.mp4	0.0	267.7930190563202	
56	250.28738594055176	pulse	1	t		54.0	2.5	/experiments/knapen_AOT/AOT_stimuli/rescaled_final/2107_rv.mp4	0.0	269.3932030200958	
56	250.40384101867676	fix_post	2		12	54.0	2.5	/experiments/knapen_AOT/AOT_stimuli/rescaled_final/2107_rv.mp4	0.0	269.5096580982208	0.1000518798828125
57	250.50389289855957	fix_pre	0		119	55.0	2.5	blank	1.0	269.60970997810364	0.9917969703674316
57	251.495689868927	movie	1		300	55.0	2.5	blank	1.0	270.60150694847107	2.500354051589966
57	251.8877308368683	pulse	1	t		55.0	2.5	blank	1.0	270.99354791641235	
57	253.48784494400024	pulse	1	t		55.0	2.5	blank	1.0	272.5936620235443	
57	253.99604392051697	fix_post	2		12	55.0	2.5	blank	1.0	273.10186100006104	0.1000370979309082
58	254.09608101844788	fix_pre	0		120	56.0	2.5	/experiments/knapen_AOT/AOT_stimuli/rescaled_final/0843_rv.mp4	0.0	273.20189809799194	1.0001628398895264
58	255.0881118774414	pulse	0	t		56.0	2.5	/experiments/knapen_AOT/AOT_stimuli/rescaled_final/0843_rv.mp4	0.0	274.1939289569855	
58	255.0962438583374	movie	1		245	56.0	2.5	/experiments/knapen_AOT/AOT_stimuli/rescaled_final/0843_rv.mp4	0.0	274.20206093788147	2.508669137954712
58	256.6888449192047	pulse	1	t		56.0	2.5	/experiments/knapen_AOT/AOT_stimuli/rescaled_final/0843_rv.mp4	0.0	275.7946619987488	
58	257.6049129962921	fix_post	2		12	56.0	2.5	/experiments/knapen_AOT/AOT_stimuli/rescaled_final/0843_rv.mp4	0.0	276.7107300758362	0.10002398490905762
59	257.7049369812012	fix_pre	0		120	57.0	2.5	/experiments/knapen_AOT/AOT_stimuli/rescaled_final/0140_fw.mp4	0.0	276.81075406074524	1.0001399517059326
59	258.28868293762207	pulse	0	t		57.0	2.5	/experiments/knapen_AOT/AOT_stimuli/rescaled_final/0140_fw.mp4	0.0	277.39450001716614	
59	258.7050769329071	movie	1		243	57.0	2.5	/experiments/knapen_AOT/AOT_stimuli/rescaled_final/0140_fw.mp4	0.0	277.8108940124512	2.500321865081787
59	259.88471603393555	pulse	1	t		57.0	2.5	/experiments/knapen_AOT/AOT_stimuli/rescaled_final/0140_fw.mp4	0.0	278.9905331134796	
59	261.2053987979889	fix_post	2		12	57.0	2.5	/experiments/knapen_AOT/AOT_stimuli/rescaled_final/0140_fw.mp4	0.0	280.31121587753296	0.10008406639099121
60	261.3054828643799	fix_pre	0		120	58.0	2.5	/experiments/knapen_AOT/AOT_stimuli/rescaled_final/0717_rv.mp4	0.0	280.41129994392395	1.0001330375671387
60	261.4890329837799	pulse	0	t		58.0	2.5	/experiments/knapen_AOT/AOT_stimuli/rescaled_final/0717_rv.mp4	0.0	280.594850063324	
60	262.305615901947	movie	1		244	58.0	2.5	/experiments/knapen_AOT/AOT_stimuli/rescaled_final/0717_rv.mp4	0.0	281.4114329814911	2.5004220008850098
60	263.0892868041992	pulse	1	t		58.0	2.5	/experiments/knapen_AOT/AOT_stimuli/rescaled_final/0717_rv.mp4	0.0	282.1951038837433	
60	264.69139289855957	pulse	1	t		58.0	2.5	/experiments/knapen_AOT/AOT_stimuli/rescaled_final/0717_rv.mp4	0.0	283.79720997810364	
60	264.80603790283203	fix_post	2		12	58.0	2.5	/experiments/knapen_AOT/AOT_stimuli/rescaled_final/0717_rv.mp4	0.0	283.9118549823761	0.10002303123474121
61	264.9060609340668	fix_pre	0		120	59.0	2.5	/experiments/knapen_AOT/AOT_stimuli/rescaled_final/0513_fw.mp4	0.0	284.01187801361084	1.0001089572906494
61	265.9061698913574	movie	1		242	59.0	2.5	/experiments/knapen_AOT/AOT_stimuli/rescaled_final/0513_fw.mp4	0.0	285.0119869709015	2.4921669960021973
61	266.29038286209106	pulse	1	t		59.0	2.5	/experiments/knapen_AOT/AOT_stimuli/rescaled_final/0513_fw.mp4	0.0	285.39619994163513	
61	267.88996601104736	pulse	1	t		59.0	2.5	/experiments/knapen_AOT/AOT_stimuli/rescaled_final/0513_fw.mp4	0.0	286.99578309059143	
61	268.3983368873596	fix_post	2		9	59.0	2.5	/experiments/knapen_AOT/AOT_stimuli/rescaled_final/0513_fw.mp4	0.0	287.5041539669037	0.09993195533752441
62	268.49826884269714	fix_pre	0		120	60.0	2.5	/experiments/knapen_AOT/AOT_stimuli/rescaled_final/1111_rv.mp4	0.0	287.6040859222412	1.0001189708709717
62	269.49021887779236	pulse	0	t		60.0	2.5	/experiments/knapen_AOT/AOT_stimuli/rescaled_final/1111_rv.mp4	0.0	288.5960359573364	
62	269.4983878135681	movie	1		243	60.0	2.5	/experiments/knapen_AOT/AOT_stimuli/rescaled_final/1111_rv.mp4	0.0	288.6042048931122	2.508730173110962
62	271.0918698310852	pulse	1	t		60.0	2.5	/experiments/knapen_AOT/AOT_stimuli/rescaled_final/1111_rv.mp4	0.0	290.1976869106293	
62	272.0071179866791	fix_post	2		12	60.0	2.5	/experiments/knapen_AOT/AOT_stimuli/rescaled_final/1111_rv.mp4	0.0	291.11293506622314	0.09996199607849121
63	272.10707998275757	fix_pre	0		120	61.0	2.5	/experiments/knapen_AOT/AOT_stimuli/rescaled_final/0817_rv.mp4	0.0	291.21289706230164	1.000140905380249
63	272.69084095954895	pulse	0	t		61.0	2.5	/experiments/knapen_AOT/AOT_stimuli/rescaled_final/0817_rv.mp4	0.0	291.796658039093	
63	273.1072208881378	movie	1		242	61.0	2.5	/experiments/knapen_AOT/AOT_stimuli/rescaled_final/0817_rv.mp4	0.0	292.2130379676819	2.500514030456543
63	274.291051864624	pulse	1	t		61.0	2.5	/experiments/knapen_AOT/AOT_stimuli/rescaled_final/0817_rv.mp4	0.0	293.3968689441681	
63	275.60773491859436	fix_post	2		12	61.0	2.5	/experiments/knapen_AOT/AOT_stimuli/rescaled_final/0817_rv.mp4	0.0	294.7135519981384	0.09993505477905273
64	275.7076699733734	fix_pre	0		120	62.0	2.5	blank	1.0	294.8134870529175	1.0000989437103271
64	275.89134192466736	pulse	0	t		62.0	2.5	blank	1.0	294.9971590042114	
64	276.70776891708374	movie	1		300	62.0	2.5	blank	1.0	295.8135859966278	2.5004210472106934
64	277.4914469718933	pulse	1	t		62.0	2.5	blank	1.0	296.5972640514374	
64	279.08426785469055	pulse	1	t		62.0	2.5	blank	1.0	298.1900849342346	
64	279.20818996429443	fix_post	2		12	62.0	2.5	blank	1.0	298.3140070438385	0.09995889663696289
65	279.3081488609314	fix_pre	0		120	63.0	2.5	/experiments/knapen_AOT/AOT_stimuli/rescaled_final/0745_fw.mp4	0.0	298.41396594047546	1.0001871585845947
65	280.308336019516	movie	1		244	63.0	2.5	/experiments/knapen_AOT/AOT_stimuli/rescaled_final/0745_fw.mp4	0.0	299.41415309906006	2.4920217990875244
65	280.6932408809662	pulse	1	t		63.0	2.5	/experiments/knapen_AOT/AOT_stimuli/rescaled_final/0745_fw.mp4	0.0	299.79905796051025	
65	282.2848119735718	pulse	1	t		63.0	2.5	/experiments/knapen_AOT/AOT_stimuli/rescaled_final/0745_fw.mp4	0.0	301.39062905311584	
65	282.8003578186035	fix_post	2		12	63.0	2.5	/experiments/knapen_AOT/AOT_stimuli/rescaled_final/0745_fw.mp4	0.0	301.9061748981476	0.10003209114074707
66	282.90038990974426	fix_pre	0		120	64.0	2.5	/experiments/knapen_AOT/AOT_stimuli/rescaled_final/1129_fw.mp4	0.0	302.00620698928833	1.000162124633789
66	283.88486886024475	pulse	0	t		64.0	2.5	/experiments/knapen_AOT/AOT_stimuli/rescaled_final/1129_fw.mp4	0.0	302.9906859397888	
66	283.90055203437805	movie	1		243	64.0	2.5	/experiments/knapen_AOT/AOT_stimuli/rescaled_final/1129_fw.mp4	0.0	303.0063691139221	2.5086557865142822
66	285.49722599983215	pulse	1	t		64.0	2.5	/experiments/knapen_AOT/AOT_stimuli/rescaled_final/1129_fw.mp4	0.0	304.6030430793762	
66	286.40920782089233	fix_post	2		12	64.0	2.5	/experiments/knapen_AOT/AOT_stimuli/rescaled_final/1129_fw.mp4	0.0	305.5150249004364	0.10005712509155273
67	286.5092649459839	fix_pre	0		120	65.0	2.5	/experiments/knapen_AOT/AOT_stimuli/rescaled_final/0764_rv.mp4	0.0	305.61508202552795	1.000119924545288
67	287.08448600769043	pulse	0	t		65.0	2.5	/experiments/knapen_AOT/AOT_stimuli/rescaled_final/0764_rv.mp4	0.0	306.1903030872345	
67	287.5093848705292	movie	1		244	65.0	2.5	/experiments/knapen_AOT/AOT_stimuli/rescaled_final/0764_rv.mp4	0.0	306.61520195007324	2.500370979309082
67	288.68931889533997	pulse	1	t		65.0	2.5	/experiments/knapen_AOT/AOT_stimuli/rescaled_final/0764_rv.mp4	0.0	307.79513597488403	
67	290.00975584983826	fix_post	2		12	65.0	2.5	/experiments/knapen_AOT/AOT_stimuli/rescaled_final/0764_rv.mp4	0.0	309.1155729293823	0.10004997253417969
68	290.10980582237244	fix_pre	0		120	66.0	2.5	/experiments/knapen_AOT/AOT_stimuli/rescaled_final/1482_rv.mp4	0.0	309.2156229019165	1.000133991241455
68	290.2849748134613	pulse	0	t		66.0	2.5	/experiments/knapen_AOT/AOT_stimuli/rescaled_final/1482_rv.mp4	0.0	309.39079189300537	
68	291.1099398136139	movie	1		242	66.0	2.5	/experiments/knapen_AOT/AOT_stimuli/rescaled_final/1482_rv.mp4	0.0	310.21575689315796	2.500509023666382
68	291.88536286354065	pulse	1	t		66.0	2.5	/experiments/knapen_AOT/AOT_stimuli/rescaled_final/1482_rv.mp4	0.0	310.9911799430847	
68	293.485533952713	pulse	1	t		66.0	2.5	/experiments/knapen_AOT/AOT_stimuli/rescaled_final/1482_rv.mp4	0.0	312.5913510322571	
68	293.6104488372803	fix_post	2		12	66.0	2.5	/experiments/knapen_AOT/AOT_stimuli/rescaled_final/1482_rv.mp4	0.0	312.71626591682434	0.09987401962280273
69	293.7103228569031	fix_pre	0		120	67.0	2.5	/experiments/knapen_AOT/AOT_stimuli/rescaled_final/2001_rv.mp4	0.0	312.81613993644714	1.0001630783081055
69	294.7104859352112	movie	1		242	67.0	2.5	/experiments/knapen_AOT/AOT_stimuli/rescaled_final/2001_rv.mp4	0.0	313.81630301475525	2.4920248985290527
69	295.0857229232788	pulse	1	t		67.0	2.5	/experiments/knapen_AOT/AOT_stimuli/rescaled_final/2001_rv.mp4	0.0	314.1915400028229	
69	296.6861310005188	pulse	1	t		67.0	2.5	/experiments/knapen_AOT/AOT_stimuli/rescaled_final/2001_rv.mp4	0.0	315.79194808006287	
69	297.20251083374023	fix_post	2		12	67.0	2.5	/experiments/knapen_AOT/AOT_stimuli/rescaled_final/2001_rv.mp4	0.0	316.3083279132843	0.10004997253417969
70	297.3025608062744	fix_pre	0		119	68.0	2.5	/experiments/knapen_AOT/AOT_stimuli/rescaled_final/1299_rv.mp4	0.0	316.4083778858185	0.9918081760406494
70	298.28627586364746	pulse	0	t		68.0	2.5	/experiments/knapen_AOT/AOT_stimuli/rescaled_final/1299_rv.mp4	0.0	317.3920929431915	
70	298.29436898231506	movie	1		243	68.0	2.5	/experiments/knapen_AOT/AOT_stimuli/rescaled_final/1299_rv.mp4	0.0	317.40018606185913	2.5086889266967773
70	299.88765001296997	pulse	1	t		68.0	2.5	/experiments/knapen_AOT/AOT_stimuli/rescaled_final/1299_rv.mp4	0.0	318.99346709251404	
70	300.80305790901184	fix_post	2		12	68.0	2.5	/experiments/knapen_AOT/AOT_stimuli/rescaled_final/1299_rv.mp4	0.0	319.9088749885559	0.0999751091003418
71	300.9030330181122	fix_pre	0		120	69.0	2.5	blank	1.0	320.00885009765625	1.0001659393310547
71	301.48669481277466	pulse	0	t		69.0	2.5	blank	1.0	320.5925118923187	
71	301.90319895744324	movie	1		300	69.0	2.5	blank	1.0	321.0090160369873	2.5003719329833984
71	303.0868558883667	pulse	1	t		69.0	2.5	blank	1.0	322.19267296791077	
71	304.40357089042664	fix_post	2		12	69.0	2.5	blank	1.0	323.5093879699707	0.10004901885986328
72	304.5036199092865	fix_pre	0		120	70.0	2.5	/experiments/knapen_AOT/AOT_stimuli/rescaled_final/1613_rv.mp4	0.0	323.60943698883057	1.0001580715179443
72	304.68712282180786	pulse	0	t		70.0	2.5	/experiments/knapen_AOT/AOT_stimuli/rescaled_final/1613_rv.mp4	0.0	323.79293990135193	
72	305.50377798080444	movie	1		244	70.0	2.5	/experiments/knapen_AOT/AOT_stimuli/rescaled_final/1613_rv.mp4	0.0	324.6095950603485	2.500372886657715
72	306.287477016449	pulse	1	t		70.0	2.5	/experiments/knapen_AOT/AOT_stimuli/rescaled_final/1613_rv.mp4	0.0	325.39329409599304	
72	307.88764691352844	pulse	1	t		70.0	2.5	/experiments/knapen_AOT/AOT_stimuli/rescaled_final/1613_rv.mp4	0.0	326.9934639930725	
72	308.00415086746216	fix_post	2		12	70.0	2.5	/experiments/knapen_AOT/AOT_stimuli/rescaled_final/1613_rv.mp4	0.0	327.1099679470062	0.09998703002929688
73	308.10413789749146	fix_pre	0		120	71.0	2.5	/experiments/knapen_AOT/AOT_stimuli/rescaled_final/0689_fw.mp4	0.0	327.2099549770355	1.0001370906829834
73	309.10427498817444	movie	1		241	71.0	2.5	/experiments/knapen_AOT/AOT_stimuli/rescaled_final/0689_fw.mp4	0.0	328.2100920677185	2.4921939373016357
73	309.4883909225464	pulse	1	t		71.0	2.5	/experiments/knapen_AOT/AOT_stimuli/rescaled_final/0689_fw.mp4	0.0	328.59420800209045	
73	311.0881688594818	pulse	1	t		71.0	2.5	/experiments/knapen_AOT/AOT_stimuli/rescaled_final/0689_fw.mp4	0.0	330.1939859390259	
73	311.5964689254761	fix_post	2		12	71.0	2.5	/experiments/knapen_AOT/AOT_stimuli/rescaled_final/0689_fw.mp4	0.0	330.70228600502014	0.09989595413208008
74	311.69636487960815	fix_pre	0		120	72.0	2.5	/experiments/knapen_AOT/AOT_stimuli/rescaled_final/1814_fw.mp4	0.0	330.8021819591522	1.0002150535583496
74	312.68841886520386	pulse	0	t		72.0	2.5	/experiments/knapen_AOT/AOT_stimuli/rescaled_final/1814_fw.mp4	0.0	331.7942359447479	
74	312.6965799331665	movie	1		244	72.0	2.5	/experiments/knapen_AOT/AOT_stimuli/rescaled_final/1814_fw.mp4	0.0	331.80239701271057	2.508629083633423
74	314.2890648841858	pulse	1	t		72.0	2.5	/experiments/knapen_AOT/AOT_stimuli/rescaled_final/1814_fw.mp4	0.0	333.39488196372986	
74	315.2052090167999	fix_post	2		12	72.0	2.5	/experiments/knapen_AOT/AOT_stimuli/rescaled_final/1814_fw.mp4	0.0	334.311026096344	0.09998297691345215
75	315.3051919937134	fix_pre	0		120	73.0	2.5	/experiments/knapen_AOT/AOT_stimuli/rescaled_final/0488_fw.mp4	0.0	334.41100907325745	1.000175952911377
75	315.8888568878174	pulse	0	t		73.0	2.5	/experiments/knapen_AOT/AOT_stimuli/rescaled_final/0488_fw.mp4	0.0	334.99467396736145	
75	316.30536794662476	movie	1		243	73.0	2.5	/experiments/knapen_AOT/AOT_stimuli/rescaled_final/0488_fw.mp4	0.0	335.4111850261688	2.5004189014434814
75	317.48911690711975	pulse	1	t		73.0	2.5	/experiments/knapen_AOT/AOT_stimuli/rescaled_final/0488_fw.mp4	0.0	336.5949339866638	
75	318.80578684806824	fix_post	2		12	73.0	2.5	/experiments/knapen_AOT/AOT_stimuli/rescaled_final/0488_fw.mp4	0.0	337.9116039276123	0.09995818138122559
76	318.90574502944946	fix_pre	0		120	74.0	2.5	/experiments/knapen_AOT/AOT_stimuli/rescaled_final/2107_rv.mp4	0.0	338.01156210899353	1.000152826309204
76	319.0893588066101	pulse	0	t		74.0	2.5	/experiments/knapen_AOT/AOT_stimuli/rescaled_final/2107_rv.mp4	0.0	338.1951758861542	
76	319.90589785575867	movie	1		246	74.0	2.5	/experiments/knapen_AOT/AOT_stimuli/rescaled_final/2107_rv.mp4	0.0	339.01171493530273	2.5003790855407715
76	320.6896119117737	pulse	1	t		74.0	2.5	/experiments/knapen_AOT/AOT_stimuli/rescaled_final/2107_rv.mp4	0.0	339.79542899131775	
76	322.2899408340454	pulse	1	t		74.0	2.5	/experiments/knapen_AOT/AOT_stimuli/rescaled_final/2107_rv.mp4	0.0	341.3957579135895	
76	322.40627694129944	fix_post	2		12	74.0	2.5	/experiments/knapen_AOT/AOT_stimuli/rescaled_final/2107_rv.mp4	0.0	341.5120940208435	0.09999608993530273
77	322.50627303123474	fix_pre	0		120	75.0	2.5	/experiments/knapen_AOT/AOT_stimuli/rescaled_final/1972_fw.mp4	0.0	341.6120901107788	1.0002617835998535
77	323.5065348148346	movie	1		243	75.0	2.5	/experiments/knapen_AOT/AOT_stimuli/rescaled_final/1972_fw.mp4	0.0	342.61235189437866	2.4919140338897705
77	323.8905019760132	pulse	1	t		75.0	2.5	/experiments/knapen_AOT/AOT_stimuli/rescaled_final/1972_fw.mp4	0.0	342.99631905555725	
77	325.49043703079224	pulse	1	t		75.0	2.5	/experiments/knapen_AOT/AOT_stimuli/rescaled_final/1972_fw.mp4	0.0	344.5962541103363	
77	325.99844884872437	fix_post	2		12	75.0	2.5	/experiments/knapen_AOT/AOT_stimuli/rescaled_final/1972_fw.mp4	0.0	345.10426592826843	0.10006213188171387
78	326.0985109806061	fix_pre	0		120	76.0	2.5	/experiments/knapen_AOT/AOT_stimuli/rescaled_final/1142_fw.mp4	0.0	345.20432806015015	1.0001678466796875
78	327.09056401252747	pulse	0	t		76.0	2.5	/experiments/knapen_AOT/AOT_stimuli/rescaled_final/1142_fw.mp4	0.0	346.19638109207153	
78	327.09867882728577	movie	1		245	76.0	2.5	/experiments/knapen_AOT/AOT_stimuli/rescaled_final/1142_fw.mp4	0.0	346.20449590682983	2.508648157119751
78	328.6912980079651	pulse	1	t		76.0	2.5	/experiments/knapen_AOT/AOT_stimuli/rescaled_final/1142_fw.mp4	0.0	347.79711508750916	
78	329.6073269844055	fix_post	2		12	76.0	2.5	/experiments/knapen_AOT/AOT_stimuli/rescaled_final/1142_fw.mp4	0.0	348.7131440639496	0.10002303123474121
79	329.70735001564026	fix_pre	0		120	77.0	2.5	blank	1.0	348.8131670951843	1.0002069473266602
79	330.29098987579346	pulse	0	t		77.0	2.5	blank	1.0	349.3968069553375	
79	330.7075569629669	movie	1		297	77.0	2.5	blank	1.0	349.813374042511	2.500333070755005
79	331.8911828994751	pulse	1	t		77.0	2.5	blank	1.0	350.99699997901917	
79	333.2078900337219	fix_post	2		12	77.0	2.5	blank	1.0	352.313707113266	0.09999799728393555
80	333.30788803100586	fix_pre	0		120	78.0	2.5	/experiments/knapen_AOT/AOT_stimuli/rescaled_final/0271_rv.mp4	0.0	352.4137051105499	1.0001559257507324
80	333.48385095596313	pulse	0	t		78.0	2.5	/experiments/knapen_AOT/AOT_stimuli/rescaled_final/0271_rv.mp4	0.0	352.5896680355072	
80	334.3080439567566	movie	1		243	78.0	2.5	/experiments/knapen_AOT/AOT_stimuli/rescaled_final/0271_rv.mp4	0.0	353.41386103630066	2.500576972961426
80	335.08432602882385	pulse	1	t		78.0	2.5	/experiments/knapen_AOT/AOT_stimuli/rescaled_final/0271_rv.mp4	0.0	354.1901431083679	
80	336.6924338340759	pulse	1	t		78.0	2.5	/experiments/knapen_AOT/AOT_stimuli/rescaled_final/0271_rv.mp4	0.0	355.79825091362	
80	336.808620929718	fix_post	2		12	78.0	2.5	/experiments/knapen_AOT/AOT_stimuli/rescaled_final/0271_rv.mp4	0.0	355.9144380092621	0.09981393814086914
81	336.9084348678589	fix_pre	0		120	79.0	2.5	/experiments/knapen_AOT/AOT_stimuli/rescaled_final/0767_rv.mp4	0.0	356.01425194740295	1.000162124633789
81	337.9085969924927	movie	1		242	79.0	2.5	/experiments/knapen_AOT/AOT_stimuli/rescaled_final/0767_rv.mp4	0.0	357.01441407203674	2.492142915725708
81	338.2927668094635	pulse	1	t		79.0	2.5	/experiments/knapen_AOT/AOT_stimuli/rescaled_final/0767_rv.mp4	0.0	357.39858388900757	
81	339.8844199180603	pulse	1	t		79.0	2.5	/experiments/knapen_AOT/AOT_stimuli/rescaled_final/0767_rv.mp4	0.0	358.99023699760437	
81	340.4007399082184	fix_post	2		12	79.0	2.5	/experiments/knapen_AOT/AOT_stimuli/rescaled_final/0767_rv.mp4	0.0	359.50655698776245	0.09991097450256348
82	340.50065088272095	fix_pre	0		119	80.0	2.5	/experiments/knapen_AOT/AOT_stimuli/rescaled_final/1502_rv.mp4	0.0	359.606467962265	0.9917809963226318
82	341.48437094688416	pulse	0	t		80.0	2.5	/experiments/knapen_AOT/AOT_stimuli/rescaled_final/1502_rv.mp4	0.0	360.5901880264282	
82	341.4924318790436	movie	1		245	80.0	2.5	/experiments/knapen_AOT/AOT_stimuli/rescaled_final/1502_rv.mp4	0.0	360.59824895858765	2.508768081665039
82	343.08487486839294	pulse	1	t		80.0	2.5	/experiments/knapen_AOT/AOT_stimuli/rescaled_final/1502_rv.mp4	0.0	362.190691947937	
82	344.0011999607086	fix_post	2		12	80.0	2.5	/experiments/knapen_AOT/AOT_stimuli/rescaled_final/1502_rv.mp4	0.0	363.1070170402527	0.0999460220336914
83	344.1011459827423	fix_pre	0		120	81.0	2.5	/experiments/knapen_AOT/AOT_stimuli/rescaled_final/1430_fw.mp4	0.0	363.2069630622864	1.0002779960632324
83	344.68481492996216	pulse	0	t		81.0	2.5	/experiments/knapen_AOT/AOT_stimuli/rescaled_final/1430_fw.mp4	0.0	363.7906320095062	
83	345.10142397880554	movie	1		244	81.0	2.5	/experiments/knapen_AOT/AOT_stimuli/rescaled_final/1430_fw.mp4	0.0	364.2072410583496	2.500260829925537
83	346.28508281707764	pulse	1	t		81.0	2.5	/experiments/knapen_AOT/AOT_stimuli/rescaled_final/1430_fw.mp4	0.0	365.3908998966217	
83	347.6016848087311	fix_post	2		12	81.0	2.5	/experiments/knapen_AOT/AOT_stimuli/rescaled_final/1430_fw.mp4	0.0	366.70750188827515	0.1000070571899414
84	347.701691865921	fix_pre	0		120	82.0	2.5	/experiments/knapen_AOT/AOT_stimuli/rescaled_final/0220_rv.mp4	0.0	366.8075089454651	1.000157117843628
84	347.88525199890137	pulse	0	t		82.0	2.5	/experiments/knapen_AOT/AOT_stimuli/rescaled_final/0220_rv.mp4	0.0	366.99106907844543	
84	348.70184898376465	movie	1		243	82.0	2.5	/experiments/knapen_AOT/AOT_stimuli/rescaled_final/0220_rv.mp4	0.0	367.8076660633087	2.500493049621582
84	349.4855008125305	pulse	1	t		82.0	2.5	/experiments/knapen_AOT/AOT_stimuli/rescaled_final/0220_rv.mp4	0.0	368.5913178920746	
84	351.0856649875641	pulse	1	t		82.0	2.5	/experiments/knapen_AOT/AOT_stimuli/rescaled_final/0220_rv.mp4	0.0	370.19148206710815	
84	351.20234203338623	fix_post	2		12	82.0	2.5	/experiments/knapen_AOT/AOT_stimuli/rescaled_final/0220_rv.mp4	0.0	370.3081591129303	0.09988093376159668
85	351.3022229671478	fix_pre	0		120	83.0	2.5	blank	1.0	370.4080400466919	1.0002598762512207
85	352.30248284339905	movie	1		299	83.0	2.5	blank	1.0	371.4082999229431	2.491955041885376
85	352.68595695495605	pulse	1	t		83.0	2.5	blank	1.0	371.7917740345001	
85	354.28620290756226	pulse	1	t		83.0	2.5	blank	1.0	373.3920199871063	
85	354.7944378852844	fix_post	2		12	83.0	2.5	blank	1.0	373.9002549648285	0.10005712509155273
87	354.894495010376	stim	0		1716					374.00031208992004	14.302136898040771
87	355.88643884658813	pulse	0	t						374.9922559261322	
87	357.48666286468506	pulse	0	t						376.5924799442291	
87	359.0868618488312	pulse	0	t						378.19267892837524	
87	360.68721890449524	pulse	0	t						379.7930359840393	
87	362.28738498687744	pulse	0	t						381.3932020664215	
87	363.88766980171204	pulse	0	t						382.9934868812561	
87	365.48782992362976	pulse	0	t						384.5936470031738	
87	367.08814001083374	pulse	0	t						386.1939570903778	
87	368.6883418560028	pulse	0	t						387.7941589355469	
