trial_nr	onset	event_type	phase	response	nr_frames	movie_index	movie_duration	movie_file	blank	onset_abs	duration
0	0.15840601921081543	stim	0		70					20.46275496482849	0.5837409496307373
0	0.7342798709869385	response	0	space						21.038628816604614	
1	0.7421469688415527	stim	0		13526					21.04649591445923	112.72447395324707
1	113.4555070400238	pulse	0	t						133.75985598564148	
1	113.46662092208862	stim	1		1716					133.7709698677063	14.299882888793945
1	115.0501389503479	pulse	1	t						135.35448789596558	
1	116.64968490600586	pulse	1	t						136.95403385162354	
1	118.2498459815979	pulse	1	t						138.55419492721558	
1	119.85020303726196	pulse	1	t						140.15455198287964	
1	121.45010685920715	pulse	1	t						141.75445580482483	
1	123.05018401145935	pulse	1	t						143.35453295707703	
1	124.64995002746582	pulse	1	t						144.9542989730835	
1	126.25001287460327	pulse	1	t						146.55436182022095	
2	127.76650381088257	fix_pre	0		11	0.0	2.5	/experiments/AOT/AOT_stimuli/rescaled_final/0271_fw.mp4	0.0	148.07085275650024	0.09167122840881348
2	127.85010004043579	pulse	0	t		0.0	2.5	/experiments/AOT/AOT_stimuli/rescaled_final/0271_fw.mp4	0.0	148.15444898605347	
2	127.85817503929138	movie	1		243	0.0	2.5	/experiments/AOT/AOT_stimuli/rescaled_final/0271_fw.mp4	0.0	148.16252398490906	2.508354902267456
2	129.4500608444214	pulse	1	t		0.0	2.5	/experiments/AOT/AOT_stimuli/rescaled_final/0271_fw.mp4	0.0	149.75440979003906	
2	130.36652994155884	fix_post	2		12	0.0	2.5	/experiments/AOT/AOT_stimuli/rescaled_final/0271_fw.mp4	0.0	150.6708788871765	0.10003495216369629
3	130.46656489372253	fix_pre	0		120	1.0	2.5	/experiments/AOT/AOT_stimuli/rescaled_final/1541_rv.mp4	0.0	150.7709138393402	1.0000340938568115
3	131.0499939918518	pulse	0	t		1.0	2.5	/experiments/AOT/AOT_stimuli/rescaled_final/1541_rv.mp4	0.0	151.35434293746948	
3	131.46659898757935	movie	1		245	1.0	2.5	/experiments/AOT/AOT_stimuli/rescaled_final/1541_rv.mp4	0.0	151.77094793319702	2.4999430179595947
3	132.65008997917175	pulse	1	t		1.0	2.5	/experiments/AOT/AOT_stimuli/rescaled_final/1541_rv.mp4	0.0	152.95443892478943	
3	133.96654200553894	fix_post	2		12	1.0	2.5	/experiments/AOT/AOT_stimuli/rescaled_final/1541_rv.mp4	0.0	154.27089095115662	0.09994101524353027
4	134.06648302078247	fix_pre	0		120	2.0	2.5	/experiments/AOT/AOT_stimuli/rescaled_final/0088_fw.mp4	0.0	154.37083196640015	1.0000958442687988
4	134.24998998641968	pulse	0	t		2.0	2.5	/experiments/AOT/AOT_stimuli/rescaled_final/0088_fw.mp4	0.0	154.55433893203735	
4	135.06657886505127	movie	1		245	2.0	2.5	/experiments/AOT/AOT_stimuli/rescaled_final/0088_fw.mp4	0.0	155.37092781066895	2.4998321533203125
4	135.84997391700745	pulse	1	t		2.0	2.5	/experiments/AOT/AOT_stimuli/rescaled_final/0088_fw.mp4	0.0	156.15432286262512	
4	137.45846700668335	pulse	1	t		2.0	2.5	/experiments/AOT/AOT_stimuli/rescaled_final/0088_fw.mp4	0.0	157.76281595230103	
4	137.56641101837158	fix_post	2		12	2.0	2.5	/experiments/AOT/AOT_stimuli/rescaled_final/0088_fw.mp4	0.0	157.87075996398926	0.10006594657897949
5	137.66647696495056	fix_pre	0		120	3.0	2.5	/experiments/AOT/AOT_stimuli/rescaled_final/1438_fw.mp4	0.0	157.97082591056824	0.9996569156646729
5	138.66613388061523	movie	1		246	3.0	2.5	/experiments/AOT/AOT_stimuli/rescaled_final/1438_fw.mp4	0.0	158.9704828262329	2.499912977218628
5	139.04986381530762	pulse	1	t		3.0	2.5	/experiments/AOT/AOT_stimuli/rescaled_final/1438_fw.mp4	0.0	159.3542127609253	
5	140.6508138179779	pulse	1	t		3.0	2.5	/experiments/AOT/AOT_stimuli/rescaled_final/1438_fw.mp4	0.0	160.95516276359558	
5	141.16604685783386	fix_post	2		12	3.0	2.5	/experiments/AOT/AOT_stimuli/rescaled_final/1438_fw.mp4	0.0	161.47039580345154	0.10045504570007324
6	141.26650190353394	fix_pre	0		120	4.0	2.5	/experiments/AOT/AOT_stimuli/rescaled_final/1266_rv.mp4	0.0	161.5708508491516	0.9999570846557617
6	142.25071096420288	pulse	0	t		4.0	2.5	/experiments/AOT/AOT_stimuli/rescaled_final/1266_rv.mp4	0.0	162.55505990982056	
6	142.2664589881897	movie	1		247	4.0	2.5	/experiments/AOT/AOT_stimuli/rescaled_final/1266_rv.mp4	0.0	162.57080793380737	2.508347988128662
6	143.84996485710144	pulse	1	t		4.0	2.5	/experiments/AOT/AOT_stimuli/rescaled_final/1266_rv.mp4	0.0	164.15431380271912	
6	144.77480697631836	fix_post	2		12	4.0	2.5	/experiments/AOT/AOT_stimuli/rescaled_final/1266_rv.mp4	0.0	165.07915592193604	0.0999760627746582
7	144.87478303909302	fix_pre	0		120	5.0	2.5	blank	1.0	165.1791319847107	0.9997007846832275
7	145.45010781288147	pulse	0	t		5.0	2.5	blank	1.0	165.75445675849915	
7	145.87448382377625	movie	1		300	5.0	2.5	blank	1.0	166.17883276939392	2.500296115875244
7	147.04986882209778	pulse	1	t		5.0	2.5	blank	1.0	167.35421776771545	
7	148.3747799396515	fix_post	2		12	5.0	2.5	blank	1.0	168.67912888526917	0.09994101524353027
8	148.47472095489502	fix_pre	0		120	6.0	2.5	/experiments/AOT/AOT_stimuli/rescaled_final/2132_fw.mp4	0.0	168.7790699005127	1.0000200271606445
8	148.6498739719391	pulse	0	t		6.0	2.5	/experiments/AOT/AOT_stimuli/rescaled_final/2132_fw.mp4	0.0	168.95422291755676	
8	149.47474098205566	movie	1		243	6.0	2.5	/experiments/AOT/AOT_stimuli/rescaled_final/2132_fw.mp4	0.0	169.77908992767334	2.499927043914795
8	150.2498438358307	pulse	1	t		6.0	2.5	/experiments/AOT/AOT_stimuli/rescaled_final/2132_fw.mp4	0.0	170.55419278144836	
8	151.84987497329712	pulse	1	t		6.0	2.5	/experiments/AOT/AOT_stimuli/rescaled_final/2132_fw.mp4	0.0	172.1542239189148	
8	151.97466802597046	fix_post	2		12	6.0	2.5	/experiments/AOT/AOT_stimuli/rescaled_final/2132_fw.mp4	0.0	172.27901697158813	0.10008883476257324
9	152.07475686073303	fix_pre	0		120	7.0	2.5	/experiments/AOT/AOT_stimuli/rescaled_final/0329_rv.mp4	0.0	172.3791058063507	0.9999721050262451
9	153.07472896575928	movie	1		242	7.0	2.5	/experiments/AOT/AOT_stimuli/rescaled_final/0329_rv.mp4	0.0	173.37907791137695	2.5000228881835938
9	153.44985103607178	pulse	1	t		7.0	2.5	/experiments/AOT/AOT_stimuli/rescaled_final/0329_rv.mp4	0.0	173.75419998168945	
9	155.04997491836548	pulse	1	t		7.0	2.5	/experiments/AOT/AOT_stimuli/rescaled_final/0329_rv.mp4	0.0	175.35432386398315	
9	155.57475185394287	fix_post	2		12	7.0	2.5	/experiments/AOT/AOT_stimuli/rescaled_final/0329_rv.mp4	0.0	175.87910079956055	0.1000521183013916
10	155.67480397224426	fix_pre	0		119	8.0	2.5	/experiments/AOT/AOT_stimuli/rescaled_final/1761_fw.mp4	0.0	175.97915291786194	0.9915158748626709
10	156.65067291259766	pulse	0	t		8.0	2.5	/experiments/AOT/AOT_stimuli/rescaled_final/1761_fw.mp4	0.0	176.95502185821533	
10	156.66631984710693	movie	1		245	8.0	2.5	/experiments/AOT/AOT_stimuli/rescaled_final/1761_fw.mp4	0.0	176.9706687927246	2.5084331035614014
10	158.257709980011	pulse	1	t		8.0	2.5	/experiments/AOT/AOT_stimuli/rescaled_final/1761_fw.mp4	0.0	178.56205892562866	
10	159.17475295066833	fix_post	2		12	8.0	2.5	/experiments/AOT/AOT_stimuli/rescaled_final/1761_fw.mp4	0.0	179.479101896286	0.09996604919433594
11	159.27471899986267	fix_pre	0		120	9.0	2.5	/experiments/AOT/AOT_stimuli/rescaled_final/1318_fw.mp4	0.0	179.57906794548035	1.0
11	159.85063695907593	pulse	0	t		9.0	2.5	/experiments/AOT/AOT_stimuli/rescaled_final/1318_fw.mp4	0.0	180.1549859046936	
11	160.27471899986267	movie	1		243	9.0	2.5	/experiments/AOT/AOT_stimuli/rescaled_final/1318_fw.mp4	0.0	180.57906794548035	2.499974012374878
11	161.45819091796875	pulse	1	t		9.0	2.5	/experiments/AOT/AOT_stimuli/rescaled_final/1318_fw.mp4	0.0	181.76253986358643	
11	162.77469301223755	fix_post	2		12	9.0	2.5	/experiments/AOT/AOT_stimuli/rescaled_final/1318_fw.mp4	0.0	183.07904195785522	0.10007882118225098
12	162.8747718334198	fix_pre	0		120	10.0	2.5	/experiments/AOT/AOT_stimuli/rescaled_final/0126_rv.mp4	0.0	183.17912077903748	0.999934196472168
12	163.0498628616333	pulse	0	t		10.0	2.5	/experiments/AOT/AOT_stimuli/rescaled_final/0126_rv.mp4	0.0	183.35421180725098	
12	163.87470602989197	movie	1		243	10.0	2.5	/experiments/AOT/AOT_stimuli/rescaled_final/0126_rv.mp4	0.0	184.17905497550964	2.4995718002319336
12	164.6497929096222	pulse	1	t		10.0	2.5	/experiments/AOT/AOT_stimuli/rescaled_final/0126_rv.mp4	0.0	184.95414185523987	
12	166.24978590011597	pulse	1	t		10.0	2.5	/experiments/AOT/AOT_stimuli/rescaled_final/0126_rv.mp4	0.0	186.55413484573364	
12	166.3742778301239	fix_post	2		12	10.0	2.5	/experiments/AOT/AOT_stimuli/rescaled_final/0126_rv.mp4	0.0	186.67862677574158	0.10045099258422852
13	166.47472882270813	fix_pre	0		120	11.0	2.5	/experiments/AOT/AOT_stimuli/rescaled_final/1186_fw.mp4	0.0	186.7790777683258	0.9999160766601562
13	167.4746448993683	movie	1		243	11.0	2.5	/experiments/AOT/AOT_stimuli/rescaled_final/1186_fw.mp4	0.0	187.77899384498596	2.500056028366089
13	167.8498330116272	pulse	1	t		11.0	2.5	/experiments/AOT/AOT_stimuli/rescaled_final/1186_fw.mp4	0.0	188.15418195724487	
13	169.44985103607178	pulse	1	t		11.0	2.5	/experiments/AOT/AOT_stimuli/rescaled_final/1186_fw.mp4	0.0	189.75419998168945	
13	169.97470092773438	fix_post	2		12	11.0	2.5	/experiments/AOT/AOT_stimuli/rescaled_final/1186_fw.mp4	0.0	190.27904987335205	0.09999203681945801
14	170.07469296455383	fix_pre	0		118	12.0	2.5	/experiments/AOT/AOT_stimuli/rescaled_final/0482_rv.mp4	0.0	190.3790419101715	0.9832699298858643
14	171.0497908592224	pulse	0	t		12.0	2.5	/experiments/AOT/AOT_stimuli/rescaled_final/0482_rv.mp4	0.0	191.3541398048401	
14	171.0579628944397	movie	1		242	12.0	2.5	/experiments/AOT/AOT_stimuli/rescaled_final/0482_rv.mp4	0.0	191.36231184005737	2.5083110332489014
14	172.6577570438385	pulse	1	t		12.0	2.5	/experiments/AOT/AOT_stimuli/rescaled_final/0482_rv.mp4	0.0	192.96210598945618	
14	173.5662739276886	fix_post	2		12	12.0	2.5	/experiments/AOT/AOT_stimuli/rescaled_final/0482_rv.mp4	0.0	193.87062287330627	0.09985899925231934
15	173.66613292694092	fix_pre	0		120	13.0	2.5	blank	1.0	193.9704818725586	1.000143051147461
15	174.25044298171997	pulse	0	t		13.0	2.5	blank	1.0	194.55479192733765	
15	174.66627597808838	movie	1		300	13.0	2.5	blank	1.0	194.97062492370605	2.500066041946411
15	175.8506588935852	pulse	1	t		13.0	2.5	blank	1.0	196.15500783920288	
15	177.1663420200348	fix_post	2		12	13.0	2.5	blank	1.0	197.47069096565247	0.09997200965881348
16	177.2663140296936	fix_pre	0		120	14.0	2.5	/experiments/AOT/AOT_stimuli/rescaled_final/0646_rv.mp4	0.0	197.57066297531128	1.0000338554382324
16	177.44982290267944	pulse	0	t		14.0	2.5	/experiments/AOT/AOT_stimuli/rescaled_final/0646_rv.mp4	0.0	197.75417184829712	
16	178.26634788513184	movie	1		246	14.0	2.5	/experiments/AOT/AOT_stimuli/rescaled_final/0646_rv.mp4	0.0	198.5706968307495	2.5000081062316895
16	179.05069088935852	pulse	1	t		14.0	2.5	/experiments/AOT/AOT_stimuli/rescaled_final/0646_rv.mp4	0.0	199.3550398349762	
16	180.6589639186859	pulse	1	t		14.0	2.5	/experiments/AOT/AOT_stimuli/rescaled_final/0646_rv.mp4	0.0	200.9633128643036	
16	180.76635599136353	fix_post	2		12	14.0	2.5	/experiments/AOT/AOT_stimuli/rescaled_final/0646_rv.mp4	0.0	201.0707049369812	0.0998678207397461
17	180.86622381210327	fix_pre	0		120	15.0	2.5	/experiments/AOT/AOT_stimuli/rescaled_final/1100_fw.mp4	0.0	201.17057275772095	0.9995841979980469
17	181.86580801010132	movie	1		245	15.0	2.5	/experiments/AOT/AOT_stimuli/rescaled_final/1100_fw.mp4	0.0	202.170156955719	2.500469923019409
17	182.25801801681519	pulse	1	t		15.0	2.5	/experiments/AOT/AOT_stimuli/rescaled_final/1100_fw.mp4	0.0	202.56236696243286	
17	183.84961104393005	pulse	1	t		15.0	2.5	/experiments/AOT/AOT_stimuli/rescaled_final/1100_fw.mp4	0.0	204.15395998954773	
17	184.36627793312073	fix_post	2		12	15.0	2.5	/experiments/AOT/AOT_stimuli/rescaled_final/1100_fw.mp4	0.0	204.6706268787384	0.10000300407409668
18	184.46628093719482	fix_pre	0		119	16.0	2.5	/experiments/AOT/AOT_stimuli/rescaled_final/1070_fw.mp4	0.0	204.7706298828125	0.9917058944702148
18	185.44972681999207	pulse	0	t		16.0	2.5	/experiments/AOT/AOT_stimuli/rescaled_final/1070_fw.mp4	0.0	205.75407576560974	
18	185.45798683166504	movie	1		244	16.0	2.5	/experiments/AOT/AOT_stimuli/rescaled_final/1070_fw.mp4	0.0	205.76233577728271	2.5078210830688477
18	187.04964303970337	pulse	1	t		16.0	2.5	/experiments/AOT/AOT_stimuli/rescaled_final/1070_fw.mp4	0.0	207.35399198532104	
18	187.9658079147339	fix_post	2		12	16.0	2.5	/experiments/AOT/AOT_stimuli/rescaled_final/1070_fw.mp4	0.0	208.27015686035156	0.10039710998535156
19	188.06620502471924	fix_pre	0		120	17.0	2.5	/experiments/AOT/AOT_stimuli/rescaled_final/0329_fw.mp4	0.0	208.3705539703369	1.0001299381256104
19	188.65057802200317	pulse	0	t		17.0	2.5	/experiments/AOT/AOT_stimuli/rescaled_final/0329_fw.mp4	0.0	208.95492696762085	
19	189.06633496284485	movie	1		244	17.0	2.5	/experiments/AOT/AOT_stimuli/rescaled_final/0329_fw.mp4	0.0	209.37068390846252	2.4998769760131836
19	190.25087690353394	pulse	1	t		17.0	2.5	/experiments/AOT/AOT_stimuli/rescaled_final/0329_fw.mp4	0.0	210.5552258491516	
19	191.56621193885803	fix_post	2		12	17.0	2.5	/experiments/AOT/AOT_stimuli/rescaled_final/0329_fw.mp4	0.0	211.8705608844757	0.10004687309265137
20	191.66625881195068	fix_pre	0		120	18.0	2.5	/experiments/AOT/AOT_stimuli/rescaled_final/0098_rv.mp4	0.0	211.97060775756836	0.9999902248382568
20	191.85042691230774	pulse	0	t		18.0	2.5	/experiments/AOT/AOT_stimuli/rescaled_final/0098_rv.mp4	0.0	212.15477585792542	
20	192.66624903678894	movie	1		245	18.0	2.5	/experiments/AOT/AOT_stimuli/rescaled_final/0098_rv.mp4	0.0	212.97059798240662	2.499994993209839
20	193.45049786567688	pulse	1	t		18.0	2.5	/experiments/AOT/AOT_stimuli/rescaled_final/0098_rv.mp4	0.0	213.75484681129456	
20	195.05805802345276	pulse	1	t		18.0	2.5	/experiments/AOT/AOT_stimuli/rescaled_final/0098_rv.mp4	0.0	215.36240696907043	
20	195.16624402999878	fix_post	2		12	18.0	2.5	/experiments/AOT/AOT_stimuli/rescaled_final/0098_rv.mp4	0.0	215.47059297561646	0.10004687309265137
21	195.26629090309143	fix_pre	0		120	19.0	2.5	/experiments/AOT/AOT_stimuli/rescaled_final/1070_fw.mp4	0.0	215.5706398487091	0.9999499320983887
21	196.26624083518982	movie	1		243	19.0	2.5	/experiments/AOT/AOT_stimuli/rescaled_final/1070_fw.mp4	0.0	216.5705897808075	2.5000271797180176
21	196.65811586380005	pulse	1	t		19.0	2.5	/experiments/AOT/AOT_stimuli/rescaled_final/1070_fw.mp4	0.0	216.96246480941772	
21	198.2506148815155	pulse	1	t		19.0	2.5	/experiments/AOT/AOT_stimuli/rescaled_final/1070_fw.mp4	0.0	218.55496382713318	
21	198.76626801490784	fix_post	2		12	19.0	2.5	/experiments/AOT/AOT_stimuli/rescaled_final/1070_fw.mp4	0.0	219.0706169605255	0.09995794296264648
22	198.86622595787048	fix_pre	0		119	20.0	2.5	/experiments/AOT/AOT_stimuli/rescaled_final/1941_fw.mp4	0.0	219.17057490348816	0.9916369915008545
22	199.84976983070374	pulse	0	t		20.0	2.5	/experiments/AOT/AOT_stimuli/rescaled_final/1941_fw.mp4	0.0	220.1541187763214	
22	199.85786294937134	movie	1		244	20.0	2.5	/experiments/AOT/AOT_stimuli/rescaled_final/1941_fw.mp4	0.0	220.162211894989	2.508254051208496
22	201.4580340385437	pulse	1	t		20.0	2.5	/experiments/AOT/AOT_stimuli/rescaled_final/1941_fw.mp4	0.0	221.76238298416138	
22	202.36611700057983	fix_post	2		12	20.0	2.5	/experiments/AOT/AOT_stimuli/rescaled_final/1941_fw.mp4	0.0	222.6704659461975	0.10002303123474121
23	202.46614003181458	fix_pre	0		120	21.0	2.5	blank	1.0	222.77048897743225	1.0
23	203.0495789051056	pulse	0	t		21.0	2.5	blank	1.0	223.35392785072327	
23	203.46614003181458	movie	1		300	21.0	2.5	blank	1.0	223.77048897743225	2.500002861022949
23	204.65052199363708	pulse	1	t		21.0	2.5	blank	1.0	224.95487093925476	
23	205.96614289283752	fix_post	2		12	21.0	2.5	blank	1.0	226.2704918384552	0.09999299049377441
24	206.0661358833313	fix_pre	0		120	22.0	2.5	/experiments/AOT/AOT_stimuli/rescaled_final/1404_rv.mp4	0.0	226.37048482894897	1.0000970363616943
24	206.25067400932312	pulse	0	t		22.0	2.5	/experiments/AOT/AOT_stimuli/rescaled_final/1404_rv.mp4	0.0	226.5550229549408	
24	207.066232919693	movie	1		246	22.0	2.5	/experiments/AOT/AOT_stimuli/rescaled_final/1404_rv.mp4	0.0	227.37058186531067	2.4999990463256836
24	207.85002493858337	pulse	1	t		22.0	2.5	/experiments/AOT/AOT_stimuli/rescaled_final/1404_rv.mp4	0.0	228.15437388420105	
24	209.4580078125	pulse	1	t		22.0	2.5	/experiments/AOT/AOT_stimuli/rescaled_final/1404_rv.mp4	0.0	229.76235675811768	
24	209.56623196601868	fix_post	2		12	22.0	2.5	/experiments/AOT/AOT_stimuli/rescaled_final/1404_rv.mp4	0.0	229.87058091163635	0.09992694854736328
25	209.66615891456604	fix_pre	0		120	23.0	2.5	/experiments/AOT/AOT_stimuli/rescaled_final/1050_rv.mp4	0.0	229.97050786018372	1.000014066696167
25	210.6661729812622	movie	1		244	23.0	2.5	/experiments/AOT/AOT_stimuli/rescaled_final/1050_rv.mp4	0.0	230.97052192687988	2.499992847442627
25	211.0580530166626	pulse	1	t		23.0	2.5	/experiments/AOT/AOT_stimuli/rescaled_final/1050_rv.mp4	0.0	231.36240196228027	
25	212.65046381950378	pulse	1	t		23.0	2.5	/experiments/AOT/AOT_stimuli/rescaled_final/1050_rv.mp4	0.0	232.95481276512146	
25	213.16616582870483	fix_post	2		12	23.0	2.5	/experiments/AOT/AOT_stimuli/rescaled_final/1050_rv.mp4	0.0	233.4705147743225	0.10004806518554688
26	213.26621389389038	fix_pre	0		119	24.0	2.5	/experiments/AOT/AOT_stimuli/rescaled_final/2103_rv.mp4	0.0	233.57056283950806	0.991595983505249
26	214.24962186813354	pulse	0	t		24.0	2.5	/experiments/AOT/AOT_stimuli/rescaled_final/2103_rv.mp4	0.0	234.55397081375122	
26	214.25780987739563	movie	1		244	24.0	2.5	/experiments/AOT/AOT_stimuli/rescaled_final/2103_rv.mp4	0.0	234.5621588230133	2.507862091064453
26	215.85794687271118	pulse	1	t		24.0	2.5	/experiments/AOT/AOT_stimuli/rescaled_final/2103_rv.mp4	0.0	236.16229581832886	
26	216.76567196846008	fix_post	2		12	24.0	2.5	/experiments/AOT/AOT_stimuli/rescaled_final/2103_rv.mp4	0.0	237.07002091407776	0.10046601295471191
27	216.8661379814148	fix_pre	0		120	25.0	2.5	/experiments/AOT/AOT_stimuli/rescaled_final/1473_rv.mp4	0.0	237.17048692703247	0.999924898147583
27	217.44966387748718	pulse	0	t		25.0	2.5	/experiments/AOT/AOT_stimuli/rescaled_final/1473_rv.mp4	0.0	237.75401282310486	
27	217.86606287956238	movie	1		244	25.0	2.5	/experiments/AOT/AOT_stimuli/rescaled_final/1473_rv.mp4	0.0	238.17041182518005	2.5001120567321777
27	219.049654006958	pulse	1	t		25.0	2.5	/experiments/AOT/AOT_stimuli/rescaled_final/1473_rv.mp4	0.0	239.35400295257568	
27	220.36617493629456	fix_post	2		12	25.0	2.5	/experiments/AOT/AOT_stimuli/rescaled_final/1473_rv.mp4	0.0	240.67052388191223	0.09998607635498047
28	220.46616101264954	fix_pre	0		120	26.0	2.5	/experiments/AOT/AOT_stimuli/rescaled_final/1541_fw.mp4	0.0	240.7705099582672	0.999992847442627
28	220.65037083625793	pulse	0	t		26.0	2.5	/experiments/AOT/AOT_stimuli/rescaled_final/1541_fw.mp4	0.0	240.9547197818756	
28	221.46615386009216	movie	1		244	26.0	2.5	/experiments/AOT/AOT_stimuli/rescaled_final/1541_fw.mp4	0.0	241.77050280570984	2.4999401569366455
28	222.25045585632324	pulse	1	t		26.0	2.5	/experiments/AOT/AOT_stimuli/rescaled_final/1541_fw.mp4	0.0	242.55480480194092	
28	223.85791182518005	pulse	1	t		26.0	2.5	/experiments/AOT/AOT_stimuli/rescaled_final/1541_fw.mp4	0.0	244.16226077079773	
28	223.9660940170288	fix_post	2		12	26.0	2.5	/experiments/AOT/AOT_stimuli/rescaled_final/1541_fw.mp4	0.0	244.27044296264648	0.09999990463256836
29	224.06609392166138	fix_pre	0		120	27.0	2.5	/experiments/AOT/AOT_stimuli/rescaled_final/1259_rv.mp4	0.0	244.37044286727905	1.0000309944152832
29	225.06612491607666	movie	1		244	27.0	2.5	/experiments/AOT/AOT_stimuli/rescaled_final/1259_rv.mp4	0.0	245.37047386169434	2.4995510578155518
29	225.45786499977112	pulse	1	t		27.0	2.5	/experiments/AOT/AOT_stimuli/rescaled_final/1259_rv.mp4	0.0	245.7622139453888	
29	227.05040097236633	pulse	1	t		27.0	2.5	/experiments/AOT/AOT_stimuli/rescaled_final/1259_rv.mp4	0.0	247.354749917984	
29	227.5656759738922	fix_post	2		12	27.0	2.5	/experiments/AOT/AOT_stimuli/rescaled_final/1259_rv.mp4	0.0	247.8700249195099	0.10038185119628906
30	227.6660578250885	fix_pre	0		120	28.0	2.5	blank	1.0	247.97040677070618	1.0000410079956055
30	228.64995789527893	pulse	0	t		28.0	2.5	blank	1.0	248.9543068408966	
30	228.6660988330841	movie	1		301	28.0	2.5	blank	1.0	248.97044777870178	2.5083861351013184
30	230.25015497207642	pulse	1	t		28.0	2.5	blank	1.0	250.5545039176941	
30	231.17448496818542	fix_post	2		12	28.0	2.5	blank	1.0	251.4788339138031	0.09990406036376953
31	231.2743890285492	fix_pre	0		120	29.0	2.5	/experiments/AOT/AOT_stimuli/rescaled_final/1761_rv.mp4	0.0	251.57873797416687	1.000091791152954
31	231.85033202171326	pulse	0	t		29.0	2.5	/experiments/AOT/AOT_stimuli/rescaled_final/1761_rv.mp4	0.0	252.15468096733093	
31	232.27448081970215	movie	1		244	29.0	2.5	/experiments/AOT/AOT_stimuli/rescaled_final/1761_rv.mp4	0.0	252.57882976531982	2.4999001026153564
31	233.45790195465088	pulse	1	t		29.0	2.5	/experiments/AOT/AOT_stimuli/rescaled_final/1761_rv.mp4	0.0	253.76225090026855	
31	234.7743809223175	fix_post	2		12	29.0	2.5	/experiments/AOT/AOT_stimuli/rescaled_final/1761_rv.mp4	0.0	255.07872986793518	0.09998011589050293
32	234.874361038208	fix_pre	0		120	30.0	2.5	/experiments/AOT/AOT_stimuli/rescaled_final/1064_fw.mp4	0.0	255.17870998382568	0.9999558925628662
32	235.04949283599854	pulse	0	t		30.0	2.5	/experiments/AOT/AOT_stimuli/rescaled_final/1064_fw.mp4	0.0	255.3538417816162	
32	235.87431693077087	movie	1		245	30.0	2.5	/experiments/AOT/AOT_stimuli/rescaled_final/1064_fw.mp4	0.0	256.17866587638855	2.4996840953826904
32	236.6494379043579	pulse	1	t		30.0	2.5	/experiments/AOT/AOT_stimuli/rescaled_final/1064_fw.mp4	0.0	256.9537868499756	
32	238.25624203681946	pulse	1	t		30.0	2.5	/experiments/AOT/AOT_stimuli/rescaled_final/1064_fw.mp4	0.0	258.56059098243713	
32	238.37400102615356	fix_post	2		12	30.0	2.5	/experiments/AOT/AOT_stimuli/rescaled_final/1064_fw.mp4	0.0	258.67834997177124	0.10036301612854004
33	238.4743640422821	fix_pre	0		120	31.0	2.5	/experiments/AOT/AOT_stimuli/rescaled_final/1541_rv.mp4	0.0	258.7787129878998	0.9999818801879883
33	239.4743459224701	movie	1		244	31.0	2.5	/experiments/AOT/AOT_stimuli/rescaled_final/1541_rv.mp4	0.0	259.77869486808777	2.499958038330078
33	239.85792303085327	pulse	1	t		31.0	2.5	/experiments/AOT/AOT_stimuli/rescaled_final/1541_rv.mp4	0.0	260.16227197647095	
33	241.45054984092712	pulse	1	t		31.0	2.5	/experiments/AOT/AOT_stimuli/rescaled_final/1541_rv.mp4	0.0	261.7548987865448	
33	241.97430396080017	fix_post	2		12	31.0	2.5	/experiments/AOT/AOT_stimuli/rescaled_final/1541_rv.mp4	0.0	262.27865290641785	0.10004401206970215
34	242.07434797286987	fix_pre	0		119	32.0	2.5	/experiments/AOT/AOT_stimuli/rescaled_final/1133_fw.mp4	0.0	262.37869691848755	0.991569995880127
34	243.05027294158936	pulse	0	t		32.0	2.5	/experiments/AOT/AOT_stimuli/rescaled_final/1133_fw.mp4	0.0	263.35462188720703	
34	243.06591796875	movie	1		246	32.0	2.5	/experiments/AOT/AOT_stimuli/rescaled_final/1133_fw.mp4	0.0	263.3702669143677	2.5083839893341064
34	244.65728902816772	pulse	1	t		32.0	2.5	/experiments/AOT/AOT_stimuli/rescaled_final/1133_fw.mp4	0.0	264.9616379737854	
34	245.5743019580841	fix_post	2		12	32.0	2.5	/experiments/AOT/AOT_stimuli/rescaled_final/1133_fw.mp4	0.0	265.8786509037018	0.09997892379760742
35	245.6742808818817	fix_pre	0		120	33.0	2.5	/experiments/AOT/AOT_stimuli/rescaled_final/0644_rv.mp4	0.0	265.9786298274994	0.9999980926513672
35	246.25020289421082	pulse	0	t		33.0	2.5	/experiments/AOT/AOT_stimuli/rescaled_final/0644_rv.mp4	0.0	266.5545518398285	
35	246.67427897453308	movie	1		242	33.0	2.5	/experiments/AOT/AOT_stimuli/rescaled_final/0644_rv.mp4	0.0	266.97862792015076	2.4999630451202393
35	247.85044884681702	pulse	1	t		33.0	2.5	/experiments/AOT/AOT_stimuli/rescaled_final/0644_rv.mp4	0.0	268.1547977924347	
35	249.17424201965332	fix_post	2		12	33.0	2.5	/experiments/AOT/AOT_stimuli/rescaled_final/0644_rv.mp4	0.0	269.478590965271	0.10009288787841797
36	249.27433490753174	fix_pre	0		120	34.0	2.5	blank	1.0	269.5786838531494	0.9998860359191895
36	249.44942903518677	pulse	0	t		34.0	2.5	blank	1.0	269.75377798080444	
36	250.27422094345093	movie	1		300	34.0	2.5	blank	1.0	270.5785698890686	2.500020980834961
36	251.0494818687439	pulse	1	t		34.0	2.5	blank	1.0	271.3538308143616	
36	252.64936804771423	pulse	1	t		34.0	2.5	blank	1.0	272.9537169933319	
36	252.7742419242859	fix_post	2		12	34.0	2.5	blank	1.0	273.07859086990356	0.1000819206237793
37	252.87432384490967	fix_pre	0		120	35.0	2.5	/experiments/AOT/AOT_stimuli/rescaled_final/0410_fw.mp4	0.0	273.17867279052734	0.9999630451202393
37	253.8742868900299	movie	1		244	35.0	2.5	/experiments/AOT/AOT_stimuli/rescaled_final/0410_fw.mp4	0.0	274.1786358356476	2.5000929832458496
37	254.2574679851532	pulse	1	t		35.0	2.5	/experiments/AOT/AOT_stimuli/rescaled_final/0410_fw.mp4	0.0	274.5618169307709	
37	255.85032296180725	pulse	1	t		35.0	2.5	/experiments/AOT/AOT_stimuli/rescaled_final/0410_fw.mp4	0.0	276.1546719074249	
37	256.37437987327576	fix_post	2		12	35.0	2.5	/experiments/AOT/AOT_stimuli/rescaled_final/0410_fw.mp4	0.0	276.67872881889343	0.09992098808288574
38	256.47430086135864	fix_pre	0		119	36.0	2.5	/experiments/AOT/AOT_stimuli/rescaled_final/1117_rv.mp4	0.0	276.7786498069763	0.9917171001434326
38	257.4501678943634	pulse	0	t		36.0	2.5	/experiments/AOT/AOT_stimuli/rescaled_final/1117_rv.mp4	0.0	277.7545168399811	
38	257.4660179615021	movie	1		245	36.0	2.5	/experiments/AOT/AOT_stimuli/rescaled_final/1117_rv.mp4	0.0	277.77036690711975	2.508293867111206
38	259.0578589439392	pulse	1	t		36.0	2.5	/experiments/AOT/AOT_stimuli/rescaled_final/1117_rv.mp4	0.0	279.3622078895569	
38	259.9743118286133	fix_post	2		12	36.0	2.5	/experiments/AOT/AOT_stimuli/rescaled_final/1117_rv.mp4	0.0	280.27866077423096	0.09997820854187012
39	260.07429003715515	fix_pre	0		120	37.0	2.5	/experiments/AOT/AOT_stimuli/rescaled_final/1636_fw.mp4	0.0	280.3786389827728	1.0000019073486328
39	260.65013790130615	pulse	0	t		37.0	2.5	/experiments/AOT/AOT_stimuli/rescaled_final/1636_fw.mp4	0.0	280.9544868469238	
39	261.0742919445038	movie	1		245	37.0	2.5	/experiments/AOT/AOT_stimuli/rescaled_final/1636_fw.mp4	0.0	281.37864089012146	2.499985933303833
39	262.25778698921204	pulse	1	t		37.0	2.5	/experiments/AOT/AOT_stimuli/rescaled_final/1636_fw.mp4	0.0	282.5621359348297	
39	263.5742778778076	fix_post	2		12	37.0	2.5	/experiments/AOT/AOT_stimuli/rescaled_final/1636_fw.mp4	0.0	283.8786268234253	0.09989309310913086
40	263.67417097091675	fix_pre	0		120	38.0	2.5	/experiments/AOT/AOT_stimuli/rescaled_final/1266_rv.mp4	0.0	283.9785199165344	1.0000369548797607
40	263.85015392303467	pulse	0	t		38.0	2.5	/experiments/AOT/AOT_stimuli/rescaled_final/1266_rv.mp4	0.0	284.15450286865234	
40	264.6742079257965	movie	1		244	38.0	2.5	/experiments/AOT/AOT_stimuli/rescaled_final/1266_rv.mp4	0.0	284.9785568714142	2.500016927719116
40	265.4502170085907	pulse	1	t		38.0	2.5	/experiments/AOT/AOT_stimuli/rescaled_final/1266_rv.mp4	0.0	285.7545659542084	
40	267.05344104766846	pulse	1	t		38.0	2.5	/experiments/AOT/AOT_stimuli/rescaled_final/1266_rv.mp4	0.0	287.35778999328613	
40	267.1742248535156	fix_post	2		12	38.0	2.5	/experiments/AOT/AOT_stimuli/rescaled_final/1266_rv.mp4	0.0	287.4785737991333	0.09997797012329102
41	267.2742028236389	fix_pre	0		120	39.0	2.5	/experiments/AOT/AOT_stimuli/rescaled_final/0323_rv.mp4	0.0	287.5785517692566	0.9996151924133301
41	268.27381801605225	movie	1		244	39.0	2.5	/experiments/AOT/AOT_stimuli/rescaled_final/0323_rv.mp4	0.0	288.5781669616699	2.500372886657715
41	268.65757393836975	pulse	1	t		39.0	2.5	/experiments/AOT/AOT_stimuli/rescaled_final/0323_rv.mp4	0.0	288.9619228839874	
41	270.2577049732208	pulse	1	t		39.0	2.5	/experiments/AOT/AOT_stimuli/rescaled_final/0323_rv.mp4	0.0	290.5620539188385	
41	270.77419090270996	fix_post	2		12	39.0	2.5	/experiments/AOT/AOT_stimuli/rescaled_final/0323_rv.mp4	0.0	291.07853984832764	0.10007810592651367
42	270.8742690086365	fix_pre	0		119	40.0	2.5	/experiments/AOT/AOT_stimuli/rescaled_final/2055_rv.mp4	0.0	291.17861795425415	0.9915609359741211
42	271.8501498699188	pulse	0	t		40.0	2.5	/experiments/AOT/AOT_stimuli/rescaled_final/2055_rv.mp4	0.0	292.1544988155365	
42	271.8658299446106	movie	1		245	40.0	2.5	/experiments/AOT/AOT_stimuli/rescaled_final/2055_rv.mp4	0.0	292.17017889022827	2.5083560943603516
42	273.45766592025757	pulse	1	t		40.0	2.5	/experiments/AOT/AOT_stimuli/rescaled_final/2055_rv.mp4	0.0	293.76201486587524	
42	274.37418603897095	fix_post	2		12	40.0	2.5	/experiments/AOT/AOT_stimuli/rescaled_final/2055_rv.mp4	0.0	294.6785349845886	0.09997677803039551
43	274.47416281700134	fix_pre	0		120	41.0	2.5	/experiments/AOT/AOT_stimuli/rescaled_final/1465_rv.mp4	0.0	294.778511762619	0.9999871253967285
43	275.0501229763031	pulse	0	t		41.0	2.5	/experiments/AOT/AOT_stimuli/rescaled_final/1465_rv.mp4	0.0	295.3544719219208	
43	275.47414994239807	movie	1		246	41.0	2.5	/experiments/AOT/AOT_stimuli/rescaled_final/1465_rv.mp4	0.0	295.77849888801575	2.4996249675750732
43	276.6577479839325	pulse	1	t		41.0	2.5	/experiments/AOT/AOT_stimuli/rescaled_final/1465_rv.mp4	0.0	296.96209692955017	
43	277.97377490997314	fix_post	2		12	41.0	2.5	/experiments/AOT/AOT_stimuli/rescaled_final/1465_rv.mp4	0.0	298.2781238555908	0.1004331111907959
44	278.07420802116394	fix_pre	0		120	42.0	2.5	blank	1.0	298.3785569667816	1.0000298023223877
44	278.2502019405365	pulse	0	t		42.0	2.5	blank	1.0	298.5545508861542	
44	279.0742378234863	movie	1		300	42.0	2.5	blank	1.0	299.378586769104	2.4999589920043945
44	279.85008788108826	pulse	1	t		42.0	2.5	blank	1.0	300.15443682670593	
44	281.45004391670227	pulse	1	t		42.0	2.5	blank	1.0	301.75439286231995	
44	281.5741968154907	fix_post	2		12	42.0	2.5	blank	1.0	301.8785457611084	0.10000419616699219
45	281.6742010116577	fix_pre	0		120	43.0	2.5	/experiments/AOT/AOT_stimuli/rescaled_final/0033_fw.mp4	0.0	301.9785499572754	1.0000050067901611
45	282.6742060184479	movie	1		246	43.0	2.5	/experiments/AOT/AOT_stimuli/rescaled_final/0033_fw.mp4	0.0	302.97855496406555	2.4997518062591553
45	283.0573709011078	pulse	1	t		43.0	2.5	/experiments/AOT/AOT_stimuli/rescaled_final/0033_fw.mp4	0.0	303.36171984672546	
45	284.6571829319	pulse	1	t		43.0	2.5	/experiments/AOT/AOT_stimuli/rescaled_final/0033_fw.mp4	0.0	304.9615318775177	
45	285.17395782470703	fix_post	2		12	43.0	2.5	/experiments/AOT/AOT_stimuli/rescaled_final/0033_fw.mp4	0.0	305.4783067703247	0.10037803649902344
46	285.27433586120605	fix_pre	0		119	44.0	2.5	/experiments/AOT/AOT_stimuli/rescaled_final/0707_rv.mp4	0.0	305.57868480682373	0.9913921356201172
46	286.257563829422	pulse	0	t		44.0	2.5	/experiments/AOT/AOT_stimuli/rescaled_final/0707_rv.mp4	0.0	306.5619127750397	
46	286.2657279968262	movie	1		245	44.0	2.5	/experiments/AOT/AOT_stimuli/rescaled_final/0707_rv.mp4	0.0	306.57007694244385	2.5084569454193115
46	287.85692286491394	pulse	1	t		44.0	2.5	/experiments/AOT/AOT_stimuli/rescaled_final/0707_rv.mp4	0.0	308.1612718105316	
46	288.7741849422455	fix_post	2		12	44.0	2.5	/experiments/AOT/AOT_stimuli/rescaled_final/0707_rv.mp4	0.0	309.07853388786316	0.09997296333312988
47	288.8741579055786	fix_pre	0		120	45.0	2.5	/experiments/AOT/AOT_stimuli/rescaled_final/2092_rv.mp4	0.0	309.1785068511963	0.9995219707489014
47	289.45013093948364	pulse	0	t		45.0	2.5	/experiments/AOT/AOT_stimuli/rescaled_final/2092_rv.mp4	0.0	309.7544798851013	
47	289.8736798763275	movie	1		244	45.0	2.5	/experiments/AOT/AOT_stimuli/rescaled_final/2092_rv.mp4	0.0	310.1780288219452	2.500383138656616
47	291.05030584335327	pulse	1	t		45.0	2.5	/experiments/AOT/AOT_stimuli/rescaled_final/2092_rv.mp4	0.0	311.35465478897095	
47	292.37406301498413	fix_post	2		12	45.0	2.5	/experiments/AOT/AOT_stimuli/rescaled_final/2092_rv.mp4	0.0	312.6784119606018	0.10000491142272949
48	292.47406792640686	fix_pre	0		120	46.0	2.5	/experiments/AOT/AOT_stimuli/rescaled_final/2106_fw.mp4	0.0	312.77841687202454	0.9999759197235107
48	292.64990186691284	pulse	0	t		46.0	2.5	/experiments/AOT/AOT_stimuli/rescaled_final/2106_fw.mp4	0.0	312.9542508125305	
48	293.47404384613037	movie	1		246	46.0	2.5	/experiments/AOT/AOT_stimuli/rescaled_final/2106_fw.mp4	0.0	313.77839279174805	2.5000500679016113
48	294.249990940094	pulse	1	t		46.0	2.5	/experiments/AOT/AOT_stimuli/rescaled_final/2106_fw.mp4	0.0	314.55433988571167	
48	295.8558888435364	pulse	1	t		46.0	2.5	/experiments/AOT/AOT_stimuli/rescaled_final/2106_fw.mp4	0.0	316.16023778915405	
48	295.974093914032	fix_post	2		12	46.0	2.5	/experiments/AOT/AOT_stimuli/rescaled_final/2106_fw.mp4	0.0	316.27844285964966	0.09994792938232422
49	296.0740418434143	fix_pre	0		120	47.0	2.5	/experiments/AOT/AOT_stimuli/rescaled_final/0131_rv.mp4	0.0	316.378390789032	0.9999771118164062
49	297.0740189552307	movie	1		246	47.0	2.5	/experiments/AOT/AOT_stimuli/rescaled_final/0131_rv.mp4	0.0	317.3783679008484	2.500091075897217
49	297.45731687545776	pulse	1	t		47.0	2.5	/experiments/AOT/AOT_stimuli/rescaled_final/0131_rv.mp4	0.0	317.76166582107544	
49	299.0501289367676	pulse	1	t		47.0	2.5	/experiments/AOT/AOT_stimuli/rescaled_final/0131_rv.mp4	0.0	319.35447788238525	
49	299.57411003112793	fix_post	2		12	47.0	2.5	/experiments/AOT/AOT_stimuli/rescaled_final/0131_rv.mp4	0.0	319.8784589767456	0.09993886947631836
50	299.67404890060425	fix_pre	0		119	48.0	2.5	/experiments/AOT/AOT_stimuli/rescaled_final/0616_rv.mp4	0.0	319.9783978462219	0.9916620254516602
50	300.6576180458069	pulse	0	t		48.0	2.5	/experiments/AOT/AOT_stimuli/rescaled_final/0616_rv.mp4	0.0	320.96196699142456	
50	300.6657109260559	movie	1		245	48.0	2.5	/experiments/AOT/AOT_stimuli/rescaled_final/0616_rv.mp4	0.0	320.9700598716736	2.5083401203155518
50	302.25703287124634	pulse	1	t		48.0	2.5	/experiments/AOT/AOT_stimuli/rescaled_final/0616_rv.mp4	0.0	322.561381816864	
50	303.17405104637146	fix_post	2		12	48.0	2.5	/experiments/AOT/AOT_stimuli/rescaled_final/0616_rv.mp4	0.0	323.47839999198914	0.10000491142272949
51	303.2740559577942	fix_pre	0		120	49.0	2.5	blank	1.0	323.57840490341187	0.9999809265136719
51	303.857528924942	pulse	0	t		49.0	2.5	blank	1.0	324.1618778705597	
51	304.27403688430786	movie	1		300	49.0	2.5	blank	1.0	324.57838582992554	2.4999940395355225
51	305.45751690864563	pulse	1	t		49.0	2.5	blank	1.0	325.7618658542633	
51	306.7740309238434	fix_post	2		12	49.0	2.5	blank	1.0	327.07837986946106	0.09998106956481934
52	306.8740119934082	fix_pre	0		120	50.0	2.5	/experiments/AOT/AOT_stimuli/rescaled_final/1074_rv.mp4	0.0	327.1783609390259	0.9999289512634277
52	307.04999899864197	pulse	0	t		50.0	2.5	/experiments/AOT/AOT_stimuli/rescaled_final/1074_rv.mp4	0.0	327.35434794425964	
52	307.87394094467163	movie	1		243	50.0	2.5	/experiments/AOT/AOT_stimuli/rescaled_final/1074_rv.mp4	0.0	328.1782898902893	2.500072956085205
52	308.65009903907776	pulse	1	t		50.0	2.5	/experiments/AOT/AOT_stimuli/rescaled_final/1074_rv.mp4	0.0	328.95444798469543	
52	310.255784034729	pulse	1	t		50.0	2.5	/experiments/AOT/AOT_stimuli/rescaled_final/1074_rv.mp4	0.0	330.5601329803467	
52	310.37401390075684	fix_post	2		12	50.0	2.5	/experiments/AOT/AOT_stimuli/rescaled_final/1074_rv.mp4	0.0	330.6783628463745	0.09995102882385254
53	310.4739649295807	fix_pre	0		120	51.0	2.5	/experiments/AOT/AOT_stimuli/rescaled_final/1996_rv.mp4	0.0	330.77831387519836	1.0000410079956055
53	311.4740059375763	movie	1		243	51.0	2.5	/experiments/AOT/AOT_stimuli/rescaled_final/1996_rv.mp4	0.0	331.77835488319397	2.4999399185180664
53	311.8572738170624	pulse	1	t		51.0	2.5	/experiments/AOT/AOT_stimuli/rescaled_final/1996_rv.mp4	0.0	332.16162276268005	
53	313.4501278400421	pulse	1	t		51.0	2.5	/experiments/AOT/AOT_stimuli/rescaled_final/1996_rv.mp4	0.0	333.7544767856598	
53	313.97394585609436	fix_post	2		12	51.0	2.5	/experiments/AOT/AOT_stimuli/rescaled_final/1996_rv.mp4	0.0	334.27829480171204	0.10008811950683594
54	314.0740339756012	fix_pre	0		119	52.0	2.5	/experiments/AOT/AOT_stimuli/rescaled_final/0990_fw.mp4	0.0	334.3783829212189	0.9915759563446045
54	315.0498728752136	pulse	0	t		52.0	2.5	/experiments/AOT/AOT_stimuli/rescaled_final/0990_fw.mp4	0.0	335.3542218208313	
54	315.0656099319458	movie	1		245	52.0	2.5	/experiments/AOT/AOT_stimuli/rescaled_final/0990_fw.mp4	0.0	335.3699588775635	2.508296012878418
54	316.6569218635559	pulse	1	t		52.0	2.5	/experiments/AOT/AOT_stimuli/rescaled_final/0990_fw.mp4	0.0	336.9612708091736	
54	317.5739059448242	fix_post	2		12	52.0	2.5	/experiments/AOT/AOT_stimuli/rescaled_final/0990_fw.mp4	0.0	337.8782548904419	0.10010600090026855
55	317.6740119457245	fix_pre	0		120	53.0	2.5	/experiments/AOT/AOT_stimuli/rescaled_final/0659_rv.mp4	0.0	337.97836089134216	0.9999949932098389
55	318.2574529647827	pulse	0	t		53.0	2.5	/experiments/AOT/AOT_stimuli/rescaled_final/0659_rv.mp4	0.0	338.5618019104004	
55	318.6740069389343	movie	1		245	53.0	2.5	/experiments/AOT/AOT_stimuli/rescaled_final/0659_rv.mp4	0.0	338.978355884552	2.499969005584717
55	319.85738492012024	pulse	1	t		53.0	2.5	/experiments/AOT/AOT_stimuli/rescaled_final/0659_rv.mp4	0.0	340.1617338657379	
55	321.17397594451904	fix_post	2		12	53.0	2.5	/experiments/AOT/AOT_stimuli/rescaled_final/0659_rv.mp4	0.0	341.4783248901367	0.09990787506103516
56	321.2738838195801	fix_pre	0		120	54.0	2.5	/experiments/AOT/AOT_stimuli/rescaled_final/1954_rv.mp4	0.0	341.57823276519775	1.0001320838928223
56	321.4574158191681	pulse	0	t		54.0	2.5	/experiments/AOT/AOT_stimuli/rescaled_final/1954_rv.mp4	0.0	341.76176476478577	
56	322.2740159034729	movie	1		243	54.0	2.5	/experiments/AOT/AOT_stimuli/rescaled_final/1954_rv.mp4	0.0	342.5783648490906	2.499894142150879
56	323.0574049949646	pulse	1	t		54.0	2.5	/experiments/AOT/AOT_stimuli/rescaled_final/1954_rv.mp4	0.0	343.3617539405823	
56	324.6557629108429	pulse	1	t		54.0	2.5	/experiments/AOT/AOT_stimuli/rescaled_final/1954_rv.mp4	0.0	344.96011185646057	
56	324.7739100456238	fix_post	2		12	54.0	2.5	/experiments/AOT/AOT_stimuli/rescaled_final/1954_rv.mp4	0.0	345.07825899124146	0.1000218391418457
57	324.8739318847656	fix_pre	0		120	55.0	2.5	/experiments/AOT/AOT_stimuli/rescaled_final/0331_rv.mp4	0.0	345.1782808303833	0.9999179840087891
57	325.8738498687744	movie	1		246	55.0	2.5	/experiments/AOT/AOT_stimuli/rescaled_final/0331_rv.mp4	0.0	346.1781988143921	2.5000691413879395
57	326.2568359375	pulse	1	t		55.0	2.5	/experiments/AOT/AOT_stimuli/rescaled_final/0331_rv.mp4	0.0	346.5611848831177	
57	327.8573980331421	pulse	1	t		55.0	2.5	/experiments/AOT/AOT_stimuli/rescaled_final/0331_rv.mp4	0.0	348.16174697875977	
57	328.37391901016235	fix_post	2		12	55.0	2.5	/experiments/AOT/AOT_stimuli/rescaled_final/0331_rv.mp4	0.0	348.67826795578003	0.10005688667297363
58	328.4739758968353	fix_pre	0		119	56.0	2.5	blank	1.0	348.778324842453	0.9915521144866943
58	329.4498379230499	pulse	0	t		56.0	2.5	blank	1.0	349.7541868686676	
58	329.465528011322	movie	1		301	56.0	2.5	blank	1.0	349.7698769569397	2.5084028244018555
58	331.04997086524963	pulse	1	t		56.0	2.5	blank	1.0	351.3543198108673	
58	331.9739308357239	fix_post	2		12	56.0	2.5	blank	1.0	352.27827978134155	0.09990119934082031
59	332.0738320350647	fix_pre	0		120	57.0	2.5	/experiments/AOT/AOT_stimuli/rescaled_final/1572_fw.mp4	0.0	352.3781809806824	1.0000879764556885
59	332.6573739051819	pulse	0	t		57.0	2.5	/experiments/AOT/AOT_stimuli/rescaled_final/1572_fw.mp4	0.0	352.96172285079956	
59	333.0739200115204	movie	1		244	57.0	2.5	/experiments/AOT/AOT_stimuli/rescaled_final/1572_fw.mp4	0.0	353.37826895713806	2.499948024749756
59	334.2574279308319	pulse	1	t		57.0	2.5	/experiments/AOT/AOT_stimuli/rescaled_final/1572_fw.mp4	0.0	354.5617768764496	
59	335.57386803627014	fix_post	2		12	57.0	2.5	/experiments/AOT/AOT_stimuli/rescaled_final/1572_fw.mp4	0.0	355.8782169818878	0.09998178482055664
60	335.6738498210907	fix_pre	0		120	58.0	2.5	/experiments/AOT/AOT_stimuli/rescaled_final/2132_rv.mp4	0.0	355.9781987667084	1.0000522136688232
60	335.85750794410706	pulse	0	t		58.0	2.5	/experiments/AOT/AOT_stimuli/rescaled_final/2132_rv.mp4	0.0	356.16185688972473	
60	336.6739020347595	movie	1		243	58.0	2.5	/experiments/AOT/AOT_stimuli/rescaled_final/2132_rv.mp4	0.0	356.9782509803772	2.499553918838501
60	337.4573218822479	pulse	1	t		58.0	2.5	/experiments/AOT/AOT_stimuli/rescaled_final/2132_rv.mp4	0.0	357.7616708278656	
60	339.0557270050049	pulse	1	t		58.0	2.5	/experiments/AOT/AOT_stimuli/rescaled_final/2132_rv.mp4	0.0	359.36007595062256	
60	339.173455953598	fix_post	2		12	58.0	2.5	/experiments/AOT/AOT_stimuli/rescaled_final/2132_rv.mp4	0.0	359.4778048992157	0.10000801086425781
61	339.2734639644623	fix_pre	0		120	59.0	2.5	/experiments/AOT/AOT_stimuli/rescaled_final/0657_rv.mp4	0.0	359.57781291007996	1.0000429153442383
61	340.2735068798065	movie	1		244	59.0	2.5	/experiments/AOT/AOT_stimuli/rescaled_final/0657_rv.mp4	0.0	360.5778558254242	2.5003600120544434
61	340.65715885162354	pulse	1	t		59.0	2.5	/experiments/AOT/AOT_stimuli/rescaled_final/0657_rv.mp4	0.0	360.9615077972412	
61	342.249972820282	pulse	1	t		59.0	2.5	/experiments/AOT/AOT_stimuli/rescaled_final/0657_rv.mp4	0.0	362.55432176589966	
61	342.77386689186096	fix_post	2		12	59.0	2.5	/experiments/AOT/AOT_stimuli/rescaled_final/0657_rv.mp4	0.0	363.07821583747864	0.09997892379760742
62	342.87384581565857	fix_pre	0		119	60.0	2.5	/experiments/AOT/AOT_stimuli/rescaled_final/2101_fw.mp4	0.0	363.17819476127625	0.9916272163391113
62	343.8496890068054	pulse	0	t		60.0	2.5	/experiments/AOT/AOT_stimuli/rescaled_final/2101_fw.mp4	0.0	364.1540379524231	
62	343.8654730319977	movie	1		247	60.0	2.5	/experiments/AOT/AOT_stimuli/rescaled_final/2101_fw.mp4	0.0	364.16982197761536	2.5084049701690674
62	345.4566888809204	pulse	1	t		60.0	2.5	/experiments/AOT/AOT_stimuli/rescaled_final/2101_fw.mp4	0.0	365.7610378265381	
62	346.37387800216675	fix_post	2		12	60.0	2.5	/experiments/AOT/AOT_stimuli/rescaled_final/2101_fw.mp4	0.0	366.6782269477844	0.09999489784240723
63	346.47387290000916	fix_pre	0		120	61.0	2.5	blank	1.0	366.77822184562683	0.9996271133422852
63	347.0498950481415	pulse	0	t		61.0	2.5	blank	1.0	367.35424399375916	
63	347.47350001335144	movie	1		300	61.0	2.5	blank	1.0	367.7778489589691	2.5002858638763428
63	348.65721893310547	pulse	1	t		61.0	2.5	blank	1.0	368.96156787872314	
63	349.9737858772278	fix_post	2		12	61.0	2.5	blank	1.0	370.27813482284546	0.10004997253417969
64	350.07383584976196	fix_pre	0		120	62.0	2.5	/experiments/AOT/AOT_stimuli/rescaled_final/0352_rv.mp4	0.0	370.37818479537964	1.000049114227295
64	350.2572069168091	pulse	0	t		62.0	2.5	/experiments/AOT/AOT_stimuli/rescaled_final/0352_rv.mp4	0.0	370.56155586242676	
64	351.07388496398926	movie	1		244	62.0	2.5	/experiments/AOT/AOT_stimuli/rescaled_final/0352_rv.mp4	0.0	371.37823390960693	2.4998300075531006
64	351.85718989372253	pulse	1	t		62.0	2.5	/experiments/AOT/AOT_stimuli/rescaled_final/0352_rv.mp4	0.0	372.1615388393402	
64	353.45595598220825	pulse	1	t		62.0	2.5	/experiments/AOT/AOT_stimuli/rescaled_final/0352_rv.mp4	0.0	373.7603049278259	
64	353.57371497154236	fix_post	2		12	62.0	2.5	/experiments/AOT/AOT_stimuli/rescaled_final/0352_rv.mp4	0.0	373.87806391716003	0.10005402565002441
65	353.6737689971924	fix_pre	0		120	63.0	2.5	/experiments/AOT/AOT_stimuli/rescaled_final/2141_rv.mp4	0.0	373.97811794281006	0.9999740123748779
65	354.67374300956726	movie	1		243	63.0	2.5	/experiments/AOT/AOT_stimuli/rescaled_final/2141_rv.mp4	0.0	374.97809195518494	2.50003981590271
65	355.0567378997803	pulse	1	t		63.0	2.5	/experiments/AOT/AOT_stimuli/rescaled_final/2141_rv.mp4	0.0	375.36108684539795	
65	356.657194852829	pulse	1	t		63.0	2.5	/experiments/AOT/AOT_stimuli/rescaled_final/2141_rv.mp4	0.0	376.96154379844666	
65	357.17378282546997	fix_post	2		12	63.0	2.5	/experiments/AOT/AOT_stimuli/rescaled_final/2141_rv.mp4	0.0	377.47813177108765	0.0999290943145752
66	357.27371191978455	fix_pre	0		119	64.0	2.5	/experiments/AOT/AOT_stimuli/rescaled_final/1262_fw.mp4	0.0	377.5780608654022	0.9916970729827881
66	358.25724697113037	pulse	0	t		64.0	2.5	/experiments/AOT/AOT_stimuli/rescaled_final/1262_fw.mp4	0.0	378.56159591674805	
66	358.26540899276733	movie	1		247	64.0	2.5	/experiments/AOT/AOT_stimuli/rescaled_final/1262_fw.mp4	0.0	378.569757938385	2.5083088874816895
66	359.85673689842224	pulse	1	t		64.0	2.5	/experiments/AOT/AOT_stimuli/rescaled_final/1262_fw.mp4	0.0	380.1610858440399	
66	360.773717880249	fix_post	2		12	64.0	2.5	/experiments/AOT/AOT_stimuli/rescaled_final/1262_fw.mp4	0.0	381.0780668258667	0.10002994537353516
67	360.87374782562256	fix_pre	0		120	65.0	2.5	/experiments/AOT/AOT_stimuli/rescaled_final/0331_fw.mp4	0.0	381.17809677124023	1.000028133392334
67	361.44970083236694	pulse	0	t		65.0	2.5	/experiments/AOT/AOT_stimuli/rescaled_final/0331_fw.mp4	0.0	381.7540497779846	
67	361.8737759590149	movie	1		245	65.0	2.5	/experiments/AOT/AOT_stimuli/rescaled_final/0331_fw.mp4	0.0	382.17812490463257	2.4999630451202393
67	363.0572769641876	pulse	1	t		65.0	2.5	/experiments/AOT/AOT_stimuli/rescaled_final/0331_fw.mp4	0.0	383.3616259098053	
67	364.37373900413513	fix_post	2		12	65.0	2.5	/experiments/AOT/AOT_stimuli/rescaled_final/0331_fw.mp4	0.0	384.6780879497528	0.09998488426208496
68	364.4737238883972	fix_pre	0		120	66.0	2.5	/experiments/AOT/AOT_stimuli/rescaled_final/1884_rv.mp4	0.0	384.7780728340149	1.0000331401824951
68	364.64967703819275	pulse	0	t		66.0	2.5	/experiments/AOT/AOT_stimuli/rescaled_final/1884_rv.mp4	0.0	384.9540259838104	
68	365.4737570285797	movie	1		246	66.0	2.5	/experiments/AOT/AOT_stimuli/rescaled_final/1884_rv.mp4	0.0	385.7781059741974	2.5000557899475098
68	366.25718092918396	pulse	1	t		66.0	2.5	/experiments/AOT/AOT_stimuli/rescaled_final/1884_rv.mp4	0.0	386.56152987480164	
68	367.85574102401733	pulse	1	t		66.0	2.5	/experiments/AOT/AOT_stimuli/rescaled_final/1884_rv.mp4	0.0	388.160089969635	
68	367.9738128185272	fix_post	2		12	66.0	2.5	/experiments/AOT/AOT_stimuli/rescaled_final/1884_rv.mp4	0.0	388.2781617641449	0.09943604469299316
69	368.0732488632202	fix_pre	0		120	67.0	2.5	/experiments/AOT/AOT_stimuli/rescaled_final/1784_fw.mp4	0.0	388.3775978088379	1.0005121231079102
69	369.0737609863281	movie	1		244	67.0	2.5	/experiments/AOT/AOT_stimuli/rescaled_final/1784_fw.mp4	0.0	389.3781099319458	2.499497890472412
69	369.4566478729248	pulse	1	t		67.0	2.5	/experiments/AOT/AOT_stimuli/rescaled_final/1784_fw.mp4	0.0	389.7609968185425	
69	371.057147026062	pulse	1	t		67.0	2.5	/experiments/AOT/AOT_stimuli/rescaled_final/1784_fw.mp4	0.0	391.3614959716797	
69	371.57325887680054	fix_post	2		12	67.0	2.5	/experiments/AOT/AOT_stimuli/rescaled_final/1784_fw.mp4	0.0	391.8776078224182	0.10047101974487305
70	371.6737298965454	fix_pre	0		119	68.0	2.5	blank	1.0	391.9780788421631	0.9916219711303711
70	372.65712785720825	pulse	0	t		68.0	2.5	blank	1.0	392.9614768028259	
70	372.6653518676758	movie	1		301	68.0	2.5	blank	1.0	392.96970081329346	2.5083701610565186
70	374.25717401504517	pulse	1	t		68.0	2.5	blank	1.0	394.56152296066284	
70	375.1737220287323	fix_post	2		12	68.0	2.5	blank	1.0	395.47807097435	0.10001683235168457
71	375.273738861084	fix_pre	0		120	69.0	2.5	/experiments/AOT/AOT_stimuli/rescaled_final/1134_fw.mp4	0.0	395.57808780670166	0.9999141693115234
71	375.8571789264679	pulse	0	t		69.0	2.5	/experiments/AOT/AOT_stimuli/rescaled_final/1134_fw.mp4	0.0	396.16152787208557	
71	376.2736530303955	movie	1		245	69.0	2.5	/experiments/AOT/AOT_stimuli/rescaled_final/1134_fw.mp4	0.0	396.5780019760132	2.500108003616333
71	377.45719599723816	pulse	1	t		69.0	2.5	/experiments/AOT/AOT_stimuli/rescaled_final/1134_fw.mp4	0.0	397.76154494285583	
71	378.77376103401184	fix_post	2		12	69.0	2.5	/experiments/AOT/AOT_stimuli/rescaled_final/1134_fw.mp4	0.0	399.0781099796295	0.09990882873535156
72	378.8736698627472	fix_pre	0		120	70.0	2.5	/experiments/AOT/AOT_stimuli/rescaled_final/1262_fw.mp4	0.0	399.17801880836487	1.0000951290130615
72	379.0497410297394	pulse	0	t		70.0	2.5	/experiments/AOT/AOT_stimuli/rescaled_final/1262_fw.mp4	0.0	399.35408997535706	
72	379.87376499176025	movie	1		246	70.0	2.5	/experiments/AOT/AOT_stimuli/rescaled_final/1262_fw.mp4	0.0	400.17811393737793	2.4998619556427
72	380.64959597587585	pulse	1	t		70.0	2.5	/experiments/AOT/AOT_stimuli/rescaled_final/1262_fw.mp4	0.0	400.95394492149353	
72	382.2529299259186	pulse	1	t		70.0	2.5	/experiments/AOT/AOT_stimuli/rescaled_final/1262_fw.mp4	0.0	402.55727887153625	
72	382.37362694740295	fix_post	2		12	70.0	2.5	/experiments/AOT/AOT_stimuli/rescaled_final/1262_fw.mp4	0.0	402.67797589302063	0.1000359058380127
73	382.47366285324097	fix_pre	0		120	71.0	2.5	/experiments/AOT/AOT_stimuli/rescaled_final/1417_fw.mp4	0.0	402.77801179885864	0.9999780654907227
73	383.4736409187317	movie	1		244	71.0	2.5	/experiments/AOT/AOT_stimuli/rescaled_final/1417_fw.mp4	0.0	403.77798986434937	2.4995501041412354
73	383.85697197914124	pulse	1	t		71.0	2.5	/experiments/AOT/AOT_stimuli/rescaled_final/1417_fw.mp4	0.0	404.1613209247589	
73	385.45710587501526	pulse	1	t		71.0	2.5	/experiments/AOT/AOT_stimuli/rescaled_final/1417_fw.mp4	0.0	405.76145482063293	
73	385.9731910228729	fix_post	2		12	71.0	2.5	/experiments/AOT/AOT_stimuli/rescaled_final/1417_fw.mp4	0.0	406.2775399684906	0.10039687156677246
74	386.0735878944397	fix_pre	0		119	72.0	2.5	/experiments/AOT/AOT_stimuli/rescaled_final/0783_fw.mp4	0.0	406.3779368400574	0.9916131496429443
74	387.05711483955383	pulse	0	t		72.0	2.5	/experiments/AOT/AOT_stimuli/rescaled_final/0783_fw.mp4	0.0	407.3614637851715	
74	387.06520104408264	movie	1		245	72.0	2.5	/experiments/AOT/AOT_stimuli/rescaled_final/0783_fw.mp4	0.0	407.3695499897003	2.5084028244018555
74	388.6567339897156	pulse	1	t		72.0	2.5	/experiments/AOT/AOT_stimuli/rescaled_final/0783_fw.mp4	0.0	408.96108293533325	
74	389.5736038684845	fix_post	2		12	72.0	2.5	/experiments/AOT/AOT_stimuli/rescaled_final/0783_fw.mp4	0.0	409.8779528141022	0.10001516342163086
75	389.6736190319061	fix_pre	0		120	73.0	2.5	/experiments/AOT/AOT_stimuli/rescaled_final/0410_fw.mp4	0.0	409.9779679775238	0.9999768733978271
75	390.25712990760803	pulse	0	t		73.0	2.5	/experiments/AOT/AOT_stimuli/rescaled_final/0410_fw.mp4	0.0	410.5614788532257	
75	390.67359590530396	movie	1		244	73.0	2.5	/experiments/AOT/AOT_stimuli/rescaled_final/0410_fw.mp4	0.0	410.97794485092163	2.499974012374878
75	391.8573098182678	pulse	1	t		73.0	2.5	/experiments/AOT/AOT_stimuli/rescaled_final/0410_fw.mp4	0.0	412.1616587638855	
75	393.17356991767883	fix_post	2		12	73.0	2.5	/experiments/AOT/AOT_stimuli/rescaled_final/0410_fw.mp4	0.0	413.4779188632965	0.10001993179321289
76	393.27358984947205	fix_pre	0		120	74.0	2.5	/experiments/AOT/AOT_stimuli/rescaled_final/0271_fw.mp4	0.0	413.5779387950897	0.9999971389770508
76	393.4571249485016	pulse	0	t		74.0	2.5	/experiments/AOT/AOT_stimuli/rescaled_final/0271_fw.mp4	0.0	413.76147389411926	
76	394.2735869884491	movie	1		246	74.0	2.5	/experiments/AOT/AOT_stimuli/rescaled_final/0271_fw.mp4	0.0	414.5779359340668	2.5001330375671387
76	395.0565710067749	pulse	1	t		74.0	2.5	/experiments/AOT/AOT_stimuli/rescaled_final/0271_fw.mp4	0.0	415.3609199523926	
76	396.6525778770447	pulse	1	t		74.0	2.5	/experiments/AOT/AOT_stimuli/rescaled_final/0271_fw.mp4	0.0	416.95692682266235	
76	396.77372002601624	fix_post	2		12	74.0	2.5	/experiments/AOT/AOT_stimuli/rescaled_final/0271_fw.mp4	0.0	417.0780689716339	0.10006284713745117
77	396.8737828731537	fix_pre	0		120	75.0	2.5	blank	1.0	417.17813181877136	1.000082015991211
77	397.8738648891449	movie	1		300	75.0	2.5	blank	1.0	418.1782138347626	2.499758005142212
77	398.2570250034332	pulse	1	t		75.0	2.5	blank	1.0	418.5613739490509	
77	399.8569920063019	pulse	1	t		75.0	2.5	blank	1.0	420.16134095191956	
77	400.3736228942871	fix_post	2		12	75.0	2.5	blank	1.0	420.6779718399048	0.09998798370361328
78	400.4736108779907	fix_pre	0		119	76.0	2.5	/experiments/AOT/AOT_stimuli/rescaled_final/1069_rv.mp4	0.0	420.7779598236084	0.9916329383850098
78	401.45710492134094	pulse	0	t		76.0	2.5	/experiments/AOT/AOT_stimuli/rescaled_final/1069_rv.mp4	0.0	421.7614538669586	
78	401.46524381637573	movie	1		245	76.0	2.5	/experiments/AOT/AOT_stimuli/rescaled_final/1069_rv.mp4	0.0	421.7695927619934	2.5082530975341797
78	403.0567629337311	pulse	1	t		76.0	2.5	/experiments/AOT/AOT_stimuli/rescaled_final/1069_rv.mp4	0.0	423.36111187934875	
78	403.9734969139099	fix_post	2		12	76.0	2.5	/experiments/AOT/AOT_stimuli/rescaled_final/1069_rv.mp4	0.0	424.2778458595276	0.09964895248413086
79	404.07314586639404	fix_pre	0		120	77.0	2.5	/experiments/AOT/AOT_stimuli/rescaled_final/0229_fw.mp4	0.0	424.3774948120117	1.0003299713134766
79	404.6570408344269	pulse	0	t		77.0	2.5	/experiments/AOT/AOT_stimuli/rescaled_final/0229_fw.mp4	0.0	424.96138978004456	
79	405.0734758377075	movie	1		245	77.0	2.5	/experiments/AOT/AOT_stimuli/rescaled_final/0229_fw.mp4	0.0	425.3778247833252	2.500159978866577
79	406.2570958137512	pulse	1	t		77.0	2.5	/experiments/AOT/AOT_stimuli/rescaled_final/0229_fw.mp4	0.0	426.5614447593689	
79	407.5736358165741	fix_post	2		12	77.0	2.5	/experiments/AOT/AOT_stimuli/rescaled_final/0229_fw.mp4	0.0	427.8779847621918	0.09983205795288086
80	407.673467874527	fix_pre	0		120	78.0	2.5	/experiments/AOT/AOT_stimuli/rescaled_final/0518_fw.mp4	0.0	427.97781682014465	1.0000381469726562
80	407.85709381103516	pulse	0	t		78.0	2.5	/experiments/AOT/AOT_stimuli/rescaled_final/0518_fw.mp4	0.0	428.16144275665283	
80	408.67350602149963	movie	1		246	78.0	2.5	/experiments/AOT/AOT_stimuli/rescaled_final/0518_fw.mp4	0.0	428.9778549671173	2.499994993209839
80	409.4569230079651	pulse	1	t		78.0	2.5	/experiments/AOT/AOT_stimuli/rescaled_final/0518_fw.mp4	0.0	429.76127195358276	
80	411.0555260181427	pulse	1	t		78.0	2.5	/experiments/AOT/AOT_stimuli/rescaled_final/0518_fw.mp4	0.0	431.3598749637604	
80	411.1735010147095	fix_post	2		12	78.0	2.5	/experiments/AOT/AOT_stimuli/rescaled_final/0518_fw.mp4	0.0	431.47784996032715	0.10015392303466797
81	411.27365493774414	fix_pre	0		120	79.0	2.5	/experiments/AOT/AOT_stimuli/rescaled_final/0251_fw.mp4	0.0	431.5780038833618	0.9998700618743896
81	412.27352499961853	movie	1		246	79.0	2.5	/experiments/AOT/AOT_stimuli/rescaled_final/0251_fw.mp4	0.0	432.5778739452362	2.4995598793029785
81	412.65640783309937	pulse	1	t		79.0	2.5	/experiments/AOT/AOT_stimuli/rescaled_final/0251_fw.mp4	0.0	432.96075677871704	
81	414.2571368217468	pulse	1	t		79.0	2.5	/experiments/AOT/AOT_stimuli/rescaled_final/0251_fw.mp4	0.0	434.5614857673645	
81	414.7730848789215	fix_post	2		12	79.0	2.5	/experiments/AOT/AOT_stimuli/rescaled_final/0251_fw.mp4	0.0	435.0774338245392	0.10038304328918457
82	414.8734679222107	fix_pre	0		119	80.0	2.5	/experiments/AOT/AOT_stimuli/rescaled_final/1776_fw.mp4	0.0	435.17781686782837	0.9916191101074219
82	415.8568298816681	pulse	0	t		80.0	2.5	/experiments/AOT/AOT_stimuli/rescaled_final/1776_fw.mp4	0.0	436.16117882728577	
82	415.8650870323181	movie	1		244	80.0	2.5	/experiments/AOT/AOT_stimuli/rescaled_final/1776_fw.mp4	0.0	436.1694359779358	2.5079848766326904
82	417.45793986320496	pulse	1	t		80.0	2.5	/experiments/AOT/AOT_stimuli/rescaled_final/1776_fw.mp4	0.0	437.76228880882263	
82	418.3730719089508	fix_post	2		12	80.0	2.5	/experiments/AOT/AOT_stimuli/rescaled_final/1776_fw.mp4	0.0	438.6774208545685	0.10054302215576172
83	418.47361493110657	fix_pre	0		120	81.0	2.5	/experiments/AOT/AOT_stimuli/rescaled_final/0188_rv.mp4	0.0	438.77796387672424	0.999845027923584
83	419.05682396888733	pulse	0	t		81.0	2.5	/experiments/AOT/AOT_stimuli/rescaled_final/0188_rv.mp4	0.0	439.361172914505	
83	419.47345995903015	movie	1		245	81.0	2.5	/experiments/AOT/AOT_stimuli/rescaled_final/0188_rv.mp4	0.0	439.7778089046478	2.500035047531128
83	420.65698981285095	pulse	1	t		81.0	2.5	/experiments/AOT/AOT_stimuli/rescaled_final/0188_rv.mp4	0.0	440.9613387584686	
83	421.9734950065613	fix_post	2		12	81.0	2.5	/experiments/AOT/AOT_stimuli/rescaled_final/0188_rv.mp4	0.0	442.27784395217896	0.09989285469055176
84	422.07338786125183	fix_pre	0		120	82.0	2.5	/experiments/AOT/AOT_stimuli/rescaled_final/1792_rv.mp4	0.0	442.3777368068695	1.0000030994415283
84	422.25693798065186	pulse	0	t		82.0	2.5	/experiments/AOT/AOT_stimuli/rescaled_final/1792_rv.mp4	0.0	442.56128692626953	
84	423.07339096069336	movie	1		244	82.0	2.5	/experiments/AOT/AOT_stimuli/rescaled_final/1792_rv.mp4	0.0	443.37773990631104	2.5000009536743164
84	423.8568420410156	pulse	1	t		82.0	2.5	/experiments/AOT/AOT_stimuli/rescaled_final/1792_rv.mp4	0.0	444.1611909866333	
84	425.455454826355	pulse	1	t		82.0	2.5	/experiments/AOT/AOT_stimuli/rescaled_final/1792_rv.mp4	0.0	445.75980377197266	
84	425.5733919143677	fix_post	2		12	82.0	2.5	/experiments/AOT/AOT_stimuli/rescaled_final/1792_rv.mp4	0.0	445.87774085998535	0.10005998611450195
85	425.6734519004822	fix_pre	0		120	83.0	2.5	blank	1.0	445.97780084609985	0.9995450973510742
85	426.67299699783325	movie	1		300	83.0	2.5	blank	1.0	446.9773459434509	2.500427007675171
85	427.0568628311157	pulse	1	t		83.0	2.5	blank	1.0	447.3612117767334	
85	428.65693497657776	pulse	1	t		83.0	2.5	blank	1.0	448.96128392219543	
85	429.1734240055084	fix_post	2		12	83.0	2.5	blank	1.0	449.4777729511261	0.10009098052978516
87	429.2735149860382	stim	0		1716					449.5778639316559	14.299872875213623
87	430.25703501701355	pulse	0	t						450.5613839626312	
87	431.8568768501282	pulse	0	t						452.16122579574585	
87	433.4568729400635	pulse	0	t						453.76122188568115	
87	435.0568919181824	pulse	0	t						455.36124086380005	
87	436.65686082839966	pulse	0	t						456.96120977401733	
87	438.25682187080383	pulse	0	t						458.5611708164215	
87	439.85679483413696	pulse	0	t						460.16114377975464	
87	441.45675802230835	pulse	0	t						461.761106967926	
87	443.0568289756775	pulse	0	t						463.36117792129517	
