trial_nr	onset	event_type	phase	response	nr_frames	movie_index	movie_duration	movie_file	blank	onset_abs	duration
0	0.16646409034729004	stim	0		69					16.39233684539795	0.574913740158081
0	0.7265822887420654	response	0	space						16.952455043792725	
1	0.7413778305053711	stim	0		3455					16.96725058555603	28.80552864074707
1	29.537260055541992	pulse	0	t						45.76313281059265	
1	29.54690647125244	stim	1		1715					45.7727792263031	14.300972938537598
1	31.129531383514404	pulse	1	t						47.35540413856506	
1	32.72971558570862	pulse	1	t						48.95558834075928	
1	34.33012771606445	pulse	1	t						50.55600047111511	
1	35.93029069900513	pulse	1	t						52.156163454055786	
1	37.530465841293335	pulse	1	t						53.756338596343994	
1	39.130722761154175	pulse	1	t						55.356595516204834	
1	40.7309455871582	pulse	1	t						56.95681834220886	
1	42.33115744590759	pulse	1	t						58.55703020095825	
2	43.84787940979004	fix_pre	0		11	0.0	2.5	/experiments/knapen_AOT/AOT_stimuli/rescaled_final/0074_fw.mp4	0.0	60.0737521648407	0.10845088958740234
2	43.931809425354004	pulse	0	t		0.0	2.5	/experiments/knapen_AOT/AOT_stimuli/rescaled_final/0074_fw.mp4	0.0	60.15768218040466	
2	43.95633029937744	movie	1		289	0.0	2.5	/experiments/knapen_AOT/AOT_stimuli/rescaled_final/0074_fw.mp4	0.0	60.1822030544281	2.4919605255126953
2	45.529855728149414	pulse	1	t		0.0	2.5	/experiments/knapen_AOT/AOT_stimuli/rescaled_final/0074_fw.mp4	0.0	61.75572848320007	
2	46.44829082489014	fix_post	2		12	0.0	2.5	/experiments/knapen_AOT/AOT_stimuli/rescaled_final/0074_fw.mp4	0.0	62.674163579940796	0.1000511646270752
3	46.54834198951721	fix_pre	0		120	1.0	2.5	/experiments/knapen_AOT/AOT_stimuli/rescaled_final/0921_rv.mp4	0.0	62.77421474456787	1.0084290504455566
3	47.13188815116882	pulse	0	t		1.0	2.5	/experiments/knapen_AOT/AOT_stimuli/rescaled_final/0921_rv.mp4	0.0	63.35776090621948	
3	47.55677103996277	movie	1		281	1.0	2.5	/experiments/knapen_AOT/AOT_stimuli/rescaled_final/0921_rv.mp4	0.0	63.78264379501343	2.492161273956299
3	48.7299702167511	pulse	1	t		1.0	2.5	/experiments/knapen_AOT/AOT_stimuli/rescaled_final/0921_rv.mp4	0.0	64.95584297180176	
3	50.04893231391907	fix_post	2		12	1.0	2.5	/experiments/knapen_AOT/AOT_stimuli/rescaled_final/0921_rv.mp4	0.0	66.27480506896973	0.09993743896484375
4	50.14886975288391	fix_pre	0		120	2.0	2.5	/experiments/knapen_AOT/AOT_stimuli/rescaled_final/0789_fw.mp4	0.0	66.37474250793457	1.0085010528564453
4	50.33246874809265	pulse	0	t		2.0	2.5	/experiments/knapen_AOT/AOT_stimuli/rescaled_final/0789_fw.mp4	0.0	66.55834150314331	
4	51.157370805740356	movie	1		267	2.0	2.5	/experiments/knapen_AOT/AOT_stimuli/rescaled_final/0789_fw.mp4	0.0	67.38324356079102	2.4919960498809814
4	51.930768728256226	pulse	1	t		2.0	2.5	/experiments/knapen_AOT/AOT_stimuli/rescaled_final/0789_fw.mp4	0.0	68.15664148330688	
4	53.53219771385193	pulse	1	t		2.0	2.5	/experiments/knapen_AOT/AOT_stimuli/rescaled_final/0789_fw.mp4	0.0	69.75807046890259	
4	53.64936685562134	fix_post	2		12	2.0	2.5	/experiments/knapen_AOT/AOT_stimuli/rescaled_final/0789_fw.mp4	0.0	69.875239610672	0.10000395774841309
5	53.74937081336975	fix_pre	0		120	3.0	2.5	/experiments/knapen_AOT/AOT_stimuli/rescaled_final/0054_rv.mp4	0.0	69.97524356842041	1.008606195449829
5	54.75797700881958	movie	1		269	3.0	2.5	/experiments/knapen_AOT/AOT_stimuli/rescaled_final/0054_rv.mp4	0.0	70.98384976387024	2.491919994354248
5	55.13195013999939	pulse	1	t		3.0	2.5	/experiments/knapen_AOT/AOT_stimuli/rescaled_final/0054_rv.mp4	0.0	71.35782289505005	
5	56.73269605636597	pulse	1	t		3.0	2.5	/experiments/knapen_AOT/AOT_stimuli/rescaled_final/0054_rv.mp4	0.0	72.95856881141663	
5	57.24989700317383	fix_post	2		12	3.0	2.5	/experiments/knapen_AOT/AOT_stimuli/rescaled_final/0054_rv.mp4	0.0	73.47576975822449	0.1000981330871582
6	57.349995136260986	fix_pre	0		119	4.0	2.5	/experiments/knapen_AOT/AOT_stimuli/rescaled_final/1094_rv.mp4	0.0	73.57586789131165	1.0000884532928467
6	58.333884716033936	pulse	0	t		4.0	2.5	/experiments/knapen_AOT/AOT_stimuli/rescaled_final/1094_rv.mp4	0.0	74.5597574710846	
6	58.35008358955383	movie	1		280	4.0	2.5	/experiments/knapen_AOT/AOT_stimuli/rescaled_final/1094_rv.mp4	0.0	74.57595634460449	2.5004031658172607
6	59.932055711746216	pulse	1	t		4.0	2.5	/experiments/knapen_AOT/AOT_stimuli/rescaled_final/1094_rv.mp4	0.0	76.15792846679688	
6	60.850486755371094	fix_post	2		12	4.0	2.5	/experiments/knapen_AOT/AOT_stimuli/rescaled_final/1094_rv.mp4	0.0	77.07635951042175	0.10010886192321777
7	60.95059561729431	fix_pre	0		120	5.0	2.5	blank	1.0	77.17646837234497	1.0001981258392334
7	61.52671432495117	pulse	0	t		5.0	2.5	blank	1.0	77.75258708000183	
7	61.950793743133545	movie	1		300	5.0	2.5	blank	1.0	78.1766664981842	2.5001766681671143
7	63.1266667842865	pulse	1	t		5.0	2.5	blank	1.0	79.35253953933716	
7	64.45097041130066	fix_post	2		12	5.0	2.5	blank	1.0	80.67684316635132	0.10004019737243652
8	64.5510106086731	fix_pre	0		120	6.0	2.5	/experiments/knapen_AOT/AOT_stimuli/rescaled_final/0205_fw.mp4	0.0	80.77688336372375	1.008481502532959
8	64.72695112228394	pulse	0	t		6.0	2.5	/experiments/knapen_AOT/AOT_stimuli/rescaled_final/0205_fw.mp4	0.0	80.9528238773346	
8	65.55949211120605	movie	1		269	6.0	2.5	/experiments/knapen_AOT/AOT_stimuli/rescaled_final/0205_fw.mp4	0.0	81.78536486625671	2.492124319076538
8	66.3267412185669	pulse	1	t		6.0	2.5	/experiments/knapen_AOT/AOT_stimuli/rescaled_final/0205_fw.mp4	0.0	82.55261397361755	
8	67.92679905891418	pulse	1	t		6.0	2.5	/experiments/knapen_AOT/AOT_stimuli/rescaled_final/0205_fw.mp4	0.0	84.15267181396484	
8	68.05161643028259	fix_post	2		12	6.0	2.5	/experiments/knapen_AOT/AOT_stimuli/rescaled_final/0205_fw.mp4	0.0	84.27748918533325	0.09992599487304688
9	68.15154242515564	fix_pre	0		120	7.0	2.5	/experiments/knapen_AOT/AOT_stimuli/rescaled_final/1186_fw.mp4	0.0	84.3774151802063	1.0084948539733887
9	69.16003727912903	movie	1		275	7.0	2.5	/experiments/knapen_AOT/AOT_stimuli/rescaled_final/1186_fw.mp4	0.0	85.38591003417969	2.500352382659912
9	69.53574705123901	pulse	1	t		7.0	2.5	/experiments/knapen_AOT/AOT_stimuli/rescaled_final/1186_fw.mp4	0.0	85.76161980628967	
9	71.12721061706543	pulse	1	t		7.0	2.5	/experiments/knapen_AOT/AOT_stimuli/rescaled_final/1186_fw.mp4	0.0	87.35308337211609	
9	71.66038966178894	fix_post	2		11	7.0	2.5	/experiments/knapen_AOT/AOT_stimuli/rescaled_final/1186_fw.mp4	0.0	87.8862624168396	0.09169745445251465
10	71.75208711624146	fix_pre	0		118	8.0	2.5	/experiments/knapen_AOT/AOT_stimuli/rescaled_final/1921_fw.mp4	0.0	87.97795987129211	0.9919424057006836
10	72.72765707969666	pulse	0	t		8.0	2.5	/experiments/knapen_AOT/AOT_stimuli/rescaled_final/1921_fw.mp4	0.0	88.95352983474731	
10	72.74402952194214	movie	1		272	8.0	2.5	/experiments/knapen_AOT/AOT_stimuli/rescaled_final/1921_fw.mp4	0.0	88.9699022769928	2.5002686977386475
10	74.32827305793762	pulse	1	t		8.0	2.5	/experiments/knapen_AOT/AOT_stimuli/rescaled_final/1921_fw.mp4	0.0	90.55414581298828	
10	75.24429821968079	fix_post	2		12	8.0	2.5	/experiments/knapen_AOT/AOT_stimuli/rescaled_final/1921_fw.mp4	0.0	91.47017097473145	0.10002398490905762
11	75.34432220458984	fix_pre	0		120	9.0	2.5	/experiments/knapen_AOT/AOT_stimuli/rescaled_final/1432_fw.mp4	0.0	91.5701949596405	1.0084519386291504
11	75.92798972129822	pulse	0	t		9.0	2.5	/experiments/knapen_AOT/AOT_stimuli/rescaled_final/1432_fw.mp4	0.0	92.15386247634888	
11	76.352774143219	movie	1		270	9.0	2.5	/experiments/knapen_AOT/AOT_stimuli/rescaled_final/1432_fw.mp4	0.0	92.57864689826965	2.492077112197876
11	77.52720713615417	pulse	1	t		9.0	2.5	/experiments/knapen_AOT/AOT_stimuli/rescaled_final/1432_fw.mp4	0.0	93.75307989120483	
11	78.84485125541687	fix_post	2		12	9.0	2.5	/experiments/knapen_AOT/AOT_stimuli/rescaled_final/1432_fw.mp4	0.0	95.07072401046753	0.09997749328613281
12	78.944828748703	fix_pre	0		120	10.0	2.5	/experiments/knapen_AOT/AOT_stimuli/rescaled_final/1589_rv.mp4	0.0	95.17070150375366	1.0085351467132568
12	79.12835907936096	pulse	0	t		10.0	2.5	/experiments/knapen_AOT/AOT_stimuli/rescaled_final/1589_rv.mp4	0.0	95.35423183441162	
12	79.95336389541626	movie	1		257	10.0	2.5	/experiments/knapen_AOT/AOT_stimuli/rescaled_final/1589_rv.mp4	0.0	96.17923665046692	2.4919869899749756
12	80.72815275192261	pulse	1	t		10.0	2.5	/experiments/knapen_AOT/AOT_stimuli/rescaled_final/1589_rv.mp4	0.0	96.95402550697327	
12	82.32800483703613	pulse	1	t		10.0	2.5	/experiments/knapen_AOT/AOT_stimuli/rescaled_final/1589_rv.mp4	0.0	98.55387759208679	
12	82.44535088539124	fix_post	2		12	10.0	2.5	/experiments/knapen_AOT/AOT_stimuli/rescaled_final/1589_rv.mp4	0.0	98.6712236404419	0.1000065803527832
13	82.54535746574402	fix_pre	0		120	11.0	2.5	/experiments/knapen_AOT/AOT_stimuli/rescaled_final/0337_fw.mp4	0.0	98.77123022079468	1.0084996223449707
13	83.55385708808899	movie	1		267	11.0	2.5	/experiments/knapen_AOT/AOT_stimuli/rescaled_final/0337_fw.mp4	0.0	99.77972984313965	2.4920713901519775
13	83.92754626274109	pulse	1	t		11.0	2.5	/experiments/knapen_AOT/AOT_stimuli/rescaled_final/0337_fw.mp4	0.0	100.15341901779175	
13	85.52750277519226	pulse	1	t		11.0	2.5	/experiments/knapen_AOT/AOT_stimuli/rescaled_final/0337_fw.mp4	0.0	101.75337553024292	
13	86.04592847824097	fix_post	2		12	11.0	2.5	/experiments/knapen_AOT/AOT_stimuli/rescaled_final/0337_fw.mp4	0.0	102.27180123329163	0.09999465942382812
14	86.1459231376648	fix_pre	0		119	12.0	2.5	/experiments/knapen_AOT/AOT_stimuli/rescaled_final/0506_rv.mp4	0.0	102.37179589271545	1.0001680850982666
14	87.12988829612732	pulse	0	t		12.0	2.5	/experiments/knapen_AOT/AOT_stimuli/rescaled_final/0506_rv.mp4	0.0	103.35576105117798	
14	87.14609122276306	movie	1		265	12.0	2.5	/experiments/knapen_AOT/AOT_stimuli/rescaled_final/0506_rv.mp4	0.0	103.37196397781372	2.5003530979156494
14	88.73023867607117	pulse	1	t		12.0	2.5	/experiments/knapen_AOT/AOT_stimuli/rescaled_final/0506_rv.mp4	0.0	104.95611143112183	
14	89.64644432067871	fix_post	2		12	12.0	2.5	/experiments/knapen_AOT/AOT_stimuli/rescaled_final/0506_rv.mp4	0.0	105.87231707572937	0.10000967979431152
15	89.74645400047302	fix_pre	0		120	13.0	2.5	/experiments/knapen_AOT/AOT_stimuli/rescaled_final/1883_rv.mp4	0.0	105.97232675552368	1.008594274520874
15	90.33002829551697	pulse	0	t		13.0	2.5	/experiments/knapen_AOT/AOT_stimuli/rescaled_final/1883_rv.mp4	0.0	106.55590105056763	
15	90.7550482749939	movie	1		269	13.0	2.5	/experiments/knapen_AOT/AOT_stimuli/rescaled_final/1883_rv.mp4	0.0	106.98092103004456	2.4919395446777344
15	91.92866826057434	pulse	1	t		13.0	2.5	/experiments/knapen_AOT/AOT_stimuli/rescaled_final/1883_rv.mp4	0.0	108.154541015625	
15	93.24698781967163	fix_post	2		12	13.0	2.5	/experiments/knapen_AOT/AOT_stimuli/rescaled_final/1883_rv.mp4	0.0	109.47286057472229	0.10001420974731445
16	93.34700202941895	fix_pre	0		120	14.0	2.5	blank	1.0	109.5728747844696	1.0001511573791504
16	93.5305244922638	pulse	0	t		14.0	2.5	blank	1.0	109.75639724731445	
16	94.3471531867981	movie	1		300	14.0	2.5	blank	1.0	110.57302594184875	2.500359058380127
16	95.13082242012024	pulse	1	t		14.0	2.5	blank	1.0	111.3566951751709	
16	96.73101949691772	pulse	1	t		14.0	2.5	blank	1.0	112.95689225196838	
16	96.84751224517822	fix_post	2		12	14.0	2.5	blank	1.0	113.07338500022888	0.10002708435058594
17	96.94753932952881	fix_pre	0		120	15.0	2.5	/experiments/knapen_AOT/AOT_stimuli/rescaled_final/1209_fw.mp4	0.0	113.17341208457947	1.0084822177886963
17	97.9560215473175	movie	1		281	15.0	2.5	/experiments/knapen_AOT/AOT_stimuli/rescaled_final/1209_fw.mp4	0.0	114.18189430236816	2.4920787811279297
17	98.33145308494568	pulse	1	t		15.0	2.5	/experiments/knapen_AOT/AOT_stimuli/rescaled_final/1209_fw.mp4	0.0	114.55732583999634	
17	99.92965817451477	pulse	1	t		15.0	2.5	/experiments/knapen_AOT/AOT_stimuli/rescaled_final/1209_fw.mp4	0.0	116.15553092956543	
17	100.44810032844543	fix_post	2		12	15.0	2.5	/experiments/knapen_AOT/AOT_stimuli/rescaled_final/1209_fw.mp4	0.0	116.6739730834961	0.09997344017028809
18	100.54807376861572	fix_pre	0		119	16.0	2.5	/experiments/knapen_AOT/AOT_stimuli/rescaled_final/1948_fw.mp4	0.0	116.77394652366638	1.000218152999878
18	101.53176641464233	pulse	0	t		16.0	2.5	/experiments/knapen_AOT/AOT_stimuli/rescaled_final/1948_fw.mp4	0.0	117.757639169693	
18	101.5482919216156	movie	1		279	16.0	2.5	/experiments/knapen_AOT/AOT_stimuli/rescaled_final/1948_fw.mp4	0.0	117.77416467666626	2.500298023223877
18	103.13116526603699	pulse	1	t		16.0	2.5	/experiments/knapen_AOT/AOT_stimuli/rescaled_final/1948_fw.mp4	0.0	119.35703802108765	
18	104.04858994483948	fix_post	2		12	16.0	2.5	/experiments/knapen_AOT/AOT_stimuli/rescaled_final/1948_fw.mp4	0.0	120.27446269989014	0.10008621215820312
19	104.14867615699768	fix_pre	0		120	17.0	2.5	/experiments/knapen_AOT/AOT_stimuli/rescaled_final/0645_rv.mp4	0.0	120.37454891204834	1.008422613143921
19	104.73223805427551	pulse	0	t		17.0	2.5	/experiments/knapen_AOT/AOT_stimuli/rescaled_final/0645_rv.mp4	0.0	120.95811080932617	
19	105.1570987701416	movie	1		267	17.0	2.5	/experiments/knapen_AOT/AOT_stimuli/rescaled_final/0645_rv.mp4	0.0	121.38297152519226	2.4920616149902344
19	106.33258748054504	pulse	1	t		17.0	2.5	/experiments/knapen_AOT/AOT_stimuli/rescaled_final/0645_rv.mp4	0.0	122.5584602355957	
19	107.64916038513184	fix_post	2		12	17.0	2.5	/experiments/knapen_AOT/AOT_stimuli/rescaled_final/0645_rv.mp4	0.0	123.8750331401825	0.09998226165771484
20	107.74914264678955	fix_pre	0		120	18.0	2.5	/experiments/knapen_AOT/AOT_stimuli/rescaled_final/1149_fw.mp4	0.0	123.97501540184021	1.0085115432739258
20	107.93275547027588	pulse	0	t		18.0	2.5	/experiments/knapen_AOT/AOT_stimuli/rescaled_final/1149_fw.mp4	0.0	124.15862822532654	
20	108.75765419006348	movie	1		267	18.0	2.5	/experiments/knapen_AOT/AOT_stimuli/rescaled_final/1149_fw.mp4	0.0	124.98352694511414	2.492030620574951
20	109.53159260749817	pulse	1	t		18.0	2.5	/experiments/knapen_AOT/AOT_stimuli/rescaled_final/1149_fw.mp4	0.0	125.75746536254883	
20	111.13111400604248	pulse	1	t		18.0	2.5	/experiments/knapen_AOT/AOT_stimuli/rescaled_final/1149_fw.mp4	0.0	127.35698676109314	
20	111.24968481063843	fix_post	2		12	18.0	2.5	/experiments/knapen_AOT/AOT_stimuli/rescaled_final/1149_fw.mp4	0.0	127.47555756568909	0.10001158714294434
21	111.34969639778137	fix_pre	0		120	19.0	2.5	blank	1.0	127.57556915283203	1.000133991241455
21	112.34983038902283	movie	1		300	19.0	2.5	blank	1.0	128.5757031440735	2.5004310607910156
21	112.73348879814148	pulse	1	t		19.0	2.5	blank	1.0	128.95936155319214	
21	114.33372211456299	pulse	1	t		19.0	2.5	blank	1.0	130.55959486961365	
21	114.85026144981384	fix_post	2		12	19.0	2.5	blank	1.0	131.0761342048645	0.09999847412109375
22	114.95025992393494	fix_pre	0		119	20.0	2.5	/experiments/knapen_AOT/AOT_stimuli/rescaled_final/1432_fw.mp4	0.0	131.1761326789856	1.000229835510254
22	115.9339554309845	pulse	0	t		20.0	2.5	/experiments/knapen_AOT/AOT_stimuli/rescaled_final/1432_fw.mp4	0.0	132.15982818603516	
22	115.95048975944519	movie	1		272	20.0	2.5	/experiments/knapen_AOT/AOT_stimuli/rescaled_final/1432_fw.mp4	0.0	132.17636251449585	2.5002658367156982
22	117.534508228302	pulse	1	t		20.0	2.5	/experiments/knapen_AOT/AOT_stimuli/rescaled_final/1432_fw.mp4	0.0	133.76038098335266	
22	118.45075559616089	fix_post	2		12	20.0	2.5	/experiments/knapen_AOT/AOT_stimuli/rescaled_final/1432_fw.mp4	0.0	134.67662835121155	0.1000216007232666
23	118.55077719688416	fix_pre	0		120	21.0	2.5	/experiments/knapen_AOT/AOT_stimuli/rescaled_final/1738_fw.mp4	0.0	134.77664995193481	1.0084993839263916
23	119.13440179824829	pulse	0	t		21.0	2.5	/experiments/knapen_AOT/AOT_stimuli/rescaled_final/1738_fw.mp4	0.0	135.36027455329895	
23	119.55927658081055	movie	1		289	21.0	2.5	/experiments/knapen_AOT/AOT_stimuli/rescaled_final/1738_fw.mp4	0.0	135.7851493358612	2.4920308589935303
23	120.7344422340393	pulse	1	t		21.0	2.5	/experiments/knapen_AOT/AOT_stimuli/rescaled_final/1738_fw.mp4	0.0	136.96031498908997	
23	122.05130743980408	fix_post	2		12	21.0	2.5	/experiments/knapen_AOT/AOT_stimuli/rescaled_final/1738_fw.mp4	0.0	138.27718019485474	0.10020279884338379
24	122.15151023864746	fix_pre	0		120	22.0	2.5	/experiments/knapen_AOT/AOT_stimuli/rescaled_final/0216_rv.mp4	0.0	138.37738299369812	1.0083413124084473
24	122.32719683647156	pulse	0	t		22.0	2.5	/experiments/knapen_AOT/AOT_stimuli/rescaled_final/0216_rv.mp4	0.0	138.55306959152222	
24	123.15985155105591	movie	1		279	22.0	2.5	/experiments/knapen_AOT/AOT_stimuli/rescaled_final/0216_rv.mp4	0.0	139.38572430610657	2.492124319076538
24	123.93516612052917	pulse	1	t		22.0	2.5	/experiments/knapen_AOT/AOT_stimuli/rescaled_final/0216_rv.mp4	0.0	140.16103887557983	
24	125.5274350643158	pulse	1	t		22.0	2.5	/experiments/knapen_AOT/AOT_stimuli/rescaled_final/0216_rv.mp4	0.0	141.75330781936646	
24	125.65197587013245	fix_post	2		12	22.0	2.5	/experiments/knapen_AOT/AOT_stimuli/rescaled_final/0216_rv.mp4	0.0	141.8778486251831	0.10004711151123047
25	125.75202298164368	fix_pre	0		120	23.0	2.5	/experiments/knapen_AOT/AOT_stimuli/rescaled_final/0679_fw.mp4	0.0	141.97789573669434	1.0083401203155518
25	126.76036310195923	movie	1		270	23.0	2.5	/experiments/knapen_AOT/AOT_stimuli/rescaled_final/0679_fw.mp4	0.0	142.9862358570099	2.4920132160186768
25	127.12739825248718	pulse	1	t		23.0	2.5	/experiments/knapen_AOT/AOT_stimuli/rescaled_final/0679_fw.mp4	0.0	143.35327100753784	
25	128.72777581214905	pulse	1	t		23.0	2.5	/experiments/knapen_AOT/AOT_stimuli/rescaled_final/0679_fw.mp4	0.0	144.9536485671997	
25	129.2523763179779	fix_post	2		12	23.0	2.5	/experiments/knapen_AOT/AOT_stimuli/rescaled_final/0679_fw.mp4	0.0	145.47824907302856	0.10001945495605469
26	129.35239577293396	fix_pre	0		118	24.0	2.5	/experiments/knapen_AOT/AOT_stimuli/rescaled_final/0718_rv.mp4	0.0	145.57826852798462	0.9918668270111084
26	130.32780265808105	pulse	0	t		24.0	2.5	/experiments/knapen_AOT/AOT_stimuli/rescaled_final/0718_rv.mp4	0.0	146.5536754131317	
26	130.34426259994507	movie	1		261	24.0	2.5	/experiments/knapen_AOT/AOT_stimuli/rescaled_final/0718_rv.mp4	0.0	146.57013535499573	2.5003349781036377
26	131.9280710220337	pulse	1	t		24.0	2.5	/experiments/knapen_AOT/AOT_stimuli/rescaled_final/0718_rv.mp4	0.0	148.15394377708435	
26	132.8445975780487	fix_post	2		12	24.0	2.5	/experiments/knapen_AOT/AOT_stimuli/rescaled_final/0718_rv.mp4	0.0	149.07047033309937	0.10002493858337402
27	132.94462251663208	fix_pre	0		120	25.0	2.5	/experiments/knapen_AOT/AOT_stimuli/rescaled_final/1883_rv.mp4	0.0	149.17049527168274	1.0085093975067139
27	133.5283191204071	pulse	0	t		25.0	2.5	/experiments/knapen_AOT/AOT_stimuli/rescaled_final/1883_rv.mp4	0.0	149.75419187545776	
27	133.9531319141388	movie	1		272	25.0	2.5	/experiments/knapen_AOT/AOT_stimuli/rescaled_final/1883_rv.mp4	0.0	150.17900466918945	2.4920010566711426
27	135.12877941131592	pulse	1	t		25.0	2.5	/experiments/knapen_AOT/AOT_stimuli/rescaled_final/1883_rv.mp4	0.0	151.35465216636658	
27	136.44513297080994	fix_post	2		12	25.0	2.5	/experiments/knapen_AOT/AOT_stimuli/rescaled_final/1883_rv.mp4	0.0	152.6710057258606	0.10001945495605469
28	136.545152425766	fix_pre	0		120	26.0	2.5	/experiments/knapen_AOT/AOT_stimuli/rescaled_final/1173_rv.mp4	0.0	152.77102518081665	1.008528709411621
28	136.72875809669495	pulse	0	t		26.0	2.5	/experiments/knapen_AOT/AOT_stimuli/rescaled_final/1173_rv.mp4	0.0	152.9546308517456	
28	137.5536811351776	movie	1		278	26.0	2.5	/experiments/knapen_AOT/AOT_stimuli/rescaled_final/1173_rv.mp4	0.0	153.77955389022827	2.491995334625244
28	138.3281056880951	pulse	1	t		26.0	2.5	/experiments/knapen_AOT/AOT_stimuli/rescaled_final/1173_rv.mp4	0.0	154.55397844314575	
28	139.92854619026184	pulse	1	t		26.0	2.5	/experiments/knapen_AOT/AOT_stimuli/rescaled_final/1173_rv.mp4	0.0	156.1544189453125	
28	140.04567646980286	fix_post	2		12	26.0	2.5	/experiments/knapen_AOT/AOT_stimuli/rescaled_final/1173_rv.mp4	0.0	156.27154922485352	0.10006117820739746
29	140.14573764801025	fix_pre	0		120	27.0	2.5	/experiments/knapen_AOT/AOT_stimuli/rescaled_final/1840_rv.mp4	0.0	156.3716104030609	1.0084507465362549
29	141.1541883945465	movie	1		265	27.0	2.5	/experiments/knapen_AOT/AOT_stimuli/rescaled_final/1840_rv.mp4	0.0	157.38006114959717	2.492069959640503
29	141.52847695350647	pulse	1	t		27.0	2.5	/experiments/knapen_AOT/AOT_stimuli/rescaled_final/1840_rv.mp4	0.0	157.75434970855713	
29	143.12983345985413	pulse	1	t		27.0	2.5	/experiments/knapen_AOT/AOT_stimuli/rescaled_final/1840_rv.mp4	0.0	159.35570621490479	
29	143.646258354187	fix_post	2		12	27.0	2.5	/experiments/knapen_AOT/AOT_stimuli/rescaled_final/1840_rv.mp4	0.0	159.87213110923767	0.09997940063476562
30	143.74623775482178	fix_pre	0		119	28.0	2.5	blank	1.0	159.97211050987244	0.9917857646942139
30	144.73001146316528	pulse	0	t		28.0	2.5	blank	1.0	160.95588421821594	
30	144.738023519516	movie	1		301	28.0	2.5	blank	1.0	160.96389627456665	2.5087239742279053
30	146.3301022052765	pulse	1	t		28.0	2.5	blank	1.0	162.55597496032715	
30	147.2467474937439	fix_post	2		12	28.0	2.5	blank	1.0	163.47262024879456	0.10002255439758301
31	147.34677004814148	fix_pre	0		120	29.0	2.5	/experiments/knapen_AOT/AOT_stimuli/rescaled_final/0682_rv.mp4	0.0	163.57264280319214	1.00868558883667
31	147.93040895462036	pulse	0	t		29.0	2.5	/experiments/knapen_AOT/AOT_stimuli/rescaled_final/0682_rv.mp4	0.0	164.15628170967102	
31	148.35545563697815	movie	1		272	29.0	2.5	/experiments/knapen_AOT/AOT_stimuli/rescaled_final/0682_rv.mp4	0.0	164.5813283920288	2.4918878078460693
31	149.52922534942627	pulse	1	t		29.0	2.5	/experiments/knapen_AOT/AOT_stimuli/rescaled_final/0682_rv.mp4	0.0	165.75509810447693	
31	150.84734344482422	fix_post	2		12	29.0	2.5	/experiments/knapen_AOT/AOT_stimuli/rescaled_final/0682_rv.mp4	0.0	167.07321619987488	0.0999765396118164
32	150.94731998443604	fix_pre	0		120	30.0	2.5	/experiments/knapen_AOT/AOT_stimuli/rescaled_final/0127_rv.mp4	0.0	167.1731927394867	1.0084922313690186
32	151.13101029396057	pulse	0	t		30.0	2.5	/experiments/knapen_AOT/AOT_stimuli/rescaled_final/0127_rv.mp4	0.0	167.35688304901123	
32	151.95581221580505	movie	1		265	30.0	2.5	/experiments/knapen_AOT/AOT_stimuli/rescaled_final/0127_rv.mp4	0.0	168.1816849708557	2.4921226501464844
32	152.73102641105652	pulse	1	t		30.0	2.5	/experiments/knapen_AOT/AOT_stimuli/rescaled_final/0127_rv.mp4	0.0	168.95689916610718	
32	154.32941389083862	pulse	1	t		30.0	2.5	/experiments/knapen_AOT/AOT_stimuli/rescaled_final/0127_rv.mp4	0.0	170.55528664588928	
32	154.44793486595154	fix_post	2		12	30.0	2.5	/experiments/knapen_AOT/AOT_stimuli/rescaled_final/0127_rv.mp4	0.0	170.6738076210022	0.09997200965881348
33	154.54790687561035	fix_pre	0		120	31.0	2.5	/experiments/knapen_AOT/AOT_stimuli/rescaled_final/1956_rv.mp4	0.0	170.773779630661	1.0084331035614014
33	155.55633997917175	movie	1		262	31.0	2.5	/experiments/knapen_AOT/AOT_stimuli/rescaled_final/1956_rv.mp4	0.0	171.7822127342224	2.4920365810394287
33	155.93047738075256	pulse	1	t		31.0	2.5	/experiments/knapen_AOT/AOT_stimuli/rescaled_final/1956_rv.mp4	0.0	172.15635013580322	
33	157.52960681915283	pulse	1	t		31.0	2.5	/experiments/knapen_AOT/AOT_stimuli/rescaled_final/1956_rv.mp4	0.0	173.7554795742035	
33	158.04837656021118	fix_post	2		12	31.0	2.5	/experiments/knapen_AOT/AOT_stimuli/rescaled_final/1956_rv.mp4	0.0	174.27424931526184	0.1000363826751709
34	158.14841294288635	fix_pre	0		119	32.0	2.5	/experiments/knapen_AOT/AOT_stimuli/rescaled_final/0976_fw.mp4	0.0	174.374285697937	1.000175952911377
34	159.13219499588013	pulse	0	t		32.0	2.5	/experiments/knapen_AOT/AOT_stimuli/rescaled_final/0976_fw.mp4	0.0	175.3580677509308	
34	159.14858889579773	movie	1		284	32.0	2.5	/experiments/knapen_AOT/AOT_stimuli/rescaled_final/0976_fw.mp4	0.0	175.3744616508484	2.500359296798706
34	160.73208665847778	pulse	1	t		32.0	2.5	/experiments/knapen_AOT/AOT_stimuli/rescaled_final/0976_fw.mp4	0.0	176.95795941352844	
34	161.64894819259644	fix_post	2		12	32.0	2.5	/experiments/knapen_AOT/AOT_stimuli/rescaled_final/0976_fw.mp4	0.0	177.8748209476471	0.09999251365661621
35	161.74894070625305	fix_pre	0		120	33.0	2.5	/experiments/knapen_AOT/AOT_stimuli/rescaled_final/1197_fw.mp4	0.0	177.9748134613037	1.0084702968597412
35	162.33256268501282	pulse	0	t		33.0	2.5	/experiments/knapen_AOT/AOT_stimuli/rescaled_final/1197_fw.mp4	0.0	178.55843544006348	
35	162.7574110031128	movie	1		286	33.0	2.5	/experiments/knapen_AOT/AOT_stimuli/rescaled_final/1197_fw.mp4	0.0	178.98328375816345	2.4920547008514404
35	163.9329822063446	pulse	1	t		33.0	2.5	/experiments/knapen_AOT/AOT_stimuli/rescaled_final/1197_fw.mp4	0.0	180.15885496139526	
35	165.24946570396423	fix_post	2		12	33.0	2.5	/experiments/knapen_AOT/AOT_stimuli/rescaled_final/1197_fw.mp4	0.0	181.4753384590149	0.1000204086303711
36	165.3494861125946	fix_pre	0		120	34.0	2.5	/experiments/knapen_AOT/AOT_stimuli/rescaled_final/0258_fw.mp4	0.0	181.57535886764526	1.0084924697875977
36	165.5330684185028	pulse	0	t		34.0	2.5	/experiments/knapen_AOT/AOT_stimuli/rescaled_final/0258_fw.mp4	0.0	181.75894117355347	
36	166.3579785823822	movie	1		276	34.0	2.5	/experiments/knapen_AOT/AOT_stimuli/rescaled_final/0258_fw.mp4	0.0	182.58385133743286	2.4920482635498047
36	167.13126969337463	pulse	1	t		34.0	2.5	/experiments/knapen_AOT/AOT_stimuli/rescaled_final/0258_fw.mp4	0.0	183.3571424484253	
36	168.73160982131958	pulse	1	t		34.0	2.5	/experiments/knapen_AOT/AOT_stimuli/rescaled_final/0258_fw.mp4	0.0	184.95748257637024	
36	168.850026845932	fix_post	2		12	34.0	2.5	/experiments/knapen_AOT/AOT_stimuli/rescaled_final/0258_fw.mp4	0.0	185.07589960098267	0.09998679161071777
37	168.95001363754272	fix_pre	0		120	35.0	2.5	blank	1.0	185.17588639259338	1.0001869201660156
37	169.95020055770874	movie	1		300	35.0	2.5	blank	1.0	186.1760733127594	2.5003321170806885
37	170.32722425460815	pulse	1	t		35.0	2.5	blank	1.0	186.5530970096588	
37	171.93400931358337	pulse	1	t		35.0	2.5	blank	1.0	188.15988206863403	
37	172.45053267478943	fix_post	2		12	35.0	2.5	blank	1.0	188.6764054298401	0.10009503364562988
38	172.55062770843506	fix_pre	0		119	36.0	2.5	/experiments/knapen_AOT/AOT_stimuli/rescaled_final/1199_fw.mp4	0.0	188.77650046348572	1.0000889301300049
38	173.5264310836792	pulse	0	t		36.0	2.5	/experiments/knapen_AOT/AOT_stimuli/rescaled_final/1199_fw.mp4	0.0	189.75230383872986	
38	173.55071663856506	movie	1		279	36.0	2.5	/experiments/knapen_AOT/AOT_stimuli/rescaled_final/1199_fw.mp4	0.0	189.77658939361572	2.500370502471924
38	175.12656831741333	pulse	1	t		36.0	2.5	/experiments/knapen_AOT/AOT_stimuli/rescaled_final/1199_fw.mp4	0.0	191.352441072464	
38	176.051087141037	fix_post	2		12	36.0	2.5	/experiments/knapen_AOT/AOT_stimuli/rescaled_final/1199_fw.mp4	0.0	192.27695989608765	0.1000220775604248
39	176.1511092185974	fix_pre	0		120	37.0	2.5	/experiments/knapen_AOT/AOT_stimuli/rescaled_final/0682_rv.mp4	0.0	192.37698197364807	1.0085015296936035
39	176.72685194015503	pulse	0	t		37.0	2.5	/experiments/knapen_AOT/AOT_stimuli/rescaled_final/0682_rv.mp4	0.0	192.9527246952057	
39	177.15961074829102	movie	1		281	37.0	2.5	/experiments/knapen_AOT/AOT_stimuli/rescaled_final/0682_rv.mp4	0.0	193.38548350334167	2.4920554161071777
39	178.3267068862915	pulse	1	t		37.0	2.5	/experiments/knapen_AOT/AOT_stimuli/rescaled_final/0682_rv.mp4	0.0	194.55257964134216	
39	179.6516661643982	fix_post	2		12	37.0	2.5	/experiments/knapen_AOT/AOT_stimuli/rescaled_final/0682_rv.mp4	0.0	195.87753891944885	0.09993767738342285
40	179.75160384178162	fix_pre	0		120	38.0	2.5	/experiments/knapen_AOT/AOT_stimuli/rescaled_final/0967_rv.mp4	0.0	195.97747659683228	1.0085575580596924
40	179.92702269554138	pulse	0	t		38.0	2.5	/experiments/knapen_AOT/AOT_stimuli/rescaled_final/0967_rv.mp4	0.0	196.15289545059204	
40	180.7601613998413	movie	1		273	38.0	2.5	/experiments/knapen_AOT/AOT_stimuli/rescaled_final/0967_rv.mp4	0.0	196.98603415489197	2.492001533508301
40	181.52733969688416	pulse	1	t		38.0	2.5	/experiments/knapen_AOT/AOT_stimuli/rescaled_final/0967_rv.mp4	0.0	197.75321245193481	
40	183.12738037109375	pulse	1	t		38.0	2.5	/experiments/knapen_AOT/AOT_stimuli/rescaled_final/0967_rv.mp4	0.0	199.3532531261444	
40	183.2521629333496	fix_post	2		12	38.0	2.5	/experiments/knapen_AOT/AOT_stimuli/rescaled_final/0967_rv.mp4	0.0	199.47803568840027	0.10003447532653809
41	183.35219740867615	fix_pre	0		120	39.0	2.5	/experiments/knapen_AOT/AOT_stimuli/rescaled_final/1901_fw.mp4	0.0	199.5780701637268	1.0085396766662598
41	184.3607370853424	movie	1		271	39.0	2.5	/experiments/knapen_AOT/AOT_stimuli/rescaled_final/1901_fw.mp4	0.0	200.58660984039307	2.4919605255126953
41	184.72681546211243	pulse	1	t		39.0	2.5	/experiments/knapen_AOT/AOT_stimuli/rescaled_final/1901_fw.mp4	0.0	200.9526882171631	
41	186.32782435417175	pulse	1	t		39.0	2.5	/experiments/knapen_AOT/AOT_stimuli/rescaled_final/1901_fw.mp4	0.0	202.5536971092224	
41	186.8526976108551	fix_post	2		12	39.0	2.5	/experiments/knapen_AOT/AOT_stimuli/rescaled_final/1901_fw.mp4	0.0	203.07857036590576	0.10001778602600098
42	186.9527153968811	fix_pre	0		118	40.0	2.5	/experiments/knapen_AOT/AOT_stimuli/rescaled_final/1076_rv.mp4	0.0	203.17858815193176	0.9918365478515625
42	187.92805743217468	pulse	0	t		40.0	2.5	/experiments/knapen_AOT/AOT_stimuli/rescaled_final/1076_rv.mp4	0.0	204.15393018722534	
42	187.94455194473267	movie	1		283	40.0	2.5	/experiments/knapen_AOT/AOT_stimuli/rescaled_final/1076_rv.mp4	0.0	204.17042469978333	2.500354051589966
42	189.52647829055786	pulse	1	t		40.0	2.5	/experiments/knapen_AOT/AOT_stimuli/rescaled_final/1076_rv.mp4	0.0	205.75235104560852	
42	190.44490599632263	fix_post	2		12	40.0	2.5	/experiments/knapen_AOT/AOT_stimuli/rescaled_final/1076_rv.mp4	0.0	206.6707787513733	0.10001635551452637
43	190.54492235183716	fix_pre	0		120	41.0	2.5	blank	1.0	206.77079510688782	1.0001723766326904
43	191.1285536289215	pulse	0	t		41.0	2.5	blank	1.0	207.35442638397217	
43	191.54509472846985	movie	1		300	41.0	2.5	blank	1.0	207.7709674835205	2.5003631114959717
43	192.7288372516632	pulse	1	t		41.0	2.5	blank	1.0	208.95471000671387	
43	194.04545783996582	fix_post	2		12	41.0	2.5	blank	1.0	210.27133059501648	0.10000896453857422
44	194.1454668045044	fix_pre	0		120	42.0	2.5	/experiments/knapen_AOT/AOT_stimuli/rescaled_final/0179_fw.mp4	0.0	210.37133955955505	1.0085124969482422
44	194.3290433883667	pulse	0	t		42.0	2.5	/experiments/knapen_AOT/AOT_stimuli/rescaled_final/0179_fw.mp4	0.0	210.55491614341736	
44	195.15397930145264	movie	1		274	42.0	2.5	/experiments/knapen_AOT/AOT_stimuli/rescaled_final/0179_fw.mp4	0.0	211.3798520565033	2.4920053482055664
44	195.92758774757385	pulse	1	t		42.0	2.5	/experiments/knapen_AOT/AOT_stimuli/rescaled_final/0179_fw.mp4	0.0	212.1534605026245	
44	197.52767181396484	pulse	1	t		42.0	2.5	/experiments/knapen_AOT/AOT_stimuli/rescaled_final/0179_fw.mp4	0.0	213.7535445690155	
44	197.6459846496582	fix_post	2		12	42.0	2.5	/experiments/knapen_AOT/AOT_stimuli/rescaled_final/0179_fw.mp4	0.0	213.87185740470886	0.10004758834838867
45	197.7460322380066	fix_pre	0		120	43.0	2.5	/experiments/knapen_AOT/AOT_stimuli/rescaled_final/1323_rv.mp4	0.0	213.97190499305725	1.008498191833496
45	198.7545304298401	movie	1		274	43.0	2.5	/experiments/knapen_AOT/AOT_stimuli/rescaled_final/1323_rv.mp4	0.0	214.98040318489075	2.49204683303833
45	199.13001370429993	pulse	1	t		43.0	2.5	/experiments/knapen_AOT/AOT_stimuli/rescaled_final/1323_rv.mp4	0.0	215.3558864593506	
45	200.72833681106567	pulse	1	t		43.0	2.5	/experiments/knapen_AOT/AOT_stimuli/rescaled_final/1323_rv.mp4	0.0	216.95420956611633	
45	201.24657726287842	fix_post	2		12	43.0	2.5	/experiments/knapen_AOT/AOT_stimuli/rescaled_final/1323_rv.mp4	0.0	217.47245001792908	0.09997010231018066
46	201.3465473651886	fix_pre	0		119	44.0	2.5	/experiments/knapen_AOT/AOT_stimuli/rescaled_final/0675_fw.mp4	0.0	217.57242012023926	1.0001552104949951
46	202.33028435707092	pulse	0	t		44.0	2.5	/experiments/knapen_AOT/AOT_stimuli/rescaled_final/0675_fw.mp4	0.0	218.55615711212158	
46	202.3467025756836	movie	1		285	44.0	2.5	/experiments/knapen_AOT/AOT_stimuli/rescaled_final/0675_fw.mp4	0.0	218.57257533073425	2.50036883354187
46	203.92865371704102	pulse	1	t		44.0	2.5	/experiments/knapen_AOT/AOT_stimuli/rescaled_final/0675_fw.mp4	0.0	220.15452647209167	
46	204.84707140922546	fix_post	2		12	44.0	2.5	/experiments/knapen_AOT/AOT_stimuli/rescaled_final/0675_fw.mp4	0.0	221.07294416427612	0.1000223159790039
47	204.94709372520447	fix_pre	0		120	45.0	2.5	/experiments/knapen_AOT/AOT_stimuli/rescaled_final/0875_rv.mp4	0.0	221.17296648025513	1.0085399150848389
47	205.5307972431183	pulse	0	t		45.0	2.5	/experiments/knapen_AOT/AOT_stimuli/rescaled_final/0875_rv.mp4	0.0	221.75666999816895	
47	205.9556336402893	movie	1		285	45.0	2.5	/experiments/knapen_AOT/AOT_stimuli/rescaled_final/0875_rv.mp4	0.0	222.18150639533997	2.4919748306274414
47	207.1290943622589	pulse	1	t		45.0	2.5	/experiments/knapen_AOT/AOT_stimuli/rescaled_final/0875_rv.mp4	0.0	223.35496711730957	
47	208.44760847091675	fix_post	2		12	45.0	2.5	/experiments/knapen_AOT/AOT_stimuli/rescaled_final/0875_rv.mp4	0.0	224.6734812259674	0.10002803802490234
48	208.54763650894165	fix_pre	0		120	46.0	2.5	/experiments/knapen_AOT/AOT_stimuli/rescaled_final/1339_fw.mp4	0.0	224.7735092639923	1.0084826946258545
48	208.73117589950562	pulse	0	t		46.0	2.5	/experiments/knapen_AOT/AOT_stimuli/rescaled_final/1339_fw.mp4	0.0	224.95704865455627	
48	209.5561192035675	movie	1		282	46.0	2.5	/experiments/knapen_AOT/AOT_stimuli/rescaled_final/1339_fw.mp4	0.0	225.78199195861816	2.4921212196350098
48	210.32913851737976	pulse	1	t		46.0	2.5	/experiments/knapen_AOT/AOT_stimuli/rescaled_final/1339_fw.mp4	0.0	226.55501127243042	
48	211.9302053451538	pulse	1	t		46.0	2.5	/experiments/knapen_AOT/AOT_stimuli/rescaled_final/1339_fw.mp4	0.0	228.15607810020447	
48	212.04824042320251	fix_post	2		12	46.0	2.5	/experiments/knapen_AOT/AOT_stimuli/rescaled_final/1339_fw.mp4	0.0	228.27411317825317	0.10000443458557129
49	212.1482448577881	fix_pre	0		120	47.0	2.5	blank	1.0	228.37411761283875	1.0000720024108887
49	213.14831686019897	movie	1		300	47.0	2.5	blank	1.0	229.37418961524963	2.5004727840423584
49	213.53214168548584	pulse	1	t		47.0	2.5	blank	1.0	229.7580144405365	
49	215.13216614723206	pulse	1	t		47.0	2.5	blank	1.0	231.35803890228271	
49	215.64878964424133	fix_post	2		12	47.0	2.5	blank	1.0	231.874662399292	0.0998997688293457
50	215.74868941307068	fix_pre	0		119	48.0	2.5	/experiments/knapen_AOT/AOT_stimuli/rescaled_final/1085_fw.mp4	0.0	231.97456216812134	1.0001931190490723
50	216.7323923110962	pulse	0	t		48.0	2.5	/experiments/knapen_AOT/AOT_stimuli/rescaled_final/1085_fw.mp4	0.0	232.95826506614685	
50	216.74888253211975	movie	1		279	48.0	2.5	/experiments/knapen_AOT/AOT_stimuli/rescaled_final/1085_fw.mp4	0.0	232.9747552871704	2.5005042552948
50	218.33116960525513	pulse	1	t		48.0	2.5	/experiments/knapen_AOT/AOT_stimuli/rescaled_final/1085_fw.mp4	0.0	234.5570423603058	
50	219.24938678741455	fix_post	2		12	48.0	2.5	/experiments/knapen_AOT/AOT_stimuli/rescaled_final/1085_fw.mp4	0.0	235.4752595424652	0.09992623329162598
51	219.34931302070618	fix_pre	0		120	49.0	2.5	/experiments/knapen_AOT/AOT_stimuli/rescaled_final/0182_fw.mp4	0.0	235.57518577575684	1.008441686630249
51	219.93289041519165	pulse	0	t		49.0	2.5	/experiments/knapen_AOT/AOT_stimuli/rescaled_final/0182_fw.mp4	0.0	236.1587631702423	
51	220.35775470733643	movie	1		265	49.0	2.5	/experiments/knapen_AOT/AOT_stimuli/rescaled_final/0182_fw.mp4	0.0	236.58362746238708	2.4920296669006348
51	221.53114914894104	pulse	1	t		49.0	2.5	/experiments/knapen_AOT/AOT_stimuli/rescaled_final/0182_fw.mp4	0.0	237.7570219039917	
51	222.84978437423706	fix_post	2		12	49.0	2.5	/experiments/knapen_AOT/AOT_stimuli/rescaled_final/0182_fw.mp4	0.0	239.07565712928772	0.10005021095275879
52	222.94983458518982	fix_pre	0		120	50.0	2.5	/experiments/knapen_AOT/AOT_stimuli/rescaled_final/0526_rv.mp4	0.0	239.17570734024048	1.0084798336029053
52	223.13353562355042	pulse	0	t		50.0	2.5	/experiments/knapen_AOT/AOT_stimuli/rescaled_final/0526_rv.mp4	0.0	239.35940837860107	
52	223.95831441879272	movie	1		285	50.0	2.5	/experiments/knapen_AOT/AOT_stimuli/rescaled_final/0526_rv.mp4	0.0	240.18418717384338	2.492018222808838
52	224.73142004013062	pulse	1	t		50.0	2.5	/experiments/knapen_AOT/AOT_stimuli/rescaled_final/0526_rv.mp4	0.0	240.95729279518127	
52	226.33200764656067	pulse	1	t		50.0	2.5	/experiments/knapen_AOT/AOT_stimuli/rescaled_final/0526_rv.mp4	0.0	242.55788040161133	
52	226.45033264160156	fix_post	2		12	50.0	2.5	/experiments/knapen_AOT/AOT_stimuli/rescaled_final/0526_rv.mp4	0.0	242.67620539665222	0.10001444816589355
53	226.55034708976746	fix_pre	0		120	51.0	2.5	/experiments/knapen_AOT/AOT_stimuli/rescaled_final/0258_rv.mp4	0.0	242.77621984481812	1.0084865093231201
53	227.55883359909058	movie	1		269	51.0	2.5	/experiments/knapen_AOT/AOT_stimuli/rescaled_final/0258_rv.mp4	0.0	243.78470635414124	2.49210786819458
53	227.93269300460815	pulse	1	t		51.0	2.5	/experiments/knapen_AOT/AOT_stimuli/rescaled_final/0258_rv.mp4	0.0	244.1585657596588	
53	229.5319480895996	pulse	1	t		51.0	2.5	/experiments/knapen_AOT/AOT_stimuli/rescaled_final/0258_rv.mp4	0.0	245.75782084465027	
53	230.05094146728516	fix_post	2		12	51.0	2.5	/experiments/knapen_AOT/AOT_stimuli/rescaled_final/0258_rv.mp4	0.0	246.27681422233582	0.09992218017578125
54	230.15086364746094	fix_pre	0		119	52.0	2.5	/experiments/knapen_AOT/AOT_stimuli/rescaled_final/0556_fw.mp4	0.0	246.3767364025116	1.0001749992370605
54	231.1272599697113	pulse	0	t		52.0	2.5	/experiments/knapen_AOT/AOT_stimuli/rescaled_final/0556_fw.mp4	0.0	247.35313272476196	
54	231.151038646698	movie	1		283	52.0	2.5	/experiments/knapen_AOT/AOT_stimuli/rescaled_final/0556_fw.mp4	0.0	247.37691140174866	2.500431537628174
54	232.734632730484	pulse	1	t		52.0	2.5	/experiments/knapen_AOT/AOT_stimuli/rescaled_final/0556_fw.mp4	0.0	248.96050548553467	
54	233.65147018432617	fix_post	2		12	52.0	2.5	/experiments/knapen_AOT/AOT_stimuli/rescaled_final/0556_fw.mp4	0.0	249.87734293937683	0.09998226165771484
55	233.7514524459839	fix_pre	0		120	53.0	2.5	/experiments/knapen_AOT/AOT_stimuli/rescaled_final/1432_rv.mp4	0.0	249.97732520103455	1.0084760189056396
55	234.32697796821594	pulse	0	t		53.0	2.5	/experiments/knapen_AOT/AOT_stimuli/rescaled_final/1432_rv.mp4	0.0	250.5528507232666	
55	234.75992846488953	movie	1		292	53.0	2.5	/experiments/knapen_AOT/AOT_stimuli/rescaled_final/1432_rv.mp4	0.0	250.98580121994019	2.492004871368408
55	235.92696976661682	pulse	1	t		53.0	2.5	/experiments/knapen_AOT/AOT_stimuli/rescaled_final/1432_rv.mp4	0.0	252.15284252166748	
55	237.25193333625793	fix_post	2		12	53.0	2.5	/experiments/knapen_AOT/AOT_stimuli/rescaled_final/1432_rv.mp4	0.0	253.4778060913086	0.10013699531555176
56	237.3520703315735	fix_pre	0		120	54.0	2.5	/experiments/knapen_AOT/AOT_stimuli/rescaled_final/0675_rv.mp4	0.0	253.57794308662415	1.0083954334259033
56	237.52731466293335	pulse	0	t		54.0	2.5	/experiments/knapen_AOT/AOT_stimuli/rescaled_final/0675_rv.mp4	0.0	253.753187417984	
56	238.3604657649994	movie	1		283	54.0	2.5	/experiments/knapen_AOT/AOT_stimuli/rescaled_final/0675_rv.mp4	0.0	254.58633852005005	2.4920105934143066
56	239.12741589546204	pulse	1	t		54.0	2.5	/experiments/knapen_AOT/AOT_stimuli/rescaled_final/0675_rv.mp4	0.0	255.3532886505127	
56	240.7276976108551	pulse	1	t		54.0	2.5	/experiments/knapen_AOT/AOT_stimuli/rescaled_final/0675_rv.mp4	0.0	256.95357036590576	
56	240.8524763584137	fix_post	2		12	54.0	2.5	/experiments/knapen_AOT/AOT_stimuli/rescaled_final/0675_rv.mp4	0.0	257.07834911346436	0.10001730918884277
57	240.95249366760254	fix_pre	0		120	55.0	2.5	/experiments/knapen_AOT/AOT_stimuli/rescaled_final/1808_fw.mp4	0.0	257.1783664226532	1.0085062980651855
57	241.96099996566772	movie	1		283	55.0	2.5	/experiments/knapen_AOT/AOT_stimuli/rescaled_final/1808_fw.mp4	0.0	258.1868727207184	2.492018461227417
57	242.32833576202393	pulse	1	t		55.0	2.5	/experiments/knapen_AOT/AOT_stimuli/rescaled_final/1808_fw.mp4	0.0	258.5542085170746	
57	243.9284794330597	pulse	1	t		55.0	2.5	/experiments/knapen_AOT/AOT_stimuli/rescaled_final/1808_fw.mp4	0.0	260.15435218811035	
57	244.45301842689514	fix_post	2		12	55.0	2.5	/experiments/knapen_AOT/AOT_stimuli/rescaled_final/1808_fw.mp4	0.0	260.6788911819458	0.09999418258666992
58	244.5530126094818	fix_pre	0		118	56.0	2.5	blank	1.0	260.77888536453247	0.983482837677002
58	245.52841806411743	pulse	0	t		56.0	2.5	blank	1.0	261.7542908191681	
58	245.5364954471588	movie	1		301	56.0	2.5	blank	1.0	261.7623682022095	2.508737325668335
58	247.12862181663513	pulse	1	t		56.0	2.5	blank	1.0	263.3544945716858	
58	248.04523277282715	fix_post	2		12	56.0	2.5	blank	1.0	264.2711055278778	0.10004878044128418
59	248.14528155326843	fix_pre	0		120	57.0	2.5	/experiments/knapen_AOT/AOT_stimuli/rescaled_final/0032_fw.mp4	0.0	264.3711543083191	1.0085318088531494
59	248.72879815101624	pulse	0	t		57.0	2.5	/experiments/knapen_AOT/AOT_stimuli/rescaled_final/0032_fw.mp4	0.0	264.9546709060669	
59	249.15381336212158	movie	1		282	57.0	2.5	/experiments/knapen_AOT/AOT_stimuli/rescaled_final/0032_fw.mp4	0.0	265.37968611717224	2.491950511932373
59	250.32872796058655	pulse	1	t		57.0	2.5	/experiments/knapen_AOT/AOT_stimuli/rescaled_final/0032_fw.mp4	0.0	266.5546007156372	
59	251.64576387405396	fix_post	2		12	57.0	2.5	/experiments/knapen_AOT/AOT_stimuli/rescaled_final/0032_fw.mp4	0.0	267.8716366291046	0.10006213188171387
60	251.74582600593567	fix_pre	0		120	58.0	2.5	/experiments/knapen_AOT/AOT_stimuli/rescaled_final/0138_fw.mp4	0.0	267.9716987609863	1.0084731578826904
60	251.9293508529663	pulse	0	t		58.0	2.5	/experiments/knapen_AOT/AOT_stimuli/rescaled_final/0138_fw.mp4	0.0	268.15522360801697	
60	252.75429916381836	movie	1		270	58.0	2.5	/experiments/knapen_AOT/AOT_stimuli/rescaled_final/0138_fw.mp4	0.0	268.980171918869	2.4920289516448975
60	253.52759194374084	pulse	1	t		58.0	2.5	/experiments/knapen_AOT/AOT_stimuli/rescaled_final/0138_fw.mp4	0.0	269.7534646987915	
60	255.1284990310669	pulse	1	t		58.0	2.5	/experiments/knapen_AOT/AOT_stimuli/rescaled_final/0138_fw.mp4	0.0	271.35437178611755	
60	255.24632811546326	fix_post	2		12	58.0	2.5	/experiments/knapen_AOT/AOT_stimuli/rescaled_final/0138_fw.mp4	0.0	271.4722008705139	0.10000109672546387
61	255.34632921218872	fix_pre	0		120	59.0	2.5	/experiments/knapen_AOT/AOT_stimuli/rescaled_final/0054_fw.mp4	0.0	271.5722019672394	1.0086069107055664
61	256.3549361228943	movie	1		281	59.0	2.5	/experiments/knapen_AOT/AOT_stimuli/rescaled_final/0054_fw.mp4	0.0	272.58080887794495	2.4919214248657227
61	256.728542804718	pulse	1	t		59.0	2.5	/experiments/knapen_AOT/AOT_stimuli/rescaled_final/0054_fw.mp4	0.0	272.9544155597687	
61	258.3285074234009	pulse	1	t		59.0	2.5	/experiments/knapen_AOT/AOT_stimuli/rescaled_final/0054_fw.mp4	0.0	274.55438017845154	
61	258.84685754776	fix_post	2		12	59.0	2.5	/experiments/knapen_AOT/AOT_stimuli/rescaled_final/0054_fw.mp4	0.0	275.07273030281067	0.10002470016479492
62	258.9468822479248	fix_pre	0		119	60.0	2.5	/experiments/knapen_AOT/AOT_stimuli/rescaled_final/0921_fw.mp4	0.0	275.17275500297546	1.000138521194458
62	259.9305348396301	pulse	0	t		60.0	2.5	/experiments/knapen_AOT/AOT_stimuli/rescaled_final/0921_fw.mp4	0.0	276.1564075946808	
62	259.94702076911926	movie	1		278	60.0	2.5	/experiments/knapen_AOT/AOT_stimuli/rescaled_final/0921_fw.mp4	0.0	276.1728935241699	2.5003600120544434
62	261.5291440486908	pulse	1	t		60.0	2.5	/experiments/knapen_AOT/AOT_stimuli/rescaled_final/0921_fw.mp4	0.0	277.75501680374146	
62	262.4473807811737	fix_post	2		12	60.0	2.5	/experiments/knapen_AOT/AOT_stimuli/rescaled_final/0921_fw.mp4	0.0	278.67325353622437	0.1000363826751709
63	262.5474171638489	fix_pre	0		120	61.0	2.5	blank	1.0	278.77328991889954	1.0001440048217773
63	263.1310305595398	pulse	0	t		61.0	2.5	blank	1.0	279.35690331459045	
63	263.54756116867065	movie	1		300	61.0	2.5	blank	1.0	279.7734339237213	2.5003740787506104
63	264.7313573360443	pulse	1	t		61.0	2.5	blank	1.0	280.95723009109497	
63	266.04793524742126	fix_post	2		12	61.0	2.5	blank	1.0	282.2738080024719	0.10007357597351074
64	266.1480088233948	fix_pre	0		120	62.0	2.5	/experiments/knapen_AOT/AOT_stimuli/rescaled_final/1508_rv.mp4	0.0	282.37388157844543	1.0084264278411865
64	266.33164715766907	pulse	0	t		62.0	2.5	/experiments/knapen_AOT/AOT_stimuli/rescaled_final/1508_rv.mp4	0.0	282.5575199127197	
64	267.15643525123596	movie	1		275	62.0	2.5	/experiments/knapen_AOT/AOT_stimuli/rescaled_final/1508_rv.mp4	0.0	283.3823080062866	2.4921579360961914
64	267.9301428794861	pulse	1	t		62.0	2.5	/experiments/knapen_AOT/AOT_stimuli/rescaled_final/1508_rv.mp4	0.0	284.15601563453674	
64	269.53013467788696	pulse	1	t		62.0	2.5	/experiments/knapen_AOT/AOT_stimuli/rescaled_final/1508_rv.mp4	0.0	285.7560074329376	
64	269.64859318733215	fix_post	2		12	62.0	2.5	/experiments/knapen_AOT/AOT_stimuli/rescaled_final/1508_rv.mp4	0.0	285.8744659423828	0.09991979598999023
65	269.74851298332214	fix_pre	0		120	63.0	2.5	/experiments/knapen_AOT/AOT_stimuli/rescaled_final/1894_rv.mp4	0.0	285.9743857383728	1.0085232257843018
65	270.75703620910645	movie	1		275	63.0	2.5	/experiments/knapen_AOT/AOT_stimuli/rescaled_final/1894_rv.mp4	0.0	286.9829089641571	2.491978168487549
65	271.1316165924072	pulse	1	t		63.0	2.5	/experiments/knapen_AOT/AOT_stimuli/rescaled_final/1894_rv.mp4	0.0	287.3574893474579	
65	272.7306914329529	pulse	1	t		63.0	2.5	/experiments/knapen_AOT/AOT_stimuli/rescaled_final/1894_rv.mp4	0.0	288.95656418800354	
65	273.249014377594	fix_post	2		12	63.0	2.5	/experiments/knapen_AOT/AOT_stimuli/rescaled_final/1894_rv.mp4	0.0	289.47488713264465	0.10002326965332031
66	273.3490376472473	fix_pre	0		119	64.0	2.5	/experiments/knapen_AOT/AOT_stimuli/rescaled_final/2164_rv.mp4	0.0	289.574910402298	1.0001561641693115
66	274.3327031135559	pulse	0	t		64.0	2.5	/experiments/knapen_AOT/AOT_stimuli/rescaled_final/2164_rv.mp4	0.0	290.55857586860657	
66	274.3491938114166	movie	1		283	64.0	2.5	/experiments/knapen_AOT/AOT_stimuli/rescaled_final/2164_rv.mp4	0.0	290.5750665664673	2.500361442565918
66	275.93205070495605	pulse	1	t		64.0	2.5	/experiments/knapen_AOT/AOT_stimuli/rescaled_final/2164_rv.mp4	0.0	292.1579234600067	
66	276.84955525398254	fix_post	2		12	64.0	2.5	/experiments/knapen_AOT/AOT_stimuli/rescaled_final/2164_rv.mp4	0.0	293.0754280090332	0.10010957717895508
67	276.9496648311615	fix_pre	0		120	65.0	2.5	/experiments/knapen_AOT/AOT_stimuli/rescaled_final/2023_fw.mp4	0.0	293.17553758621216	1.0084199905395508
67	277.53326749801636	pulse	0	t		65.0	2.5	/experiments/knapen_AOT/AOT_stimuli/rescaled_final/2023_fw.mp4	0.0	293.759140253067	
67	277.95808482170105	movie	1		285	65.0	2.5	/experiments/knapen_AOT/AOT_stimuli/rescaled_final/2023_fw.mp4	0.0	294.1839575767517	2.4920055866241455
67	279.1314194202423	pulse	1	t		65.0	2.5	/experiments/knapen_AOT/AOT_stimuli/rescaled_final/2023_fw.mp4	0.0	295.35729217529297	
67	280.4500904083252	fix_post	2		12	65.0	2.5	/experiments/knapen_AOT/AOT_stimuli/rescaled_final/2023_fw.mp4	0.0	296.67596316337585	0.10003924369812012
68	280.5501296520233	fix_pre	0		120	66.0	2.5	/experiments/knapen_AOT/AOT_stimuli/rescaled_final/0679_rv.mp4	0.0	296.776002407074	1.008481740951538
68	280.7337267398834	pulse	0	t		66.0	2.5	/experiments/knapen_AOT/AOT_stimuli/rescaled_final/0679_rv.mp4	0.0	296.9595994949341	
68	281.55861139297485	movie	1		274	66.0	2.5	/experiments/knapen_AOT/AOT_stimuli/rescaled_final/0679_rv.mp4	0.0	297.7844841480255	2.492021322250366
68	282.33258843421936	pulse	1	t		66.0	2.5	/experiments/knapen_AOT/AOT_stimuli/rescaled_final/0679_rv.mp4	0.0	298.55846118927	
68	283.9318890571594	pulse	1	t		66.0	2.5	/experiments/knapen_AOT/AOT_stimuli/rescaled_final/0679_rv.mp4	0.0	300.1577618122101	
68	284.0506327152252	fix_post	2		12	66.0	2.5	/experiments/knapen_AOT/AOT_stimuli/rescaled_final/0679_rv.mp4	0.0	300.2765054702759	0.10004806518554688
69	284.15068078041077	fix_pre	0		120	67.0	2.5	/experiments/knapen_AOT/AOT_stimuli/rescaled_final/1654_fw.mp4	0.0	300.3765535354614	1.0084640979766846
69	285.15914487838745	movie	1		287	67.0	2.5	/experiments/knapen_AOT/AOT_stimuli/rescaled_final/1654_fw.mp4	0.0	301.3850176334381	2.492051124572754
69	285.53316020965576	pulse	1	t		67.0	2.5	/experiments/knapen_AOT/AOT_stimuli/rescaled_final/1654_fw.mp4	0.0	301.7590329647064	
69	287.1330018043518	pulse	1	t		67.0	2.5	/experiments/knapen_AOT/AOT_stimuli/rescaled_final/1654_fw.mp4	0.0	303.35887455940247	
69	287.6511960029602	fix_post	2		12	67.0	2.5	/experiments/knapen_AOT/AOT_stimuli/rescaled_final/1654_fw.mp4	0.0	303.87706875801086	0.10003376007080078
70	287.751229763031	fix_pre	0		119	68.0	2.5	blank	1.0	303.97710251808167	0.9917933940887451
70	288.73493576049805	pulse	0	t		68.0	2.5	blank	1.0	304.9608085155487	
70	288.74302315711975	movie	1		301	68.0	2.5	blank	1.0	304.9688959121704	2.508687734603882
70	290.3285279273987	pulse	1	t		68.0	2.5	blank	1.0	306.55440068244934	
70	291.25171089172363	fix_post	2		12	68.0	2.5	blank	1.0	307.4775836467743	0.1000223159790039
71	291.35173320770264	fix_pre	0		120	69.0	2.5	/experiments/knapen_AOT/AOT_stimuli/rescaled_final/0689_rv.mp4	0.0	307.5776059627533	1.008497714996338
71	291.92743968963623	pulse	0	t		69.0	2.5	/experiments/knapen_AOT/AOT_stimuli/rescaled_final/0689_rv.mp4	0.0	308.1533124446869	
71	292.360230922699	movie	1		289	69.0	2.5	/experiments/knapen_AOT/AOT_stimuli/rescaled_final/0689_rv.mp4	0.0	308.58610367774963	2.4920296669006348
71	293.52749276161194	pulse	1	t		69.0	2.5	/experiments/knapen_AOT/AOT_stimuli/rescaled_final/0689_rv.mp4	0.0	309.7533655166626	
71	294.8522605895996	fix_post	2		12	69.0	2.5	/experiments/knapen_AOT/AOT_stimuli/rescaled_final/0689_rv.mp4	0.0	311.07813334465027	0.10012078285217285
72	294.9523813724518	fix_pre	0		120	70.0	2.5	/experiments/knapen_AOT/AOT_stimuli/rescaled_final/0218_fw.mp4	0.0	311.17825412750244	1.0084118843078613
72	295.1275839805603	pulse	0	t		70.0	2.5	/experiments/knapen_AOT/AOT_stimuli/rescaled_final/0218_fw.mp4	0.0	311.35345673561096	
72	295.96079325675964	movie	1		281	70.0	2.5	/experiments/knapen_AOT/AOT_stimuli/rescaled_final/0218_fw.mp4	0.0	312.1866660118103	2.4919991493225098
72	296.7279095649719	pulse	1	t		70.0	2.5	/experiments/knapen_AOT/AOT_stimuli/rescaled_final/0218_fw.mp4	0.0	312.9537823200226	
72	298.3279883861542	pulse	1	t		70.0	2.5	/experiments/knapen_AOT/AOT_stimuli/rescaled_final/0218_fw.mp4	0.0	314.55386114120483	
72	298.45279240608215	fix_post	2		12	70.0	2.5	/experiments/knapen_AOT/AOT_stimuli/rescaled_final/0218_fw.mp4	0.0	314.6786651611328	0.10002470016479492
73	298.55281710624695	fix_pre	0		120	71.0	2.5	/experiments/knapen_AOT/AOT_stimuli/rescaled_final/1667_rv.mp4	0.0	314.7786898612976	1.0085105895996094
73	299.56132769584656	movie	1		287	71.0	2.5	/experiments/knapen_AOT/AOT_stimuli/rescaled_final/1667_rv.mp4	0.0	315.7872004508972	2.4920780658721924
73	299.92758345603943	pulse	1	t		71.0	2.5	/experiments/knapen_AOT/AOT_stimuli/rescaled_final/1667_rv.mp4	0.0	316.1534562110901	
73	301.52846336364746	pulse	1	t		71.0	2.5	/experiments/knapen_AOT/AOT_stimuli/rescaled_final/1667_rv.mp4	0.0	317.7543361186981	
73	302.05340576171875	fix_post	2		12	71.0	2.5	/experiments/knapen_AOT/AOT_stimuli/rescaled_final/1667_rv.mp4	0.0	318.2792785167694	0.09997415542602539
74	302.1533799171448	fix_pre	0		118	72.0	2.5	/experiments/knapen_AOT/AOT_stimuli/rescaled_final/0542_rv.mp4	0.0	318.37925267219543	0.9917895793914795
74	303.1287386417389	pulse	0	t		72.0	2.5	/experiments/knapen_AOT/AOT_stimuli/rescaled_final/0542_rv.mp4	0.0	319.35461139678955	
74	303.14516949653625	movie	1		270	72.0	2.5	/experiments/knapen_AOT/AOT_stimuli/rescaled_final/0542_rv.mp4	0.0	319.3710422515869	2.5003926753997803
74	304.7277419567108	pulse	1	t		72.0	2.5	/experiments/knapen_AOT/AOT_stimuli/rescaled_final/0542_rv.mp4	0.0	320.9536147117615	
74	305.64556217193604	fix_post	2		12	72.0	2.5	/experiments/knapen_AOT/AOT_stimuli/rescaled_final/0542_rv.mp4	0.0	321.8714349269867	0.10001254081726074
75	305.7455747127533	fix_pre	0		120	73.0	2.5	/experiments/knapen_AOT/AOT_stimuli/rescaled_final/1428_rv.mp4	0.0	321.97144746780396	1.008491039276123
75	306.3292336463928	pulse	0	t		73.0	2.5	/experiments/knapen_AOT/AOT_stimuli/rescaled_final/1428_rv.mp4	0.0	322.5551064014435	
75	306.7540657520294	movie	1		292	73.0	2.5	/experiments/knapen_AOT/AOT_stimuli/rescaled_final/1428_rv.mp4	0.0	322.9799385070801	2.4919798374176025
75	307.9294157028198	pulse	1	t		73.0	2.5	/experiments/knapen_AOT/AOT_stimuli/rescaled_final/1428_rv.mp4	0.0	324.1552884578705	
75	309.246045589447	fix_post	2		12	73.0	2.5	/experiments/knapen_AOT/AOT_stimuli/rescaled_final/1428_rv.mp4	0.0	325.4719183444977	0.10007357597351074
76	309.34611916542053	fix_pre	0		120	74.0	2.5	/experiments/knapen_AOT/AOT_stimuli/rescaled_final/0064_fw.mp4	0.0	325.5719919204712	1.0084714889526367
76	309.5297546386719	pulse	0	t		74.0	2.5	/experiments/knapen_AOT/AOT_stimuli/rescaled_final/0064_fw.mp4	0.0	325.75562739372253	
76	310.35459065437317	movie	1		289	74.0	2.5	/experiments/knapen_AOT/AOT_stimuli/rescaled_final/0064_fw.mp4	0.0	326.5804634094238	2.4920103549957275
76	311.1274766921997	pulse	1	t		74.0	2.5	/experiments/knapen_AOT/AOT_stimuli/rescaled_final/0064_fw.mp4	0.0	327.35334944725037	
76	312.72861790657043	pulse	1	t		74.0	2.5	/experiments/knapen_AOT/AOT_stimuli/rescaled_final/0064_fw.mp4	0.0	328.9544906616211	
76	312.8466010093689	fix_post	2		12	74.0	2.5	/experiments/knapen_AOT/AOT_stimuli/rescaled_final/0064_fw.mp4	0.0	329.07247376441956	0.10006880760192871
77	312.9466698169708	fix_pre	0		120	75.0	2.5	/experiments/knapen_AOT/AOT_stimuli/rescaled_final/0875_fw.mp4	0.0	329.1725425720215	1.0085899829864502
77	313.9552597999573	movie	1		290	75.0	2.5	/experiments/knapen_AOT/AOT_stimuli/rescaled_final/0875_fw.mp4	0.0	330.18113255500793	2.492013454437256
77	314.3297553062439	pulse	1	t		75.0	2.5	/experiments/knapen_AOT/AOT_stimuli/rescaled_final/0875_fw.mp4	0.0	330.55562806129456	
77	315.9305109977722	pulse	1	t		75.0	2.5	/experiments/knapen_AOT/AOT_stimuli/rescaled_final/0875_fw.mp4	0.0	332.1563837528229	
77	316.44727325439453	fix_post	2		12	75.0	2.5	/experiments/knapen_AOT/AOT_stimuli/rescaled_final/0875_fw.mp4	0.0	332.6731460094452	0.09987902641296387
78	316.5471522808075	fix_pre	0		119	76.0	2.5	blank	1.0	332.77302503585815	0.9917943477630615
78	317.5308322906494	pulse	0	t		76.0	2.5	blank	1.0	333.7567050457001	
78	317.53894662857056	movie	1		301	76.0	2.5	blank	1.0	333.7648193836212	2.508779525756836
78	319.13105487823486	pulse	1	t		76.0	2.5	blank	1.0	335.3569276332855	
78	320.0477261543274	fix_post	2		12	76.0	2.5	blank	1.0	336.27359890937805	0.09999299049377441
79	320.14771914482117	fix_pre	0		120	77.0	2.5	/experiments/knapen_AOT/AOT_stimuli/rescaled_final/0032_rv.mp4	0.0	336.3735918998718	1.0084857940673828
79	320.7313561439514	pulse	0	t		77.0	2.5	/experiments/knapen_AOT/AOT_stimuli/rescaled_final/0032_rv.mp4	0.0	336.9572288990021	
79	321.15620493888855	movie	1		277	77.0	2.5	/experiments/knapen_AOT/AOT_stimuli/rescaled_final/0032_rv.mp4	0.0	337.3820776939392	2.492063522338867
79	322.33212518692017	pulse	1	t		77.0	2.5	/experiments/knapen_AOT/AOT_stimuli/rescaled_final/0032_rv.mp4	0.0	338.5579979419708	
79	323.6482684612274	fix_post	2		12	77.0	2.5	/experiments/knapen_AOT/AOT_stimuli/rescaled_final/0032_rv.mp4	0.0	339.8741412162781	0.10000944137573242
80	323.74827790260315	fix_pre	0		120	78.0	2.5	/experiments/knapen_AOT/AOT_stimuli/rescaled_final/1667_fw.mp4	0.0	339.9741506576538	1.0085103511810303
80	323.9317955970764	pulse	0	t		78.0	2.5	/experiments/knapen_AOT/AOT_stimuli/rescaled_final/1667_fw.mp4	0.0	340.1576683521271	
80	324.7567882537842	movie	1		279	78.0	2.5	/experiments/knapen_AOT/AOT_stimuli/rescaled_final/1667_fw.mp4	0.0	340.98266100883484	2.492136001586914
80	325.52977108955383	pulse	1	t		78.0	2.5	/experiments/knapen_AOT/AOT_stimuli/rescaled_final/1667_fw.mp4	0.0	341.7556438446045	
80	327.1303799152374	pulse	1	t		78.0	2.5	/experiments/knapen_AOT/AOT_stimuli/rescaled_final/1667_fw.mp4	0.0	343.3562526702881	
80	327.2489242553711	fix_post	2		12	78.0	2.5	/experiments/knapen_AOT/AOT_stimuli/rescaled_final/1667_fw.mp4	0.0	343.47479701042175	0.09988903999328613
81	327.3488132953644	fix_pre	0		120	79.0	2.5	/experiments/knapen_AOT/AOT_stimuli/rescaled_final/1149_rv.mp4	0.0	343.57468605041504	1.0085062980651855
81	328.35731959342957	movie	1		267	79.0	2.5	/experiments/knapen_AOT/AOT_stimuli/rescaled_final/1149_rv.mp4	0.0	344.5831923484802	2.492015838623047
81	328.73189425468445	pulse	1	t		79.0	2.5	/experiments/knapen_AOT/AOT_stimuli/rescaled_final/1149_rv.mp4	0.0	344.9577670097351	
81	330.3326258659363	pulse	1	t		79.0	2.5	/experiments/knapen_AOT/AOT_stimuli/rescaled_final/1149_rv.mp4	0.0	346.55849862098694	
81	330.8493354320526	fix_post	2		11	79.0	2.5	/experiments/knapen_AOT/AOT_stimuli/rescaled_final/1149_rv.mp4	0.0	347.07520818710327	0.09166526794433594
82	330.94100069999695	fix_pre	0		120	80.0	2.5	/experiments/knapen_AOT/AOT_stimuli/rescaled_final/0459_fw.mp4	0.0	347.1668734550476	1.008561134338379
82	331.93304800987244	pulse	0	t		80.0	2.5	/experiments/knapen_AOT/AOT_stimuli/rescaled_final/0459_fw.mp4	0.0	348.1589207649231	
82	331.9495618343353	movie	1		282	80.0	2.5	/experiments/knapen_AOT/AOT_stimuli/rescaled_final/0459_fw.mp4	0.0	348.175434589386	2.500316858291626
82	333.53265857696533	pulse	1	t		80.0	2.5	/experiments/knapen_AOT/AOT_stimuli/rescaled_final/0459_fw.mp4	0.0	349.758531332016	
82	334.44987869262695	fix_post	2		12	80.0	2.5	/experiments/knapen_AOT/AOT_stimuli/rescaled_final/0459_fw.mp4	0.0	350.6757514476776	0.10002565383911133
83	334.54990434646606	fix_pre	0		120	81.0	2.5	/experiments/knapen_AOT/AOT_stimuli/rescaled_final/1288_fw.mp4	0.0	350.7757771015167	1.008493423461914
83	335.1335241794586	pulse	0	t		81.0	2.5	/experiments/knapen_AOT/AOT_stimuli/rescaled_final/1288_fw.mp4	0.0	351.3593969345093	
83	335.558397769928	movie	1		289	81.0	2.5	/experiments/knapen_AOT/AOT_stimuli/rescaled_final/1288_fw.mp4	0.0	351.78427052497864	2.49202299118042
83	336.7316925525665	pulse	1	t		81.0	2.5	/experiments/knapen_AOT/AOT_stimuli/rescaled_final/1288_fw.mp4	0.0	352.9575653076172	
83	338.0504207611084	fix_post	2		12	81.0	2.5	/experiments/knapen_AOT/AOT_stimuli/rescaled_final/1288_fw.mp4	0.0	354.27629351615906	0.1000051498413086
84	338.1504259109497	fix_pre	0		120	82.0	2.5	/experiments/knapen_AOT/AOT_stimuli/rescaled_final/1904_fw.mp4	0.0	354.37629866600037	1.0084939002990723
84	338.3341338634491	pulse	0	t		82.0	2.5	/experiments/knapen_AOT/AOT_stimuli/rescaled_final/1904_fw.mp4	0.0	354.56000661849976	
84	339.1589198112488	movie	1		272	82.0	2.5	/experiments/knapen_AOT/AOT_stimuli/rescaled_final/1904_fw.mp4	0.0	355.38479256629944	2.492109537124634
84	339.93260192871094	pulse	1	t		82.0	2.5	/experiments/knapen_AOT/AOT_stimuli/rescaled_final/1904_fw.mp4	0.0	356.1584746837616	
84	341.5323553085327	pulse	1	t		82.0	2.5	/experiments/knapen_AOT/AOT_stimuli/rescaled_final/1904_fw.mp4	0.0	357.7582280635834	
84	341.6510293483734	fix_post	2		12	82.0	2.5	/experiments/knapen_AOT/AOT_stimuli/rescaled_final/1904_fw.mp4	0.0	357.8769021034241	0.09995102882385254
85	341.75098037719727	fix_pre	0		120	83.0	2.5	blank	1.0	357.9768531322479	1.000145435333252
85	342.7511258125305	movie	1		300	83.0	2.5	blank	1.0	358.9769985675812	2.500365734100342
85	343.12680673599243	pulse	1	t		83.0	2.5	blank	1.0	359.3526794910431	
85	344.7268068790436	pulse	1	t		83.0	2.5	blank	1.0	360.95267963409424	
85	345.25149154663086	fix_post	2		12	83.0	2.5	blank	1.0	361.4773643016815	0.12505412101745605
87	345.3765456676483	stim	0		1712					361.602418422699	14.2688148021698
87	346.3268961906433	pulse	0	t						362.55276894569397	
87	347.9271287918091	pulse	0	t						364.15300154685974	
87	349.5273325443268	pulse	0	t						365.75320529937744	
87	351.12766909599304	pulse	0	t						367.3535418510437	
87	352.7279603481293	pulse	0	t						368.95383310317993	
87	354.32807970046997	pulse	0	t						370.55395245552063	
87	355.9283697605133	pulse	0	t						372.15424251556396	
87	357.5285782814026	pulse	0	t						373.75445103645325	
87	359.12885785102844	pulse	0	t						375.3547306060791	
