trial_nr	onset	event_type	phase	response	nr_frames	movie_index	movie_duration	movie_file	blank	onset_abs	duration
0	0.14127564430236816	stim	0		39					16.946102619171143	0.3249473571777344
0	0.4581007957458496	response	0	space						17.262927770614624	
1	0.46622300148010254	stim	0		4443					17.271049976348877	37.040931701660156
1	37.49741315841675	pulse	0	t						54.30224013328552	
1	37.50715470314026	stim	1		1716					54.31198167800903	14.308487176895142
1	39.089221715927124	pulse	1	t						55.8940486907959	
1	40.689889430999756	pulse	1	t						57.49471640586853	
1	42.289392709732056	pulse	1	t						59.09421968460083	
1	43.88981533050537	pulse	1	t						60.694642305374146	
1	45.481966972351074	pulse	1	t						62.28679394721985	
1	47.081955671310425	pulse	1	t						63.8867826461792	
1	48.682048082351685	pulse	1	t						65.48687505722046	
1	50.28234934806824	pulse	1	t						67.08717632293701	
2	51.8156418800354	fix_pre	0		9	0.0	2.5	/experiments/Knapen_AOT/AOT_stimuli/rescaled_final/0232_fw.mp4	0.0	68.62046885490417	0.09184122085571289
2	51.88254475593567	pulse	0	t		0.0	2.5	/experiments/Knapen_AOT/AOT_stimuli/rescaled_final/0232_fw.mp4	0.0	68.68737173080444	
2	51.90748310089111	movie	1		292	0.0	2.5	/experiments/Knapen_AOT/AOT_stimuli/rescaled_final/0232_fw.mp4	0.0	68.71231007575989	2.4918742179870605
2	53.4829044342041	pulse	1	t		0.0	2.5	/experiments/Knapen_AOT/AOT_stimuli/rescaled_final/0232_fw.mp4	0.0	70.28773140907288	
2	54.399357318878174	fix_post	2		12	0.0	2.5	/experiments/Knapen_AOT/AOT_stimuli/rescaled_final/0232_fw.mp4	0.0	71.20418429374695	0.1000823974609375
3	54.49943971633911	fix_pre	0		120	1.0	2.5	/experiments/Knapen_AOT/AOT_stimuli/rescaled_final/1888_rv.mp4	0.0	71.30426669120789	1.0084764957427979
3	55.08311367034912	pulse	0	t		1.0	2.5	/experiments/Knapen_AOT/AOT_stimuli/rescaled_final/1888_rv.mp4	0.0	71.8879406452179	
3	55.50791621208191	movie	1		292	1.0	2.5	/experiments/Knapen_AOT/AOT_stimuli/rescaled_final/1888_rv.mp4	0.0	72.31274318695068	2.491974353790283
3	56.683255672454834	pulse	1	t		1.0	2.5	/experiments/Knapen_AOT/AOT_stimuli/rescaled_final/1888_rv.mp4	0.0	73.48808264732361	
3	57.99989056587219	fix_post	2		12	1.0	2.5	/experiments/Knapen_AOT/AOT_stimuli/rescaled_final/1888_rv.mp4	0.0	74.80471754074097	0.1000359058380127
4	58.099926471710205	fix_pre	0		120	2.0	2.5	/experiments/Knapen_AOT/AOT_stimuli/rescaled_final/1227_rv.mp4	0.0	74.90475344657898	1.0084924697875977
4	58.28357291221619	pulse	0	t		2.0	2.5	/experiments/Knapen_AOT/AOT_stimuli/rescaled_final/1227_rv.mp4	0.0	75.08839988708496	
4	59.1084189414978	movie	1		287	2.0	2.5	/experiments/Knapen_AOT/AOT_stimuli/rescaled_final/1227_rv.mp4	0.0	75.91324591636658	2.4920268058776855
4	59.88381290435791	pulse	1	t		2.0	2.5	/experiments/Knapen_AOT/AOT_stimuli/rescaled_final/1227_rv.mp4	0.0	76.68863987922668	
4	61.483952045440674	pulse	1	t		2.0	2.5	/experiments/Knapen_AOT/AOT_stimuli/rescaled_final/1227_rv.mp4	0.0	78.28877902030945	
4	61.60044574737549	fix_post	2		12	2.0	2.5	/experiments/Knapen_AOT/AOT_stimuli/rescaled_final/1227_rv.mp4	0.0	78.40527272224426	0.10004687309265137
5	61.70049262046814	fix_pre	0		120	3.0	2.5	/experiments/Knapen_AOT/AOT_stimuli/rescaled_final/0790_fw.mp4	0.0	78.50531959533691	1.0085251331329346
5	62.709017753601074	movie	1		275	3.0	2.5	/experiments/Knapen_AOT/AOT_stimuli/rescaled_final/0790_fw.mp4	0.0	79.51384472846985	2.4919700622558594
5	63.082669258117676	pulse	1	t		3.0	2.5	/experiments/Knapen_AOT/AOT_stimuli/rescaled_final/0790_fw.mp4	0.0	79.88749623298645	
5	64.68249821662903	pulse	1	t		3.0	2.5	/experiments/Knapen_AOT/AOT_stimuli/rescaled_final/0790_fw.mp4	0.0	81.4873251914978	
5	65.20098781585693	fix_post	2		12	3.0	2.5	/experiments/Knapen_AOT/AOT_stimuli/rescaled_final/0790_fw.mp4	0.0	82.00581479072571	0.10004591941833496
6	65.30103373527527	fix_pre	0		119	4.0	2.5	/experiments/Knapen_AOT/AOT_stimuli/rescaled_final/1994_rv.mp4	0.0	82.10586071014404	1.0001239776611328
6	66.2846839427948	pulse	0	t		4.0	2.5	/experiments/Knapen_AOT/AOT_stimuli/rescaled_final/1994_rv.mp4	0.0	83.08951091766357	
6	66.3011577129364	movie	1		291	4.0	2.5	/experiments/Knapen_AOT/AOT_stimuli/rescaled_final/1994_rv.mp4	0.0	83.10598468780518	2.5003674030303955
6	67.88350105285645	pulse	1	t		4.0	2.5	/experiments/Knapen_AOT/AOT_stimuli/rescaled_final/1994_rv.mp4	0.0	84.68832802772522	
6	68.8015251159668	fix_post	2		12	4.0	2.5	/experiments/Knapen_AOT/AOT_stimuli/rescaled_final/1994_rv.mp4	0.0	85.60635209083557	0.10012173652648926
7	68.90164685249329	fix_pre	0		120	5.0	2.5	blank	1.0	85.70647382736206	1.000051736831665
7	69.4851667881012	pulse	0	t		5.0	2.5	blank	1.0	86.28999376296997	
7	69.90169858932495	movie	1		300	5.0	2.5	blank	1.0	86.70652556419373	2.5003671646118164
7	71.08539009094238	pulse	1	t		5.0	2.5	blank	1.0	87.89021706581116	
7	72.40206575393677	fix_post	2		12	5.0	2.5	blank	1.0	89.20689272880554	0.10002398490905762
8	72.50208973884583	fix_pre	0		120	6.0	2.5	/experiments/Knapen_AOT/AOT_stimuli/rescaled_final/1968_rv.mp4	0.0	89.3069167137146	1.0085186958312988
8	72.68565344810486	pulse	0	t		6.0	2.5	/experiments/Knapen_AOT/AOT_stimuli/rescaled_final/1968_rv.mp4	0.0	89.49048042297363	
8	73.51060843467712	movie	1		289	6.0	2.5	/experiments/Knapen_AOT/AOT_stimuli/rescaled_final/1968_rv.mp4	0.0	90.3154354095459	2.4920012950897217
8	74.28460669517517	pulse	1	t		6.0	2.5	/experiments/Knapen_AOT/AOT_stimuli/rescaled_final/1968_rv.mp4	0.0	91.08943367004395	
8	75.88415455818176	pulse	1	t		6.0	2.5	/experiments/Knapen_AOT/AOT_stimuli/rescaled_final/1968_rv.mp4	0.0	92.68898153305054	
8	76.00260972976685	fix_post	2		12	6.0	2.5	/experiments/Knapen_AOT/AOT_stimuli/rescaled_final/1968_rv.mp4	0.0	92.80743670463562	0.10002017021179199
9	76.10262989997864	fix_pre	0		120	7.0	2.5	/experiments/Knapen_AOT/AOT_stimuli/rescaled_final/0030_fw.mp4	0.0	92.90745687484741	1.0085017681121826
9	77.11113166809082	movie	1		288	7.0	2.5	/experiments/Knapen_AOT/AOT_stimuli/rescaled_final/0030_fw.mp4	0.0	93.9159586429596	2.492018222808838
9	77.4849021434784	pulse	1	t		7.0	2.5	/experiments/Knapen_AOT/AOT_stimuli/rescaled_final/0030_fw.mp4	0.0	94.28972911834717	
9	79.08668231964111	pulse	1	t		7.0	2.5	/experiments/Knapen_AOT/AOT_stimuli/rescaled_final/0030_fw.mp4	0.0	95.89150929450989	
9	79.60314989089966	fix_post	2		12	7.0	2.5	/experiments/Knapen_AOT/AOT_stimuli/rescaled_final/0030_fw.mp4	0.0	96.40797686576843	0.10002684593200684
10	79.70317673683167	fix_pre	0		119	8.0	2.5	/experiments/Knapen_AOT/AOT_stimuli/rescaled_final/1441_fw.mp4	0.0	96.50800371170044	1.0001599788665771
10	80.6870641708374	pulse	0	t		8.0	2.5	/experiments/Knapen_AOT/AOT_stimuli/rescaled_final/1441_fw.mp4	0.0	97.49189114570618	
10	80.70333671569824	movie	1		296	8.0	2.5	/experiments/Knapen_AOT/AOT_stimuli/rescaled_final/1441_fw.mp4	0.0	97.50816369056702	2.5003645420074463
10	82.28605484962463	pulse	1	t		8.0	2.5	/experiments/Knapen_AOT/AOT_stimuli/rescaled_final/1441_fw.mp4	0.0	99.09088182449341	
10	83.20370125770569	fix_post	2		12	8.0	2.5	/experiments/Knapen_AOT/AOT_stimuli/rescaled_final/1441_fw.mp4	0.0	100.00852823257446	0.09997963905334473
11	83.30368089675903	fix_pre	0		120	9.0	2.5	/experiments/Knapen_AOT/AOT_stimuli/rescaled_final/1586_rv.mp4	0.0	100.10850787162781	1.0085139274597168
11	83.88738131523132	pulse	0	t		9.0	2.5	/experiments/Knapen_AOT/AOT_stimuli/rescaled_final/1586_rv.mp4	0.0	100.6922082901001	
11	84.31219482421875	movie	1		294	9.0	2.5	/experiments/Knapen_AOT/AOT_stimuli/rescaled_final/1586_rv.mp4	0.0	101.11702179908752	2.4919991493225098
11	85.48493552207947	pulse	1	t		9.0	2.5	/experiments/Knapen_AOT/AOT_stimuli/rescaled_final/1586_rv.mp4	0.0	102.28976249694824	
11	86.80419397354126	fix_post	2		12	9.0	2.5	/experiments/Knapen_AOT/AOT_stimuli/rescaled_final/1586_rv.mp4	0.0	103.60902094841003	0.10004067420959473
12	86.90423464775085	fix_pre	0		120	10.0	2.5	/experiments/Knapen_AOT/AOT_stimuli/rescaled_final/2129_rv.mp4	0.0	103.70906162261963	1.0005543231964111
12	87.08791923522949	pulse	0	t		10.0	2.5	/experiments/Knapen_AOT/AOT_stimuli/rescaled_final/2129_rv.mp4	0.0	103.89274621009827	
12	87.90478897094727	movie	1		293	10.0	2.5	/experiments/Knapen_AOT/AOT_stimuli/rescaled_final/2129_rv.mp4	0.0	104.70961594581604	2.4999632835388184
12	88.68522620201111	pulse	1	t		10.0	2.5	/experiments/Knapen_AOT/AOT_stimuli/rescaled_final/2129_rv.mp4	0.0	105.49005317687988	
12	90.28555965423584	pulse	1	t		10.0	2.5	/experiments/Knapen_AOT/AOT_stimuli/rescaled_final/2129_rv.mp4	0.0	107.09038662910461	
12	90.40475225448608	fix_post	2		12	10.0	2.5	/experiments/Knapen_AOT/AOT_stimuli/rescaled_final/2129_rv.mp4	0.0	107.20957922935486	0.10004234313964844
13	90.50479459762573	fix_pre	0		120	11.0	2.5	/experiments/Knapen_AOT/AOT_stimuli/rescaled_final/1341_fw.mp4	0.0	107.3096215724945	1.0085043907165527
13	91.51329898834229	movie	1		287	11.0	2.5	/experiments/Knapen_AOT/AOT_stimuli/rescaled_final/1341_fw.mp4	0.0	108.31812596321106	2.491999864578247
13	91.88873314857483	pulse	1	t		11.0	2.5	/experiments/Knapen_AOT/AOT_stimuli/rescaled_final/1341_fw.mp4	0.0	108.6935601234436	
13	93.48684310913086	pulse	1	t		11.0	2.5	/experiments/Knapen_AOT/AOT_stimuli/rescaled_final/1341_fw.mp4	0.0	110.29167008399963	
13	94.00529885292053	fix_post	2		12	11.0	2.5	/experiments/Knapen_AOT/AOT_stimuli/rescaled_final/1341_fw.mp4	0.0	110.8101258277893	0.10038042068481445
14	94.10567927360535	fix_pre	0		119	12.0	2.5	/experiments/Knapen_AOT/AOT_stimuli/rescaled_final/0798_rv.mp4	0.0	110.91050624847412	0.999830961227417
14	95.08902931213379	pulse	0	t		12.0	2.5	/experiments/Knapen_AOT/AOT_stimuli/rescaled_final/0798_rv.mp4	0.0	111.89385628700256	
14	95.10551023483276	movie	1		292	12.0	2.5	/experiments/Knapen_AOT/AOT_stimuli/rescaled_final/0798_rv.mp4	0.0	111.91033720970154	2.5003480911254883
14	96.68783521652222	pulse	1	t		12.0	2.5	/experiments/Knapen_AOT/AOT_stimuli/rescaled_final/0798_rv.mp4	0.0	113.49266219139099	
14	97.60585832595825	fix_post	2		12	12.0	2.5	/experiments/Knapen_AOT/AOT_stimuli/rescaled_final/0798_rv.mp4	0.0	114.41068530082703	0.1000056266784668
15	97.70586395263672	fix_pre	0		120	13.0	2.5	/experiments/Knapen_AOT/AOT_stimuli/rescaled_final/0129_fw.mp4	0.0	114.5106909275055	1.0085358619689941
15	98.28997802734375	pulse	0	t		13.0	2.5	/experiments/Knapen_AOT/AOT_stimuli/rescaled_final/0129_fw.mp4	0.0	115.09480500221252	
15	98.71439981460571	movie	1		292	13.0	2.5	/experiments/Knapen_AOT/AOT_stimuli/rescaled_final/0129_fw.mp4	0.0	115.51922678947449	2.4920096397399902
15	99.88793277740479	pulse	1	t		13.0	2.5	/experiments/Knapen_AOT/AOT_stimuli/rescaled_final/0129_fw.mp4	0.0	116.69275975227356	
15	101.2064094543457	fix_post	2		12	13.0	2.5	/experiments/Knapen_AOT/AOT_stimuli/rescaled_final/0129_fw.mp4	0.0	118.01123642921448	0.10007882118225098
16	101.30648827552795	fix_pre	0		120	14.0	2.5	blank	1.0	118.11131525039673	1.000089168548584
16	101.48990893363953	pulse	0	t		14.0	2.5	blank	1.0	118.2947359085083	
16	102.30657744407654	movie	1		300	14.0	2.5	blank	1.0	119.11140441894531	2.5003609657287598
16	103.08222031593323	pulse	1	t		14.0	2.5	blank	1.0	119.887047290802	
16	104.68233752250671	pulse	1	t		14.0	2.5	blank	1.0	121.48716449737549	
16	104.8069384098053	fix_post	2		12	14.0	2.5	blank	1.0	121.61176538467407	0.10004734992980957
17	104.90698575973511	fix_pre	0		120	15.0	2.5	/experiments/Knapen_AOT/AOT_stimuli/rescaled_final/1504_rv.mp4	0.0	121.71181273460388	1.0084455013275146
17	105.91543126106262	movie	1		287	15.0	2.5	/experiments/Knapen_AOT/AOT_stimuli/rescaled_final/1504_rv.mp4	0.0	122.7202582359314	2.492070436477661
17	106.28247046470642	pulse	1	t		15.0	2.5	/experiments/Knapen_AOT/AOT_stimuli/rescaled_final/1504_rv.mp4	0.0	123.0872974395752	
17	107.88255882263184	pulse	1	t		15.0	2.5	/experiments/Knapen_AOT/AOT_stimuli/rescaled_final/1504_rv.mp4	0.0	124.68738579750061	
17	108.40750169754028	fix_post	2		12	15.0	2.5	/experiments/Knapen_AOT/AOT_stimuli/rescaled_final/1504_rv.mp4	0.0	125.21232867240906	0.10001945495605469
18	108.50752115249634	fix_pre	0		118	16.0	2.5	/experiments/Knapen_AOT/AOT_stimuli/rescaled_final/1505_rv.mp4	0.0	125.31234812736511	0.9918050765991211
18	109.48279428482056	pulse	0	t		16.0	2.5	/experiments/Knapen_AOT/AOT_stimuli/rescaled_final/1505_rv.mp4	0.0	126.28762125968933	
18	109.49932622909546	movie	1		287	16.0	2.5	/experiments/Knapen_AOT/AOT_stimuli/rescaled_final/1505_rv.mp4	0.0	126.30415320396423	2.5003552436828613
18	111.083256483078	pulse	1	t		16.0	2.5	/experiments/Knapen_AOT/AOT_stimuli/rescaled_final/1505_rv.mp4	0.0	127.88808345794678	
18	111.99968147277832	fix_post	2		12	16.0	2.5	/experiments/Knapen_AOT/AOT_stimuli/rescaled_final/1505_rv.mp4	0.0	128.8045084476471	0.10001564025878906
19	112.09969711303711	fix_pre	0		120	17.0	2.5	/experiments/Knapen_AOT/AOT_stimuli/rescaled_final/0670_fw.mp4	0.0	128.90452408790588	1.0085210800170898
19	112.68330097198486	pulse	0	t		17.0	2.5	/experiments/Knapen_AOT/AOT_stimuli/rescaled_final/0670_fw.mp4	0.0	129.48812794685364	
19	113.1082181930542	movie	1		284	17.0	2.5	/experiments/Knapen_AOT/AOT_stimuli/rescaled_final/0670_fw.mp4	0.0	129.91304516792297	2.4921977519989014
19	114.28349280357361	pulse	1	t		17.0	2.5	/experiments/Knapen_AOT/AOT_stimuli/rescaled_final/0670_fw.mp4	0.0	131.08831977844238	
19	115.6004159450531	fix_post	2		12	17.0	2.5	/experiments/Knapen_AOT/AOT_stimuli/rescaled_final/0670_fw.mp4	0.0	132.40524291992188	0.09984755516052246
20	115.70026350021362	fix_pre	0		120	18.0	2.5	/experiments/Knapen_AOT/AOT_stimuli/rescaled_final/1257_rv.mp4	0.0	132.5050904750824	1.0085256099700928
20	115.88373970985413	pulse	0	t		18.0	2.5	/experiments/Knapen_AOT/AOT_stimuli/rescaled_final/1257_rv.mp4	0.0	132.6885666847229	
20	116.70878911018372	movie	1		288	18.0	2.5	/experiments/Knapen_AOT/AOT_stimuli/rescaled_final/1257_rv.mp4	0.0	133.5136160850525	2.491976737976074
20	117.48405504226685	pulse	1	t		18.0	2.5	/experiments/Knapen_AOT/AOT_stimuli/rescaled_final/1257_rv.mp4	0.0	134.28888201713562	
20	119.0823884010315	pulse	1	t		18.0	2.5	/experiments/Knapen_AOT/AOT_stimuli/rescaled_final/1257_rv.mp4	0.0	135.88721537590027	
20	119.20076584815979	fix_post	2		12	18.0	2.5	/experiments/Knapen_AOT/AOT_stimuli/rescaled_final/1257_rv.mp4	0.0	136.00559282302856	0.10002374649047852
21	119.30078959465027	fix_pre	0		120	19.0	2.5	blank	1.0	136.10561656951904	1.0001461505889893
21	120.30093574523926	movie	1		300	19.0	2.5	blank	1.0	137.10576272010803	2.5003719329833984
21	120.68449711799622	pulse	1	t		19.0	2.5	blank	1.0	137.489324092865	
21	122.28473114967346	pulse	1	t		19.0	2.5	blank	1.0	139.08955812454224	
21	122.80130767822266	fix_post	2		12	19.0	2.5	blank	1.0	139.60613465309143	0.10011076927185059
22	122.9014184474945	fix_pre	0		119	20.0	2.5	/experiments/Knapen_AOT/AOT_stimuli/rescaled_final/0460_rv.mp4	0.0	139.70624542236328	1.0001094341278076
22	123.8849790096283	pulse	0	t		20.0	2.5	/experiments/Knapen_AOT/AOT_stimuli/rescaled_final/0460_rv.mp4	0.0	140.68980598449707	
22	123.90152788162231	movie	1		294	20.0	2.5	/experiments/Knapen_AOT/AOT_stimuli/rescaled_final/0460_rv.mp4	0.0	140.7063548564911	2.5003347396850586
22	125.48369264602661	pulse	1	t		20.0	2.5	/experiments/Knapen_AOT/AOT_stimuli/rescaled_final/0460_rv.mp4	0.0	142.28851962089539	
22	126.40186262130737	fix_post	2		12	20.0	2.5	/experiments/Knapen_AOT/AOT_stimuli/rescaled_final/0460_rv.mp4	0.0	143.20668959617615	0.10001587867736816
23	126.50187849998474	fix_pre	0		120	21.0	2.5	/experiments/Knapen_AOT/AOT_stimuli/rescaled_final/2035_fw.mp4	0.0	143.30670547485352	1.0085134506225586
23	127.08543395996094	pulse	0	t		21.0	2.5	/experiments/Knapen_AOT/AOT_stimuli/rescaled_final/2035_fw.mp4	0.0	143.8902609348297	
23	127.5103919506073	movie	1		292	21.0	2.5	/experiments/Knapen_AOT/AOT_stimuli/rescaled_final/2035_fw.mp4	0.0	144.31521892547607	2.4920051097869873
23	128.68391823768616	pulse	1	t		21.0	2.5	/experiments/Knapen_AOT/AOT_stimuli/rescaled_final/2035_fw.mp4	0.0	145.48874521255493	
23	130.0023970603943	fix_post	2		12	21.0	2.5	/experiments/Knapen_AOT/AOT_stimuli/rescaled_final/2035_fw.mp4	0.0	146.80722403526306	0.10002613067626953
24	130.10242319107056	fix_pre	0		120	22.0	2.5	/experiments/Knapen_AOT/AOT_stimuli/rescaled_final/2097_rv.mp4	0.0	146.90725016593933	1.008551836013794
24	130.28589749336243	pulse	0	t		22.0	2.5	/experiments/Knapen_AOT/AOT_stimuli/rescaled_final/2097_rv.mp4	0.0	147.0907244682312	
24	131.11097502708435	movie	1		281	22.0	2.5	/experiments/Knapen_AOT/AOT_stimuli/rescaled_final/2097_rv.mp4	0.0	147.91580200195312	2.4920053482055664
24	131.88406491279602	pulse	1	t		22.0	2.5	/experiments/Knapen_AOT/AOT_stimuli/rescaled_final/2097_rv.mp4	0.0	148.6888918876648	
24	133.4845893383026	pulse	1	t		22.0	2.5	/experiments/Knapen_AOT/AOT_stimuli/rescaled_final/2097_rv.mp4	0.0	150.2894163131714	
24	133.60298037528992	fix_post	2		12	22.0	2.5	/experiments/Knapen_AOT/AOT_stimuli/rescaled_final/2097_rv.mp4	0.0	150.4078073501587	0.10002470016479492
25	133.7030050754547	fix_pre	0		120	23.0	2.5	/experiments/Knapen_AOT/AOT_stimuli/rescaled_final/0245_rv.mp4	0.0	150.5078320503235	1.0085704326629639
25	134.71157550811768	movie	1		290	23.0	2.5	/experiments/Knapen_AOT/AOT_stimuli/rescaled_final/0245_rv.mp4	0.0	151.51640248298645	2.4919328689575195
25	135.08537340164185	pulse	1	t		23.0	2.5	/experiments/Knapen_AOT/AOT_stimuli/rescaled_final/0245_rv.mp4	0.0	151.89020037651062	
25	136.68482446670532	pulse	1	t		23.0	2.5	/experiments/Knapen_AOT/AOT_stimuli/rescaled_final/0245_rv.mp4	0.0	153.4896514415741	
25	137.2035083770752	fix_post	2		12	23.0	2.5	/experiments/Knapen_AOT/AOT_stimuli/rescaled_final/0245_rv.mp4	0.0	154.00833535194397	0.10000443458557129
26	137.30351281166077	fix_pre	0		119	24.0	2.5	/experiments/Knapen_AOT/AOT_stimuli/rescaled_final/0407_rv.mp4	0.0	154.10833978652954	1.0001599788665771
26	138.28709888458252	pulse	0	t		24.0	2.5	/experiments/Knapen_AOT/AOT_stimuli/rescaled_final/0407_rv.mp4	0.0	155.0919258594513	
26	138.30367279052734	movie	1		291	24.0	2.5	/experiments/Knapen_AOT/AOT_stimuli/rescaled_final/0407_rv.mp4	0.0	155.10849976539612	2.500455617904663
26	139.8858835697174	pulse	1	t		24.0	2.5	/experiments/Knapen_AOT/AOT_stimuli/rescaled_final/0407_rv.mp4	0.0	156.69071054458618	
26	140.804128408432	fix_post	2		12	24.0	2.5	/experiments/Knapen_AOT/AOT_stimuli/rescaled_final/0407_rv.mp4	0.0	157.60895538330078	0.10000491142272949
27	140.90413331985474	fix_pre	0		120	25.0	2.5	/experiments/Knapen_AOT/AOT_stimuli/rescaled_final/1005_rv.mp4	0.0	157.7089602947235	1.0084409713745117
27	141.48782920837402	pulse	0	t		25.0	2.5	/experiments/Knapen_AOT/AOT_stimuli/rescaled_final/1005_rv.mp4	0.0	158.2926561832428	
27	141.91257429122925	movie	1		289	25.0	2.5	/experiments/Knapen_AOT/AOT_stimuli/rescaled_final/1005_rv.mp4	0.0	158.71740126609802	2.4920172691345215
27	143.08601880073547	pulse	1	t		25.0	2.5	/experiments/Knapen_AOT/AOT_stimuli/rescaled_final/1005_rv.mp4	0.0	159.89084577560425	
27	144.40459156036377	fix_post	2		12	25.0	2.5	/experiments/Knapen_AOT/AOT_stimuli/rescaled_final/1005_rv.mp4	0.0	161.20941853523254	0.09999585151672363
28	144.5045874118805	fix_pre	0		120	26.0	2.5	/experiments/Knapen_AOT/AOT_stimuli/rescaled_final/0159_fw.mp4	0.0	161.30941438674927	1.0085058212280273
28	144.68808245658875	pulse	0	t		26.0	2.5	/experiments/Knapen_AOT/AOT_stimuli/rescaled_final/0159_fw.mp4	0.0	161.49290943145752	
28	145.51309323310852	movie	1		284	26.0	2.5	/experiments/Knapen_AOT/AOT_stimuli/rescaled_final/0159_fw.mp4	0.0	162.3179202079773	2.4921884536743164
28	146.2865526676178	pulse	1	t		26.0	2.5	/experiments/Knapen_AOT/AOT_stimuli/rescaled_final/0159_fw.mp4	0.0	163.09137964248657	
28	147.88672041893005	pulse	1	t		26.0	2.5	/experiments/Knapen_AOT/AOT_stimuli/rescaled_final/0159_fw.mp4	0.0	164.69154739379883	
28	148.00528168678284	fix_post	2		12	26.0	2.5	/experiments/Knapen_AOT/AOT_stimuli/rescaled_final/0159_fw.mp4	0.0	164.8101086616516	0.09995007514953613
29	148.10523176193237	fix_pre	0		120	27.0	2.5	blank	1.0	164.91005873680115	1.0000495910644531
29	149.10528135299683	movie	1		300	27.0	2.5	blank	1.0	165.9101083278656	2.500365734100342
29	149.48880553245544	pulse	1	t		27.0	2.5	blank	1.0	166.29363250732422	
29	151.0890142917633	pulse	1	t		27.0	2.5	blank	1.0	167.89384126663208	
29	151.60564708709717	fix_post	2		12	27.0	2.5	blank	1.0	168.41047406196594	0.10007405281066895
30	151.70572113990784	fix_pre	0		119	28.0	2.5	/experiments/Knapen_AOT/AOT_stimuli/rescaled_final/1526_rv.mp4	0.0	168.5105481147766	1.0001192092895508
30	152.68927145004272	pulse	0	t		28.0	2.5	/experiments/Knapen_AOT/AOT_stimuli/rescaled_final/1526_rv.mp4	0.0	169.4940984249115	
30	152.7058403491974	movie	1		290	28.0	2.5	/experiments/Knapen_AOT/AOT_stimuli/rescaled_final/1526_rv.mp4	0.0	169.51066732406616	2.500342845916748
30	154.2879297733307	pulse	1	t		28.0	2.5	/experiments/Knapen_AOT/AOT_stimuli/rescaled_final/1526_rv.mp4	0.0	171.09275674819946	
30	155.20618319511414	fix_post	2		12	28.0	2.5	/experiments/Knapen_AOT/AOT_stimuli/rescaled_final/1526_rv.mp4	0.0	172.0110101699829	0.10008764266967773
31	155.3062708377838	fix_pre	0		120	29.0	2.5	/experiments/Knapen_AOT/AOT_stimuli/rescaled_final/0061_rv.mp4	0.0	172.1110978126526	1.0085349082946777
31	155.88978385925293	pulse	0	t		29.0	2.5	/experiments/Knapen_AOT/AOT_stimuli/rescaled_final/0061_rv.mp4	0.0	172.6946108341217	
31	156.3148057460785	movie	1		286	29.0	2.5	/experiments/Knapen_AOT/AOT_stimuli/rescaled_final/0061_rv.mp4	0.0	173.11963272094727	2.4919352531433105
31	157.4903666973114	pulse	1	t		29.0	2.5	/experiments/Knapen_AOT/AOT_stimuli/rescaled_final/0061_rv.mp4	0.0	174.29519367218018	
31	158.8067409992218	fix_post	2		12	29.0	2.5	/experiments/Knapen_AOT/AOT_stimuli/rescaled_final/0061_rv.mp4	0.0	175.61156797409058	0.10001826286315918
32	158.90675926208496	fix_pre	0		120	30.0	2.5	/experiments/Knapen_AOT/AOT_stimuli/rescaled_final/1801_rv.mp4	0.0	175.71158623695374	1.0084912776947021
32	159.08291745185852	pulse	0	t		30.0	2.5	/experiments/Knapen_AOT/AOT_stimuli/rescaled_final/1801_rv.mp4	0.0	175.8877444267273	
32	159.91525053977966	movie	1		289	30.0	2.5	/experiments/Knapen_AOT/AOT_stimuli/rescaled_final/1801_rv.mp4	0.0	176.72007751464844	2.4920170307159424
32	160.6885015964508	pulse	1	t		30.0	2.5	/experiments/Knapen_AOT/AOT_stimuli/rescaled_final/1801_rv.mp4	0.0	177.49332857131958	
32	162.28899097442627	pulse	1	t		30.0	2.5	/experiments/Knapen_AOT/AOT_stimuli/rescaled_final/1801_rv.mp4	0.0	179.09381794929504	
32	162.4072675704956	fix_post	2		12	30.0	2.5	/experiments/Knapen_AOT/AOT_stimuli/rescaled_final/1801_rv.mp4	0.0	179.21209454536438	0.10001540184020996
33	162.50728297233582	fix_pre	0		120	31.0	2.5	/experiments/Knapen_AOT/AOT_stimuli/rescaled_final/0168_rv.mp4	0.0	179.3121099472046	1.0084896087646484
33	163.51577258110046	movie	1		288	31.0	2.5	/experiments/Knapen_AOT/AOT_stimuli/rescaled_final/0168_rv.mp4	0.0	180.32059955596924	2.4920599460601807
33	163.8828682899475	pulse	1	t		31.0	2.5	/experiments/Knapen_AOT/AOT_stimuli/rescaled_final/0168_rv.mp4	0.0	180.68769526481628	
33	165.48295736312866	pulse	1	t		31.0	2.5	/experiments/Knapen_AOT/AOT_stimuli/rescaled_final/0168_rv.mp4	0.0	182.28778433799744	
33	166.00783252716064	fix_post	2		12	31.0	2.5	/experiments/Knapen_AOT/AOT_stimuli/rescaled_final/0168_rv.mp4	0.0	182.81265950202942	0.09999942779541016
34	166.10783195495605	fix_pre	0		118	32.0	2.5	/experiments/Knapen_AOT/AOT_stimuli/rescaled_final/0500_fw.mp4	0.0	182.91265892982483	0.9918172359466553
34	167.08313179016113	pulse	0	t		32.0	2.5	/experiments/Knapen_AOT/AOT_stimuli/rescaled_final/0500_fw.mp4	0.0	183.8879587650299	
34	167.0996491909027	movie	1		295	32.0	2.5	/experiments/Knapen_AOT/AOT_stimuli/rescaled_final/0500_fw.mp4	0.0	183.90447616577148	2.500370740890503
34	168.6835596561432	pulse	1	t		32.0	2.5	/experiments/Knapen_AOT/AOT_stimuli/rescaled_final/0500_fw.mp4	0.0	185.48838663101196	
34	169.6000199317932	fix_post	2		12	32.0	2.5	/experiments/Knapen_AOT/AOT_stimuli/rescaled_final/0500_fw.mp4	0.0	186.404846906662	0.10002732276916504
35	169.70004725456238	fix_pre	0		120	33.0	2.5	blank	1.0	186.50487422943115	1.0001320838928223
35	170.28360891342163	pulse	0	t		33.0	2.5	blank	1.0	187.0884358882904	
35	170.7001793384552	movie	1		300	33.0	2.5	blank	1.0	187.50500631332397	2.500408172607422
35	171.8838357925415	pulse	1	t		33.0	2.5	blank	1.0	188.68866276741028	
35	173.20058751106262	fix_post	2		12	33.0	2.5	blank	1.0	190.0054144859314	0.10000038146972656
36	173.30058789253235	fix_pre	0		120	34.0	2.5	/experiments/Knapen_AOT/AOT_stimuli/rescaled_final/1270_fw.mp4	0.0	190.10541486740112	1.0084702968597412
36	173.48429131507874	pulse	0	t		34.0	2.5	/experiments/Knapen_AOT/AOT_stimuli/rescaled_final/1270_fw.mp4	0.0	190.2891182899475	
36	174.3090581893921	movie	1		289	34.0	2.5	/experiments/Knapen_AOT/AOT_stimuli/rescaled_final/1270_fw.mp4	0.0	191.11388516426086	2.4920735359191895
36	175.08241200447083	pulse	1	t		34.0	2.5	/experiments/Knapen_AOT/AOT_stimuli/rescaled_final/1270_fw.mp4	0.0	191.8872389793396	
36	176.68251776695251	pulse	1	t		34.0	2.5	/experiments/Knapen_AOT/AOT_stimuli/rescaled_final/1270_fw.mp4	0.0	193.4873447418213	
36	176.80113172531128	fix_post	2		12	34.0	2.5	/experiments/Knapen_AOT/AOT_stimuli/rescaled_final/1270_fw.mp4	0.0	193.60595870018005	0.09999370574951172
37	176.9011254310608	fix_pre	0		120	35.0	2.5	/experiments/Knapen_AOT/AOT_stimuli/rescaled_final/1561_rv.mp4	0.0	193.70595240592957	1.0086352825164795
37	177.90976071357727	movie	1		289	35.0	2.5	/experiments/Knapen_AOT/AOT_stimuli/rescaled_final/1561_rv.mp4	0.0	194.71458768844604	2.4919261932373047
37	178.2833707332611	pulse	1	t		35.0	2.5	/experiments/Knapen_AOT/AOT_stimuli/rescaled_final/1561_rv.mp4	0.0	195.08819770812988	
37	179.8832061290741	pulse	1	t		35.0	2.5	/experiments/Knapen_AOT/AOT_stimuli/rescaled_final/1561_rv.mp4	0.0	196.68803310394287	
37	180.40168690681458	fix_post	2		12	35.0	2.5	/experiments/Knapen_AOT/AOT_stimuli/rescaled_final/1561_rv.mp4	0.0	197.20651388168335	0.09996628761291504
38	180.5016531944275	fix_pre	0		119	36.0	2.5	/experiments/Knapen_AOT/AOT_stimuli/rescaled_final/1495_fw.mp4	0.0	197.30648016929626	1.000201940536499
38	181.4853093624115	pulse	0	t		36.0	2.5	/experiments/Knapen_AOT/AOT_stimuli/rescaled_final/1495_fw.mp4	0.0	198.29013633728027	
38	181.501855134964	movie	1		285	36.0	2.5	/experiments/Knapen_AOT/AOT_stimuli/rescaled_final/1495_fw.mp4	0.0	198.30668210983276	2.500331163406372
38	183.08379983901978	pulse	1	t		36.0	2.5	/experiments/Knapen_AOT/AOT_stimuli/rescaled_final/1495_fw.mp4	0.0	199.88862681388855	
38	184.00218629837036	fix_post	2		12	36.0	2.5	/experiments/Knapen_AOT/AOT_stimuli/rescaled_final/1495_fw.mp4	0.0	200.80701327323914	0.10003304481506348
39	184.10221934318542	fix_pre	0		120	37.0	2.5	/experiments/Knapen_AOT/AOT_stimuli/rescaled_final/1588_fw.mp4	0.0	200.9070463180542	1.0085103511810303
39	184.68582963943481	pulse	0	t		37.0	2.5	/experiments/Knapen_AOT/AOT_stimuli/rescaled_final/1588_fw.mp4	0.0	201.4906566143036	
39	185.11072969436646	movie	1		294	37.0	2.5	/experiments/Knapen_AOT/AOT_stimuli/rescaled_final/1588_fw.mp4	0.0	201.91555666923523	2.492022752761841
39	186.28405094146729	pulse	1	t		37.0	2.5	/experiments/Knapen_AOT/AOT_stimuli/rescaled_final/1588_fw.mp4	0.0	203.08887791633606	
39	187.6027524471283	fix_post	2		12	37.0	2.5	/experiments/Knapen_AOT/AOT_stimuli/rescaled_final/1588_fw.mp4	0.0	204.40757942199707	0.10000014305114746
40	187.70275259017944	fix_pre	0		120	38.0	2.5	/experiments/Knapen_AOT/AOT_stimuli/rescaled_final/2177_fw.mp4	0.0	204.50757956504822	1.0085575580596924
40	187.8862521648407	pulse	0	t		38.0	2.5	/experiments/Knapen_AOT/AOT_stimuli/rescaled_final/2177_fw.mp4	0.0	204.69107913970947	
40	188.71131014823914	movie	1		291	38.0	2.5	/experiments/Knapen_AOT/AOT_stimuli/rescaled_final/2177_fw.mp4	0.0	205.5161371231079	2.4919557571411133
40	189.4842872619629	pulse	1	t		38.0	2.5	/experiments/Knapen_AOT/AOT_stimuli/rescaled_final/2177_fw.mp4	0.0	206.28911423683167	
40	191.0849506855011	pulse	1	t		38.0	2.5	/experiments/Knapen_AOT/AOT_stimuli/rescaled_final/2177_fw.mp4	0.0	207.88977766036987	
40	191.20326590538025	fix_post	2		12	38.0	2.5	/experiments/Knapen_AOT/AOT_stimuli/rescaled_final/2177_fw.mp4	0.0	208.00809288024902	0.1000218391418457
41	191.3032877445221	fix_pre	0		120	39.0	2.5	/experiments/Knapen_AOT/AOT_stimuli/rescaled_final/2051_rv.mp4	0.0	208.10811471939087	1.0084850788116455
41	192.31177282333374	movie	1		292	39.0	2.5	/experiments/Knapen_AOT/AOT_stimuli/rescaled_final/2051_rv.mp4	0.0	209.11659979820251	2.4920361042022705
41	192.68552088737488	pulse	1	t		39.0	2.5	/experiments/Knapen_AOT/AOT_stimuli/rescaled_final/2051_rv.mp4	0.0	209.49034786224365	
41	194.28523921966553	pulse	1	t		39.0	2.5	/experiments/Knapen_AOT/AOT_stimuli/rescaled_final/2051_rv.mp4	0.0	211.0900661945343	
41	194.803808927536	fix_post	2		12	39.0	2.5	/experiments/Knapen_AOT/AOT_stimuli/rescaled_final/2051_rv.mp4	0.0	211.60863590240479	0.1000053882598877
42	194.9038143157959	fix_pre	0		119	40.0	2.5	/experiments/Knapen_AOT/AOT_stimuli/rescaled_final/1664_fw.mp4	0.0	211.70864129066467	1.0001537799835205
42	195.88743495941162	pulse	0	t		40.0	2.5	/experiments/Knapen_AOT/AOT_stimuli/rescaled_final/1664_fw.mp4	0.0	212.6922619342804	
42	195.90396809577942	movie	1		296	40.0	2.5	/experiments/Knapen_AOT/AOT_stimuli/rescaled_final/1664_fw.mp4	0.0	212.7087950706482	2.500373363494873
42	197.48621606826782	pulse	1	t		40.0	2.5	/experiments/Knapen_AOT/AOT_stimuli/rescaled_final/1664_fw.mp4	0.0	214.2910430431366	
42	198.4043414592743	fix_post	2		12	40.0	2.5	/experiments/Knapen_AOT/AOT_stimuli/rescaled_final/1664_fw.mp4	0.0	215.20916843414307	0.10003137588500977
43	198.5043728351593	fix_pre	0		120	41.0	2.5	blank	1.0	215.30919981002808	1.0001285076141357
43	199.08788657188416	pulse	0	t		41.0	2.5	blank	1.0	215.89271354675293	
43	199.50450134277344	movie	1		300	41.0	2.5	blank	1.0	216.3093283176422	2.500382900238037
43	200.68811798095703	pulse	1	t		41.0	2.5	blank	1.0	217.4929449558258	
43	202.00488424301147	fix_post	2		12	41.0	2.5	blank	1.0	218.80971121788025	0.10001826286315918
44	202.10490250587463	fix_pre	0		120	42.0	2.5	/experiments/Knapen_AOT/AOT_stimuli/rescaled_final/1456_fw.mp4	0.0	218.9097294807434	1.0085155963897705
44	202.2884316444397	pulse	0	t		42.0	2.5	/experiments/Knapen_AOT/AOT_stimuli/rescaled_final/1456_fw.mp4	0.0	219.09325861930847	
44	203.1134181022644	movie	1		281	42.0	2.5	/experiments/Knapen_AOT/AOT_stimuli/rescaled_final/1456_fw.mp4	0.0	219.91824507713318	2.4920074939727783
44	203.88680458068848	pulse	1	t		42.0	2.5	/experiments/Knapen_AOT/AOT_stimuli/rescaled_final/1456_fw.mp4	0.0	220.69163155555725	
44	205.48693346977234	pulse	1	t		42.0	2.5	/experiments/Knapen_AOT/AOT_stimuli/rescaled_final/1456_fw.mp4	0.0	222.2917604446411	
44	205.60542559623718	fix_post	2		12	42.0	2.5	/experiments/Knapen_AOT/AOT_stimuli/rescaled_final/1456_fw.mp4	0.0	222.41025257110596	0.1000676155090332
45	205.70549321174622	fix_pre	0		120	43.0	2.5	/experiments/Knapen_AOT/AOT_stimuli/rescaled_final/0245_fw.mp4	0.0	222.510320186615	1.0085299015045166
45	206.71402311325073	movie	1		281	43.0	2.5	/experiments/Knapen_AOT/AOT_stimuli/rescaled_final/0245_fw.mp4	0.0	223.5188500881195	2.4919822216033936
45	207.08762574195862	pulse	1	t		43.0	2.5	/experiments/Knapen_AOT/AOT_stimuli/rescaled_final/0245_fw.mp4	0.0	223.8924527168274	
45	208.68724966049194	pulse	1	t		43.0	2.5	/experiments/Knapen_AOT/AOT_stimuli/rescaled_final/0245_fw.mp4	0.0	225.49207663536072	
45	209.20600533485413	fix_post	2		12	43.0	2.5	/experiments/Knapen_AOT/AOT_stimuli/rescaled_final/0245_fw.mp4	0.0	226.0108323097229	0.09999465942382812
46	209.30599999427795	fix_pre	0		119	44.0	2.5	/experiments/Knapen_AOT/AOT_stimuli/rescaled_final/2064_fw.mp4	0.0	226.11082696914673	1.000194787979126
46	210.2896327972412	pulse	0	t		44.0	2.5	/experiments/Knapen_AOT/AOT_stimuli/rescaled_final/2064_fw.mp4	0.0	227.09445977210999	
46	210.30619478225708	movie	1		290	44.0	2.5	/experiments/Knapen_AOT/AOT_stimuli/rescaled_final/2064_fw.mp4	0.0	227.11102175712585	2.5003325939178467
46	211.88855957984924	pulse	1	t		44.0	2.5	/experiments/Knapen_AOT/AOT_stimuli/rescaled_final/2064_fw.mp4	0.0	228.69338655471802	
46	212.80652737617493	fix_post	2		12	44.0	2.5	/experiments/Knapen_AOT/AOT_stimuli/rescaled_final/2064_fw.mp4	0.0	229.6113543510437	0.10003662109375
47	212.90656399726868	fix_pre	0		120	45.0	2.5	/experiments/Knapen_AOT/AOT_stimuli/rescaled_final/0042_rv.mp4	0.0	229.71139097213745	1.0084598064422607
47	213.4824137687683	pulse	0	t		45.0	2.5	/experiments/Knapen_AOT/AOT_stimuli/rescaled_final/0042_rv.mp4	0.0	230.28724074363708	
47	213.91502380371094	movie	1		274	45.0	2.5	/experiments/Knapen_AOT/AOT_stimuli/rescaled_final/0042_rv.mp4	0.0	230.7198507785797	2.5337862968444824
47	215.08218097686768	pulse	1	t		45.0	2.5	/experiments/Knapen_AOT/AOT_stimuli/rescaled_final/0042_rv.mp4	0.0	231.88700795173645	
47	216.44881010055542	fix_post	2		7	45.0	2.5	/experiments/Knapen_AOT/AOT_stimuli/rescaled_final/0042_rv.mp4	0.0	233.2536370754242	0.05831623077392578
48	216.50712633132935	fix_pre	0		120	46.0	2.5	/experiments/Knapen_AOT/AOT_stimuli/rescaled_final/1200_rv.mp4	0.0	233.31195330619812	1.0084843635559082
48	216.68236303329468	pulse	0	t		46.0	2.5	/experiments/Knapen_AOT/AOT_stimuli/rescaled_final/1200_rv.mp4	0.0	233.48719000816345	
48	217.51561069488525	movie	1		289	46.0	2.5	/experiments/Knapen_AOT/AOT_stimuli/rescaled_final/1200_rv.mp4	0.0	234.32043766975403	2.4919960498809814
48	218.2825996875763	pulse	1	t		46.0	2.5	/experiments/Knapen_AOT/AOT_stimuli/rescaled_final/1200_rv.mp4	0.0	235.08742666244507	
48	219.88279962539673	pulse	1	t		46.0	2.5	/experiments/Knapen_AOT/AOT_stimuli/rescaled_final/1200_rv.mp4	0.0	236.6876266002655	
48	220.00760674476624	fix_post	2		12	46.0	2.5	/experiments/Knapen_AOT/AOT_stimuli/rescaled_final/1200_rv.mp4	0.0	236.812433719635	0.10001635551452637
49	220.10762310028076	fix_pre	0		120	47.0	2.5	/experiments/Knapen_AOT/AOT_stimuli/rescaled_final/0739_rv.mp4	0.0	236.91245007514954	1.0084853172302246
49	221.116108417511	movie	1		282	47.0	2.5	/experiments/Knapen_AOT/AOT_stimuli/rescaled_final/0739_rv.mp4	0.0	237.92093539237976	2.492046356201172
49	221.48321437835693	pulse	1	t		47.0	2.5	/experiments/Knapen_AOT/AOT_stimuli/rescaled_final/0739_rv.mp4	0.0	238.2880413532257	
49	223.0833797454834	pulse	1	t		47.0	2.5	/experiments/Knapen_AOT/AOT_stimuli/rescaled_final/0739_rv.mp4	0.0	239.88820672035217	
49	223.60815477371216	fix_post	2		12	47.0	2.5	/experiments/Knapen_AOT/AOT_stimuli/rescaled_final/0739_rv.mp4	0.0	240.41298174858093	0.10000920295715332
50	223.7081639766693	fix_pre	0		118	48.0	2.5	blank	1.0	240.5129909515381	0.9834623336791992
50	224.6835699081421	pulse	0	t		48.0	2.5	blank	1.0	241.48839688301086	
50	224.6916263103485	movie	1		301	48.0	2.5	blank	1.0	241.49645328521729	2.5087246894836426
50	226.2837917804718	pulse	1	t		48.0	2.5	blank	1.0	243.08861875534058	
50	227.20035099983215	fix_post	2		12	48.0	2.5	blank	1.0	244.00517797470093	0.10000920295715332
51	227.3003602027893	fix_pre	0		120	49.0	2.5	/experiments/Knapen_AOT/AOT_stimuli/rescaled_final/2046_fw.mp4	0.0	244.10518717765808	1.008516788482666
51	227.88406443595886	pulse	0	t		49.0	2.5	/experiments/Knapen_AOT/AOT_stimuli/rescaled_final/2046_fw.mp4	0.0	244.68889141082764	
51	228.30887699127197	movie	1		289	49.0	2.5	/experiments/Knapen_AOT/AOT_stimuli/rescaled_final/2046_fw.mp4	0.0	245.11370396614075	2.4920473098754883
51	229.48236846923828	pulse	1	t		49.0	2.5	/experiments/Knapen_AOT/AOT_stimuli/rescaled_final/2046_fw.mp4	0.0	246.28719544410706	
51	230.80092430114746	fix_post	2		12	49.0	2.5	/experiments/Knapen_AOT/AOT_stimuli/rescaled_final/2046_fw.mp4	0.0	247.60575127601624	0.09998202323913574
52	230.9009063243866	fix_pre	0		120	50.0	2.5	/experiments/Knapen_AOT/AOT_stimuli/rescaled_final/0168_fw.mp4	0.0	247.70573329925537	1.0085196495056152
52	231.0845308303833	pulse	0	t		50.0	2.5	/experiments/Knapen_AOT/AOT_stimuli/rescaled_final/0168_fw.mp4	0.0	247.88935780525208	
52	231.9094259738922	movie	1		291	50.0	2.5	/experiments/Knapen_AOT/AOT_stimuli/rescaled_final/0168_fw.mp4	0.0	248.714252948761	2.4920926094055176
52	232.68344593048096	pulse	1	t		50.0	2.5	/experiments/Knapen_AOT/AOT_stimuli/rescaled_final/0168_fw.mp4	0.0	249.48827290534973	
52	234.28306078910828	pulse	1	t		50.0	2.5	/experiments/Knapen_AOT/AOT_stimuli/rescaled_final/0168_fw.mp4	0.0	251.08788776397705	
52	234.40151858329773	fix_post	2		12	50.0	2.5	/experiments/Knapen_AOT/AOT_stimuli/rescaled_final/0168_fw.mp4	0.0	251.2063455581665	0.09997367858886719
53	234.5014922618866	fix_pre	0		120	51.0	2.5	/experiments/Knapen_AOT/AOT_stimuli/rescaled_final/2122_fw.mp4	0.0	251.30631923675537	1.0084574222564697
53	235.50994968414307	movie	1		281	51.0	2.5	/experiments/Knapen_AOT/AOT_stimuli/rescaled_final/2122_fw.mp4	0.0	252.31477665901184	2.4920296669006348
53	235.8836019039154	pulse	1	t		51.0	2.5	/experiments/Knapen_AOT/AOT_stimuli/rescaled_final/2122_fw.mp4	0.0	252.68842887878418	
53	237.48336100578308	pulse	1	t		51.0	2.5	/experiments/Knapen_AOT/AOT_stimuli/rescaled_final/2122_fw.mp4	0.0	254.28818798065186	
53	238.0019793510437	fix_post	2		12	51.0	2.5	/experiments/Knapen_AOT/AOT_stimuli/rescaled_final/2122_fw.mp4	0.0	254.80680632591248	0.1000065803527832
54	238.10198593139648	fix_pre	0		119	52.0	2.5	/experiments/Knapen_AOT/AOT_stimuli/rescaled_final/1249_rv.mp4	0.0	254.90681290626526	1.0001921653747559
54	239.08565616607666	pulse	0	t		52.0	2.5	/experiments/Knapen_AOT/AOT_stimuli/rescaled_final/1249_rv.mp4	0.0	255.89048314094543	
54	239.10217809677124	movie	1		287	52.0	2.5	/experiments/Knapen_AOT/AOT_stimuli/rescaled_final/1249_rv.mp4	0.0	255.90700507164001	2.5003464221954346
54	240.68499326705933	pulse	1	t		52.0	2.5	/experiments/Knapen_AOT/AOT_stimuli/rescaled_final/1249_rv.mp4	0.0	257.4898202419281	
54	241.60252451896667	fix_post	2		12	52.0	2.5	/experiments/Knapen_AOT/AOT_stimuli/rescaled_final/1249_rv.mp4	0.0	258.40735149383545	0.10007214546203613
55	241.7025966644287	fix_pre	0		120	53.0	2.5	/experiments/Knapen_AOT/AOT_stimuli/rescaled_final/1542_fw.mp4	0.0	258.5074236392975	1.0084850788116455
55	242.28627514839172	pulse	0	t		53.0	2.5	/experiments/Knapen_AOT/AOT_stimuli/rescaled_final/1542_fw.mp4	0.0	259.0911021232605	
55	242.71108174324036	movie	1		282	53.0	2.5	/experiments/Knapen_AOT/AOT_stimuli/rescaled_final/1542_fw.mp4	0.0	259.51590871810913	2.491987943649292
55	243.88550543785095	pulse	1	t		53.0	2.5	/experiments/Knapen_AOT/AOT_stimuli/rescaled_final/1542_fw.mp4	0.0	260.6903324127197	
55	245.20306968688965	fix_post	2		12	53.0	2.5	/experiments/Knapen_AOT/AOT_stimuli/rescaled_final/1542_fw.mp4	0.0	262.0078966617584	0.10000848770141602
56	245.30307817459106	fix_pre	0		120	54.0	2.5	/experiments/Knapen_AOT/AOT_stimuli/rescaled_final/0670_rv.mp4	0.0	262.10790514945984	1.0084972381591797
56	245.48667287826538	pulse	0	t		54.0	2.5	/experiments/Knapen_AOT/AOT_stimuli/rescaled_final/0670_rv.mp4	0.0	262.29149985313416	
56	246.31157541275024	movie	1		290	54.0	2.5	/experiments/Knapen_AOT/AOT_stimuli/rescaled_final/0670_rv.mp4	0.0	263.116402387619	2.4920542240142822
56	247.08489727973938	pulse	1	t		54.0	2.5	/experiments/Knapen_AOT/AOT_stimuli/rescaled_final/0670_rv.mp4	0.0	263.88972425460815	
56	248.68512964248657	pulse	1	t		54.0	2.5	/experiments/Knapen_AOT/AOT_stimuli/rescaled_final/0670_rv.mp4	0.0	265.48995661735535	
56	248.80362963676453	fix_post	2		12	54.0	2.5	/experiments/Knapen_AOT/AOT_stimuli/rescaled_final/0670_rv.mp4	0.0	265.6084566116333	0.09999370574951172
57	248.90362334251404	fix_pre	0		120	55.0	2.5	/experiments/Knapen_AOT/AOT_stimuli/rescaled_final/0783_rv.mp4	0.0	265.7084503173828	1.0085020065307617
57	249.9121253490448	movie	1		282	55.0	2.5	/experiments/Knapen_AOT/AOT_stimuli/rescaled_final/0783_rv.mp4	0.0	266.7169523239136	2.4920637607574463
57	250.2860176563263	pulse	1	t		55.0	2.5	/experiments/Knapen_AOT/AOT_stimuli/rescaled_final/0783_rv.mp4	0.0	267.09084463119507	
57	251.8858118057251	pulse	1	t		55.0	2.5	/experiments/Knapen_AOT/AOT_stimuli/rescaled_final/0783_rv.mp4	0.0	268.6906387805939	
57	252.40418910980225	fix_post	2		12	55.0	2.5	/experiments/Knapen_AOT/AOT_stimuli/rescaled_final/0783_rv.mp4	0.0	269.209016084671	0.09997391700744629
58	252.5041630268097	fix_pre	0		119	56.0	2.5	blank	1.0	269.30899000167847	0.991788387298584
58	253.48809337615967	pulse	0	t		56.0	2.5	blank	1.0	270.29292035102844	
58	253.49595141410828	movie	1		301	56.0	2.5	blank	1.0	270.30077838897705	2.508728265762329
58	255.0881085395813	pulse	1	t		56.0	2.5	blank	1.0	271.8929355144501	
58	256.0046796798706	fix_post	2		12	56.0	2.5	blank	1.0	272.8095066547394	0.10001945495605469
59	256.10469913482666	fix_pre	0		120	57.0	2.5	/experiments/Knapen_AOT/AOT_stimuli/rescaled_final/2051_rv.mp4	0.0	272.90952610969543	1.0085182189941406
59	256.68840527534485	pulse	0	t		57.0	2.5	/experiments/Knapen_AOT/AOT_stimuli/rescaled_final/2051_rv.mp4	0.0	273.4932322502136	
59	257.1132173538208	movie	1		285	57.0	2.5	/experiments/Knapen_AOT/AOT_stimuli/rescaled_final/2051_rv.mp4	0.0	273.9180443286896	2.4920969009399414
59	258.2869598865509	pulse	1	t		57.0	2.5	/experiments/Knapen_AOT/AOT_stimuli/rescaled_final/2051_rv.mp4	0.0	275.0917868614197	
59	259.60531425476074	fix_post	2		12	57.0	2.5	/experiments/Knapen_AOT/AOT_stimuli/rescaled_final/2051_rv.mp4	0.0	276.4101412296295	0.09991335868835449
60	259.7052276134491	fix_pre	0		120	58.0	2.5	/experiments/Knapen_AOT/AOT_stimuli/rescaled_final/2114_rv.mp4	0.0	276.51005458831787	1.0085430145263672
60	259.8828184604645	pulse	0	t		58.0	2.5	/experiments/Knapen_AOT/AOT_stimuli/rescaled_final/2114_rv.mp4	0.0	276.68764543533325	
60	260.71377062797546	movie	1		277	58.0	2.5	/experiments/Knapen_AOT/AOT_stimuli/rescaled_final/2114_rv.mp4	0.0	277.51859760284424	2.492241621017456
60	261.4887363910675	pulse	1	t		58.0	2.5	/experiments/Knapen_AOT/AOT_stimuli/rescaled_final/2114_rv.mp4	0.0	278.2935633659363	
60	263.08712100982666	pulse	1	t		58.0	2.5	/experiments/Knapen_AOT/AOT_stimuli/rescaled_final/2114_rv.mp4	0.0	279.89194798469543	
60	263.2060122489929	fix_post	2		12	58.0	2.5	/experiments/Knapen_AOT/AOT_stimuli/rescaled_final/2114_rv.mp4	0.0	280.0108392238617	0.09977364540100098
61	263.3057858943939	fix_pre	0		120	59.0	2.5	/experiments/Knapen_AOT/AOT_stimuli/rescaled_final/0500_rv.mp4	0.0	280.1106128692627	1.0084969997406006
61	264.3142828941345	movie	1		281	59.0	2.5	/experiments/Knapen_AOT/AOT_stimuli/rescaled_final/0500_rv.mp4	0.0	281.1191098690033	2.4920217990875244
61	264.6880476474762	pulse	1	t		59.0	2.5	/experiments/Knapen_AOT/AOT_stimuli/rescaled_final/0500_rv.mp4	0.0	281.49287462234497	
61	266.2891809940338	pulse	1	t		59.0	2.5	/experiments/Knapen_AOT/AOT_stimuli/rescaled_final/0500_rv.mp4	0.0	283.0940079689026	
61	266.80630469322205	fix_post	2		12	59.0	2.5	/experiments/Knapen_AOT/AOT_stimuli/rescaled_final/0500_rv.mp4	0.0	283.6111316680908	0.10003876686096191
62	266.906343460083	fix_pre	0		119	60.0	2.5	/experiments/Knapen_AOT/AOT_stimuli/rescaled_final/0591_rv.mp4	0.0	283.7111704349518	1.000220537185669
62	267.8900566101074	pulse	0	t		60.0	2.5	/experiments/Knapen_AOT/AOT_stimuli/rescaled_final/0591_rv.mp4	0.0	284.6948835849762	
62	267.9065639972687	movie	1		292	60.0	2.5	/experiments/Knapen_AOT/AOT_stimuli/rescaled_final/0591_rv.mp4	0.0	284.71139097213745	2.500282049179077
62	269.4889922142029	pulse	1	t		60.0	2.5	/experiments/Knapen_AOT/AOT_stimuli/rescaled_final/0591_rv.mp4	0.0	286.29381918907166	
62	270.40684604644775	fix_post	2		12	60.0	2.5	/experiments/Knapen_AOT/AOT_stimuli/rescaled_final/0591_rv.mp4	0.0	287.2116730213165	0.10002684593200684
63	270.50687289237976	fix_pre	0		120	61.0	2.5	blank	1.0	287.31169986724854	1.000131607055664
63	271.09053587913513	pulse	0	t		61.0	2.5	blank	1.0	287.8953628540039	
63	271.5070044994354	movie	1		300	61.0	2.5	blank	1.0	288.3118314743042	2.5003740787506104
63	272.68272495269775	pulse	1	t		61.0	2.5	blank	1.0	289.4875519275665	
63	274.00737857818604	fix_post	2		12	61.0	2.5	blank	1.0	290.8122055530548	0.10007214546203613
64	274.10745072364807	fix_pre	0		120	62.0	2.5	/experiments/Knapen_AOT/AOT_stimuli/rescaled_final/0957_fw.mp4	0.0	290.91227769851685	1.008439064025879
64	274.2826979160309	pulse	0	t		62.0	2.5	/experiments/Knapen_AOT/AOT_stimuli/rescaled_final/0957_fw.mp4	0.0	291.08752489089966	
64	275.11588978767395	movie	1		280	62.0	2.5	/experiments/Knapen_AOT/AOT_stimuli/rescaled_final/0957_fw.mp4	0.0	291.9207167625427	2.4921534061431885
64	275.8914396762848	pulse	1	t		62.0	2.5	/experiments/Knapen_AOT/AOT_stimuli/rescaled_final/0957_fw.mp4	0.0	292.69626665115356	
64	277.48310232162476	pulse	1	t		62.0	2.5	/experiments/Knapen_AOT/AOT_stimuli/rescaled_final/0957_fw.mp4	0.0	294.28792929649353	
64	277.60804319381714	fix_post	2		12	62.0	2.5	/experiments/Knapen_AOT/AOT_stimuli/rescaled_final/0957_fw.mp4	0.0	294.4128701686859	0.09996581077575684
65	277.7080090045929	fix_pre	0		120	63.0	2.5	/experiments/Knapen_AOT/AOT_stimuli/rescaled_final/1441_rv.mp4	0.0	294.51283597946167	1.0085201263427734
65	278.71652913093567	movie	1		285	63.0	2.5	/experiments/Knapen_AOT/AOT_stimuli/rescaled_final/1441_rv.mp4	0.0	295.52135610580444	2.491973638534546
65	279.0834276676178	pulse	1	t		63.0	2.5	/experiments/Knapen_AOT/AOT_stimuli/rescaled_final/1441_rv.mp4	0.0	295.8882546424866	
65	280.6837089061737	pulse	1	t		63.0	2.5	/experiments/Knapen_AOT/AOT_stimuli/rescaled_final/1441_rv.mp4	0.0	297.4885358810425	
65	281.2085027694702	fix_post	2		12	63.0	2.5	/experiments/Knapen_AOT/AOT_stimuli/rescaled_final/1441_rv.mp4	0.0	298.013329744339	0.10001921653747559
66	281.3085219860077	fix_pre	0		118	64.0	2.5	/experiments/Knapen_AOT/AOT_stimuli/rescaled_final/0037_rv.mp4	0.0	298.11334896087646	0.9917991161346436
66	282.2839434146881	pulse	0	t		64.0	2.5	/experiments/Knapen_AOT/AOT_stimuli/rescaled_final/0037_rv.mp4	0.0	299.0887703895569	
66	282.30032110214233	movie	1		283	64.0	2.5	/experiments/Knapen_AOT/AOT_stimuli/rescaled_final/0037_rv.mp4	0.0	299.1051480770111	2.50034761428833
66	283.8831477165222	pulse	1	t		64.0	2.5	/experiments/Knapen_AOT/AOT_stimuli/rescaled_final/0037_rv.mp4	0.0	300.687974691391	
66	284.80066871643066	fix_post	2		12	64.0	2.5	/experiments/Knapen_AOT/AOT_stimuli/rescaled_final/0037_rv.mp4	0.0	301.60549569129944	0.10004258155822754
67	284.9007112979889	fix_pre	0		120	65.0	2.5	/experiments/Knapen_AOT/AOT_stimuli/rescaled_final/1070_fw.mp4	0.0	301.70553827285767	1.0084929466247559
67	285.48444080352783	pulse	0	t		65.0	2.5	/experiments/Knapen_AOT/AOT_stimuli/rescaled_final/1070_fw.mp4	0.0	302.2892677783966	
67	285.90920424461365	movie	1		283	65.0	2.5	/experiments/Knapen_AOT/AOT_stimuli/rescaled_final/1070_fw.mp4	0.0	302.7140312194824	2.4920616149902344
67	287.0828471183777	pulse	1	t		65.0	2.5	/experiments/Knapen_AOT/AOT_stimuli/rescaled_final/1070_fw.mp4	0.0	303.88767409324646	
67	288.4012658596039	fix_post	2		12	65.0	2.5	/experiments/Knapen_AOT/AOT_stimuli/rescaled_final/1070_fw.mp4	0.0	305.20609283447266	0.09996843338012695
68	288.501234292984	fix_pre	0		120	66.0	2.5	/experiments/Knapen_AOT/AOT_stimuli/rescaled_final/0460_rv.mp4	0.0	305.3060612678528	1.008488655090332
68	288.68486070632935	pulse	0	t		66.0	2.5	/experiments/Knapen_AOT/AOT_stimuli/rescaled_final/0460_rv.mp4	0.0	305.4896876811981	
68	289.50972294807434	movie	1		282	66.0	2.5	/experiments/Knapen_AOT/AOT_stimuli/rescaled_final/0460_rv.mp4	0.0	306.3145499229431	2.4920451641082764
68	290.2831382751465	pulse	1	t		66.0	2.5	/experiments/Knapen_AOT/AOT_stimuli/rescaled_final/0460_rv.mp4	0.0	307.08796525001526	
68	291.8832416534424	pulse	1	t		66.0	2.5	/experiments/Knapen_AOT/AOT_stimuli/rescaled_final/0460_rv.mp4	0.0	308.68806862831116	
68	292.0017681121826	fix_post	2		12	66.0	2.5	/experiments/Knapen_AOT/AOT_stimuli/rescaled_final/0460_rv.mp4	0.0	308.8065950870514	0.10016441345214844
69	292.10193252563477	fix_pre	0		120	67.0	2.5	/experiments/Knapen_AOT/AOT_stimuli/rescaled_final/0575_fw.mp4	0.0	308.90675950050354	1.0084125995635986
69	293.11034512519836	movie	1		285	67.0	2.5	/experiments/Knapen_AOT/AOT_stimuli/rescaled_final/0575_fw.mp4	0.0	309.91517210006714	2.4919590950012207
69	293.48415064811707	pulse	1	t		67.0	2.5	/experiments/Knapen_AOT/AOT_stimuli/rescaled_final/0575_fw.mp4	0.0	310.28897762298584	
69	295.08378505706787	pulse	1	t		67.0	2.5	/experiments/Knapen_AOT/AOT_stimuli/rescaled_final/0575_fw.mp4	0.0	311.88861203193665	
69	295.6023042201996	fix_post	2		12	67.0	2.5	/experiments/Knapen_AOT/AOT_stimuli/rescaled_final/0575_fw.mp4	0.0	312.40713119506836	0.09999394416809082
70	295.7022981643677	fix_pre	0		119	68.0	2.5	/experiments/Knapen_AOT/AOT_stimuli/rescaled_final/0892_rv.mp4	0.0	312.50712513923645	1.0001904964447021
70	296.6859726905823	pulse	0	t		68.0	2.5	/experiments/Knapen_AOT/AOT_stimuli/rescaled_final/0892_rv.mp4	0.0	313.49079966545105	
70	296.7024886608124	movie	1		285	68.0	2.5	/experiments/Knapen_AOT/AOT_stimuli/rescaled_final/0892_rv.mp4	0.0	313.50731563568115	2.5003604888916016
70	298.2849714756012	pulse	1	t		68.0	2.5	/experiments/Knapen_AOT/AOT_stimuli/rescaled_final/0892_rv.mp4	0.0	315.08979845046997	
70	299.202849149704	fix_post	2		12	68.0	2.5	/experiments/Knapen_AOT/AOT_stimuli/rescaled_final/0892_rv.mp4	0.0	316.00767612457275	0.10001587867736816
71	299.30286502838135	fix_pre	0		119	69.0	2.5	blank	1.0	316.1076920032501	1.0001425743103027
71	299.88737392425537	pulse	0	t		69.0	2.5	blank	1.0	316.69220089912415	
71	300.30300760269165	movie	1		300	69.0	2.5	blank	1.0	317.1078345775604	2.5003745555877686
71	301.48708844184875	pulse	1	t		69.0	2.5	blank	1.0	318.29191541671753	
71	302.8033821582794	fix_post	2		12	69.0	2.5	blank	1.0	319.6082091331482	0.10002851486206055
72	302.9034106731415	fix_pre	0		120	70.0	2.5	/experiments/Knapen_AOT/AOT_stimuli/rescaled_final/2014_fw.mp4	0.0	319.70823764801025	1.00846529006958
72	303.0870156288147	pulse	0	t		70.0	2.5	/experiments/Knapen_AOT/AOT_stimuli/rescaled_final/2014_fw.mp4	0.0	319.8918426036835	
72	303.91187596321106	movie	1		291	70.0	2.5	/experiments/Knapen_AOT/AOT_stimuli/rescaled_final/2014_fw.mp4	0.0	320.71670293807983	2.4920709133148193
72	304.68527245521545	pulse	1	t		70.0	2.5	/experiments/Knapen_AOT/AOT_stimuli/rescaled_final/2014_fw.mp4	0.0	321.49009943008423	
72	306.2856798171997	pulse	1	t		70.0	2.5	/experiments/Knapen_AOT/AOT_stimuli/rescaled_final/2014_fw.mp4	0.0	323.0905067920685	
72	306.4039468765259	fix_post	2		12	70.0	2.5	/experiments/Knapen_AOT/AOT_stimuli/rescaled_final/2014_fw.mp4	0.0	323.20877385139465	0.100006103515625
73	306.5039529800415	fix_pre	0		120	71.0	2.5	/experiments/Knapen_AOT/AOT_stimuli/rescaled_final/0769_rv.mp4	0.0	323.3087799549103	1.008535385131836
73	307.51248836517334	movie	1		290	71.0	2.5	/experiments/Knapen_AOT/AOT_stimuli/rescaled_final/0769_rv.mp4	0.0	324.3173153400421	2.4919838905334473
73	307.8878231048584	pulse	1	t		71.0	2.5	/experiments/Knapen_AOT/AOT_stimuli/rescaled_final/0769_rv.mp4	0.0	324.6926500797272	
73	309.4860029220581	pulse	1	t		71.0	2.5	/experiments/Knapen_AOT/AOT_stimuli/rescaled_final/0769_rv.mp4	0.0	326.2908298969269	
73	310.0044722557068	fix_post	2		12	71.0	2.5	/experiments/Knapen_AOT/AOT_stimuli/rescaled_final/0769_rv.mp4	0.0	326.80929923057556	0.1000053882598877
74	310.1044776439667	fix_pre	0		119	72.0	2.5	/experiments/Knapen_AOT/AOT_stimuli/rescaled_final/0977_rv.mp4	0.0	326.90930461883545	1.000290870666504
74	311.088262796402	pulse	0	t		72.0	2.5	/experiments/Knapen_AOT/AOT_stimuli/rescaled_final/0977_rv.mp4	0.0	327.89308977127075	
74	311.1047685146332	movie	1		288	72.0	2.5	/experiments/Knapen_AOT/AOT_stimuli/rescaled_final/0977_rv.mp4	0.0	327.90959548950195	2.500250816345215
74	312.6869604587555	pulse	1	t		72.0	2.5	/experiments/Knapen_AOT/AOT_stimuli/rescaled_final/0977_rv.mp4	0.0	329.49178743362427	
74	313.6050193309784	fix_post	2		12	72.0	2.5	/experiments/Knapen_AOT/AOT_stimuli/rescaled_final/0977_rv.mp4	0.0	330.40984630584717	0.1000220775604248
75	313.7050414085388	fix_pre	0		120	73.0	2.5	/experiments/Knapen_AOT/AOT_stimuli/rescaled_final/1687_rv.mp4	0.0	330.5098683834076	1.0085432529449463
75	314.2892692089081	pulse	0	t		73.0	2.5	/experiments/Knapen_AOT/AOT_stimuli/rescaled_final/1687_rv.mp4	0.0	331.09409618377686	
75	314.71358466148376	movie	1		280	73.0	2.5	/experiments/Knapen_AOT/AOT_stimuli/rescaled_final/1687_rv.mp4	0.0	331.51841163635254	2.4919803142547607
75	315.8872780799866	pulse	1	t		73.0	2.5	/experiments/Knapen_AOT/AOT_stimuli/rescaled_final/1687_rv.mp4	0.0	332.69210505485535	
75	317.2055649757385	fix_post	2		12	73.0	2.5	/experiments/Knapen_AOT/AOT_stimuli/rescaled_final/1687_rv.mp4	0.0	334.0103919506073	0.10002660751342773
76	317.30559158325195	fix_pre	0		120	74.0	2.5	/experiments/Knapen_AOT/AOT_stimuli/rescaled_final/1588_rv.mp4	0.0	334.1104185581207	1.0084800720214844
76	317.48907685279846	pulse	0	t		74.0	2.5	/experiments/Knapen_AOT/AOT_stimuli/rescaled_final/1588_rv.mp4	0.0	334.29390382766724	
76	318.31407165527344	movie	1		288	74.0	2.5	/experiments/Knapen_AOT/AOT_stimuli/rescaled_final/1588_rv.mp4	0.0	335.1188986301422	2.4920217990875244
76	319.0872025489807	pulse	1	t		74.0	2.5	/experiments/Knapen_AOT/AOT_stimuli/rescaled_final/1588_rv.mp4	0.0	335.8920295238495	
76	320.6879963874817	pulse	1	t		74.0	2.5	/experiments/Knapen_AOT/AOT_stimuli/rescaled_final/1588_rv.mp4	0.0	337.49282336235046	
76	320.80609345436096	fix_post	2		12	74.0	2.5	/experiments/Knapen_AOT/AOT_stimuli/rescaled_final/1588_rv.mp4	0.0	337.61092042922974	0.10001206398010254
77	320.90610551834106	fix_pre	0		120	75.0	2.5	/experiments/Knapen_AOT/AOT_stimuli/rescaled_final/0704_rv.mp4	0.0	337.71093249320984	1.0085725784301758
77	321.91467809677124	movie	1		283	75.0	2.5	/experiments/Knapen_AOT/AOT_stimuli/rescaled_final/0704_rv.mp4	0.0	338.71950507164	2.4919421672821045
77	322.2900631427765	pulse	1	t		75.0	2.5	/experiments/Knapen_AOT/AOT_stimuli/rescaled_final/0704_rv.mp4	0.0	339.09489011764526	
77	323.88865780830383	pulse	1	t		75.0	2.5	/experiments/Knapen_AOT/AOT_stimuli/rescaled_final/0704_rv.mp4	0.0	340.6934847831726	
77	324.40662026405334	fix_post	2		12	75.0	2.5	/experiments/Knapen_AOT/AOT_stimuli/rescaled_final/0704_rv.mp4	0.0	341.2114472389221	0.10003137588500977
78	324.50665163993835	fix_pre	0		119	76.0	2.5	blank	1.0	341.31147861480713	0.991828203201294
78	325.49042892456055	pulse	0	t		76.0	2.5	blank	1.0	342.2952558994293	
78	325.49847984313965	movie	1		301	76.0	2.5	blank	1.0	342.3033068180084	2.5087029933929443
78	327.0837640762329	pulse	1	t		76.0	2.5	blank	1.0	343.8885910511017	
78	328.0071828365326	fix_post	2		12	76.0	2.5	blank	1.0	344.81200981140137	0.10004973411560059
79	328.1072325706482	fix_pre	0		120	77.0	2.5	/experiments/Knapen_AOT/AOT_stimuli/rescaled_final/1986_fw.mp4	0.0	344.91205954551697	1.0084364414215088
79	328.69082021713257	pulse	0	t		77.0	2.5	/experiments/Knapen_AOT/AOT_stimuli/rescaled_final/1986_fw.mp4	0.0	345.49564719200134	
79	329.1156690120697	movie	1		279	77.0	2.5	/experiments/Knapen_AOT/AOT_stimuli/rescaled_final/1986_fw.mp4	0.0	345.9204959869385	2.4921255111694336
79	330.2893023490906	pulse	1	t		77.0	2.5	/experiments/Knapen_AOT/AOT_stimuli/rescaled_final/1986_fw.mp4	0.0	347.09412932395935	
79	331.60779452323914	fix_post	2		12	77.0	2.5	/experiments/Knapen_AOT/AOT_stimuli/rescaled_final/1986_fw.mp4	0.0	348.4126214981079	0.10004138946533203
80	331.70783591270447	fix_pre	0		120	78.0	2.5	/experiments/Knapen_AOT/AOT_stimuli/rescaled_final/2096_rv.mp4	0.0	348.51266288757324	1.0085196495056152
80	331.88304805755615	pulse	0	t		78.0	2.5	/experiments/Knapen_AOT/AOT_stimuli/rescaled_final/2096_rv.mp4	0.0	348.6878750324249	
80	332.7163555622101	movie	1		285	78.0	2.5	/experiments/Knapen_AOT/AOT_stimuli/rescaled_final/2096_rv.mp4	0.0	349.52118253707886	2.4919116497039795
80	333.48322057724	pulse	1	t		78.0	2.5	/experiments/Knapen_AOT/AOT_stimuli/rescaled_final/2096_rv.mp4	0.0	350.28804755210876	
80	335.08340668678284	pulse	1	t		78.0	2.5	/experiments/Knapen_AOT/AOT_stimuli/rescaled_final/2096_rv.mp4	0.0	351.8882336616516	
80	335.20826721191406	fix_post	2		12	78.0	2.5	/experiments/Knapen_AOT/AOT_stimuli/rescaled_final/2096_rv.mp4	0.0	352.01309418678284	0.10001635551452637
81	335.3082835674286	fix_pre	0		120	79.0	2.5	/experiments/Knapen_AOT/AOT_stimuli/rescaled_final/1801_fw.mp4	0.0	352.11311054229736	1.0085222721099854
81	336.3168058395386	movie	1		280	79.0	2.5	/experiments/Knapen_AOT/AOT_stimuli/rescaled_final/1801_fw.mp4	0.0	353.12163281440735	2.491994857788086
81	336.6838433742523	pulse	1	t		79.0	2.5	/experiments/Knapen_AOT/AOT_stimuli/rescaled_final/1801_fw.mp4	0.0	353.4886703491211	
81	338.2820842266083	pulse	1	t		79.0	2.5	/experiments/Knapen_AOT/AOT_stimuli/rescaled_final/1801_fw.mp4	0.0	355.08691120147705	
81	338.80880069732666	fix_post	2		12	79.0	2.5	/experiments/Knapen_AOT/AOT_stimuli/rescaled_final/1801_fw.mp4	0.0	355.61362767219543	0.10007929801940918
82	338.90887999534607	fix_pre	0		118	80.0	2.5	/experiments/Knapen_AOT/AOT_stimuli/rescaled_final/0687_fw.mp4	0.0	355.71370697021484	0.9917573928833008
82	339.88429403305054	pulse	0	t		80.0	2.5	/experiments/Knapen_AOT/AOT_stimuli/rescaled_final/0687_fw.mp4	0.0	356.6891210079193	
82	339.90063738822937	movie	1		291	80.0	2.5	/experiments/Knapen_AOT/AOT_stimuli/rescaled_final/0687_fw.mp4	0.0	356.70546436309814	2.500373363494873
82	341.4830813407898	pulse	1	t		80.0	2.5	/experiments/Knapen_AOT/AOT_stimuli/rescaled_final/0687_fw.mp4	0.0	358.28790831565857	
82	342.40101075172424	fix_post	2		12	80.0	2.5	/experiments/Knapen_AOT/AOT_stimuli/rescaled_final/0687_fw.mp4	0.0	359.205837726593	0.10003089904785156
83	342.5010416507721	fix_pre	0		120	81.0	2.5	/experiments/Knapen_AOT/AOT_stimuli/rescaled_final/0806_rv.mp4	0.0	359.30586862564087	1.0085248947143555
83	343.0846965312958	pulse	0	t		81.0	2.5	/experiments/Knapen_AOT/AOT_stimuli/rescaled_final/0806_rv.mp4	0.0	359.88952350616455	
83	343.50956654548645	movie	1		282	81.0	2.5	/experiments/Knapen_AOT/AOT_stimuli/rescaled_final/0806_rv.mp4	0.0	360.3143935203552	2.492043972015381
83	344.68504309654236	pulse	1	t		81.0	2.5	/experiments/Knapen_AOT/AOT_stimuli/rescaled_final/0806_rv.mp4	0.0	361.48987007141113	
83	346.00161051750183	fix_post	2		12	81.0	2.5	/experiments/Knapen_AOT/AOT_stimuli/rescaled_final/0806_rv.mp4	0.0	362.8064374923706	0.0999593734741211
84	346.10156989097595	fix_pre	0		120	82.0	2.5	/experiments/Knapen_AOT/AOT_stimuli/rescaled_final/2064_fw.mp4	0.0	362.9063968658447	1.0085697174072266
84	346.28511691093445	pulse	0	t		82.0	2.5	/experiments/Knapen_AOT/AOT_stimuli/rescaled_final/2064_fw.mp4	0.0	363.0899438858032	
84	347.1101396083832	movie	1		283	82.0	2.5	/experiments/Knapen_AOT/AOT_stimuli/rescaled_final/2064_fw.mp4	0.0	363.91496658325195	2.4919722080230713
84	347.884441614151	pulse	1	t		82.0	2.5	/experiments/Knapen_AOT/AOT_stimuli/rescaled_final/2064_fw.mp4	0.0	364.6892685890198	
84	349.48358726501465	pulse	1	t		82.0	2.5	/experiments/Knapen_AOT/AOT_stimuli/rescaled_final/2064_fw.mp4	0.0	366.2884142398834	
84	349.60211181640625	fix_post	2		12	82.0	2.5	/experiments/Knapen_AOT/AOT_stimuli/rescaled_final/2064_fw.mp4	0.0	366.406938791275	0.10002684593200684
85	349.70213866233826	fix_pre	0		120	83.0	2.5	blank	1.0	366.50696563720703	1.000166416168213
85	350.70230507850647	movie	1		300	83.0	2.5	blank	1.0	367.50713205337524	2.5003228187561035
85	351.0858561992645	pulse	1	t		83.0	2.5	blank	1.0	367.8906831741333	
85	352.68611311912537	pulse	1	t		83.0	2.5	blank	1.0	369.49094009399414	
85	353.2026278972626	fix_post	2		12	83.0	2.5	blank	1.0	370.00745487213135	0.10007476806640625
87	353.302702665329	stim	0		1715					370.10752964019775	14.293800830841064
87	354.28688859939575	pulse	0	t						371.0917155742645	
87	355.8868260383606	pulse	0	t						372.69165301322937	
87	357.4874482154846	pulse	0	t						374.2922751903534	
87	359.08733916282654	pulse	0	t						375.8921661376953	
87	360.68791937828064	pulse	0	t						377.4927463531494	
87	362.2875802516937	pulse	0	t						379.0924072265625	
87	363.8879313468933	pulse	0	t						380.6927583217621	
87	365.48803305625916	pulse	0	t						382.29286003112793	
87	367.08830070495605	pulse	0	t						383.89312767982483	
