trial_nr	onset	event_type	phase	response	nr_frames	movie_index	movie_duration	movie_file	blank	onset_abs	duration
0	0.16666603088378906	stim	0		10					17.911765336990356	0.08309388160705566
0	0.24166083335876465	response	0	space						17.986760139465332	
1	0.24975991249084473	stim	0		4690					17.994859218597412	39.09950399398804
1	39.3393874168396	pulse	0	t						57.08448672294617	
1	39.34926390647888	stim	1		1715					57.09436321258545	14.300200939178467
1	40.922776222229004	pulse	1	t						58.66787552833557	
1	42.52306771278381	pulse	1	t						60.26816701889038	
1	44.123393297195435	pulse	1	t						61.868492603302	
1	45.72349238395691	pulse	1	t						63.46859169006348	
1	47.32370686531067	pulse	1	t						65.06880617141724	
1	48.92407011985779	pulse	1	t						66.66916942596436	
1	50.52414560317993	pulse	1	t						68.2692449092865	
1	52.12441945075989	pulse	1	t						69.86951875686646	
2	53.64946484565735	fix_pre	0		10	0.0	2.5	/experiments/knapen_AOT/AOT_stimuli/rescaled_final/0799_rv.mp4	0.0	71.39456415176392	0.10005640983581543
2	53.724730253219604	pulse	0	t		0.0	2.5	/experiments/knapen_AOT/AOT_stimuli/rescaled_final/0799_rv.mp4	0.0	71.46982955932617	
2	53.749521255493164	movie	1		291	0.0	2.5	/experiments/knapen_AOT/AOT_stimuli/rescaled_final/0799_rv.mp4	0.0	71.49462056159973	2.4919984340667725
2	55.32327461242676	pulse	1	t		0.0	2.5	/experiments/knapen_AOT/AOT_stimuli/rescaled_final/0799_rv.mp4	0.0	73.06837391853333	
2	56.24151968955994	fix_post	2		12	0.0	2.5	/experiments/knapen_AOT/AOT_stimuli/rescaled_final/0799_rv.mp4	0.0	73.9866189956665	0.1000220775604248
3	56.34154176712036	fix_pre	0		120	1.0	2.5	/experiments/knapen_AOT/AOT_stimuli/rescaled_final/0426_fw.mp4	0.0	74.08664107322693	1.008531093597412
3	56.92515254020691	pulse	0	t		1.0	2.5	/experiments/knapen_AOT/AOT_stimuli/rescaled_final/0426_fw.mp4	0.0	74.67025184631348	
3	57.35007286071777	movie	1		285	1.0	2.5	/experiments/knapen_AOT/AOT_stimuli/rescaled_final/0426_fw.mp4	0.0	75.09517216682434	2.4919989109039307
3	58.523441314697266	pulse	1	t		1.0	2.5	/experiments/knapen_AOT/AOT_stimuli/rescaled_final/0426_fw.mp4	0.0	76.26854062080383	
3	59.842071771621704	fix_post	2		12	1.0	2.5	/experiments/knapen_AOT/AOT_stimuli/rescaled_final/0426_fw.mp4	0.0	77.58717107772827	0.10000801086425781
4	59.94207978248596	fix_pre	0		120	2.0	2.5	/experiments/knapen_AOT/AOT_stimuli/rescaled_final/1463_rv.mp4	0.0	77.68717908859253	1.0085148811340332
4	60.125617265701294	pulse	0	t		2.0	2.5	/experiments/knapen_AOT/AOT_stimuli/rescaled_final/1463_rv.mp4	0.0	77.87071657180786	
4	60.950594663619995	movie	1		279	2.0	2.5	/experiments/knapen_AOT/AOT_stimuli/rescaled_final/1463_rv.mp4	0.0	78.69569396972656	2.4920566082000732
4	61.72710466384888	pulse	1	t		2.0	2.5	/experiments/knapen_AOT/AOT_stimuli/rescaled_final/1463_rv.mp4	0.0	79.47220396995544	
4	63.32438659667969	pulse	1	t		2.0	2.5	/experiments/knapen_AOT/AOT_stimuli/rescaled_final/1463_rv.mp4	0.0	81.06948590278625	
4	63.44265127182007	fix_post	2		12	2.0	2.5	/experiments/knapen_AOT/AOT_stimuli/rescaled_final/1463_rv.mp4	0.0	81.18775057792664	0.09996414184570312
5	63.54261541366577	fix_pre	0		120	3.0	2.5	/experiments/knapen_AOT/AOT_stimuli/rescaled_final/0468_rv.mp4	0.0	81.28771471977234	1.0086302757263184
5	64.55124568939209	movie	1		281	3.0	2.5	/experiments/knapen_AOT/AOT_stimuli/rescaled_final/0468_rv.mp4	0.0	82.29634499549866	2.4918980598449707
5	64.92539548873901	pulse	1	t		3.0	2.5	/experiments/knapen_AOT/AOT_stimuli/rescaled_final/0468_rv.mp4	0.0	82.67049479484558	
5	66.52688765525818	pulse	1	t		3.0	2.5	/experiments/knapen_AOT/AOT_stimuli/rescaled_final/0468_rv.mp4	0.0	84.27198696136475	
5	67.04314374923706	fix_post	2		12	3.0	2.5	/experiments/knapen_AOT/AOT_stimuli/rescaled_final/0468_rv.mp4	0.0	84.78824305534363	0.10001683235168457
6	67.14316058158875	fix_pre	0		119	4.0	2.5	/experiments/knapen_AOT/AOT_stimuli/rescaled_final/0663_rv.mp4	0.0	84.88825988769531	1.0001921653747559
6	68.12684535980225	pulse	0	t		4.0	2.5	/experiments/knapen_AOT/AOT_stimuli/rescaled_final/0663_rv.mp4	0.0	85.87194466590881	
6	68.1433527469635	movie	1		286	4.0	2.5	/experiments/knapen_AOT/AOT_stimuli/rescaled_final/0663_rv.mp4	0.0	85.88845205307007	2.5004072189331055
6	69.72537755966187	pulse	1	t		4.0	2.5	/experiments/knapen_AOT/AOT_stimuli/rescaled_final/0663_rv.mp4	0.0	87.47047686576843	
6	70.6437599658966	fix_post	2		12	4.0	2.5	/experiments/knapen_AOT/AOT_stimuli/rescaled_final/0663_rv.mp4	0.0	88.38885927200317	0.10003900527954102
7	70.74379897117615	fix_pre	0		120	5.0	2.5	/experiments/knapen_AOT/AOT_stimuli/rescaled_final/0288_rv.mp4	0.0	88.48889827728271	1.008413314819336
7	71.32735753059387	pulse	0	t		5.0	2.5	/experiments/knapen_AOT/AOT_stimuli/rescaled_final/0288_rv.mp4	0.0	89.07245683670044	
7	71.75221228599548	movie	1		278	5.0	2.5	/experiments/knapen_AOT/AOT_stimuli/rescaled_final/0288_rv.mp4	0.0	89.49731159210205	2.49202299118042
7	72.92564558982849	pulse	1	t		5.0	2.5	/experiments/knapen_AOT/AOT_stimuli/rescaled_final/0288_rv.mp4	0.0	90.67074489593506	
7	74.2442352771759	fix_post	2		12	5.0	2.5	/experiments/knapen_AOT/AOT_stimuli/rescaled_final/0288_rv.mp4	0.0	91.98933458328247	0.10000991821289062
8	74.3442451953888	fix_pre	0		120	6.0	2.5	blank	1.0	92.08934450149536	1.0001945495605469
8	74.52815103530884	pulse	0	t		6.0	2.5	blank	1.0	92.2732503414154	
8	75.34443974494934	movie	1		300	6.0	2.5	blank	1.0	93.08953905105591	2.5003271102905273
8	76.12861180305481	pulse	1	t		6.0	2.5	blank	1.0	93.87371110916138	
8	77.72854399681091	pulse	1	t		6.0	2.5	blank	1.0	95.47364330291748	
8	77.84476685523987	fix_post	2		12	6.0	2.5	blank	1.0	95.58986616134644	0.1000206470489502
9	77.94478750228882	fix_pre	0		120	7.0	2.5	/experiments/knapen_AOT/AOT_stimuli/rescaled_final/0578_rv.mp4	0.0	95.68988680839539	1.0084896087646484
9	78.95327711105347	movie	1		289	7.0	2.5	/experiments/knapen_AOT/AOT_stimuli/rescaled_final/0578_rv.mp4	0.0	96.69837641716003	2.4920668601989746
9	79.32677435874939	pulse	1	t		7.0	2.5	/experiments/knapen_AOT/AOT_stimuli/rescaled_final/0578_rv.mp4	0.0	97.07187366485596	
9	80.92654180526733	pulse	1	t		7.0	2.5	/experiments/knapen_AOT/AOT_stimuli/rescaled_final/0578_rv.mp4	0.0	98.6716411113739	
9	81.44534397125244	fix_post	2		12	7.0	2.5	/experiments/knapen_AOT/AOT_stimuli/rescaled_final/0578_rv.mp4	0.0	99.19044327735901	0.1000373363494873
10	81.54538130760193	fix_pre	0		119	8.0	2.5	/experiments/knapen_AOT/AOT_stimuli/rescaled_final/1907_rv.mp4	0.0	99.2904806137085	1.0001442432403564
10	82.52907156944275	pulse	0	t		8.0	2.5	/experiments/knapen_AOT/AOT_stimuli/rescaled_final/1907_rv.mp4	0.0	100.27417087554932	
10	82.54552555084229	movie	1		291	8.0	2.5	/experiments/knapen_AOT/AOT_stimuli/rescaled_final/1907_rv.mp4	0.0	100.29062485694885	2.5003209114074707
10	84.12792134284973	pulse	1	t		8.0	2.5	/experiments/knapen_AOT/AOT_stimuli/rescaled_final/1907_rv.mp4	0.0	101.8730206489563	
10	85.04584646224976	fix_post	2		12	8.0	2.5	/experiments/knapen_AOT/AOT_stimuli/rescaled_final/1907_rv.mp4	0.0	102.79094576835632	0.10002660751342773
11	85.14587306976318	fix_pre	0		120	9.0	2.5	/experiments/knapen_AOT/AOT_stimuli/rescaled_final/1946_rv.mp4	0.0	102.89097237586975	1.0085790157318115
11	85.72975611686707	pulse	0	t		9.0	2.5	/experiments/knapen_AOT/AOT_stimuli/rescaled_final/1946_rv.mp4	0.0	103.47485542297363	
11	86.154452085495	movie	1		282	9.0	2.5	/experiments/knapen_AOT/AOT_stimuli/rescaled_final/1946_rv.mp4	0.0	103.89955139160156	2.491997480392456
11	87.32837128639221	pulse	1	t		9.0	2.5	/experiments/knapen_AOT/AOT_stimuli/rescaled_final/1946_rv.mp4	0.0	105.07347059249878	
11	88.64644956588745	fix_post	2		12	9.0	2.5	/experiments/knapen_AOT/AOT_stimuli/rescaled_final/1946_rv.mp4	0.0	106.39154887199402	0.10002946853637695
12	88.74647903442383	fix_pre	0		120	10.0	2.5	/experiments/knapen_AOT/AOT_stimuli/rescaled_final/0288_rv.mp4	0.0	106.4915783405304	1.0084681510925293
12	88.92287302017212	pulse	0	t		10.0	2.5	/experiments/knapen_AOT/AOT_stimuli/rescaled_final/0288_rv.mp4	0.0	106.66797232627869	
12	89.75494718551636	movie	1		279	10.0	2.5	/experiments/knapen_AOT/AOT_stimuli/rescaled_final/0288_rv.mp4	0.0	107.50004649162292	2.4919912815093994
12	90.52795767784119	pulse	1	t		10.0	2.5	/experiments/knapen_AOT/AOT_stimuli/rescaled_final/0288_rv.mp4	0.0	108.27305698394775	
12	92.12903451919556	pulse	1	t		10.0	2.5	/experiments/knapen_AOT/AOT_stimuli/rescaled_final/0288_rv.mp4	0.0	109.87413382530212	
12	92.24693846702576	fix_post	2		12	10.0	2.5	/experiments/knapen_AOT/AOT_stimuli/rescaled_final/0288_rv.mp4	0.0	109.99203777313232	0.100006103515625
13	92.34694457054138	fix_pre	0		120	11.0	2.5	/experiments/knapen_AOT/AOT_stimuli/rescaled_final/1042_rv.mp4	0.0	110.09204387664795	1.008497714996338
13	93.35544228553772	movie	1		291	11.0	2.5	/experiments/knapen_AOT/AOT_stimuli/rescaled_final/1042_rv.mp4	0.0	111.10054159164429	2.4920403957366943
13	93.72266292572021	pulse	1	t		11.0	2.5	/experiments/knapen_AOT/AOT_stimuli/rescaled_final/1042_rv.mp4	0.0	111.46776223182678	
13	95.32265615463257	pulse	1	t		11.0	2.5	/experiments/knapen_AOT/AOT_stimuli/rescaled_final/1042_rv.mp4	0.0	113.06775546073914	
13	95.84748268127441	fix_post	2		12	11.0	2.5	/experiments/knapen_AOT/AOT_stimuli/rescaled_final/1042_rv.mp4	0.0	113.59258198738098	0.10014796257019043
14	95.9476306438446	fix_pre	0		118	12.0	2.5	/experiments/knapen_AOT/AOT_stimuli/rescaled_final/1412_fw.mp4	0.0	113.69272994995117	0.9917075634002686
14	96.9228777885437	pulse	0	t		12.0	2.5	/experiments/knapen_AOT/AOT_stimuli/rescaled_final/1412_fw.mp4	0.0	114.66797709465027	
14	96.93933820724487	movie	1		293	12.0	2.5	/experiments/knapen_AOT/AOT_stimuli/rescaled_final/1412_fw.mp4	0.0	114.68443751335144	2.5003771781921387
14	98.52316546440125	pulse	1	t		12.0	2.5	/experiments/knapen_AOT/AOT_stimuli/rescaled_final/1412_fw.mp4	0.0	116.26826477050781	
14	99.43971538543701	fix_post	2		12	12.0	2.5	/experiments/knapen_AOT/AOT_stimuli/rescaled_final/1412_fw.mp4	0.0	117.18481469154358	0.1000375747680664
15	99.53975296020508	fix_pre	0		120	13.0	2.5	blank	1.0	117.28485226631165	1.000159502029419
15	100.1233263015747	pulse	0	t		13.0	2.5	blank	1.0	117.86842560768127	
15	100.5399124622345	movie	1		300	13.0	2.5	blank	1.0	118.28501176834106	2.500314712524414
15	101.72356867790222	pulse	1	t		13.0	2.5	blank	1.0	119.46866798400879	
15	103.04022717475891	fix_post	2		12	13.0	2.5	blank	1.0	120.78532648086548	0.1000206470489502
16	103.14024782180786	fix_pre	0		120	14.0	2.5	/experiments/knapen_AOT/AOT_stimuli/rescaled_final/1024_fw.mp4	0.0	120.88534712791443	1.0084950923919678
16	103.32381963729858	pulse	0	t		14.0	2.5	/experiments/knapen_AOT/AOT_stimuli/rescaled_final/1024_fw.mp4	0.0	121.06891894340515	
16	104.14874291419983	movie	1		289	14.0	2.5	/experiments/knapen_AOT/AOT_stimuli/rescaled_final/1024_fw.mp4	0.0	121.8938422203064	2.492032766342163
16	104.92405366897583	pulse	1	t		14.0	2.5	/experiments/knapen_AOT/AOT_stimuli/rescaled_final/1024_fw.mp4	0.0	122.6691529750824	
16	106.52430558204651	pulse	1	t		14.0	2.5	/experiments/knapen_AOT/AOT_stimuli/rescaled_final/1024_fw.mp4	0.0	124.26940488815308	
16	106.64077568054199	fix_post	2		12	14.0	2.5	/experiments/knapen_AOT/AOT_stimuli/rescaled_final/1024_fw.mp4	0.0	124.38587498664856	0.10004925727844238
17	106.74082493782043	fix_pre	0		120	15.0	2.5	/experiments/knapen_AOT/AOT_stimuli/rescaled_final/0700_fw.mp4	0.0	124.485924243927	1.0084967613220215
17	107.74932169914246	movie	1		291	15.0	2.5	/experiments/knapen_AOT/AOT_stimuli/rescaled_final/0700_fw.mp4	0.0	125.49442100524902	2.492008924484253
17	108.12338948249817	pulse	1	t		15.0	2.5	/experiments/knapen_AOT/AOT_stimuli/rescaled_final/0700_fw.mp4	0.0	125.86848878860474	
17	109.72277116775513	pulse	1	t		15.0	2.5	/experiments/knapen_AOT/AOT_stimuli/rescaled_final/0700_fw.mp4	0.0	127.4678704738617	
17	110.24133062362671	fix_post	2		12	15.0	2.5	/experiments/knapen_AOT/AOT_stimuli/rescaled_final/0700_fw.mp4	0.0	127.98642992973328	0.1000063419342041
18	110.34133696556091	fix_pre	0		119	16.0	2.5	/experiments/knapen_AOT/AOT_stimuli/rescaled_final/1790_fw.mp4	0.0	128.08643627166748	1.0001444816589355
18	111.32500195503235	pulse	0	t		16.0	2.5	/experiments/knapen_AOT/AOT_stimuli/rescaled_final/1790_fw.mp4	0.0	129.07010126113892	
18	111.34148144721985	movie	1		292	16.0	2.5	/experiments/knapen_AOT/AOT_stimuli/rescaled_final/1790_fw.mp4	0.0	129.08658075332642	2.5003724098205566
18	112.92370009422302	pulse	1	t		16.0	2.5	/experiments/knapen_AOT/AOT_stimuli/rescaled_final/1790_fw.mp4	0.0	130.6687994003296	
18	113.8418538570404	fix_post	2		12	16.0	2.5	/experiments/knapen_AOT/AOT_stimuli/rescaled_final/1790_fw.mp4	0.0	131.58695316314697	0.1000223159790039
19	113.94187617301941	fix_pre	0		120	17.0	2.5	/experiments/knapen_AOT/AOT_stimuli/rescaled_final/2067_fw.mp4	0.0	131.68697547912598	1.008507490158081
19	114.52556920051575	pulse	0	t		17.0	2.5	/experiments/knapen_AOT/AOT_stimuli/rescaled_final/2067_fw.mp4	0.0	132.27066850662231	
19	114.95038366317749	movie	1		287	17.0	2.5	/experiments/knapen_AOT/AOT_stimuli/rescaled_final/2067_fw.mp4	0.0	132.69548296928406	2.492053508758545
19	116.1235420703888	pulse	1	t		17.0	2.5	/experiments/knapen_AOT/AOT_stimuli/rescaled_final/2067_fw.mp4	0.0	133.86864137649536	
19	117.44243717193604	fix_post	2		12	17.0	2.5	/experiments/knapen_AOT/AOT_stimuli/rescaled_final/2067_fw.mp4	0.0	135.1875364780426	0.09999775886535645
20	117.54243493080139	fix_pre	0		120	18.0	2.5	/experiments/knapen_AOT/AOT_stimuli/rescaled_final/0381_fw.mp4	0.0	135.28753423690796	1.008470058441162
20	117.72602558135986	pulse	0	t		18.0	2.5	/experiments/knapen_AOT/AOT_stimuli/rescaled_final/0381_fw.mp4	0.0	135.47112488746643	
20	118.55090498924255	movie	1		287	18.0	2.5	/experiments/knapen_AOT/AOT_stimuli/rescaled_final/0381_fw.mp4	0.0	136.29600429534912	2.4922006130218506
20	119.32402300834656	pulse	1	t		18.0	2.5	/experiments/knapen_AOT/AOT_stimuli/rescaled_final/0381_fw.mp4	0.0	137.06912231445312	
20	120.92426562309265	pulse	1	t		18.0	2.5	/experiments/knapen_AOT/AOT_stimuli/rescaled_final/0381_fw.mp4	0.0	138.66936492919922	
20	121.0431056022644	fix_post	2		12	18.0	2.5	/experiments/knapen_AOT/AOT_stimuli/rescaled_final/0381_fw.mp4	0.0	138.78820490837097	0.09984993934631348
21	121.14295554161072	fix_pre	0		120	19.0	2.5	blank	1.0	138.88805484771729	1.0001602172851562
21	122.14311575889587	movie	1		300	19.0	2.5	blank	1.0	139.88821506500244	2.5003538131713867
21	122.52678489685059	pulse	1	t		19.0	2.5	blank	1.0	140.27188420295715	
21	124.1269018650055	pulse	1	t		19.0	2.5	blank	1.0	141.87200117111206	
21	124.64346957206726	fix_post	2		12	19.0	2.5	blank	1.0	142.38856887817383	0.10002493858337402
22	124.74349451065063	fix_pre	0		119	20.0	2.5	/experiments/knapen_AOT/AOT_stimuli/rescaled_final/1422_fw.mp4	0.0	142.4885938167572	1.0001840591430664
22	125.72719025611877	pulse	0	t		20.0	2.5	/experiments/knapen_AOT/AOT_stimuli/rescaled_final/1422_fw.mp4	0.0	143.47228956222534	
22	125.7436785697937	movie	1		290	20.0	2.5	/experiments/knapen_AOT/AOT_stimuli/rescaled_final/1422_fw.mp4	0.0	143.48877787590027	2.500335454940796
22	127.32643508911133	pulse	1	t		20.0	2.5	/experiments/knapen_AOT/AOT_stimuli/rescaled_final/1422_fw.mp4	0.0	145.0715343952179	
22	128.2440140247345	fix_post	2		12	20.0	2.5	/experiments/knapen_AOT/AOT_stimuli/rescaled_final/1422_fw.mp4	0.0	145.98911333084106	0.1000375747680664
23	128.34405159950256	fix_pre	0		120	21.0	2.5	/experiments/knapen_AOT/AOT_stimuli/rescaled_final/1975_fw.mp4	0.0	146.08915090560913	1.0084760189056396
23	128.92777132987976	pulse	0	t		21.0	2.5	/experiments/knapen_AOT/AOT_stimuli/rescaled_final/1975_fw.mp4	0.0	146.67287063598633	
23	129.3525276184082	movie	1		287	21.0	2.5	/experiments/knapen_AOT/AOT_stimuli/rescaled_final/1975_fw.mp4	0.0	147.09762692451477	2.492030143737793
23	130.525874376297	pulse	1	t		21.0	2.5	/experiments/knapen_AOT/AOT_stimuli/rescaled_final/1975_fw.mp4	0.0	148.27097368240356	
23	131.844557762146	fix_post	2		12	21.0	2.5	/experiments/knapen_AOT/AOT_stimuli/rescaled_final/1975_fw.mp4	0.0	149.58965706825256	0.10005807876586914
24	131.94461584091187	fix_pre	0		120	22.0	2.5	/experiments/knapen_AOT/AOT_stimuli/rescaled_final/0183_rv.mp4	0.0	149.68971514701843	1.0085699558258057
24	132.12813544273376	pulse	0	t		22.0	2.5	/experiments/knapen_AOT/AOT_stimuli/rescaled_final/0183_rv.mp4	0.0	149.87323474884033	
24	132.95318579673767	movie	1		288	22.0	2.5	/experiments/knapen_AOT/AOT_stimuli/rescaled_final/0183_rv.mp4	0.0	150.69828510284424	2.4919252395629883
24	133.72615003585815	pulse	1	t		22.0	2.5	/experiments/knapen_AOT/AOT_stimuli/rescaled_final/0183_rv.mp4	0.0	151.47124934196472	
24	135.32644724845886	pulse	1	t		22.0	2.5	/experiments/knapen_AOT/AOT_stimuli/rescaled_final/0183_rv.mp4	0.0	153.07154655456543	
24	135.44511103630066	fix_post	2		12	22.0	2.5	/experiments/knapen_AOT/AOT_stimuli/rescaled_final/0183_rv.mp4	0.0	153.19021034240723	0.1000361442565918
25	135.54514718055725	fix_pre	0		120	23.0	2.5	/experiments/knapen_AOT/AOT_stimuli/rescaled_final/1582_fw.mp4	0.0	153.29024648666382	1.0084757804870605
25	136.5536229610443	movie	1		279	23.0	2.5	/experiments/knapen_AOT/AOT_stimuli/rescaled_final/1582_fw.mp4	0.0	154.29872226715088	2.4920296669006348
25	136.9271252155304	pulse	1	t		23.0	2.5	/experiments/knapen_AOT/AOT_stimuli/rescaled_final/1582_fw.mp4	0.0	154.67222452163696	
25	138.52677822113037	pulse	1	t		23.0	2.5	/experiments/knapen_AOT/AOT_stimuli/rescaled_final/1582_fw.mp4	0.0	156.27187752723694	
25	139.04565262794495	fix_post	2		12	23.0	2.5	/experiments/knapen_AOT/AOT_stimuli/rescaled_final/1582_fw.mp4	0.0	156.7907519340515	0.10001158714294434
26	139.1456642150879	fix_pre	0		119	24.0	2.5	/experiments/knapen_AOT/AOT_stimuli/rescaled_final/0775_rv.mp4	0.0	156.89076352119446	1.0001499652862549
26	140.1296148300171	pulse	0	t		24.0	2.5	/experiments/knapen_AOT/AOT_stimuli/rescaled_final/0775_rv.mp4	0.0	157.87471413612366	
26	140.14581418037415	movie	1		288	24.0	2.5	/experiments/knapen_AOT/AOT_stimuli/rescaled_final/0775_rv.mp4	0.0	157.8909134864807	2.5004019737243652
26	141.7277011871338	pulse	1	t		24.0	2.5	/experiments/knapen_AOT/AOT_stimuli/rescaled_final/0775_rv.mp4	0.0	159.47280049324036	
26	142.6462161540985	fix_post	2		12	24.0	2.5	/experiments/knapen_AOT/AOT_stimuli/rescaled_final/0775_rv.mp4	0.0	160.39131546020508	0.09994792938232422
27	142.74616408348083	fix_pre	0		120	25.0	2.5	/experiments/knapen_AOT/AOT_stimuli/rescaled_final/2092_fw.mp4	0.0	160.4912633895874	1.0085463523864746
27	143.32986211776733	pulse	0	t		25.0	2.5	/experiments/knapen_AOT/AOT_stimuli/rescaled_final/2092_fw.mp4	0.0	161.0749614238739	
27	143.7547104358673	movie	1		289	25.0	2.5	/experiments/knapen_AOT/AOT_stimuli/rescaled_final/2092_fw.mp4	0.0	161.49980974197388	2.4920120239257812
27	144.9282500743866	pulse	1	t		25.0	2.5	/experiments/knapen_AOT/AOT_stimuli/rescaled_final/2092_fw.mp4	0.0	162.67334938049316	
27	146.2467224597931	fix_post	2		12	25.0	2.5	/experiments/knapen_AOT/AOT_stimuli/rescaled_final/2092_fw.mp4	0.0	163.99182176589966	0.1000669002532959
28	146.3467893600464	fix_pre	0		120	26.0	2.5	blank	1.0	164.09188866615295	1.0001277923583984
28	146.53028416633606	pulse	0	t		26.0	2.5	blank	1.0	164.27538347244263	
28	147.34691715240479	movie	1		300	26.0	2.5	blank	1.0	165.09201645851135	2.5003552436828613
28	148.13052678108215	pulse	1	t		26.0	2.5	blank	1.0	165.87562608718872	
28	149.72296738624573	pulse	1	t		26.0	2.5	blank	1.0	167.4680666923523	
28	149.84727239608765	fix_post	2		12	26.0	2.5	blank	1.0	167.5923717021942	0.10007405281066895
29	149.94734644889832	fix_pre	0		120	27.0	2.5	/experiments/knapen_AOT/AOT_stimuli/rescaled_final/1180_fw.mp4	0.0	167.69244575500488	1.0084333419799805
29	150.9557797908783	movie	1		280	27.0	2.5	/experiments/knapen_AOT/AOT_stimuli/rescaled_final/1180_fw.mp4	0.0	168.70087909698486	2.4920268058776855
29	151.32302689552307	pulse	1	t		27.0	2.5	/experiments/knapen_AOT/AOT_stimuli/rescaled_final/1180_fw.mp4	0.0	169.06812620162964	
29	152.92343378067017	pulse	1	t		27.0	2.5	/experiments/knapen_AOT/AOT_stimuli/rescaled_final/1180_fw.mp4	0.0	170.66853308677673	
29	153.44780659675598	fix_post	2		12	27.0	2.5	/experiments/knapen_AOT/AOT_stimuli/rescaled_final/1180_fw.mp4	0.0	171.19290590286255	0.10000729560852051
30	153.5478138923645	fix_pre	0		118	28.0	2.5	/experiments/knapen_AOT/AOT_stimuli/rescaled_final/1024_fw.mp4	0.0	171.29291319847107	0.9918324947357178
30	154.52334427833557	pulse	0	t		28.0	2.5	/experiments/knapen_AOT/AOT_stimuli/rescaled_final/1024_fw.mp4	0.0	172.26844358444214	
30	154.53964638710022	movie	1		275	28.0	2.5	/experiments/knapen_AOT/AOT_stimuli/rescaled_final/1024_fw.mp4	0.0	172.2847456932068	2.50036883354187
30	156.12352204322815	pulse	1	t		28.0	2.5	/experiments/knapen_AOT/AOT_stimuli/rescaled_final/1024_fw.mp4	0.0	173.86862134933472	
30	157.0400152206421	fix_post	2		12	28.0	2.5	/experiments/knapen_AOT/AOT_stimuli/rescaled_final/1024_fw.mp4	0.0	174.78511452674866	0.10001969337463379
31	157.14003491401672	fix_pre	0		120	29.0	2.5	/experiments/knapen_AOT/AOT_stimuli/rescaled_final/1582_rv.mp4	0.0	174.8851342201233	1.0085070133209229
31	157.72366547584534	pulse	0	t		29.0	2.5	/experiments/knapen_AOT/AOT_stimuli/rescaled_final/1582_rv.mp4	0.0	175.4687647819519	
31	158.14854192733765	movie	1		284	29.0	2.5	/experiments/knapen_AOT/AOT_stimuli/rescaled_final/1582_rv.mp4	0.0	175.8936412334442	2.492128372192383
31	159.32393288612366	pulse	1	t		29.0	2.5	/experiments/knapen_AOT/AOT_stimuli/rescaled_final/1582_rv.mp4	0.0	177.06903219223022	
31	160.64067029953003	fix_post	2		12	29.0	2.5	/experiments/knapen_AOT/AOT_stimuli/rescaled_final/1582_rv.mp4	0.0	178.3857696056366	0.10001158714294434
32	160.74068188667297	fix_pre	0		120	30.0	2.5	/experiments/knapen_AOT/AOT_stimuli/rescaled_final/1915_rv.mp4	0.0	178.48578119277954	1.00840163230896
32	160.92427444458008	pulse	0	t		30.0	2.5	/experiments/knapen_AOT/AOT_stimuli/rescaled_final/1915_rv.mp4	0.0	178.66937375068665	
32	161.74908351898193	movie	1		284	30.0	2.5	/experiments/knapen_AOT/AOT_stimuli/rescaled_final/1915_rv.mp4	0.0	179.4941828250885	2.4920101165771484
32	162.52452301979065	pulse	1	t		30.0	2.5	/experiments/knapen_AOT/AOT_stimuli/rescaled_final/1915_rv.mp4	0.0	180.26962232589722	
32	164.12465929985046	pulse	1	t		30.0	2.5	/experiments/knapen_AOT/AOT_stimuli/rescaled_final/1915_rv.mp4	0.0	181.86975860595703	
32	164.24109363555908	fix_post	2		12	30.0	2.5	/experiments/knapen_AOT/AOT_stimuli/rescaled_final/1915_rv.mp4	0.0	181.98619294166565	0.1000204086303711
33	164.34111404418945	fix_pre	0		120	31.0	2.5	/experiments/knapen_AOT/AOT_stimuli/rescaled_final/1006_fw.mp4	0.0	182.08621335029602	1.0086112022399902
33	165.34972524642944	movie	1		288	31.0	2.5	/experiments/knapen_AOT/AOT_stimuli/rescaled_final/1006_fw.mp4	0.0	183.094824552536	2.4919238090515137
33	165.72393941879272	pulse	1	t		31.0	2.5	/experiments/knapen_AOT/AOT_stimuli/rescaled_final/1006_fw.mp4	0.0	183.4690387248993	
33	167.3251175880432	pulse	1	t		31.0	2.5	/experiments/knapen_AOT/AOT_stimuli/rescaled_final/1006_fw.mp4	0.0	185.07021689414978	
33	167.84164905548096	fix_post	2		12	31.0	2.5	/experiments/knapen_AOT/AOT_stimuli/rescaled_final/1006_fw.mp4	0.0	185.58674836158752	0.10018563270568848
34	167.94183468818665	fix_pre	0		119	32.0	2.5	/experiments/knapen_AOT/AOT_stimuli/rescaled_final/0970_rv.mp4	0.0	185.6869339942932	0.999976634979248
34	168.92534613609314	pulse	0	t		32.0	2.5	/experiments/knapen_AOT/AOT_stimuli/rescaled_final/0970_rv.mp4	0.0	186.6704454421997	
34	168.9418113231659	movie	1		290	32.0	2.5	/experiments/knapen_AOT/AOT_stimuli/rescaled_final/0970_rv.mp4	0.0	186.68691062927246	2.5003890991210938
34	170.5241813659668	pulse	1	t		32.0	2.5	/experiments/knapen_AOT/AOT_stimuli/rescaled_final/0970_rv.mp4	0.0	188.26928067207336	
34	171.442200422287	fix_post	2		12	32.0	2.5	/experiments/knapen_AOT/AOT_stimuli/rescaled_final/0970_rv.mp4	0.0	189.18729972839355	0.09999489784240723
35	171.5421953201294	fix_pre	0		120	33.0	2.5	/experiments/knapen_AOT/AOT_stimuli/rescaled_final/0173_rv.mp4	0.0	189.28729462623596	1.0085079669952393
35	172.12589287757874	pulse	0	t		33.0	2.5	/experiments/knapen_AOT/AOT_stimuli/rescaled_final/0173_rv.mp4	0.0	189.8709921836853	
35	172.55070328712463	movie	1		284	33.0	2.5	/experiments/knapen_AOT/AOT_stimuli/rescaled_final/0173_rv.mp4	0.0	190.2958025932312	2.4920833110809326
35	173.72400832176208	pulse	1	t		33.0	2.5	/experiments/knapen_AOT/AOT_stimuli/rescaled_final/0173_rv.mp4	0.0	191.46910762786865	
35	175.04278659820557	fix_post	2		12	33.0	2.5	/experiments/knapen_AOT/AOT_stimuli/rescaled_final/0173_rv.mp4	0.0	192.78788590431213	0.10001444816589355
36	175.14280104637146	fix_pre	0		120	34.0	2.5	blank	1.0	192.88790035247803	1.000077247619629
36	175.32635474205017	pulse	0	t		34.0	2.5	blank	1.0	193.07145404815674	
36	176.1428782939911	movie	1		300	34.0	2.5	blank	1.0	193.88797760009766	2.5003838539123535
36	176.92652869224548	pulse	1	t		34.0	2.5	blank	1.0	194.67162799835205	
36	178.52678084373474	pulse	1	t		34.0	2.5	blank	1.0	196.2718801498413	
36	178.64326214790344	fix_post	2		12	34.0	2.5	blank	1.0	196.38836145401	0.10021615028381348
37	178.74347829818726	fix_pre	0		120	35.0	2.5	/experiments/knapen_AOT/AOT_stimuli/rescaled_final/1186_fw.mp4	0.0	196.48857760429382	1.0083622932434082
37	179.75184059143066	movie	1		276	35.0	2.5	/experiments/knapen_AOT/AOT_stimuli/rescaled_final/1186_fw.mp4	0.0	197.49693989753723	2.491966485977173
37	180.12546110153198	pulse	1	t		35.0	2.5	/experiments/knapen_AOT/AOT_stimuli/rescaled_final/1186_fw.mp4	0.0	197.87056040763855	
37	181.72533535957336	pulse	1	t		35.0	2.5	/experiments/knapen_AOT/AOT_stimuli/rescaled_final/1186_fw.mp4	0.0	199.47043466567993	
37	182.24380707740784	fix_post	2		12	35.0	2.5	/experiments/knapen_AOT/AOT_stimuli/rescaled_final/1186_fw.mp4	0.0	199.9889063835144	0.10001754760742188
38	182.34382462501526	fix_pre	0		119	36.0	2.5	/experiments/knapen_AOT/AOT_stimuli/rescaled_final/0491_fw.mp4	0.0	200.08892393112183	1.0001747608184814
38	183.32757687568665	pulse	0	t		36.0	2.5	/experiments/knapen_AOT/AOT_stimuli/rescaled_final/0491_fw.mp4	0.0	201.0726761817932	
38	183.34399938583374	movie	1		281	36.0	2.5	/experiments/knapen_AOT/AOT_stimuli/rescaled_final/0491_fw.mp4	0.0	201.0890986919403	2.5003819465637207
38	184.92626094818115	pulse	1	t		36.0	2.5	/experiments/knapen_AOT/AOT_stimuli/rescaled_final/0491_fw.mp4	0.0	202.67136025428772	
38	185.84438133239746	fix_post	2		12	36.0	2.5	/experiments/knapen_AOT/AOT_stimuli/rescaled_final/0491_fw.mp4	0.0	203.58948063850403	0.10002398490905762
39	185.94440531730652	fix_pre	0		120	37.0	2.5	/experiments/knapen_AOT/AOT_stimuli/rescaled_final/2091_fw.mp4	0.0	203.6895046234131	1.008453607559204
39	186.5279896259308	pulse	0	t		37.0	2.5	/experiments/knapen_AOT/AOT_stimuli/rescaled_final/2091_fw.mp4	0.0	204.27308893203735	
39	186.95285892486572	movie	1		276	37.0	2.5	/experiments/knapen_AOT/AOT_stimuli/rescaled_final/2091_fw.mp4	0.0	204.6979582309723	2.4920310974121094
39	188.12646579742432	pulse	1	t		37.0	2.5	/experiments/knapen_AOT/AOT_stimuli/rescaled_final/2091_fw.mp4	0.0	205.87156510353088	
39	189.44489002227783	fix_post	2		12	37.0	2.5	/experiments/knapen_AOT/AOT_stimuli/rescaled_final/2091_fw.mp4	0.0	207.1899893283844	0.10012435913085938
40	189.5450143814087	fix_pre	0		120	38.0	2.5	/experiments/knapen_AOT/AOT_stimuli/rescaled_final/0257_fw.mp4	0.0	207.29011368751526	1.0084929466247559
40	189.72857642173767	pulse	0	t		38.0	2.5	/experiments/knapen_AOT/AOT_stimuli/rescaled_final/0257_fw.mp4	0.0	207.47367572784424	
40	190.55350732803345	movie	1		286	38.0	2.5	/experiments/knapen_AOT/AOT_stimuli/rescaled_final/0257_fw.mp4	0.0	208.29860663414001	2.4919259548187256
40	191.32633018493652	pulse	1	t		38.0	2.5	/experiments/knapen_AOT/AOT_stimuli/rescaled_final/0257_fw.mp4	0.0	209.0714294910431	
40	192.9281039237976	pulse	1	t		38.0	2.5	/experiments/knapen_AOT/AOT_stimuli/rescaled_final/0257_fw.mp4	0.0	210.67320322990417	
40	193.04543328285217	fix_post	2		12	38.0	2.5	/experiments/knapen_AOT/AOT_stimuli/rescaled_final/0257_fw.mp4	0.0	210.79053258895874	0.10006475448608398
41	193.14549803733826	fix_pre	0		120	39.0	2.5	/experiments/knapen_AOT/AOT_stimuli/rescaled_final/1708_fw.mp4	0.0	210.89059734344482	1.008458137512207
41	194.15395617485046	movie	1		279	39.0	2.5	/experiments/knapen_AOT/AOT_stimuli/rescaled_final/1708_fw.mp4	0.0	211.89905548095703	2.492030143737793
41	194.52725219726562	pulse	1	t		39.0	2.5	/experiments/knapen_AOT/AOT_stimuli/rescaled_final/1708_fw.mp4	0.0	212.2723515033722	
41	196.12751483917236	pulse	1	t		39.0	2.5	/experiments/knapen_AOT/AOT_stimuli/rescaled_final/1708_fw.mp4	0.0	213.87261414527893	
41	196.64598631858826	fix_post	2		12	39.0	2.5	/experiments/knapen_AOT/AOT_stimuli/rescaled_final/1708_fw.mp4	0.0	214.39108562469482	0.10004544258117676
42	196.74603176116943	fix_pre	0		119	40.0	2.5	/experiments/knapen_AOT/AOT_stimuli/rescaled_final/1405_fw.mp4	0.0	214.491131067276	1.000119686126709
42	197.72967672348022	pulse	0	t		40.0	2.5	/experiments/knapen_AOT/AOT_stimuli/rescaled_final/1405_fw.mp4	0.0	215.4747760295868	
42	197.74615144729614	movie	1		289	40.0	2.5	/experiments/knapen_AOT/AOT_stimuli/rescaled_final/1405_fw.mp4	0.0	215.4912507534027	2.5003671646118164
42	199.32822680473328	pulse	1	t		40.0	2.5	/experiments/knapen_AOT/AOT_stimuli/rescaled_final/1405_fw.mp4	0.0	217.07332611083984	
42	200.24651861190796	fix_post	2		12	40.0	2.5	/experiments/knapen_AOT/AOT_stimuli/rescaled_final/1405_fw.mp4	0.0	217.99161791801453	0.10003948211669922
43	200.34655809402466	fix_pre	0		120	41.0	2.5	blank	1.0	218.09165740013123	1.000112533569336
43	200.9301941394806	pulse	0	t		41.0	2.5	blank	1.0	218.67529344558716	
43	201.346670627594	movie	1		300	41.0	2.5	blank	1.0	219.09176993370056	2.5003762245178223
43	202.53037691116333	pulse	1	t		41.0	2.5	blank	1.0	220.2754762172699	
43	203.84704685211182	fix_post	2		12	41.0	2.5	blank	1.0	221.59214615821838	0.10001945495605469
44	203.94706630706787	fix_pre	0		120	42.0	2.5	/experiments/knapen_AOT/AOT_stimuli/rescaled_final/0180_fw.mp4	0.0	221.69216561317444	1.0085828304290771
44	204.130619764328	pulse	0	t		42.0	2.5	/experiments/knapen_AOT/AOT_stimuli/rescaled_final/0180_fw.mp4	0.0	221.87571907043457	
44	204.95564913749695	movie	1		277	42.0	2.5	/experiments/knapen_AOT/AOT_stimuli/rescaled_final/0180_fw.mp4	0.0	222.70074844360352	2.500293016433716
44	205.72889280319214	pulse	1	t		42.0	2.5	/experiments/knapen_AOT/AOT_stimuli/rescaled_final/0180_fw.mp4	0.0	223.4739921092987	
44	207.3292579650879	pulse	1	t		42.0	2.5	/experiments/knapen_AOT/AOT_stimuli/rescaled_final/0180_fw.mp4	0.0	225.07435727119446	
44	207.45594215393066	fix_post	2		11	42.0	2.5	/experiments/knapen_AOT/AOT_stimuli/rescaled_final/0180_fw.mp4	0.0	225.20104146003723	0.09171748161315918
45	207.54765963554382	fix_pre	0		120	43.0	2.5	/experiments/knapen_AOT/AOT_stimuli/rescaled_final/0315_fw.mp4	0.0	225.2927589416504	1.0085186958312988
45	208.55617833137512	movie	1		287	43.0	2.5	/experiments/knapen_AOT/AOT_stimuli/rescaled_final/0315_fw.mp4	0.0	226.3012776374817	2.491955041885376
45	208.92978191375732	pulse	1	t		43.0	2.5	/experiments/knapen_AOT/AOT_stimuli/rescaled_final/0315_fw.mp4	0.0	226.6748812198639	
45	210.5232675075531	pulse	1	t		43.0	2.5	/experiments/knapen_AOT/AOT_stimuli/rescaled_final/0315_fw.mp4	0.0	228.26836681365967	
45	211.0481333732605	fix_post	2		12	43.0	2.5	/experiments/knapen_AOT/AOT_stimuli/rescaled_final/0315_fw.mp4	0.0	228.79323267936707	0.10002875328063965
46	211.14816212654114	fix_pre	0		118	44.0	2.5	/experiments/knapen_AOT/AOT_stimuli/rescaled_final/0428_fw.mp4	0.0	228.8932614326477	0.9919288158416748
46	212.1235592365265	pulse	0	t		44.0	2.5	/experiments/knapen_AOT/AOT_stimuli/rescaled_final/0428_fw.mp4	0.0	229.86865854263306	
46	212.1400909423828	movie	1		280	44.0	2.5	/experiments/knapen_AOT/AOT_stimuli/rescaled_final/0428_fw.mp4	0.0	229.88519024848938	2.500357151031494
46	213.72377967834473	pulse	1	t		44.0	2.5	/experiments/knapen_AOT/AOT_stimuli/rescaled_final/0428_fw.mp4	0.0	231.4688789844513	
46	214.6404480934143	fix_post	2		12	44.0	2.5	/experiments/knapen_AOT/AOT_stimuli/rescaled_final/0428_fw.mp4	0.0	232.38554739952087	0.09995651245117188
47	214.74040460586548	fix_pre	0		120	45.0	2.5	/experiments/knapen_AOT/AOT_stimuli/rescaled_final/1117_fw.mp4	0.0	232.48550391197205	1.0084667205810547
47	215.32398295402527	pulse	0	t		45.0	2.5	/experiments/knapen_AOT/AOT_stimuli/rescaled_final/1117_fw.mp4	0.0	233.06908226013184	
47	215.74887132644653	movie	1		273	45.0	2.5	/experiments/knapen_AOT/AOT_stimuli/rescaled_final/1117_fw.mp4	0.0	233.4939706325531	2.492077350616455
47	216.92424154281616	pulse	1	t		45.0	2.5	/experiments/knapen_AOT/AOT_stimuli/rescaled_final/1117_fw.mp4	0.0	234.66934084892273	
47	218.240948677063	fix_post	2		12	45.0	2.5	/experiments/knapen_AOT/AOT_stimuli/rescaled_final/1117_fw.mp4	0.0	235.98604798316956	0.09996461868286133
48	218.34091329574585	fix_pre	0		120	46.0	2.5	/experiments/knapen_AOT/AOT_stimuli/rescaled_final/0286_rv.mp4	0.0	236.08601260185242	1.0084893703460693
48	218.52466011047363	pulse	0	t		46.0	2.5	/experiments/knapen_AOT/AOT_stimuli/rescaled_final/0286_rv.mp4	0.0	236.2697594165802	
48	219.34940266609192	movie	1		289	46.0	2.5	/experiments/knapen_AOT/AOT_stimuli/rescaled_final/0286_rv.mp4	0.0	237.0945019721985	2.492037296295166
48	220.12246346473694	pulse	1	t		46.0	2.5	/experiments/knapen_AOT/AOT_stimuli/rescaled_final/0286_rv.mp4	0.0	237.8675627708435	
48	221.72275733947754	pulse	1	t		46.0	2.5	/experiments/knapen_AOT/AOT_stimuli/rescaled_final/0286_rv.mp4	0.0	239.4678566455841	
48	221.84143996238708	fix_post	2		12	46.0	2.5	/experiments/knapen_AOT/AOT_stimuli/rescaled_final/0286_rv.mp4	0.0	239.58653926849365	0.10004639625549316
49	221.94148635864258	fix_pre	0		120	47.0	2.5	blank	1.0	239.68658566474915	1.000145673751831
49	222.9416320323944	movie	1		300	47.0	2.5	blank	1.0	240.68673133850098	2.5003480911254883
49	223.32523798942566	pulse	1	t		47.0	2.5	blank	1.0	241.07033729553223	
49	224.92547488212585	pulse	1	t		47.0	2.5	blank	1.0	242.67057418823242	
49	225.4419801235199	fix_post	2		12	47.0	2.5	blank	1.0	243.18707942962646	0.10003423690795898
50	225.54201436042786	fix_pre	0		119	48.0	2.5	/experiments/knapen_AOT/AOT_stimuli/rescaled_final/0002_rv.mp4	0.0	243.28711366653442	1.0001459121704102
50	226.52570247650146	pulse	0	t		48.0	2.5	/experiments/knapen_AOT/AOT_stimuli/rescaled_final/0002_rv.mp4	0.0	244.27080178260803	
50	226.54216027259827	movie	1		286	48.0	2.5	/experiments/knapen_AOT/AOT_stimuli/rescaled_final/0002_rv.mp4	0.0	244.28725957870483	2.5006141662597656
50	228.1260142326355	pulse	1	t		48.0	2.5	/experiments/knapen_AOT/AOT_stimuli/rescaled_final/0002_rv.mp4	0.0	245.87111353874207	
50	229.04277443885803	fix_post	2		12	48.0	2.5	/experiments/knapen_AOT/AOT_stimuli/rescaled_final/0002_rv.mp4	0.0	246.7878737449646	0.09975361824035645
51	229.1425280570984	fix_pre	0		120	49.0	2.5	/experiments/knapen_AOT/AOT_stimuli/rescaled_final/1550_fw.mp4	0.0	246.88762736320496	1.0085129737854004
51	229.72618198394775	pulse	0	t		49.0	2.5	/experiments/knapen_AOT/AOT_stimuli/rescaled_final/1550_fw.mp4	0.0	247.47128129005432	
51	230.1510410308838	movie	1		283	49.0	2.5	/experiments/knapen_AOT/AOT_stimuli/rescaled_final/1550_fw.mp4	0.0	247.89614033699036	2.4920027256011963
51	231.32552313804626	pulse	1	t		49.0	2.5	/experiments/knapen_AOT/AOT_stimuli/rescaled_final/1550_fw.mp4	0.0	249.07062244415283	
51	232.64304375648499	fix_post	2		12	49.0	2.5	/experiments/knapen_AOT/AOT_stimuli/rescaled_final/1550_fw.mp4	0.0	250.38814306259155	0.10001707077026367
52	232.74306082725525	fix_pre	0		120	50.0	2.5	/experiments/knapen_AOT/AOT_stimuli/rescaled_final/1361_rv.mp4	0.0	250.48816013336182	1.0085177421569824
52	232.9266815185547	pulse	0	t		50.0	2.5	/experiments/knapen_AOT/AOT_stimuli/rescaled_final/1361_rv.mp4	0.0	250.67178082466125	
52	233.75157856941223	movie	1		285	50.0	2.5	/experiments/knapen_AOT/AOT_stimuli/rescaled_final/1361_rv.mp4	0.0	251.4966778755188	2.492051839828491
52	234.52498841285706	pulse	1	t		50.0	2.5	/experiments/knapen_AOT/AOT_stimuli/rescaled_final/1361_rv.mp4	0.0	252.27008771896362	
52	236.12500882148743	pulse	1	t		50.0	2.5	/experiments/knapen_AOT/AOT_stimuli/rescaled_final/1361_rv.mp4	0.0	253.870108127594	
52	236.24363040924072	fix_post	2		12	50.0	2.5	/experiments/knapen_AOT/AOT_stimuli/rescaled_final/1361_rv.mp4	0.0	253.9887297153473	0.09997820854187012
53	236.3436086177826	fix_pre	0		120	51.0	2.5	/experiments/knapen_AOT/AOT_stimuli/rescaled_final/0200_rv.mp4	0.0	254.08870792388916	1.0084998607635498
53	237.35210847854614	movie	1		276	51.0	2.5	/experiments/knapen_AOT/AOT_stimuli/rescaled_final/0200_rv.mp4	0.0	255.0972077846527	2.492056131362915
53	237.7255780696869	pulse	1	t		51.0	2.5	/experiments/knapen_AOT/AOT_stimuli/rescaled_final/0200_rv.mp4	0.0	255.47067737579346	
53	239.3251814842224	pulse	1	t		51.0	2.5	/experiments/knapen_AOT/AOT_stimuli/rescaled_final/0200_rv.mp4	0.0	257.070280790329	
53	239.84416460990906	fix_post	2		12	51.0	2.5	/experiments/knapen_AOT/AOT_stimuli/rescaled_final/0200_rv.mp4	0.0	257.5892639160156	0.10007548332214355
54	239.9442400932312	fix_pre	0		119	52.0	2.5	/experiments/knapen_AOT/AOT_stimuli/rescaled_final/1690_fw.mp4	0.0	257.68933939933777	1.0000379085540771
54	240.9278907775879	pulse	0	t		52.0	2.5	/experiments/knapen_AOT/AOT_stimuli/rescaled_final/1690_fw.mp4	0.0	258.67299008369446	
54	240.94427800178528	movie	1		281	52.0	2.5	/experiments/knapen_AOT/AOT_stimuli/rescaled_final/1690_fw.mp4	0.0	258.68937730789185	2.5004239082336426
54	242.52687764167786	pulse	1	t		52.0	2.5	/experiments/knapen_AOT/AOT_stimuli/rescaled_final/1690_fw.mp4	0.0	260.2719769477844	
54	243.44470191001892	fix_post	2		12	52.0	2.5	/experiments/knapen_AOT/AOT_stimuli/rescaled_final/1690_fw.mp4	0.0	261.1898012161255	0.10002422332763672
55	243.54472613334656	fix_pre	0		120	53.0	2.5	/experiments/knapen_AOT/AOT_stimuli/rescaled_final/1533_rv.mp4	0.0	261.2898254394531	1.0084803104400635
55	244.12840843200684	pulse	0	t		53.0	2.5	/experiments/knapen_AOT/AOT_stimuli/rescaled_final/1533_rv.mp4	0.0	261.8735077381134	
55	244.55320644378662	movie	1		283	53.0	2.5	/experiments/knapen_AOT/AOT_stimuli/rescaled_final/1533_rv.mp4	0.0	262.2983057498932	2.4921302795410156
55	245.72686076164246	pulse	1	t		53.0	2.5	/experiments/knapen_AOT/AOT_stimuli/rescaled_final/1533_rv.mp4	0.0	263.471960067749	
55	247.04533672332764	fix_post	2		12	53.0	2.5	/experiments/knapen_AOT/AOT_stimuli/rescaled_final/1533_rv.mp4	0.0	264.7904360294342	0.09990167617797852
56	247.14523839950562	fix_pre	0		120	54.0	2.5	/experiments/knapen_AOT/AOT_stimuli/rescaled_final/1016_rv.mp4	0.0	264.8903377056122	1.0084648132324219
56	247.32886028289795	pulse	0	t		54.0	2.5	/experiments/knapen_AOT/AOT_stimuli/rescaled_final/1016_rv.mp4	0.0	265.0739595890045	
56	248.15370321273804	movie	1		284	54.0	2.5	/experiments/knapen_AOT/AOT_stimuli/rescaled_final/1016_rv.mp4	0.0	265.8988025188446	2.492051362991333
56	248.92692041397095	pulse	1	t		54.0	2.5	/experiments/knapen_AOT/AOT_stimuli/rescaled_final/1016_rv.mp4	0.0	266.6720197200775	
56	250.52748012542725	pulse	1	t		54.0	2.5	/experiments/knapen_AOT/AOT_stimuli/rescaled_final/1016_rv.mp4	0.0	268.2725794315338	
56	250.64575457572937	fix_post	2		12	54.0	2.5	/experiments/knapen_AOT/AOT_stimuli/rescaled_final/1016_rv.mp4	0.0	268.39085388183594	0.10000920295715332
57	250.74576377868652	fix_pre	0		120	55.0	2.5	blank	1.0	268.4908630847931	1.0001540184020996
57	251.74591779708862	movie	1		300	55.0	2.5	blank	1.0	269.4910171031952	2.5004971027374268
57	252.1295781135559	pulse	1	t		55.0	2.5	blank	1.0	269.8746774196625	
57	253.72975873947144	pulse	1	t		55.0	2.5	blank	1.0	271.474858045578	
57	254.24641489982605	fix_post	2		12	55.0	2.5	blank	1.0	271.9915142059326	0.0999138355255127
58	254.34632873535156	fix_pre	0		119	56.0	2.5	/experiments/knapen_AOT/AOT_stimuli/rescaled_final/1946_fw.mp4	0.0	272.09142804145813	1.0001702308654785
58	255.33027529716492	pulse	0	t		56.0	2.5	/experiments/knapen_AOT/AOT_stimuli/rescaled_final/1946_fw.mp4	0.0	273.0753746032715	
58	255.34649896621704	movie	1		287	56.0	2.5	/experiments/knapen_AOT/AOT_stimuli/rescaled_final/1946_fw.mp4	0.0	273.0915982723236	2.500338554382324
58	256.9310464859009	pulse	1	t		56.0	2.5	/experiments/knapen_AOT/AOT_stimuli/rescaled_final/1946_fw.mp4	0.0	274.67614579200745	
58	257.84683752059937	fix_post	2		12	56.0	2.5	/experiments/knapen_AOT/AOT_stimuli/rescaled_final/1946_fw.mp4	0.0	275.59193682670593	0.10004329681396484
59	257.94688081741333	fix_pre	0		120	57.0	2.5	/experiments/knapen_AOT/AOT_stimuli/rescaled_final/1656_rv.mp4	0.0	275.6919801235199	1.0084779262542725
59	258.5305073261261	pulse	0	t		57.0	2.5	/experiments/knapen_AOT/AOT_stimuli/rescaled_final/1656_rv.mp4	0.0	276.27560663223267	
59	258.9553587436676	movie	1		282	57.0	2.5	/experiments/knapen_AOT/AOT_stimuli/rescaled_final/1656_rv.mp4	0.0	276.70045804977417	2.492109537124634
59	260.12896370887756	pulse	1	t		57.0	2.5	/experiments/knapen_AOT/AOT_stimuli/rescaled_final/1656_rv.mp4	0.0	277.87406301498413	
59	261.44746828079224	fix_post	2		12	57.0	2.5	/experiments/knapen_AOT/AOT_stimuli/rescaled_final/1656_rv.mp4	0.0	279.1925675868988	0.09994006156921387
60	261.54740834236145	fix_pre	0		120	58.0	2.5	/experiments/knapen_AOT/AOT_stimuli/rescaled_final/2161_rv.mp4	0.0	279.292507648468	1.0085060596466064
60	261.7228636741638	pulse	0	t		58.0	2.5	/experiments/knapen_AOT/AOT_stimuli/rescaled_final/2161_rv.mp4	0.0	279.4679629802704	
60	262.55591440200806	movie	1		288	58.0	2.5	/experiments/knapen_AOT/AOT_stimuli/rescaled_final/2161_rv.mp4	0.0	280.3010137081146	2.4920060634613037
60	263.3228220939636	pulse	1	t		58.0	2.5	/experiments/knapen_AOT/AOT_stimuli/rescaled_final/2161_rv.mp4	0.0	281.0679214000702	
60	264.92318415641785	pulse	1	t		58.0	2.5	/experiments/knapen_AOT/AOT_stimuli/rescaled_final/2161_rv.mp4	0.0	282.6682834625244	
60	265.04792046546936	fix_post	2		12	58.0	2.5	/experiments/knapen_AOT/AOT_stimuli/rescaled_final/2161_rv.mp4	0.0	282.7930197715759	0.10002851486206055
61	265.1479489803314	fix_pre	0		120	59.0	2.5	/experiments/knapen_AOT/AOT_stimuli/rescaled_final/1836_rv.mp4	0.0	282.893048286438	1.0085108280181885
61	266.1564598083496	movie	1		276	59.0	2.5	/experiments/knapen_AOT/AOT_stimuli/rescaled_final/1836_rv.mp4	0.0	283.9015591144562	2.4920198917388916
61	266.52339792251587	pulse	1	t		59.0	2.5	/experiments/knapen_AOT/AOT_stimuli/rescaled_final/1836_rv.mp4	0.0	284.26849722862244	
61	268.12376046180725	pulse	1	t		59.0	2.5	/experiments/knapen_AOT/AOT_stimuli/rescaled_final/1836_rv.mp4	0.0	285.8688597679138	
61	268.6484797000885	fix_post	2		12	59.0	2.5	/experiments/knapen_AOT/AOT_stimuli/rescaled_final/1836_rv.mp4	0.0	286.39357900619507	0.10001492500305176
62	268.74849462509155	fix_pre	0		118	60.0	2.5	/experiments/knapen_AOT/AOT_stimuli/rescaled_final/1181_rv.mp4	0.0	286.4935939311981	0.9919025897979736
62	269.7239830493927	pulse	0	t		60.0	2.5	/experiments/knapen_AOT/AOT_stimuli/rescaled_final/1181_rv.mp4	0.0	287.46908235549927	
62	269.7403972148895	movie	1		292	60.0	2.5	/experiments/knapen_AOT/AOT_stimuli/rescaled_final/1181_rv.mp4	0.0	287.4854965209961	2.500321388244629
62	271.3243918418884	pulse	1	t		60.0	2.5	/experiments/knapen_AOT/AOT_stimuli/rescaled_final/1181_rv.mp4	0.0	289.069491147995	
62	272.24071860313416	fix_post	2		12	60.0	2.5	/experiments/knapen_AOT/AOT_stimuli/rescaled_final/1181_rv.mp4	0.0	289.9858179092407	0.10000824928283691
63	272.340726852417	fix_pre	0		120	61.0	2.5	/experiments/knapen_AOT/AOT_stimuli/rescaled_final/1218_rv.mp4	0.0	290.08582615852356	1.008542537689209
63	272.9245548248291	pulse	0	t		61.0	2.5	/experiments/knapen_AOT/AOT_stimuli/rescaled_final/1218_rv.mp4	0.0	290.66965413093567	
63	273.3492693901062	movie	1		292	61.0	2.5	/experiments/knapen_AOT/AOT_stimuli/rescaled_final/1218_rv.mp4	0.0	291.09436869621277	2.4919400215148926
63	274.5228943824768	pulse	1	t		61.0	2.5	/experiments/knapen_AOT/AOT_stimuli/rescaled_final/1218_rv.mp4	0.0	292.2679936885834	
63	275.8412094116211	fix_post	2		12	61.0	2.5	/experiments/knapen_AOT/AOT_stimuli/rescaled_final/1218_rv.mp4	0.0	293.58630871772766	0.10003376007080078
64	275.9412431716919	fix_pre	0		120	62.0	2.5	blank	1.0	293.68634247779846	1.000152587890625
64	276.12480330467224	pulse	0	t		62.0	2.5	blank	1.0	293.8699026107788	
64	276.9413957595825	movie	1		300	62.0	2.5	blank	1.0	294.6864950656891	2.500369071960449
64	277.72505950927734	pulse	1	t		62.0	2.5	blank	1.0	295.4701588153839	
64	279.32542157173157	pulse	1	t		62.0	2.5	blank	1.0	297.07052087783813	
64	279.44176483154297	fix_post	2		12	62.0	2.5	blank	1.0	297.18686413764954	0.10002613067626953
65	279.54179096221924	fix_pre	0		120	63.0	2.5	/experiments/knapen_AOT/AOT_stimuli/rescaled_final/1492_fw.mp4	0.0	297.2868902683258	1.0084741115570068
65	280.55026507377625	movie	1		280	63.0	2.5	/experiments/knapen_AOT/AOT_stimuli/rescaled_final/1492_fw.mp4	0.0	298.2953643798828	2.4920477867126465
65	280.9240937232971	pulse	1	t		63.0	2.5	/experiments/knapen_AOT/AOT_stimuli/rescaled_final/1492_fw.mp4	0.0	298.6691930294037	
65	282.52432560920715	pulse	1	t		63.0	2.5	/experiments/knapen_AOT/AOT_stimuli/rescaled_final/1492_fw.mp4	0.0	300.2694249153137	
65	283.0423128604889	fix_post	2		12	63.0	2.5	/experiments/knapen_AOT/AOT_stimuli/rescaled_final/1492_fw.mp4	0.0	300.78741216659546	0.10001873970031738
66	283.1423316001892	fix_pre	0		119	64.0	2.5	/experiments/knapen_AOT/AOT_stimuli/rescaled_final/2017_fw.mp4	0.0	300.8874309062958	1.00014066696167
66	284.1260290145874	pulse	0	t		64.0	2.5	/experiments/knapen_AOT/AOT_stimuli/rescaled_final/2017_fw.mp4	0.0	301.87112832069397	
66	284.1424722671509	movie	1		292	64.0	2.5	/experiments/knapen_AOT/AOT_stimuli/rescaled_final/2017_fw.mp4	0.0	301.88757157325745	2.500394582748413
66	285.7255132198334	pulse	1	t		64.0	2.5	/experiments/knapen_AOT/AOT_stimuli/rescaled_final/2017_fw.mp4	0.0	303.47061252593994	
66	286.6428668498993	fix_post	2		12	64.0	2.5	/experiments/knapen_AOT/AOT_stimuli/rescaled_final/2017_fw.mp4	0.0	304.38796615600586	0.10004687309265137
67	286.74291372299194	fix_pre	0		120	65.0	2.5	/experiments/knapen_AOT/AOT_stimuli/rescaled_final/0795_rv.mp4	0.0	304.4880130290985	1.0084540843963623
67	287.3264904022217	pulse	0	t		65.0	2.5	/experiments/knapen_AOT/AOT_stimuli/rescaled_final/0795_rv.mp4	0.0	305.07158970832825	
67	287.7513678073883	movie	1		288	65.0	2.5	/experiments/knapen_AOT/AOT_stimuli/rescaled_final/0795_rv.mp4	0.0	305.4964671134949	2.4920201301574707
67	288.9247889518738	pulse	1	t		65.0	2.5	/experiments/knapen_AOT/AOT_stimuli/rescaled_final/0795_rv.mp4	0.0	306.66988825798035	
67	290.2433879375458	fix_post	2		12	65.0	2.5	/experiments/knapen_AOT/AOT_stimuli/rescaled_final/0795_rv.mp4	0.0	307.98848724365234	0.10002303123474121
68	290.3434109687805	fix_pre	0		120	66.0	2.5	/experiments/knapen_AOT/AOT_stimuli/rescaled_final/0675_rv.mp4	0.0	308.0885102748871	1.0085535049438477
68	290.5269343852997	pulse	0	t		66.0	2.5	/experiments/knapen_AOT/AOT_stimuli/rescaled_final/0675_rv.mp4	0.0	308.27203369140625	
68	291.35196447372437	movie	1		284	66.0	2.5	/experiments/knapen_AOT/AOT_stimuli/rescaled_final/0675_rv.mp4	0.0	309.09706377983093	2.491960048675537
68	292.1262607574463	pulse	1	t		66.0	2.5	/experiments/knapen_AOT/AOT_stimuli/rescaled_final/0675_rv.mp4	0.0	309.87136006355286	
68	293.7257354259491	pulse	1	t		66.0	2.5	/experiments/knapen_AOT/AOT_stimuli/rescaled_final/0675_rv.mp4	0.0	311.47083473205566	
68	293.8439245223999	fix_post	2		12	66.0	2.5	/experiments/knapen_AOT/AOT_stimuli/rescaled_final/0675_rv.mp4	0.0	311.58902382850647	0.10003280639648438
69	293.9439573287964	fix_pre	0		120	67.0	2.5	/experiments/knapen_AOT/AOT_stimuli/rescaled_final/0328_rv.mp4	0.0	311.68905663490295	1.008497953414917
69	294.9524552822113	movie	1		283	67.0	2.5	/experiments/knapen_AOT/AOT_stimuli/rescaled_final/0328_rv.mp4	0.0	312.69755458831787	2.492016315460205
69	295.3260500431061	pulse	1	t		67.0	2.5	/experiments/knapen_AOT/AOT_stimuli/rescaled_final/0328_rv.mp4	0.0	313.07114934921265	
69	296.92578959465027	pulse	1	t		67.0	2.5	/experiments/knapen_AOT/AOT_stimuli/rescaled_final/0328_rv.mp4	0.0	314.67088890075684	
69	297.4444715976715	fix_post	2		12	67.0	2.5	/experiments/knapen_AOT/AOT_stimuli/rescaled_final/0328_rv.mp4	0.0	315.1895709037781	0.10001659393310547
70	297.5444881916046	fix_pre	0		119	68.0	2.5	/experiments/knapen_AOT/AOT_stimuli/rescaled_final/1174_fw.mp4	0.0	315.2895874977112	1.0001137256622314
70	298.5282332897186	pulse	0	t		68.0	2.5	/experiments/knapen_AOT/AOT_stimuli/rescaled_final/1174_fw.mp4	0.0	316.2733325958252	
70	298.54460191726685	movie	1		284	68.0	2.5	/experiments/knapen_AOT/AOT_stimuli/rescaled_final/1174_fw.mp4	0.0	316.2897012233734	2.5004446506500244
70	300.128449678421	pulse	1	t		68.0	2.5	/experiments/knapen_AOT/AOT_stimuli/rescaled_final/1174_fw.mp4	0.0	317.8735489845276	
70	301.04504656791687	fix_post	2		12	68.0	2.5	/experiments/knapen_AOT/AOT_stimuli/rescaled_final/1174_fw.mp4	0.0	318.79014587402344	0.09999847412109375
71	301.14504504203796	fix_pre	0		120	69.0	2.5	blank	1.0	318.89014434814453	1.0001380443572998
71	301.72862339019775	pulse	0	t		69.0	2.5	blank	1.0	319.4737226963043	
71	302.14518308639526	movie	1		300	69.0	2.5	blank	1.0	319.89028239250183	2.500359296798706
71	303.3288903236389	pulse	1	t		69.0	2.5	blank	1.0	321.0739896297455	
71	304.64554238319397	fix_post	2		12	69.0	2.5	blank	1.0	322.39064168930054	0.10021018981933594
72	304.7457525730133	fix_pre	0		120	70.0	2.5	/experiments/knapen_AOT/AOT_stimuli/rescaled_final/0288_fw.mp4	0.0	322.4908518791199	1.0083081722259521
72	304.92918062210083	pulse	0	t		70.0	2.5	/experiments/knapen_AOT/AOT_stimuli/rescaled_final/0288_fw.mp4	0.0	322.6742799282074	
72	305.75406074523926	movie	1		283	70.0	2.5	/experiments/knapen_AOT/AOT_stimuli/rescaled_final/0288_fw.mp4	0.0	323.4991600513458	2.4921035766601562
72	306.5275752544403	pulse	1	t		70.0	2.5	/experiments/knapen_AOT/AOT_stimuli/rescaled_final/0288_fw.mp4	0.0	324.2726745605469	
72	308.12788581848145	pulse	1	t		70.0	2.5	/experiments/knapen_AOT/AOT_stimuli/rescaled_final/0288_fw.mp4	0.0	325.872985124588	
72	308.2461643218994	fix_post	2		12	70.0	2.5	/experiments/knapen_AOT/AOT_stimuli/rescaled_final/0288_fw.mp4	0.0	325.991263628006	0.09995770454406738
73	308.3461220264435	fix_pre	0		120	71.0	2.5	/experiments/knapen_AOT/AOT_stimuli/rescaled_final/1767_fw.mp4	0.0	326.09122133255005	1.0084784030914307
73	309.3546004295349	movie	1		279	71.0	2.5	/experiments/knapen_AOT/AOT_stimuli/rescaled_final/1767_fw.mp4	0.0	327.0996997356415	2.4920639991760254
73	309.72890734672546	pulse	1	t		71.0	2.5	/experiments/knapen_AOT/AOT_stimuli/rescaled_final/1767_fw.mp4	0.0	327.47400665283203	
73	311.3281011581421	pulse	1	t		71.0	2.5	/experiments/knapen_AOT/AOT_stimuli/rescaled_final/1767_fw.mp4	0.0	329.07320046424866	
73	311.84666442871094	fix_post	2		12	71.0	2.5	/experiments/knapen_AOT/AOT_stimuli/rescaled_final/1767_fw.mp4	0.0	329.5917637348175	0.09997940063476562
74	311.9466438293457	fix_pre	0		119	72.0	2.5	/experiments/knapen_AOT/AOT_stimuli/rescaled_final/2109_fw.mp4	0.0	329.69174313545227	1.000248908996582
74	312.9303820133209	pulse	0	t		72.0	2.5	/experiments/knapen_AOT/AOT_stimuli/rescaled_final/2109_fw.mp4	0.0	330.6754813194275	
74	312.9468927383423	movie	1		284	72.0	2.5	/experiments/knapen_AOT/AOT_stimuli/rescaled_final/2109_fw.mp4	0.0	330.69199204444885	2.5002894401550293
74	314.5290849208832	pulse	1	t		72.0	2.5	/experiments/knapen_AOT/AOT_stimuli/rescaled_final/2109_fw.mp4	0.0	332.27418422698975	
74	315.4471821784973	fix_post	2		12	72.0	2.5	/experiments/knapen_AOT/AOT_stimuli/rescaled_final/2109_fw.mp4	0.0	333.1922814846039	0.10001492500305176
75	315.54719710350037	fix_pre	0		120	73.0	2.5	/experiments/knapen_AOT/AOT_stimuli/rescaled_final/1350_fw.mp4	0.0	333.29229640960693	1.0084640979766846
75	316.12363481521606	pulse	0	t		73.0	2.5	/experiments/knapen_AOT/AOT_stimuli/rescaled_final/1350_fw.mp4	0.0	333.86873412132263	
75	316.55566120147705	movie	1		279	73.0	2.5	/experiments/knapen_AOT/AOT_stimuli/rescaled_final/1350_fw.mp4	0.0	334.3007605075836	2.492051362991333
75	317.7293498516083	pulse	1	t		73.0	2.5	/experiments/knapen_AOT/AOT_stimuli/rescaled_final/1350_fw.mp4	0.0	335.47444915771484	
75	319.0477125644684	fix_post	2		12	73.0	2.5	/experiments/knapen_AOT/AOT_stimuli/rescaled_final/1350_fw.mp4	0.0	336.79281187057495	0.10002255439758301
76	319.14773511886597	fix_pre	0		120	74.0	2.5	/experiments/knapen_AOT/AOT_stimuli/rescaled_final/2012_rv.mp4	0.0	336.89283442497253	1.0085792541503906
76	319.32330536842346	pulse	0	t		74.0	2.5	/experiments/knapen_AOT/AOT_stimuli/rescaled_final/2012_rv.mp4	0.0	337.06840467453003	
76	320.15631437301636	movie	1		292	74.0	2.5	/experiments/knapen_AOT/AOT_stimuli/rescaled_final/2012_rv.mp4	0.0	337.9014136791229	2.4919328689575195
76	320.923308134079	pulse	1	t		74.0	2.5	/experiments/knapen_AOT/AOT_stimuli/rescaled_final/2012_rv.mp4	0.0	338.66840744018555	
76	322.52344703674316	pulse	1	t		74.0	2.5	/experiments/knapen_AOT/AOT_stimuli/rescaled_final/2012_rv.mp4	0.0	340.26854634284973	
76	322.6482472419739	fix_post	2		12	74.0	2.5	/experiments/knapen_AOT/AOT_stimuli/rescaled_final/2012_rv.mp4	0.0	340.39334654808044	0.10004925727844238
77	322.7482964992523	fix_pre	0		120	75.0	2.5	blank	1.0	340.4933958053589	1.0001611709594727
77	323.7484576702118	movie	1		300	75.0	2.5	blank	1.0	341.49355697631836	2.5003390312194824
77	324.12382340431213	pulse	1	t		75.0	2.5	blank	1.0	341.8689227104187	
77	325.72397351264954	pulse	1	t		75.0	2.5	blank	1.0	343.4690728187561	
77	326.2487967014313	fix_post	2		12	75.0	2.5	blank	1.0	343.99389600753784	0.10003948211669922
78	326.348836183548	fix_pre	0		118	76.0	2.5	/experiments/knapen_AOT/AOT_stimuli/rescaled_final/1617_fw.mp4	0.0	344.09393548965454	0.9918684959411621
78	327.32416892051697	pulse	0	t		76.0	2.5	/experiments/knapen_AOT/AOT_stimuli/rescaled_final/1617_fw.mp4	0.0	345.06926822662354	
78	327.34070467948914	movie	1		288	76.0	2.5	/experiments/knapen_AOT/AOT_stimuli/rescaled_final/1617_fw.mp4	0.0	345.0858039855957	2.500317335128784
78	328.9244554042816	pulse	1	t		76.0	2.5	/experiments/knapen_AOT/AOT_stimuli/rescaled_final/1617_fw.mp4	0.0	346.6695547103882	
78	329.8410220146179	fix_post	2		12	76.0	2.5	/experiments/knapen_AOT/AOT_stimuli/rescaled_final/1617_fw.mp4	0.0	347.5861213207245	0.10005688667297363
79	329.9410789012909	fix_pre	0		120	77.0	2.5	/experiments/knapen_AOT/AOT_stimuli/rescaled_final/0789_fw.mp4	0.0	347.68617820739746	1.0085885524749756
79	330.52496123313904	pulse	0	t		77.0	2.5	/experiments/knapen_AOT/AOT_stimuli/rescaled_final/0789_fw.mp4	0.0	348.2700605392456	
79	330.94966745376587	movie	1		284	77.0	2.5	/experiments/knapen_AOT/AOT_stimuli/rescaled_final/0789_fw.mp4	0.0	348.69476675987244	2.4918909072875977
79	332.12478613853455	pulse	1	t		77.0	2.5	/experiments/knapen_AOT/AOT_stimuli/rescaled_final/0789_fw.mp4	0.0	349.8698854446411	
79	333.44155836105347	fix_post	2		12	77.0	2.5	/experiments/knapen_AOT/AOT_stimuli/rescaled_final/0789_fw.mp4	0.0	351.18665766716003	0.09998703002929688
80	333.54154539108276	fix_pre	0		120	78.0	2.5	/experiments/knapen_AOT/AOT_stimuli/rescaled_final/0987_fw.mp4	0.0	351.28664469718933	1.0085253715515137
80	333.72509717941284	pulse	0	t		78.0	2.5	/experiments/knapen_AOT/AOT_stimuli/rescaled_final/0987_fw.mp4	0.0	351.4701964855194	
80	334.5500707626343	movie	1		285	78.0	2.5	/experiments/knapen_AOT/AOT_stimuli/rescaled_final/0987_fw.mp4	0.0	352.29517006874084	2.4920122623443604
80	335.3236801624298	pulse	1	t		78.0	2.5	/experiments/knapen_AOT/AOT_stimuli/rescaled_final/0987_fw.mp4	0.0	353.0687794685364	
80	336.9238877296448	pulse	1	t		78.0	2.5	/experiments/knapen_AOT/AOT_stimuli/rescaled_final/0987_fw.mp4	0.0	354.66898703575134	
80	337.04208302497864	fix_post	2		12	78.0	2.5	/experiments/knapen_AOT/AOT_stimuli/rescaled_final/0987_fw.mp4	0.0	354.7871823310852	0.10000801086425781
81	337.1420910358429	fix_pre	0		120	79.0	2.5	/experiments/knapen_AOT/AOT_stimuli/rescaled_final/0536_rv.mp4	0.0	354.88719034194946	1.0085358619689941
81	338.1506268978119	movie	1		273	79.0	2.5	/experiments/knapen_AOT/AOT_stimuli/rescaled_final/0536_rv.mp4	0.0	355.89572620391846	2.492023468017578
81	338.5244860649109	pulse	1	t		79.0	2.5	/experiments/knapen_AOT/AOT_stimuli/rescaled_final/0536_rv.mp4	0.0	356.26958537101746	
81	340.12429428100586	pulse	1	t		79.0	2.5	/experiments/knapen_AOT/AOT_stimuli/rescaled_final/0536_rv.mp4	0.0	357.8693935871124	
81	340.64265036582947	fix_post	2		12	79.0	2.5	/experiments/knapen_AOT/AOT_stimuli/rescaled_final/0536_rv.mp4	0.0	358.38774967193604	0.10010504722595215
82	340.7427554130554	fix_pre	0		119	80.0	2.5	/experiments/knapen_AOT/AOT_stimuli/rescaled_final/2074_fw.mp4	0.0	358.487854719162	1.000072717666626
82	341.72640109062195	pulse	0	t		80.0	2.5	/experiments/knapen_AOT/AOT_stimuli/rescaled_final/2074_fw.mp4	0.0	359.4715003967285	
82	341.74282813072205	movie	1		289	80.0	2.5	/experiments/knapen_AOT/AOT_stimuli/rescaled_final/2074_fw.mp4	0.0	359.4879274368286	2.5004990100860596
82	343.3257439136505	pulse	1	t		80.0	2.5	/experiments/knapen_AOT/AOT_stimuli/rescaled_final/2074_fw.mp4	0.0	361.0708432197571	
82	344.2433271408081	fix_post	2		12	80.0	2.5	/experiments/knapen_AOT/AOT_stimuli/rescaled_final/2074_fw.mp4	0.0	361.9884264469147	0.09985685348510742
83	344.3431839942932	fix_pre	0		120	81.0	2.5	/experiments/knapen_AOT/AOT_stimuli/rescaled_final/1024_rv.mp4	0.0	362.0882833003998	1.008554458618164
83	344.9268333911896	pulse	0	t		81.0	2.5	/experiments/knapen_AOT/AOT_stimuli/rescaled_final/1024_rv.mp4	0.0	362.67193269729614	
83	345.3517384529114	movie	1		287	81.0	2.5	/experiments/knapen_AOT/AOT_stimuli/rescaled_final/1024_rv.mp4	0.0	363.09683775901794	2.4920098781585693
83	346.52562642097473	pulse	1	t		81.0	2.5	/experiments/knapen_AOT/AOT_stimuli/rescaled_final/1024_rv.mp4	0.0	364.2707257270813	
83	347.84374833106995	fix_post	2		12	81.0	2.5	/experiments/knapen_AOT/AOT_stimuli/rescaled_final/1024_rv.mp4	0.0	365.5888476371765	0.09998106956481934
84	347.94372940063477	fix_pre	0		120	82.0	2.5	/experiments/knapen_AOT/AOT_stimuli/rescaled_final/0184_rv.mp4	0.0	365.68882870674133	1.0085105895996094
84	348.12732577323914	pulse	0	t		82.0	2.5	/experiments/knapen_AOT/AOT_stimuli/rescaled_final/0184_rv.mp4	0.0	365.8724250793457	
84	348.9522399902344	movie	1		277	82.0	2.5	/experiments/knapen_AOT/AOT_stimuli/rescaled_final/0184_rv.mp4	0.0	366.69733929634094	2.4920122623443604
84	349.72765707969666	pulse	1	t		82.0	2.5	/experiments/knapen_AOT/AOT_stimuli/rescaled_final/0184_rv.mp4	0.0	367.4727563858032	
84	351.32579588890076	pulse	1	t		82.0	2.5	/experiments/knapen_AOT/AOT_stimuli/rescaled_final/0184_rv.mp4	0.0	369.0708951950073	
84	351.44425225257874	fix_post	2		12	82.0	2.5	/experiments/knapen_AOT/AOT_stimuli/rescaled_final/0184_rv.mp4	0.0	369.1893515586853	0.10007762908935547
85	351.5443298816681	fix_pre	0		120	83.0	2.5	blank	1.0	369.28942918777466	1.0001106262207031
85	352.5444405078888	movie	1		300	83.0	2.5	blank	1.0	370.28953981399536	2.5003509521484375
85	352.92805433273315	pulse	1	t		83.0	2.5	blank	1.0	370.6731536388397	
85	354.5282061100006	pulse	1	t		83.0	2.5	blank	1.0	372.2733054161072	
85	355.04479146003723	fix_post	2		12	83.0	2.5	blank	1.0	372.7898907661438	0.0999917984008789
87	355.1447832584381	stim	0		1715					372.8898825645447	14.29383373260498
87	356.12852931022644	pulse	0	t						373.873628616333	
87	357.7287366390228	pulse	0	t						375.4738359451294	
87	359.32896280288696	pulse	0	t						377.07406210899353	
87	360.9292356967926	pulse	0	t						378.67433500289917	
87	362.52948093414307	pulse	0	t						380.27458024024963	
87	364.1297776699066	pulse	0	t						381.8748769760132	
87	365.72995591163635	pulse	0	t						383.4750552177429	
87	367.3302083015442	pulse	0	t						385.07530760765076	
87	368.9303979873657	pulse	0	t						386.6754972934723	
