trial_nr	onset	event_type	phase	response	nr_frames	movie_index	movie_duration	movie_file	blank	onset_abs	duration
0	0.17489314079284668	stim	0		1					33.84640192985535	0.008222818374633789
0	0.13725566864013672	response	0	space						33.80876445770264	
1	0.18311595916748047	stim	0		4997					33.85462474822998	41.65769696235657
1	41.830695152282715	pulse	0	t						75.50220394134521	
1	41.84081292152405	stim	1		1715					75.51232171058655	14.300720453262329
1	43.41540884971619	pulse	1	t						77.08691763877869	
1	45.01534390449524	pulse	1	t						78.68685269355774	
1	46.615238189697266	pulse	1	t						80.28674697875977	
1	48.21552133560181	pulse	1	t						81.8870301246643	
1	49.8157901763916	pulse	1	t						83.4872989654541	
1	51.415998220443726	pulse	1	t						85.08750700950623	
1	53.01625108718872	pulse	1	t						86.68775987625122	
1	54.616427421569824	pulse	1	t						88.28793621063232	
2	56.14153337478638	fix_pre	0		10	0.0	2.5	/experiments/knapen_AOT/AOT_stimuli/rescaled_final/0542_fw.mp4	0.0	89.81304216384888	0.09996676445007324
2	56.21670413017273	pulse	0	t		0.0	2.5	/experiments/knapen_AOT/AOT_stimuli/rescaled_final/0542_fw.mp4	0.0	89.88821291923523	
2	56.24150013923645	movie	1		274	0.0	2.5	/experiments/knapen_AOT/AOT_stimuli/rescaled_final/0542_fw.mp4	0.0	89.91300892829895	2.492027521133423
2	57.815672159194946	pulse	1	t		0.0	2.5	/experiments/knapen_AOT/AOT_stimuli/rescaled_final/0542_fw.mp4	0.0	91.48718094825745	
2	58.73352766036987	fix_post	2		12	0.0	2.5	/experiments/knapen_AOT/AOT_stimuli/rescaled_final/0542_fw.mp4	0.0	92.40503644943237	0.10001039505004883
3	58.83353805541992	fix_pre	0		120	1.0	2.5	/experiments/knapen_AOT/AOT_stimuli/rescaled_final/1096_rv.mp4	0.0	92.50504684448242	1.0085127353668213
3	59.41725277900696	pulse	0	t		1.0	2.5	/experiments/knapen_AOT/AOT_stimuli/rescaled_final/1096_rv.mp4	0.0	93.08876156806946	
3	59.84205079078674	movie	1		262	1.0	2.5	/experiments/knapen_AOT/AOT_stimuli/rescaled_final/1096_rv.mp4	0.0	93.51355957984924	2.4919915199279785
3	61.01659178733826	pulse	1	t		1.0	2.5	/experiments/knapen_AOT/AOT_stimuli/rescaled_final/1096_rv.mp4	0.0	94.68810057640076	
3	62.33404231071472	fix_post	2		12	1.0	2.5	/experiments/knapen_AOT/AOT_stimuli/rescaled_final/1096_rv.mp4	0.0	96.00555109977722	0.10003089904785156
4	62.43407320976257	fix_pre	0		120	2.0	2.5	/experiments/knapen_AOT/AOT_stimuli/rescaled_final/0303_rv.mp4	0.0	96.10558199882507	1.0085463523864746
4	62.617818117141724	pulse	0	t		2.0	2.5	/experiments/knapen_AOT/AOT_stimuli/rescaled_final/0303_rv.mp4	0.0	96.28932690620422	
4	63.44261956214905	movie	1		260	2.0	2.5	/experiments/knapen_AOT/AOT_stimuli/rescaled_final/0303_rv.mp4	0.0	97.11412835121155	2.492016077041626
4	64.21544861793518	pulse	1	t		2.0	2.5	/experiments/knapen_AOT/AOT_stimuli/rescaled_final/0303_rv.mp4	0.0	97.88695740699768	
4	65.81822276115417	pulse	1	t		2.0	2.5	/experiments/knapen_AOT/AOT_stimuli/rescaled_final/0303_rv.mp4	0.0	99.48973155021667	
4	65.93463563919067	fix_post	2		12	2.0	2.5	/experiments/knapen_AOT/AOT_stimuli/rescaled_final/0303_rv.mp4	0.0	99.60614442825317	0.10017204284667969
5	66.03480768203735	fix_pre	0		120	3.0	2.5	/experiments/knapen_AOT/AOT_stimuli/rescaled_final/0563_rv.mp4	0.0	99.70631647109985	1.0083346366882324
5	67.04314231872559	movie	1		261	3.0	2.5	/experiments/knapen_AOT/AOT_stimuli/rescaled_final/0563_rv.mp4	0.0	100.71465110778809	2.4920032024383545
5	67.41688704490662	pulse	1	t		3.0	2.5	/experiments/knapen_AOT/AOT_stimuli/rescaled_final/0563_rv.mp4	0.0	101.08839583396912	
5	69.01882529258728	pulse	1	t		3.0	2.5	/experiments/knapen_AOT/AOT_stimuli/rescaled_final/0563_rv.mp4	0.0	102.69033408164978	
5	69.53514552116394	fix_post	2		12	3.0	2.5	/experiments/knapen_AOT/AOT_stimuli/rescaled_final/0563_rv.mp4	0.0	103.20665431022644	0.10001778602600098
6	69.63516330718994	fix_pre	0		119	4.0	2.5	/experiments/knapen_AOT/AOT_stimuli/rescaled_final/1904_rv.mp4	0.0	103.30667209625244	1.008516788482666
6	70.61881566047668	pulse	0	t		4.0	2.5	/experiments/knapen_AOT/AOT_stimuli/rescaled_final/1904_rv.mp4	0.0	104.29032444953918	
6	70.64368009567261	movie	1		271	4.0	2.5	/experiments/knapen_AOT/AOT_stimuli/rescaled_final/1904_rv.mp4	0.0	104.31518888473511	2.491999864578247
6	72.21758794784546	pulse	1	t		4.0	2.5	/experiments/knapen_AOT/AOT_stimuli/rescaled_final/1904_rv.mp4	0.0	105.88909673690796	
6	73.13567996025085	fix_post	2		12	4.0	2.5	/experiments/knapen_AOT/AOT_stimuli/rescaled_final/1904_rv.mp4	0.0	106.80718874931335	0.10001182556152344
7	73.23569178581238	fix_pre	0		120	5.0	2.5	/experiments/knapen_AOT/AOT_stimuli/rescaled_final/0295_rv.mp4	0.0	106.90720057487488	1.0085132122039795
7	73.8193244934082	pulse	0	t		5.0	2.5	/experiments/knapen_AOT/AOT_stimuli/rescaled_final/0295_rv.mp4	0.0	107.4908332824707	
7	74.24420499801636	movie	1		278	5.0	2.5	/experiments/knapen_AOT/AOT_stimuli/rescaled_final/0295_rv.mp4	0.0	107.91571378707886	2.49204683303833
7	75.41777300834656	pulse	1	t		5.0	2.5	/experiments/knapen_AOT/AOT_stimuli/rescaled_final/0295_rv.mp4	0.0	109.08928179740906	
7	76.73625183105469	fix_post	2		12	5.0	2.5	/experiments/knapen_AOT/AOT_stimuli/rescaled_final/0295_rv.mp4	0.0	110.40776062011719	0.10006380081176758
8	76.83631563186646	fix_pre	0		120	6.0	2.5	blank	1.0	110.50782442092896	1.0000677108764648
8	77.01981043815613	pulse	0	t		6.0	2.5	blank	1.0	110.69131922721863	
8	77.83638334274292	movie	1		300	6.0	2.5	blank	1.0	111.50789213180542	2.5003695487976074
8	78.62020468711853	pulse	1	t		6.0	2.5	blank	1.0	112.29171347618103	
8	80.22023963928223	pulse	1	t		6.0	2.5	blank	1.0	113.89174842834473	
8	80.33675289154053	fix_post	2		12	6.0	2.5	blank	1.0	114.00826168060303	0.10000467300415039
9	80.43675756454468	fix_pre	0		120	7.0	2.5	/experiments/knapen_AOT/AOT_stimuli/rescaled_final/0689_fw.mp4	0.0	114.10826635360718	1.008498191833496
9	81.44525575637817	movie	1		268	7.0	2.5	/experiments/knapen_AOT/AOT_stimuli/rescaled_final/0689_fw.mp4	0.0	115.11676454544067	2.4920551776885986
9	81.82054352760315	pulse	1	t		7.0	2.5	/experiments/knapen_AOT/AOT_stimuli/rescaled_final/0689_fw.mp4	0.0	115.49205231666565	
9	83.41895532608032	pulse	1	t		7.0	2.5	/experiments/knapen_AOT/AOT_stimuli/rescaled_final/0689_fw.mp4	0.0	117.09046411514282	
9	83.93731093406677	fix_post	2		12	7.0	2.5	/experiments/knapen_AOT/AOT_stimuli/rescaled_final/0689_fw.mp4	0.0	117.60881972312927	0.10004544258117676
10	84.03735637664795	fix_pre	0		119	8.0	2.5	/experiments/knapen_AOT/AOT_stimuli/rescaled_final/0669_rv.mp4	0.0	117.70886516571045	1.0001587867736816
10	85.02103066444397	pulse	0	t		8.0	2.5	/experiments/knapen_AOT/AOT_stimuli/rescaled_final/0669_rv.mp4	0.0	118.69253945350647	
10	85.03751516342163	movie	1		270	8.0	2.5	/experiments/knapen_AOT/AOT_stimuli/rescaled_final/0669_rv.mp4	0.0	118.70902395248413	2.5003387928009033
10	86.62004017829895	pulse	1	t		8.0	2.5	/experiments/knapen_AOT/AOT_stimuli/rescaled_final/0669_rv.mp4	0.0	120.29154896736145	
10	87.53785395622253	fix_post	2		12	8.0	2.5	/experiments/knapen_AOT/AOT_stimuli/rescaled_final/0669_rv.mp4	0.0	121.20936274528503	0.10007619857788086
11	87.63793015480042	fix_pre	0		120	9.0	2.5	/experiments/knapen_AOT/AOT_stimuli/rescaled_final/2042_fw.mp4	0.0	121.30943894386292	1.0084843635559082
11	88.22151041030884	pulse	0	t		9.0	2.5	/experiments/knapen_AOT/AOT_stimuli/rescaled_final/2042_fw.mp4	0.0	121.89301919937134	
11	88.64641451835632	movie	1		265	9.0	2.5	/experiments/knapen_AOT/AOT_stimuli/rescaled_final/2042_fw.mp4	0.0	122.31792330741882	2.4919564723968506
11	89.82010817527771	pulse	1	t		9.0	2.5	/experiments/knapen_AOT/AOT_stimuli/rescaled_final/2042_fw.mp4	0.0	123.49161696434021	
11	91.13837099075317	fix_post	2		12	9.0	2.5	/experiments/knapen_AOT/AOT_stimuli/rescaled_final/2042_fw.mp4	0.0	124.80987977981567	0.10002350807189941
12	91.23839449882507	fix_pre	0		120	10.0	2.5	/experiments/knapen_AOT/AOT_stimuli/rescaled_final/1918_rv.mp4	0.0	124.90990328788757	1.008495807647705
12	91.42201089859009	pulse	0	t		10.0	2.5	/experiments/knapen_AOT/AOT_stimuli/rescaled_final/1918_rv.mp4	0.0	125.09351968765259	
12	92.24689030647278	movie	1		274	10.0	2.5	/experiments/knapen_AOT/AOT_stimuli/rescaled_final/1918_rv.mp4	0.0	125.91839909553528	2.4920334815979004
12	93.01985454559326	pulse	1	t		10.0	2.5	/experiments/knapen_AOT/AOT_stimuli/rescaled_final/1918_rv.mp4	0.0	126.69136333465576	
12	94.62182927131653	pulse	1	t		10.0	2.5	/experiments/knapen_AOT/AOT_stimuli/rescaled_final/1918_rv.mp4	0.0	128.29333806037903	
12	94.73892378807068	fix_post	2		12	10.0	2.5	/experiments/knapen_AOT/AOT_stimuli/rescaled_final/1918_rv.mp4	0.0	128.41043257713318	0.1000661849975586
13	94.83898997306824	fix_pre	0		120	11.0	2.5	/experiments/knapen_AOT/AOT_stimuli/rescaled_final/0602_rv.mp4	0.0	128.51049876213074	1.0084636211395264
13	95.84745359420776	movie	1		272	11.0	2.5	/experiments/knapen_AOT/AOT_stimuli/rescaled_final/0602_rv.mp4	0.0	129.51896238327026	2.4919960498809814
13	96.22139000892639	pulse	1	t		11.0	2.5	/experiments/knapen_AOT/AOT_stimuli/rescaled_final/0602_rv.mp4	0.0	129.8928987979889	
13	97.82314205169678	pulse	1	t		11.0	2.5	/experiments/knapen_AOT/AOT_stimuli/rescaled_final/0602_rv.mp4	0.0	131.49465084075928	
13	98.33944964408875	fix_post	2		12	11.0	2.5	/experiments/knapen_AOT/AOT_stimuli/rescaled_final/0602_rv.mp4	0.0	132.01095843315125	0.10001921653747559
14	98.43946886062622	fix_pre	0		119	12.0	2.5	/experiments/knapen_AOT/AOT_stimuli/rescaled_final/1129_rv.mp4	0.0	132.11097764968872	1.0003509521484375
14	99.41611099243164	pulse	0	t		12.0	2.5	/experiments/knapen_AOT/AOT_stimuli/rescaled_final/1129_rv.mp4	0.0	133.08761978149414	
14	99.43981981277466	movie	1		264	12.0	2.5	/experiments/knapen_AOT/AOT_stimuli/rescaled_final/1129_rv.mp4	0.0	133.11132860183716	2.5001702308654785
14	101.02206015586853	pulse	1	t		12.0	2.5	/experiments/knapen_AOT/AOT_stimuli/rescaled_final/1129_rv.mp4	0.0	134.69356894493103	
14	101.93999004364014	fix_post	2		12	12.0	2.5	/experiments/knapen_AOT/AOT_stimuli/rescaled_final/1129_rv.mp4	0.0	135.61149883270264	0.1001739501953125
15	102.04016399383545	fix_pre	0		120	13.0	2.5	/experiments/knapen_AOT/AOT_stimuli/rescaled_final/0009_fw.mp4	0.0	135.71167278289795	1.0084609985351562
15	102.61571025848389	pulse	0	t		13.0	2.5	/experiments/knapen_AOT/AOT_stimuli/rescaled_final/0009_fw.mp4	0.0	136.2872190475464	
15	103.0486249923706	movie	1		283	13.0	2.5	/experiments/knapen_AOT/AOT_stimuli/rescaled_final/0009_fw.mp4	0.0	136.7201337814331	2.4919490814208984
15	104.21568894386292	pulse	1	t		13.0	2.5	/experiments/knapen_AOT/AOT_stimuli/rescaled_final/0009_fw.mp4	0.0	137.88719773292542	
15	105.5405740737915	fix_post	2		12	13.0	2.5	/experiments/knapen_AOT/AOT_stimuli/rescaled_final/0009_fw.mp4	0.0	139.212082862854	0.09999394416809082
16	105.6405680179596	fix_pre	0		120	14.0	2.5	blank	1.0	139.3120768070221	1.0001778602600098
16	105.81587362289429	pulse	0	t		14.0	2.5	blank	1.0	139.4873824119568	
16	106.6407458782196	movie	1		300	14.0	2.5	blank	1.0	140.3122546672821	2.500455856323242
16	107.41615581512451	pulse	1	t		14.0	2.5	blank	1.0	141.087664604187	
16	109.01645874977112	pulse	1	t		14.0	2.5	blank	1.0	142.68796753883362	
16	109.14120173454285	fix_post	2		12	14.0	2.5	blank	1.0	142.81271052360535	0.09990811347961426
17	109.24110984802246	fix_pre	0		120	15.0	2.5	/experiments/knapen_AOT/AOT_stimuli/rescaled_final/0391_rv.mp4	0.0	142.91261863708496	1.008521556854248
17	110.24963140487671	movie	1		278	15.0	2.5	/experiments/knapen_AOT/AOT_stimuli/rescaled_final/0391_rv.mp4	0.0	143.9211401939392	2.4921724796295166
17	110.61667370796204	pulse	1	t		15.0	2.5	/experiments/knapen_AOT/AOT_stimuli/rescaled_final/0391_rv.mp4	0.0	144.28818249702454	
17	112.21683621406555	pulse	1	t		15.0	2.5	/experiments/knapen_AOT/AOT_stimuli/rescaled_final/0391_rv.mp4	0.0	145.88834500312805	
17	112.74180388450623	fix_post	2		12	15.0	2.5	/experiments/knapen_AOT/AOT_stimuli/rescaled_final/0391_rv.mp4	0.0	146.41331267356873	0.0998528003692627
18	112.84165668487549	fix_pre	0		118	16.0	2.5	/experiments/knapen_AOT/AOT_stimuli/rescaled_final/1976_fw.mp4	0.0	146.513165473938	0.9918007850646973
18	113.81726908683777	pulse	0	t		16.0	2.5	/experiments/knapen_AOT/AOT_stimuli/rescaled_final/1976_fw.mp4	0.0	147.48877787590027	
18	113.83345746994019	movie	1		269	16.0	2.5	/experiments/knapen_AOT/AOT_stimuli/rescaled_final/1976_fw.mp4	0.0	147.50496625900269	2.508737564086914
18	115.4175672531128	pulse	1	t		16.0	2.5	/experiments/knapen_AOT/AOT_stimuli/rescaled_final/1976_fw.mp4	0.0	149.0890760421753	
18	116.3421950340271	fix_post	2		11	16.0	2.5	/experiments/knapen_AOT/AOT_stimuli/rescaled_final/1976_fw.mp4	0.0	150.0137038230896	0.09166407585144043
19	116.43385910987854	fix_pre	0		120	17.0	2.5	/experiments/knapen_AOT/AOT_stimuli/rescaled_final/0619_fw.mp4	0.0	150.10536789894104	1.008497953414917
19	117.017569065094	pulse	0	t		17.0	2.5	/experiments/knapen_AOT/AOT_stimuli/rescaled_final/0619_fw.mp4	0.0	150.6890778541565	
19	117.44235706329346	movie	1		271	17.0	2.5	/experiments/knapen_AOT/AOT_stimuli/rescaled_final/0619_fw.mp4	0.0	151.11386585235596	2.492048978805542
19	118.6159155368805	pulse	1	t		17.0	2.5	/experiments/knapen_AOT/AOT_stimuli/rescaled_final/0619_fw.mp4	0.0	152.287424325943	
19	119.934406042099	fix_post	2		12	17.0	2.5	/experiments/knapen_AOT/AOT_stimuli/rescaled_final/0619_fw.mp4	0.0	153.6059148311615	0.09998726844787598
20	120.03439331054688	fix_pre	0		120	18.0	2.5	/experiments/knapen_AOT/AOT_stimuli/rescaled_final/1493_rv.mp4	0.0	153.70590209960938	1.008509635925293
20	120.21800589561462	pulse	0	t		18.0	2.5	/experiments/knapen_AOT/AOT_stimuli/rescaled_final/1493_rv.mp4	0.0	153.88951468467712	
20	121.04290294647217	movie	1		280	18.0	2.5	/experiments/knapen_AOT/AOT_stimuli/rescaled_final/1493_rv.mp4	0.0	154.71441173553467	2.4920899868011475
20	121.81621241569519	pulse	1	t		18.0	2.5	/experiments/knapen_AOT/AOT_stimuli/rescaled_final/1493_rv.mp4	0.0	155.4877212047577	
20	123.41669464111328	pulse	1	t		18.0	2.5	/experiments/knapen_AOT/AOT_stimuli/rescaled_final/1493_rv.mp4	0.0	157.08820343017578	
20	123.53499293327332	fix_post	2		12	18.0	2.5	/experiments/knapen_AOT/AOT_stimuli/rescaled_final/1493_rv.mp4	0.0	157.20650172233582	0.10000920295715332
21	123.63500213623047	fix_pre	0		120	19.0	2.5	/experiments/knapen_AOT/AOT_stimuli/rescaled_final/0990_fw.mp4	0.0	157.30651092529297	1.0084640979766846
21	124.64346623420715	movie	1		260	19.0	2.5	/experiments/knapen_AOT/AOT_stimuli/rescaled_final/0990_fw.mp4	0.0	158.31497502326965	2.4919960498809814
21	125.01766777038574	pulse	1	t		19.0	2.5	/experiments/knapen_AOT/AOT_stimuli/rescaled_final/0990_fw.mp4	0.0	158.68917655944824	
21	126.62022805213928	pulse	1	t		19.0	2.5	/experiments/knapen_AOT/AOT_stimuli/rescaled_final/0990_fw.mp4	0.0	160.29173684120178	
21	127.13546228408813	fix_post	2		12	19.0	2.5	/experiments/knapen_AOT/AOT_stimuli/rescaled_final/0990_fw.mp4	0.0	160.80697107315063	0.10001444816589355
22	127.23547673225403	fix_pre	0		119	20.0	2.5	blank	1.0	160.90698552131653	0.9918308258056641
22	128.21915316581726	pulse	0	t		20.0	2.5	blank	1.0	161.89066195487976	
22	128.2273075580597	movie	1		301	20.0	2.5	blank	1.0	161.8988163471222	2.508690357208252
22	129.81939148902893	pulse	1	t		20.0	2.5	blank	1.0	163.49090027809143	
22	130.73599791526794	fix_post	2		12	20.0	2.5	blank	1.0	164.40750670433044	0.10000729560852051
23	130.83600521087646	fix_pre	0		120	21.0	2.5	/experiments/knapen_AOT/AOT_stimuli/rescaled_final/1186_rv.mp4	0.0	164.50751399993896	1.0086193084716797
23	131.41984796524048	pulse	0	t		21.0	2.5	/experiments/knapen_AOT/AOT_stimuli/rescaled_final/1186_rv.mp4	0.0	165.09135675430298	
23	131.84462451934814	movie	1		275	21.0	2.5	/experiments/knapen_AOT/AOT_stimuli/rescaled_final/1186_rv.mp4	0.0	165.51613330841064	2.491927146911621
23	133.02003073692322	pulse	1	t		21.0	2.5	/experiments/knapen_AOT/AOT_stimuli/rescaled_final/1186_rv.mp4	0.0	166.69153952598572	
23	134.33655166625977	fix_post	2		12	21.0	2.5	/experiments/knapen_AOT/AOT_stimuli/rescaled_final/1186_rv.mp4	0.0	168.00806045532227	0.10010528564453125
24	134.4366569519043	fix_pre	0		120	22.0	2.5	/experiments/knapen_AOT/AOT_stimuli/rescaled_final/0114_fw.mp4	0.0	168.1081657409668	1.00850510597229
24	134.62011456489563	pulse	0	t		22.0	2.5	/experiments/knapen_AOT/AOT_stimuli/rescaled_final/0114_fw.mp4	0.0	168.29162335395813	
24	135.4451620578766	movie	1		273	22.0	2.5	/experiments/knapen_AOT/AOT_stimuli/rescaled_final/0114_fw.mp4	0.0	169.1166708469391	2.491917133331299
24	136.22049927711487	pulse	1	t		22.0	2.5	/experiments/knapen_AOT/AOT_stimuli/rescaled_final/0114_fw.mp4	0.0	169.89200806617737	
24	137.81837487220764	pulse	1	t		22.0	2.5	/experiments/knapen_AOT/AOT_stimuli/rescaled_final/0114_fw.mp4	0.0	171.48988366127014	
24	137.93707919120789	fix_post	2		12	22.0	2.5	/experiments/knapen_AOT/AOT_stimuli/rescaled_final/0114_fw.mp4	0.0	171.60858798027039	0.10002541542053223
25	138.03710460662842	fix_pre	0		120	23.0	2.5	/experiments/knapen_AOT/AOT_stimuli/rescaled_final/1428_fw.mp4	0.0	171.70861339569092	1.0084905624389648
25	139.04559516906738	movie	1		269	23.0	2.5	/experiments/knapen_AOT/AOT_stimuli/rescaled_final/1428_fw.mp4	0.0	172.71710395812988	2.492063045501709
25	139.41905331611633	pulse	1	t		23.0	2.5	/experiments/knapen_AOT/AOT_stimuli/rescaled_final/1428_fw.mp4	0.0	173.09056210517883	
25	141.02125811576843	pulse	1	t		23.0	2.5	/experiments/knapen_AOT/AOT_stimuli/rescaled_final/1428_fw.mp4	0.0	174.69276690483093	
25	141.5376582145691	fix_post	2		12	23.0	2.5	/experiments/knapen_AOT/AOT_stimuli/rescaled_final/1428_fw.mp4	0.0	175.2091670036316	0.09996747970581055
26	141.6376256942749	fix_pre	0		119	24.0	2.5	/experiments/knapen_AOT/AOT_stimuli/rescaled_final/0968_rv.mp4	0.0	175.3091344833374	1.000159502029419
26	142.62131452560425	pulse	0	t		24.0	2.5	/experiments/knapen_AOT/AOT_stimuli/rescaled_final/0968_rv.mp4	0.0	176.29282331466675	
26	142.63778519630432	movie	1		292	24.0	2.5	/experiments/knapen_AOT/AOT_stimuli/rescaled_final/0968_rv.mp4	0.0	176.30929398536682	2.500434398651123
26	144.22004771232605	pulse	1	t		24.0	2.5	/experiments/knapen_AOT/AOT_stimuli/rescaled_final/0968_rv.mp4	0.0	177.89155650138855	
26	145.13821959495544	fix_post	2		12	24.0	2.5	/experiments/knapen_AOT/AOT_stimuli/rescaled_final/0968_rv.mp4	0.0	178.80972838401794	0.09995150566101074
27	145.23817110061646	fix_pre	0		120	25.0	2.5	/experiments/knapen_AOT/AOT_stimuli/rescaled_final/1852_fw.mp4	0.0	178.90967988967896	1.0085060596466064
27	145.82188773155212	pulse	0	t		25.0	2.5	/experiments/knapen_AOT/AOT_stimuli/rescaled_final/1852_fw.mp4	0.0	179.49339652061462	
27	146.24667716026306	movie	1		277	25.0	2.5	/experiments/knapen_AOT/AOT_stimuli/rescaled_final/1852_fw.mp4	0.0	179.91818594932556	2.4920237064361572
27	147.42071342468262	pulse	1	t		25.0	2.5	/experiments/knapen_AOT/AOT_stimuli/rescaled_final/1852_fw.mp4	0.0	181.09222221374512	
27	148.73870086669922	fix_post	2		12	25.0	2.5	/experiments/knapen_AOT/AOT_stimuli/rescaled_final/1852_fw.mp4	0.0	182.41020965576172	0.10000276565551758
28	148.83870363235474	fix_pre	0		120	26.0	2.5	blank	1.0	182.51021242141724	1.0001499652862549
28	149.02230715751648	pulse	0	t		26.0	2.5	blank	1.0	182.69381594657898	
28	149.838853597641	movie	1		300	26.0	2.5	blank	1.0	183.5103623867035	2.5003862380981445
28	150.62254428863525	pulse	1	t		26.0	2.5	blank	1.0	184.29405307769775	
28	152.22314596176147	pulse	1	t		26.0	2.5	blank	1.0	185.89465475082397	
28	152.33923983573914	fix_post	2		12	26.0	2.5	blank	1.0	186.01074862480164	0.10006403923034668
29	152.43930387496948	fix_pre	0		120	27.0	2.5	/experiments/knapen_AOT/AOT_stimuli/rescaled_final/1096_rv.mp4	0.0	186.11081266403198	1.0084469318389893
29	153.44775080680847	movie	1		279	27.0	2.5	/experiments/knapen_AOT/AOT_stimuli/rescaled_final/1096_rv.mp4	0.0	187.11925959587097	2.4920613765716553
29	153.8213562965393	pulse	1	t		27.0	2.5	/experiments/knapen_AOT/AOT_stimuli/rescaled_final/1096_rv.mp4	0.0	187.4928650856018	
29	155.42090964317322	pulse	1	t		27.0	2.5	/experiments/knapen_AOT/AOT_stimuli/rescaled_final/1096_rv.mp4	0.0	189.09241843223572	
29	155.93981218338013	fix_post	2		12	27.0	2.5	/experiments/knapen_AOT/AOT_stimuli/rescaled_final/1096_rv.mp4	0.0	189.61132097244263	0.10005593299865723
30	156.03986811637878	fix_pre	0		119	28.0	2.5	/experiments/knapen_AOT/AOT_stimuli/rescaled_final/0891_rv.mp4	0.0	189.71137690544128	1.000108003616333
30	157.02347493171692	pulse	0	t		28.0	2.5	/experiments/knapen_AOT/AOT_stimuli/rescaled_final/0891_rv.mp4	0.0	190.69498372077942	
30	157.03997611999512	movie	1		270	28.0	2.5	/experiments/knapen_AOT/AOT_stimuli/rescaled_final/0891_rv.mp4	0.0	190.71148490905762	2.5003767013549805
30	158.62194776535034	pulse	1	t		28.0	2.5	/experiments/knapen_AOT/AOT_stimuli/rescaled_final/0891_rv.mp4	0.0	192.29345655441284	
30	159.5403528213501	fix_post	2		12	28.0	2.5	/experiments/knapen_AOT/AOT_stimuli/rescaled_final/0891_rv.mp4	0.0	193.2118616104126	0.0999903678894043
31	159.6403431892395	fix_pre	0		120	29.0	2.5	/experiments/knapen_AOT/AOT_stimuli/rescaled_final/0718_rv.mp4	0.0	193.311851978302	1.0085089206695557
31	160.21642088890076	pulse	0	t		29.0	2.5	/experiments/knapen_AOT/AOT_stimuli/rescaled_final/0718_rv.mp4	0.0	193.88792967796326	
31	160.64885210990906	movie	1		266	29.0	2.5	/experiments/knapen_AOT/AOT_stimuli/rescaled_final/0718_rv.mp4	0.0	194.32036089897156	2.4920544624328613
31	161.81615495681763	pulse	1	t		29.0	2.5	/experiments/knapen_AOT/AOT_stimuli/rescaled_final/0718_rv.mp4	0.0	195.48766374588013	
31	163.14090657234192	fix_post	2		12	29.0	2.5	/experiments/knapen_AOT/AOT_stimuli/rescaled_final/0718_rv.mp4	0.0	196.81241536140442	0.09999895095825195
32	163.24090552330017	fix_pre	0		120	30.0	2.5	/experiments/knapen_AOT/AOT_stimuli/rescaled_final/0391_fw.mp4	0.0	196.91241431236267	1.0084805488586426
32	163.41622018814087	pulse	0	t		30.0	2.5	/experiments/knapen_AOT/AOT_stimuli/rescaled_final/0391_fw.mp4	0.0	197.08772897720337	
32	164.2493860721588	movie	1		277	30.0	2.5	/experiments/knapen_AOT/AOT_stimuli/rescaled_final/0391_fw.mp4	0.0	197.9208948612213	2.492042303085327
32	165.01650881767273	pulse	1	t		30.0	2.5	/experiments/knapen_AOT/AOT_stimuli/rescaled_final/0391_fw.mp4	0.0	198.68801760673523	
32	166.61589574813843	pulse	1	t		30.0	2.5	/experiments/knapen_AOT/AOT_stimuli/rescaled_final/0391_fw.mp4	0.0	200.28740453720093	
32	166.74142837524414	fix_post	2		12	30.0	2.5	/experiments/knapen_AOT/AOT_stimuli/rescaled_final/0391_fw.mp4	0.0	200.41293716430664	0.10004663467407227
33	166.8414750099182	fix_pre	0		120	31.0	2.5	/experiments/knapen_AOT/AOT_stimuli/rescaled_final/0258_rv.mp4	0.0	200.5129837989807	1.0084655284881592
33	167.84994053840637	movie	1		277	31.0	2.5	/experiments/knapen_AOT/AOT_stimuli/rescaled_final/0258_rv.mp4	0.0	201.52144932746887	2.492020606994629
33	168.21695613861084	pulse	1	t		31.0	2.5	/experiments/knapen_AOT/AOT_stimuli/rescaled_final/0258_rv.mp4	0.0	201.88846492767334	
33	169.81737184524536	pulse	1	t		31.0	2.5	/experiments/knapen_AOT/AOT_stimuli/rescaled_final/0258_rv.mp4	0.0	203.48888063430786	
33	170.341961145401	fix_post	2		12	31.0	2.5	/experiments/knapen_AOT/AOT_stimuli/rescaled_final/0258_rv.mp4	0.0	204.0134699344635	0.10000395774841309
34	170.4419651031494	fix_pre	0		118	32.0	2.5	/experiments/knapen_AOT/AOT_stimuli/rescaled_final/0149_rv.mp4	0.0	204.1134738922119	0.9918320178985596
34	171.41745948791504	pulse	0	t		32.0	2.5	/experiments/knapen_AOT/AOT_stimuli/rescaled_final/0149_rv.mp4	0.0	205.08896827697754	
34	171.43379712104797	movie	1		263	32.0	2.5	/experiments/knapen_AOT/AOT_stimuli/rescaled_final/0149_rv.mp4	0.0	205.10530591011047	2.500356435775757
34	173.01613330841064	pulse	1	t		32.0	2.5	/experiments/knapen_AOT/AOT_stimuli/rescaled_final/0149_rv.mp4	0.0	206.68764209747314	
34	173.93415355682373	fix_post	2		12	32.0	2.5	/experiments/knapen_AOT/AOT_stimuli/rescaled_final/0149_rv.mp4	0.0	207.60566234588623	0.09997844696044922
35	174.03413200378418	fix_pre	0		120	33.0	2.5	blank	1.0	207.70564079284668	1.000187635421753
35	174.61783623695374	pulse	0	t		33.0	2.5	blank	1.0	208.28934502601624	
35	175.03431963920593	movie	1		300	33.0	2.5	blank	1.0	208.70582842826843	2.5003788471221924
35	176.21810293197632	pulse	1	t		33.0	2.5	blank	1.0	209.88961172103882	
35	177.53469848632812	fix_post	2		12	33.0	2.5	blank	1.0	211.20620727539062	0.10001969337463379
36	177.63471817970276	fix_pre	0		120	34.0	2.5	/experiments/knapen_AOT/AOT_stimuli/rescaled_final/0295_fw.mp4	0.0	211.30622696876526	1.0084879398345947
36	177.81846737861633	pulse	0	t		34.0	2.5	/experiments/knapen_AOT/AOT_stimuli/rescaled_final/0295_fw.mp4	0.0	211.48997616767883	
36	178.64320611953735	movie	1		259	34.0	2.5	/experiments/knapen_AOT/AOT_stimuli/rescaled_final/0295_fw.mp4	0.0	212.31471490859985	2.492091178894043
36	179.41862154006958	pulse	1	t		34.0	2.5	/experiments/knapen_AOT/AOT_stimuli/rescaled_final/0295_fw.mp4	0.0	213.09013032913208	
36	181.01673221588135	pulse	1	t		34.0	2.5	/experiments/knapen_AOT/AOT_stimuli/rescaled_final/0295_fw.mp4	0.0	214.68824100494385	
36	181.1352972984314	fix_post	2		12	34.0	2.5	/experiments/knapen_AOT/AOT_stimuli/rescaled_final/0295_fw.mp4	0.0	214.8068060874939	0.09998965263366699
37	181.23528695106506	fix_pre	0		120	35.0	2.5	/experiments/knapen_AOT/AOT_stimuli/rescaled_final/1975_rv.mp4	0.0	214.90679574012756	1.0086071491241455
37	182.2438941001892	movie	1		278	35.0	2.5	/experiments/knapen_AOT/AOT_stimuli/rescaled_final/1975_rv.mp4	0.0	215.9154028892517	2.491886854171753
37	182.6179916858673	pulse	1	t		35.0	2.5	/experiments/knapen_AOT/AOT_stimuli/rescaled_final/1975_rv.mp4	0.0	216.2895004749298	
37	184.21737384796143	pulse	1	t		35.0	2.5	/experiments/knapen_AOT/AOT_stimuli/rescaled_final/1975_rv.mp4	0.0	217.88888263702393	
37	184.73578095436096	fix_post	2		12	35.0	2.5	/experiments/knapen_AOT/AOT_stimuli/rescaled_final/1975_rv.mp4	0.0	218.40728974342346	0.10001921653747559
38	184.83580017089844	fix_pre	0		119	36.0	2.5	/experiments/knapen_AOT/AOT_stimuli/rescaled_final/0820_rv.mp4	0.0	218.50730895996094	1.0002734661102295
38	185.81944918632507	pulse	0	t		36.0	2.5	/experiments/knapen_AOT/AOT_stimuli/rescaled_final/0820_rv.mp4	0.0	219.49095797538757	
38	185.83607363700867	movie	1		269	36.0	2.5	/experiments/knapen_AOT/AOT_stimuli/rescaled_final/0820_rv.mp4	0.0	219.50758242607117	2.500256299972534
38	187.41845607757568	pulse	1	t		36.0	2.5	/experiments/knapen_AOT/AOT_stimuli/rescaled_final/0820_rv.mp4	0.0	221.08996486663818	
38	188.3363299369812	fix_post	2		12	36.0	2.5	/experiments/knapen_AOT/AOT_stimuli/rescaled_final/0820_rv.mp4	0.0	222.0078387260437	0.1000058650970459
39	188.43633580207825	fix_pre	0		120	37.0	2.5	/experiments/knapen_AOT/AOT_stimuli/rescaled_final/1901_rv.mp4	0.0	222.10784459114075	1.0084941387176514
39	189.0199854373932	pulse	0	t		37.0	2.5	/experiments/knapen_AOT/AOT_stimuli/rescaled_final/1901_rv.mp4	0.0	222.6914942264557	
39	189.4448299407959	movie	1		275	37.0	2.5	/experiments/knapen_AOT/AOT_stimuli/rescaled_final/1901_rv.mp4	0.0	223.1163387298584	2.4920458793640137
39	190.6192398071289	pulse	1	t		37.0	2.5	/experiments/knapen_AOT/AOT_stimuli/rescaled_final/1901_rv.mp4	0.0	224.2907485961914	
39	191.9368758201599	fix_post	2		12	37.0	2.5	/experiments/knapen_AOT/AOT_stimuli/rescaled_final/1901_rv.mp4	0.0	225.6083846092224	0.10000467300415039
40	192.03688049316406	fix_pre	0		120	38.0	2.5	/experiments/knapen_AOT/AOT_stimuli/rescaled_final/1272_fw.mp4	0.0	225.70838928222656	1.0084903240203857
40	192.22037816047668	pulse	0	t		38.0	2.5	/experiments/knapen_AOT/AOT_stimuli/rescaled_final/1272_fw.mp4	0.0	225.89188694953918	
40	193.04537081718445	movie	1		266	38.0	2.5	/experiments/knapen_AOT/AOT_stimuli/rescaled_final/1272_fw.mp4	0.0	226.71687960624695	2.4920437335968018
40	193.8182852268219	pulse	1	t		38.0	2.5	/experiments/knapen_AOT/AOT_stimuli/rescaled_final/1272_fw.mp4	0.0	227.4897940158844	
40	195.42228507995605	pulse	1	t		38.0	2.5	/experiments/knapen_AOT/AOT_stimuli/rescaled_final/1272_fw.mp4	0.0	229.09379386901855	
40	195.53741455078125	fix_post	2		12	38.0	2.5	/experiments/knapen_AOT/AOT_stimuli/rescaled_final/1272_fw.mp4	0.0	229.20892333984375	0.09998178482055664
41	195.6373963356018	fix_pre	0		120	39.0	2.5	/experiments/knapen_AOT/AOT_stimuli/rescaled_final/0202_fw.mp4	0.0	229.3089051246643	1.008535385131836
41	196.64593172073364	movie	1		276	39.0	2.5	/experiments/knapen_AOT/AOT_stimuli/rescaled_final/0202_fw.mp4	0.0	230.31744050979614	2.491992473602295
41	197.0197503566742	pulse	1	t		39.0	2.5	/experiments/knapen_AOT/AOT_stimuli/rescaled_final/0202_fw.mp4	0.0	230.6912591457367	
41	198.62147450447083	pulse	1	t		39.0	2.5	/experiments/knapen_AOT/AOT_stimuli/rescaled_final/0202_fw.mp4	0.0	232.29298329353333	
41	199.13792419433594	fix_post	2		12	39.0	2.5	/experiments/knapen_AOT/AOT_stimuli/rescaled_final/0202_fw.mp4	0.0	232.80943298339844	0.10003662109375
42	199.2379608154297	fix_pre	0		119	40.0	2.5	blank	1.0	232.9094696044922	0.9918076992034912
42	200.22157168388367	pulse	0	t		40.0	2.5	blank	1.0	233.89308047294617	
42	200.22976851463318	movie	1		301	40.0	2.5	blank	1.0	233.90127730369568	2.5087029933929443
42	201.82185435295105	pulse	1	t		40.0	2.5	blank	1.0	235.49336314201355	
42	202.73847150802612	fix_post	2		12	40.0	2.5	blank	1.0	236.40998029708862	0.10003113746643066
43	202.83850264549255	fix_pre	0		120	41.0	2.5	/experiments/knapen_AOT/AOT_stimuli/rescaled_final/1654_rv.mp4	0.0	236.51001143455505	1.0085036754608154
43	203.4220790863037	pulse	0	t		41.0	2.5	/experiments/knapen_AOT/AOT_stimuli/rescaled_final/1654_rv.mp4	0.0	237.0935878753662	
43	203.84700632095337	movie	1		277	41.0	2.5	/experiments/knapen_AOT/AOT_stimuli/rescaled_final/1654_rv.mp4	0.0	237.51851511001587	2.4920170307159424
43	205.02033805847168	pulse	1	t		41.0	2.5	/experiments/knapen_AOT/AOT_stimuli/rescaled_final/1654_rv.mp4	0.0	238.69184684753418	
43	206.3390233516693	fix_post	2		12	41.0	2.5	/experiments/knapen_AOT/AOT_stimuli/rescaled_final/1654_rv.mp4	0.0	240.0105321407318	0.1000208854675293
44	206.43904423713684	fix_pre	0		120	42.0	2.5	/experiments/knapen_AOT/AOT_stimuli/rescaled_final/1508_rv.mp4	0.0	240.11055302619934	1.0085563659667969
44	206.62266540527344	pulse	0	t		42.0	2.5	/experiments/knapen_AOT/AOT_stimuli/rescaled_final/1508_rv.mp4	0.0	240.29417419433594	
44	207.44760060310364	movie	1		275	42.0	2.5	/experiments/knapen_AOT/AOT_stimuli/rescaled_final/1508_rv.mp4	0.0	241.11910939216614	2.492003917694092
44	208.22096467018127	pulse	1	t		42.0	2.5	/experiments/knapen_AOT/AOT_stimuli/rescaled_final/1508_rv.mp4	0.0	241.89247345924377	
44	209.82169127464294	pulse	1	t		42.0	2.5	/experiments/knapen_AOT/AOT_stimuli/rescaled_final/1508_rv.mp4	0.0	243.49320006370544	
44	209.93960452079773	fix_post	2		12	42.0	2.5	/experiments/knapen_AOT/AOT_stimuli/rescaled_final/1508_rv.mp4	0.0	243.61111330986023	0.09998822212219238
45	210.03959274291992	fix_pre	0		120	43.0	2.5	/experiments/knapen_AOT/AOT_stimuli/rescaled_final/1272_rv.mp4	0.0	243.71110153198242	1.0084867477416992
45	211.04807949066162	movie	1		277	43.0	2.5	/experiments/knapen_AOT/AOT_stimuli/rescaled_final/1272_rv.mp4	0.0	244.71958827972412	2.492133378982544
45	211.4223232269287	pulse	1	t		43.0	2.5	/experiments/knapen_AOT/AOT_stimuli/rescaled_final/1272_rv.mp4	0.0	245.0938320159912	
45	213.01540756225586	pulse	1	t		43.0	2.5	/experiments/knapen_AOT/AOT_stimuli/rescaled_final/1272_rv.mp4	0.0	246.68691635131836	
45	213.54021286964417	fix_post	2		12	43.0	2.5	/experiments/knapen_AOT/AOT_stimuli/rescaled_final/1272_rv.mp4	0.0	247.21172165870667	0.09990596771240234
46	213.64011883735657	fix_pre	0		118	44.0	2.5	/experiments/knapen_AOT/AOT_stimuli/rescaled_final/0537_fw.mp4	0.0	247.31162762641907	0.9918274879455566
46	214.61543560028076	pulse	0	t		44.0	2.5	/experiments/knapen_AOT/AOT_stimuli/rescaled_final/0537_fw.mp4	0.0	248.28694438934326	
46	214.63194632530212	movie	1		278	44.0	2.5	/experiments/knapen_AOT/AOT_stimuli/rescaled_final/0537_fw.mp4	0.0	248.30345511436462	2.5003693103790283
46	216.21577262878418	pulse	1	t		44.0	2.5	/experiments/knapen_AOT/AOT_stimuli/rescaled_final/0537_fw.mp4	0.0	249.88728141784668	
46	217.13231563568115	fix_post	2		12	44.0	2.5	/experiments/knapen_AOT/AOT_stimuli/rescaled_final/0537_fw.mp4	0.0	250.80382442474365	0.10005688667297363
47	217.23237252235413	fix_pre	0		120	45.0	2.5	/experiments/knapen_AOT/AOT_stimuli/rescaled_final/1589_fw.mp4	0.0	250.90388131141663	1.008460521697998
47	217.81589674949646	pulse	0	t		45.0	2.5	/experiments/knapen_AOT/AOT_stimuli/rescaled_final/1589_fw.mp4	0.0	251.48740553855896	
47	218.24083304405212	movie	1		274	45.0	2.5	/experiments/knapen_AOT/AOT_stimuli/rescaled_final/1589_fw.mp4	0.0	251.91234183311462	2.492018461227417
47	219.41615104675293	pulse	1	t		45.0	2.5	/experiments/knapen_AOT/AOT_stimuli/rescaled_final/1589_fw.mp4	0.0	253.08765983581543	
47	220.73285150527954	fix_post	2		12	45.0	2.5	/experiments/knapen_AOT/AOT_stimuli/rescaled_final/1589_fw.mp4	0.0	254.40436029434204	0.10002994537353516
48	220.83288145065308	fix_pre	0		104	46.0	2.5	/experiments/knapen_AOT/AOT_stimuli/rescaled_final/0022_rv.mp4	0.0	254.50439023971558	1.0085046291351318
48	221.01639366149902	pulse	0	t		46.0	2.5	/experiments/knapen_AOT/AOT_stimuli/rescaled_final/0022_rv.mp4	0.0	254.68790245056152	
48	221.8413860797882	movie	1		275	46.0	2.5	/experiments/knapen_AOT/AOT_stimuli/rescaled_final/0022_rv.mp4	0.0	255.5128948688507	2.4920077323913574
48	222.61712884902954	pulse	1	t		46.0	2.5	/experiments/knapen_AOT/AOT_stimuli/rescaled_final/0022_rv.mp4	0.0	256.28863763809204	
48	224.216867685318	pulse	1	t		46.0	2.5	/experiments/knapen_AOT/AOT_stimuli/rescaled_final/0022_rv.mp4	0.0	257.8883764743805	
48	224.33339381217957	fix_post	2		12	46.0	2.5	/experiments/knapen_AOT/AOT_stimuli/rescaled_final/0022_rv.mp4	0.0	258.00490260124207	0.1000223159790039
49	224.43341612815857	fix_pre	0		120	47.0	2.5	blank	1.0	258.10492491722107	1.0001752376556396
49	225.4335913658142	movie	1		300	47.0	2.5	blank	1.0	259.1051001548767	2.5003345012664795
49	225.81716203689575	pulse	1	t		47.0	2.5	blank	1.0	259.48867082595825	
49	227.41746950149536	pulse	1	t		47.0	2.5	blank	1.0	261.08897829055786	
49	227.9339258670807	fix_post	2		12	47.0	2.5	blank	1.0	261.6054346561432	0.10006976127624512
50	228.03399562835693	fix_pre	0		119	48.0	2.5	/experiments/knapen_AOT/AOT_stimuli/rescaled_final/1912_fw.mp4	0.0	261.70550441741943	1.0001087188720703
50	229.01765727996826	pulse	0	t		48.0	2.5	/experiments/knapen_AOT/AOT_stimuli/rescaled_final/1912_fw.mp4	0.0	262.68916606903076	
50	229.034104347229	movie	1		288	48.0	2.5	/experiments/knapen_AOT/AOT_stimuli/rescaled_final/1912_fw.mp4	0.0	262.7056131362915	2.5003819465637207
50	230.61604642868042	pulse	1	t		48.0	2.5	/experiments/knapen_AOT/AOT_stimuli/rescaled_final/1912_fw.mp4	0.0	264.2875552177429	
50	231.53448629379272	fix_post	2		12	48.0	2.5	/experiments/knapen_AOT/AOT_stimuli/rescaled_final/1912_fw.mp4	0.0	265.2059950828552	0.10001564025878906
51	231.6345019340515	fix_pre	0		120	49.0	2.5	/experiments/knapen_AOT/AOT_stimuli/rescaled_final/1199_fw.mp4	0.0	265.306010723114	1.008486032485962
51	232.21813225746155	pulse	0	t		49.0	2.5	/experiments/knapen_AOT/AOT_stimuli/rescaled_final/1199_fw.mp4	0.0	265.88964104652405	
51	232.64298796653748	movie	1		273	49.0	2.5	/experiments/knapen_AOT/AOT_stimuli/rescaled_final/1199_fw.mp4	0.0	266.3144967556	2.4920599460601807
51	233.81625413894653	pulse	1	t		49.0	2.5	/experiments/knapen_AOT/AOT_stimuli/rescaled_final/1199_fw.mp4	0.0	267.48776292800903	
51	235.13504791259766	fix_post	2		12	49.0	2.5	/experiments/knapen_AOT/AOT_stimuli/rescaled_final/1199_fw.mp4	0.0	268.80655670166016	0.0999915599822998
52	235.23503947257996	fix_pre	0		120	50.0	2.5	/experiments/knapen_AOT/AOT_stimuli/rescaled_final/0341_fw.mp4	0.0	268.90654826164246	1.0085248947143555
52	235.41859579086304	pulse	0	t		50.0	2.5	/experiments/knapen_AOT/AOT_stimuli/rescaled_final/0341_fw.mp4	0.0	269.09010457992554	
52	236.2435643672943	movie	1		277	50.0	2.5	/experiments/knapen_AOT/AOT_stimuli/rescaled_final/0341_fw.mp4	0.0	269.9150731563568	2.4920990467071533
52	237.01743960380554	pulse	1	t		50.0	2.5	/experiments/knapen_AOT/AOT_stimuli/rescaled_final/0341_fw.mp4	0.0	270.68894839286804	
52	238.6169831752777	pulse	1	t		50.0	2.5	/experiments/knapen_AOT/AOT_stimuli/rescaled_final/0341_fw.mp4	0.0	272.2884919643402	
52	238.73566341400146	fix_post	2		12	50.0	2.5	/experiments/knapen_AOT/AOT_stimuli/rescaled_final/0341_fw.mp4	0.0	272.40717220306396	0.09998822212219238
53	238.83565163612366	fix_pre	0		120	51.0	2.5	/experiments/knapen_AOT/AOT_stimuli/rescaled_final/0982_fw.mp4	0.0	272.50716042518616	1.008425235748291
53	239.84407687187195	movie	1		276	51.0	2.5	/experiments/knapen_AOT/AOT_stimuli/rescaled_final/0982_fw.mp4	0.0	273.51558566093445	2.4920384883880615
53	240.21950554847717	pulse	1	t		51.0	2.5	/experiments/knapen_AOT/AOT_stimuli/rescaled_final/0982_fw.mp4	0.0	273.8910143375397	
53	241.8176908493042	pulse	1	t		51.0	2.5	/experiments/knapen_AOT/AOT_stimuli/rescaled_final/0982_fw.mp4	0.0	275.4891996383667	
53	242.33611536026	fix_post	2		12	51.0	2.5	/experiments/knapen_AOT/AOT_stimuli/rescaled_final/0982_fw.mp4	0.0	276.0076241493225	0.10000324249267578
54	242.43611860275269	fix_pre	0		119	52.0	2.5	/experiments/knapen_AOT/AOT_stimuli/rescaled_final/0729_fw.mp4	0.0	276.1076273918152	1.000239372253418
54	243.41988897323608	pulse	0	t		52.0	2.5	/experiments/knapen_AOT/AOT_stimuli/rescaled_final/0729_fw.mp4	0.0	277.0913977622986	
54	243.4363579750061	movie	1		271	52.0	2.5	/experiments/knapen_AOT/AOT_stimuli/rescaled_final/0729_fw.mp4	0.0	277.1078667640686	2.500325918197632
54	245.01877570152283	pulse	1	t		52.0	2.5	/experiments/knapen_AOT/AOT_stimuli/rescaled_final/0729_fw.mp4	0.0	278.6902844905853	
54	245.93668389320374	fix_post	2		12	52.0	2.5	/experiments/knapen_AOT/AOT_stimuli/rescaled_final/0729_fw.mp4	0.0	279.60819268226624	0.09997797012329102
55	246.03666186332703	fix_pre	0		120	53.0	2.5	/experiments/knapen_AOT/AOT_stimuli/rescaled_final/0127_fw.mp4	0.0	279.7081706523895	1.0084939002990723
55	246.62034797668457	pulse	0	t		53.0	2.5	/experiments/knapen_AOT/AOT_stimuli/rescaled_final/0127_fw.mp4	0.0	280.29185676574707	
55	247.0451557636261	movie	1		286	53.0	2.5	/experiments/knapen_AOT/AOT_stimuli/rescaled_final/0127_fw.mp4	0.0	280.7166645526886	2.492018938064575
55	248.22013473510742	pulse	1	t		53.0	2.5	/experiments/knapen_AOT/AOT_stimuli/rescaled_final/0127_fw.mp4	0.0	281.8916435241699	
55	249.53717470169067	fix_post	2		12	53.0	2.5	/experiments/knapen_AOT/AOT_stimuli/rescaled_final/0127_fw.mp4	0.0	283.2086834907532	0.10001158714294434
56	249.63718628883362	fix_pre	0		120	54.0	2.5	/experiments/knapen_AOT/AOT_stimuli/rescaled_final/0295_rv.mp4	0.0	283.3086950778961	1.008575201034546
56	249.82084727287292	pulse	0	t		54.0	2.5	/experiments/knapen_AOT/AOT_stimuli/rescaled_final/0295_rv.mp4	0.0	283.4923560619354	
56	250.64576148986816	movie	1		277	54.0	2.5	/experiments/knapen_AOT/AOT_stimuli/rescaled_final/0295_rv.mp4	0.0	284.31727027893066	2.491988182067871
56	251.42021346092224	pulse	1	t		54.0	2.5	/experiments/knapen_AOT/AOT_stimuli/rescaled_final/0295_rv.mp4	0.0	285.09172224998474	
56	253.02063465118408	pulse	1	t		54.0	2.5	/experiments/knapen_AOT/AOT_stimuli/rescaled_final/0295_rv.mp4	0.0	286.6921434402466	
56	253.13774967193604	fix_post	2		12	54.0	2.5	/experiments/knapen_AOT/AOT_stimuli/rescaled_final/0295_rv.mp4	0.0	286.80925846099854	0.09996867179870605
57	253.23771834373474	fix_pre	0		120	55.0	2.5	blank	1.0	286.90922713279724	1.000159740447998
57	254.23787808418274	movie	1		300	55.0	2.5	blank	1.0	287.90938687324524	2.5004124641418457
57	254.6215465068817	pulse	1	t		55.0	2.5	blank	1.0	288.2930552959442	
57	256.22184658050537	pulse	1	t		55.0	2.5	blank	1.0	289.89335536956787	
57	256.7382905483246	fix_post	2		12	55.0	2.5	blank	1.0	290.4097993373871	0.09999442100524902
58	256.83828496932983	fix_pre	0		119	56.0	2.5	/experiments/knapen_AOT/AOT_stimuli/rescaled_final/0218_fw.mp4	0.0	290.50979375839233	1.0001716613769531
58	257.8220376968384	pulse	0	t		56.0	2.5	/experiments/knapen_AOT/AOT_stimuli/rescaled_final/0218_fw.mp4	0.0	291.4935464859009	
58	257.8384566307068	movie	1		275	56.0	2.5	/experiments/knapen_AOT/AOT_stimuli/rescaled_final/0218_fw.mp4	0.0	291.5099654197693	2.5003435611724854
58	259.422251701355	pulse	1	t		56.0	2.5	/experiments/knapen_AOT/AOT_stimuli/rescaled_final/0218_fw.mp4	0.0	293.0937604904175	
58	260.3388001918793	fix_post	2		12	56.0	2.5	/experiments/knapen_AOT/AOT_stimuli/rescaled_final/0218_fw.mp4	0.0	294.0103089809418	0.1000211238861084
59	260.4388213157654	fix_pre	0		120	57.0	2.5	/experiments/knapen_AOT/AOT_stimuli/rescaled_final/0022_rv.mp4	0.0	294.1103301048279	1.008493423461914
59	261.0224394798279	pulse	0	t		57.0	2.5	/experiments/knapen_AOT/AOT_stimuli/rescaled_final/0022_rv.mp4	0.0	294.6939482688904	
59	261.4473147392273	movie	1		272	57.0	2.5	/experiments/knapen_AOT/AOT_stimuli/rescaled_final/0022_rv.mp4	0.0	295.1188235282898	2.492020606994629
59	262.6214632987976	pulse	1	t		57.0	2.5	/experiments/knapen_AOT/AOT_stimuli/rescaled_final/0022_rv.mp4	0.0	296.2929720878601	
59	263.9393353462219	fix_post	2		12	57.0	2.5	/experiments/knapen_AOT/AOT_stimuli/rescaled_final/0022_rv.mp4	0.0	297.6108441352844	0.10003304481506348
60	264.039368391037	fix_pre	0		120	58.0	2.5	/experiments/knapen_AOT/AOT_stimuli/rescaled_final/1406_fw.mp4	0.0	297.7108771800995	1.0085029602050781
60	264.21603512763977	pulse	0	t		58.0	2.5	/experiments/knapen_AOT/AOT_stimuli/rescaled_final/1406_fw.mp4	0.0	297.88754391670227	
60	265.04787135124207	movie	1		274	58.0	2.5	/experiments/knapen_AOT/AOT_stimuli/rescaled_final/1406_fw.mp4	0.0	298.71938014030457	2.4920482635498047
60	265.8224537372589	pulse	1	t		58.0	2.5	/experiments/knapen_AOT/AOT_stimuli/rescaled_final/1406_fw.mp4	0.0	299.4939625263214	
60	267.421749830246	pulse	1	t		58.0	2.5	/experiments/knapen_AOT/AOT_stimuli/rescaled_final/1406_fw.mp4	0.0	301.0932586193085	
60	267.53991961479187	fix_post	2		12	58.0	2.5	/experiments/knapen_AOT/AOT_stimuli/rescaled_final/1406_fw.mp4	0.0	301.21142840385437	0.09996366500854492
61	267.6398832798004	fix_pre	0		120	59.0	2.5	/experiments/knapen_AOT/AOT_stimuli/rescaled_final/1197_rv.mp4	0.0	301.3113920688629	1.0085430145263672
61	268.6484262943268	movie	1		282	59.0	2.5	/experiments/knapen_AOT/AOT_stimuli/rescaled_final/1197_rv.mp4	0.0	302.3199350833893	2.4919886589050293
61	269.0227930545807	pulse	1	t		59.0	2.5	/experiments/knapen_AOT/AOT_stimuli/rescaled_final/1197_rv.mp4	0.0	302.6943018436432	
61	270.6159656047821	pulse	1	t		59.0	2.5	/experiments/knapen_AOT/AOT_stimuli/rescaled_final/1197_rv.mp4	0.0	304.2874743938446	
61	271.1404149532318	fix_post	2		12	59.0	2.5	/experiments/knapen_AOT/AOT_stimuli/rescaled_final/1197_rv.mp4	0.0	304.8119237422943	0.10003542900085449
62	271.24045038223267	fix_pre	0		118	60.0	2.5	/experiments/knapen_AOT/AOT_stimuli/rescaled_final/0867_rv.mp4	0.0	304.91195917129517	0.9918510913848877
62	272.2159380912781	pulse	0	t		60.0	2.5	/experiments/knapen_AOT/AOT_stimuli/rescaled_final/0867_rv.mp4	0.0	305.8874468803406	
62	272.23230147361755	movie	1		286	60.0	2.5	/experiments/knapen_AOT/AOT_stimuli/rescaled_final/0867_rv.mp4	0.0	305.90381026268005	2.5005576610565186
62	273.81601190567017	pulse	1	t		60.0	2.5	/experiments/knapen_AOT/AOT_stimuli/rescaled_final/0867_rv.mp4	0.0	307.48752069473267	
62	274.7328591346741	fix_post	2		12	60.0	2.5	/experiments/knapen_AOT/AOT_stimuli/rescaled_final/0867_rv.mp4	0.0	308.4043679237366	0.0998392105102539
63	274.8326983451843	fix_pre	0		120	61.0	2.5	blank	1.0	308.5042071342468	1.000105381011963
63	275.4162771701813	pulse	0	t		61.0	2.5	blank	1.0	309.0877859592438	
63	275.8328037261963	movie	1		300	61.0	2.5	blank	1.0	309.5043125152588	2.500369071960449
63	277.0166594982147	pulse	1	t		61.0	2.5	blank	1.0	310.6881682872772	
63	278.33317279815674	fix_post	2		12	61.0	2.5	blank	1.0	312.00468158721924	0.1000220775604248
64	278.43319487571716	fix_pre	0		120	62.0	2.5	/experiments/knapen_AOT/AOT_stimuli/rescaled_final/1157_rv.mp4	0.0	312.10470366477966	1.008470058441162
64	278.61684012413025	pulse	0	t		62.0	2.5	/experiments/knapen_AOT/AOT_stimuli/rescaled_final/1157_rv.mp4	0.0	312.28834891319275	
64	279.4416649341583	movie	1		278	62.0	2.5	/experiments/knapen_AOT/AOT_stimuli/rescaled_final/1157_rv.mp4	0.0	313.1131737232208	2.492063283920288
64	280.21700263023376	pulse	1	t		62.0	2.5	/experiments/knapen_AOT/AOT_stimuli/rescaled_final/1157_rv.mp4	0.0	313.88851141929626	
64	281.8174934387207	pulse	1	t		62.0	2.5	/experiments/knapen_AOT/AOT_stimuli/rescaled_final/1157_rv.mp4	0.0	315.4890022277832	
64	281.9337282180786	fix_post	2		12	62.0	2.5	/experiments/knapen_AOT/AOT_stimuli/rescaled_final/1157_rv.mp4	0.0	315.6052370071411	0.10001134872436523
65	282.033739566803	fix_pre	0		120	63.0	2.5	/experiments/knapen_AOT/AOT_stimuli/rescaled_final/2063_rv.mp4	0.0	315.7052483558655	1.0084896087646484
65	283.0422291755676	movie	1		264	63.0	2.5	/experiments/knapen_AOT/AOT_stimuli/rescaled_final/2063_rv.mp4	0.0	316.7137379646301	2.4920341968536377
65	283.4161148071289	pulse	1	t		63.0	2.5	/experiments/knapen_AOT/AOT_stimuli/rescaled_final/2063_rv.mp4	0.0	317.0876235961914	
65	285.01772260665894	pulse	1	t		63.0	2.5	/experiments/knapen_AOT/AOT_stimuli/rescaled_final/2063_rv.mp4	0.0	318.68923139572144	
65	285.53426337242126	fix_post	2		12	63.0	2.5	/experiments/knapen_AOT/AOT_stimuli/rescaled_final/2063_rv.mp4	0.0	319.20577216148376	0.10007357597351074
66	285.6343369483948	fix_pre	0		119	64.0	2.5	/experiments/knapen_AOT/AOT_stimuli/rescaled_final/0071_rv.mp4	0.0	319.3058457374573	1.0000872611999512
66	286.6180820465088	pulse	0	t		64.0	2.5	/experiments/knapen_AOT/AOT_stimuli/rescaled_final/0071_rv.mp4	0.0	320.2895908355713	
66	286.6344242095947	movie	1		275	64.0	2.5	/experiments/knapen_AOT/AOT_stimuli/rescaled_final/0071_rv.mp4	0.0	320.3059329986572	2.5003888607025146
66	288.21699810028076	pulse	1	t		64.0	2.5	/experiments/knapen_AOT/AOT_stimuli/rescaled_final/0071_rv.mp4	0.0	321.88850688934326	
66	289.13481307029724	fix_post	2		12	64.0	2.5	/experiments/knapen_AOT/AOT_stimuli/rescaled_final/0071_rv.mp4	0.0	322.80632185935974	0.10001921653747559
67	289.2348322868347	fix_pre	0		120	65.0	2.5	/experiments/knapen_AOT/AOT_stimuli/rescaled_final/0640_fw.mp4	0.0	322.9063410758972	1.0085465908050537
67	289.81870460510254	pulse	0	t		65.0	2.5	/experiments/knapen_AOT/AOT_stimuli/rescaled_final/0640_fw.mp4	0.0	323.49021339416504	
67	290.24337887763977	movie	1		285	65.0	2.5	/experiments/knapen_AOT/AOT_stimuli/rescaled_final/0640_fw.mp4	0.0	323.91488766670227	2.4919846057891846
67	291.4174108505249	pulse	1	t		65.0	2.5	/experiments/knapen_AOT/AOT_stimuli/rescaled_final/0640_fw.mp4	0.0	325.0889196395874	
67	292.73536348342896	fix_post	2		12	65.0	2.5	/experiments/knapen_AOT/AOT_stimuli/rescaled_final/0640_fw.mp4	0.0	326.40687227249146	0.09998893737792969
68	292.8353524208069	fix_pre	0		120	66.0	2.5	/experiments/knapen_AOT/AOT_stimuli/rescaled_final/0268_rv.mp4	0.0	326.5068612098694	1.0085201263427734
68	293.0189197063446	pulse	0	t		66.0	2.5	/experiments/knapen_AOT/AOT_stimuli/rescaled_final/0268_rv.mp4	0.0	326.6904284954071	
68	293.84387254714966	movie	1		281	66.0	2.5	/experiments/knapen_AOT/AOT_stimuli/rescaled_final/0268_rv.mp4	0.0	327.51538133621216	2.492025136947632
68	294.61760544776917	pulse	1	t		66.0	2.5	/experiments/knapen_AOT/AOT_stimuli/rescaled_final/0268_rv.mp4	0.0	328.28911423683167	
68	296.21797156333923	pulse	1	t		66.0	2.5	/experiments/knapen_AOT/AOT_stimuli/rescaled_final/0268_rv.mp4	0.0	329.88948035240173	
68	296.3358976840973	fix_post	2		12	66.0	2.5	/experiments/knapen_AOT/AOT_stimuli/rescaled_final/0268_rv.mp4	0.0	330.0074064731598	0.10001182556152344
69	296.4359095096588	fix_pre	0		120	67.0	2.5	/experiments/knapen_AOT/AOT_stimuli/rescaled_final/0476_fw.mp4	0.0	330.1074182987213	1.0085937976837158
69	297.44450330734253	movie	1		279	67.0	2.5	/experiments/knapen_AOT/AOT_stimuli/rescaled_final/0476_fw.mp4	0.0	331.11601209640503	2.49192476272583
69	297.8199510574341	pulse	1	t		67.0	2.5	/experiments/knapen_AOT/AOT_stimuli/rescaled_final/0476_fw.mp4	0.0	331.4914598464966	
69	299.417622089386	pulse	1	t		67.0	2.5	/experiments/knapen_AOT/AOT_stimuli/rescaled_final/0476_fw.mp4	0.0	333.0891308784485	
69	299.93642807006836	fix_post	2		12	67.0	2.5	/experiments/knapen_AOT/AOT_stimuli/rescaled_final/0476_fw.mp4	0.0	333.60793685913086	0.1000056266784668
70	300.0364336967468	fix_pre	0		119	68.0	2.5	/experiments/knapen_AOT/AOT_stimuli/rescaled_final/1810_fw.mp4	0.0	333.7079424858093	1.0001752376556396
70	301.020147562027	pulse	0	t		68.0	2.5	/experiments/knapen_AOT/AOT_stimuli/rescaled_final/1810_fw.mp4	0.0	334.6916563510895	
70	301.03660893440247	movie	1		292	68.0	2.5	/experiments/knapen_AOT/AOT_stimuli/rescaled_final/1810_fw.mp4	0.0	334.70811772346497	2.500389575958252
70	302.6194200515747	pulse	1	t		68.0	2.5	/experiments/knapen_AOT/AOT_stimuli/rescaled_final/1810_fw.mp4	0.0	336.2909288406372	
70	303.5369985103607	fix_post	2		12	68.0	2.5	/experiments/knapen_AOT/AOT_stimuli/rescaled_final/1810_fw.mp4	0.0	337.2085072994232	0.09999656677246094
71	303.6369950771332	fix_pre	0		120	69.0	2.5	/experiments/knapen_AOT/AOT_stimuli/rescaled_final/0238_rv.mp4	0.0	337.3085038661957	1.0085091590881348
71	304.2207214832306	pulse	0	t		69.0	2.5	/experiments/knapen_AOT/AOT_stimuli/rescaled_final/0238_rv.mp4	0.0	337.8922302722931	
71	304.6455042362213	movie	1		279	69.0	2.5	/experiments/knapen_AOT/AOT_stimuli/rescaled_final/0238_rv.mp4	0.0	338.3170130252838	2.4920032024383545
71	305.8189208507538	pulse	1	t		69.0	2.5	/experiments/knapen_AOT/AOT_stimuli/rescaled_final/0238_rv.mp4	0.0	339.4904296398163	
71	307.13750743865967	fix_post	2		12	69.0	2.5	/experiments/knapen_AOT/AOT_stimuli/rescaled_final/0238_rv.mp4	0.0	340.80901622772217	0.10003018379211426
72	307.2375376224518	fix_pre	0		120	70.0	2.5	blank	1.0	340.9090464115143	1.000124216079712
72	307.42115330696106	pulse	0	t		70.0	2.5	blank	1.0	341.09266209602356	
72	308.2376618385315	movie	1		300	70.0	2.5	blank	1.0	341.909170627594	2.500383138656616
72	309.0214307308197	pulse	1	t		70.0	2.5	blank	1.0	342.6929395198822	
72	310.62161445617676	pulse	1	t		70.0	2.5	blank	1.0	344.29312324523926	
72	310.7380449771881	fix_post	2		12	70.0	2.5	blank	1.0	344.4095537662506	0.1000223159790039
73	310.8380672931671	fix_pre	0		120	71.0	2.5	/experiments/knapen_AOT/AOT_stimuli/rescaled_final/0205_rv.mp4	0.0	344.5095760822296	1.0168888568878174
73	311.85495615005493	movie	1		282	71.0	2.5	/experiments/knapen_AOT/AOT_stimuli/rescaled_final/0205_rv.mp4	0.0	345.52646493911743	2.483640432357788
73	312.22054505348206	pulse	1	t		71.0	2.5	/experiments/knapen_AOT/AOT_stimuli/rescaled_final/0205_rv.mp4	0.0	345.89205384254456	
73	313.82057905197144	pulse	1	t		71.0	2.5	/experiments/knapen_AOT/AOT_stimuli/rescaled_final/0205_rv.mp4	0.0	347.49208784103394	
73	314.3385965824127	fix_post	2		12	71.0	2.5	/experiments/knapen_AOT/AOT_stimuli/rescaled_final/0205_rv.mp4	0.0	348.0101053714752	0.10001468658447266
74	314.4386112689972	fix_pre	0		119	72.0	2.5	/experiments/knapen_AOT/AOT_stimuli/rescaled_final/0748_rv.mp4	0.0	348.1101200580597	1.000239372253418
74	315.42237520217896	pulse	0	t		72.0	2.5	/experiments/knapen_AOT/AOT_stimuli/rescaled_final/0748_rv.mp4	0.0	349.09388399124146	
74	315.4388506412506	movie	1		281	72.0	2.5	/experiments/knapen_AOT/AOT_stimuli/rescaled_final/0748_rv.mp4	0.0	349.1103594303131	2.5003011226654053
74	317.0212094783783	pulse	1	t		72.0	2.5	/experiments/knapen_AOT/AOT_stimuli/rescaled_final/0748_rv.mp4	0.0	350.6927182674408	
74	317.939151763916	fix_post	2		12	72.0	2.5	/experiments/knapen_AOT/AOT_stimuli/rescaled_final/0748_rv.mp4	0.0	351.6106605529785	0.10000443458557129
75	318.0391561985016	fix_pre	0		120	73.0	2.5	/experiments/knapen_AOT/AOT_stimuli/rescaled_final/0825_fw.mp4	0.0	351.7106649875641	1.0084953308105469
75	318.62287402153015	pulse	0	t		73.0	2.5	/experiments/knapen_AOT/AOT_stimuli/rescaled_final/0825_fw.mp4	0.0	352.29438281059265	
75	319.04765152931213	movie	1		282	73.0	2.5	/experiments/knapen_AOT/AOT_stimuli/rescaled_final/0825_fw.mp4	0.0	352.71916031837463	2.4920847415924072
75	320.22136068344116	pulse	1	t		73.0	2.5	/experiments/knapen_AOT/AOT_stimuli/rescaled_final/0825_fw.mp4	0.0	353.89286947250366	
75	321.53973627090454	fix_post	2		12	73.0	2.5	/experiments/knapen_AOT/AOT_stimuli/rescaled_final/0825_fw.mp4	0.0	355.21124505996704	0.09996342658996582
76	321.6396996974945	fix_pre	0		120	74.0	2.5	/experiments/knapen_AOT/AOT_stimuli/rescaled_final/0090_fw.mp4	0.0	355.311208486557	1.0084784030914307
76	321.8235671520233	pulse	0	t		74.0	2.5	/experiments/knapen_AOT/AOT_stimuli/rescaled_final/0090_fw.mp4	0.0	355.4950759410858	
76	322.64817810058594	movie	1		279	74.0	2.5	/experiments/knapen_AOT/AOT_stimuli/rescaled_final/0090_fw.mp4	0.0	356.31968688964844	2.492035150527954
76	323.42209577560425	pulse	1	t		74.0	2.5	/experiments/knapen_AOT/AOT_stimuli/rescaled_final/0090_fw.mp4	0.0	357.09360456466675	
76	325.022901058197	pulse	1	t		74.0	2.5	/experiments/knapen_AOT/AOT_stimuli/rescaled_final/0090_fw.mp4	0.0	358.6944098472595	
76	325.1402132511139	fix_post	2		12	74.0	2.5	/experiments/knapen_AOT/AOT_stimuli/rescaled_final/0090_fw.mp4	0.0	358.8117220401764	0.10001158714294434
77	325.24022483825684	fix_pre	0		120	75.0	2.5	blank	1.0	358.91173362731934	1.0001556873321533
77	326.240380525589	movie	1		300	75.0	2.5	blank	1.0	359.9118893146515	2.5003786087036133
77	326.618177652359	pulse	1	t		75.0	2.5	blank	1.0	360.2896864414215	
77	328.21643352508545	pulse	1	t		75.0	2.5	blank	1.0	361.88794231414795	
77	328.7407591342926	fix_post	2		12	75.0	2.5	blank	1.0	362.4122679233551	0.09998893737792969
78	328.84074807167053	fix_pre	0		118	76.0	2.5	/experiments/knapen_AOT/AOT_stimuli/rescaled_final/1907_rv.mp4	0.0	362.51225686073303	0.9918670654296875
78	329.81633615493774	pulse	0	t		76.0	2.5	/experiments/knapen_AOT/AOT_stimuli/rescaled_final/1907_rv.mp4	0.0	363.48784494400024	
78	329.8326151371002	movie	1		273	76.0	2.5	/experiments/knapen_AOT/AOT_stimuli/rescaled_final/1907_rv.mp4	0.0	363.5041239261627	2.5003509521484375
78	331.4165668487549	pulse	1	t		76.0	2.5	/experiments/knapen_AOT/AOT_stimuli/rescaled_final/1907_rv.mp4	0.0	365.0880756378174	
78	332.33296608924866	fix_post	2		12	76.0	2.5	/experiments/knapen_AOT/AOT_stimuli/rescaled_final/1907_rv.mp4	0.0	366.00447487831116	0.10001492500305176
79	332.4329810142517	fix_pre	0		120	77.0	2.5	/experiments/knapen_AOT/AOT_stimuli/rescaled_final/1912_rv.mp4	0.0	366.1044898033142	1.0084857940673828
79	333.0166356563568	pulse	0	t		77.0	2.5	/experiments/knapen_AOT/AOT_stimuli/rescaled_final/1912_rv.mp4	0.0	366.6881444454193	
79	333.4414668083191	movie	1		265	77.0	2.5	/experiments/knapen_AOT/AOT_stimuli/rescaled_final/1912_rv.mp4	0.0	367.1129755973816	2.492053985595703
79	334.61693382263184	pulse	1	t		77.0	2.5	/experiments/knapen_AOT/AOT_stimuli/rescaled_final/1912_rv.mp4	0.0	368.28844261169434	
79	335.9335207939148	fix_post	2		12	77.0	2.5	/experiments/knapen_AOT/AOT_stimuli/rescaled_final/1912_rv.mp4	0.0	369.6050295829773	0.09999227523803711
80	336.03351306915283	fix_pre	0		120	78.0	2.5	/experiments/knapen_AOT/AOT_stimuli/rescaled_final/2013_fw.mp4	0.0	369.70502185821533	1.0084888935089111
80	336.2170877456665	pulse	0	t		78.0	2.5	/experiments/knapen_AOT/AOT_stimuli/rescaled_final/2013_fw.mp4	0.0	369.888596534729	
80	337.04200196266174	movie	1		293	78.0	2.5	/experiments/knapen_AOT/AOT_stimuli/rescaled_final/2013_fw.mp4	0.0	370.71351075172424	2.4920504093170166
80	337.81732749938965	pulse	1	t		78.0	2.5	/experiments/knapen_AOT/AOT_stimuli/rescaled_final/2013_fw.mp4	0.0	371.48883628845215	
80	339.41564083099365	pulse	1	t		78.0	2.5	/experiments/knapen_AOT/AOT_stimuli/rescaled_final/2013_fw.mp4	0.0	373.08714962005615	
80	339.53405237197876	fix_post	2		12	78.0	2.5	/experiments/knapen_AOT/AOT_stimuli/rescaled_final/2013_fw.mp4	0.0	373.20556116104126	0.1000056266784668
81	339.6340579986572	fix_pre	0		120	79.0	2.5	/experiments/knapen_AOT/AOT_stimuli/rescaled_final/0891_fw.mp4	0.0	373.3055667877197	1.0084807872772217
81	340.64253878593445	movie	1		274	79.0	2.5	/experiments/knapen_AOT/AOT_stimuli/rescaled_final/0891_fw.mp4	0.0	374.31404757499695	2.4921066761016846
81	341.0167956352234	pulse	1	t		79.0	2.5	/experiments/knapen_AOT/AOT_stimuli/rescaled_final/0891_fw.mp4	0.0	374.6883044242859	
81	342.6163055896759	pulse	1	t		79.0	2.5	/experiments/knapen_AOT/AOT_stimuli/rescaled_final/0891_fw.mp4	0.0	376.2878143787384	
81	343.13464546203613	fix_post	2		12	79.0	2.5	/experiments/knapen_AOT/AOT_stimuli/rescaled_final/0891_fw.mp4	0.0	376.80615425109863	0.09998917579650879
82	343.23463463783264	fix_pre	0		119	80.0	2.5	/experiments/knapen_AOT/AOT_stimuli/rescaled_final/1975_rv.mp4	0.0	376.90614342689514	1.0003290176391602
82	344.21829080581665	pulse	0	t		80.0	2.5	/experiments/knapen_AOT/AOT_stimuli/rescaled_final/1975_rv.mp4	0.0	377.88979959487915	
82	344.2349636554718	movie	1		279	80.0	2.5	/experiments/knapen_AOT/AOT_stimuli/rescaled_final/1975_rv.mp4	0.0	377.9064724445343	2.5001585483551025
82	345.81739687919617	pulse	1	t		80.0	2.5	/experiments/knapen_AOT/AOT_stimuli/rescaled_final/1975_rv.mp4	0.0	379.48890566825867	
82	346.7351222038269	fix_post	2		12	80.0	2.5	/experiments/knapen_AOT/AOT_stimuli/rescaled_final/1975_rv.mp4	0.0	380.4066309928894	0.10001516342163086
83	346.83513736724854	fix_pre	0		120	81.0	2.5	/experiments/knapen_AOT/AOT_stimuli/rescaled_final/1094_fw.mp4	0.0	380.50664615631104	1.008542776107788
83	347.41870379447937	pulse	0	t		81.0	2.5	/experiments/knapen_AOT/AOT_stimuli/rescaled_final/1094_fw.mp4	0.0	381.09021258354187	
83	347.8436801433563	movie	1		276	81.0	2.5	/experiments/knapen_AOT/AOT_stimuli/rescaled_final/1094_fw.mp4	0.0	381.5151889324188	2.4920265674591064
83	349.01836371421814	pulse	1	t		81.0	2.5	/experiments/knapen_AOT/AOT_stimuli/rescaled_final/1094_fw.mp4	0.0	382.68987250328064	
83	350.33570671081543	fix_post	2		12	81.0	2.5	/experiments/knapen_AOT/AOT_stimuli/rescaled_final/1094_fw.mp4	0.0	384.00721549987793	0.09997057914733887
84	350.43567728996277	fix_pre	0		119	82.0	2.5	/experiments/knapen_AOT/AOT_stimuli/rescaled_final/2085_fw.mp4	0.0	384.10718607902527	1.0085055828094482
84	350.61923599243164	pulse	0	t		82.0	2.5	/experiments/knapen_AOT/AOT_stimuli/rescaled_final/2085_fw.mp4	0.0	384.29074478149414	
84	351.4441828727722	movie	1		268	82.0	2.5	/experiments/knapen_AOT/AOT_stimuli/rescaled_final/2085_fw.mp4	0.0	385.1156916618347	2.4920156002044678
84	352.2204191684723	pulse	1	t		82.0	2.5	/experiments/knapen_AOT/AOT_stimuli/rescaled_final/2085_fw.mp4	0.0	385.8919279575348	
84	353.8175673484802	pulse	1	t		82.0	2.5	/experiments/knapen_AOT/AOT_stimuli/rescaled_final/2085_fw.mp4	0.0	387.4890761375427	
84	353.9361984729767	fix_post	2		12	82.0	2.5	/experiments/knapen_AOT/AOT_stimuli/rescaled_final/2085_fw.mp4	0.0	387.6077072620392	0.10002756118774414
85	354.03622603416443	fix_pre	0		120	83.0	2.5	blank	1.0	387.70773482322693	1.0001394748687744
85	355.0363655090332	movie	1		300	83.0	2.5	blank	1.0	388.7078742980957	2.5005006790161133
85	355.41999077796936	pulse	1	t		83.0	2.5	blank	1.0	389.09149956703186	
85	357.02017402648926	pulse	1	t		83.0	2.5	blank	1.0	390.69168281555176	
85	357.5368661880493	fix_post	2		12	83.0	2.5	blank	1.0	391.2083749771118	0.12490487098693848
87	357.66177105903625	stim	0		1712					391.33327984809875	14.268813848495483
87	358.620521068573	pulse	0	t						392.2920298576355	
87	360.2206931114197	pulse	0	t						393.8922019004822	
87	361.82094717025757	pulse	0	t						395.49245595932007	
87	363.42121505737305	pulse	0	t						397.09272384643555	
87	365.02141857147217	pulse	0	t						398.69292736053467	
87	366.62168979644775	pulse	0	t						400.29319858551025	
87	368.2219150066376	pulse	0	t						401.8934237957001	
87	369.8221254348755	pulse	0	t						403.493634223938	
87	371.42238879203796	pulse	0	t						405.09389758110046	
