trial_nr	onset	event_type	phase	response	nr_frames	movie_index	movie_duration	movie_file	blank	onset_abs	duration
0	0.19993090629577637	stim	0		1					17.985148191452026	0.03317737579345703
0	0.21983814239501953	response	0	space						18.00505542755127	
1	0.2331082820892334	stim	0		4564					18.018325567245483	38.04316449165344
1	38.26421928405762	pulse	0	t						56.04943656921387	
1	38.276272773742676	stim	1		1714					56.061490058898926	14.298064470291138
1	39.864182472229004	pulse	1	t						57.649399757385254	
1	41.46446919441223	pulse	1	t						59.24968647956848	
1	43.06480050086975	pulse	1	t						60.850017786026	
1	44.66487717628479	pulse	1	t						62.45009446144104	
1	46.265336990356445	pulse	1	t						64.0505542755127	
1	47.86545443534851	pulse	1	t						65.65067172050476	
1	49.46562123298645	pulse	1	t						67.2508385181427	
1	51.065924644470215	pulse	1	t						68.85114192962646	
2	52.57433724403381	fix_pre	0		9	0.0	2.5	/experiments/knapen_AOT/AOT_stimuli/rescaled_final/2061_rv.mp4	0.0	70.35955452919006	0.14169645309448242
2	52.66620135307312	pulse	0	t		0.0	2.5	/experiments/knapen_AOT/AOT_stimuli/rescaled_final/2061_rv.mp4	0.0	70.45141863822937	
2	52.716033697128296	movie	1		292	0.0	2.5	/experiments/knapen_AOT/AOT_stimuli/rescaled_final/2061_rv.mp4	0.0	70.50125098228455	2.466984987258911
2	54.26228594779968	pulse	1	t		0.0	2.5	/experiments/knapen_AOT/AOT_stimuli/rescaled_final/2061_rv.mp4	0.0	72.04750323295593	
2	55.18301868438721	fix_post	2		12	0.0	2.5	/experiments/knapen_AOT/AOT_stimuli/rescaled_final/2061_rv.mp4	0.0	72.96823596954346	0.09999728202819824
3	55.283015966415405	fix_pre	0		120	1.0	2.5	/experiments/knapen_AOT/AOT_stimuli/rescaled_final/1557_rv.mp4	0.0	73.06823325157166	1.016874074935913
3	55.866700172424316	pulse	0	t		1.0	2.5	/experiments/knapen_AOT/AOT_stimuli/rescaled_final/1557_rv.mp4	0.0	73.65191745758057	
3	56.29989004135132	movie	1		291	1.0	2.5	/experiments/knapen_AOT/AOT_stimuli/rescaled_final/1557_rv.mp4	0.0	74.08510732650757	2.48370623588562
3	57.4650137424469	pulse	1	t		1.0	2.5	/experiments/knapen_AOT/AOT_stimuli/rescaled_final/1557_rv.mp4	0.0	75.25023102760315	
3	58.78359627723694	fix_post	2		12	1.0	2.5	/experiments/knapen_AOT/AOT_stimuli/rescaled_final/1557_rv.mp4	0.0	76.56881356239319	0.09999370574951172
4	58.88358998298645	fix_pre	0		120	2.0	2.5	/experiments/knapen_AOT/AOT_stimuli/rescaled_final/2065_fw.mp4	0.0	76.6688072681427	1.0168426036834717
4	59.0672812461853	pulse	0	t		2.0	2.5	/experiments/knapen_AOT/AOT_stimuli/rescaled_final/2065_fw.mp4	0.0	76.85249853134155	
4	59.90043258666992	movie	1		293	2.0	2.5	/experiments/knapen_AOT/AOT_stimuli/rescaled_final/2065_fw.mp4	0.0	77.68564987182617	2.4837028980255127
4	60.663942098617554	pulse	1	t		2.0	2.5	/experiments/knapen_AOT/AOT_stimuli/rescaled_final/2065_fw.mp4	0.0	78.4491593837738	
4	62.26404619216919	pulse	1	t		2.0	2.5	/experiments/knapen_AOT/AOT_stimuli/rescaled_final/2065_fw.mp4	0.0	80.04926347732544	
4	62.384135484695435	fix_post	2		12	2.0	2.5	/experiments/knapen_AOT/AOT_stimuli/rescaled_final/2065_fw.mp4	0.0	80.16935276985168	0.09996175765991211
5	62.48409724235535	fix_pre	0		120	3.0	2.5	/experiments/knapen_AOT/AOT_stimuli/rescaled_final/1635_rv.mp4	0.0	80.2693145275116	1.0168979167938232
5	63.50099515914917	movie	1		292	3.0	2.5	/experiments/knapen_AOT/AOT_stimuli/rescaled_final/1635_rv.mp4	0.0	81.28621244430542	2.483672618865967
5	63.86379337310791	pulse	1	t		3.0	2.5	/experiments/knapen_AOT/AOT_stimuli/rescaled_final/1635_rv.mp4	0.0	81.64901065826416	
5	65.4598925113678	pulse	1	t		3.0	2.5	/experiments/knapen_AOT/AOT_stimuli/rescaled_final/1635_rv.mp4	0.0	83.24510979652405	
5	65.98466777801514	fix_post	2		12	3.0	2.5	/experiments/knapen_AOT/AOT_stimuli/rescaled_final/1635_rv.mp4	0.0	83.76988506317139	0.1000676155090332
6	66.08473539352417	fix_pre	0		118	4.0	2.5	/experiments/knapen_AOT/AOT_stimuli/rescaled_final/2117_fw.mp4	0.0	83.86995267868042	0.9917342662811279
6	67.05997896194458	pulse	0	t		4.0	2.5	/experiments/knapen_AOT/AOT_stimuli/rescaled_final/2117_fw.mp4	0.0	84.84519624710083	
6	67.0764696598053	movie	1		300	4.0	2.5	/experiments/knapen_AOT/AOT_stimuli/rescaled_final/2117_fw.mp4	0.0	84.86168694496155	2.500427722930908
6	68.660329580307	pulse	1	t		4.0	2.5	/experiments/knapen_AOT/AOT_stimuli/rescaled_final/2117_fw.mp4	0.0	86.44554686546326	
6	69.5768973827362	fix_post	2		12	4.0	2.5	/experiments/knapen_AOT/AOT_stimuli/rescaled_final/2117_fw.mp4	0.0	87.36211466789246	0.09999680519104004
7	69.67689418792725	fix_pre	0		120	5.0	2.5	blank	1.0	87.4621114730835	1.0001296997070312
7	70.26051068305969	pulse	0	t		5.0	2.5	blank	1.0	88.04572796821594	
7	70.67702388763428	movie	1		300	5.0	2.5	blank	1.0	88.46224117279053	2.500377893447876
7	71.86096024513245	pulse	1	t		5.0	2.5	blank	1.0	89.6461775302887	
7	73.17740178108215	fix_post	2		12	5.0	2.5	blank	1.0	90.9626190662384	0.1000223159790039
8	73.27742409706116	fix_pre	0		120	6.0	2.5	/experiments/knapen_AOT/AOT_stimuli/rescaled_final/0710_rv.mp4	0.0	91.06264138221741	1.0168430805206299
8	73.46091866493225	pulse	0	t		6.0	2.5	/experiments/knapen_AOT/AOT_stimuli/rescaled_final/0710_rv.mp4	0.0	91.2461359500885	
8	74.29426717758179	movie	1		298	6.0	2.5	/experiments/knapen_AOT/AOT_stimuli/rescaled_final/0710_rv.mp4	0.0	92.07948446273804	2.4836268424987793
8	75.06111097335815	pulse	1	t		6.0	2.5	/experiments/knapen_AOT/AOT_stimuli/rescaled_final/0710_rv.mp4	0.0	92.8463282585144	
8	76.66134881973267	pulse	1	t		6.0	2.5	/experiments/knapen_AOT/AOT_stimuli/rescaled_final/0710_rv.mp4	0.0	94.44656610488892	
8	76.77789402008057	fix_post	2		12	6.0	2.5	/experiments/knapen_AOT/AOT_stimuli/rescaled_final/0710_rv.mp4	0.0	94.56311130523682	0.10010361671447754
9	76.87799763679504	fix_pre	0		120	7.0	2.5	/experiments/knapen_AOT/AOT_stimuli/rescaled_final/0818_fw.mp4	0.0	94.6632149219513	1.01686429977417
9	77.89486193656921	movie	1		294	7.0	2.5	/experiments/knapen_AOT/AOT_stimuli/rescaled_final/0818_fw.mp4	0.0	95.68007922172546	2.475282669067383
9	78.26159977912903	pulse	1	t		7.0	2.5	/experiments/knapen_AOT/AOT_stimuli/rescaled_final/0818_fw.mp4	0.0	96.04681706428528	
9	79.86185097694397	pulse	1	t		7.0	2.5	/experiments/knapen_AOT/AOT_stimuli/rescaled_final/0818_fw.mp4	0.0	97.64706826210022	
9	80.3701446056366	fix_post	2		12	7.0	2.5	/experiments/knapen_AOT/AOT_stimuli/rescaled_final/0818_fw.mp4	0.0	98.15536189079285	0.10002350807189941
10	80.4701681137085	fix_pre	0		120	8.0	2.5	/experiments/knapen_AOT/AOT_stimuli/rescaled_final/1528_fw.mp4	0.0	98.25538539886475	1.0085632801055908
10	81.46250867843628	pulse	0	t		8.0	2.5	/experiments/knapen_AOT/AOT_stimuli/rescaled_final/1528_fw.mp4	0.0	99.24772596359253	
10	81.47873139381409	movie	1		297	8.0	2.5	/experiments/knapen_AOT/AOT_stimuli/rescaled_final/1528_fw.mp4	0.0	99.26394867897034	2.500284194946289
10	83.06241226196289	pulse	1	t		8.0	2.5	/experiments/knapen_AOT/AOT_stimuli/rescaled_final/1528_fw.mp4	0.0	100.84762954711914	
10	83.97901558876038	fix_post	2		12	8.0	2.5	/experiments/knapen_AOT/AOT_stimuli/rescaled_final/1528_fw.mp4	0.0	101.76423287391663	0.10001635551452637
11	84.0790319442749	fix_pre	0		120	9.0	2.5	/experiments/knapen_AOT/AOT_stimuli/rescaled_final/0162_rv.mp4	0.0	101.86424922943115	1.0168445110321045
11	84.66270112991333	pulse	0	t		9.0	2.5	/experiments/knapen_AOT/AOT_stimuli/rescaled_final/0162_rv.mp4	0.0	102.44791841506958	
11	85.095876455307	movie	1		293	9.0	2.5	/experiments/knapen_AOT/AOT_stimuli/rescaled_final/0162_rv.mp4	0.0	102.88109374046326	2.483710527420044
11	86.26284694671631	pulse	1	t		9.0	2.5	/experiments/knapen_AOT/AOT_stimuli/rescaled_final/0162_rv.mp4	0.0	104.04806423187256	
11	87.57958698272705	fix_post	2		12	9.0	2.5	/experiments/knapen_AOT/AOT_stimuli/rescaled_final/0162_rv.mp4	0.0	105.3648042678833	0.09999227523803711
12	87.67957925796509	fix_pre	0		120	10.0	2.5	/experiments/knapen_AOT/AOT_stimuli/rescaled_final/2103_rv.mp4	0.0	105.46479654312134	1.0084750652313232
12	87.86309242248535	pulse	0	t		10.0	2.5	/experiments/knapen_AOT/AOT_stimuli/rescaled_final/2103_rv.mp4	0.0	105.6483097076416	
12	88.68805432319641	movie	1		298	10.0	2.5	/experiments/knapen_AOT/AOT_stimuli/rescaled_final/2103_rv.mp4	0.0	106.47327160835266	2.492095470428467
12	89.4633321762085	pulse	1	t		10.0	2.5	/experiments/knapen_AOT/AOT_stimuli/rescaled_final/2103_rv.mp4	0.0	107.24854946136475	
12	91.06353163719177	pulse	1	t		10.0	2.5	/experiments/knapen_AOT/AOT_stimuli/rescaled_final/2103_rv.mp4	0.0	108.84874892234802	
12	91.18014979362488	fix_post	2		12	10.0	2.5	/experiments/knapen_AOT/AOT_stimuli/rescaled_final/2103_rv.mp4	0.0	108.96536707878113	0.10003352165222168
13	91.2801833152771	fix_pre	0		120	11.0	2.5	/experiments/knapen_AOT/AOT_stimuli/rescaled_final/1197_fw.mp4	0.0	109.06540060043335	1.0167632102966309
13	92.29694652557373	movie	1		295	11.0	2.5	/experiments/knapen_AOT/AOT_stimuli/rescaled_final/1197_fw.mp4	0.0	110.08216381072998	2.483680248260498
13	92.65998792648315	pulse	1	t		11.0	2.5	/experiments/knapen_AOT/AOT_stimuli/rescaled_final/1197_fw.mp4	0.0	110.4452052116394	
13	94.26412749290466	pulse	1	t		11.0	2.5	/experiments/knapen_AOT/AOT_stimuli/rescaled_final/1197_fw.mp4	0.0	112.04934477806091	
13	94.78062677383423	fix_post	2		12	11.0	2.5	/experiments/knapen_AOT/AOT_stimuli/rescaled_final/1197_fw.mp4	0.0	112.56584405899048	0.10004663467407227
14	94.8806734085083	fix_pre	0		119	12.0	2.5	blank	1.0	112.66589069366455	0.9918971061706543
14	95.86434078216553	pulse	0	t		12.0	2.5	blank	1.0	113.64955806732178	
14	95.87257051467896	movie	1		301	12.0	2.5	blank	1.0	113.6577877998352	2.5086495876312256
14	97.46456122398376	pulse	1	t		12.0	2.5	blank	1.0	115.24977850914001	
14	98.38122010231018	fix_post	2		12	12.0	2.5	blank	1.0	116.16643738746643	0.10013198852539062
15	98.48135209083557	fix_pre	0		120	13.0	2.5	/experiments/knapen_AOT/AOT_stimuli/rescaled_final/1385_fw.mp4	0.0	116.26656937599182	1.025111198425293
15	99.06497025489807	pulse	0	t		13.0	2.5	/experiments/knapen_AOT/AOT_stimuli/rescaled_final/1385_fw.mp4	0.0	116.85018754005432	
15	99.50646328926086	movie	1		278	13.0	2.5	/experiments/knapen_AOT/AOT_stimuli/rescaled_final/1385_fw.mp4	0.0	117.29168057441711	2.475294351577759
15	100.6630597114563	pulse	1	t		13.0	2.5	/experiments/knapen_AOT/AOT_stimuli/rescaled_final/1385_fw.mp4	0.0	118.44827699661255	
15	101.98175764083862	fix_post	2		12	13.0	2.5	/experiments/knapen_AOT/AOT_stimuli/rescaled_final/1385_fw.mp4	0.0	119.76697492599487	0.1000208854675293
16	102.08177852630615	fix_pre	0		120	14.0	2.5	/experiments/knapen_AOT/AOT_stimuli/rescaled_final/1741_fw.mp4	0.0	119.8669958114624	1.0170104503631592
16	102.26532006263733	pulse	0	t		14.0	2.5	/experiments/knapen_AOT/AOT_stimuli/rescaled_final/1741_fw.mp4	0.0	120.05053734779358	
16	103.09878897666931	movie	1		285	14.0	2.5	/experiments/knapen_AOT/AOT_stimuli/rescaled_final/1741_fw.mp4	0.0	120.88400626182556	2.4835758209228516
16	103.8632538318634	pulse	1	t		14.0	2.5	/experiments/knapen_AOT/AOT_stimuli/rescaled_final/1741_fw.mp4	0.0	121.64847111701965	
16	105.46474862098694	pulse	1	t		14.0	2.5	/experiments/knapen_AOT/AOT_stimuli/rescaled_final/1741_fw.mp4	0.0	123.24996590614319	
16	105.58236479759216	fix_post	2		12	14.0	2.5	/experiments/knapen_AOT/AOT_stimuli/rescaled_final/1741_fw.mp4	0.0	123.36758208274841	0.09998011589050293
17	105.68234491348267	fix_pre	0		120	15.0	2.5	/experiments/knapen_AOT/AOT_stimuli/rescaled_final/0963_fw.mp4	0.0	123.46756219863892	1.016939401626587
17	106.69928431510925	movie	1		274	15.0	2.5	/experiments/knapen_AOT/AOT_stimuli/rescaled_final/0963_fw.mp4	0.0	124.4845016002655	2.48380708694458
17	107.06420826911926	pulse	1	t		15.0	2.5	/experiments/knapen_AOT/AOT_stimuli/rescaled_final/0963_fw.mp4	0.0	124.84942555427551	
17	108.66454243659973	pulse	1	t		15.0	2.5	/experiments/knapen_AOT/AOT_stimuli/rescaled_final/0963_fw.mp4	0.0	126.44975972175598	
17	109.18309140205383	fix_post	2		12	15.0	2.5	/experiments/knapen_AOT/AOT_stimuli/rescaled_final/0963_fw.mp4	0.0	126.96830868721008	0.09982872009277344
18	109.2829201221466	fix_pre	0		119	16.0	2.5	/experiments/knapen_AOT/AOT_stimuli/rescaled_final/1770_rv.mp4	0.0	127.06813740730286	1.0170872211456299
18	110.26665997505188	pulse	0	t		16.0	2.5	/experiments/knapen_AOT/AOT_stimuli/rescaled_final/1770_rv.mp4	0.0	128.05187726020813	
18	110.30000734329224	movie	1		282	16.0	2.5	/experiments/knapen_AOT/AOT_stimuli/rescaled_final/1770_rv.mp4	0.0	128.0852246284485	2.4833860397338867
18	111.86509561538696	pulse	1	t		16.0	2.5	/experiments/knapen_AOT/AOT_stimuli/rescaled_final/1770_rv.mp4	0.0	129.6503129005432	
18	112.78339338302612	fix_post	2		12	16.0	2.5	/experiments/knapen_AOT/AOT_stimuli/rescaled_final/1770_rv.mp4	0.0	130.56861066818237	0.1000223159790039
19	112.88341569900513	fix_pre	0		120	17.0	2.5	/experiments/knapen_AOT/AOT_stimuli/rescaled_final/1187_rv.mp4	0.0	130.66863298416138	1.0253922939300537
19	113.46712446212769	pulse	0	t		17.0	2.5	/experiments/knapen_AOT/AOT_stimuli/rescaled_final/1187_rv.mp4	0.0	131.25234174728394	
19	113.90880799293518	movie	1		287	17.0	2.5	/experiments/knapen_AOT/AOT_stimuli/rescaled_final/1187_rv.mp4	0.0	131.69402527809143	2.4751508235931396
19	115.06519484519958	pulse	1	t		17.0	2.5	/experiments/knapen_AOT/AOT_stimuli/rescaled_final/1187_rv.mp4	0.0	132.85041213035583	
19	116.38395881652832	fix_post	2		12	17.0	2.5	/experiments/knapen_AOT/AOT_stimuli/rescaled_final/1187_rv.mp4	0.0	134.16917610168457	0.10005021095275879
20	116.48400902748108	fix_pre	0		120	18.0	2.5	/experiments/knapen_AOT/AOT_stimuli/rescaled_final/1135_rv.mp4	0.0	134.26922631263733	1.0167617797851562
20	116.6594455242157	pulse	0	t		18.0	2.5	/experiments/knapen_AOT/AOT_stimuli/rescaled_final/1135_rv.mp4	0.0	134.44466280937195	
20	117.50077080726624	movie	1		287	18.0	2.5	/experiments/knapen_AOT/AOT_stimuli/rescaled_final/1135_rv.mp4	0.0	135.28598809242249	2.4836878776550293
20	118.259516954422	pulse	1	t		18.0	2.5	/experiments/knapen_AOT/AOT_stimuli/rescaled_final/1135_rv.mp4	0.0	136.04473423957825	
20	119.85976243019104	pulse	1	t		18.0	2.5	/experiments/knapen_AOT/AOT_stimuli/rescaled_final/1135_rv.mp4	0.0	137.6449797153473	
20	119.98445868492126	fix_post	2		12	18.0	2.5	/experiments/knapen_AOT/AOT_stimuli/rescaled_final/1135_rv.mp4	0.0	137.76967597007751	0.1000356674194336
21	120.0844943523407	fix_pre	0		120	19.0	2.5	/experiments/knapen_AOT/AOT_stimuli/rescaled_final/0189_fw.mp4	0.0	137.86971163749695	1.016843557357788
21	121.10133790969849	movie	1		271	19.0	2.5	/experiments/knapen_AOT/AOT_stimuli/rescaled_final/0189_fw.mp4	0.0	138.88655519485474	2.483755588531494
21	121.46015405654907	pulse	1	t		19.0	2.5	/experiments/knapen_AOT/AOT_stimuli/rescaled_final/0189_fw.mp4	0.0	139.24537134170532	
21	123.06019878387451	pulse	1	t		19.0	2.5	/experiments/knapen_AOT/AOT_stimuli/rescaled_final/0189_fw.mp4	0.0	140.84541606903076	
21	123.58509349822998	fix_post	2		12	19.0	2.5	/experiments/knapen_AOT/AOT_stimuli/rescaled_final/0189_fw.mp4	0.0	141.37031078338623	0.09993314743041992
22	123.6850266456604	fix_pre	0		118	20.0	2.5	blank	1.0	141.47024393081665	0.9834709167480469
22	124.66040372848511	pulse	0	t		20.0	2.5	blank	1.0	142.44562101364136	
22	124.66849756240845	movie	1		301	20.0	2.5	blank	1.0	142.4537148475647	2.5087103843688965
22	126.26066493988037	pulse	1	t		20.0	2.5	blank	1.0	144.04588222503662	
22	127.17720794677734	fix_post	2		12	20.0	2.5	blank	1.0	144.9624252319336	0.10001015663146973
23	127.27721810340881	fix_pre	0		120	21.0	2.5	/experiments/knapen_AOT/AOT_stimuli/rescaled_final/1985_rv.mp4	0.0	145.06243538856506	1.0168757438659668
23	127.86086964607239	pulse	0	t		21.0	2.5	/experiments/knapen_AOT/AOT_stimuli/rescaled_final/1985_rv.mp4	0.0	145.64608693122864	
23	128.29409384727478	movie	1		278	21.0	2.5	/experiments/knapen_AOT/AOT_stimuli/rescaled_final/1985_rv.mp4	0.0	146.07931113243103	2.483809471130371
23	129.46055936813354	pulse	1	t		21.0	2.5	/experiments/knapen_AOT/AOT_stimuli/rescaled_final/1985_rv.mp4	0.0	147.2457766532898	
23	130.77790331840515	fix_post	2		12	21.0	2.5	/experiments/knapen_AOT/AOT_stimuli/rescaled_final/1985_rv.mp4	0.0	148.5631206035614	0.1000373363494873
24	130.87794065475464	fix_pre	0		120	22.0	2.5	/experiments/knapen_AOT/AOT_stimuli/rescaled_final/0029_rv.mp4	0.0	148.6631579399109	1.016679048538208
24	131.061354637146	pulse	0	t		22.0	2.5	/experiments/knapen_AOT/AOT_stimuli/rescaled_final/0029_rv.mp4	0.0	148.84657192230225	
24	131.89461970329285	movie	1		281	22.0	2.5	/experiments/knapen_AOT/AOT_stimuli/rescaled_final/0029_rv.mp4	0.0	149.6798369884491	2.4837067127227783
24	132.66052627563477	pulse	1	t		22.0	2.5	/experiments/knapen_AOT/AOT_stimuli/rescaled_final/0029_rv.mp4	0.0	150.44574356079102	
24	134.26012563705444	pulse	1	t		22.0	2.5	/experiments/knapen_AOT/AOT_stimuli/rescaled_final/0029_rv.mp4	0.0	152.0453429222107	
24	134.37832641601562	fix_post	2		12	22.0	2.5	/experiments/knapen_AOT/AOT_stimuli/rescaled_final/0029_rv.mp4	0.0	152.16354370117188	0.1000816822052002
25	134.47840809822083	fix_pre	0		120	23.0	2.5	/experiments/knapen_AOT/AOT_stimuli/rescaled_final/0497_rv.mp4	0.0	152.26362538337708	1.025310754776001
25	135.50371885299683	movie	1		288	23.0	2.5	/experiments/knapen_AOT/AOT_stimuli/rescaled_final/0497_rv.mp4	0.0	153.28893613815308	2.475114107131958
25	135.8607039451599	pulse	1	t		23.0	2.5	/experiments/knapen_AOT/AOT_stimuli/rescaled_final/0497_rv.mp4	0.0	153.64592123031616	
25	137.46017718315125	pulse	1	t		23.0	2.5	/experiments/knapen_AOT/AOT_stimuli/rescaled_final/0497_rv.mp4	0.0	155.2453944683075	
25	137.97883296012878	fix_post	2		12	23.0	2.5	/experiments/knapen_AOT/AOT_stimuli/rescaled_final/0497_rv.mp4	0.0	155.76405024528503	0.10010886192321777
26	138.078941822052	fix_pre	0		119	24.0	2.5	/experiments/knapen_AOT/AOT_stimuli/rescaled_final/1247_rv.mp4	0.0	155.86415910720825	1.0169341564178467
26	139.0626301765442	pulse	0	t		24.0	2.5	/experiments/knapen_AOT/AOT_stimuli/rescaled_final/1247_rv.mp4	0.0	156.84784746170044	
26	139.09587597846985	movie	1		278	24.0	2.5	/experiments/knapen_AOT/AOT_stimuli/rescaled_final/1247_rv.mp4	0.0	156.8810932636261	2.4837453365325928
26	140.6626274585724	pulse	1	t		24.0	2.5	/experiments/knapen_AOT/AOT_stimuli/rescaled_final/1247_rv.mp4	0.0	158.44784474372864	
26	141.57962131500244	fix_post	2		12	24.0	2.5	/experiments/knapen_AOT/AOT_stimuli/rescaled_final/1247_rv.mp4	0.0	159.3648386001587	0.09983658790588379
27	141.67945790290833	fix_pre	0		120	25.0	2.5	/experiments/knapen_AOT/AOT_stimuli/rescaled_final/2117_fw.mp4	0.0	159.46467518806458	1.008439064025879
27	142.26301550865173	pulse	0	t		25.0	2.5	/experiments/knapen_AOT/AOT_stimuli/rescaled_final/2117_fw.mp4	0.0	160.04823279380798	
27	142.6878969669342	movie	1		288	25.0	2.5	/experiments/knapen_AOT/AOT_stimuli/rescaled_final/2117_fw.mp4	0.0	160.47311425209045	2.4920268058776855
27	143.86113715171814	pulse	1	t		25.0	2.5	/experiments/knapen_AOT/AOT_stimuli/rescaled_final/2117_fw.mp4	0.0	161.6463544368744	
27	145.1799237728119	fix_post	2		12	25.0	2.5	/experiments/knapen_AOT/AOT_stimuli/rescaled_final/2117_fw.mp4	0.0	162.96514105796814	0.10001015663146973
28	145.27993392944336	fix_pre	0		120	26.0	2.5	/experiments/knapen_AOT/AOT_stimuli/rescaled_final/1917_rv.mp4	0.0	163.0651512145996	1.0168695449829102
28	145.46364283561707	pulse	0	t		26.0	2.5	/experiments/knapen_AOT/AOT_stimuli/rescaled_final/1917_rv.mp4	0.0	163.24886012077332	
28	146.29680347442627	movie	1		281	26.0	2.5	/experiments/knapen_AOT/AOT_stimuli/rescaled_final/1917_rv.mp4	0.0	164.08202075958252	2.483651638031006
28	147.06184363365173	pulse	1	t		26.0	2.5	/experiments/knapen_AOT/AOT_stimuli/rescaled_final/1917_rv.mp4	0.0	164.84706091880798	
28	148.66197872161865	pulse	1	t		26.0	2.5	/experiments/knapen_AOT/AOT_stimuli/rescaled_final/1917_rv.mp4	0.0	166.4471960067749	
28	148.78045511245728	fix_post	2		12	26.0	2.5	/experiments/knapen_AOT/AOT_stimuli/rescaled_final/1917_rv.mp4	0.0	166.56567239761353	0.10007929801940918
29	148.88053441047668	fix_pre	0		120	27.0	2.5	/experiments/knapen_AOT/AOT_stimuli/rescaled_final/1022_rv.mp4	0.0	166.66575169563293	1.0168895721435547
29	149.89742398262024	movie	1		282	27.0	2.5	/experiments/knapen_AOT/AOT_stimuli/rescaled_final/1022_rv.mp4	0.0	167.6826412677765	2.4839072227478027
29	150.26298689842224	pulse	1	t		27.0	2.5	/experiments/knapen_AOT/AOT_stimuli/rescaled_final/1022_rv.mp4	0.0	168.0482041835785	
29	151.86223220825195	pulse	1	t		27.0	2.5	/experiments/knapen_AOT/AOT_stimuli/rescaled_final/1022_rv.mp4	0.0	169.6474494934082	
29	152.38133120536804	fix_post	2		12	27.0	2.5	/experiments/knapen_AOT/AOT_stimuli/rescaled_final/1022_rv.mp4	0.0	170.1665484905243	0.0997469425201416
30	152.48107814788818	fix_pre	0		119	28.0	2.5	blank	1.0	170.26629543304443	0.991767406463623
30	153.46472144126892	pulse	0	t		28.0	2.5	blank	1.0	171.24993872642517	
30	153.4728455543518	movie	1		301	28.0	2.5	blank	1.0	171.25806283950806	2.508694887161255
30	155.06493401527405	pulse	1	t		28.0	2.5	blank	1.0	172.8501513004303	
30	155.98154044151306	fix_post	2		12	28.0	2.5	blank	1.0	173.7667577266693	0.10003066062927246
31	156.08157110214233	fix_pre	0		120	29.0	2.5	/experiments/knapen_AOT/AOT_stimuli/rescaled_final/0699_fw.mp4	0.0	173.86678838729858	1.0251939296722412
31	156.66519212722778	pulse	0	t		29.0	2.5	/experiments/knapen_AOT/AOT_stimuli/rescaled_final/0699_fw.mp4	0.0	174.45040941238403	
31	157.10676503181458	movie	1		281	29.0	2.5	/experiments/knapen_AOT/AOT_stimuli/rescaled_final/0699_fw.mp4	0.0	174.89198231697083	2.475414514541626
31	158.26380562782288	pulse	1	t		29.0	2.5	/experiments/knapen_AOT/AOT_stimuli/rescaled_final/0699_fw.mp4	0.0	176.04902291297913	
31	159.5821795463562	fix_post	2		12	29.0	2.5	/experiments/knapen_AOT/AOT_stimuli/rescaled_final/0699_fw.mp4	0.0	177.36739683151245	0.10000395774841309
32	159.68218350410461	fix_pre	0		120	30.0	2.5	/experiments/knapen_AOT/AOT_stimuli/rescaled_final/0850_rv.mp4	0.0	177.46740078926086	1.0167303085327148
32	159.86573600769043	pulse	0	t		30.0	2.5	/experiments/knapen_AOT/AOT_stimuli/rescaled_final/0850_rv.mp4	0.0	177.65095329284668	
32	160.69891381263733	movie	1		275	30.0	2.5	/experiments/knapen_AOT/AOT_stimuli/rescaled_final/0850_rv.mp4	0.0	178.48413109779358	2.4837098121643066
32	161.46615266799927	pulse	1	t		30.0	2.5	/experiments/knapen_AOT/AOT_stimuli/rescaled_final/0850_rv.mp4	0.0	179.25136995315552	
32	163.06402277946472	pulse	1	t		30.0	2.5	/experiments/knapen_AOT/AOT_stimuli/rescaled_final/0850_rv.mp4	0.0	180.84924006462097	
32	163.18262362480164	fix_post	2		12	30.0	2.5	/experiments/knapen_AOT/AOT_stimuli/rescaled_final/0850_rv.mp4	0.0	180.96784090995789	0.10002374649047852
33	163.28264737129211	fix_pre	0		120	31.0	2.5	/experiments/knapen_AOT/AOT_stimuli/rescaled_final/1539_rv.mp4	0.0	181.06786465644836	1.0253872871398926
33	164.308034658432	movie	1		270	31.0	2.5	/experiments/knapen_AOT/AOT_stimuli/rescaled_final/1539_rv.mp4	0.0	182.09325194358826	2.4752120971679688
33	164.66657710075378	pulse	1	t		31.0	2.5	/experiments/knapen_AOT/AOT_stimuli/rescaled_final/1539_rv.mp4	0.0	182.45179438591003	
33	166.2646312713623	pulse	1	t		31.0	2.5	/experiments/knapen_AOT/AOT_stimuli/rescaled_final/1539_rv.mp4	0.0	184.04984855651855	
33	166.78324675559998	fix_post	2		12	31.0	2.5	/experiments/knapen_AOT/AOT_stimuli/rescaled_final/1539_rv.mp4	0.0	184.56846404075623	0.09993982315063477
34	166.8831865787506	fix_pre	0		119	32.0	2.5	/experiments/knapen_AOT/AOT_stimuli/rescaled_final/1732_rv.mp4	0.0	184.66840386390686	1.0169646739959717
34	167.86686205863953	pulse	0	t		32.0	2.5	/experiments/knapen_AOT/AOT_stimuli/rescaled_final/1732_rv.mp4	0.0	185.65207934379578	
34	167.90015125274658	movie	1		271	32.0	2.5	/experiments/knapen_AOT/AOT_stimuli/rescaled_final/1732_rv.mp4	0.0	185.68536853790283	2.483696699142456
34	169.46526193618774	pulse	1	t		32.0	2.5	/experiments/knapen_AOT/AOT_stimuli/rescaled_final/1732_rv.mp4	0.0	187.250479221344	
34	170.38384795188904	fix_post	2		11	32.0	2.5	/experiments/knapen_AOT/AOT_stimuli/rescaled_final/1732_rv.mp4	0.0	188.1690652370453	0.09989070892333984
35	170.48373866081238	fix_pre	0		120	33.0	2.5	blank	1.0	188.26895594596863	1.0001425743103027
35	171.06734490394592	pulse	0	t		33.0	2.5	blank	1.0	188.85256218910217	
35	171.48388123512268	movie	1		300	33.0	2.5	blank	1.0	189.26909852027893	2.500368118286133
35	172.66024446487427	pulse	1	t		33.0	2.5	blank	1.0	190.44546175003052	
35	173.9842493534088	fix_post	2		12	33.0	2.5	blank	1.0	191.76946663856506	0.10004019737243652
36	174.08428955078125	fix_pre	0		120	34.0	2.5	/experiments/knapen_AOT/AOT_stimuli/rescaled_final/0269_fw.mp4	0.0	191.8695068359375	1.0252208709716797
36	174.25991797447205	pulse	0	t		34.0	2.5	/experiments/knapen_AOT/AOT_stimuli/rescaled_final/0269_fw.mp4	0.0	192.0451352596283	
36	175.10951042175293	movie	1		248	34.0	2.5	/experiments/knapen_AOT/AOT_stimuli/rescaled_final/0269_fw.mp4	0.0	192.89472770690918	2.475379228591919
36	175.86872172355652	pulse	1	t		34.0	2.5	/experiments/knapen_AOT/AOT_stimuli/rescaled_final/0269_fw.mp4	0.0	193.65393900871277	
36	177.46005725860596	pulse	1	t		34.0	2.5	/experiments/knapen_AOT/AOT_stimuli/rescaled_final/0269_fw.mp4	0.0	195.2452745437622	
36	177.58488965034485	fix_post	2		12	34.0	2.5	/experiments/knapen_AOT/AOT_stimuli/rescaled_final/0269_fw.mp4	0.0	195.3701069355011	0.09992575645446777
37	177.68481540679932	fix_pre	0		120	35.0	2.5	/experiments/knapen_AOT/AOT_stimuli/rescaled_final/0733_rv.mp4	0.0	195.47003269195557	1.0168774127960205
37	178.70169281959534	movie	1		265	35.0	2.5	/experiments/knapen_AOT/AOT_stimuli/rescaled_final/0733_rv.mp4	0.0	196.4869101047516	2.483764886856079
37	179.0608687400818	pulse	1	t		35.0	2.5	/experiments/knapen_AOT/AOT_stimuli/rescaled_final/0733_rv.mp4	0.0	196.84608602523804	
37	180.66090655326843	pulse	1	t		35.0	2.5	/experiments/knapen_AOT/AOT_stimuli/rescaled_final/0733_rv.mp4	0.0	198.44612383842468	
37	181.18545770645142	fix_post	2		12	35.0	2.5	/experiments/knapen_AOT/AOT_stimuli/rescaled_final/0733_rv.mp4	0.0	198.97067499160767	0.09989786148071289
38	181.28535556793213	fix_pre	0		118	36.0	2.5	/experiments/knapen_AOT/AOT_stimuli/rescaled_final/1031_fw.mp4	0.0	199.07057285308838	1.0001726150512695
38	182.2607684135437	pulse	0	t		36.0	2.5	/experiments/knapen_AOT/AOT_stimuli/rescaled_final/1031_fw.mp4	0.0	200.04598569869995	
38	182.2855281829834	movie	1		273	36.0	2.5	/experiments/knapen_AOT/AOT_stimuli/rescaled_final/1031_fw.mp4	0.0	200.07074546813965	2.492117404937744
38	183.8611443042755	pulse	1	t		36.0	2.5	/experiments/knapen_AOT/AOT_stimuli/rescaled_final/1031_fw.mp4	0.0	201.64636158943176	
38	184.77764558792114	fix_post	2		12	36.0	2.5	/experiments/knapen_AOT/AOT_stimuli/rescaled_final/1031_fw.mp4	0.0	202.5628628730774	0.09992218017578125
39	184.87756776809692	fix_pre	0		120	37.0	2.5	/experiments/knapen_AOT/AOT_stimuli/rescaled_final/1031_rv.mp4	0.0	202.66278505325317	1.0168354511260986
39	185.46126198768616	pulse	0	t		37.0	2.5	/experiments/knapen_AOT/AOT_stimuli/rescaled_final/1031_rv.mp4	0.0	203.2464792728424	
39	185.89440321922302	movie	1		274	37.0	2.5	/experiments/knapen_AOT/AOT_stimuli/rescaled_final/1031_rv.mp4	0.0	203.67962050437927	2.483696222305298
39	187.0604977607727	pulse	1	t		37.0	2.5	/experiments/knapen_AOT/AOT_stimuli/rescaled_final/1031_rv.mp4	0.0	204.84571504592896	
39	188.37809944152832	fix_post	2		12	37.0	2.5	/experiments/knapen_AOT/AOT_stimuli/rescaled_final/1031_rv.mp4	0.0	206.16331672668457	0.10005640983581543
40	188.47815585136414	fix_pre	0		120	38.0	2.5	/experiments/knapen_AOT/AOT_stimuli/rescaled_final/0134_rv.mp4	0.0	206.26337313652039	1.0168352127075195
40	188.6618993282318	pulse	0	t		38.0	2.5	/experiments/knapen_AOT/AOT_stimuli/rescaled_final/0134_rv.mp4	0.0	206.44711661338806	
40	189.49499106407166	movie	1		268	38.0	2.5	/experiments/knapen_AOT/AOT_stimuli/rescaled_final/0134_rv.mp4	0.0	207.2802083492279	2.483637571334839
40	190.2612955570221	pulse	1	t		38.0	2.5	/experiments/knapen_AOT/AOT_stimuli/rescaled_final/0134_rv.mp4	0.0	208.04651284217834	
40	191.8599202632904	pulse	1	t		38.0	2.5	/experiments/knapen_AOT/AOT_stimuli/rescaled_final/0134_rv.mp4	0.0	209.64513754844666	
40	191.9786286354065	fix_post	2		12	38.0	2.5	/experiments/knapen_AOT/AOT_stimuli/rescaled_final/0134_rv.mp4	0.0	209.76384592056274	0.1000661849975586
41	192.07869482040405	fix_pre	0		120	39.0	2.5	/experiments/knapen_AOT/AOT_stimuli/rescaled_final/0276_rv.mp4	0.0	209.8639121055603	1.025292158126831
41	193.10398697853088	movie	1		244	39.0	2.5	/experiments/knapen_AOT/AOT_stimuli/rescaled_final/0276_rv.mp4	0.0	210.88920426368713	2.475353956222534
41	193.46100068092346	pulse	1	t		39.0	2.5	/experiments/knapen_AOT/AOT_stimuli/rescaled_final/0276_rv.mp4	0.0	211.2462179660797	
41	195.060307264328	pulse	1	t		39.0	2.5	/experiments/knapen_AOT/AOT_stimuli/rescaled_final/0276_rv.mp4	0.0	212.84552454948425	
41	195.57934093475342	fix_post	2		12	39.0	2.5	/experiments/knapen_AOT/AOT_stimuli/rescaled_final/0276_rv.mp4	0.0	213.36455821990967	0.09983038902282715
42	195.67917132377625	fix_pre	0		119	40.0	2.5	blank	1.0	213.4643886089325	0.991814136505127
42	196.66290307044983	pulse	0	t		40.0	2.5	blank	1.0	214.44812035560608	
42	196.67098546028137	movie	1		301	40.0	2.5	blank	1.0	214.45620274543762	2.5087311267852783
42	198.26326894760132	pulse	1	t		40.0	2.5	blank	1.0	216.04848623275757	
42	199.17971658706665	fix_post	2		12	40.0	2.5	blank	1.0	216.9649338722229	0.10000038146972656
43	199.27971696853638	fix_pre	0		120	41.0	2.5	/experiments/knapen_AOT/AOT_stimuli/rescaled_final/0900_rv.mp4	0.0	217.06493425369263	1.016822099685669
43	199.86334538459778	pulse	0	t		41.0	2.5	/experiments/knapen_AOT/AOT_stimuli/rescaled_final/0900_rv.mp4	0.0	217.64856266975403	
43	200.29653906822205	movie	1		264	41.0	2.5	/experiments/knapen_AOT/AOT_stimuli/rescaled_final/0900_rv.mp4	0.0	218.0817563533783	2.4837045669555664
43	201.46205401420593	pulse	1	t		41.0	2.5	/experiments/knapen_AOT/AOT_stimuli/rescaled_final/0900_rv.mp4	0.0	219.24727129936218	
43	202.7802436351776	fix_post	2		12	41.0	2.5	/experiments/knapen_AOT/AOT_stimuli/rescaled_final/0900_rv.mp4	0.0	220.56546092033386	0.10002636909484863
44	202.88027000427246	fix_pre	0		120	42.0	2.5	/experiments/knapen_AOT/AOT_stimuli/rescaled_final/2090_rv.mp4	0.0	220.6654872894287	1.0169429779052734
44	203.06379747390747	pulse	0	t		42.0	2.5	/experiments/knapen_AOT/AOT_stimuli/rescaled_final/2090_rv.mp4	0.0	220.84901475906372	
44	203.89721298217773	movie	1		270	42.0	2.5	/experiments/knapen_AOT/AOT_stimuli/rescaled_final/2090_rv.mp4	0.0	221.68243026733398	2.4835853576660156
44	204.66203236579895	pulse	1	t		42.0	2.5	/experiments/knapen_AOT/AOT_stimuli/rescaled_final/2090_rv.mp4	0.0	222.4472496509552	
44	206.26344442367554	pulse	1	t		42.0	2.5	/experiments/knapen_AOT/AOT_stimuli/rescaled_final/2090_rv.mp4	0.0	224.0486617088318	
44	206.38079833984375	fix_post	2		12	42.0	2.5	/experiments/knapen_AOT/AOT_stimuli/rescaled_final/2090_rv.mp4	0.0	224.166015625	0.10007452964782715
45	206.48087286949158	fix_pre	0		120	43.0	2.5	/experiments/knapen_AOT/AOT_stimuli/rescaled_final/1488_fw.mp4	0.0	224.26609015464783	1.008446455001831
45	207.4893193244934	movie	1		271	43.0	2.5	/experiments/knapen_AOT/AOT_stimuli/rescaled_final/1488_fw.mp4	0.0	225.27453660964966	2.4921576976776123
45	207.8643946647644	pulse	1	t		43.0	2.5	/experiments/knapen_AOT/AOT_stimuli/rescaled_final/1488_fw.mp4	0.0	225.64961194992065	
45	209.46248817443848	pulse	1	t		43.0	2.5	/experiments/knapen_AOT/AOT_stimuli/rescaled_final/1488_fw.mp4	0.0	227.24770545959473	
45	209.98147702217102	fix_post	2		12	43.0	2.5	/experiments/knapen_AOT/AOT_stimuli/rescaled_final/1488_fw.mp4	0.0	227.76669430732727	0.09992432594299316
46	210.081401348114	fix_pre	0		119	44.0	2.5	/experiments/knapen_AOT/AOT_stimuli/rescaled_final/1139_fw.mp4	0.0	227.86661863327026	1.008460283279419
46	211.06509232521057	pulse	0	t		44.0	2.5	/experiments/knapen_AOT/AOT_stimuli/rescaled_final/1139_fw.mp4	0.0	228.85030961036682	
46	211.08986163139343	movie	1		267	44.0	2.5	/experiments/knapen_AOT/AOT_stimuli/rescaled_final/1139_fw.mp4	0.0	228.87507891654968	2.4920248985290527
46	212.66410636901855	pulse	1	t		44.0	2.5	/experiments/knapen_AOT/AOT_stimuli/rescaled_final/1139_fw.mp4	0.0	230.4493236541748	
46	213.58188652992249	fix_post	2		12	44.0	2.5	/experiments/knapen_AOT/AOT_stimuli/rescaled_final/1139_fw.mp4	0.0	231.36710381507874	0.1000359058380127
47	213.6819224357605	fix_pre	0		120	45.0	2.5	/experiments/knapen_AOT/AOT_stimuli/rescaled_final/1564_rv.mp4	0.0	231.46713972091675	1.0168945789337158
47	214.26550722122192	pulse	0	t		45.0	2.5	/experiments/knapen_AOT/AOT_stimuli/rescaled_final/1564_rv.mp4	0.0	232.05072450637817	
47	214.6988170146942	movie	1		274	45.0	2.5	/experiments/knapen_AOT/AOT_stimuli/rescaled_final/1564_rv.mp4	0.0	232.48403429985046	2.4835989475250244
47	215.86463260650635	pulse	1	t		45.0	2.5	/experiments/knapen_AOT/AOT_stimuli/rescaled_final/1564_rv.mp4	0.0	233.6498498916626	
47	217.18241596221924	fix_post	2		12	45.0	2.5	/experiments/knapen_AOT/AOT_stimuli/rescaled_final/1564_rv.mp4	0.0	234.9676332473755	0.10003519058227539
48	217.2824511528015	fix_pre	0		120	46.0	2.5	/experiments/knapen_AOT/AOT_stimuli/rescaled_final/0509_rv.mp4	0.0	235.06766843795776	1.008453607559204
48	217.4665970802307	pulse	0	t		46.0	2.5	/experiments/knapen_AOT/AOT_stimuli/rescaled_final/0509_rv.mp4	0.0	235.25181436538696	
48	218.29090476036072	movie	1		213	46.0	2.5	/experiments/knapen_AOT/AOT_stimuli/rescaled_final/0509_rv.mp4	0.0	236.07612204551697	2.4923245906829834
48	219.0674810409546	pulse	1	t		46.0	2.5	/experiments/knapen_AOT/AOT_stimuli/rescaled_final/0509_rv.mp4	0.0	236.85269832611084	
48	220.66491293907166	pulse	1	t		46.0	2.5	/experiments/knapen_AOT/AOT_stimuli/rescaled_final/0509_rv.mp4	0.0	238.4501302242279	
48	220.7832293510437	fix_post	2		12	46.0	2.5	/experiments/knapen_AOT/AOT_stimuli/rescaled_final/0509_rv.mp4	0.0	238.56844663619995	0.09975504875183105
49	220.88298439979553	fix_pre	0		120	47.0	2.5	/experiments/knapen_AOT/AOT_stimuli/rescaled_final/0846_fw.mp4	0.0	238.66820168495178	1.0168468952178955
49	221.89983129501343	movie	1		261	47.0	2.5	/experiments/knapen_AOT/AOT_stimuli/rescaled_final/0846_fw.mp4	0.0	239.68504858016968	2.4836606979370117
49	222.26706886291504	pulse	1	t		47.0	2.5	/experiments/knapen_AOT/AOT_stimuli/rescaled_final/0846_fw.mp4	0.0	240.0522861480713	
49	223.86601281166077	pulse	1	t		47.0	2.5	/experiments/knapen_AOT/AOT_stimuli/rescaled_final/0846_fw.mp4	0.0	241.65123009681702	
49	224.38349199295044	fix_post	2		12	47.0	2.5	/experiments/knapen_AOT/AOT_stimuli/rescaled_final/0846_fw.mp4	0.0	242.1687092781067	0.10002708435058594
50	224.48351907730103	fix_pre	0		119	48.0	2.5	blank	1.0	242.26873636245728	0.9918203353881836
50	225.46731448173523	pulse	0	t		48.0	2.5	blank	1.0	243.25253176689148	
50	225.4753394126892	movie	1		301	48.0	2.5	blank	1.0	243.26055669784546	2.508725881576538
50	227.06757998466492	pulse	1	t		48.0	2.5	blank	1.0	244.85279726982117	
50	227.98406529426575	fix_post	2		12	48.0	2.5	blank	1.0	245.769282579422	0.10002446174621582
51	228.08408975601196	fix_pre	0		120	49.0	2.5	/experiments/knapen_AOT/AOT_stimuli/rescaled_final/1473_rv.mp4	0.0	245.8693070411682	1.02518630027771
51	228.66774082183838	pulse	0	t		49.0	2.5	/experiments/knapen_AOT/AOT_stimuli/rescaled_final/1473_rv.mp4	0.0	246.45295810699463	
51	229.10927605628967	movie	1		277	49.0	2.5	/experiments/knapen_AOT/AOT_stimuli/rescaled_final/1473_rv.mp4	0.0	246.89449334144592	2.475405216217041
51	230.26582956314087	pulse	1	t		49.0	2.5	/experiments/knapen_AOT/AOT_stimuli/rescaled_final/1473_rv.mp4	0.0	248.05104684829712	
51	231.5846812725067	fix_post	2		12	49.0	2.5	/experiments/knapen_AOT/AOT_stimuli/rescaled_final/1473_rv.mp4	0.0	249.36989855766296	0.09992623329162598
52	231.68460750579834	fix_pre	0		120	50.0	2.5	/experiments/knapen_AOT/AOT_stimuli/rescaled_final/0254_fw.mp4	0.0	249.4698247909546	1.025198221206665
52	231.86022067070007	pulse	0	t		50.0	2.5	/experiments/knapen_AOT/AOT_stimuli/rescaled_final/0254_fw.mp4	0.0	249.64543795585632	
52	232.709805727005	movie	1		279	50.0	2.5	/experiments/knapen_AOT/AOT_stimuli/rescaled_final/0254_fw.mp4	0.0	250.49502301216125	2.4753401279449463
52	233.46043491363525	pulse	1	t		50.0	2.5	/experiments/knapen_AOT/AOT_stimuli/rescaled_final/0254_fw.mp4	0.0	251.2456521987915	
52	235.0604555606842	pulse	1	t		50.0	2.5	/experiments/knapen_AOT/AOT_stimuli/rescaled_final/0254_fw.mp4	0.0	252.84567284584045	
52	235.18514585494995	fix_post	2		12	50.0	2.5	/experiments/knapen_AOT/AOT_stimuli/rescaled_final/0254_fw.mp4	0.0	252.9703631401062	0.10002255439758301
53	235.28516840934753	fix_pre	0		120	51.0	2.5	/experiments/knapen_AOT/AOT_stimuli/rescaled_final/0850_fw.mp4	0.0	253.07038569450378	1.0252292156219482
53	236.31039762496948	movie	1		289	51.0	2.5	/experiments/knapen_AOT/AOT_stimuli/rescaled_final/0850_fw.mp4	0.0	254.09561491012573	2.4752843379974365
53	236.6607630252838	pulse	1	t		51.0	2.5	/experiments/knapen_AOT/AOT_stimuli/rescaled_final/0850_fw.mp4	0.0	254.44598031044006	
53	238.26081228256226	pulse	1	t		51.0	2.5	/experiments/knapen_AOT/AOT_stimuli/rescaled_final/0850_fw.mp4	0.0	256.0460295677185	
53	238.78568196296692	fix_post	2		12	51.0	2.5	/experiments/knapen_AOT/AOT_stimuli/rescaled_final/0850_fw.mp4	0.0	256.57089924812317	0.10001039505004883
54	238.88569235801697	fix_pre	0		118	52.0	2.5	/experiments/knapen_AOT/AOT_stimuli/rescaled_final/1648_rv.mp4	0.0	256.6709096431732	1.0086407661437988
54	239.8611524105072	pulse	0	t		52.0	2.5	/experiments/knapen_AOT/AOT_stimuli/rescaled_final/1648_rv.mp4	0.0	257.64636969566345	
54	239.89433312416077	movie	1		273	52.0	2.5	/experiments/knapen_AOT/AOT_stimuli/rescaled_final/1648_rv.mp4	0.0	257.679550409317	2.483687162399292
54	241.4614999294281	pulse	1	t		52.0	2.5	/experiments/knapen_AOT/AOT_stimuli/rescaled_final/1648_rv.mp4	0.0	259.24671721458435	
54	242.37802028656006	fix_post	2		12	52.0	2.5	/experiments/knapen_AOT/AOT_stimuli/rescaled_final/1648_rv.mp4	0.0	260.1632375717163	0.09985995292663574
55	242.4778802394867	fix_pre	0		120	53.0	2.5	/experiments/knapen_AOT/AOT_stimuli/rescaled_final/0490_rv.mp4	0.0	260.26309752464294	1.0253214836120605
55	243.06158757209778	pulse	0	t		53.0	2.5	/experiments/knapen_AOT/AOT_stimuli/rescaled_final/0490_rv.mp4	0.0	260.846804857254	
55	243.50320172309875	movie	1		283	53.0	2.5	/experiments/knapen_AOT/AOT_stimuli/rescaled_final/0490_rv.mp4	0.0	261.288419008255	2.4752438068389893
55	244.66037011146545	pulse	1	t		53.0	2.5	/experiments/knapen_AOT/AOT_stimuli/rescaled_final/0490_rv.mp4	0.0	262.4455873966217	
55	245.97844552993774	fix_post	2		12	53.0	2.5	/experiments/knapen_AOT/AOT_stimuli/rescaled_final/0490_rv.mp4	0.0	263.763662815094	0.09998321533203125
56	246.07842874526978	fix_pre	0		120	54.0	2.5	/experiments/knapen_AOT/AOT_stimuli/rescaled_final/2166_rv.mp4	0.0	263.863646030426	1.0252282619476318
56	246.26216435432434	pulse	0	t		54.0	2.5	/experiments/knapen_AOT/AOT_stimuli/rescaled_final/2166_rv.mp4	0.0	264.0473816394806	
56	247.1036570072174	movie	1		269	54.0	2.5	/experiments/knapen_AOT/AOT_stimuli/rescaled_final/2166_rv.mp4	0.0	264.88887429237366	2.4753189086914062
56	247.8616979122162	pulse	1	t		54.0	2.5	/experiments/knapen_AOT/AOT_stimuli/rescaled_final/2166_rv.mp4	0.0	265.64691519737244	
56	249.46067571640015	pulse	1	t		54.0	2.5	/experiments/knapen_AOT/AOT_stimuli/rescaled_final/2166_rv.mp4	0.0	267.2458930015564	
56	249.5789759159088	fix_post	2		12	54.0	2.5	/experiments/knapen_AOT/AOT_stimuli/rescaled_final/2166_rv.mp4	0.0	267.36419320106506	0.10001397132873535
57	249.67898988723755	fix_pre	0		120	55.0	2.5	blank	1.0	267.4642071723938	1.0001397132873535
57	250.6791296005249	movie	1		300	55.0	2.5	blank	1.0	268.46434688568115	2.500356435775757
57	251.06284523010254	pulse	1	t		55.0	2.5	blank	1.0	268.8480625152588	
57	252.66327691078186	pulse	1	t		55.0	2.5	blank	1.0	270.4484941959381	
57	253.17948603630066	fix_post	2		12	55.0	2.5	blank	1.0	270.9647033214569	0.10000967979431152
58	253.27949571609497	fix_pre	0		119	56.0	2.5	/experiments/knapen_AOT/AOT_stimuli/rescaled_final/2026_fw.mp4	0.0	271.0647130012512	1.0168869495391846
58	254.26333284378052	pulse	0	t		56.0	2.5	/experiments/knapen_AOT/AOT_stimuli/rescaled_final/2026_fw.mp4	0.0	272.04855012893677	
58	254.29638266563416	movie	1		278	56.0	2.5	/experiments/knapen_AOT/AOT_stimuli/rescaled_final/2026_fw.mp4	0.0	272.0815999507904	2.4836997985839844
58	255.86219239234924	pulse	1	t		56.0	2.5	/experiments/knapen_AOT/AOT_stimuli/rescaled_final/2026_fw.mp4	0.0	273.6474096775055	
58	256.78008246421814	fix_post	2		12	56.0	2.5	/experiments/knapen_AOT/AOT_stimuli/rescaled_final/2026_fw.mp4	0.0	274.5652997493744	0.10004281997680664
59	256.88012528419495	fix_pre	0		120	57.0	2.5	/experiments/knapen_AOT/AOT_stimuli/rescaled_final/1084_rv.mp4	0.0	274.6653425693512	1.0084197521209717
59	257.4637522697449	pulse	0	t		57.0	2.5	/experiments/knapen_AOT/AOT_stimuli/rescaled_final/1084_rv.mp4	0.0	275.2489695549011	
59	257.8885450363159	movie	1		274	57.0	2.5	/experiments/knapen_AOT/AOT_stimuli/rescaled_final/1084_rv.mp4	0.0	275.67376232147217	2.492039918899536
59	259.06224370002747	pulse	1	t		57.0	2.5	/experiments/knapen_AOT/AOT_stimuli/rescaled_final/1084_rv.mp4	0.0	276.8474609851837	
59	260.38058495521545	fix_post	2		12	57.0	2.5	/experiments/knapen_AOT/AOT_stimuli/rescaled_final/1084_rv.mp4	0.0	278.1658022403717	0.10004353523254395
60	260.480628490448	fix_pre	0		120	58.0	2.5	/experiments/knapen_AOT/AOT_stimuli/rescaled_final/0402_rv.mp4	0.0	278.26584577560425	1.0169384479522705
60	260.6642029285431	pulse	0	t		58.0	2.5	/experiments/knapen_AOT/AOT_stimuli/rescaled_final/0402_rv.mp4	0.0	278.44942021369934	
60	261.49756693840027	movie	1		272	58.0	2.5	/experiments/knapen_AOT/AOT_stimuli/rescaled_final/0402_rv.mp4	0.0	279.2827842235565	2.4836320877075195
60	262.2635700702667	pulse	1	t		58.0	2.5	/experiments/knapen_AOT/AOT_stimuli/rescaled_final/0402_rv.mp4	0.0	280.048787355423	
60	263.86303448677063	pulse	1	t		58.0	2.5	/experiments/knapen_AOT/AOT_stimuli/rescaled_final/0402_rv.mp4	0.0	281.6482517719269	
60	263.9811990261078	fix_post	2		12	58.0	2.5	/experiments/knapen_AOT/AOT_stimuli/rescaled_final/0402_rv.mp4	0.0	281.76641631126404	0.0999610424041748
61	264.08116006851196	fix_pre	0		120	59.0	2.5	/experiments/knapen_AOT/AOT_stimuli/rescaled_final/0174_fw.mp4	0.0	281.8663773536682	1.0168075561523438
61	265.0979676246643	movie	1		284	59.0	2.5	/experiments/knapen_AOT/AOT_stimuli/rescaled_final/0174_fw.mp4	0.0	282.88318490982056	2.4837093353271484
61	265.4632496833801	pulse	1	t		59.0	2.5	/experiments/knapen_AOT/AOT_stimuli/rescaled_final/0174_fw.mp4	0.0	283.2484669685364	
61	267.0643548965454	pulse	1	t		59.0	2.5	/experiments/knapen_AOT/AOT_stimuli/rescaled_final/0174_fw.mp4	0.0	284.84957218170166	
61	267.58167695999146	fix_post	2		12	59.0	2.5	/experiments/knapen_AOT/AOT_stimuli/rescaled_final/0174_fw.mp4	0.0	285.3668942451477	0.09998893737792969
62	267.6816658973694	fix_pre	0		119	60.0	2.5	/experiments/knapen_AOT/AOT_stimuli/rescaled_final/1921_rv.mp4	0.0	285.46688318252563	1.0086593627929688
62	268.66541385650635	pulse	0	t		60.0	2.5	/experiments/knapen_AOT/AOT_stimuli/rescaled_final/1921_rv.mp4	0.0	286.4506311416626	
62	268.69032526016235	movie	1		277	60.0	2.5	/experiments/knapen_AOT/AOT_stimuli/rescaled_final/1921_rv.mp4	0.0	286.4755425453186	2.492074489593506
62	270.2641680240631	pulse	1	t		60.0	2.5	/experiments/knapen_AOT/AOT_stimuli/rescaled_final/1921_rv.mp4	0.0	288.04938530921936	
62	271.18239974975586	fix_post	2		12	60.0	2.5	/experiments/knapen_AOT/AOT_stimuli/rescaled_final/1921_rv.mp4	0.0	288.9676170349121	0.09981918334960938
63	271.28221893310547	fix_pre	0		119	61.0	2.5	/experiments/knapen_AOT/AOT_stimuli/rescaled_final/0726_fw.mp4	0.0	289.0674362182617	1.008610486984253
63	271.86585211753845	pulse	0	t		61.0	2.5	/experiments/knapen_AOT/AOT_stimuli/rescaled_final/0726_fw.mp4	0.0	289.6510694026947	
63	272.2908294200897	movie	1		271	61.0	2.5	/experiments/knapen_AOT/AOT_stimuli/rescaled_final/0726_fw.mp4	0.0	290.076046705246	2.4919652938842773
63	273.4663670063019	pulse	1	t		61.0	2.5	/experiments/knapen_AOT/AOT_stimuli/rescaled_final/0726_fw.mp4	0.0	291.25158429145813	
63	274.782794713974	fix_post	2		12	61.0	2.5	/experiments/knapen_AOT/AOT_stimuli/rescaled_final/0726_fw.mp4	0.0	292.56801199913025	0.1000070571899414
64	274.88280177116394	fix_pre	0		120	62.0	2.5	blank	1.0	292.6680190563202	1.000112533569336
64	275.06637501716614	pulse	0	t		62.0	2.5	blank	1.0	292.8515923023224	
64	275.8829143047333	movie	1		300	62.0	2.5	blank	1.0	293.6681315898895	2.5003697872161865
64	276.6667459011078	pulse	1	t		62.0	2.5	blank	1.0	294.45196318626404	
64	278.26714038848877	pulse	1	t		62.0	2.5	blank	1.0	296.052357673645	
64	278.38328409194946	fix_post	2		12	62.0	2.5	blank	1.0	296.1685013771057	0.1000213623046875
65	278.48330545425415	fix_pre	0		120	63.0	2.5	/experiments/knapen_AOT/AOT_stimuli/rescaled_final/0185_fw.mp4	0.0	296.2685227394104	1.0168306827545166
65	279.50013613700867	movie	1		268	63.0	2.5	/experiments/knapen_AOT/AOT_stimuli/rescaled_final/0185_fw.mp4	0.0	297.2853534221649	2.4837827682495117
65	279.8675322532654	pulse	1	t		63.0	2.5	/experiments/knapen_AOT/AOT_stimuli/rescaled_final/0185_fw.mp4	0.0	297.65274953842163	
65	281.4661593437195	pulse	1	t		63.0	2.5	/experiments/knapen_AOT/AOT_stimuli/rescaled_final/0185_fw.mp4	0.0	299.25137662887573	
65	281.9839189052582	fix_post	2		12	63.0	2.5	/experiments/knapen_AOT/AOT_stimuli/rescaled_final/0185_fw.mp4	0.0	299.76913619041443	0.09996914863586426
66	282.08388805389404	fix_pre	0		118	64.0	2.5	/experiments/knapen_AOT/AOT_stimuli/rescaled_final/2117_rv.mp4	0.0	299.8691053390503	1.0002295970916748
66	283.05958366394043	pulse	0	t		64.0	2.5	/experiments/knapen_AOT/AOT_stimuli/rescaled_final/2117_rv.mp4	0.0	300.8448009490967	
66	283.0841176509857	movie	1		270	64.0	2.5	/experiments/knapen_AOT/AOT_stimuli/rescaled_final/2117_rv.mp4	0.0	300.86933493614197	2.491936206817627
66	284.6596963405609	pulse	1	t		64.0	2.5	/experiments/knapen_AOT/AOT_stimuli/rescaled_final/2117_rv.mp4	0.0	302.44491362571716	
66	285.57605385780334	fix_post	2		12	64.0	2.5	/experiments/knapen_AOT/AOT_stimuli/rescaled_final/2117_rv.mp4	0.0	303.3612711429596	0.10018038749694824
67	285.6762342453003	fix_pre	0		120	65.0	2.5	/experiments/knapen_AOT/AOT_stimuli/rescaled_final/0475_fw.mp4	0.0	303.46145153045654	1.0252139568328857
67	286.25976300239563	pulse	0	t		65.0	2.5	/experiments/knapen_AOT/AOT_stimuli/rescaled_final/0475_fw.mp4	0.0	304.0449802875519	
67	286.7014482021332	movie	1		274	65.0	2.5	/experiments/knapen_AOT/AOT_stimuli/rescaled_final/0475_fw.mp4	0.0	304.48666548728943	2.475191593170166
67	287.8599557876587	pulse	1	t		65.0	2.5	/experiments/knapen_AOT/AOT_stimuli/rescaled_final/0475_fw.mp4	0.0	305.64517307281494	
67	289.17663979530334	fix_post	2		12	65.0	2.5	/experiments/knapen_AOT/AOT_stimuli/rescaled_final/0475_fw.mp4	0.0	306.9618570804596	0.0999748706817627
68	289.2766146659851	fix_pre	0		120	66.0	2.5	/experiments/knapen_AOT/AOT_stimuli/rescaled_final/1288_rv.mp4	0.0	307.06183195114136	1.01694655418396
68	289.46017837524414	pulse	0	t		66.0	2.5	/experiments/knapen_AOT/AOT_stimuli/rescaled_final/1288_rv.mp4	0.0	307.2453956604004	
68	290.29356122016907	movie	1		273	66.0	2.5	/experiments/knapen_AOT/AOT_stimuli/rescaled_final/1288_rv.mp4	0.0	308.0787785053253	2.4837162494659424
68	291.06041073799133	pulse	1	t		66.0	2.5	/experiments/knapen_AOT/AOT_stimuli/rescaled_final/1288_rv.mp4	0.0	308.8456280231476	
68	292.66062927246094	pulse	1	t		66.0	2.5	/experiments/knapen_AOT/AOT_stimuli/rescaled_final/1288_rv.mp4	0.0	310.4458465576172	
68	292.777277469635	fix_post	2		12	66.0	2.5	/experiments/knapen_AOT/AOT_stimuli/rescaled_final/1288_rv.mp4	0.0	310.56249475479126	0.09996175765991211
69	292.8772392272949	fix_pre	0		120	67.0	2.5	/experiments/knapen_AOT/AOT_stimuli/rescaled_final/0918_fw.mp4	0.0	310.6624565124512	1.0167157649993896
69	293.8939549922943	movie	1		257	67.0	2.5	/experiments/knapen_AOT/AOT_stimuli/rescaled_final/0918_fw.mp4	0.0	311.67917227745056	2.4839835166931152
69	294.2628164291382	pulse	1	t		67.0	2.5	/experiments/knapen_AOT/AOT_stimuli/rescaled_final/0918_fw.mp4	0.0	312.04803371429443	
69	295.8611559867859	pulse	1	t		67.0	2.5	/experiments/knapen_AOT/AOT_stimuli/rescaled_final/0918_fw.mp4	0.0	313.64637327194214	
69	296.3779385089874	fix_post	2		12	67.0	2.5	/experiments/knapen_AOT/AOT_stimuli/rescaled_final/0918_fw.mp4	0.0	314.1631557941437	0.09972620010375977
70	296.4776647090912	fix_pre	0		119	68.0	2.5	/experiments/knapen_AOT/AOT_stimuli/rescaled_final/0857_fw.mp4	0.0	314.26288199424744	1.017045497894287
70	297.4613938331604	pulse	0	t		68.0	2.5	/experiments/knapen_AOT/AOT_stimuli/rescaled_final/0857_fw.mp4	0.0	315.24661111831665	
70	297.4947102069855	movie	1		266	68.0	2.5	/experiments/knapen_AOT/AOT_stimuli/rescaled_final/0857_fw.mp4	0.0	315.2799274921417	2.4837324619293213
70	299.05989694595337	pulse	1	t		68.0	2.5	/experiments/knapen_AOT/AOT_stimuli/rescaled_final/0857_fw.mp4	0.0	316.8451142311096	
70	299.9784426689148	fix_post	2		12	68.0	2.5	/experiments/knapen_AOT/AOT_stimuli/rescaled_final/0857_fw.mp4	0.0	317.76365995407104	0.0998842716217041
71	300.0783269405365	fix_pre	0		120	69.0	2.5	blank	1.0	317.86354422569275	1.000011920928955
71	300.66187024116516	pulse	0	t		69.0	2.5	blank	1.0	318.4470875263214	
71	301.07833886146545	movie	1		300	69.0	2.5	blank	1.0	318.8635561466217	2.500384569168091
71	302.26238083839417	pulse	1	t		69.0	2.5	blank	1.0	320.0475981235504	
71	303.57872343063354	fix_post	2		12	69.0	2.5	blank	1.0	321.3639407157898	0.10003852844238281
72	303.6787619590759	fix_pre	0		120	70.0	2.5	/experiments/knapen_AOT/AOT_stimuli/rescaled_final/0215_rv.mp4	0.0	321.4639792442322	1.0252108573913574
72	303.86237144470215	pulse	0	t		70.0	2.5	/experiments/knapen_AOT/AOT_stimuli/rescaled_final/0215_rv.mp4	0.0	321.6475887298584	
72	304.7039728164673	movie	1		262	70.0	2.5	/experiments/knapen_AOT/AOT_stimuli/rescaled_final/0215_rv.mp4	0.0	322.48919010162354	2.4756343364715576
72	305.4606635570526	pulse	1	t		70.0	2.5	/experiments/knapen_AOT/AOT_stimuli/rescaled_final/0215_rv.mp4	0.0	323.24588084220886	
72	307.0611774921417	pulse	1	t		70.0	2.5	/experiments/knapen_AOT/AOT_stimuli/rescaled_final/0215_rv.mp4	0.0	324.846394777298	
72	307.17960715293884	fix_post	2		12	70.0	2.5	/experiments/knapen_AOT/AOT_stimuli/rescaled_final/0215_rv.mp4	0.0	324.9648244380951	0.09968376159667969
73	307.2792909145355	fix_pre	0		120	71.0	2.5	/experiments/knapen_AOT/AOT_stimuli/rescaled_final/0850_fw.mp4	0.0	325.0645081996918	1.0252540111541748
73	308.3045449256897	movie	1		240	71.0	2.5	/experiments/knapen_AOT/AOT_stimuli/rescaled_final/0850_fw.mp4	0.0	326.08976221084595	2.4753785133361816
73	308.66280913352966	pulse	1	t		71.0	2.5	/experiments/knapen_AOT/AOT_stimuli/rescaled_final/0850_fw.mp4	0.0	326.4480264186859	
73	310.26111698150635	pulse	1	t		71.0	2.5	/experiments/knapen_AOT/AOT_stimuli/rescaled_final/0850_fw.mp4	0.0	328.0463342666626	
73	310.7799234390259	fix_post	2		12	71.0	2.5	/experiments/knapen_AOT/AOT_stimuli/rescaled_final/0850_fw.mp4	0.0	328.56514072418213	0.10002374649047852
74	310.87994718551636	fix_pre	0		119	72.0	2.5	/experiments/knapen_AOT/AOT_stimuli/rescaled_final/1755_rv.mp4	0.0	328.6651644706726	1.0252740383148193
74	311.8635792732239	pulse	0	t		72.0	2.5	/experiments/knapen_AOT/AOT_stimuli/rescaled_final/1755_rv.mp4	0.0	329.6487965583801	
74	311.9052212238312	movie	1		259	72.0	2.5	/experiments/knapen_AOT/AOT_stimuli/rescaled_final/1755_rv.mp4	0.0	329.6904385089874	2.4752302169799805
74	313.4626295566559	pulse	1	t		72.0	2.5	/experiments/knapen_AOT/AOT_stimuli/rescaled_final/1755_rv.mp4	0.0	331.24784684181213	
74	314.38045144081116	fix_post	2		12	72.0	2.5	/experiments/knapen_AOT/AOT_stimuli/rescaled_final/1755_rv.mp4	0.0	332.1656687259674	0.09992551803588867
75	314.48037695884705	fix_pre	0		120	73.0	2.5	/experiments/knapen_AOT/AOT_stimuli/rescaled_final/2036_fw.mp4	0.0	332.2655942440033	1.0168628692626953
75	315.0640094280243	pulse	0	t		73.0	2.5	/experiments/knapen_AOT/AOT_stimuli/rescaled_final/2036_fw.mp4	0.0	332.84922671318054	
75	315.49723982810974	movie	1		269	73.0	2.5	/experiments/knapen_AOT/AOT_stimuli/rescaled_final/2036_fw.mp4	0.0	333.282457113266	2.4837656021118164
75	316.6622130870819	pulse	1	t		73.0	2.5	/experiments/knapen_AOT/AOT_stimuli/rescaled_final/2036_fw.mp4	0.0	334.44743037223816	
75	317.98100543022156	fix_post	2		12	73.0	2.5	/experiments/knapen_AOT/AOT_stimuli/rescaled_final/2036_fw.mp4	0.0	335.7662227153778	0.09990954399108887
76	318.08091497421265	fix_pre	0		120	74.0	2.5	/experiments/knapen_AOT/AOT_stimuli/rescaled_final/2059_rv.mp4	0.0	335.8661322593689	1.0168509483337402
76	318.2644944190979	pulse	0	t		74.0	2.5	/experiments/knapen_AOT/AOT_stimuli/rescaled_final/2059_rv.mp4	0.0	336.04971170425415	
76	319.0977659225464	movie	1		278	74.0	2.5	/experiments/knapen_AOT/AOT_stimuli/rescaled_final/2059_rv.mp4	0.0	336.88298320770264	2.483916997909546
76	319.86255168914795	pulse	1	t		74.0	2.5	/experiments/knapen_AOT/AOT_stimuli/rescaled_final/2059_rv.mp4	0.0	337.6477689743042	
76	321.4634873867035	pulse	1	t		74.0	2.5	/experiments/knapen_AOT/AOT_stimuli/rescaled_final/2059_rv.mp4	0.0	339.24870467185974	
76	321.58168292045593	fix_post	2		12	74.0	2.5	/experiments/knapen_AOT/AOT_stimuli/rescaled_final/2059_rv.mp4	0.0	339.3669002056122	0.09980130195617676
77	321.6814842224121	fix_pre	0		120	75.0	2.5	blank	1.0	339.46670150756836	1.0001418590545654
77	322.6816260814667	movie	1		300	75.0	2.5	blank	1.0	340.4668433666229	2.5003767013549805
77	323.06529211997986	pulse	1	t		75.0	2.5	blank	1.0	340.8505094051361	
77	324.66552114486694	pulse	1	t		75.0	2.5	blank	1.0	342.4507384300232	
77	325.18200278282166	fix_post	2		12	75.0	2.5	blank	1.0	342.9672200679779	0.10006523132324219
78	325.2820680141449	fix_pre	0		119	76.0	2.5	/experiments/knapen_AOT/AOT_stimuli/rescaled_final/0134_rv.mp4	0.0	343.06728529930115	1.00846529006958
78	326.2657573223114	pulse	0	t		76.0	2.5	/experiments/knapen_AOT/AOT_stimuli/rescaled_final/0134_rv.mp4	0.0	344.05097460746765	
78	326.2905333042145	movie	1		273	76.0	2.5	/experiments/knapen_AOT/AOT_stimuli/rescaled_final/0134_rv.mp4	0.0	344.0757505893707	2.492143392562866
78	327.8654975891113	pulse	1	t		76.0	2.5	/experiments/knapen_AOT/AOT_stimuli/rescaled_final/0134_rv.mp4	0.0	345.6507148742676	
78	328.78267669677734	fix_post	2		12	76.0	2.5	/experiments/knapen_AOT/AOT_stimuli/rescaled_final/0134_rv.mp4	0.0	346.5678939819336	0.09999942779541016
79	328.88267612457275	fix_pre	0		120	77.0	2.5	/experiments/knapen_AOT/AOT_stimuli/rescaled_final/0484_rv.mp4	0.0	346.667893409729	1.0252611637115479
79	329.46616315841675	pulse	0	t		77.0	2.5	/experiments/knapen_AOT/AOT_stimuli/rescaled_final/0484_rv.mp4	0.0	347.251380443573	
79	329.9079372882843	movie	1		279	77.0	2.5	/experiments/knapen_AOT/AOT_stimuli/rescaled_final/0484_rv.mp4	0.0	347.69315457344055	2.4751617908477783
79	331.0647962093353	pulse	1	t		77.0	2.5	/experiments/knapen_AOT/AOT_stimuli/rescaled_final/0484_rv.mp4	0.0	348.8500134944916	
79	332.3830990791321	fix_post	2		12	77.0	2.5	/experiments/knapen_AOT/AOT_stimuli/rescaled_final/0484_rv.mp4	0.0	350.16831636428833	0.10002541542053223
80	332.4831244945526	fix_pre	0		120	78.0	2.5	/experiments/knapen_AOT/AOT_stimuli/rescaled_final/1387_fw.mp4	0.0	350.26834177970886	1.0251579284667969
80	332.6666986942291	pulse	0	t		78.0	2.5	/experiments/knapen_AOT/AOT_stimuli/rescaled_final/1387_fw.mp4	0.0	350.4519159793854	
80	333.5082824230194	movie	1		277	78.0	2.5	/experiments/knapen_AOT/AOT_stimuli/rescaled_final/1387_fw.mp4	0.0	351.29349970817566	2.475346565246582
80	334.2649793624878	pulse	1	t		78.0	2.5	/experiments/knapen_AOT/AOT_stimuli/rescaled_final/1387_fw.mp4	0.0	352.05019664764404	
80	335.86522674560547	pulse	1	t		78.0	2.5	/experiments/knapen_AOT/AOT_stimuli/rescaled_final/1387_fw.mp4	0.0	353.6504440307617	
80	335.983628988266	fix_post	2		12	78.0	2.5	/experiments/knapen_AOT/AOT_stimuli/rescaled_final/1387_fw.mp4	0.0	353.76884627342224	0.10000205039978027
81	336.08363103866577	fix_pre	0		120	79.0	2.5	/experiments/knapen_AOT/AOT_stimuli/rescaled_final/2170_fw.mp4	0.0	353.868848323822	1.0085172653198242
81	337.0921483039856	movie	1		271	79.0	2.5	/experiments/knapen_AOT/AOT_stimuli/rescaled_final/2170_fw.mp4	0.0	354.87736558914185	2.492309331893921
81	337.4655861854553	pulse	1	t		79.0	2.5	/experiments/knapen_AOT/AOT_stimuli/rescaled_final/2170_fw.mp4	0.0	355.2508034706116	
81	339.06608390808105	pulse	1	t		79.0	2.5	/experiments/knapen_AOT/AOT_stimuli/rescaled_final/2170_fw.mp4	0.0	356.8513011932373	
81	339.5844576358795	fix_post	2		11	79.0	2.5	/experiments/knapen_AOT/AOT_stimuli/rescaled_final/2170_fw.mp4	0.0	357.36967492103577	0.09973406791687012
82	339.6841917037964	fix_pre	0		119	80.0	2.5	/experiments/knapen_AOT/AOT_stimuli/rescaled_final/1921_fw.mp4	0.0	357.46940898895264	1.0001423358917236
82	340.66049790382385	pulse	0	t		80.0	2.5	/experiments/knapen_AOT/AOT_stimuli/rescaled_final/1921_fw.mp4	0.0	358.4457151889801	
82	340.6843340396881	movie	1		272	80.0	2.5	/experiments/knapen_AOT/AOT_stimuli/rescaled_final/1921_fw.mp4	0.0	358.46955132484436	2.500387191772461
82	342.2601020336151	pulse	1	t		80.0	2.5	/experiments/knapen_AOT/AOT_stimuli/rescaled_final/1921_fw.mp4	0.0	360.04531931877136	
82	343.18472123146057	fix_post	2		12	80.0	2.5	/experiments/knapen_AOT/AOT_stimuli/rescaled_final/1921_fw.mp4	0.0	360.9699385166168	0.10002422332763672
83	343.2847454547882	fix_pre	0		120	81.0	2.5	/experiments/knapen_AOT/AOT_stimuli/rescaled_final/0134_fw.mp4	0.0	361.06996273994446	1.0084874629974365
83	343.8601162433624	pulse	0	t		81.0	2.5	/experiments/knapen_AOT/AOT_stimuli/rescaled_final/0134_fw.mp4	0.0	361.6453335285187	
83	344.29323291778564	movie	1		270	81.0	2.5	/experiments/knapen_AOT/AOT_stimuli/rescaled_final/0134_fw.mp4	0.0	362.0784502029419	2.4920239448547363
83	345.4603190422058	pulse	1	t		81.0	2.5	/experiments/knapen_AOT/AOT_stimuli/rescaled_final/0134_fw.mp4	0.0	363.24553632736206	
83	346.7852568626404	fix_post	2		12	81.0	2.5	/experiments/knapen_AOT/AOT_stimuli/rescaled_final/0134_fw.mp4	0.0	364.57047414779663	0.10026860237121582
84	346.8855254650116	fix_pre	0		120	82.0	2.5	/experiments/knapen_AOT/AOT_stimuli/rescaled_final/0005_fw.mp4	0.0	364.67074275016785	1.008213758468628
84	347.06060218811035	pulse	0	t		82.0	2.5	/experiments/knapen_AOT/AOT_stimuli/rescaled_final/0005_fw.mp4	0.0	364.8458194732666	
84	347.8937392234802	movie	1		267	82.0	2.5	/experiments/knapen_AOT/AOT_stimuli/rescaled_final/0005_fw.mp4	0.0	365.6789565086365	2.492358922958374
84	348.6607663631439	pulse	1	t		82.0	2.5	/experiments/knapen_AOT/AOT_stimuli/rescaled_final/0005_fw.mp4	0.0	366.44598364830017	
84	350.26101303100586	pulse	1	t		82.0	2.5	/experiments/knapen_AOT/AOT_stimuli/rescaled_final/0005_fw.mp4	0.0	368.0462303161621	
84	350.3860981464386	fix_post	2		12	82.0	2.5	/experiments/knapen_AOT/AOT_stimuli/rescaled_final/0005_fw.mp4	0.0	368.17131543159485	0.09977412223815918
85	350.48587226867676	fix_pre	0		120	83.0	2.5	blank	1.0	368.271089553833	1.000077247619629
85	351.4859495162964	movie	1		300	83.0	2.5	blank	1.0	369.27116680145264	2.5003883838653564
85	351.861230134964	pulse	1	t		83.0	2.5	blank	1.0	369.64644742012024	
85	353.46150398254395	pulse	1	t		83.0	2.5	blank	1.0	371.2467212677002	
85	353.98633790016174	fix_post	2		12	83.0	2.5	blank	1.0	371.771555185318	0.1083681583404541
87	354.0947060585022	stim	0		1714					371.87992334365845	14.285466194152832
87	355.0617322921753	pulse	0	t						372.84694957733154	
87	356.66198444366455	pulse	0	t						374.4472017288208	
87	358.2622027397156	pulse	0	t						376.0474200248718	
87	359.8623950481415	pulse	0	t						377.64761233329773	
87	361.4627034664154	pulse	0	t						379.24792075157166	
87	363.0629053115845	pulse	0	t						380.8481225967407	
87	364.66314578056335	pulse	0	t						382.4483630657196	
87	366.26333808898926	pulse	0	t						384.0485553741455	
87	367.86361026763916	pulse	0	t						385.6488275527954	
