trial_nr	onset	event_type	phase	response	nr_frames	movie_index	movie_duration	movie_file	blank	onset_abs	duration
0	0.20830416679382324	stim	0		204					50.58957099914551	1.700026035308838
0	1.9002840518951416	response	0	space						52.281550884246826	
1	1.9083302021026611	stim	0		3967					52.289597034454346	33.08287787437439
1	34.96113204956055	pulse	0	t						85.34239888191223	
1	34.99120807647705	stim	1		1716					85.37247490882874	14.29923701286316
1	36.556233167648315	pulse	1	t						86.9375	
1	38.156450033187866	pulse	1	t						88.53771686553955	
1	39.75659513473511	pulse	1	t						90.13786196708679	
1	41.35613417625427	pulse	1	t						91.73740100860596	
1	42.95628118515015	pulse	1	t						93.33754801750183	
1	44.55655312538147	pulse	1	t						94.93781995773315	
1	46.15682601928711	pulse	1	t						96.5380928516388	
1	47.7569739818573	pulse	1	t						98.13824081420898	
2	49.29044508934021	fix_pre	0		9	0.0	2.5	/experiments/knapen_AOT/AOT_stimuli/rescaled_final/0802_fw.mp4	0.0	99.6717119216919	0.08342599868774414
2	49.35737109184265	pulse	0	t		0.0	2.5	/experiments/knapen_AOT/AOT_stimuli/rescaled_final/0802_fw.mp4	0.0	99.73863792419434	
2	49.373871088027954	movie	1		243	0.0	2.5	/experiments/knapen_AOT/AOT_stimuli/rescaled_final/0802_fw.mp4	0.0	99.75513792037964	2.50028395652771
2	50.958144187927246	pulse	1	t		0.0	2.5	/experiments/knapen_AOT/AOT_stimuli/rescaled_final/0802_fw.mp4	0.0	101.33941102027893	
2	51.874155044555664	fix_post	2		12	0.0	2.5	/experiments/knapen_AOT/AOT_stimuli/rescaled_final/0802_fw.mp4	0.0	102.25542187690735	0.10003113746643066
3	51.974186182022095	fix_pre	0		120	1.0	2.5	/experiments/knapen_AOT/AOT_stimuli/rescaled_final/2177_rv.mp4	0.0	102.35545301437378	1.0001499652862549
3	52.557775020599365	pulse	0	t		1.0	2.5	/experiments/knapen_AOT/AOT_stimuli/rescaled_final/2177_rv.mp4	0.0	102.93904185295105	
3	52.97433614730835	movie	1		245	1.0	2.5	/experiments/knapen_AOT/AOT_stimuli/rescaled_final/2177_rv.mp4	0.0	103.35560297966003	2.5003340244293213
3	54.15807914733887	pulse	1	t		1.0	2.5	/experiments/knapen_AOT/AOT_stimuli/rescaled_final/2177_rv.mp4	0.0	104.53934597969055	
3	55.47467017173767	fix_post	2		12	1.0	2.5	/experiments/knapen_AOT/AOT_stimuli/rescaled_final/2177_rv.mp4	0.0	105.85593700408936	0.1000068187713623
4	55.57467699050903	fix_pre	0		120	2.0	2.5	/experiments/knapen_AOT/AOT_stimuli/rescaled_final/1426_rv.mp4	0.0	105.95594382286072	1.0001780986785889
4	55.758358001708984	pulse	0	t		2.0	2.5	/experiments/knapen_AOT/AOT_stimuli/rescaled_final/1426_rv.mp4	0.0	106.13962483406067	
4	56.57485508918762	movie	1		247	2.0	2.5	/experiments/knapen_AOT/AOT_stimuli/rescaled_final/1426_rv.mp4	0.0	106.9561219215393	2.5003609657287598
4	57.358540058135986	pulse	1	t		2.0	2.5	/experiments/knapen_AOT/AOT_stimuli/rescaled_final/1426_rv.mp4	0.0	107.73980689048767	
4	58.958698987960815	pulse	1	t		2.0	2.5	/experiments/knapen_AOT/AOT_stimuli/rescaled_final/1426_rv.mp4	0.0	109.3399658203125	
4	59.07521605491638	fix_post	2		12	2.0	2.5	/experiments/knapen_AOT/AOT_stimuli/rescaled_final/1426_rv.mp4	0.0	109.45648288726807	0.10003209114074707
5	59.17524814605713	fix_pre	0		120	3.0	2.5	/experiments/knapen_AOT/AOT_stimuli/rescaled_final/1588_rv.mp4	0.0	109.55651497840881	1.0001308917999268
5	60.175379037857056	movie	1		245	3.0	2.5	/experiments/knapen_AOT/AOT_stimuli/rescaled_final/1588_rv.mp4	0.0	110.55664587020874	2.4920361042022705
5	60.559590101242065	pulse	1	t		3.0	2.5	/experiments/knapen_AOT/AOT_stimuli/rescaled_final/1588_rv.mp4	0.0	110.94085693359375	
5	62.159295082092285	pulse	1	t		3.0	2.5	/experiments/knapen_AOT/AOT_stimuli/rescaled_final/1588_rv.mp4	0.0	112.54056191444397	
5	62.667415142059326	fix_post	2		12	3.0	2.5	/experiments/knapen_AOT/AOT_stimuli/rescaled_final/1588_rv.mp4	0.0	113.04868197441101	0.09999895095825195
6	62.76741409301758	fix_pre	0		120	4.0	2.5	/experiments/knapen_AOT/AOT_stimuli/rescaled_final/0162_rv.mp4	0.0	113.14868092536926	1.0001680850982666
6	63.75954604148865	pulse	0	t		4.0	2.5	/experiments/knapen_AOT/AOT_stimuli/rescaled_final/0162_rv.mp4	0.0	114.14081287384033	
6	63.767582178115845	movie	1		245	4.0	2.5	/experiments/knapen_AOT/AOT_stimuli/rescaled_final/0162_rv.mp4	0.0	114.14884901046753	2.508741855621338
6	65.35994005203247	pulse	1	t		4.0	2.5	/experiments/knapen_AOT/AOT_stimuli/rescaled_final/0162_rv.mp4	0.0	115.74120688438416	
6	66.27632403373718	fix_post	2		12	4.0	2.5	/experiments/knapen_AOT/AOT_stimuli/rescaled_final/0162_rv.mp4	0.0	116.65759086608887	0.10003805160522461
7	66.37636208534241	fix_pre	0		120	5.0	2.5	blank	1.0	116.75762891769409	1.0000989437103271
7	66.95987820625305	pulse	0	t		5.0	2.5	blank	1.0	117.34114503860474	
7	67.37646102905273	movie	1		300	5.0	2.5	blank	1.0	117.75772786140442	2.5003809928894043
7	68.56025099754333	pulse	1	t		5.0	2.5	blank	1.0	118.94151782989502	
7	69.87684202194214	fix_post	2		12	5.0	2.5	blank	1.0	120.25810885429382	0.10004115104675293
8	69.97688317298889	fix_pre	0		120	6.0	2.5	/experiments/knapen_AOT/AOT_stimuli/rescaled_final/0762_fw.mp4	0.0	120.35815000534058	1.0001230239868164
8	70.16052007675171	pulse	0	t		6.0	2.5	/experiments/knapen_AOT/AOT_stimuli/rescaled_final/0762_fw.mp4	0.0	120.5417869091034	
8	70.97700619697571	movie	1		246	6.0	2.5	/experiments/knapen_AOT/AOT_stimuli/rescaled_final/0762_fw.mp4	0.0	121.35827302932739	2.5003600120544434
8	71.76074504852295	pulse	1	t		6.0	2.5	/experiments/knapen_AOT/AOT_stimuli/rescaled_final/0762_fw.mp4	0.0	122.14201188087463	
8	73.3608660697937	pulse	1	t		6.0	2.5	/experiments/knapen_AOT/AOT_stimuli/rescaled_final/0762_fw.mp4	0.0	123.74213290214539	
8	73.47736620903015	fix_post	2		12	6.0	2.5	/experiments/knapen_AOT/AOT_stimuli/rescaled_final/0762_fw.mp4	0.0	123.85863304138184	0.10004878044128418
9	73.57741498947144	fix_pre	0		120	7.0	2.5	/experiments/knapen_AOT/AOT_stimuli/rescaled_final/0470_fw.mp4	0.0	123.95868182182312	1.0001311302185059
9	74.57754611968994	movie	1		243	7.0	2.5	/experiments/knapen_AOT/AOT_stimuli/rescaled_final/0470_fw.mp4	0.0	124.95881295204163	2.492032051086426
9	74.96211099624634	pulse	1	t		7.0	2.5	/experiments/knapen_AOT/AOT_stimuli/rescaled_final/0470_fw.mp4	0.0	125.34337782859802	
9	76.56143021583557	pulse	1	t		7.0	2.5	/experiments/knapen_AOT/AOT_stimuli/rescaled_final/0470_fw.mp4	0.0	126.94269704818726	
9	77.06957817077637	fix_post	2		12	7.0	2.5	/experiments/knapen_AOT/AOT_stimuli/rescaled_final/0470_fw.mp4	0.0	127.45084500312805	0.10005688667297363
10	77.16963505744934	fix_pre	0		120	8.0	2.5	/experiments/knapen_AOT/AOT_stimuli/rescaled_final/0796_fw.mp4	0.0	127.55090188980103	1.0001001358032227
10	78.16167402267456	pulse	0	t		8.0	2.5	/experiments/knapen_AOT/AOT_stimuli/rescaled_final/0796_fw.mp4	0.0	128.54294085502625	
10	78.16973519325256	movie	1		245	8.0	2.5	/experiments/knapen_AOT/AOT_stimuli/rescaled_final/0796_fw.mp4	0.0	128.55100202560425	2.508732795715332
10	79.7661600112915	pulse	1	t		8.0	2.5	/experiments/knapen_AOT/AOT_stimuli/rescaled_final/0796_fw.mp4	0.0	130.1474268436432	
10	80.6784679889679	fix_post	2		12	8.0	2.5	/experiments/knapen_AOT/AOT_stimuli/rescaled_final/0796_fw.mp4	0.0	131.05973482131958	0.10000300407409668
11	80.77847099304199	fix_pre	0		120	9.0	2.5	/experiments/knapen_AOT/AOT_stimuli/rescaled_final/0407_rv.mp4	0.0	131.15973782539368	1.0001389980316162
11	81.36210012435913	pulse	0	t		9.0	2.5	/experiments/knapen_AOT/AOT_stimuli/rescaled_final/0407_rv.mp4	0.0	131.74336695671082	
11	81.77860999107361	movie	1		244	9.0	2.5	/experiments/knapen_AOT/AOT_stimuli/rescaled_final/0407_rv.mp4	0.0	132.1598768234253	2.500368118286133
11	82.9624240398407	pulse	1	t		9.0	2.5	/experiments/knapen_AOT/AOT_stimuli/rescaled_final/0407_rv.mp4	0.0	133.34369087219238	
11	84.27897810935974	fix_post	2		12	9.0	2.5	/experiments/knapen_AOT/AOT_stimuli/rescaled_final/0407_rv.mp4	0.0	134.66024494171143	0.10003399848937988
12	84.37901210784912	fix_pre	0		120	10.0	2.5	/experiments/knapen_AOT/AOT_stimuli/rescaled_final/1050_fw.mp4	0.0	134.7602789402008	1.0001449584960938
12	84.56254506111145	pulse	0	t		10.0	2.5	/experiments/knapen_AOT/AOT_stimuli/rescaled_final/1050_fw.mp4	0.0	134.94381189346313	
12	85.37915706634521	movie	1		243	10.0	2.5	/experiments/knapen_AOT/AOT_stimuli/rescaled_final/1050_fw.mp4	0.0	135.7604238986969	2.500368118286133
12	86.16301608085632	pulse	1	t		10.0	2.5	/experiments/knapen_AOT/AOT_stimuli/rescaled_final/1050_fw.mp4	0.0	136.544282913208	
12	87.76284599304199	pulse	1	t		10.0	2.5	/experiments/knapen_AOT/AOT_stimuli/rescaled_final/1050_fw.mp4	0.0	138.14411282539368	
12	87.87952518463135	fix_post	2		12	10.0	2.5	/experiments/knapen_AOT/AOT_stimuli/rescaled_final/1050_fw.mp4	0.0	138.26079201698303	0.10001492500305176
13	87.9795401096344	fix_pre	0		120	11.0	2.5	/experiments/knapen_AOT/AOT_stimuli/rescaled_final/0953_rv.mp4	0.0	138.36080694198608	1.0001420974731445
13	88.97968220710754	movie	1		243	11.0	2.5	/experiments/knapen_AOT/AOT_stimuli/rescaled_final/0953_rv.mp4	0.0	139.36094903945923	2.492079973220825
13	89.36360621452332	pulse	1	t		11.0	2.5	/experiments/knapen_AOT/AOT_stimuli/rescaled_final/0953_rv.mp4	0.0	139.744873046875	
13	90.96360802650452	pulse	1	t		11.0	2.5	/experiments/knapen_AOT/AOT_stimuli/rescaled_final/0953_rv.mp4	0.0	141.3448748588562	
13	91.47176218032837	fix_post	2		12	11.0	2.5	/experiments/knapen_AOT/AOT_stimuli/rescaled_final/0953_rv.mp4	0.0	141.85302901268005	0.09999394416809082
14	91.57175612449646	fix_pre	0		120	12.0	2.5	/experiments/knapen_AOT/AOT_stimuli/rescaled_final/1224_fw.mp4	0.0	141.95302295684814	1.000128984451294
14	92.56381320953369	pulse	0	t		12.0	2.5	/experiments/knapen_AOT/AOT_stimuli/rescaled_final/1224_fw.mp4	0.0	142.94508004188538	
14	92.57188510894775	movie	1		241	12.0	2.5	/experiments/knapen_AOT/AOT_stimuli/rescaled_final/1224_fw.mp4	0.0	142.95315194129944	2.5087389945983887
14	94.1651360988617	pulse	1	t		12.0	2.5	/experiments/knapen_AOT/AOT_stimuli/rescaled_final/1224_fw.mp4	0.0	144.54640293121338	
14	95.08062410354614	fix_post	2		12	12.0	2.5	/experiments/knapen_AOT/AOT_stimuli/rescaled_final/1224_fw.mp4	0.0	145.46189093589783	0.09997892379760742
15	95.18060302734375	fix_pre	0		120	13.0	2.5	/experiments/knapen_AOT/AOT_stimuli/rescaled_final/1209_rv.mp4	0.0	145.56186985969543	1.000148057937622
15	95.75668907165527	pulse	0	t		13.0	2.5	/experiments/knapen_AOT/AOT_stimuli/rescaled_final/1209_rv.mp4	0.0	146.13795590400696	
15	96.18075108528137	movie	1		244	13.0	2.5	/experiments/knapen_AOT/AOT_stimuli/rescaled_final/1209_rv.mp4	0.0	146.56201791763306	2.500425100326538
15	97.35660600662231	pulse	1	t		13.0	2.5	/experiments/knapen_AOT/AOT_stimuli/rescaled_final/1209_rv.mp4	0.0	147.737872838974	
15	98.68117618560791	fix_post	2		12	13.0	2.5	/experiments/knapen_AOT/AOT_stimuli/rescaled_final/1209_rv.mp4	0.0	149.0624430179596	0.09999680519104004
16	98.78117299079895	fix_pre	0		120	14.0	2.5	blank	1.0	149.16243982315063	1.000148057937622
16	98.95644617080688	pulse	0	t		14.0	2.5	blank	1.0	149.33771300315857	
16	99.78132104873657	movie	1		300	14.0	2.5	blank	1.0	150.16258788108826	2.5003650188446045
16	100.55668520927429	pulse	1	t		14.0	2.5	blank	1.0	150.93795204162598	
16	102.15690517425537	pulse	1	t		14.0	2.5	blank	1.0	152.53817200660706	
16	102.28168606758118	fix_post	2		12	14.0	2.5	blank	1.0	152.66295289993286	0.10001301765441895
17	102.3816990852356	fix_pre	0		120	15.0	2.5	/experiments/knapen_AOT/AOT_stimuli/rescaled_final/0518_fw.mp4	0.0	152.76296591758728	1.000140905380249
17	103.38183999061584	movie	1		243	15.0	2.5	/experiments/knapen_AOT/AOT_stimuli/rescaled_final/0518_fw.mp4	0.0	153.76310682296753	2.4920411109924316
17	103.75706315040588	pulse	1	t		15.0	2.5	/experiments/knapen_AOT/AOT_stimuli/rescaled_final/0518_fw.mp4	0.0	154.13832998275757	
17	105.3573670387268	pulse	1	t		15.0	2.5	/experiments/knapen_AOT/AOT_stimuli/rescaled_final/0518_fw.mp4	0.0	155.7386338710785	
17	105.87388110160828	fix_post	2		12	15.0	2.5	/experiments/knapen_AOT/AOT_stimuli/rescaled_final/0518_fw.mp4	0.0	156.25514793395996	0.09998393058776855
18	105.97386503219604	fix_pre	0		119	16.0	2.5	/experiments/knapen_AOT/AOT_stimuli/rescaled_final/0775_fw.mp4	0.0	156.35513186454773	0.9918310642242432
18	106.95765805244446	pulse	0	t		16.0	2.5	/experiments/knapen_AOT/AOT_stimuli/rescaled_final/0775_fw.mp4	0.0	157.33892488479614	
18	106.96569609642029	movie	1		246	16.0	2.5	/experiments/knapen_AOT/AOT_stimuli/rescaled_final/0775_fw.mp4	0.0	157.34696292877197	2.5087599754333496
18	108.55834817886353	pulse	1	t		16.0	2.5	/experiments/knapen_AOT/AOT_stimuli/rescaled_final/0775_fw.mp4	0.0	158.9396150112152	
18	109.47445607185364	fix_post	2		12	16.0	2.5	/experiments/knapen_AOT/AOT_stimuli/rescaled_final/0775_fw.mp4	0.0	159.85572290420532	0.09996604919433594
19	109.57442212104797	fix_pre	0		120	17.0	2.5	/experiments/knapen_AOT/AOT_stimuli/rescaled_final/0278_fw.mp4	0.0	159.95568895339966	1.0001909732818604
19	110.1579761505127	pulse	0	t		17.0	2.5	/experiments/knapen_AOT/AOT_stimuli/rescaled_final/0278_fw.mp4	0.0	160.53924298286438	
19	110.57461309432983	movie	1		245	17.0	2.5	/experiments/knapen_AOT/AOT_stimuli/rescaled_final/0278_fw.mp4	0.0	160.95587992668152	2.500354051589966
19	111.75833916664124	pulse	1	t		17.0	2.5	/experiments/knapen_AOT/AOT_stimuli/rescaled_final/0278_fw.mp4	0.0	162.13960599899292	
19	113.0749671459198	fix_post	2		12	17.0	2.5	/experiments/knapen_AOT/AOT_stimuli/rescaled_final/0278_fw.mp4	0.0	163.45623397827148	0.10002803802490234
20	113.1749951839447	fix_pre	0		120	18.0	2.5	/experiments/knapen_AOT/AOT_stimuli/rescaled_final/0470_fw.mp4	0.0	163.5562620162964	1.0001168251037598
20	113.35855007171631	pulse	0	t		18.0	2.5	/experiments/knapen_AOT/AOT_stimuli/rescaled_final/0470_fw.mp4	0.0	163.739816904068	
20	114.17511200904846	movie	1		245	18.0	2.5	/experiments/knapen_AOT/AOT_stimuli/rescaled_final/0470_fw.mp4	0.0	164.55637884140015	2.500437021255493
20	114.95884704589844	pulse	1	t		18.0	2.5	/experiments/knapen_AOT/AOT_stimuli/rescaled_final/0470_fw.mp4	0.0	165.34011387825012	
20	116.55664110183716	pulse	1	t		18.0	2.5	/experiments/knapen_AOT/AOT_stimuli/rescaled_final/0470_fw.mp4	0.0	166.93790793418884	
20	116.67554903030396	fix_post	2		12	18.0	2.5	/experiments/knapen_AOT/AOT_stimuli/rescaled_final/0470_fw.mp4	0.0	167.05681586265564	0.09999895095825195
21	116.7755479812622	fix_pre	0		120	19.0	2.5	/experiments/knapen_AOT/AOT_stimuli/rescaled_final/0731_fw.mp4	0.0	167.1568148136139	1.0001261234283447
21	117.77567410469055	movie	1		245	19.0	2.5	/experiments/knapen_AOT/AOT_stimuli/rescaled_final/0731_fw.mp4	0.0	168.15694093704224	2.4920120239257812
21	118.15988302230835	pulse	1	t		19.0	2.5	/experiments/knapen_AOT/AOT_stimuli/rescaled_final/0731_fw.mp4	0.0	168.54114985466003	
21	119.75946402549744	pulse	1	t		19.0	2.5	/experiments/knapen_AOT/AOT_stimuli/rescaled_final/0731_fw.mp4	0.0	170.14073085784912	
21	120.26768612861633	fix_post	2		12	19.0	2.5	/experiments/knapen_AOT/AOT_stimuli/rescaled_final/0731_fw.mp4	0.0	170.64895296096802	0.10005688667297363
22	120.3677430152893	fix_pre	0		120	20.0	2.5	/experiments/knapen_AOT/AOT_stimuli/rescaled_final/1224_fw.mp4	0.0	170.749009847641	1.0001201629638672
22	121.35979509353638	pulse	0	t		20.0	2.5	/experiments/knapen_AOT/AOT_stimuli/rescaled_final/1224_fw.mp4	0.0	171.74106192588806	
22	121.36786317825317	movie	1		245	20.0	2.5	/experiments/knapen_AOT/AOT_stimuli/rescaled_final/1224_fw.mp4	0.0	171.74913001060486	2.5087249279022217
22	122.96147918701172	pulse	1	t		20.0	2.5	/experiments/knapen_AOT/AOT_stimuli/rescaled_final/1224_fw.mp4	0.0	173.3427460193634	
22	123.8765881061554	fix_post	2		12	20.0	2.5	/experiments/knapen_AOT/AOT_stimuli/rescaled_final/1224_fw.mp4	0.0	174.25785493850708	0.09998893737792969
23	123.97657704353333	fix_pre	0		120	21.0	2.5	blank	1.0	174.357843875885	1.0001490116119385
23	124.56025004386902	pulse	0	t		21.0	2.5	blank	1.0	174.9415168762207	
23	124.97672605514526	movie	1		300	21.0	2.5	blank	1.0	175.35799288749695	2.500430107116699
23	126.16046619415283	pulse	1	t		21.0	2.5	blank	1.0	176.54173302650452	
23	127.47715616226196	fix_post	2		12	21.0	2.5	blank	1.0	177.85842299461365	0.09994983673095703
24	127.57710599899292	fix_pre	0		120	22.0	2.5	/experiments/knapen_AOT/AOT_stimuli/rescaled_final/0712_rv.mp4	0.0	177.9583728313446	1.000150203704834
24	127.76068615913391	pulse	0	t		22.0	2.5	/experiments/knapen_AOT/AOT_stimuli/rescaled_final/0712_rv.mp4	0.0	178.1419529914856	
24	128.57725620269775	movie	1		244	22.0	2.5	/experiments/knapen_AOT/AOT_stimuli/rescaled_final/0712_rv.mp4	0.0	178.95852303504944	2.5004138946533203
24	129.36095809936523	pulse	1	t		22.0	2.5	/experiments/knapen_AOT/AOT_stimuli/rescaled_final/0712_rv.mp4	0.0	179.74222493171692	
24	130.95874214172363	pulse	1	t		22.0	2.5	/experiments/knapen_AOT/AOT_stimuli/rescaled_final/0712_rv.mp4	0.0	181.34000897407532	
24	131.07767009735107	fix_post	2		12	22.0	2.5	/experiments/knapen_AOT/AOT_stimuli/rescaled_final/0712_rv.mp4	0.0	181.45893692970276	0.10001397132873535
25	131.1776840686798	fix_pre	0		120	23.0	2.5	/experiments/knapen_AOT/AOT_stimuli/rescaled_final/0624_rv.mp4	0.0	181.5589509010315	1.0001630783081055
25	132.17784714698792	movie	1		243	23.0	2.5	/experiments/knapen_AOT/AOT_stimuli/rescaled_final/0624_rv.mp4	0.0	182.5591139793396	2.491986036300659
25	132.5621621608734	pulse	1	t		23.0	2.5	/experiments/knapen_AOT/AOT_stimuli/rescaled_final/0624_rv.mp4	0.0	182.9434289932251	
25	134.1616370677948	pulse	1	t		23.0	2.5	/experiments/knapen_AOT/AOT_stimuli/rescaled_final/0624_rv.mp4	0.0	184.54290390014648	
25	134.66983318328857	fix_post	2		12	23.0	2.5	/experiments/knapen_AOT/AOT_stimuli/rescaled_final/0624_rv.mp4	0.0	185.05110001564026	0.10001993179321289
26	134.7698531150818	fix_pre	0		120	24.0	2.5	/experiments/knapen_AOT/AOT_stimuli/rescaled_final/1017_rv.mp4	0.0	185.15111994743347	1.0001449584960938
26	135.76184010505676	pulse	0	t		24.0	2.5	/experiments/knapen_AOT/AOT_stimuli/rescaled_final/1017_rv.mp4	0.0	186.14310693740845	
26	135.76999807357788	movie	1		246	24.0	2.5	/experiments/knapen_AOT/AOT_stimuli/rescaled_final/1017_rv.mp4	0.0	186.15126490592957	2.5087311267852783
26	137.36287212371826	pulse	1	t		24.0	2.5	/experiments/knapen_AOT/AOT_stimuli/rescaled_final/1017_rv.mp4	0.0	187.74413895606995	
26	138.27872920036316	fix_post	2		12	24.0	2.5	/experiments/knapen_AOT/AOT_stimuli/rescaled_final/1017_rv.mp4	0.0	188.65999603271484	0.1000208854675293
27	138.3787500858307	fix_pre	0		120	25.0	2.5	/experiments/knapen_AOT/AOT_stimuli/rescaled_final/0246_fw.mp4	0.0	188.76001691818237	1.000154972076416
27	138.96241903305054	pulse	0	t		25.0	2.5	/experiments/knapen_AOT/AOT_stimuli/rescaled_final/0246_fw.mp4	0.0	189.34368586540222	
27	139.3789050579071	movie	1		244	25.0	2.5	/experiments/knapen_AOT/AOT_stimuli/rescaled_final/0246_fw.mp4	0.0	189.7601718902588	2.500404119491577
27	140.56266903877258	pulse	1	t		25.0	2.5	/experiments/knapen_AOT/AOT_stimuli/rescaled_final/0246_fw.mp4	0.0	190.94393587112427	
27	141.87930917739868	fix_post	2		12	25.0	2.5	/experiments/knapen_AOT/AOT_stimuli/rescaled_final/0246_fw.mp4	0.0	192.26057600975037	0.10001397132873535
28	141.97932314872742	fix_pre	0		120	26.0	2.5	/experiments/knapen_AOT/AOT_stimuli/rescaled_final/0631_rv.mp4	0.0	192.3605899810791	1.0001029968261719
28	142.16283917427063	pulse	0	t		26.0	2.5	/experiments/knapen_AOT/AOT_stimuli/rescaled_final/0631_rv.mp4	0.0	192.54410600662231	
28	142.9794261455536	movie	1		244	26.0	2.5	/experiments/knapen_AOT/AOT_stimuli/rescaled_final/0631_rv.mp4	0.0	193.36069297790527	2.5003600120544434
28	143.76311707496643	pulse	1	t		26.0	2.5	/experiments/knapen_AOT/AOT_stimuli/rescaled_final/0631_rv.mp4	0.0	194.14438390731812	
28	145.36100602149963	pulse	1	t		26.0	2.5	/experiments/knapen_AOT/AOT_stimuli/rescaled_final/0631_rv.mp4	0.0	195.74227285385132	
28	145.47978615760803	fix_post	2		12	26.0	2.5	/experiments/knapen_AOT/AOT_stimuli/rescaled_final/0631_rv.mp4	0.0	195.86105298995972	0.10001182556152344
29	145.57979798316956	fix_pre	0		120	27.0	2.5	blank	1.0	195.96106481552124	1.000162124633789
29	146.57996010780334	movie	1		299	27.0	2.5	blank	1.0	196.96122694015503	2.4921629428863525
29	146.96363711357117	pulse	1	t		27.0	2.5	blank	1.0	197.34490394592285	
29	148.55628204345703	pulse	1	t		27.0	2.5	blank	1.0	198.93754887580872	
29	149.0721230506897	fix_post	2		12	27.0	2.5	blank	1.0	199.45338988304138	0.09989404678344727
30	149.17201709747314	fix_pre	0		120	28.0	2.5	/experiments/knapen_AOT/AOT_stimuli/rescaled_final/1856_rv.mp4	0.0	199.55328392982483	1.0001609325408936
30	150.15647506713867	pulse	0	t		28.0	2.5	/experiments/knapen_AOT/AOT_stimuli/rescaled_final/1856_rv.mp4	0.0	200.53774189949036	
30	150.17217803001404	movie	1		250	28.0	2.5	/experiments/knapen_AOT/AOT_stimuli/rescaled_final/1856_rv.mp4	0.0	200.55344486236572	2.508700132369995
30	151.76535320281982	pulse	1	t		28.0	2.5	/experiments/knapen_AOT/AOT_stimuli/rescaled_final/1856_rv.mp4	0.0	202.1466200351715	
30	152.68087816238403	fix_post	2		12	28.0	2.5	/experiments/knapen_AOT/AOT_stimuli/rescaled_final/1856_rv.mp4	0.0	203.06214499473572	0.10002589225769043
31	152.78090405464172	fix_pre	0		118	29.0	2.5	/experiments/knapen_AOT/AOT_stimuli/rescaled_final/1889_rv.mp4	0.0	203.1621708869934	1.0001349449157715
31	153.3570580482483	pulse	0	t		29.0	2.5	/experiments/knapen_AOT/AOT_stimuli/rescaled_final/1889_rv.mp4	0.0	203.73832488059998	
31	153.7810389995575	movie	1		245	29.0	2.5	/experiments/knapen_AOT/AOT_stimuli/rescaled_final/1889_rv.mp4	0.0	204.16230583190918	2.5004119873046875
31	154.96110916137695	pulse	1	t		29.0	2.5	/experiments/knapen_AOT/AOT_stimuli/rescaled_final/1889_rv.mp4	0.0	205.34237599372864	
31	156.28145098686218	fix_post	2		12	29.0	2.5	/experiments/knapen_AOT/AOT_stimuli/rescaled_final/1889_rv.mp4	0.0	206.66271781921387	0.09999704360961914
32	156.3814480304718	fix_pre	0		120	30.0	2.5	/experiments/knapen_AOT/AOT_stimuli/rescaled_final/0420_rv.mp4	0.0	206.7627148628235	1.000133991241455
32	156.55662202835083	pulse	0	t		30.0	2.5	/experiments/knapen_AOT/AOT_stimuli/rescaled_final/0420_rv.mp4	0.0	206.93788886070251	
32	157.38158202171326	movie	1		244	30.0	2.5	/experiments/knapen_AOT/AOT_stimuli/rescaled_final/0420_rv.mp4	0.0	207.76284885406494	2.492037057876587
32	158.156898021698	pulse	1	t		30.0	2.5	/experiments/knapen_AOT/AOT_stimuli/rescaled_final/0420_rv.mp4	0.0	208.53816485404968	
32	159.75725507736206	pulse	1	t		30.0	2.5	/experiments/knapen_AOT/AOT_stimuli/rescaled_final/0420_rv.mp4	0.0	210.13852190971375	
32	159.87361907958984	fix_post	2		12	30.0	2.5	/experiments/knapen_AOT/AOT_stimuli/rescaled_final/0420_rv.mp4	0.0	210.25488591194153	0.10003995895385742
33	159.9736590385437	fix_pre	0		120	31.0	2.5	/experiments/knapen_AOT/AOT_stimuli/rescaled_final/0301_rv.mp4	0.0	210.35492587089539	1.0001280307769775
33	160.97378706932068	movie	1		246	31.0	2.5	/experiments/knapen_AOT/AOT_stimuli/rescaled_final/0301_rv.mp4	0.0	211.35505390167236	2.5003530979156494
33	161.35848712921143	pulse	1	t		31.0	2.5	/experiments/knapen_AOT/AOT_stimuli/rescaled_final/0301_rv.mp4	0.0	211.7397539615631	
33	162.95771718025208	pulse	1	t		31.0	2.5	/experiments/knapen_AOT/AOT_stimuli/rescaled_final/0301_rv.mp4	0.0	213.33898401260376	
33	163.47414016723633	fix_post	2		12	31.0	2.5	/experiments/knapen_AOT/AOT_stimuli/rescaled_final/0301_rv.mp4	0.0	213.855406999588	0.10001182556152344
34	163.57415199279785	fix_pre	0		119	32.0	2.5	/experiments/knapen_AOT/AOT_stimuli/rescaled_final/0523_rv.mp4	0.0	213.95541882514954	0.9918620586395264
34	164.55786299705505	pulse	0	t		32.0	2.5	/experiments/knapen_AOT/AOT_stimuli/rescaled_final/0523_rv.mp4	0.0	214.93912982940674	
34	164.56601405143738	movie	1		254	32.0	2.5	/experiments/knapen_AOT/AOT_stimuli/rescaled_final/0523_rv.mp4	0.0	214.94728088378906	2.5086710453033447
34	166.15865206718445	pulse	1	t		32.0	2.5	/experiments/knapen_AOT/AOT_stimuli/rescaled_final/0523_rv.mp4	0.0	216.53991889953613	
34	167.07468509674072	fix_post	2		12	32.0	2.5	/experiments/knapen_AOT/AOT_stimuli/rescaled_final/0523_rv.mp4	0.0	217.4559519290924	0.10002589225769043
35	167.1747109889984	fix_pre	0		120	33.0	2.5	blank	1.0	217.5559778213501	1.0001380443572998
35	167.75841403007507	pulse	0	t		33.0	2.5	blank	1.0	218.13968086242676	
35	168.1748490333557	movie	1		300	33.0	2.5	blank	1.0	218.5561158657074	2.500441074371338
35	169.3586301803589	pulse	1	t		33.0	2.5	blank	1.0	219.73989701271057	
35	170.67529010772705	fix_post	2		12	33.0	2.5	blank	1.0	221.05655694007874	0.09998106956481934
36	170.77527117729187	fix_pre	0		120	34.0	2.5	/experiments/knapen_AOT/AOT_stimuli/rescaled_final/0523_fw.mp4	0.0	221.15653800964355	1.0002789497375488
36	170.958820104599	pulse	0	t		34.0	2.5	/experiments/knapen_AOT/AOT_stimuli/rescaled_final/0523_fw.mp4	0.0	221.34008693695068	
36	171.77555012702942	movie	1		246	34.0	2.5	/experiments/knapen_AOT/AOT_stimuli/rescaled_final/0523_fw.mp4	0.0	222.1568169593811	2.500201940536499
36	172.55903816223145	pulse	1	t		34.0	2.5	/experiments/knapen_AOT/AOT_stimuli/rescaled_final/0523_fw.mp4	0.0	222.94030499458313	
36	174.15928721427917	pulse	1	t		34.0	2.5	/experiments/knapen_AOT/AOT_stimuli/rescaled_final/0523_fw.mp4	0.0	224.54055404663086	
36	174.27575206756592	fix_post	2		12	34.0	2.5	/experiments/knapen_AOT/AOT_stimuli/rescaled_final/0523_fw.mp4	0.0	224.6570188999176	0.10003399848937988
37	174.3757860660553	fix_pre	0		120	35.0	2.5	/experiments/knapen_AOT/AOT_stimuli/rescaled_final/0097_fw.mp4	0.0	224.75705289840698	1.0001649856567383
37	175.37595105171204	movie	1		249	35.0	2.5	/experiments/knapen_AOT/AOT_stimuli/rescaled_final/0097_fw.mp4	0.0	225.75721788406372	2.4920010566711426
37	175.7601661682129	pulse	1	t		35.0	2.5	/experiments/knapen_AOT/AOT_stimuli/rescaled_final/0097_fw.mp4	0.0	226.14143300056458	
37	177.3598051071167	pulse	1	t		35.0	2.5	/experiments/knapen_AOT/AOT_stimuli/rescaled_final/0097_fw.mp4	0.0	227.74107193946838	
37	177.86795210838318	fix_post	2		12	35.0	2.5	/experiments/knapen_AOT/AOT_stimuli/rescaled_final/0097_fw.mp4	0.0	228.24921894073486	0.10002589225769043
38	177.96797800064087	fix_pre	0		120	36.0	2.5	/experiments/knapen_AOT/AOT_stimuli/rescaled_final/1338_rv.mp4	0.0	228.34924483299255	1.0001730918884277
38	178.95993614196777	pulse	0	t		36.0	2.5	/experiments/knapen_AOT/AOT_stimuli/rescaled_final/1338_rv.mp4	0.0	229.34120297431946	
38	178.9681510925293	movie	1		253	36.0	2.5	/experiments/knapen_AOT/AOT_stimuli/rescaled_final/1338_rv.mp4	0.0	229.34941792488098	2.508726119995117
38	180.56076216697693	pulse	1	t		36.0	2.5	/experiments/knapen_AOT/AOT_stimuli/rescaled_final/1338_rv.mp4	0.0	230.9420289993286	
38	181.4768772125244	fix_post	2		12	36.0	2.5	/experiments/knapen_AOT/AOT_stimuli/rescaled_final/1338_rv.mp4	0.0	231.8581440448761	0.09997296333312988
39	181.57685017585754	fix_pre	0		120	37.0	2.5	/experiments/knapen_AOT/AOT_stimuli/rescaled_final/0136_fw.mp4	0.0	231.95811700820923	1.0001678466796875
39	182.16050505638123	pulse	0	t		37.0	2.5	/experiments/knapen_AOT/AOT_stimuli/rescaled_final/0136_fw.mp4	0.0	232.5417718887329	
39	182.57701802253723	movie	1		244	37.0	2.5	/experiments/knapen_AOT/AOT_stimuli/rescaled_final/0136_fw.mp4	0.0	232.95828485488892	2.500368118286133
39	183.76076316833496	pulse	1	t		37.0	2.5	/experiments/knapen_AOT/AOT_stimuli/rescaled_final/0136_fw.mp4	0.0	234.14203000068665	
39	185.07738614082336	fix_post	2		12	37.0	2.5	/experiments/knapen_AOT/AOT_stimuli/rescaled_final/0136_fw.mp4	0.0	235.45865297317505	0.10000896453857422
40	185.17739510536194	fix_pre	0		120	38.0	2.5	/experiments/knapen_AOT/AOT_stimuli/rescaled_final/1889_rv.mp4	0.0	235.55866193771362	1.0001840591430664
40	185.36086010932922	pulse	0	t		38.0	2.5	/experiments/knapen_AOT/AOT_stimuli/rescaled_final/1889_rv.mp4	0.0	235.7421269416809	
40	186.177579164505	movie	1		245	38.0	2.5	/experiments/knapen_AOT/AOT_stimuli/rescaled_final/1889_rv.mp4	0.0	236.5588459968567	2.500375986099243
40	186.96121501922607	pulse	1	t		38.0	2.5	/experiments/knapen_AOT/AOT_stimuli/rescaled_final/1889_rv.mp4	0.0	237.34248185157776	
40	188.5586700439453	pulse	1	t		38.0	2.5	/experiments/knapen_AOT/AOT_stimuli/rescaled_final/1889_rv.mp4	0.0	238.939936876297	
40	188.67795515060425	fix_post	2		12	38.0	2.5	/experiments/knapen_AOT/AOT_stimuli/rescaled_final/1889_rv.mp4	0.0	239.05922198295593	0.09998297691345215
41	188.7779381275177	fix_pre	0		119	39.0	2.5	/experiments/knapen_AOT/AOT_stimuli/rescaled_final/2006_rv.mp4	0.0	239.15920495986938	0.9918010234832764
41	189.76973915100098	movie	1		243	39.0	2.5	/experiments/knapen_AOT/AOT_stimuli/rescaled_final/2006_rv.mp4	0.0	240.15100598335266	2.500391960144043
41	190.16177320480347	pulse	1	t		39.0	2.5	/experiments/knapen_AOT/AOT_stimuli/rescaled_final/2006_rv.mp4	0.0	240.54304003715515	
41	191.761901140213	pulse	1	t		39.0	2.5	/experiments/knapen_AOT/AOT_stimuli/rescaled_final/2006_rv.mp4	0.0	242.1431679725647	
41	192.27013111114502	fix_post	2		12	39.0	2.5	/experiments/knapen_AOT/AOT_stimuli/rescaled_final/2006_rv.mp4	0.0	242.6513979434967	0.10002398490905762
42	192.37015509605408	fix_pre	0		120	40.0	2.5	blank	1.0	242.75142192840576	1.000154972076416
42	193.3621461391449	pulse	0	t		40.0	2.5	blank	1.0	243.74341297149658	
42	193.3703100681305	movie	1		301	40.0	2.5	blank	1.0	243.75157690048218	2.508718967437744
42	194.96238017082214	pulse	1	t		40.0	2.5	blank	1.0	245.34364700317383	
42	195.87902903556824	fix_post	2		12	40.0	2.5	blank	1.0	246.26029586791992	0.09997415542602539
43	195.97900319099426	fix_pre	0		120	41.0	2.5	/experiments/knapen_AOT/AOT_stimuli/rescaled_final/1995_rv.mp4	0.0	246.36027002334595	1.0001678466796875
43	196.56269717216492	pulse	0	t		41.0	2.5	/experiments/knapen_AOT/AOT_stimuli/rescaled_final/1995_rv.mp4	0.0	246.9439640045166	
43	196.97917103767395	movie	1		246	41.0	2.5	/experiments/knapen_AOT/AOT_stimuli/rescaled_final/1995_rv.mp4	0.0	247.36043787002563	2.5003609657287598
43	198.16304516792297	pulse	1	t		41.0	2.5	/experiments/knapen_AOT/AOT_stimuli/rescaled_final/1995_rv.mp4	0.0	248.54431200027466	
43	199.4795320034027	fix_post	2		12	41.0	2.5	/experiments/knapen_AOT/AOT_stimuli/rescaled_final/1995_rv.mp4	0.0	249.8607988357544	0.10000801086425781
44	199.57954001426697	fix_pre	0		120	42.0	2.5	/experiments/knapen_AOT/AOT_stimuli/rescaled_final/1650_fw.mp4	0.0	249.96080684661865	1.0001461505889893
44	199.76310920715332	pulse	0	t		42.0	2.5	/experiments/knapen_AOT/AOT_stimuli/rescaled_final/1650_fw.mp4	0.0	250.144376039505	
44	200.57968616485596	movie	1		243	42.0	2.5	/experiments/knapen_AOT/AOT_stimuli/rescaled_final/1650_fw.mp4	0.0	250.96095299720764	2.500370979309082
44	201.35594606399536	pulse	1	t		42.0	2.5	/experiments/knapen_AOT/AOT_stimuli/rescaled_final/1650_fw.mp4	0.0	251.73721289634705	
44	202.96554398536682	pulse	1	t		42.0	2.5	/experiments/knapen_AOT/AOT_stimuli/rescaled_final/1650_fw.mp4	0.0	253.3468108177185	
44	203.08005714416504	fix_post	2		12	42.0	2.5	/experiments/knapen_AOT/AOT_stimuli/rescaled_final/1650_fw.mp4	0.0	253.46132397651672	0.10003900527954102
45	203.18009614944458	fix_pre	0		119	43.0	2.5	/experiments/knapen_AOT/AOT_stimuli/rescaled_final/1842_fw.mp4	0.0	253.56136298179626	0.9917929172515869
45	204.17188906669617	movie	1		243	43.0	2.5	/experiments/knapen_AOT/AOT_stimuli/rescaled_final/1842_fw.mp4	0.0	254.55315589904785	2.5003960132598877
45	204.55617713928223	pulse	1	t		43.0	2.5	/experiments/knapen_AOT/AOT_stimuli/rescaled_final/1842_fw.mp4	0.0	254.9374439716339	
45	206.15670204162598	pulse	1	t		43.0	2.5	/experiments/knapen_AOT/AOT_stimuli/rescaled_final/1842_fw.mp4	0.0	256.53796887397766	
45	206.67228507995605	fix_post	2		12	43.0	2.5	/experiments/knapen_AOT/AOT_stimuli/rescaled_final/1842_fw.mp4	0.0	257.05355191230774	0.1000211238861084
46	206.77230620384216	fix_pre	0		120	44.0	2.5	/experiments/knapen_AOT/AOT_stimuli/rescaled_final/0100_rv.mp4	0.0	257.15357303619385	1.0001468658447266
46	207.75672316551208	pulse	0	t		44.0	2.5	/experiments/knapen_AOT/AOT_stimuli/rescaled_final/0100_rv.mp4	0.0	258.13798999786377	
46	207.7724530696869	movie	1		245	44.0	2.5	/experiments/knapen_AOT/AOT_stimuli/rescaled_final/0100_rv.mp4	0.0	258.1537199020386	2.508686065673828
46	209.35622906684875	pulse	1	t		44.0	2.5	/experiments/knapen_AOT/AOT_stimuli/rescaled_final/0100_rv.mp4	0.0	259.73749589920044	
46	210.28113913536072	fix_post	2		12	44.0	2.5	/experiments/knapen_AOT/AOT_stimuli/rescaled_final/0100_rv.mp4	0.0	260.6624059677124	0.1000678539276123
47	210.38120698928833	fix_pre	0		120	45.0	2.5	/experiments/knapen_AOT/AOT_stimuli/rescaled_final/1145_rv.mp4	0.0	260.76247382164	1.000124216079712
47	210.95648503303528	pulse	0	t		45.0	2.5	/experiments/knapen_AOT/AOT_stimuli/rescaled_final/1145_rv.mp4	0.0	261.33775186538696	
47	211.38133120536804	movie	1		246	45.0	2.5	/experiments/knapen_AOT/AOT_stimuli/rescaled_final/1145_rv.mp4	0.0	261.7625980377197	2.5003559589385986
47	212.55735611915588	pulse	1	t		45.0	2.5	/experiments/knapen_AOT/AOT_stimuli/rescaled_final/1145_rv.mp4	0.0	262.93862295150757	
47	213.88168716430664	fix_post	2		12	45.0	2.5	/experiments/knapen_AOT/AOT_stimuli/rescaled_final/1145_rv.mp4	0.0	264.2629539966583	0.10002303123474121
48	213.98171019554138	fix_pre	0		117	46.0	2.5	/experiments/knapen_AOT/AOT_stimuli/rescaled_final/2089_rv.mp4	0.0	264.36297702789307	1.000133991241455
48	214.15694904327393	pulse	0	t		46.0	2.5	/experiments/knapen_AOT/AOT_stimuli/rescaled_final/2089_rv.mp4	0.0	264.5382158756256	
48	214.98184418678284	movie	1		243	46.0	2.5	/experiments/knapen_AOT/AOT_stimuli/rescaled_final/2089_rv.mp4	0.0	265.3631110191345	2.500391960144043
48	215.7571771144867	pulse	1	t		46.0	2.5	/experiments/knapen_AOT/AOT_stimuli/rescaled_final/2089_rv.mp4	0.0	266.1384439468384	
48	217.35740613937378	pulse	1	t		46.0	2.5	/experiments/knapen_AOT/AOT_stimuli/rescaled_final/2089_rv.mp4	0.0	267.73867297172546	
48	217.48223614692688	fix_post	2		12	46.0	2.5	/experiments/knapen_AOT/AOT_stimuli/rescaled_final/2089_rv.mp4	0.0	267.86350297927856	0.09998583793640137
49	217.58222198486328	fix_pre	0		120	47.0	2.5	/experiments/knapen_AOT/AOT_stimuli/rescaled_final/1758_rv.mp4	0.0	267.96348881721497	1.0001811981201172
49	218.5824031829834	movie	1		244	47.0	2.5	/experiments/knapen_AOT/AOT_stimuli/rescaled_final/1758_rv.mp4	0.0	268.9636700153351	2.4920618534088135
49	218.95763111114502	pulse	1	t		47.0	2.5	/experiments/knapen_AOT/AOT_stimuli/rescaled_final/1758_rv.mp4	0.0	269.3388979434967	
49	220.55792999267578	pulse	1	t		47.0	2.5	/experiments/knapen_AOT/AOT_stimuli/rescaled_final/1758_rv.mp4	0.0	270.93919682502747	
49	221.0744650363922	fix_post	2		12	47.0	2.5	/experiments/knapen_AOT/AOT_stimuli/rescaled_final/1758_rv.mp4	0.0	271.4557318687439	0.09998917579650879
50	221.17445421218872	fix_pre	0		119	48.0	2.5	/experiments/knapen_AOT/AOT_stimuli/rescaled_final/0775_fw.mp4	0.0	271.5557210445404	0.9918029308319092
50	222.1580901145935	pulse	0	t		48.0	2.5	/experiments/knapen_AOT/AOT_stimuli/rescaled_final/0775_fw.mp4	0.0	272.5393569469452	
50	222.16625714302063	movie	1		246	48.0	2.5	/experiments/knapen_AOT/AOT_stimuli/rescaled_final/0775_fw.mp4	0.0	272.5475239753723	2.508754014968872
50	223.75897598266602	pulse	1	t		48.0	2.5	/experiments/knapen_AOT/AOT_stimuli/rescaled_final/0775_fw.mp4	0.0	274.1402428150177	
50	224.6750111579895	fix_post	2		12	48.0	2.5	/experiments/knapen_AOT/AOT_stimuli/rescaled_final/0775_fw.mp4	0.0	275.0562779903412	0.10000395774841309
51	224.77501511573792	fix_pre	0		120	49.0	2.5	blank	1.0	275.1562819480896	1.0001649856567383
51	225.35861611366272	pulse	0	t		49.0	2.5	blank	1.0	275.7398829460144	
51	225.77518010139465	movie	1		300	49.0	2.5	blank	1.0	276.15644693374634	2.50034499168396
51	226.9588041305542	pulse	1	t		49.0	2.5	blank	1.0	277.3400709629059	
51	228.2755250930786	fix_post	2		12	49.0	2.5	blank	1.0	278.6567919254303	0.10002493858337402
52	228.375550031662	fix_pre	0		120	50.0	2.5	/experiments/knapen_AOT/AOT_stimuli/rescaled_final/1050_rv.mp4	0.0	278.7568168640137	1.0001261234283447
52	228.55908608436584	pulse	0	t		50.0	2.5	/experiments/knapen_AOT/AOT_stimuli/rescaled_final/1050_rv.mp4	0.0	278.94035291671753	
52	229.37567615509033	movie	1		243	50.0	2.5	/experiments/knapen_AOT/AOT_stimuli/rescaled_final/1050_rv.mp4	0.0	279.756942987442	2.500349998474121
52	230.1594820022583	pulse	1	t		50.0	2.5	/experiments/knapen_AOT/AOT_stimuli/rescaled_final/1050_rv.mp4	0.0	280.54074883461	
52	231.75944900512695	pulse	1	t		50.0	2.5	/experiments/knapen_AOT/AOT_stimuli/rescaled_final/1050_rv.mp4	0.0	282.14071583747864	
52	231.87602615356445	fix_post	2		12	50.0	2.5	/experiments/knapen_AOT/AOT_stimuli/rescaled_final/1050_rv.mp4	0.0	282.25729298591614	0.1000828742980957
53	231.97610902786255	fix_pre	0		120	51.0	2.5	/experiments/knapen_AOT/AOT_stimuli/rescaled_final/1135_fw.mp4	0.0	282.35737586021423	1.0001089572906494
53	232.9762179851532	movie	1		244	51.0	2.5	/experiments/knapen_AOT/AOT_stimuli/rescaled_final/1135_fw.mp4	0.0	283.3574848175049	2.4920220375061035
53	233.36434602737427	pulse	1	t		51.0	2.5	/experiments/knapen_AOT/AOT_stimuli/rescaled_final/1135_fw.mp4	0.0	283.74561285972595	
53	234.96008205413818	pulse	1	t		51.0	2.5	/experiments/knapen_AOT/AOT_stimuli/rescaled_final/1135_fw.mp4	0.0	285.34134888648987	
53	235.4682400226593	fix_post	2		12	51.0	2.5	/experiments/knapen_AOT/AOT_stimuli/rescaled_final/1135_fw.mp4	0.0	285.849506855011	0.10001397132873535
54	235.56825399398804	fix_pre	0		120	52.0	2.5	/experiments/knapen_AOT/AOT_stimuli/rescaled_final/1758_fw.mp4	0.0	285.9495208263397	1.000162124633789
54	236.56038308143616	pulse	0	t		52.0	2.5	/experiments/knapen_AOT/AOT_stimuli/rescaled_final/1758_fw.mp4	0.0	286.94164991378784	
54	236.56841611862183	movie	1		245	52.0	2.5	/experiments/knapen_AOT/AOT_stimuli/rescaled_final/1758_fw.mp4	0.0	286.9496829509735	2.5088069438934326
54	238.1611909866333	pulse	1	t		52.0	2.5	/experiments/knapen_AOT/AOT_stimuli/rescaled_final/1758_fw.mp4	0.0	288.542457818985	
54	239.07722306251526	fix_post	2		12	52.0	2.5	/experiments/knapen_AOT/AOT_stimuli/rescaled_final/1758_fw.mp4	0.0	289.45848989486694	0.09991192817687988
55	239.17713499069214	fix_pre	0		120	53.0	2.5	/experiments/knapen_AOT/AOT_stimuli/rescaled_final/2177_fw.mp4	0.0	289.5584018230438	1.000169038772583
55	239.76080107688904	pulse	0	t		53.0	2.5	/experiments/knapen_AOT/AOT_stimuli/rescaled_final/2177_fw.mp4	0.0	290.1420679092407	
55	240.17730402946472	movie	1		245	53.0	2.5	/experiments/knapen_AOT/AOT_stimuli/rescaled_final/2177_fw.mp4	0.0	290.5585708618164	2.500339984893799
55	241.36110615730286	pulse	1	t		53.0	2.5	/experiments/knapen_AOT/AOT_stimuli/rescaled_final/2177_fw.mp4	0.0	291.74237298965454	
55	242.67764401435852	fix_post	2		12	53.0	2.5	/experiments/knapen_AOT/AOT_stimuli/rescaled_final/2177_fw.mp4	0.0	293.0589108467102	0.10002899169921875
56	242.77767300605774	fix_pre	0		120	54.0	2.5	/experiments/knapen_AOT/AOT_stimuli/rescaled_final/1538_fw.mp4	0.0	293.1589398384094	1.0001580715179443
56	242.96133518218994	pulse	0	t		54.0	2.5	/experiments/knapen_AOT/AOT_stimuli/rescaled_final/1538_fw.mp4	0.0	293.3426020145416	
56	243.77783107757568	movie	1		243	54.0	2.5	/experiments/knapen_AOT/AOT_stimuli/rescaled_final/1538_fw.mp4	0.0	294.15909790992737	2.500364065170288
56	244.56160521507263	pulse	1	t		54.0	2.5	/experiments/knapen_AOT/AOT_stimuli/rescaled_final/1538_fw.mp4	0.0	294.9428720474243	
56	246.16141200065613	pulse	1	t		54.0	2.5	/experiments/knapen_AOT/AOT_stimuli/rescaled_final/1538_fw.mp4	0.0	296.5426788330078	
56	246.27819514274597	fix_post	2		12	54.0	2.5	/experiments/knapen_AOT/AOT_stimuli/rescaled_final/1538_fw.mp4	0.0	296.65946197509766	0.10005307197570801
57	246.37824821472168	fix_pre	0		120	55.0	2.5	blank	1.0	296.75951504707336	1.0001068115234375
57	247.37835502624512	movie	1		299	55.0	2.5	blank	1.0	297.7596218585968	2.492074966430664
57	247.761901140213	pulse	1	t		55.0	2.5	blank	1.0	298.1431679725647	
57	249.3622431755066	pulse	1	t		55.0	2.5	blank	1.0	299.7435100078583	
57	249.87042999267578	fix_post	2		12	55.0	2.5	blank	1.0	300.25169682502747	0.09997701644897461
58	249.97040700912476	fix_pre	0		120	56.0	2.5	/experiments/knapen_AOT/AOT_stimuli/rescaled_final/0470_rv.mp4	0.0	300.35167384147644	1.0001862049102783
58	250.96250009536743	pulse	0	t		56.0	2.5	/experiments/knapen_AOT/AOT_stimuli/rescaled_final/0470_rv.mp4	0.0	301.3437669277191	
58	250.97059321403503	movie	1		245	56.0	2.5	/experiments/knapen_AOT/AOT_stimuli/rescaled_final/0470_rv.mp4	0.0	301.3518600463867	2.5086779594421387
58	252.56337213516235	pulse	1	t		56.0	2.5	/experiments/knapen_AOT/AOT_stimuli/rescaled_final/0470_rv.mp4	0.0	302.94463896751404	
58	253.47927117347717	fix_post	2		12	56.0	2.5	/experiments/knapen_AOT/AOT_stimuli/rescaled_final/0470_rv.mp4	0.0	303.86053800582886	0.1000509262084961
59	253.57932209968567	fix_pre	0		120	57.0	2.5	/experiments/knapen_AOT/AOT_stimuli/rescaled_final/0580_fw.mp4	0.0	303.96058893203735	1.0001211166381836
59	254.16293120384216	pulse	0	t		57.0	2.5	/experiments/knapen_AOT/AOT_stimuli/rescaled_final/0580_fw.mp4	0.0	304.54419803619385	
59	254.57944321632385	movie	1		243	57.0	2.5	/experiments/knapen_AOT/AOT_stimuli/rescaled_final/0580_fw.mp4	0.0	304.96071004867554	2.5003418922424316
59	255.76323819160461	pulse	1	t		57.0	2.5	/experiments/knapen_AOT/AOT_stimuli/rescaled_final/0580_fw.mp4	0.0	306.1445050239563	
59	257.0797851085663	fix_post	2		12	57.0	2.5	/experiments/knapen_AOT/AOT_stimuli/rescaled_final/0580_fw.mp4	0.0	307.46105194091797	0.10003805160522461
60	257.1798231601715	fix_pre	0		120	58.0	2.5	/experiments/knapen_AOT/AOT_stimuli/rescaled_final/1633_fw.mp4	0.0	307.5610899925232	1.0001609325408936
60	257.3635091781616	pulse	0	t		58.0	2.5	/experiments/knapen_AOT/AOT_stimuli/rescaled_final/1633_fw.mp4	0.0	307.7447760105133	
60	258.1799840927124	movie	1		245	58.0	2.5	/experiments/knapen_AOT/AOT_stimuli/rescaled_final/1633_fw.mp4	0.0	308.5612509250641	2.5003468990325928
60	258.9637460708618	pulse	1	t		58.0	2.5	/experiments/knapen_AOT/AOT_stimuli/rescaled_final/1633_fw.mp4	0.0	309.3450129032135	
60	260.5613260269165	pulse	1	t		58.0	2.5	/experiments/knapen_AOT/AOT_stimuli/rescaled_final/1633_fw.mp4	0.0	310.9425928592682	
60	260.680330991745	fix_post	2		12	58.0	2.5	/experiments/knapen_AOT/AOT_stimuli/rescaled_final/1633_fw.mp4	0.0	311.0615978240967	0.10001611709594727
61	260.78034710884094	fix_pre	0		120	59.0	2.5	/experiments/knapen_AOT/AOT_stimuli/rescaled_final/1650_fw.mp4	0.0	311.1616139411926	1.0001530647277832
61	261.7805001735687	movie	1		243	59.0	2.5	/experiments/knapen_AOT/AOT_stimuli/rescaled_final/1650_fw.mp4	0.0	312.1617670059204	2.492100954055786
61	262.1654510498047	pulse	1	t		59.0	2.5	/experiments/knapen_AOT/AOT_stimuli/rescaled_final/1650_fw.mp4	0.0	312.5467178821564	
61	263.75692105293274	pulse	1	t		59.0	2.5	/experiments/knapen_AOT/AOT_stimuli/rescaled_final/1650_fw.mp4	0.0	314.1381878852844	
61	264.2726011276245	fix_post	2		12	59.0	2.5	/experiments/knapen_AOT/AOT_stimuli/rescaled_final/1650_fw.mp4	0.0	314.6538679599762	0.10000205039978027
62	264.3726031780243	fix_pre	0		120	60.0	2.5	/experiments/knapen_AOT/AOT_stimuli/rescaled_final/1809_fw.mp4	0.0	314.753870010376	1.000126838684082
62	265.3570439815521	pulse	0	t		60.0	2.5	/experiments/knapen_AOT/AOT_stimuli/rescaled_final/1809_fw.mp4	0.0	315.7383108139038	
62	265.3727300167084	movie	1		245	60.0	2.5	/experiments/knapen_AOT/AOT_stimuli/rescaled_final/1809_fw.mp4	0.0	315.75399684906006	2.5087780952453613
62	266.9654471874237	pulse	1	t		60.0	2.5	/experiments/knapen_AOT/AOT_stimuli/rescaled_final/1809_fw.mp4	0.0	317.3467140197754	
62	267.88150811195374	fix_post	2		12	60.0	2.5	/experiments/knapen_AOT/AOT_stimuli/rescaled_final/1809_fw.mp4	0.0	318.2627749443054	0.09998202323913574
63	267.98149013519287	fix_pre	0		120	61.0	2.5	/experiments/knapen_AOT/AOT_stimuli/rescaled_final/1410_fw.mp4	0.0	318.36275696754456	1.0000948905944824
63	268.557471036911	pulse	0	t		61.0	2.5	/experiments/knapen_AOT/AOT_stimuli/rescaled_final/1410_fw.mp4	0.0	318.9387378692627	
63	268.98158502578735	movie	1		244	61.0	2.5	/experiments/knapen_AOT/AOT_stimuli/rescaled_final/1410_fw.mp4	0.0	319.36285185813904	2.500378131866455
63	270.1574320793152	pulse	1	t		61.0	2.5	/experiments/knapen_AOT/AOT_stimuli/rescaled_final/1410_fw.mp4	0.0	320.53869891166687	
63	271.4819631576538	fix_post	2		12	61.0	2.5	/experiments/knapen_AOT/AOT_stimuli/rescaled_final/1410_fw.mp4	0.0	321.8632299900055	0.10000205039978027
64	271.5819652080536	fix_pre	0		120	62.0	2.5	blank	1.0	321.9632320404053	1.0001637935638428
64	271.7571601867676	pulse	0	t		62.0	2.5	blank	1.0	322.13842701911926	
64	272.58212900161743	movie	1		300	62.0	2.5	blank	1.0	322.9633958339691	2.5004310607910156
64	273.3575429916382	pulse	1	t		62.0	2.5	blank	1.0	323.73880982398987	
64	274.95768904685974	pulse	1	t		62.0	2.5	blank	1.0	325.3389558792114	
64	275.08256006240845	fix_post	2		12	62.0	2.5	blank	1.0	325.46382689476013	0.099945068359375
65	275.1825051307678	fix_pre	0		116	63.0	2.5	/experiments/knapen_AOT/AOT_stimuli/rescaled_final/0824_fw.mp4	0.0	325.5637719631195	0.9918129444122314
65	276.17431807518005	movie	1		245	63.0	2.5	/experiments/knapen_AOT/AOT_stimuli/rescaled_final/0824_fw.mp4	0.0	326.55558490753174	2.5004210472106934
65	276.5583961009979	pulse	1	t		63.0	2.5	/experiments/knapen_AOT/AOT_stimuli/rescaled_final/0824_fw.mp4	0.0	326.9396629333496	
65	278.1582100391388	pulse	1	t		63.0	2.5	/experiments/knapen_AOT/AOT_stimuli/rescaled_final/0824_fw.mp4	0.0	328.5394768714905	
65	278.67473912239075	fix_post	2		12	63.0	2.5	/experiments/knapen_AOT/AOT_stimuli/rescaled_final/0824_fw.mp4	0.0	329.05600595474243	0.09999203681945801
66	278.7747311592102	fix_pre	0		119	64.0	2.5	/experiments/knapen_AOT/AOT_stimuli/rescaled_final/1598_fw.mp4	0.0	329.1559979915619	0.9918069839477539
66	279.75835704803467	pulse	0	t		64.0	2.5	/experiments/knapen_AOT/AOT_stimuli/rescaled_final/1598_fw.mp4	0.0	330.13962388038635	
66	279.76653814315796	movie	1		244	64.0	2.5	/experiments/knapen_AOT/AOT_stimuli/rescaled_final/1598_fw.mp4	0.0	330.14780497550964	2.5086939334869385
66	281.358834028244	pulse	1	t		64.0	2.5	/experiments/knapen_AOT/AOT_stimuli/rescaled_final/1598_fw.mp4	0.0	331.7401008605957	
66	282.2752320766449	fix_post	2		12	64.0	2.5	/experiments/knapen_AOT/AOT_stimuli/rescaled_final/1598_fw.mp4	0.0	332.6564989089966	0.10003209114074707
67	282.37526416778564	fix_pre	0		120	65.0	2.5	/experiments/knapen_AOT/AOT_stimuli/rescaled_final/1836_rv.mp4	0.0	332.75653100013733	1.000126838684082
67	282.95892906188965	pulse	0	t		65.0	2.5	/experiments/knapen_AOT/AOT_stimuli/rescaled_final/1836_rv.mp4	0.0	333.34019589424133	
67	283.3753910064697	movie	1		243	65.0	2.5	/experiments/knapen_AOT/AOT_stimuli/rescaled_final/1836_rv.mp4	0.0	333.7566578388214	2.5004000663757324
67	284.5591731071472	pulse	1	t		65.0	2.5	/experiments/knapen_AOT/AOT_stimuli/rescaled_final/1836_rv.mp4	0.0	334.9404399394989	
67	285.87579107284546	fix_post	2		12	65.0	2.5	/experiments/knapen_AOT/AOT_stimuli/rescaled_final/1836_rv.mp4	0.0	336.25705790519714	0.0999910831451416
68	285.9757821559906	fix_pre	0		120	66.0	2.5	/experiments/knapen_AOT/AOT_stimuli/rescaled_final/1744_rv.mp4	0.0	336.3570489883423	1.0001640319824219
68	286.15940403938293	pulse	0	t		66.0	2.5	/experiments/knapen_AOT/AOT_stimuli/rescaled_final/1744_rv.mp4	0.0	336.5406708717346	
68	286.975946187973	movie	1		244	66.0	2.5	/experiments/knapen_AOT/AOT_stimuli/rescaled_final/1744_rv.mp4	0.0	337.3572130203247	2.5003700256347656
68	287.75964307785034	pulse	1	t		66.0	2.5	/experiments/knapen_AOT/AOT_stimuli/rescaled_final/1744_rv.mp4	0.0	338.140909910202	
68	289.3598380088806	pulse	1	t		66.0	2.5	/experiments/knapen_AOT/AOT_stimuli/rescaled_final/1744_rv.mp4	0.0	339.7411048412323	
68	289.4763162136078	fix_post	2		12	66.0	2.5	/experiments/knapen_AOT/AOT_stimuli/rescaled_final/1744_rv.mp4	0.0	339.8575830459595	0.10009288787841797
69	289.5764091014862	fix_pre	0		120	67.0	2.5	/experiments/knapen_AOT/AOT_stimuli/rescaled_final/1979_rv.mp4	0.0	339.9576759338379	1.000082015991211
69	290.5764911174774	movie	1		243	67.0	2.5	/experiments/knapen_AOT/AOT_stimuli/rescaled_final/1979_rv.mp4	0.0	340.9577579498291	2.4920709133148193
69	290.96150302886963	pulse	1	t		67.0	2.5	/experiments/knapen_AOT/AOT_stimuli/rescaled_final/1979_rv.mp4	0.0	341.3427698612213	
69	292.56028604507446	pulse	1	t		67.0	2.5	/experiments/knapen_AOT/AOT_stimuli/rescaled_final/1979_rv.mp4	0.0	342.94155287742615	
69	293.06856203079224	fix_post	2		12	67.0	2.5	/experiments/knapen_AOT/AOT_stimuli/rescaled_final/1979_rv.mp4	0.0	343.4498288631439	0.09998607635498047
70	293.1685481071472	fix_pre	0		120	68.0	2.5	blank	1.0	343.5498149394989	1.0001249313354492
70	294.16058897972107	pulse	0	t		68.0	2.5	blank	1.0	344.54185581207275	
70	294.16867303848267	movie	1		301	68.0	2.5	blank	1.0	344.54993987083435	2.5087339878082275
70	295.7608380317688	pulse	1	t		68.0	2.5	blank	1.0	346.1421048641205	
70	296.6774070262909	fix_post	2		12	68.0	2.5	blank	1.0	347.0586738586426	0.09998512268066406
71	296.77739214897156	fix_pre	0		120	69.0	2.5	/experiments/knapen_AOT/AOT_stimuli/rescaled_final/0101_fw.mp4	0.0	347.15865898132324	1.000175952911377
71	297.36107206344604	pulse	0	t		69.0	2.5	/experiments/knapen_AOT/AOT_stimuli/rescaled_final/0101_fw.mp4	0.0	347.74233889579773	
71	297.77756810188293	movie	1		244	69.0	2.5	/experiments/knapen_AOT/AOT_stimuli/rescaled_final/0101_fw.mp4	0.0	348.1588349342346	2.5003530979156494
71	298.9613540172577	pulse	1	t		69.0	2.5	/experiments/knapen_AOT/AOT_stimuli/rescaled_final/0101_fw.mp4	0.0	349.3426208496094	
71	300.2779211997986	fix_post	2		12	69.0	2.5	/experiments/knapen_AOT/AOT_stimuli/rescaled_final/0101_fw.mp4	0.0	350.65918803215027	0.10004591941833496
72	300.3779671192169	fix_pre	0		120	70.0	2.5	/experiments/knapen_AOT/AOT_stimuli/rescaled_final/1883_rv.mp4	0.0	350.7592339515686	1.0001308917999268
72	300.5615050792694	pulse	0	t		70.0	2.5	/experiments/knapen_AOT/AOT_stimuli/rescaled_final/1883_rv.mp4	0.0	350.9427719116211	
72	301.37809801101685	movie	1		245	70.0	2.5	/experiments/knapen_AOT/AOT_stimuli/rescaled_final/1883_rv.mp4	0.0	351.75936484336853	2.5003721714019775
72	302.16183710098267	pulse	1	t		70.0	2.5	/experiments/knapen_AOT/AOT_stimuli/rescaled_final/1883_rv.mp4	0.0	352.54310393333435	
72	303.7595970630646	pulse	1	t		70.0	2.5	/experiments/knapen_AOT/AOT_stimuli/rescaled_final/1883_rv.mp4	0.0	354.14086389541626	
72	303.8784701824188	fix_post	2		12	70.0	2.5	/experiments/knapen_AOT/AOT_stimuli/rescaled_final/1883_rv.mp4	0.0	354.2597370147705	0.09999799728393555
73	303.97846817970276	fix_pre	0		120	71.0	2.5	/experiments/knapen_AOT/AOT_stimuli/rescaled_final/0786_fw.mp4	0.0	354.35973501205444	1.0001499652862549
73	304.978618144989	movie	1		244	71.0	2.5	/experiments/knapen_AOT/AOT_stimuli/rescaled_final/0786_fw.mp4	0.0	355.3598849773407	2.4920430183410645
73	305.363489151001	pulse	1	t		71.0	2.5	/experiments/knapen_AOT/AOT_stimuli/rescaled_final/0786_fw.mp4	0.0	355.74475598335266	
73	306.9624881744385	pulse	1	t		71.0	2.5	/experiments/knapen_AOT/AOT_stimuli/rescaled_final/0786_fw.mp4	0.0	357.34375500679016	
73	307.4706611633301	fix_post	2		12	71.0	2.5	/experiments/knapen_AOT/AOT_stimuli/rescaled_final/0786_fw.mp4	0.0	357.85192799568176	0.1000359058380127
74	307.5706970691681	fix_pre	0		120	72.0	2.5	/experiments/knapen_AOT/AOT_stimuli/rescaled_final/1488_fw.mp4	0.0	357.9519639015198	1.0001211166381836
74	308.5627601146698	pulse	0	t		72.0	2.5	/experiments/knapen_AOT/AOT_stimuli/rescaled_final/1488_fw.mp4	0.0	358.9440269470215	
74	308.5708181858063	movie	1		245	72.0	2.5	/experiments/knapen_AOT/AOT_stimuli/rescaled_final/1488_fw.mp4	0.0	358.95208501815796	2.5087268352508545
74	310.16367411613464	pulse	1	t		72.0	2.5	/experiments/knapen_AOT/AOT_stimuli/rescaled_final/1488_fw.mp4	0.0	360.5449409484863	
74	311.07954502105713	fix_post	2		12	72.0	2.5	/experiments/knapen_AOT/AOT_stimuli/rescaled_final/1488_fw.mp4	0.0	361.4608118534088	0.10002303123474121
75	311.17956805229187	fix_pre	0		120	73.0	2.5	/experiments/knapen_AOT/AOT_stimuli/rescaled_final/2027_rv.mp4	0.0	361.56083488464355	1.0001320838928223
75	311.76324009895325	pulse	0	t		73.0	2.5	/experiments/knapen_AOT/AOT_stimuli/rescaled_final/2027_rv.mp4	0.0	362.14450693130493	
75	312.1797001361847	movie	1		244	73.0	2.5	/experiments/knapen_AOT/AOT_stimuli/rescaled_final/2027_rv.mp4	0.0	362.5609669685364	2.5004100799560547
75	313.3594551086426	pulse	1	t		73.0	2.5	/experiments/knapen_AOT/AOT_stimuli/rescaled_final/2027_rv.mp4	0.0	363.74072194099426	
75	314.68011021614075	fix_post	2		12	73.0	2.5	/experiments/knapen_AOT/AOT_stimuli/rescaled_final/2027_rv.mp4	0.0	365.06137704849243	0.09999489784240723
76	314.78010511398315	fix_pre	0		120	74.0	2.5	/experiments/knapen_AOT/AOT_stimuli/rescaled_final/1883_fw.mp4	0.0	365.16137194633484	1.000140905380249
76	314.96364998817444	pulse	0	t		74.0	2.5	/experiments/knapen_AOT/AOT_stimuli/rescaled_final/1883_fw.mp4	0.0	365.3449168205261	
76	315.7802460193634	movie	1		245	74.0	2.5	/experiments/knapen_AOT/AOT_stimuli/rescaled_final/1883_fw.mp4	0.0	366.1615128517151	2.5003559589385986
76	316.55647921562195	pulse	1	t		74.0	2.5	/experiments/knapen_AOT/AOT_stimuli/rescaled_final/1883_fw.mp4	0.0	366.93774604797363	
76	318.16175508499146	pulse	1	t		74.0	2.5	/experiments/knapen_AOT/AOT_stimuli/rescaled_final/1883_fw.mp4	0.0	368.54302191734314	
76	318.280601978302	fix_post	2		12	74.0	2.5	/experiments/knapen_AOT/AOT_stimuli/rescaled_final/1883_fw.mp4	0.0	368.6618688106537	0.10001611709594727
77	318.38061809539795	fix_pre	0		120	75.0	2.5	/experiments/knapen_AOT/AOT_stimuli/rescaled_final/1245_rv.mp4	0.0	368.76188492774963	1.0001509189605713
77	319.3807690143585	movie	1		242	75.0	2.5	/experiments/knapen_AOT/AOT_stimuli/rescaled_final/1245_rv.mp4	0.0	369.7620358467102	2.4920389652252197
77	319.76570415496826	pulse	1	t		75.0	2.5	/experiments/knapen_AOT/AOT_stimuli/rescaled_final/1245_rv.mp4	0.0	370.14697098731995	
77	321.35724115371704	pulse	1	t		75.0	2.5	/experiments/knapen_AOT/AOT_stimuli/rescaled_final/1245_rv.mp4	0.0	371.7385079860687	
77	321.87280797958374	fix_post	2		12	75.0	2.5	/experiments/knapen_AOT/AOT_stimuli/rescaled_final/1245_rv.mp4	0.0	372.2540748119354	0.10000920295715332
78	321.9728171825409	fix_pre	0		119	76.0	2.5	blank	1.0	372.3540840148926	0.991811990737915
78	322.95662021636963	pulse	0	t		76.0	2.5	blank	1.0	373.3378870487213	
78	322.9646291732788	movie	1		301	76.0	2.5	blank	1.0	373.3458960056305	2.508720874786377
78	324.5566840171814	pulse	1	t		76.0	2.5	blank	1.0	374.9379508495331	
78	325.4733500480652	fix_post	2		12	76.0	2.5	blank	1.0	375.85461688041687	0.1000220775604248
79	325.5733721256256	fix_pre	0		120	77.0	2.5	/experiments/knapen_AOT/AOT_stimuli/rescaled_final/2179_rv.mp4	0.0	375.9546389579773	1.0001380443572998
79	326.15695118904114	pulse	0	t		77.0	2.5	/experiments/knapen_AOT/AOT_stimuli/rescaled_final/2179_rv.mp4	0.0	376.5382180213928	
79	326.5735101699829	movie	1		244	77.0	2.5	/experiments/knapen_AOT/AOT_stimuli/rescaled_final/2179_rv.mp4	0.0	376.9547770023346	2.5003738403320312
79	327.75734519958496	pulse	1	t		77.0	2.5	/experiments/knapen_AOT/AOT_stimuli/rescaled_final/2179_rv.mp4	0.0	378.13861203193665	
79	329.07388401031494	fix_post	2		12	77.0	2.5	/experiments/knapen_AOT/AOT_stimuli/rescaled_final/2179_rv.mp4	0.0	379.4551508426666	0.10001516342163086
80	329.1738991737366	fix_pre	0		120	78.0	2.5	/experiments/knapen_AOT/AOT_stimuli/rescaled_final/1635_fw.mp4	0.0	379.55516600608826	1.0001468658447266
80	329.35757517814636	pulse	0	t		78.0	2.5	/experiments/knapen_AOT/AOT_stimuli/rescaled_final/1635_fw.mp4	0.0	379.73884201049805	
80	330.1740460395813	movie	1		244	78.0	2.5	/experiments/knapen_AOT/AOT_stimuli/rescaled_final/1635_fw.mp4	0.0	380.555312871933	2.5005171298980713
80	330.9577422142029	pulse	1	t		78.0	2.5	/experiments/knapen_AOT/AOT_stimuli/rescaled_final/1635_fw.mp4	0.0	381.33900904655457	
80	332.55793714523315	pulse	1	t		78.0	2.5	/experiments/knapen_AOT/AOT_stimuli/rescaled_final/1635_fw.mp4	0.0	382.93920397758484	
80	332.67456316947937	fix_post	2		12	78.0	2.5	/experiments/knapen_AOT/AOT_stimuli/rescaled_final/1635_fw.mp4	0.0	383.05583000183105	0.09986495971679688
81	332.77442812919617	fix_pre	0		120	79.0	2.5	/experiments/knapen_AOT/AOT_stimuli/rescaled_final/1750_fw.mp4	0.0	383.15569496154785	1.000166893005371
81	333.77459502220154	movie	1		244	79.0	2.5	/experiments/knapen_AOT/AOT_stimuli/rescaled_final/1750_fw.mp4	0.0	384.1558618545532	2.492065191268921
81	334.159460067749	pulse	1	t		79.0	2.5	/experiments/knapen_AOT/AOT_stimuli/rescaled_final/1750_fw.mp4	0.0	384.5407269001007	
81	335.75853514671326	pulse	1	t		79.0	2.5	/experiments/knapen_AOT/AOT_stimuli/rescaled_final/1750_fw.mp4	0.0	386.13980197906494	
81	336.26666021347046	fix_post	2		12	79.0	2.5	/experiments/knapen_AOT/AOT_stimuli/rescaled_final/1750_fw.mp4	0.0	386.64792704582214	0.09999990463256836
82	336.366660118103	fix_pre	0		117	80.0	2.5	/experiments/knapen_AOT/AOT_stimuli/rescaled_final/1685_fw.mp4	0.0	386.7479269504547	1.0001320838928223
82	337.35867619514465	pulse	0	t		80.0	2.5	/experiments/knapen_AOT/AOT_stimuli/rescaled_final/1685_fw.mp4	0.0	387.73994302749634	
82	337.36679220199585	movie	1		244	80.0	2.5	/experiments/knapen_AOT/AOT_stimuli/rescaled_final/1685_fw.mp4	0.0	387.74805903434753	2.5087080001831055
82	338.9637951850891	pulse	1	t		80.0	2.5	/experiments/knapen_AOT/AOT_stimuli/rescaled_final/1685_fw.mp4	0.0	389.3450620174408	
82	339.87550020217896	fix_post	2		12	80.0	2.5	/experiments/knapen_AOT/AOT_stimuli/rescaled_final/1685_fw.mp4	0.0	390.25676703453064	0.10006594657897949
83	339.97556614875793	fix_pre	0		120	81.0	2.5	/experiments/knapen_AOT/AOT_stimuli/rescaled_final/1055_fw.mp4	0.0	390.3568329811096	1.00010085105896
83	340.5592050552368	pulse	0	t		81.0	2.5	/experiments/knapen_AOT/AOT_stimuli/rescaled_final/1055_fw.mp4	0.0	390.9404718875885	
83	340.9756669998169	movie	1		244	81.0	2.5	/experiments/knapen_AOT/AOT_stimuli/rescaled_final/1055_fw.mp4	0.0	391.3569338321686	2.5004169940948486
83	342.15951919555664	pulse	1	t		81.0	2.5	/experiments/knapen_AOT/AOT_stimuli/rescaled_final/1055_fw.mp4	0.0	392.5407860279083	
83	343.47608399391174	fix_post	2		12	81.0	2.5	/experiments/knapen_AOT/AOT_stimuli/rescaled_final/1055_fw.mp4	0.0	393.8573508262634	0.09996414184570312
84	343.57604813575745	fix_pre	0		120	82.0	2.5	blank	1.0	393.95731496810913	1.0001819133758545
84	343.7597510814667	pulse	0	t		82.0	2.5	blank	1.0	394.14101791381836	
84	344.5762300491333	movie	1		300	82.0	2.5	blank	1.0	394.957496881485	2.5003621578216553
84	345.3598461151123	pulse	1	t		82.0	2.5	blank	1.0	395.741112947464	
84	346.9600930213928	pulse	1	t		82.0	2.5	blank	1.0	397.3413598537445	
84	347.07659220695496	fix_post	2		12	82.0	2.5	blank	1.0	397.45785903930664	0.10003495216369629
85	347.17662715911865	fix_pre	0		119	83.0	2.5	/experiments/knapen_AOT/AOT_stimuli/rescaled_final/1372_rv.mp4	0.0	397.55789399147034	0.9917800426483154
85	348.16840720176697	movie	1		244	83.0	2.5	/experiments/knapen_AOT/AOT_stimuli/rescaled_final/1372_rv.mp4	0.0	398.54967403411865	2.5003678798675537
85	348.5605001449585	pulse	1	t		83.0	2.5	/experiments/knapen_AOT/AOT_stimuli/rescaled_final/1372_rv.mp4	0.0	398.9417669773102	
85	350.1606991291046	pulse	1	t		83.0	2.5	/experiments/knapen_AOT/AOT_stimuli/rescaled_final/1372_rv.mp4	0.0	400.5419659614563	
85	350.6687750816345	fix_post	2		12	83.0	2.5	/experiments/knapen_AOT/AOT_stimuli/rescaled_final/1372_rv.mp4	0.0	401.0500419139862	0.10001611709594727
87	350.76879119873047	stim	0		1716					401.15005803108215	14.302305936813354
87	351.76084899902344	pulse	0	t						402.1421158313751	
87	353.3609809875488	pulse	0	t						403.7422478199005	
87	354.9613690376282	pulse	0	t						405.34263586997986	
87	356.5616090297699	pulse	0	t						406.9428758621216	
87	358.1617941856384	pulse	0	t						408.5430610179901	
87	359.7619261741638	pulse	0	t						410.1431930065155	
87	361.36232113838196	pulse	0	t						411.74358797073364	
87	362.96254301071167	pulse	0	t						413.34380984306335	
87	364.56274604797363	pulse	0	t						414.9440128803253	
