trial_nr	onset	event_type	phase	response	nr_frames	movie_index	movie_duration	movie_file	blank	onset_abs	duration
0	0.14991116523742676	stim	0		148					22.534085988998413	1.2332890033721924
0	1.3752260208129883	response	0	space						23.759400844573975	
1	1.3832001686096191	stim	0		12682					23.767374992370605	105.6828408241272
1	107.06096911430359	pulse	0	t						129.44514393806458	
1	107.06604099273682	stim	1		1717					129.4502158164978	14.308223962783813
1	108.65050911903381	pulse	1	t						131.0346839427948	
1	110.25046014785767	pulse	1	t						132.63463497161865	
1	111.85025215148926	pulse	1	t						134.23442697525024	
1	113.45052409172058	pulse	1	t						135.83469891548157	
1	115.0578830242157	pulse	1	t						137.44205784797668	
1	116.65783596038818	pulse	1	t						139.04201078414917	
1	118.25779414176941	pulse	1	t						140.6419689655304	
1	119.85781407356262	pulse	1	t						142.2419888973236	
2	121.37426495552063	fix_pre	0		11	0.0	2.5	/experiments/AOT/AOT_stimuli/rescaled_final/0791_rv.mp4	0.0	143.75843977928162	0.09180617332458496
2	121.45785808563232	pulse	0	t		0.0	2.5	/experiments/AOT/AOT_stimuli/rescaled_final/0791_rv.mp4	0.0	143.8420329093933	
2	121.46607112884521	movie	1		242	0.0	2.5	/experiments/AOT/AOT_stimuli/rescaled_final/0791_rv.mp4	0.0	143.8502459526062	2.5081980228424072
2	123.05748796463013	pulse	1	t		0.0	2.5	/experiments/AOT/AOT_stimuli/rescaled_final/0791_rv.mp4	0.0	145.4416627883911	
2	123.97426915168762	fix_post	2		12	0.0	2.5	/experiments/AOT/AOT_stimuli/rescaled_final/0791_rv.mp4	0.0	146.3584439754486	0.10008001327514648
3	124.07434916496277	fix_pre	0		120	1.0	2.5	/experiments/AOT/AOT_stimuli/rescaled_final/1673_rv.mp4	0.0	146.45852398872375	0.9999070167541504
3	124.65027904510498	pulse	0	t		1.0	2.5	/experiments/AOT/AOT_stimuli/rescaled_final/1673_rv.mp4	0.0	147.03445386886597	
3	125.07425618171692	movie	1		245	1.0	2.5	/experiments/AOT/AOT_stimuli/rescaled_final/1673_rv.mp4	0.0	147.4584310054779	2.499994993209839
3	126.25057411193848	pulse	1	t		1.0	2.5	/experiments/AOT/AOT_stimuli/rescaled_final/1673_rv.mp4	0.0	148.63474893569946	
3	127.57425117492676	fix_post	2		12	1.0	2.5	/experiments/AOT/AOT_stimuli/rescaled_final/1673_rv.mp4	0.0	149.95842599868774	0.10002493858337402
4	127.67427611351013	fix_pre	0		120	2.0	2.5	/experiments/AOT/AOT_stimuli/rescaled_final/0149_fw.mp4	0.0	150.05845093727112	0.9999489784240723
4	127.85025906562805	pulse	0	t		2.0	2.5	/experiments/AOT/AOT_stimuli/rescaled_final/0149_fw.mp4	0.0	150.23443388938904	
4	128.6742250919342	movie	1		244	2.0	2.5	/experiments/AOT/AOT_stimuli/rescaled_final/0149_fw.mp4	0.0	151.0583999156952	2.5001718997955322
4	129.45033407211304	pulse	1	t		2.0	2.5	/experiments/AOT/AOT_stimuli/rescaled_final/0149_fw.mp4	0.0	151.83450889587402	
4	131.05668807029724	pulse	1	t		2.0	2.5	/experiments/AOT/AOT_stimuli/rescaled_final/0149_fw.mp4	0.0	153.44086289405823	
4	131.17439699172974	fix_post	2		12	2.0	2.5	/experiments/AOT/AOT_stimuli/rescaled_final/0149_fw.mp4	0.0	153.55857181549072	0.09995698928833008
5	131.27435398101807	fix_pre	0		120	3.0	2.5	/experiments/AOT/AOT_stimuli/rescaled_final/0606_rv.mp4	0.0	153.65852880477905	0.9999589920043945
5	132.27431297302246	movie	1		244	3.0	2.5	/experiments/AOT/AOT_stimuli/rescaled_final/0606_rv.mp4	0.0	154.65848779678345	2.5001420974731445
5	132.65691614151	pulse	1	t		3.0	2.5	/experiments/AOT/AOT_stimuli/rescaled_final/0606_rv.mp4	0.0	155.041090965271	
5	134.25773811340332	pulse	1	t		3.0	2.5	/experiments/AOT/AOT_stimuli/rescaled_final/0606_rv.mp4	0.0	156.6419129371643	
5	134.7744550704956	fix_post	2		12	3.0	2.5	/experiments/AOT/AOT_stimuli/rescaled_final/0606_rv.mp4	0.0	157.1586298942566	0.0996251106262207
6	134.87408018112183	fix_pre	0		119	4.0	2.5	/experiments/AOT/AOT_stimuli/rescaled_final/1322_rv.mp4	0.0	157.2582550048828	0.9922318458557129
6	135.85050511360168	pulse	0	t		4.0	2.5	/experiments/AOT/AOT_stimuli/rescaled_final/1322_rv.mp4	0.0	158.23467993736267	
6	135.86631202697754	movie	1		245	4.0	2.5	/experiments/AOT/AOT_stimuli/rescaled_final/1322_rv.mp4	0.0	158.25048685073853	2.507970094680786
6	137.45735216140747	pulse	1	t		4.0	2.5	/experiments/AOT/AOT_stimuli/rescaled_final/1322_rv.mp4	0.0	159.84152698516846	
6	138.37428212165833	fix_post	2		12	4.0	2.5	/experiments/AOT/AOT_stimuli/rescaled_final/1322_rv.mp4	0.0	160.7584569454193	0.10001206398010254
7	138.47429418563843	fix_pre	0		120	5.0	2.5	/experiments/AOT/AOT_stimuli/rescaled_final/1129_rv.mp4	0.0	160.8584690093994	1.0000298023223877
7	139.05771017074585	pulse	0	t		5.0	2.5	/experiments/AOT/AOT_stimuli/rescaled_final/1129_rv.mp4	0.0	161.44188499450684	
7	139.47432398796082	movie	1		245	5.0	2.5	/experiments/AOT/AOT_stimuli/rescaled_final/1129_rv.mp4	0.0	161.8584988117218	2.4999279975891113
7	140.6577479839325	pulse	1	t		5.0	2.5	/experiments/AOT/AOT_stimuli/rescaled_final/1129_rv.mp4	0.0	163.04192280769348	
7	141.97425198554993	fix_post	2		12	5.0	2.5	/experiments/AOT/AOT_stimuli/rescaled_final/1129_rv.mp4	0.0	164.3584268093109	0.10003519058227539
8	142.0742871761322	fix_pre	0		120	6.0	2.5	blank	1.0	164.4584619998932	0.9999449253082275
8	142.2501881122589	pulse	0	t		6.0	2.5	blank	1.0	164.6343629360199	
8	143.07423210144043	movie	1		300	6.0	2.5	blank	1.0	165.45840692520142	2.500014066696167
8	143.8501501083374	pulse	1	t		6.0	2.5	blank	1.0	166.2343249320984	
8	145.45009112358093	pulse	1	t		6.0	2.5	blank	1.0	167.83426594734192	
8	145.5742461681366	fix_post	2		12	6.0	2.5	blank	1.0	167.95842099189758	0.09996390342712402
9	145.67421007156372	fix_pre	0		120	7.0	2.5	/experiments/AOT/AOT_stimuli/rescaled_final/1566_fw.mp4	0.0	168.0583848953247	1.0
9	146.67421007156372	movie	1		245	7.0	2.5	/experiments/AOT/AOT_stimuli/rescaled_final/1566_fw.mp4	0.0	169.0583848953247	2.5000159740448
9	147.05803608894348	pulse	1	t		7.0	2.5	/experiments/AOT/AOT_stimuli/rescaled_final/1566_fw.mp4	0.0	169.44221091270447	
9	148.65761709213257	pulse	1	t		7.0	2.5	/experiments/AOT/AOT_stimuli/rescaled_final/1566_fw.mp4	0.0	171.04179191589355	
9	149.17422604560852	fix_post	2		12	7.0	2.5	/experiments/AOT/AOT_stimuli/rescaled_final/1566_fw.mp4	0.0	171.5584008693695	0.09998011589050293
10	149.27420616149902	fix_pre	0		119	8.0	2.5	/experiments/AOT/AOT_stimuli/rescaled_final/1166_fw.mp4	0.0	171.65838098526	0.9916319847106934
10	150.25767612457275	pulse	0	t		8.0	2.5	/experiments/AOT/AOT_stimuli/rescaled_final/1166_fw.mp4	0.0	172.64185094833374	
10	150.26583814620972	movie	1		245	8.0	2.5	/experiments/AOT/AOT_stimuli/rescaled_final/1166_fw.mp4	0.0	172.6500129699707	2.5084218978881836
10	151.85741209983826	pulse	1	t		8.0	2.5	/experiments/AOT/AOT_stimuli/rescaled_final/1166_fw.mp4	0.0	174.24158692359924	
10	152.7742600440979	fix_post	2		12	8.0	2.5	/experiments/AOT/AOT_stimuli/rescaled_final/1166_fw.mp4	0.0	175.1584348678589	0.09993910789489746
11	152.8741991519928	fix_pre	0		120	9.0	2.5	/experiments/AOT/AOT_stimuli/rescaled_final/0407_rv.mp4	0.0	175.25837397575378	1.0000100135803223
11	153.45766401290894	pulse	0	t		9.0	2.5	/experiments/AOT/AOT_stimuli/rescaled_final/0407_rv.mp4	0.0	175.84183883666992	
11	153.87420916557312	movie	1		244	9.0	2.5	/experiments/AOT/AOT_stimuli/rescaled_final/0407_rv.mp4	0.0	176.2583839893341	2.4999678134918213
11	155.0577540397644	pulse	1	t		9.0	2.5	/experiments/AOT/AOT_stimuli/rescaled_final/0407_rv.mp4	0.0	177.4419288635254	
11	156.37417697906494	fix_post	2		12	9.0	2.5	/experiments/AOT/AOT_stimuli/rescaled_final/0407_rv.mp4	0.0	178.75835180282593	0.1000051498413086
12	156.47418212890625	fix_pre	0		120	10.0	2.5	/experiments/AOT/AOT_stimuli/rescaled_final/0555_rv.mp4	0.0	178.85835695266724	1.0000028610229492
12	156.65018606185913	pulse	0	t		10.0	2.5	/experiments/AOT/AOT_stimuli/rescaled_final/0555_rv.mp4	0.0	179.03436088562012	
12	157.4741849899292	movie	1		244	10.0	2.5	/experiments/AOT/AOT_stimuli/rescaled_final/0555_rv.mp4	0.0	179.85835981369019	2.4999780654907227
12	158.25025916099548	pulse	1	t		10.0	2.5	/experiments/AOT/AOT_stimuli/rescaled_final/0555_rv.mp4	0.0	180.63443398475647	
12	159.85632705688477	pulse	1	t		10.0	2.5	/experiments/AOT/AOT_stimuli/rescaled_final/0555_rv.mp4	0.0	182.24050188064575	
12	159.97416305541992	fix_post	2		12	10.0	2.5	/experiments/AOT/AOT_stimuli/rescaled_final/0555_rv.mp4	0.0	182.3583378791809	0.10003209114074707
13	160.07419514656067	fix_pre	0		120	11.0	2.5	/experiments/AOT/AOT_stimuli/rescaled_final/0337_fw.mp4	0.0	182.45836997032166	0.9999840259552002
13	161.07417917251587	movie	1		244	11.0	2.5	/experiments/AOT/AOT_stimuli/rescaled_final/0337_fw.mp4	0.0	183.45835399627686	2.500079870223999
13	161.45728397369385	pulse	1	t		11.0	2.5	/experiments/AOT/AOT_stimuli/rescaled_final/0337_fw.mp4	0.0	183.84145879745483	
13	163.05786514282227	pulse	1	t		11.0	2.5	/experiments/AOT/AOT_stimuli/rescaled_final/0337_fw.mp4	0.0	185.44203996658325	
13	163.57425904273987	fix_post	2		12	11.0	2.5	/experiments/AOT/AOT_stimuli/rescaled_final/0337_fw.mp4	0.0	185.95843386650085	0.09995007514953613
14	163.6742091178894	fix_pre	0		119	12.0	2.5	/experiments/AOT/AOT_stimuli/rescaled_final/1054_fw.mp4	0.0	186.0583839416504	0.9916589260101318
14	164.65764117240906	pulse	0	t		12.0	2.5	/experiments/AOT/AOT_stimuli/rescaled_final/1054_fw.mp4	0.0	187.04181599617004	
14	164.66586804389954	movie	1		245	12.0	2.5	/experiments/AOT/AOT_stimuli/rescaled_final/1054_fw.mp4	0.0	187.05004286766052	2.508336067199707
14	166.25735712051392	pulse	1	t		12.0	2.5	/experiments/AOT/AOT_stimuli/rescaled_final/1054_fw.mp4	0.0	188.6415319442749	
14	167.17420411109924	fix_post	2		12	12.0	2.5	/experiments/AOT/AOT_stimuli/rescaled_final/1054_fw.mp4	0.0	189.55837893486023	0.09996390342712402
15	167.27416801452637	fix_pre	0		120	13.0	2.5	/experiments/AOT/AOT_stimuli/rescaled_final/0376_rv.mp4	0.0	189.65834283828735	0.9999501705169678
15	167.8576250076294	pulse	0	t		13.0	2.5	/experiments/AOT/AOT_stimuli/rescaled_final/0376_rv.mp4	0.0	190.24179983139038	
15	168.27411818504333	movie	1		245	13.0	2.5	/experiments/AOT/AOT_stimuli/rescaled_final/0376_rv.mp4	0.0	190.65829300880432	2.5000429153442383
15	169.45776200294495	pulse	1	t		13.0	2.5	/experiments/AOT/AOT_stimuli/rescaled_final/0376_rv.mp4	0.0	191.84193682670593	
15	170.77416110038757	fix_post	2		12	13.0	2.5	/experiments/AOT/AOT_stimuli/rescaled_final/0376_rv.mp4	0.0	193.15833592414856	0.09995508193969727
16	170.87411618232727	fix_pre	0		120	14.0	2.5	blank	1.0	193.25829100608826	0.9999918937683105
16	171.05755615234375	pulse	0	t		14.0	2.5	blank	1.0	193.44173097610474	
16	171.87410807609558	movie	1		300	14.0	2.5	blank	1.0	194.25828289985657	2.5000159740448
16	172.65763115882874	pulse	1	t		14.0	2.5	blank	1.0	195.04180598258972	
16	174.25761914253235	pulse	1	t		14.0	2.5	blank	1.0	196.64179396629333	
16	174.37412405014038	fix_post	2		12	14.0	2.5	blank	1.0	196.75829887390137	0.10007095336914062
17	174.47419500350952	fix_pre	0		120	15.0	2.5	/experiments/AOT/AOT_stimuli/rescaled_final/0247_rv.mp4	0.0	196.8583698272705	0.9998691082000732
17	175.4740641117096	movie	1		242	15.0	2.5	/experiments/AOT/AOT_stimuli/rescaled_final/0247_rv.mp4	0.0	197.85823893547058	2.500006914138794
17	175.85727310180664	pulse	1	t		15.0	2.5	/experiments/AOT/AOT_stimuli/rescaled_final/0247_rv.mp4	0.0	198.24144792556763	
17	177.45019507408142	pulse	1	t		15.0	2.5	/experiments/AOT/AOT_stimuli/rescaled_final/0247_rv.mp4	0.0	199.8343698978424	
17	177.9740710258484	fix_post	2		12	15.0	2.5	/experiments/AOT/AOT_stimuli/rescaled_final/0247_rv.mp4	0.0	200.35824584960938	0.09996914863586426
18	178.07404017448425	fix_pre	0		119	16.0	2.5	/experiments/AOT/AOT_stimuli/rescaled_final/1496_rv.mp4	0.0	200.45821499824524	0.9917178153991699
18	179.0575511455536	pulse	0	t		16.0	2.5	/experiments/AOT/AOT_stimuli/rescaled_final/1496_rv.mp4	0.0	201.44172596931458	
18	179.06575798988342	movie	1		245	16.0	2.5	/experiments/AOT/AOT_stimuli/rescaled_final/1496_rv.mp4	0.0	201.4499328136444	2.508249044418335
18	180.6571981906891	pulse	1	t		16.0	2.5	/experiments/AOT/AOT_stimuli/rescaled_final/1496_rv.mp4	0.0	203.04137301445007	
18	181.57400703430176	fix_post	2		12	16.0	2.5	/experiments/AOT/AOT_stimuli/rescaled_final/1496_rv.mp4	0.0	203.95818185806274	0.10013294219970703
19	181.67413997650146	fix_pre	0		120	17.0	2.5	/experiments/AOT/AOT_stimuli/rescaled_final/1625_fw.mp4	0.0	204.05831480026245	0.9998691082000732
19	182.25757312774658	pulse	0	t		17.0	2.5	/experiments/AOT/AOT_stimuli/rescaled_final/1625_fw.mp4	0.0	204.64174795150757	
19	182.67400908470154	movie	1		244	17.0	2.5	/experiments/AOT/AOT_stimuli/rescaled_final/1625_fw.mp4	0.0	205.05818390846252	2.5000860691070557
19	183.8575370311737	pulse	1	t		17.0	2.5	/experiments/AOT/AOT_stimuli/rescaled_final/1625_fw.mp4	0.0	206.2417118549347	
19	185.1740951538086	fix_post	2		12	17.0	2.5	/experiments/AOT/AOT_stimuli/rescaled_final/1625_fw.mp4	0.0	207.55826997756958	0.09994983673095703
20	185.27404499053955	fix_pre	0		120	18.0	2.5	/experiments/AOT/AOT_stimuli/rescaled_final/0624_fw.mp4	0.0	207.65821981430054	0.9999771118164062
20	185.45751810073853	pulse	0	t		18.0	2.5	/experiments/AOT/AOT_stimuli/rescaled_final/0624_fw.mp4	0.0	207.8416929244995	
20	186.27402210235596	movie	1		245	18.0	2.5	/experiments/AOT/AOT_stimuli/rescaled_final/0624_fw.mp4	0.0	208.65819692611694	2.499577045440674
20	187.05751609802246	pulse	1	t		18.0	2.5	/experiments/AOT/AOT_stimuli/rescaled_final/0624_fw.mp4	0.0	209.44169092178345	
20	188.65527606010437	pulse	1	t		18.0	2.5	/experiments/AOT/AOT_stimuli/rescaled_final/0624_fw.mp4	0.0	211.03945088386536	
20	188.77359914779663	fix_post	2		12	18.0	2.5	/experiments/AOT/AOT_stimuli/rescaled_final/0624_fw.mp4	0.0	211.15777397155762	0.10051393508911133
21	188.87411308288574	fix_pre	0		120	19.0	2.5	/experiments/AOT/AOT_stimuli/rescaled_final/2127_fw.mp4	0.0	211.25828790664673	0.9995288848876953
21	189.87364196777344	movie	1		249	19.0	2.5	/experiments/AOT/AOT_stimuli/rescaled_final/2127_fw.mp4	0.0	212.25781679153442	2.500369071960449
21	190.25744915008545	pulse	1	t		19.0	2.5	/experiments/AOT/AOT_stimuli/rescaled_final/2127_fw.mp4	0.0	212.64162397384644	
21	191.85775804519653	pulse	1	t		19.0	2.5	/experiments/AOT/AOT_stimuli/rescaled_final/2127_fw.mp4	0.0	214.24193286895752	
21	192.3740110397339	fix_post	2		12	19.0	2.5	/experiments/AOT/AOT_stimuli/rescaled_final/2127_fw.mp4	0.0	214.75818586349487	0.10000300407409668
22	192.47401404380798	fix_pre	0		119	20.0	2.5	/experiments/AOT/AOT_stimuli/rescaled_final/0523_rv.mp4	0.0	214.85818886756897	0.991642951965332
22	193.4500470161438	pulse	0	t		20.0	2.5	/experiments/AOT/AOT_stimuli/rescaled_final/0523_rv.mp4	0.0	215.83422183990479	
22	193.46565699577332	movie	1		246	20.0	2.5	/experiments/AOT/AOT_stimuli/rescaled_final/0523_rv.mp4	0.0	215.8498318195343	2.508263111114502
22	195.0569851398468	pulse	1	t		20.0	2.5	/experiments/AOT/AOT_stimuli/rescaled_final/0523_rv.mp4	0.0	217.4411599636078	
22	195.97392010688782	fix_post	2		12	20.0	2.5	/experiments/AOT/AOT_stimuli/rescaled_final/0523_rv.mp4	0.0	218.3580949306488	0.10001087188720703
23	196.07393097877502	fix_pre	0		120	21.0	2.5	blank	1.0	218.458105802536	1.0000050067901611
23	196.65739917755127	pulse	0	t		21.0	2.5	blank	1.0	219.04157400131226	
23	197.07393598556519	movie	1		300	21.0	2.5	blank	1.0	219.45811080932617	2.500218152999878
23	198.25742101669312	pulse	1	t		21.0	2.5	blank	1.0	220.6415958404541	
23	199.57415413856506	fix_post	2		12	21.0	2.5	blank	1.0	221.95832896232605	0.09980583190917969
24	199.67395997047424	fix_pre	0		120	22.0	2.5	/experiments/AOT/AOT_stimuli/rescaled_final/0824_rv.mp4	0.0	222.05813479423523	1.000035047531128
24	199.85739398002625	pulse	0	t		22.0	2.5	/experiments/AOT/AOT_stimuli/rescaled_final/0824_rv.mp4	0.0	222.24156880378723	
24	200.67399501800537	movie	1		243	22.0	2.5	/experiments/AOT/AOT_stimuli/rescaled_final/0824_rv.mp4	0.0	223.05816984176636	2.499979019165039
24	201.45737409591675	pulse	1	t		22.0	2.5	/experiments/AOT/AOT_stimuli/rescaled_final/0824_rv.mp4	0.0	223.84154891967773	
24	203.0560600757599	pulse	1	t		22.0	2.5	/experiments/AOT/AOT_stimuli/rescaled_final/0824_rv.mp4	0.0	225.44023489952087	
24	203.1739740371704	fix_post	2		12	22.0	2.5	/experiments/AOT/AOT_stimuli/rescaled_final/0824_rv.mp4	0.0	225.5581488609314	0.09999895095825195
25	203.27397298812866	fix_pre	0		120	23.0	2.5	/experiments/AOT/AOT_stimuli/rescaled_final/1496_rv.mp4	0.0	225.65814781188965	0.9999780654907227
25	204.27395105361938	movie	1		247	23.0	2.5	/experiments/AOT/AOT_stimuli/rescaled_final/1496_rv.mp4	0.0	226.65812587738037	2.5000100135803223
25	204.65692901611328	pulse	1	t		23.0	2.5	/experiments/AOT/AOT_stimuli/rescaled_final/1496_rv.mp4	0.0	227.04110383987427	
25	206.25740218162537	pulse	1	t		23.0	2.5	/experiments/AOT/AOT_stimuli/rescaled_final/1496_rv.mp4	0.0	228.64157700538635	
25	206.7739610671997	fix_post	2		12	23.0	2.5	/experiments/AOT/AOT_stimuli/rescaled_final/1496_rv.mp4	0.0	229.1581358909607	0.09997797012329102
26	206.873939037323	fix_pre	0		119	24.0	2.5	/experiments/AOT/AOT_stimuli/rescaled_final/1985_rv.mp4	0.0	229.25811386108398	0.9916379451751709
26	207.85741806030273	pulse	0	t		24.0	2.5	/experiments/AOT/AOT_stimuli/rescaled_final/1985_rv.mp4	0.0	230.24159288406372	
26	207.86557698249817	movie	1		248	24.0	2.5	/experiments/AOT/AOT_stimuli/rescaled_final/1985_rv.mp4	0.0	230.24975180625916	2.5083491802215576
26	209.45708417892456	pulse	1	t		24.0	2.5	/experiments/AOT/AOT_stimuli/rescaled_final/1985_rv.mp4	0.0	231.84125900268555	
26	210.37392616271973	fix_post	2		12	24.0	2.5	/experiments/AOT/AOT_stimuli/rescaled_final/1985_rv.mp4	0.0	232.7581009864807	0.09995794296264648
27	210.47388410568237	fix_pre	0		120	25.0	2.5	/experiments/AOT/AOT_stimuli/rescaled_final/2137_fw.mp4	0.0	232.85805892944336	1.0000710487365723
27	211.05738306045532	pulse	0	t		25.0	2.5	/experiments/AOT/AOT_stimuli/rescaled_final/2137_fw.mp4	0.0	233.4415578842163	
27	211.47395515441895	movie	1		246	25.0	2.5	/experiments/AOT/AOT_stimuli/rescaled_final/2137_fw.mp4	0.0	233.85812997817993	2.499990940093994
27	212.6575140953064	pulse	1	t		25.0	2.5	/experiments/AOT/AOT_stimuli/rescaled_final/2137_fw.mp4	0.0	235.04168891906738	
27	213.97394609451294	fix_post	2		12	25.0	2.5	/experiments/AOT/AOT_stimuli/rescaled_final/2137_fw.mp4	0.0	236.35812091827393	0.09996390342712402
28	214.07390999794006	fix_pre	0		120	26.0	2.5	/experiments/AOT/AOT_stimuli/rescaled_final/1392_fw.mp4	0.0	236.45808482170105	1.0000171661376953
28	214.25745010375977	pulse	0	t		26.0	2.5	/experiments/AOT/AOT_stimuli/rescaled_final/1392_fw.mp4	0.0	236.64162492752075	
28	215.07392716407776	movie	1		245	26.0	2.5	/experiments/AOT/AOT_stimuli/rescaled_final/1392_fw.mp4	0.0	237.45810198783875	2.499945878982544
28	215.8574149608612	pulse	1	t		26.0	2.5	/experiments/AOT/AOT_stimuli/rescaled_final/1392_fw.mp4	0.0	238.2415897846222	
28	217.4559371471405	pulse	1	t		26.0	2.5	/experiments/AOT/AOT_stimuli/rescaled_final/1392_fw.mp4	0.0	239.8401119709015	
28	217.5738730430603	fix_post	2		12	26.0	2.5	/experiments/AOT/AOT_stimuli/rescaled_final/1392_fw.mp4	0.0	239.9580478668213	0.1000370979309082
29	217.6739101409912	fix_pre	0		120	27.0	2.5	/experiments/AOT/AOT_stimuli/rescaled_final/1284_rv.mp4	0.0	240.0580849647522	1.0000050067901611
29	218.67391514778137	movie	1		245	27.0	2.5	/experiments/AOT/AOT_stimuli/rescaled_final/1284_rv.mp4	0.0	241.05808997154236	2.500025987625122
29	219.0582730770111	pulse	1	t		27.0	2.5	/experiments/AOT/AOT_stimuli/rescaled_final/1284_rv.mp4	0.0	241.4424479007721	
29	220.65757703781128	pulse	1	t		27.0	2.5	/experiments/AOT/AOT_stimuli/rescaled_final/1284_rv.mp4	0.0	243.04175186157227	
29	221.1739411354065	fix_post	2		12	27.0	2.5	/experiments/AOT/AOT_stimuli/rescaled_final/1284_rv.mp4	0.0	243.55811595916748	0.09998202323913574
30	221.27392315864563	fix_pre	0		119	28.0	2.5	blank	1.0	243.65809798240662	0.9916348457336426
30	222.25731897354126	pulse	0	t		28.0	2.5	blank	1.0	244.64149379730225	
30	222.26555800437927	movie	1		301	28.0	2.5	blank	1.0	244.64973282814026	2.508357048034668
30	223.8573341369629	pulse	1	t		28.0	2.5	blank	1.0	246.24150896072388	
30	224.77391505241394	fix_post	2		12	28.0	2.5	blank	1.0	247.15808987617493	0.09996390342712402
31	224.87387895584106	fix_pre	0		120	29.0	2.5	/experiments/AOT/AOT_stimuli/rescaled_final/1051_fw.mp4	0.0	247.25805377960205	1.0000941753387451
31	225.45727705955505	pulse	0	t		29.0	2.5	/experiments/AOT/AOT_stimuli/rescaled_final/1051_fw.mp4	0.0	247.84145188331604	
31	225.8739731311798	movie	1		245	29.0	2.5	/experiments/AOT/AOT_stimuli/rescaled_final/1051_fw.mp4	0.0	248.2581479549408	2.499937057495117
31	227.05744814872742	pulse	1	t		29.0	2.5	/experiments/AOT/AOT_stimuli/rescaled_final/1051_fw.mp4	0.0	249.4416229724884	
31	228.37391018867493	fix_post	2		12	29.0	2.5	/experiments/AOT/AOT_stimuli/rescaled_final/1051_fw.mp4	0.0	250.7580850124359	0.0999758243560791
32	228.473886013031	fix_pre	0		120	30.0	2.5	/experiments/AOT/AOT_stimuli/rescaled_final/0192_fw.mp4	0.0	250.858060836792	1.0000121593475342
32	228.65733098983765	pulse	0	t		30.0	2.5	/experiments/AOT/AOT_stimuli/rescaled_final/0192_fw.mp4	0.0	251.04150581359863	
32	229.47389817237854	movie	1		247	30.0	2.5	/experiments/AOT/AOT_stimuli/rescaled_final/0192_fw.mp4	0.0	251.85807299613953	2.4999887943267822
32	230.25727605819702	pulse	1	t		30.0	2.5	/experiments/AOT/AOT_stimuli/rescaled_final/0192_fw.mp4	0.0	252.641450881958	
32	231.856947183609	pulse	1	t		30.0	2.5	/experiments/AOT/AOT_stimuli/rescaled_final/0192_fw.mp4	0.0	254.24112200737	
32	231.97388696670532	fix_post	2		12	30.0	2.5	/experiments/AOT/AOT_stimuli/rescaled_final/0192_fw.mp4	0.0	254.3580617904663	0.09992814064025879
33	232.07381510734558	fix_pre	0		120	31.0	2.5	/experiments/AOT/AOT_stimuli/rescaled_final/0555_fw.mp4	0.0	254.45798993110657	1.000040054321289
33	233.07385516166687	movie	1		244	31.0	2.5	/experiments/AOT/AOT_stimuli/rescaled_final/0555_fw.mp4	0.0	255.45802998542786	2.5000298023223877
33	233.4571361541748	pulse	1	t		31.0	2.5	/experiments/AOT/AOT_stimuli/rescaled_final/0555_fw.mp4	0.0	255.8413109779358	
33	235.05728816986084	pulse	1	t		31.0	2.5	/experiments/AOT/AOT_stimuli/rescaled_final/0555_fw.mp4	0.0	257.4414629936218	
33	235.57388496398926	fix_post	2		12	31.0	2.5	/experiments/AOT/AOT_stimuli/rescaled_final/0555_fw.mp4	0.0	257.95805978775024	0.09988903999328613
34	235.67377400398254	fix_pre	0		119	32.0	2.5	/experiments/AOT/AOT_stimuli/rescaled_final/1985_rv.mp4	0.0	258.05794882774353	0.9916300773620605
34	236.6572971343994	pulse	0	t		32.0	2.5	/experiments/AOT/AOT_stimuli/rescaled_final/1985_rv.mp4	0.0	259.0414719581604	
34	236.6654040813446	movie	1		246	32.0	2.5	/experiments/AOT/AOT_stimuli/rescaled_final/1985_rv.mp4	0.0	259.0495789051056	2.50839900970459
34	238.25824403762817	pulse	1	t		32.0	2.5	/experiments/AOT/AOT_stimuli/rescaled_final/1985_rv.mp4	0.0	260.64241886138916	
34	239.1738030910492	fix_post	2		12	32.0	2.5	/experiments/AOT/AOT_stimuli/rescaled_final/1985_rv.mp4	0.0	261.5579779148102	0.099945068359375
35	239.27374815940857	fix_pre	0		120	33.0	2.5	/experiments/AOT/AOT_stimuli/rescaled_final/1299_fw.mp4	0.0	261.65792298316956	1.000053882598877
35	239.85876202583313	pulse	0	t		33.0	2.5	/experiments/AOT/AOT_stimuli/rescaled_final/1299_fw.mp4	0.0	262.2429368495941	
35	240.27380204200745	movie	1		243	33.0	2.5	/experiments/AOT/AOT_stimuli/rescaled_final/1299_fw.mp4	0.0	262.65797686576843	2.5000009536743164
35	241.45025205612183	pulse	1	t		33.0	2.5	/experiments/AOT/AOT_stimuli/rescaled_final/1299_fw.mp4	0.0	263.8344268798828	
35	242.77380299568176	fix_post	2		12	33.0	2.5	/experiments/AOT/AOT_stimuli/rescaled_final/1299_fw.mp4	0.0	265.15797781944275	0.09995913505554199
36	242.8737621307373	fix_pre	0		120	34.0	2.5	/experiments/AOT/AOT_stimuli/rescaled_final/1399_rv.mp4	0.0	265.2579369544983	0.9999840259552002
36	243.0573890209198	pulse	0	t		34.0	2.5	/experiments/AOT/AOT_stimuli/rescaled_final/1399_rv.mp4	0.0	265.4415638446808	
36	243.8737461566925	movie	1		243	34.0	2.5	/experiments/AOT/AOT_stimuli/rescaled_final/1399_rv.mp4	0.0	266.2579209804535	2.500243902206421
36	244.65684413909912	pulse	1	t		34.0	2.5	/experiments/AOT/AOT_stimuli/rescaled_final/1399_rv.mp4	0.0	267.0410189628601	
36	246.25601506233215	pulse	1	t		34.0	2.5	/experiments/AOT/AOT_stimuli/rescaled_final/1399_rv.mp4	0.0	268.64018988609314	
36	246.37399005889893	fix_post	2		12	34.0	2.5	/experiments/AOT/AOT_stimuli/rescaled_final/1399_rv.mp4	0.0	268.7581648826599	0.09950900077819824
37	246.47349905967712	fix_pre	0		120	35.0	2.5	blank	1.0	268.8576738834381	1.0000789165496826
37	247.4735779762268	movie	1		300	35.0	2.5	blank	1.0	269.8577527999878	2.5001471042633057
37	247.85718202590942	pulse	1	t		35.0	2.5	blank	1.0	270.2413568496704	
37	249.45727109909058	pulse	1	t		35.0	2.5	blank	1.0	271.84144592285156	
37	249.9737250804901	fix_post	2		12	35.0	2.5	blank	1.0	272.3578999042511	0.10000896453857422
38	250.0737340450287	fix_pre	0		119	36.0	2.5	/experiments/AOT/AOT_stimuli/rescaled_final/2090_fw.mp4	0.0	272.4579088687897	0.9917271137237549
38	251.05722498893738	pulse	0	t		36.0	2.5	/experiments/AOT/AOT_stimuli/rescaled_final/2090_fw.mp4	0.0	273.44139981269836	
38	251.06546115875244	movie	1		248	36.0	2.5	/experiments/AOT/AOT_stimuli/rescaled_final/2090_fw.mp4	0.0	273.4496359825134	2.508384943008423
38	252.65660405158997	pulse	1	t		36.0	2.5	/experiments/AOT/AOT_stimuli/rescaled_final/2090_fw.mp4	0.0	275.04077887535095	
38	253.57384610176086	fix_post	2		12	36.0	2.5	/experiments/AOT/AOT_stimuli/rescaled_final/2090_fw.mp4	0.0	275.95802092552185	0.09979891777038574
39	253.67364501953125	fix_pre	0		120	37.0	2.5	/experiments/AOT/AOT_stimuli/rescaled_final/0985_fw.mp4	0.0	276.05781984329224	1.00006103515625
39	254.25718212127686	pulse	0	t		37.0	2.5	/experiments/AOT/AOT_stimuli/rescaled_final/0985_fw.mp4	0.0	276.64135694503784	
39	254.6737060546875	movie	1		246	37.0	2.5	/experiments/AOT/AOT_stimuli/rescaled_final/0985_fw.mp4	0.0	277.0578808784485	2.499943971633911
39	255.85724401474	pulse	1	t		37.0	2.5	/experiments/AOT/AOT_stimuli/rescaled_final/0985_fw.mp4	0.0	278.241418838501	
39	257.1736500263214	fix_post	2		12	37.0	2.5	/experiments/AOT/AOT_stimuli/rescaled_final/0985_fw.mp4	0.0	279.5578248500824	0.10000014305114746
40	257.27365016937256	fix_pre	0		120	38.0	2.5	/experiments/AOT/AOT_stimuli/rescaled_final/1968_fw.mp4	0.0	279.65782499313354	1.0000009536743164
40	257.45722007751465	pulse	0	t		38.0	2.5	/experiments/AOT/AOT_stimuli/rescaled_final/1968_fw.mp4	0.0	279.84139490127563	
40	258.2736511230469	movie	1		245	38.0	2.5	/experiments/AOT/AOT_stimuli/rescaled_final/1968_fw.mp4	0.0	280.65782594680786	2.5000228881835938
40	259.05715703964233	pulse	1	t		38.0	2.5	/experiments/AOT/AOT_stimuli/rescaled_final/1968_fw.mp4	0.0	281.4413318634033	
40	260.6558041572571	pulse	1	t		38.0	2.5	/experiments/AOT/AOT_stimuli/rescaled_final/1968_fw.mp4	0.0	283.03997898101807	
40	260.77367401123047	fix_post	2		12	38.0	2.5	/experiments/AOT/AOT_stimuli/rescaled_final/1968_fw.mp4	0.0	283.15784883499146	0.09999704360961914
41	260.8736710548401	fix_pre	0		120	39.0	2.5	/experiments/AOT/AOT_stimuli/rescaled_final/1985_fw.mp4	0.0	283.2578458786011	0.9999880790710449
41	261.87365913391113	movie	1		245	39.0	2.5	/experiments/AOT/AOT_stimuli/rescaled_final/1985_fw.mp4	0.0	284.2578339576721	2.5000200271606445
41	262.2570481300354	pulse	1	t		39.0	2.5	/experiments/AOT/AOT_stimuli/rescaled_final/1985_fw.mp4	0.0	284.6412229537964	
41	263.8571090698242	pulse	1	t		39.0	2.5	/experiments/AOT/AOT_stimuli/rescaled_final/1985_fw.mp4	0.0	286.2412838935852	
41	264.3736791610718	fix_post	2		12	39.0	2.5	/experiments/AOT/AOT_stimuli/rescaled_final/1985_fw.mp4	0.0	286.75785398483276	0.10000300407409668
42	264.4736821651459	fix_pre	0		119	40.0	2.5	/experiments/AOT/AOT_stimuli/rescaled_final/2145_fw.mp4	0.0	286.85785698890686	0.9916119575500488
42	265.457200050354	pulse	0	t		40.0	2.5	/experiments/AOT/AOT_stimuli/rescaled_final/2145_fw.mp4	0.0	287.841374874115	
42	265.4652941226959	movie	1		244	40.0	2.5	/experiments/AOT/AOT_stimuli/rescaled_final/2145_fw.mp4	0.0	287.8494689464569	2.5083558559417725
42	267.0584239959717	pulse	1	t		40.0	2.5	/experiments/AOT/AOT_stimuli/rescaled_final/2145_fw.mp4	0.0	289.44259881973267	
42	267.9736499786377	fix_post	2		12	40.0	2.5	/experiments/AOT/AOT_stimuli/rescaled_final/2145_fw.mp4	0.0	290.3578248023987	0.10002708435058594
43	268.0736770629883	fix_pre	0		120	41.0	2.5	blank	1.0	290.45785188674927	0.9998970031738281
43	268.65716314315796	pulse	0	t		41.0	2.5	blank	1.0	291.04133796691895	
43	269.0735740661621	movie	1		300	41.0	2.5	blank	1.0	291.4577488899231	2.5000689029693604
43	270.25723004341125	pulse	1	t		41.0	2.5	blank	1.0	292.64140486717224	
43	271.57364296913147	fix_post	2		12	41.0	2.5	blank	1.0	293.95781779289246	0.09991621971130371
44	271.6735591888428	fix_pre	0		120	42.0	2.5	/experiments/AOT/AOT_stimuli/rescaled_final/0523_fw.mp4	0.0	294.05773401260376	1.0001029968261719
44	271.8570420742035	pulse	0	t		42.0	2.5	/experiments/AOT/AOT_stimuli/rescaled_final/0523_fw.mp4	0.0	294.2412168979645	
44	272.67366218566895	movie	1		246	42.0	2.5	/experiments/AOT/AOT_stimuli/rescaled_final/0523_fw.mp4	0.0	295.05783700942993	2.499964952468872
44	273.45708203315735	pulse	1	t		42.0	2.5	/experiments/AOT/AOT_stimuli/rescaled_final/0523_fw.mp4	0.0	295.84125685691833	
44	275.05549216270447	pulse	1	t		42.0	2.5	/experiments/AOT/AOT_stimuli/rescaled_final/0523_fw.mp4	0.0	297.43966698646545	
44	275.1736271381378	fix_post	2		12	42.0	2.5	/experiments/AOT/AOT_stimuli/rescaled_final/0523_fw.mp4	0.0	297.5578019618988	0.10001993179321289
45	275.27364706993103	fix_pre	0		120	43.0	2.5	/experiments/AOT/AOT_stimuli/rescaled_final/1916_rv.mp4	0.0	297.657821893692	0.9999780654907227
45	276.27362513542175	movie	1		245	43.0	2.5	/experiments/AOT/AOT_stimuli/rescaled_final/1916_rv.mp4	0.0	298.65779995918274	2.500020980834961
45	276.6566410064697	pulse	1	t		43.0	2.5	/experiments/AOT/AOT_stimuli/rescaled_final/1916_rv.mp4	0.0	299.0408158302307	
45	278.25709199905396	pulse	1	t		43.0	2.5	/experiments/AOT/AOT_stimuli/rescaled_final/1916_rv.mp4	0.0	300.64126682281494	
45	278.7736461162567	fix_post	2		12	43.0	2.5	/experiments/AOT/AOT_stimuli/rescaled_final/1916_rv.mp4	0.0	301.1578209400177	0.09992289543151855
46	278.87356901168823	fix_pre	0		119	44.0	2.5	/experiments/AOT/AOT_stimuli/rescaled_final/1280_fw.mp4	0.0	301.2577438354492	0.9916501045227051
46	279.8571140766144	pulse	0	t		44.0	2.5	/experiments/AOT/AOT_stimuli/rescaled_final/1280_fw.mp4	0.0	302.24128890037537	
46	279.86521911621094	movie	1		246	44.0	2.5	/experiments/AOT/AOT_stimuli/rescaled_final/1280_fw.mp4	0.0	302.2493939399719	2.508410930633545
46	281.45675110816956	pulse	1	t		44.0	2.5	/experiments/AOT/AOT_stimuli/rescaled_final/1280_fw.mp4	0.0	303.84092593193054	
46	282.3736300468445	fix_post	2		12	44.0	2.5	/experiments/AOT/AOT_stimuli/rescaled_final/1280_fw.mp4	0.0	304.75780487060547	0.10000300407409668
47	282.4736330509186	fix_pre	0		120	45.0	2.5	/experiments/AOT/AOT_stimuli/rescaled_final/0273_rv.mp4	0.0	304.85780787467957	0.9999680519104004
47	283.05706310272217	pulse	0	t		45.0	2.5	/experiments/AOT/AOT_stimuli/rescaled_final/0273_rv.mp4	0.0	305.44123792648315	
47	283.473601102829	movie	1		243	45.0	2.5	/experiments/AOT/AOT_stimuli/rescaled_final/0273_rv.mp4	0.0	305.85777592658997	2.4998939037323
47	284.6571249961853	pulse	1	t		45.0	2.5	/experiments/AOT/AOT_stimuli/rescaled_final/0273_rv.mp4	0.0	307.0412998199463	
47	285.9734950065613	fix_post	2		12	45.0	2.5	/experiments/AOT/AOT_stimuli/rescaled_final/0273_rv.mp4	0.0	308.35766983032227	0.10007596015930176
48	286.0735709667206	fix_pre	0		120	46.0	2.5	/experiments/AOT/AOT_stimuli/rescaled_final/0941_rv.mp4	0.0	308.45774579048157	1.000075101852417
48	286.25710797309875	pulse	0	t		46.0	2.5	/experiments/AOT/AOT_stimuli/rescaled_final/0941_rv.mp4	0.0	308.64128279685974	
48	287.073646068573	movie	1		246	46.0	2.5	/experiments/AOT/AOT_stimuli/rescaled_final/0941_rv.mp4	0.0	309.457820892334	2.4998979568481445
48	287.85716104507446	pulse	1	t		46.0	2.5	/experiments/AOT/AOT_stimuli/rescaled_final/0941_rv.mp4	0.0	310.24133586883545	
48	289.456582069397	pulse	1	t		46.0	2.5	/experiments/AOT/AOT_stimuli/rescaled_final/0941_rv.mp4	0.0	311.84075689315796	
48	289.57354402542114	fix_post	2		12	46.0	2.5	/experiments/AOT/AOT_stimuli/rescaled_final/0941_rv.mp4	0.0	311.95771884918213	0.10006308555603027
49	289.6736071109772	fix_pre	0		120	47.0	2.5	/experiments/AOT/AOT_stimuli/rescaled_final/0569_fw.mp4	0.0	312.05778193473816	0.9999349117279053
49	290.6735420227051	movie	1		245	47.0	2.5	/experiments/AOT/AOT_stimuli/rescaled_final/0569_fw.mp4	0.0	313.05771684646606	2.499998092651367
49	291.056725025177	pulse	1	t		47.0	2.5	/experiments/AOT/AOT_stimuli/rescaled_final/0569_fw.mp4	0.0	313.440899848938	
49	292.6570551395416	pulse	1	t		47.0	2.5	/experiments/AOT/AOT_stimuli/rescaled_final/0569_fw.mp4	0.0	315.0412299633026	
49	293.17354011535645	fix_post	2		12	47.0	2.5	/experiments/AOT/AOT_stimuli/rescaled_final/0569_fw.mp4	0.0	315.55771493911743	0.10000991821289062
50	293.27355003356934	fix_pre	0		119	48.0	2.5	blank	1.0	315.6577248573303	0.9915831089019775
50	294.2570390701294	pulse	0	t		48.0	2.5	blank	1.0	316.6412138938904	
50	294.2651331424713	movie	1		301	48.0	2.5	blank	1.0	316.6493079662323	2.508430004119873
50	295.8570501804352	pulse	1	t		48.0	2.5	blank	1.0	318.24122500419617	
50	296.7735631465912	fix_post	2		12	48.0	2.5	blank	1.0	319.1577379703522	0.10006880760192871
51	296.8736319541931	fix_pre	0		120	49.0	2.5	/experiments/AOT/AOT_stimuli/rescaled_final/1549_rv.mp4	0.0	319.2578067779541	0.999913215637207
51	297.4570550918579	pulse	0	t		49.0	2.5	/experiments/AOT/AOT_stimuli/rescaled_final/1549_rv.mp4	0.0	319.8412299156189	
51	297.8735451698303	movie	1		245	49.0	2.5	/experiments/AOT/AOT_stimuli/rescaled_final/1549_rv.mp4	0.0	320.2577199935913	2.4999380111694336
51	299.0571639537811	pulse	1	t		49.0	2.5	/experiments/AOT/AOT_stimuli/rescaled_final/1549_rv.mp4	0.0	321.4413387775421	
51	300.37348318099976	fix_post	2		12	49.0	2.5	/experiments/AOT/AOT_stimuli/rescaled_final/1549_rv.mp4	0.0	322.75765800476074	0.0996389389038086
52	300.47312211990356	fix_pre	0		120	50.0	2.5	/experiments/AOT/AOT_stimuli/rescaled_final/1263_rv.mp4	0.0	322.85729694366455	1.0000178813934326
52	300.65662908554077	pulse	0	t		50.0	2.5	/experiments/AOT/AOT_stimuli/rescaled_final/1263_rv.mp4	0.0	323.04080390930176	
52	301.473140001297	movie	1		243	50.0	2.5	/experiments/AOT/AOT_stimuli/rescaled_final/1263_rv.mp4	0.0	323.857314825058	2.5003960132598877
52	302.2567141056061	pulse	1	t		50.0	2.5	/experiments/AOT/AOT_stimuli/rescaled_final/1263_rv.mp4	0.0	324.64088892936707	
52	303.8557331562042	pulse	1	t		50.0	2.5	/experiments/AOT/AOT_stimuli/rescaled_final/1263_rv.mp4	0.0	326.2399079799652	
52	303.9735360145569	fix_post	2		12	50.0	2.5	/experiments/AOT/AOT_stimuli/rescaled_final/1263_rv.mp4	0.0	326.35771083831787	0.10005998611450195
53	304.0735960006714	fix_pre	0		120	51.0	2.5	/experiments/AOT/AOT_stimuli/rescaled_final/1129_fw.mp4	0.0	326.4577708244324	0.9999310970306396
53	305.073527097702	movie	1		244	51.0	2.5	/experiments/AOT/AOT_stimuli/rescaled_final/1129_fw.mp4	0.0	327.457701921463	2.49992299079895
53	305.45654916763306	pulse	1	t		51.0	2.5	/experiments/AOT/AOT_stimuli/rescaled_final/1129_fw.mp4	0.0	327.84072399139404	
53	307.0569829940796	pulse	1	t		51.0	2.5	/experiments/AOT/AOT_stimuli/rescaled_final/1129_fw.mp4	0.0	329.4411578178406	
53	307.573450088501	fix_post	2		12	51.0	2.5	/experiments/AOT/AOT_stimuli/rescaled_final/1129_fw.mp4	0.0	329.95762491226196	0.10007786750793457
54	307.6735279560089	fix_pre	0		119	52.0	2.5	/experiments/AOT/AOT_stimuli/rescaled_final/1357_rv.mp4	0.0	330.0577027797699	0.9916050434112549
54	308.6570110321045	pulse	0	t		52.0	2.5	/experiments/AOT/AOT_stimuli/rescaled_final/1357_rv.mp4	0.0	331.0411858558655	
54	308.66513299942017	movie	1		243	52.0	2.5	/experiments/AOT/AOT_stimuli/rescaled_final/1357_rv.mp4	0.0	331.04930782318115	2.5083060264587402
54	310.256450176239	pulse	1	t		52.0	2.5	/experiments/AOT/AOT_stimuli/rescaled_final/1357_rv.mp4	0.0	332.640625	
54	311.1734390258789	fix_post	2		12	52.0	2.5	/experiments/AOT/AOT_stimuli/rescaled_final/1357_rv.mp4	0.0	333.5576138496399	0.09990811347961426
55	311.2733471393585	fix_pre	0		120	53.0	2.5	/experiments/AOT/AOT_stimuli/rescaled_final/1903_fw.mp4	0.0	333.6575219631195	1.0000360012054443
55	311.85698103904724	pulse	0	t		53.0	2.5	/experiments/AOT/AOT_stimuli/rescaled_final/1903_fw.mp4	0.0	334.2411558628082	
55	312.27338314056396	movie	1		245	53.0	2.5	/experiments/AOT/AOT_stimuli/rescaled_final/1903_fw.mp4	0.0	334.65755796432495	2.4999890327453613
55	313.45699310302734	pulse	1	t		53.0	2.5	/experiments/AOT/AOT_stimuli/rescaled_final/1903_fw.mp4	0.0	335.84116792678833	
55	314.7733721733093	fix_post	2		12	53.0	2.5	/experiments/AOT/AOT_stimuli/rescaled_final/1903_fw.mp4	0.0	337.1575469970703	0.10006284713745117
56	314.8734350204468	fix_pre	0		120	54.0	2.5	/experiments/AOT/AOT_stimuli/rescaled_final/0701_fw.mp4	0.0	337.25760984420776	0.9999301433563232
56	315.05691599845886	pulse	0	t		54.0	2.5	/experiments/AOT/AOT_stimuli/rescaled_final/0701_fw.mp4	0.0	337.44109082221985	
56	315.8733651638031	movie	1		243	54.0	2.5	/experiments/AOT/AOT_stimuli/rescaled_final/0701_fw.mp4	0.0	338.2575399875641	2.5000548362731934
56	316.6570100784302	pulse	1	t		54.0	2.5	/experiments/AOT/AOT_stimuli/rescaled_final/0701_fw.mp4	0.0	339.04118490219116	
56	318.2551531791687	pulse	1	t		54.0	2.5	/experiments/AOT/AOT_stimuli/rescaled_final/0701_fw.mp4	0.0	340.6393280029297	
56	318.3734200000763	fix_post	2		12	54.0	2.5	/experiments/AOT/AOT_stimuli/rescaled_final/0701_fw.mp4	0.0	340.7575948238373	0.0999600887298584
57	318.47338008880615	fix_pre	0		120	55.0	2.5	blank	1.0	340.85755491256714	0.9999990463256836
57	319.47337913513184	movie	1		300	55.0	2.5	blank	1.0	341.8575539588928	2.4999589920043945
57	319.8569321632385	pulse	1	t		55.0	2.5	blank	1.0	342.2411069869995	
57	321.4569401741028	pulse	1	t		55.0	2.5	blank	1.0	343.84111499786377	
57	321.97333812713623	fix_post	2		12	55.0	2.5	blank	1.0	344.3575129508972	0.1000359058380127
58	322.07337403297424	fix_pre	0		119	56.0	2.5	/experiments/AOT/AOT_stimuli/rescaled_final/2009_fw.mp4	0.0	344.45754885673523	0.9916379451751709
58	323.0568871498108	pulse	0	t		56.0	2.5	/experiments/AOT/AOT_stimuli/rescaled_final/2009_fw.mp4	0.0	345.4410619735718	
58	323.0650119781494	movie	1		249	56.0	2.5	/experiments/AOT/AOT_stimuli/rescaled_final/2009_fw.mp4	0.0	345.4491868019104	2.508395195007324
58	324.65773606300354	pulse	1	t		56.0	2.5	/experiments/AOT/AOT_stimuli/rescaled_final/2009_fw.mp4	0.0	347.0419108867645	
58	325.57340717315674	fix_post	2		12	56.0	2.5	/experiments/AOT/AOT_stimuli/rescaled_final/2009_fw.mp4	0.0	347.9575819969177	0.10013294219970703
59	325.67354011535645	fix_pre	0		120	57.0	2.5	/experiments/AOT/AOT_stimuli/rescaled_final/2136_fw.mp4	0.0	348.05771493911743	0.9998970031738281
59	326.25699496269226	pulse	0	t		57.0	2.5	/experiments/AOT/AOT_stimuli/rescaled_final/2136_fw.mp4	0.0	348.64116978645325	
59	326.6734371185303	movie	1		246	57.0	2.5	/experiments/AOT/AOT_stimuli/rescaled_final/2136_fw.mp4	0.0	349.05761194229126	2.499915838241577
59	327.85695695877075	pulse	1	t		57.0	2.5	/experiments/AOT/AOT_stimuli/rescaled_final/2136_fw.mp4	0.0	350.24113178253174	
59	329.17335295677185	fix_post	2		12	57.0	2.5	/experiments/AOT/AOT_stimuli/rescaled_final/2136_fw.mp4	0.0	351.55752778053284	0.09997916221618652
60	329.27333211898804	fix_pre	0		120	58.0	2.5	/experiments/AOT/AOT_stimuli/rescaled_final/2118_rv.mp4	0.0	351.657506942749	0.9999730587005615
60	329.4568440914154	pulse	0	t		58.0	2.5	/experiments/AOT/AOT_stimuli/rescaled_final/2118_rv.mp4	0.0	351.8410189151764	
60	330.2733051776886	movie	1		245	58.0	2.5	/experiments/AOT/AOT_stimuli/rescaled_final/2118_rv.mp4	0.0	352.6574800014496	2.5001139640808105
60	331.05679202079773	pulse	1	t		58.0	2.5	/experiments/AOT/AOT_stimuli/rescaled_final/2118_rv.mp4	0.0	353.4409668445587	
60	332.6571099758148	pulse	1	t		58.0	2.5	/experiments/AOT/AOT_stimuli/rescaled_final/2118_rv.mp4	0.0	355.0412847995758	
60	332.7734191417694	fix_post	2		12	58.0	2.5	/experiments/AOT/AOT_stimuli/rescaled_final/2118_rv.mp4	0.0	355.1575939655304	0.09993195533752441
61	332.87335109710693	fix_pre	0		120	59.0	2.5	/experiments/AOT/AOT_stimuli/rescaled_final/1673_fw.mp4	0.0	355.2575259208679	1.000053882598877
61	333.8734049797058	movie	1		242	59.0	2.5	/experiments/AOT/AOT_stimuli/rescaled_final/1673_fw.mp4	0.0	356.2575798034668	2.4999501705169678
61	334.2580211162567	pulse	1	t		59.0	2.5	/experiments/AOT/AOT_stimuli/rescaled_final/1673_fw.mp4	0.0	356.6421959400177	
61	335.856840133667	pulse	1	t		59.0	2.5	/experiments/AOT/AOT_stimuli/rescaled_final/1673_fw.mp4	0.0	358.241014957428	
61	336.3733551502228	fix_post	2		12	59.0	2.5	/experiments/AOT/AOT_stimuli/rescaled_final/1673_fw.mp4	0.0	358.75752997398376	0.10000801086425781
62	336.47336316108704	fix_pre	0		119	60.0	2.5	/experiments/AOT/AOT_stimuli/rescaled_final/1849_rv.mp4	0.0	358.857537984848	0.991675853729248
62	337.4568350315094	pulse	0	t		60.0	2.5	/experiments/AOT/AOT_stimuli/rescaled_final/1849_rv.mp4	0.0	359.8410098552704	
62	337.4650390148163	movie	1		244	60.0	2.5	/experiments/AOT/AOT_stimuli/rescaled_final/1849_rv.mp4	0.0	359.84921383857727	2.508242130279541
62	339.056517124176	pulse	1	t		60.0	2.5	/experiments/AOT/AOT_stimuli/rescaled_final/1849_rv.mp4	0.0	361.440691947937	
62	339.9732811450958	fix_post	2		12	60.0	2.5	/experiments/AOT/AOT_stimuli/rescaled_final/1849_rv.mp4	0.0	362.3574559688568	0.10013389587402344
63	340.07341504096985	fix_pre	0		120	61.0	2.5	/experiments/AOT/AOT_stimuli/rescaled_final/0398_rv.mp4	0.0	362.45758986473083	0.999932050704956
63	340.656790971756	pulse	0	t		61.0	2.5	/experiments/AOT/AOT_stimuli/rescaled_final/0398_rv.mp4	0.0	363.04096579551697	
63	341.0733470916748	movie	1		244	61.0	2.5	/experiments/AOT/AOT_stimuli/rescaled_final/0398_rv.mp4	0.0	363.4575219154358	2.500001907348633
63	342.256973028183	pulse	1	t		61.0	2.5	/experiments/AOT/AOT_stimuli/rescaled_final/0398_rv.mp4	0.0	364.64114785194397	
63	343.57334899902344	fix_post	2		12	61.0	2.5	/experiments/AOT/AOT_stimuli/rescaled_final/0398_rv.mp4	0.0	365.9575238227844	0.09995198249816895
64	343.6733009815216	fix_pre	0		120	62.0	2.5	blank	1.0	366.0574758052826	0.9999561309814453
64	343.85671615600586	pulse	0	t		62.0	2.5	blank	1.0	366.24089097976685	
64	344.67325711250305	movie	1		300	62.0	2.5	blank	1.0	367.05743193626404	2.5000009536743164
64	345.45683217048645	pulse	1	t		62.0	2.5	blank	1.0	367.84100699424744	
64	347.05673813819885	pulse	1	t		62.0	2.5	blank	1.0	369.44091296195984	
64	347.17325806617737	fix_post	2		12	62.0	2.5	blank	1.0	369.55743288993835	0.10005998611450195
65	347.27331805229187	fix_pre	0		120	63.0	2.5	/experiments/AOT/AOT_stimuli/rescaled_final/0149_fw.mp4	0.0	369.65749287605286	0.9999289512634277
65	348.2732470035553	movie	1		244	63.0	2.5	/experiments/AOT/AOT_stimuli/rescaled_final/0149_fw.mp4	0.0	370.6574218273163	2.500051975250244
65	348.6579370498657	pulse	1	t		63.0	2.5	/experiments/AOT/AOT_stimuli/rescaled_final/0149_fw.mp4	0.0	371.0421118736267	
65	350.2567081451416	pulse	1	t		63.0	2.5	/experiments/AOT/AOT_stimuli/rescaled_final/0149_fw.mp4	0.0	372.6408829689026	
65	350.77329897880554	fix_post	2		12	63.0	2.5	/experiments/AOT/AOT_stimuli/rescaled_final/0149_fw.mp4	0.0	373.1574738025665	0.09996819496154785
66	350.8732671737671	fix_pre	0		119	64.0	2.5	/experiments/AOT/AOT_stimuli/rescaled_final/1391_rv.mp4	0.0	373.2574419975281	0.9915769100189209
66	351.85677313804626	pulse	0	t		64.0	2.5	/experiments/AOT/AOT_stimuli/rescaled_final/1391_rv.mp4	0.0	374.24094796180725	
66	351.864844083786	movie	1		244	64.0	2.5	/experiments/AOT/AOT_stimuli/rescaled_final/1391_rv.mp4	0.0	374.249018907547	2.5083658695220947
66	353.4579510688782	pulse	1	t		64.0	2.5	/experiments/AOT/AOT_stimuli/rescaled_final/1391_rv.mp4	0.0	375.84212589263916	
66	354.3732099533081	fix_post	2		12	64.0	2.5	/experiments/AOT/AOT_stimuli/rescaled_final/1391_rv.mp4	0.0	376.7573847770691	0.10004401206970215
67	354.4732539653778	fix_pre	0		120	65.0	2.5	/experiments/AOT/AOT_stimuli/rescaled_final/0547_rv.mp4	0.0	376.8574287891388	1.0001192092895508
67	355.05685210227966	pulse	0	t		65.0	2.5	/experiments/AOT/AOT_stimuli/rescaled_final/0547_rv.mp4	0.0	377.44102692604065	
67	355.47337317466736	movie	1		247	65.0	2.5	/experiments/AOT/AOT_stimuli/rescaled_final/0547_rv.mp4	0.0	377.85754799842834	2.4995319843292236
67	356.65646600723267	pulse	1	t		65.0	2.5	/experiments/AOT/AOT_stimuli/rescaled_final/0547_rv.mp4	0.0	379.04064083099365	
67	357.9729051589966	fix_post	2		12	65.0	2.5	/experiments/AOT/AOT_stimuli/rescaled_final/0547_rv.mp4	0.0	380.35707998275757	0.1004939079284668
68	358.07339906692505	fix_pre	0		120	66.0	2.5	/experiments/AOT/AOT_stimuli/rescaled_final/0376_fw.mp4	0.0	380.45757389068604	0.9996941089630127
68	358.2568759918213	pulse	0	t		66.0	2.5	/experiments/AOT/AOT_stimuli/rescaled_final/0376_fw.mp4	0.0	380.6410508155823	
68	359.07309317588806	movie	1		244	66.0	2.5	/experiments/AOT/AOT_stimuli/rescaled_final/0376_fw.mp4	0.0	381.45726799964905	2.5001728534698486
68	359.85681796073914	pulse	1	t		66.0	2.5	/experiments/AOT/AOT_stimuli/rescaled_final/0376_fw.mp4	0.0	382.2409927845001	
68	361.4551930427551	pulse	1	t		66.0	2.5	/experiments/AOT/AOT_stimuli/rescaled_final/0376_fw.mp4	0.0	383.8393678665161	
68	361.5732660293579	fix_post	2		12	66.0	2.5	/experiments/AOT/AOT_stimuli/rescaled_final/0376_fw.mp4	0.0	383.9574408531189	0.09996700286865234
69	361.67323303222656	fix_pre	0		120	67.0	2.5	/experiments/AOT/AOT_stimuli/rescaled_final/0341_fw.mp4	0.0	384.05740785598755	1.0000550746917725
69	362.67328810691833	movie	1		245	67.0	2.5	/experiments/AOT/AOT_stimuli/rescaled_final/0341_fw.mp4	0.0	385.0574629306793	2.499845027923584
69	363.05623507499695	pulse	1	t		67.0	2.5	/experiments/AOT/AOT_stimuli/rescaled_final/0341_fw.mp4	0.0	385.44040989875793	
69	364.65671014785767	pulse	1	t		67.0	2.5	/experiments/AOT/AOT_stimuli/rescaled_final/0341_fw.mp4	0.0	387.04088497161865	
69	365.1731331348419	fix_post	2		12	67.0	2.5	/experiments/AOT/AOT_stimuli/rescaled_final/0341_fw.mp4	0.0	387.5573079586029	0.10000491142272949
70	365.27313804626465	fix_pre	0		119	68.0	2.5	blank	1.0	387.65731287002563	0.9917280673980713
70	366.256667137146	pulse	0	t		68.0	2.5	blank	1.0	388.640841960907	
70	366.2648661136627	movie	1		301	68.0	2.5	blank	1.0	388.6490409374237	2.508236885070801
70	367.85667610168457	pulse	1	t		68.0	2.5	blank	1.0	390.24085092544556	
70	368.7731029987335	fix_post	2		12	68.0	2.5	blank	1.0	391.1572778224945	0.1000661849975586
71	368.8731691837311	fix_pre	0		120	69.0	2.5	/experiments/AOT/AOT_stimuli/rescaled_final/0557_fw.mp4	0.0	391.25734400749207	0.9998998641967773
71	369.45662903785706	pulse	0	t		69.0	2.5	/experiments/AOT/AOT_stimuli/rescaled_final/0557_fw.mp4	0.0	391.84080386161804	
71	369.87306904792786	movie	1		246	69.0	2.5	/experiments/AOT/AOT_stimuli/rescaled_final/0557_fw.mp4	0.0	392.25724387168884	2.500035047531128
71	371.05672812461853	pulse	1	t		69.0	2.5	/experiments/AOT/AOT_stimuli/rescaled_final/0557_fw.mp4	0.0	393.4409029483795	
71	372.373104095459	fix_post	2		12	69.0	2.5	/experiments/AOT/AOT_stimuli/rescaled_final/0557_fw.mp4	0.0	394.75727891921997	0.0999910831451416
72	372.4730951786041	fix_pre	0		120	70.0	2.5	/experiments/AOT/AOT_stimuli/rescaled_final/1042_fw.mp4	0.0	394.8572700023651	1.0000338554382324
72	372.6566369533539	pulse	0	t		70.0	2.5	/experiments/AOT/AOT_stimuli/rescaled_final/1042_fw.mp4	0.0	395.04081177711487	
72	373.47312903404236	movie	1		246	70.0	2.5	/experiments/AOT/AOT_stimuli/rescaled_final/1042_fw.mp4	0.0	395.85730385780334	2.5000059604644775
72	374.2566339969635	pulse	1	t		70.0	2.5	/experiments/AOT/AOT_stimuli/rescaled_final/1042_fw.mp4	0.0	396.6408088207245	
72	375.8550670146942	pulse	1	t		70.0	2.5	/experiments/AOT/AOT_stimuli/rescaled_final/1042_fw.mp4	0.0	398.2392418384552	
72	375.97313499450684	fix_post	2		12	70.0	2.5	/experiments/AOT/AOT_stimuli/rescaled_final/1042_fw.mp4	0.0	398.3573098182678	0.09995317459106445
73	376.0730881690979	fix_pre	0		120	71.0	2.5	/experiments/AOT/AOT_stimuli/rescaled_final/0720_fw.mp4	0.0	398.4572629928589	0.9999828338623047
73	377.0730710029602	movie	1		244	71.0	2.5	/experiments/AOT/AOT_stimuli/rescaled_final/0720_fw.mp4	0.0	399.4572458267212	2.500136137008667
73	377.45646595954895	pulse	1	t		71.0	2.5	/experiments/AOT/AOT_stimuli/rescaled_final/0720_fw.mp4	0.0	399.84064078330994	
73	379.05666303634644	pulse	1	t		71.0	2.5	/experiments/AOT/AOT_stimuli/rescaled_final/0720_fw.mp4	0.0	401.4408378601074	
73	379.5732071399689	fix_post	2		12	71.0	2.5	/experiments/AOT/AOT_stimuli/rescaled_final/0720_fw.mp4	0.0	401.95738196372986	0.09984302520751953
74	379.6730501651764	fix_pre	0		119	72.0	2.5	/experiments/AOT/AOT_stimuli/rescaled_final/1566_rv.mp4	0.0	402.0572249889374	0.991657018661499
74	380.65659403800964	pulse	0	t		72.0	2.5	/experiments/AOT/AOT_stimuli/rescaled_final/1566_rv.mp4	0.0	403.04076886177063	
74	380.6647071838379	movie	1		244	72.0	2.5	/experiments/AOT/AOT_stimuli/rescaled_final/1566_rv.mp4	0.0	403.0488820075989	2.508485794067383
74	382.25778317451477	pulse	1	t		72.0	2.5	/experiments/AOT/AOT_stimuli/rescaled_final/1566_rv.mp4	0.0	404.64195799827576	
74	383.1731929779053	fix_post	2		12	72.0	2.5	/experiments/AOT/AOT_stimuli/rescaled_final/1566_rv.mp4	0.0	405.55736780166626	0.09991717338562012
75	383.2731101512909	fix_pre	0		120	73.0	2.5	/experiments/AOT/AOT_stimuli/rescaled_final/0059_rv.mp4	0.0	405.6572849750519	0.9999589920043945
75	383.8566429615021	pulse	0	t		73.0	2.5	/experiments/AOT/AOT_stimuli/rescaled_final/0059_rv.mp4	0.0	406.24081778526306	
75	384.2730691432953	movie	1		243	73.0	2.5	/experiments/AOT/AOT_stimuli/rescaled_final/0059_rv.mp4	0.0	406.6572439670563	2.5000100135803223
75	385.45667815208435	pulse	1	t		73.0	2.5	/experiments/AOT/AOT_stimuli/rescaled_final/0059_rv.mp4	0.0	407.84085297584534	
75	386.7730791568756	fix_post	2		12	73.0	2.5	/experiments/AOT/AOT_stimuli/rescaled_final/0059_rv.mp4	0.0	409.1572539806366	0.10012483596801758
76	386.8732039928436	fix_pre	0		120	74.0	2.5	/experiments/AOT/AOT_stimuli/rescaled_final/0483_rv.mp4	0.0	409.2573788166046	0.9999401569366455
76	387.05655002593994	pulse	0	t		74.0	2.5	/experiments/AOT/AOT_stimuli/rescaled_final/0483_rv.mp4	0.0	409.4407248497009	
76	387.8731441497803	movie	1		246	74.0	2.5	/experiments/AOT/AOT_stimuli/rescaled_final/0483_rv.mp4	0.0	410.25731897354126	2.500051975250244
76	388.6565361022949	pulse	1	t		74.0	2.5	/experiments/AOT/AOT_stimuli/rescaled_final/0483_rv.mp4	0.0	411.0407109260559	
76	390.25502705574036	pulse	1	t		74.0	2.5	/experiments/AOT/AOT_stimuli/rescaled_final/0483_rv.mp4	0.0	412.63920187950134	
76	390.3731961250305	fix_post	2		12	74.0	2.5	/experiments/AOT/AOT_stimuli/rescaled_final/0483_rv.mp4	0.0	412.7573709487915	0.09980297088623047
77	390.47299909591675	fix_pre	0		120	75.0	2.5	blank	1.0	412.85717391967773	1.0
77	391.47299909591675	movie	1		300	75.0	2.5	blank	1.0	413.85717391967773	2.5000600814819336
77	391.8565831184387	pulse	1	t		75.0	2.5	blank	1.0	414.2407579421997	
77	393.45659708976746	pulse	1	t		75.0	2.5	blank	1.0	415.84077191352844	
77	393.9730591773987	fix_post	2		12	75.0	2.5	blank	1.0	416.35723400115967	0.10005879402160645
78	394.0731179714203	fix_pre	0		119	76.0	2.5	/experiments/AOT/AOT_stimuli/rescaled_final/2038_rv.mp4	0.0	416.4572927951813	0.9916059970855713
78	395.05649304389954	pulse	0	t		76.0	2.5	/experiments/AOT/AOT_stimuli/rescaled_final/2038_rv.mp4	0.0	417.4406678676605	
78	395.06472396850586	movie	1		247	76.0	2.5	/experiments/AOT/AOT_stimuli/rescaled_final/2038_rv.mp4	0.0	417.44889879226685	2.5084071159362793
78	396.655953168869	pulse	1	t		76.0	2.5	/experiments/AOT/AOT_stimuli/rescaled_final/2038_rv.mp4	0.0	419.04012799263	
78	397.57313108444214	fix_post	2		12	76.0	2.5	/experiments/AOT/AOT_stimuli/rescaled_final/2038_rv.mp4	0.0	419.9573059082031	0.09992408752441406
79	397.67305517196655	fix_pre	0		120	77.0	2.5	/experiments/AOT/AOT_stimuli/rescaled_final/2038_fw.mp4	0.0	420.05722999572754	1.000060796737671
79	398.2566909790039	pulse	0	t		77.0	2.5	/experiments/AOT/AOT_stimuli/rescaled_final/2038_fw.mp4	0.0	420.6408658027649	
79	398.6731159687042	movie	1		249	77.0	2.5	/experiments/AOT/AOT_stimuli/rescaled_final/2038_fw.mp4	0.0	421.0572907924652	2.4999990463256836
79	399.8565170764923	pulse	1	t		77.0	2.5	/experiments/AOT/AOT_stimuli/rescaled_final/2038_fw.mp4	0.0	422.2406919002533	
79	401.1731150150299	fix_post	2		12	77.0	2.5	/experiments/AOT/AOT_stimuli/rescaled_final/2038_fw.mp4	0.0	423.5572898387909	0.0999760627746582
80	401.27309107780457	fix_pre	0		120	78.0	2.5	/experiments/AOT/AOT_stimuli/rescaled_final/0008_fw.mp4	0.0	423.65726590156555	0.9999339580535889
80	401.4564850330353	pulse	0	t		78.0	2.5	/experiments/AOT/AOT_stimuli/rescaled_final/0008_fw.mp4	0.0	423.84065985679626	
80	402.27302503585815	movie	1		243	78.0	2.5	/experiments/AOT/AOT_stimuli/rescaled_final/0008_fw.mp4	0.0	424.65719985961914	2.500014066696167
80	403.0564420223236	pulse	1	t		78.0	2.5	/experiments/AOT/AOT_stimuli/rescaled_final/0008_fw.mp4	0.0	425.4406168460846	
80	404.65485405921936	pulse	1	t		78.0	2.5	/experiments/AOT/AOT_stimuli/rescaled_final/0008_fw.mp4	0.0	427.03902888298035	
80	404.7730391025543	fix_post	2		12	78.0	2.5	/experiments/AOT/AOT_stimuli/rescaled_final/0008_fw.mp4	0.0	427.1572139263153	0.10003900527954102
81	404.87307810783386	fix_pre	0		120	79.0	2.5	/experiments/AOT/AOT_stimuli/rescaled_final/0697_fw.mp4	0.0	427.25725293159485	1.000040054321289
81	405.87311816215515	movie	1		243	79.0	2.5	/experiments/AOT/AOT_stimuli/rescaled_final/0697_fw.mp4	0.0	428.25729298591614	2.4999258518218994
81	406.2560091018677	pulse	1	t		79.0	2.5	/experiments/AOT/AOT_stimuli/rescaled_final/0697_fw.mp4	0.0	428.64018392562866	
81	407.8567340373993	pulse	1	t		79.0	2.5	/experiments/AOT/AOT_stimuli/rescaled_final/0697_fw.mp4	0.0	430.2409088611603	
81	408.37304401397705	fix_post	2		12	79.0	2.5	/experiments/AOT/AOT_stimuli/rescaled_final/0697_fw.mp4	0.0	430.75721883773804	0.09989595413208008
82	408.47293996810913	fix_pre	0		119	80.0	2.5	/experiments/AOT/AOT_stimuli/rescaled_final/2114_rv.mp4	0.0	430.8571147918701	0.9916741847991943
82	409.4563810825348	pulse	0	t		80.0	2.5	/experiments/AOT/AOT_stimuli/rescaled_final/2114_rv.mp4	0.0	431.8405559062958	
82	409.4646141529083	movie	1		248	80.0	2.5	/experiments/AOT/AOT_stimuli/rescaled_final/2114_rv.mp4	0.0	431.8487889766693	2.508387804031372
82	411.0560371875763	pulse	1	t		80.0	2.5	/experiments/AOT/AOT_stimuli/rescaled_final/2114_rv.mp4	0.0	433.4402120113373	
82	411.9730019569397	fix_post	2		12	80.0	2.5	/experiments/AOT/AOT_stimuli/rescaled_final/2114_rv.mp4	0.0	434.3571767807007	0.10008001327514648
83	412.07308197021484	fix_pre	0		120	81.0	2.5	/experiments/AOT/AOT_stimuli/rescaled_final/1391_fw.mp4	0.0	434.45725679397583	0.9995172023773193
83	412.6566779613495	pulse	0	t		81.0	2.5	/experiments/AOT/AOT_stimuli/rescaled_final/1391_fw.mp4	0.0	435.0408527851105	
83	413.07259917259216	movie	1		245	81.0	2.5	/experiments/AOT/AOT_stimuli/rescaled_final/1391_fw.mp4	0.0	435.45677399635315	2.5004189014434814
83	414.2561981678009	pulse	1	t		81.0	2.5	/experiments/AOT/AOT_stimuli/rescaled_final/1391_fw.mp4	0.0	436.6403729915619	
83	415.57301807403564	fix_post	2		12	81.0	2.5	/experiments/AOT/AOT_stimuli/rescaled_final/1391_fw.mp4	0.0	437.95719289779663	0.09992790222167969
84	415.6729459762573	fix_pre	0		120	82.0	2.5	blank	1.0	438.0571208000183	1.0000691413879395
84	415.85650610923767	pulse	0	t		82.0	2.5	blank	1.0	438.24068093299866	
84	416.67301511764526	movie	1		300	82.0	2.5	blank	1.0	439.05718994140625	2.499958038330078
84	417.45637798309326	pulse	1	t		82.0	2.5	blank	1.0	439.84055280685425	
84	419.0564510822296	pulse	1	t		82.0	2.5	blank	1.0	441.4406259059906	
84	419.17297315597534	fix_post	2		12	82.0	2.5	blank	1.0	441.5571479797363	0.0999898910522461
85	419.2729630470276	fix_pre	0		120	83.0	2.5	/experiments/AOT/AOT_stimuli/rescaled_final/0446_rv.mp4	0.0	441.6571378707886	0.9999511241912842
85	420.2729141712189	movie	1		245	83.0	2.5	/experiments/AOT/AOT_stimuli/rescaled_final/0446_rv.mp4	0.0	442.65708899497986	2.499969005584717
85	420.6558611392975	pulse	1	t		83.0	2.5	/experiments/AOT/AOT_stimuli/rescaled_final/0446_rv.mp4	0.0	443.0400359630585	
85	422.2564880847931	pulse	1	t		83.0	2.5	/experiments/AOT/AOT_stimuli/rescaled_final/0446_rv.mp4	0.0	444.6406629085541	
85	422.7728831768036	fix_post	2		12	83.0	2.5	/experiments/AOT/AOT_stimuli/rescaled_final/0446_rv.mp4	0.0	445.1570580005646	0.10009479522705078
87	422.87297797203064	stim	0		1716					445.2571527957916	14.299936056137085
87	423.8563561439514	pulse	0	t						446.2405309677124	
87	425.45633006095886	pulse	0	t						447.84050488471985	
87	427.05626797676086	pulse	0	t						449.44044280052185	
87	428.65639901161194	pulse	0	t						451.0405738353729	
87	430.2563669681549	pulse	0	t						452.6405417919159	
87	431.85631799697876	pulse	0	t						454.24049282073975	
87	433.45637607574463	pulse	0	t						455.8405508995056	
87	435.0563910007477	pulse	0	t						457.44056582450867	
87	436.6562840938568	pulse	0	t						459.0404589176178	
