trial_nr	onset	event_type	phase	response	nr_frames	movie_index	movie_duration	movie_file	blank	onset_abs	duration
0	0.17488932609558105	stim	0		1					25.879236459732056	0.008336544036865234
0	0.17738747596740723	response	0	space						25.881734609603882	
1	0.1832258701324463	stim	0		4792					25.88757300376892	39.948049783706665
1	40.12175107002258	pulse	0	t						65.82609820365906	
1	40.13127565383911	stim	1		1715					65.83562278747559	14.301618814468384
1	41.7145631313324	pulse	1	t						67.41891026496887	
1	43.31474590301514	pulse	1	t						69.01909303665161	
1	44.915048122406006	pulse	1	t						70.61939525604248	
1	46.515254735946655	pulse	1	t						72.21960186958313	
1	48.11543798446655	pulse	1	t						73.81978511810303	
1	49.71574950218201	pulse	1	t						75.42009663581848	
1	51.31596231460571	pulse	1	t						77.02030944824219	
1	52.909586668014526	pulse	1	t						78.613933801651	
2	54.432894468307495	fix_pre	0		11	0.0	2.5	/experiments/knapen_AOT/AOT_stimuli/rescaled_final/0563_fw.mp4	0.0	80.13724160194397	0.10837626457214355
2	54.516443729400635	pulse	0	t		0.0	2.5	/experiments/knapen_AOT/AOT_stimuli/rescaled_final/0563_fw.mp4	0.0	80.22079086303711	
2	54.54127073287964	movie	1		273	0.0	2.5	/experiments/knapen_AOT/AOT_stimuli/rescaled_final/0563_fw.mp4	0.0	80.24561786651611	2.4920358657836914
2	56.114811182022095	pulse	1	t		0.0	2.5	/experiments/knapen_AOT/AOT_stimuli/rescaled_final/0563_fw.mp4	0.0	81.81915831565857	
2	57.03330659866333	fix_post	2		12	0.0	2.5	/experiments/knapen_AOT/AOT_stimuli/rescaled_final/0563_fw.mp4	0.0	82.7376537322998	0.09999251365661621
3	57.133299112319946	fix_pre	0		120	1.0	2.5	/experiments/knapen_AOT/AOT_stimuli/rescaled_final/0992_fw.mp4	0.0	82.83764624595642	1.0084760189056396
3	57.71694898605347	pulse	0	t		1.0	2.5	/experiments/knapen_AOT/AOT_stimuli/rescaled_final/0992_fw.mp4	0.0	83.42129611968994	
3	58.141775131225586	movie	1		271	1.0	2.5	/experiments/knapen_AOT/AOT_stimuli/rescaled_final/0992_fw.mp4	0.0	83.84612226486206	2.4920341968536377
3	59.31661820411682	pulse	1	t		1.0	2.5	/experiments/knapen_AOT/AOT_stimuli/rescaled_final/0992_fw.mp4	0.0	85.0209653377533	
3	60.633809328079224	fix_post	2		12	1.0	2.5	/experiments/knapen_AOT/AOT_stimuli/rescaled_final/0992_fw.mp4	0.0	86.3381564617157	0.10001039505004883
4	60.73381972312927	fix_pre	0		120	2.0	2.5	/experiments/knapen_AOT/AOT_stimuli/rescaled_final/1573_rv.mp4	0.0	86.43816685676575	1.008540391921997
4	60.90958094596863	pulse	0	t		2.0	2.5	/experiments/knapen_AOT/AOT_stimuli/rescaled_final/1573_rv.mp4	0.0	86.6139280796051	
4	61.74236011505127	movie	1		281	2.0	2.5	/experiments/knapen_AOT/AOT_stimuli/rescaled_final/1573_rv.mp4	0.0	87.44670724868774	2.492003917694092
4	62.51035404205322	pulse	1	t		2.0	2.5	/experiments/knapen_AOT/AOT_stimuli/rescaled_final/1573_rv.mp4	0.0	88.2147011756897	
4	64.10973000526428	pulse	1	t		2.0	2.5	/experiments/knapen_AOT/AOT_stimuli/rescaled_final/1573_rv.mp4	0.0	89.81407713890076	
4	64.23436403274536	fix_post	2		12	2.0	2.5	/experiments/knapen_AOT/AOT_stimuli/rescaled_final/1573_rv.mp4	0.0	89.93871116638184	0.10000252723693848
5	64.3343665599823	fix_pre	0		120	3.0	2.5	/experiments/knapen_AOT/AOT_stimuli/rescaled_final/0181_rv.mp4	0.0	90.03871369361877	1.0084867477416992
5	65.342853307724	movie	1		275	3.0	2.5	/experiments/knapen_AOT/AOT_stimuli/rescaled_final/0181_rv.mp4	0.0	91.04720044136047	2.492039680480957
5	65.71000528335571	pulse	1	t		3.0	2.5	/experiments/knapen_AOT/AOT_stimuli/rescaled_final/0181_rv.mp4	0.0	91.41435241699219	
5	67.31033945083618	pulse	1	t		3.0	2.5	/experiments/knapen_AOT/AOT_stimuli/rescaled_final/0181_rv.mp4	0.0	93.01468658447266	
5	67.83489298820496	fix_post	2		12	3.0	2.5	/experiments/knapen_AOT/AOT_stimuli/rescaled_final/0181_rv.mp4	0.0	93.53924012184143	0.1000063419342041
6	67.93489933013916	fix_pre	0		118	4.0	2.5	/experiments/knapen_AOT/AOT_stimuli/rescaled_final/0717_rv.mp4	0.0	93.63924646377563	0.9918725490570068
6	68.9106297492981	pulse	0	t		4.0	2.5	/experiments/knapen_AOT/AOT_stimuli/rescaled_final/0717_rv.mp4	0.0	94.61497688293457	
6	68.92677187919617	movie	1		265	4.0	2.5	/experiments/knapen_AOT/AOT_stimuli/rescaled_final/0717_rv.mp4	0.0	94.63111901283264	2.5003318786621094
6	70.5105311870575	pulse	1	t		4.0	2.5	/experiments/knapen_AOT/AOT_stimuli/rescaled_final/0717_rv.mp4	0.0	96.21487832069397	
6	71.42710375785828	fix_post	2		12	4.0	2.5	/experiments/knapen_AOT/AOT_stimuli/rescaled_final/0717_rv.mp4	0.0	97.13145089149475	0.10000395774841309
7	71.52710771560669	fix_pre	0		120	5.0	2.5	/experiments/knapen_AOT/AOT_stimuli/rescaled_final/0341_rv.mp4	0.0	97.23145484924316	1.008547306060791
7	72.11103868484497	pulse	0	t		5.0	2.5	/experiments/knapen_AOT/AOT_stimuli/rescaled_final/0341_rv.mp4	0.0	97.81538581848145	
7	72.53565502166748	movie	1		269	5.0	2.5	/experiments/knapen_AOT/AOT_stimuli/rescaled_final/0341_rv.mp4	0.0	98.24000215530396	2.4920156002044678
7	73.70984673500061	pulse	1	t		5.0	2.5	/experiments/knapen_AOT/AOT_stimuli/rescaled_final/0341_rv.mp4	0.0	99.41419386863708	
7	75.02767062187195	fix_post	2		12	5.0	2.5	/experiments/knapen_AOT/AOT_stimuli/rescaled_final/0341_rv.mp4	0.0	100.73201775550842	0.10002422332763672
8	75.12769484519958	fix_pre	0		120	6.0	2.5	/experiments/knapen_AOT/AOT_stimuli/rescaled_final/0182_rv.mp4	0.0	100.83204197883606	1.0084521770477295
8	75.31133913993835	pulse	0	t		6.0	2.5	/experiments/knapen_AOT/AOT_stimuli/rescaled_final/0182_rv.mp4	0.0	101.01568627357483	
8	76.13614702224731	movie	1		267	6.0	2.5	/experiments/knapen_AOT/AOT_stimuli/rescaled_final/0182_rv.mp4	0.0	101.84049415588379	2.492042064666748
8	76.91153240203857	pulse	1	t		6.0	2.5	/experiments/knapen_AOT/AOT_stimuli/rescaled_final/0182_rv.mp4	0.0	102.61587953567505	
8	78.5098226070404	pulse	1	t		6.0	2.5	/experiments/knapen_AOT/AOT_stimuli/rescaled_final/0182_rv.mp4	0.0	104.21416974067688	
8	78.62818908691406	fix_post	2		12	6.0	2.5	/experiments/knapen_AOT/AOT_stimuli/rescaled_final/0182_rv.mp4	0.0	104.33253622055054	0.10001826286315918
9	78.72820734977722	fix_pre	0		120	7.0	2.5	blank	1.0	104.4325544834137	1.0001261234283447
9	79.72833347320557	movie	1		300	7.0	2.5	blank	1.0	105.43268060684204	2.5003738403320312
9	80.11229133605957	pulse	1	t		7.0	2.5	blank	1.0	105.81663846969604	
9	81.7122130393982	pulse	1	t		7.0	2.5	blank	1.0	107.41656017303467	
9	82.2287073135376	fix_post	2		12	7.0	2.5	blank	1.0	107.93305444717407	0.1000211238861084
10	82.3287284374237	fix_pre	0		119	8.0	2.5	/experiments/knapen_AOT/AOT_stimuli/rescaled_final/0537_fw.mp4	0.0	108.03307557106018	1.000291109085083
10	83.31249141693115	pulse	0	t		8.0	2.5	/experiments/knapen_AOT/AOT_stimuli/rescaled_final/0537_fw.mp4	0.0	109.01683855056763	
10	83.32901954650879	movie	1		266	8.0	2.5	/experiments/knapen_AOT/AOT_stimuli/rescaled_final/0537_fw.mp4	0.0	109.03336668014526	2.5002520084381104
10	84.91079354286194	pulse	1	t		8.0	2.5	/experiments/knapen_AOT/AOT_stimuli/rescaled_final/0537_fw.mp4	0.0	110.61514067649841	
10	85.8292715549469	fix_post	2		12	8.0	2.5	/experiments/knapen_AOT/AOT_stimuli/rescaled_final/0537_fw.mp4	0.0	111.53361868858337	0.1000967025756836
11	85.92936825752258	fix_pre	0		120	9.0	2.5	/experiments/knapen_AOT/AOT_stimuli/rescaled_final/0976_rv.mp4	0.0	111.63371539115906	1.0084409713745117
11	86.51301121711731	pulse	0	t		9.0	2.5	/experiments/knapen_AOT/AOT_stimuli/rescaled_final/0976_rv.mp4	0.0	112.21735835075378	
11	86.9378092288971	movie	1		278	9.0	2.5	/experiments/knapen_AOT/AOT_stimuli/rescaled_final/0976_rv.mp4	0.0	112.64215636253357	2.491986036300659
11	88.11109685897827	pulse	1	t		9.0	2.5	/experiments/knapen_AOT/AOT_stimuli/rescaled_final/0976_rv.mp4	0.0	113.81544399261475	
11	89.42979526519775	fix_post	2		12	9.0	2.5	/experiments/knapen_AOT/AOT_stimuli/rescaled_final/0976_rv.mp4	0.0	115.13414239883423	0.10002684593200684
12	89.52982211112976	fix_pre	0		120	10.0	2.5	/experiments/knapen_AOT/AOT_stimuli/rescaled_final/1047_rv.mp4	0.0	115.23416924476624	1.008504867553711
12	89.71341156959534	pulse	0	t		10.0	2.5	/experiments/knapen_AOT/AOT_stimuli/rescaled_final/1047_rv.mp4	0.0	115.41775870323181	
12	90.53832697868347	movie	1		260	10.0	2.5	/experiments/knapen_AOT/AOT_stimuli/rescaled_final/1047_rv.mp4	0.0	116.24267411231995	2.4920387268066406
12	91.31133103370667	pulse	1	t		10.0	2.5	/experiments/knapen_AOT/AOT_stimuli/rescaled_final/1047_rv.mp4	0.0	117.01567816734314	
12	92.91298198699951	pulse	1	t		10.0	2.5	/experiments/knapen_AOT/AOT_stimuli/rescaled_final/1047_rv.mp4	0.0	118.61732912063599	
12	93.03036570549011	fix_post	2		12	10.0	2.5	/experiments/knapen_AOT/AOT_stimuli/rescaled_final/1047_rv.mp4	0.0	118.73471283912659	0.09998726844787598
13	93.13035297393799	fix_pre	0		120	11.0	2.5	/experiments/knapen_AOT/AOT_stimuli/rescaled_final/0149_fw.mp4	0.0	118.83470010757446	1.0085101127624512
13	94.13886308670044	movie	1		268	11.0	2.5	/experiments/knapen_AOT/AOT_stimuli/rescaled_final/0149_fw.mp4	0.0	119.84321022033691	2.492067813873291
13	94.51361846923828	pulse	1	t		11.0	2.5	/experiments/knapen_AOT/AOT_stimuli/rescaled_final/0149_fw.mp4	0.0	120.21796560287476	
13	96.112459897995	pulse	1	t		11.0	2.5	/experiments/knapen_AOT/AOT_stimuli/rescaled_final/0149_fw.mp4	0.0	121.81680703163147	
13	96.63093090057373	fix_post	2		12	11.0	2.5	/experiments/knapen_AOT/AOT_stimuli/rescaled_final/0149_fw.mp4	0.0	122.3352780342102	0.09999632835388184
14	96.73092722892761	fix_pre	0		119	12.0	2.5	/experiments/knapen_AOT/AOT_stimuli/rescaled_final/1907_fw.mp4	0.0	122.43527436256409	1.000117540359497
14	97.71456789970398	pulse	0	t		12.0	2.5	/experiments/knapen_AOT/AOT_stimuli/rescaled_final/1907_fw.mp4	0.0	123.41891503334045	
14	97.73104476928711	movie	1		274	12.0	2.5	/experiments/knapen_AOT/AOT_stimuli/rescaled_final/1907_fw.mp4	0.0	123.43539190292358	2.500382423400879
14	99.31340742111206	pulse	1	t		12.0	2.5	/experiments/knapen_AOT/AOT_stimuli/rescaled_final/1907_fw.mp4	0.0	125.01775455474854	
14	100.23142719268799	fix_post	2		12	12.0	2.5	/experiments/knapen_AOT/AOT_stimuli/rescaled_final/1907_fw.mp4	0.0	125.93577432632446	0.10009574890136719
15	100.33152294158936	fix_pre	0		120	13.0	2.5	/experiments/knapen_AOT/AOT_stimuli/rescaled_final/0149_rv.mp4	0.0	126.03587007522583	1.0084271430969238
15	100.91526246070862	pulse	0	t		13.0	2.5	/experiments/knapen_AOT/AOT_stimuli/rescaled_final/0149_rv.mp4	0.0	126.61960959434509	
15	101.33995008468628	movie	1		273	13.0	2.5	/experiments/knapen_AOT/AOT_stimuli/rescaled_final/0149_rv.mp4	0.0	127.04429721832275	2.4920425415039062
15	102.51386976242065	pulse	1	t		13.0	2.5	/experiments/knapen_AOT/AOT_stimuli/rescaled_final/0149_rv.mp4	0.0	128.21821689605713	
15	103.83199262619019	fix_post	2		12	13.0	2.5	/experiments/knapen_AOT/AOT_stimuli/rescaled_final/0149_rv.mp4	0.0	129.53633975982666	0.09998893737792969
16	103.93198156356812	fix_pre	0		120	14.0	2.5	blank	1.0	129.6363286972046	1.000136137008667
16	104.11555457115173	pulse	0	t		14.0	2.5	blank	1.0	129.8199017047882	
16	104.93211770057678	movie	1		300	14.0	2.5	blank	1.0	130.63646483421326	2.5003786087036133
16	105.71581172943115	pulse	1	t		14.0	2.5	blank	1.0	131.42015886306763	
16	107.31599402427673	pulse	1	t		14.0	2.5	blank	1.0	133.0203411579132	
16	107.4324963092804	fix_post	2		12	14.0	2.5	blank	1.0	133.13684344291687	0.10009050369262695
17	107.53258681297302	fix_pre	0		120	15.0	2.5	/experiments/knapen_AOT/AOT_stimuli/rescaled_final/0476_rv.mp4	0.0	133.2369339466095	1.0084495544433594
17	108.54103636741638	movie	1		254	15.0	2.5	/experiments/knapen_AOT/AOT_stimuli/rescaled_final/0476_rv.mp4	0.0	134.24538350105286	2.492016553878784
17	108.91461992263794	pulse	1	t		15.0	2.5	/experiments/knapen_AOT/AOT_stimuli/rescaled_final/0476_rv.mp4	0.0	134.6189670562744	
17	110.51446866989136	pulse	1	t		15.0	2.5	/experiments/knapen_AOT/AOT_stimuli/rescaled_final/0476_rv.mp4	0.0	136.21881580352783	
17	111.03305292129517	fix_post	2		12	15.0	2.5	/experiments/knapen_AOT/AOT_stimuli/rescaled_final/0476_rv.mp4	0.0	136.73740005493164	0.1000211238861084
18	111.13307404518127	fix_pre	0		119	16.0	2.5	/experiments/knapen_AOT/AOT_stimuli/rescaled_final/1787_rv.mp4	0.0	136.83742117881775	1.0085992813110352
18	112.11689305305481	pulse	0	t		16.0	2.5	/experiments/knapen_AOT/AOT_stimuli/rescaled_final/1787_rv.mp4	0.0	137.82124018669128	
18	112.14167332649231	movie	1		264	16.0	2.5	/experiments/knapen_AOT/AOT_stimuli/rescaled_final/1787_rv.mp4	0.0	137.84602046012878	2.491934299468994
18	113.7172532081604	pulse	1	t		16.0	2.5	/experiments/knapen_AOT/AOT_stimuli/rescaled_final/1787_rv.mp4	0.0	139.42160034179688	
18	114.6336076259613	fix_post	2		12	16.0	2.5	/experiments/knapen_AOT/AOT_stimuli/rescaled_final/1787_rv.mp4	0.0	140.33795475959778	0.10003495216369629
19	114.733642578125	fix_pre	0		120	17.0	2.5	/experiments/knapen_AOT/AOT_stimuli/rescaled_final/1738_rv.mp4	0.0	140.43798971176147	1.0084905624389648
19	115.31737661361694	pulse	0	t		17.0	2.5	/experiments/knapen_AOT/AOT_stimuli/rescaled_final/1738_rv.mp4	0.0	141.02172374725342	
19	115.74213314056396	movie	1		275	17.0	2.5	/experiments/knapen_AOT/AOT_stimuli/rescaled_final/1738_rv.mp4	0.0	141.44648027420044	2.4919958114624023
19	116.91665625572205	pulse	1	t		17.0	2.5	/experiments/knapen_AOT/AOT_stimuli/rescaled_final/1738_rv.mp4	0.0	142.62100338935852	
19	118.23412895202637	fix_post	2		12	17.0	2.5	/experiments/knapen_AOT/AOT_stimuli/rescaled_final/1738_rv.mp4	0.0	143.93847608566284	0.10001349449157715
20	118.33414244651794	fix_pre	0		120	18.0	2.5	/experiments/knapen_AOT/AOT_stimuli/rescaled_final/1981_fw.mp4	0.0	144.03848958015442	1.008526086807251
20	118.51779294013977	pulse	0	t		18.0	2.5	/experiments/knapen_AOT/AOT_stimuli/rescaled_final/1981_fw.mp4	0.0	144.22214007377625	
20	119.3426685333252	movie	1		273	18.0	2.5	/experiments/knapen_AOT/AOT_stimuli/rescaled_final/1981_fw.mp4	0.0	145.04701566696167	2.491999387741089
20	120.11598110198975	pulse	1	t		18.0	2.5	/experiments/knapen_AOT/AOT_stimuli/rescaled_final/1981_fw.mp4	0.0	145.82032823562622	
20	121.7101182937622	pulse	1	t		18.0	2.5	/experiments/knapen_AOT/AOT_stimuli/rescaled_final/1981_fw.mp4	0.0	147.41446542739868	
20	121.83466792106628	fix_post	2		12	18.0	2.5	/experiments/knapen_AOT/AOT_stimuli/rescaled_final/1981_fw.mp4	0.0	147.53901505470276	0.10002279281616211
21	121.93469071388245	fix_pre	0		120	19.0	2.5	/experiments/knapen_AOT/AOT_stimuli/rescaled_final/0908_fw.mp4	0.0	147.63903784751892	1.0087242126464844
21	122.94341492652893	movie	1		277	19.0	2.5	/experiments/knapen_AOT/AOT_stimuli/rescaled_final/0908_fw.mp4	0.0	148.6477620601654	2.4918525218963623
21	123.31033897399902	pulse	1	t		19.0	2.5	/experiments/knapen_AOT/AOT_stimuli/rescaled_final/0908_fw.mp4	0.0	149.0146861076355	
21	124.91037368774414	pulse	1	t		19.0	2.5	/experiments/knapen_AOT/AOT_stimuli/rescaled_final/0908_fw.mp4	0.0	150.61472082138062	
21	125.4352674484253	fix_post	2		12	19.0	2.5	/experiments/knapen_AOT/AOT_stimuli/rescaled_final/0908_fw.mp4	0.0	151.13961458206177	0.10002255439758301
22	125.53529000282288	fix_pre	0		118	20.0	2.5	blank	1.0	151.23963713645935	0.9834401607513428
22	126.51065492630005	pulse	0	t		20.0	2.5	blank	1.0	152.21500205993652	
22	126.51873016357422	movie	1		301	20.0	2.5	blank	1.0	152.2230772972107	2.5086870193481445
22	128.1108627319336	pulse	1	t		20.0	2.5	blank	1.0	153.81520986557007	
22	129.02741718292236	fix_post	2		12	20.0	2.5	blank	1.0	154.73176431655884	0.10002470016479492
23	129.12744188308716	fix_pre	0		120	21.0	2.5	/experiments/knapen_AOT/AOT_stimuli/rescaled_final/0879_rv.mp4	0.0	154.83178901672363	1.00846266746521
23	129.71105360984802	pulse	0	t		21.0	2.5	/experiments/knapen_AOT/AOT_stimuli/rescaled_final/0879_rv.mp4	0.0	155.4154007434845	
23	130.13590455055237	movie	1		265	21.0	2.5	/experiments/knapen_AOT/AOT_stimuli/rescaled_final/0879_rv.mp4	0.0	155.84025168418884	2.492058515548706
23	131.31152892112732	pulse	1	t		21.0	2.5	/experiments/knapen_AOT/AOT_stimuli/rescaled_final/0879_rv.mp4	0.0	157.0158760547638	
23	132.62796306610107	fix_post	2		12	21.0	2.5	/experiments/knapen_AOT/AOT_stimuli/rescaled_final/0879_rv.mp4	0.0	158.33231019973755	0.10002708435058594
24	132.72799015045166	fix_pre	0		120	22.0	2.5	/experiments/knapen_AOT/AOT_stimuli/rescaled_final/2042_rv.mp4	0.0	158.43233728408813	1.0084929466247559
24	132.91153931617737	pulse	0	t		22.0	2.5	/experiments/knapen_AOT/AOT_stimuli/rescaled_final/2042_rv.mp4	0.0	158.61588644981384	
24	133.73648309707642	movie	1		264	22.0	2.5	/experiments/knapen_AOT/AOT_stimuli/rescaled_final/2042_rv.mp4	0.0	159.4408302307129	2.492011785507202
24	134.51181650161743	pulse	1	t		22.0	2.5	/experiments/knapen_AOT/AOT_stimuli/rescaled_final/2042_rv.mp4	0.0	160.2161636352539	
24	136.1120207309723	pulse	1	t		22.0	2.5	/experiments/knapen_AOT/AOT_stimuli/rescaled_final/2042_rv.mp4	0.0	161.81636786460876	
24	136.22849488258362	fix_post	2		12	22.0	2.5	/experiments/knapen_AOT/AOT_stimuli/rescaled_final/2042_rv.mp4	0.0	161.9328420162201	0.10001850128173828
25	136.32851338386536	fix_pre	0		120	23.0	2.5	/experiments/knapen_AOT/AOT_stimuli/rescaled_final/1095_fw.mp4	0.0	162.03286051750183	1.008519172668457
25	137.3370325565338	movie	1		264	23.0	2.5	/experiments/knapen_AOT/AOT_stimuli/rescaled_final/1095_fw.mp4	0.0	163.0413796901703	2.491999387741089
25	137.71053528785706	pulse	1	t		23.0	2.5	/experiments/knapen_AOT/AOT_stimuli/rescaled_final/1095_fw.mp4	0.0	163.41488242149353	
25	139.31098103523254	pulse	1	t		23.0	2.5	/experiments/knapen_AOT/AOT_stimuli/rescaled_final/1095_fw.mp4	0.0	165.01532816886902	
25	139.8290319442749	fix_post	2		12	23.0	2.5	/experiments/knapen_AOT/AOT_stimuli/rescaled_final/1095_fw.mp4	0.0	165.53337907791138	0.10002493858337402
26	139.92905688285828	fix_pre	0		119	24.0	2.5	/experiments/knapen_AOT/AOT_stimuli/rescaled_final/1197_rv.mp4	0.0	165.63340401649475	1.0001814365386963
26	140.91273140907288	pulse	0	t		24.0	2.5	/experiments/knapen_AOT/AOT_stimuli/rescaled_final/1197_rv.mp4	0.0	166.61707854270935	
26	140.92923831939697	movie	1		260	24.0	2.5	/experiments/knapen_AOT/AOT_stimuli/rescaled_final/1197_rv.mp4	0.0	166.63358545303345	2.500369071960449
26	142.5112226009369	pulse	1	t		24.0	2.5	/experiments/knapen_AOT/AOT_stimuli/rescaled_final/1197_rv.mp4	0.0	168.21556973457336	
26	143.42960739135742	fix_post	2		12	24.0	2.5	/experiments/knapen_AOT/AOT_stimuli/rescaled_final/1197_rv.mp4	0.0	169.1339545249939	0.09997868537902832
27	143.52958607673645	fix_pre	0		120	25.0	2.5	/experiments/knapen_AOT/AOT_stimuli/rescaled_final/2177_rv.mp4	0.0	169.23393321037292	1.008500099182129
27	144.1133131980896	pulse	0	t		25.0	2.5	/experiments/knapen_AOT/AOT_stimuli/rescaled_final/2177_rv.mp4	0.0	169.81766033172607	
27	144.53808617591858	movie	1		271	25.0	2.5	/experiments/knapen_AOT/AOT_stimuli/rescaled_final/2177_rv.mp4	0.0	170.24243330955505	2.49202823638916
27	145.71379446983337	pulse	1	t		25.0	2.5	/experiments/knapen_AOT/AOT_stimuli/rescaled_final/2177_rv.mp4	0.0	171.41814160346985	
27	147.03011441230774	fix_post	2		12	25.0	2.5	/experiments/knapen_AOT/AOT_stimuli/rescaled_final/2177_rv.mp4	0.0	172.7344615459442	0.1000068187713623
28	147.1301212310791	fix_pre	0		120	26.0	2.5	blank	1.0	172.83446836471558	1.0002355575561523
28	147.3136761188507	pulse	0	t		26.0	2.5	blank	1.0	173.01802325248718	
28	148.13035678863525	movie	1		300	26.0	2.5	blank	1.0	173.83470392227173	2.5002903938293457
28	148.91397070884705	pulse	1	t		26.0	2.5	blank	1.0	174.61831784248352	
28	150.51419830322266	pulse	1	t		26.0	2.5	blank	1.0	176.21854543685913	
28	150.6306471824646	fix_post	2		12	26.0	2.5	blank	1.0	176.33499431610107	0.10002636909484863
29	150.73067355155945	fix_pre	0		120	27.0	2.5	/experiments/knapen_AOT/AOT_stimuli/rescaled_final/2085_rv.mp4	0.0	176.43502068519592	1.0085248947143555
29	151.7391984462738	movie	1		270	27.0	2.5	/experiments/knapen_AOT/AOT_stimuli/rescaled_final/2085_rv.mp4	0.0	177.44354557991028	2.4920096397399902
29	152.1133689880371	pulse	1	t		27.0	2.5	/experiments/knapen_AOT/AOT_stimuli/rescaled_final/2085_rv.mp4	0.0	177.81771612167358	
29	153.71267700195312	pulse	1	t		27.0	2.5	/experiments/knapen_AOT/AOT_stimuli/rescaled_final/2085_rv.mp4	0.0	179.4170241355896	
29	154.2312080860138	fix_post	2		12	27.0	2.5	/experiments/knapen_AOT/AOT_stimuli/rescaled_final/2085_rv.mp4	0.0	179.93555521965027	0.10017561912536621
30	154.33138370513916	fix_pre	0		119	28.0	2.5	/experiments/knapen_AOT/AOT_stimuli/rescaled_final/1299_fw.mp4	0.0	180.03573083877563	1.0000548362731934
30	155.3150064945221	pulse	0	t		28.0	2.5	/experiments/knapen_AOT/AOT_stimuli/rescaled_final/1299_fw.mp4	0.0	181.01935362815857	
30	155.33143854141235	movie	1		272	28.0	2.5	/experiments/knapen_AOT/AOT_stimuli/rescaled_final/1299_fw.mp4	0.0	181.03578567504883	2.5002992153167725
30	156.9137144088745	pulse	1	t		28.0	2.5	/experiments/knapen_AOT/AOT_stimuli/rescaled_final/1299_fw.mp4	0.0	182.618061542511	
30	157.83173775672913	fix_post	2		12	28.0	2.5	/experiments/knapen_AOT/AOT_stimuli/rescaled_final/1299_fw.mp4	0.0	183.5360848903656	0.1000206470489502
31	157.93175840377808	fix_pre	0		120	29.0	2.5	/experiments/knapen_AOT/AOT_stimuli/rescaled_final/0271_fw.mp4	0.0	183.63610553741455	1.0085561275482178
31	158.51539659500122	pulse	0	t		29.0	2.5	/experiments/knapen_AOT/AOT_stimuli/rescaled_final/0271_fw.mp4	0.0	184.2197437286377	
31	158.9403145313263	movie	1		273	29.0	2.5	/experiments/knapen_AOT/AOT_stimuli/rescaled_final/0271_fw.mp4	0.0	184.64466166496277	2.4920170307159424
31	160.11414742469788	pulse	1	t		29.0	2.5	/experiments/knapen_AOT/AOT_stimuli/rescaled_final/0271_fw.mp4	0.0	185.81849455833435	
31	161.43233156204224	fix_post	2		12	29.0	2.5	/experiments/knapen_AOT/AOT_stimuli/rescaled_final/0271_fw.mp4	0.0	187.1366786956787	0.09997820854187012
32	161.5323097705841	fix_pre	0		120	30.0	2.5	/experiments/knapen_AOT/AOT_stimuli/rescaled_final/0324_rv.mp4	0.0	187.23665690422058	1.0084917545318604
32	161.71589541435242	pulse	0	t		30.0	2.5	/experiments/knapen_AOT/AOT_stimuli/rescaled_final/0324_rv.mp4	0.0	187.4202425479889	
32	162.54080152511597	movie	1		275	30.0	2.5	/experiments/knapen_AOT/AOT_stimuli/rescaled_final/0324_rv.mp4	0.0	188.24514865875244	2.492025375366211
32	163.31374168395996	pulse	1	t		30.0	2.5	/experiments/knapen_AOT/AOT_stimuli/rescaled_final/0324_rv.mp4	0.0	189.01808881759644	
32	164.91434955596924	pulse	1	t		30.0	2.5	/experiments/knapen_AOT/AOT_stimuli/rescaled_final/0324_rv.mp4	0.0	190.6186966896057	
32	165.03282690048218	fix_post	2		12	30.0	2.5	/experiments/knapen_AOT/AOT_stimuli/rescaled_final/0324_rv.mp4	0.0	190.73717403411865	0.10007500648498535
33	165.13290190696716	fix_pre	0		120	31.0	2.5	/experiments/knapen_AOT/AOT_stimuli/rescaled_final/1347_rv.mp4	0.0	190.83724904060364	1.0085084438323975
33	166.14141035079956	movie	1		285	31.0	2.5	/experiments/knapen_AOT/AOT_stimuli/rescaled_final/1347_rv.mp4	0.0	191.84575748443604	2.4920458793640137
33	166.51506972312927	pulse	1	t		31.0	2.5	/experiments/knapen_AOT/AOT_stimuli/rescaled_final/1347_rv.mp4	0.0	192.21941685676575	
33	168.11465191841125	pulse	1	t		31.0	2.5	/experiments/knapen_AOT/AOT_stimuli/rescaled_final/1347_rv.mp4	0.0	193.81899905204773	
33	168.63345623016357	fix_post	2		12	31.0	2.5	/experiments/knapen_AOT/AOT_stimuli/rescaled_final/1347_rv.mp4	0.0	194.33780336380005	0.09992551803588867
34	168.73338174819946	fix_pre	0		119	32.0	2.5	/experiments/knapen_AOT/AOT_stimuli/rescaled_final/1762_fw.mp4	0.0	194.43772888183594	1.0001437664031982
34	169.71713423728943	pulse	0	t		32.0	2.5	/experiments/knapen_AOT/AOT_stimuli/rescaled_final/1762_fw.mp4	0.0	195.4214813709259	
34	169.73352551460266	movie	1		279	32.0	2.5	/experiments/knapen_AOT/AOT_stimuli/rescaled_final/1762_fw.mp4	0.0	195.43787264823914	2.500383138656616
34	171.3159418106079	pulse	1	t		32.0	2.5	/experiments/knapen_AOT/AOT_stimuli/rescaled_final/1762_fw.mp4	0.0	197.02028894424438	
34	172.23390865325928	fix_post	2		12	32.0	2.5	/experiments/knapen_AOT/AOT_stimuli/rescaled_final/1762_fw.mp4	0.0	197.93825578689575	0.10001754760742188
35	172.3339262008667	fix_pre	0		120	33.0	2.5	/experiments/knapen_AOT/AOT_stimuli/rescaled_final/1573_fw.mp4	0.0	198.03827333450317	1.008497953414917
35	172.91780710220337	pulse	0	t		33.0	2.5	/experiments/knapen_AOT/AOT_stimuli/rescaled_final/1573_fw.mp4	0.0	198.62215423583984	
35	173.34242415428162	movie	1		266	33.0	2.5	/experiments/knapen_AOT/AOT_stimuli/rescaled_final/1573_fw.mp4	0.0	199.0467712879181	2.492035388946533
35	174.51604866981506	pulse	1	t		33.0	2.5	/experiments/knapen_AOT/AOT_stimuli/rescaled_final/1573_fw.mp4	0.0	200.22039580345154	
35	175.83445954322815	fix_post	2		12	33.0	2.5	/experiments/knapen_AOT/AOT_stimuli/rescaled_final/1573_fw.mp4	0.0	201.53880667686462	0.10000753402709961
36	175.93446707725525	fix_pre	0		120	34.0	2.5	blank	1.0	201.63881421089172	1.0001435279846191
36	176.1182565689087	pulse	0	t		34.0	2.5	blank	1.0	201.82260370254517	
36	176.93461060523987	movie	1		300	34.0	2.5	blank	1.0	202.63895773887634	2.5003774166107178
36	177.71059608459473	pulse	1	t		34.0	2.5	blank	1.0	203.4149432182312	
36	179.31047368049622	pulse	1	t		34.0	2.5	blank	1.0	205.0148208141327	
36	179.4349880218506	fix_post	2		12	34.0	2.5	blank	1.0	205.13933515548706	0.10001707077026367
37	179.53500509262085	fix_pre	0		120	35.0	2.5	/experiments/knapen_AOT/AOT_stimuli/rescaled_final/1272_rv.mp4	0.0	205.23935222625732	1.0084962844848633
37	180.5435013771057	movie	1		285	35.0	2.5	/experiments/knapen_AOT/AOT_stimuli/rescaled_final/1272_rv.mp4	0.0	206.2478485107422	2.492020845413208
37	180.91059470176697	pulse	1	t		35.0	2.5	/experiments/knapen_AOT/AOT_stimuli/rescaled_final/1272_rv.mp4	0.0	206.61494183540344	
37	182.51068353652954	pulse	1	t		35.0	2.5	/experiments/knapen_AOT/AOT_stimuli/rescaled_final/1272_rv.mp4	0.0	208.21503067016602	
37	183.03552222251892	fix_post	2		12	35.0	2.5	/experiments/knapen_AOT/AOT_stimuli/rescaled_final/1272_rv.mp4	0.0	208.7398693561554	0.10003113746643066
38	183.13555335998535	fix_pre	0		118	36.0	2.5	/experiments/knapen_AOT/AOT_stimuli/rescaled_final/1901_fw.mp4	0.0	208.83990049362183	0.9918298721313477
38	184.11090111732483	pulse	0	t		36.0	2.5	/experiments/knapen_AOT/AOT_stimuli/rescaled_final/1901_fw.mp4	0.0	209.8152482509613	
38	184.1273832321167	movie	1		260	36.0	2.5	/experiments/knapen_AOT/AOT_stimuli/rescaled_final/1901_fw.mp4	0.0	209.83173036575317	2.5003468990325928
38	185.71121525764465	pulse	1	t		36.0	2.5	/experiments/knapen_AOT/AOT_stimuli/rescaled_final/1901_fw.mp4	0.0	211.41556239128113	
38	186.6277301311493	fix_post	2		12	36.0	2.5	/experiments/knapen_AOT/AOT_stimuli/rescaled_final/1901_fw.mp4	0.0	212.33207726478577	0.10001778602600098
39	186.7277479171753	fix_pre	0		120	37.0	2.5	/experiments/knapen_AOT/AOT_stimuli/rescaled_final/0992_rv.mp4	0.0	212.43209505081177	1.0085065364837646
39	187.311532497406	pulse	0	t		37.0	2.5	/experiments/knapen_AOT/AOT_stimuli/rescaled_final/0992_rv.mp4	0.0	213.01587963104248	
39	187.73625445365906	movie	1		267	37.0	2.5	/experiments/knapen_AOT/AOT_stimuli/rescaled_final/0992_rv.mp4	0.0	213.44060158729553	2.492114305496216
39	188.9115810394287	pulse	1	t		37.0	2.5	/experiments/knapen_AOT/AOT_stimuli/rescaled_final/0992_rv.mp4	0.0	214.61592817306519	
39	190.22836875915527	fix_post	2		12	37.0	2.5	/experiments/knapen_AOT/AOT_stimuli/rescaled_final/0992_rv.mp4	0.0	215.93271589279175	0.09998750686645508
40	190.32835626602173	fix_pre	0		120	38.0	2.5	/experiments/knapen_AOT/AOT_stimuli/rescaled_final/0990_rv.mp4	0.0	216.0327033996582	1.0084760189056396
40	190.5118658542633	pulse	0	t		38.0	2.5	/experiments/knapen_AOT/AOT_stimuli/rescaled_final/0990_rv.mp4	0.0	216.21621298789978	
40	191.33683228492737	movie	1		281	38.0	2.5	/experiments/knapen_AOT/AOT_stimuli/rescaled_final/0990_rv.mp4	0.0	217.04117941856384	2.491982936859131
40	192.1121745109558	pulse	1	t		38.0	2.5	/experiments/knapen_AOT/AOT_stimuli/rescaled_final/0990_rv.mp4	0.0	217.81652164459229	
40	193.71061491966248	pulse	1	t		38.0	2.5	/experiments/knapen_AOT/AOT_stimuli/rescaled_final/0990_rv.mp4	0.0	219.41496205329895	
40	193.8288152217865	fix_post	2		12	38.0	2.5	/experiments/knapen_AOT/AOT_stimuli/rescaled_final/0990_rv.mp4	0.0	219.53316235542297	0.10000848770141602
41	193.92882370948792	fix_pre	0		120	39.0	2.5	/experiments/knapen_AOT/AOT_stimuli/rescaled_final/0451_fw.mp4	0.0	219.6331708431244	1.0085158348083496
41	194.93733954429626	movie	1		274	39.0	2.5	/experiments/knapen_AOT/AOT_stimuli/rescaled_final/0451_fw.mp4	0.0	220.64168667793274	2.4921982288360596
41	195.31093955039978	pulse	1	t		39.0	2.5	/experiments/knapen_AOT/AOT_stimuli/rescaled_final/0451_fw.mp4	0.0	221.01528668403625	
41	196.9128439426422	pulse	1	t		39.0	2.5	/experiments/knapen_AOT/AOT_stimuli/rescaled_final/0451_fw.mp4	0.0	222.6171910762787	
41	197.42953777313232	fix_post	2		12	39.0	2.5	/experiments/knapen_AOT/AOT_stimuli/rescaled_final/0451_fw.mp4	0.0	223.1338849067688	0.09982752799987793
42	197.5293653011322	fix_pre	0		119	40.0	2.5	/experiments/knapen_AOT/AOT_stimuli/rescaled_final/0971_rv.mp4	0.0	223.23371243476868	1.0001676082611084
42	198.5130591392517	pulse	0	t		40.0	2.5	/experiments/knapen_AOT/AOT_stimuli/rescaled_final/0971_rv.mp4	0.0	224.21740627288818	
42	198.5295329093933	movie	1		280	40.0	2.5	/experiments/knapen_AOT/AOT_stimuli/rescaled_final/0971_rv.mp4	0.0	224.23388004302979	2.5005226135253906
42	200.11196756362915	pulse	1	t		40.0	2.5	/experiments/knapen_AOT/AOT_stimuli/rescaled_final/0971_rv.mp4	0.0	225.81631469726562	
42	201.0300555229187	fix_post	2		12	40.0	2.5	/experiments/knapen_AOT/AOT_stimuli/rescaled_final/0971_rv.mp4	0.0	226.73440265655518	0.09991884231567383
43	201.12997436523438	fix_pre	0		120	41.0	2.5	blank	1.0	226.83432149887085	1.0001020431518555
43	201.71360635757446	pulse	0	t		41.0	2.5	blank	1.0	227.41795349121094	
43	202.13007640838623	movie	1		300	41.0	2.5	blank	1.0	227.8344235420227	2.5003886222839355
43	203.31397247314453	pulse	1	t		41.0	2.5	blank	1.0	229.018319606781	
43	204.63046503067017	fix_post	2		12	41.0	2.5	blank	1.0	230.33481216430664	0.10001158714294434
44	204.7304766178131	fix_pre	0		120	42.0	2.5	/experiments/knapen_AOT/AOT_stimuli/rescaled_final/1055_rv.mp4	0.0	230.43482375144958	1.0085327625274658
44	204.91399884223938	pulse	0	t		42.0	2.5	/experiments/knapen_AOT/AOT_stimuli/rescaled_final/1055_rv.mp4	0.0	230.61834597587585	
44	205.73900938034058	movie	1		282	42.0	2.5	/experiments/knapen_AOT/AOT_stimuli/rescaled_final/1055_rv.mp4	0.0	231.44335651397705	2.4919660091400146
44	206.51261711120605	pulse	1	t		42.0	2.5	/experiments/knapen_AOT/AOT_stimuli/rescaled_final/1055_rv.mp4	0.0	232.21696424484253	
44	208.11290526390076	pulse	1	t		42.0	2.5	/experiments/knapen_AOT/AOT_stimuli/rescaled_final/1055_rv.mp4	0.0	233.81725239753723	
44	208.2309753894806	fix_post	2		12	42.0	2.5	/experiments/knapen_AOT/AOT_stimuli/rescaled_final/1055_rv.mp4	0.0	233.93532252311707	0.10004591941833496
45	208.33102130889893	fix_pre	0		120	43.0	2.5	/experiments/knapen_AOT/AOT_stimuli/rescaled_final/1852_fw.mp4	0.0	234.0353684425354	1.0084774494171143
45	209.33949875831604	movie	1		273	43.0	2.5	/experiments/knapen_AOT/AOT_stimuli/rescaled_final/1852_fw.mp4	0.0	235.04384589195251	2.4920434951782227
45	209.7130389213562	pulse	1	t		43.0	2.5	/experiments/knapen_AOT/AOT_stimuli/rescaled_final/1852_fw.mp4	0.0	235.41738605499268	
45	211.31308674812317	pulse	1	t		43.0	2.5	/experiments/knapen_AOT/AOT_stimuli/rescaled_final/1852_fw.mp4	0.0	237.01743388175964	
45	211.83154225349426	fix_post	2		12	43.0	2.5	/experiments/knapen_AOT/AOT_stimuli/rescaled_final/1852_fw.mp4	0.0	237.53588938713074	0.09998846054077148
46	211.93153071403503	fix_pre	0		119	44.0	2.5	/experiments/knapen_AOT/AOT_stimuli/rescaled_final/1095_fw.mp4	0.0	237.6358778476715	1.0002515316009521
46	212.91550087928772	pulse	0	t		44.0	2.5	/experiments/knapen_AOT/AOT_stimuli/rescaled_final/1095_fw.mp4	0.0	238.6198480129242	
46	212.931782245636	movie	1		259	44.0	2.5	/experiments/knapen_AOT/AOT_stimuli/rescaled_final/1095_fw.mp4	0.0	238.63612937927246	2.5005440711975098
46	214.51510047912598	pulse	1	t		44.0	2.5	/experiments/knapen_AOT/AOT_stimuli/rescaled_final/1095_fw.mp4	0.0	240.21944761276245	
46	215.4323263168335	fix_post	2		12	44.0	2.5	/experiments/knapen_AOT/AOT_stimuli/rescaled_final/1095_fw.mp4	0.0	241.13667345046997	0.09976816177368164
47	215.53209447860718	fix_pre	0		120	45.0	2.5	/experiments/knapen_AOT/AOT_stimuli/rescaled_final/1787_fw.mp4	0.0	241.23644161224365	1.0085303783416748
47	216.11570978164673	pulse	0	t		45.0	2.5	/experiments/knapen_AOT/AOT_stimuli/rescaled_final/1787_fw.mp4	0.0	241.8200569152832	
47	216.54062485694885	movie	1		274	45.0	2.5	/experiments/knapen_AOT/AOT_stimuli/rescaled_final/1787_fw.mp4	0.0	242.24497199058533	2.5003530979156494
47	217.71452975273132	pulse	1	t		45.0	2.5	/experiments/knapen_AOT/AOT_stimuli/rescaled_final/1787_fw.mp4	0.0	243.4188768863678	
47	219.0409779548645	fix_post	2		11	45.0	2.5	/experiments/knapen_AOT/AOT_stimuli/rescaled_final/1787_fw.mp4	0.0	244.74532508850098	0.09163522720336914
48	219.13261318206787	fix_pre	0		120	46.0	2.5	/experiments/knapen_AOT/AOT_stimuli/rescaled_final/1105_fw.mp4	0.0	244.83696031570435	1.0085153579711914
48	219.3162181377411	pulse	0	t		46.0	2.5	/experiments/knapen_AOT/AOT_stimuli/rescaled_final/1105_fw.mp4	0.0	245.02056527137756	
48	220.14112854003906	movie	1		263	46.0	2.5	/experiments/knapen_AOT/AOT_stimuli/rescaled_final/1105_fw.mp4	0.0	245.84547567367554	2.492009162902832
48	220.9143373966217	pulse	1	t		46.0	2.5	/experiments/knapen_AOT/AOT_stimuli/rescaled_final/1105_fw.mp4	0.0	246.61868453025818	
48	222.51535058021545	pulse	1	t		46.0	2.5	/experiments/knapen_AOT/AOT_stimuli/rescaled_final/1105_fw.mp4	0.0	248.21969771385193	
48	222.6331377029419	fix_post	2		12	46.0	2.5	/experiments/knapen_AOT/AOT_stimuli/rescaled_final/1105_fw.mp4	0.0	248.33748483657837	0.10009455680847168
49	222.73323225975037	fix_pre	0		120	47.0	2.5	blank	1.0	248.43757939338684	1.0000779628753662
49	223.73331022262573	movie	1		300	47.0	2.5	blank	1.0	249.4376573562622	2.500352621078491
49	224.11687231063843	pulse	1	t		47.0	2.5	blank	1.0	249.8212194442749	
49	225.71718502044678	pulse	1	t		47.0	2.5	blank	1.0	251.42153215408325	
49	226.23366284370422	fix_post	2		12	47.0	2.5	blank	1.0	251.9380099773407	0.10006189346313477
50	226.33372473716736	fix_pre	0		119	48.0	2.5	/experiments/knapen_AOT/AOT_stimuli/rescaled_final/2164_rv.mp4	0.0	252.03807187080383	1.0001349449157715
50	227.3173701763153	pulse	0	t		48.0	2.5	/experiments/knapen_AOT/AOT_stimuli/rescaled_final/2164_rv.mp4	0.0	253.02171730995178	
50	227.33385968208313	movie	1		272	48.0	2.5	/experiments/knapen_AOT/AOT_stimuli/rescaled_final/2164_rv.mp4	0.0	253.0382068157196	2.5003960132598877
50	228.9158661365509	pulse	1	t		48.0	2.5	/experiments/knapen_AOT/AOT_stimuli/rescaled_final/2164_rv.mp4	0.0	254.62021327018738	
50	229.83425569534302	fix_post	2		12	48.0	2.5	/experiments/knapen_AOT/AOT_stimuli/rescaled_final/2164_rv.mp4	0.0	255.5386028289795	0.10018277168273926
51	229.93443846702576	fix_pre	0		120	49.0	2.5	/experiments/knapen_AOT/AOT_stimuli/rescaled_final/0291_rv.mp4	0.0	255.63878560066223	1.0082783699035645
51	230.51002621650696	pulse	0	t		49.0	2.5	/experiments/knapen_AOT/AOT_stimuli/rescaled_final/0291_rv.mp4	0.0	256.21437335014343	
51	230.94271683692932	movie	1		279	49.0	2.5	/experiments/knapen_AOT/AOT_stimuli/rescaled_final/0291_rv.mp4	0.0	256.6470639705658	2.4920482635498047
51	232.10986614227295	pulse	1	t		49.0	2.5	/experiments/knapen_AOT/AOT_stimuli/rescaled_final/0291_rv.mp4	0.0	257.8142132759094	
51	233.43476510047913	fix_post	2		12	49.0	2.5	/experiments/knapen_AOT/AOT_stimuli/rescaled_final/0291_rv.mp4	0.0	259.1391122341156	0.1000216007232666
52	233.5347867012024	fix_pre	0		120	50.0	2.5	/experiments/knapen_AOT/AOT_stimuli/rescaled_final/0032_rv.mp4	0.0	259.23913383483887	1.0085272789001465
52	233.7101333141327	pulse	0	t		50.0	2.5	/experiments/knapen_AOT/AOT_stimuli/rescaled_final/0032_rv.mp4	0.0	259.41448044776917	
52	234.54331398010254	movie	1		281	50.0	2.5	/experiments/knapen_AOT/AOT_stimuli/rescaled_final/0032_rv.mp4	0.0	260.247661113739	2.492017984390259
52	235.31040620803833	pulse	1	t		50.0	2.5	/experiments/knapen_AOT/AOT_stimuli/rescaled_final/0032_rv.mp4	0.0	261.0147533416748	
52	236.91009736061096	pulse	1	t		50.0	2.5	/experiments/knapen_AOT/AOT_stimuli/rescaled_final/0032_rv.mp4	0.0	262.61444449424744	
52	237.0353319644928	fix_post	2		12	50.0	2.5	/experiments/knapen_AOT/AOT_stimuli/rescaled_final/0032_rv.mp4	0.0	262.7396790981293	0.10007119178771973
53	237.13540315628052	fix_pre	0		120	51.0	2.5	/experiments/knapen_AOT/AOT_stimuli/rescaled_final/0729_rv.mp4	0.0	262.839750289917	1.0084059238433838
53	238.1438090801239	movie	1		268	51.0	2.5	/experiments/knapen_AOT/AOT_stimuli/rescaled_final/0729_rv.mp4	0.0	263.8481562137604	2.4920549392700195
53	238.51113390922546	pulse	1	t		51.0	2.5	/experiments/knapen_AOT/AOT_stimuli/rescaled_final/0729_rv.mp4	0.0	264.21548104286194	
53	240.11097121238708	pulse	1	t		51.0	2.5	/experiments/knapen_AOT/AOT_stimuli/rescaled_final/0729_rv.mp4	0.0	265.81531834602356	
53	240.63586401939392	fix_post	2		12	51.0	2.5	/experiments/knapen_AOT/AOT_stimuli/rescaled_final/0729_rv.mp4	0.0	266.3402111530304	0.10001778602600098
54	240.73588180541992	fix_pre	0		118	52.0	2.5	/experiments/knapen_AOT/AOT_stimuli/rescaled_final/1976_rv.mp4	0.0	266.4402289390564	0.9918341636657715
54	241.7113161087036	pulse	0	t		52.0	2.5	/experiments/knapen_AOT/AOT_stimuli/rescaled_final/1976_rv.mp4	0.0	267.4156632423401	
54	241.7277159690857	movie	1		271	52.0	2.5	/experiments/knapen_AOT/AOT_stimuli/rescaled_final/1976_rv.mp4	0.0	267.43206310272217	2.500347375869751
54	243.3110134601593	pulse	1	t		52.0	2.5	/experiments/knapen_AOT/AOT_stimuli/rescaled_final/1976_rv.mp4	0.0	269.0153605937958	
54	244.22806334495544	fix_post	2		12	52.0	2.5	/experiments/knapen_AOT/AOT_stimuli/rescaled_final/1976_rv.mp4	0.0	269.9324104785919	0.09999942779541016
55	244.32806277275085	fix_pre	0		120	53.0	2.5	/experiments/knapen_AOT/AOT_stimuli/rescaled_final/1894_fw.mp4	0.0	270.03240990638733	1.0085601806640625
55	244.91174793243408	pulse	0	t		53.0	2.5	/experiments/knapen_AOT/AOT_stimuli/rescaled_final/1894_fw.mp4	0.0	270.61609506607056	
55	245.33662295341492	movie	1		274	53.0	2.5	/experiments/knapen_AOT/AOT_stimuli/rescaled_final/1894_fw.mp4	0.0	271.0409700870514	2.4919629096984863
55	246.51033735275269	pulse	1	t		53.0	2.5	/experiments/knapen_AOT/AOT_stimuli/rescaled_final/1894_fw.mp4	0.0	272.21468448638916	
55	247.8285858631134	fix_post	2		12	53.0	2.5	/experiments/knapen_AOT/AOT_stimuli/rescaled_final/1894_fw.mp4	0.0	273.5329329967499	0.10003542900085449
56	247.92862129211426	fix_pre	0		120	54.0	2.5	blank	1.0	273.63296842575073	1.0001685619354248
56	248.11217164993286	pulse	0	t		54.0	2.5	blank	1.0	273.81651878356934	
56	248.92878985404968	movie	1		300	54.0	2.5	blank	1.0	274.63313698768616	2.500337600708008
56	249.71255350112915	pulse	1	t		54.0	2.5	blank	1.0	275.4169006347656	
56	251.31270122528076	pulse	1	t		54.0	2.5	blank	1.0	277.01704835891724	
56	251.4291274547577	fix_post	2		12	54.0	2.5	blank	1.0	277.13347458839417	0.10001754760742188
57	251.5291450023651	fix_pre	0		120	55.0	2.5	/experiments/knapen_AOT/AOT_stimuli/rescaled_final/0024_fw.mp4	0.0	277.2334921360016	1.008512020111084
57	252.5376570224762	movie	1		284	55.0	2.5	/experiments/knapen_AOT/AOT_stimuli/rescaled_final/0024_fw.mp4	0.0	278.24200415611267	2.492025136947632
57	252.91302514076233	pulse	1	t		55.0	2.5	/experiments/knapen_AOT/AOT_stimuli/rescaled_final/0024_fw.mp4	0.0	278.6173722743988	
57	254.5112419128418	pulse	1	t		55.0	2.5	/experiments/knapen_AOT/AOT_stimuli/rescaled_final/0024_fw.mp4	0.0	280.21558904647827	
57	255.02968215942383	fix_post	2		12	55.0	2.5	/experiments/knapen_AOT/AOT_stimuli/rescaled_final/0024_fw.mp4	0.0	280.7340292930603	0.10004639625549316
58	255.12972855567932	fix_pre	0		119	56.0	2.5	/experiments/knapen_AOT/AOT_stimuli/rescaled_final/0744_rv.mp4	0.0	280.8340756893158	1.0001287460327148
58	256.1134078502655	pulse	0	t		56.0	2.5	/experiments/knapen_AOT/AOT_stimuli/rescaled_final/0744_rv.mp4	0.0	281.817754983902	
58	256.12985730171204	movie	1		273	56.0	2.5	/experiments/knapen_AOT/AOT_stimuli/rescaled_final/0744_rv.mp4	0.0	281.8342044353485	2.500370740890503
58	257.71249771118164	pulse	1	t		56.0	2.5	/experiments/knapen_AOT/AOT_stimuli/rescaled_final/0744_rv.mp4	0.0	283.4168448448181	
58	258.63022804260254	fix_post	2		12	56.0	2.5	/experiments/knapen_AOT/AOT_stimuli/rescaled_final/0744_rv.mp4	0.0	284.334575176239	0.10010981559753418
59	258.7303378582001	fix_pre	0		120	57.0	2.5	/experiments/knapen_AOT/AOT_stimuli/rescaled_final/1403_fw.mp4	0.0	284.43468499183655	1.008411169052124
59	259.3141257762909	pulse	0	t		57.0	2.5	/experiments/knapen_AOT/AOT_stimuli/rescaled_final/1403_fw.mp4	0.0	285.01847290992737	
59	259.7387490272522	movie	1		285	57.0	2.5	/experiments/knapen_AOT/AOT_stimuli/rescaled_final/1403_fw.mp4	0.0	285.4430961608887	2.4920151233673096
59	260.9124023914337	pulse	1	t		57.0	2.5	/experiments/knapen_AOT/AOT_stimuli/rescaled_final/1403_fw.mp4	0.0	286.6167495250702	
59	262.2307641506195	fix_post	2		12	57.0	2.5	/experiments/knapen_AOT/AOT_stimuli/rescaled_final/1403_fw.mp4	0.0	287.935111284256	0.10007643699645996
60	262.33084058761597	fix_pre	0		120	58.0	2.5	/experiments/knapen_AOT/AOT_stimuli/rescaled_final/1894_rv.mp4	0.0	288.03518772125244	1.0084927082061768
60	262.5144007205963	pulse	0	t		58.0	2.5	/experiments/knapen_AOT/AOT_stimuli/rescaled_final/1894_rv.mp4	0.0	288.2187478542328	
60	263.33933329582214	movie	1		273	58.0	2.5	/experiments/knapen_AOT/AOT_stimuli/rescaled_final/1894_rv.mp4	0.0	289.0436804294586	2.4920036792755127
60	264.1126034259796	pulse	1	t		58.0	2.5	/experiments/knapen_AOT/AOT_stimuli/rescaled_final/1894_rv.mp4	0.0	289.8169505596161	
60	265.71480917930603	pulse	1	t		58.0	2.5	/experiments/knapen_AOT/AOT_stimuli/rescaled_final/1894_rv.mp4	0.0	291.4191563129425	
60	265.83133697509766	fix_post	2		12	58.0	2.5	/experiments/knapen_AOT/AOT_stimuli/rescaled_final/1894_rv.mp4	0.0	291.53568410873413	0.10000824928283691
61	265.9313452243805	fix_pre	0		120	59.0	2.5	/experiments/knapen_AOT/AOT_stimuli/rescaled_final/0202_rv.mp4	0.0	291.63569235801697	1.008472204208374
61	266.93981742858887	movie	1		281	59.0	2.5	/experiments/knapen_AOT/AOT_stimuli/rescaled_final/0202_rv.mp4	0.0	292.64416456222534	2.492025852203369
61	267.313796043396	pulse	1	t		59.0	2.5	/experiments/knapen_AOT/AOT_stimuli/rescaled_final/0202_rv.mp4	0.0	293.01814317703247	
61	268.9147870540619	pulse	1	t		59.0	2.5	/experiments/knapen_AOT/AOT_stimuli/rescaled_final/0202_rv.mp4	0.0	294.61913418769836	
61	269.43184328079224	fix_post	2		12	59.0	2.5	/experiments/knapen_AOT/AOT_stimuli/rescaled_final/0202_rv.mp4	0.0	295.1361904144287	0.10002255439758301
62	269.5318658351898	fix_pre	0		119	60.0	2.5	/experiments/knapen_AOT/AOT_stimuli/rescaled_final/0967_fw.mp4	0.0	295.2362129688263	1.0001986026763916
62	270.5155563354492	pulse	0	t		60.0	2.5	/experiments/knapen_AOT/AOT_stimuli/rescaled_final/0967_fw.mp4	0.0	296.2199034690857	
62	270.5320644378662	movie	1		283	60.0	2.5	/experiments/knapen_AOT/AOT_stimuli/rescaled_final/0967_fw.mp4	0.0	296.2364115715027	2.500297784805298
62	272.1140487194061	pulse	1	t		60.0	2.5	/experiments/knapen_AOT/AOT_stimuli/rescaled_final/0967_fw.mp4	0.0	297.8183958530426	
62	273.0323622226715	fix_post	2		12	60.0	2.5	/experiments/knapen_AOT/AOT_stimuli/rescaled_final/0967_fw.mp4	0.0	298.736709356308	0.10004806518554688
63	273.13241028785706	fix_pre	0		120	61.0	2.5	/experiments/knapen_AOT/AOT_stimuli/rescaled_final/0759_rv.mp4	0.0	298.83675742149353	1.008486032485962
63	273.7160851955414	pulse	0	t		61.0	2.5	/experiments/knapen_AOT/AOT_stimuli/rescaled_final/0759_rv.mp4	0.0	299.42043232917786	
63	274.140896320343	movie	1		275	61.0	2.5	/experiments/knapen_AOT/AOT_stimuli/rescaled_final/0759_rv.mp4	0.0	299.8452434539795	2.4920594692230225
63	275.3146262168884	pulse	1	t		61.0	2.5	/experiments/knapen_AOT/AOT_stimuli/rescaled_final/0759_rv.mp4	0.0	301.0189733505249	
63	276.63295578956604	fix_post	2		12	61.0	2.5	/experiments/knapen_AOT/AOT_stimuli/rescaled_final/0759_rv.mp4	0.0	302.3373029232025	0.09996247291564941
64	276.7329182624817	fix_pre	0		120	62.0	2.5	blank	1.0	302.43726539611816	1.0002155303955078
64	276.91653275489807	pulse	0	t		62.0	2.5	blank	1.0	302.62087988853455	
64	277.7331337928772	movie	1		300	62.0	2.5	blank	1.0	303.4374809265137	2.500318765640259
64	278.5167405605316	pulse	1	t		62.0	2.5	blank	1.0	304.2210876941681	
64	280.11704182624817	pulse	1	t		62.0	2.5	blank	1.0	305.82138895988464	
64	280.23345255851746	fix_post	2		12	62.0	2.5	blank	1.0	305.93779969215393	0.10011482238769531
65	280.33356738090515	fix_pre	0		120	63.0	2.5	/experiments/knapen_AOT/AOT_stimuli/rescaled_final/1299_rv.mp4	0.0	306.0379145145416	1.0084757804870605
65	281.3420431613922	movie	1		285	63.0	2.5	/experiments/knapen_AOT/AOT_stimuli/rescaled_final/1299_rv.mp4	0.0	307.0463902950287	2.4919893741607666
65	281.7174777984619	pulse	1	t		63.0	2.5	/experiments/knapen_AOT/AOT_stimuli/rescaled_final/1299_rv.mp4	0.0	307.4218249320984	
65	283.31570315361023	pulse	1	t		63.0	2.5	/experiments/knapen_AOT/AOT_stimuli/rescaled_final/1299_rv.mp4	0.0	309.0200502872467	
65	283.834032535553	fix_post	2		12	63.0	2.5	/experiments/knapen_AOT/AOT_stimuli/rescaled_final/1299_rv.mp4	0.0	309.53837966918945	0.0999917984008789
66	283.93402433395386	fix_pre	0		119	64.0	2.5	/experiments/knapen_AOT/AOT_stimuli/rescaled_final/1347_fw.mp4	0.0	309.63837146759033	1.0002331733703613
66	284.9108862876892	pulse	0	t		64.0	2.5	/experiments/knapen_AOT/AOT_stimuli/rescaled_final/1347_fw.mp4	0.0	310.6152334213257	
66	284.9342575073242	movie	1		290	64.0	2.5	/experiments/knapen_AOT/AOT_stimuli/rescaled_final/1347_fw.mp4	0.0	310.6386046409607	2.50028920173645
66	286.5162169933319	pulse	1	t		64.0	2.5	/experiments/knapen_AOT/AOT_stimuli/rescaled_final/1347_fw.mp4	0.0	312.2205641269684	
66	287.43454670906067	fix_post	2		12	64.0	2.5	/experiments/knapen_AOT/AOT_stimuli/rescaled_final/1347_fw.mp4	0.0	313.13889384269714	0.10001325607299805
67	287.53455996513367	fix_pre	0		120	65.0	2.5	/experiments/knapen_AOT/AOT_stimuli/rescaled_final/0190_rv.mp4	0.0	313.23890709877014	1.0085110664367676
67	288.1103217601776	pulse	0	t		65.0	2.5	/experiments/knapen_AOT/AOT_stimuli/rescaled_final/0190_rv.mp4	0.0	313.8146688938141	
67	288.54307103157043	movie	1		278	65.0	2.5	/experiments/knapen_AOT/AOT_stimuli/rescaled_final/0190_rv.mp4	0.0	314.2474181652069	2.492018938064575
67	289.7104375362396	pulse	1	t		65.0	2.5	/experiments/knapen_AOT/AOT_stimuli/rescaled_final/0190_rv.mp4	0.0	315.4147846698761	
67	291.035089969635	fix_post	2		12	65.0	2.5	/experiments/knapen_AOT/AOT_stimuli/rescaled_final/0190_rv.mp4	0.0	316.7394371032715	0.10005998611450195
68	291.1351499557495	fix_pre	0		120	66.0	2.5	/experiments/knapen_AOT/AOT_stimuli/rescaled_final/1719_fw.mp4	0.0	316.839497089386	1.0084500312805176
68	291.31040692329407	pulse	0	t		66.0	2.5	/experiments/knapen_AOT/AOT_stimuli/rescaled_final/1719_fw.mp4	0.0	317.01475405693054	
68	292.14359998703003	movie	1		272	66.0	2.5	/experiments/knapen_AOT/AOT_stimuli/rescaled_final/1719_fw.mp4	0.0	317.8479471206665	2.492032527923584
68	292.9105656147003	pulse	1	t		66.0	2.5	/experiments/knapen_AOT/AOT_stimuli/rescaled_final/1719_fw.mp4	0.0	318.6149127483368	
68	294.5108230113983	pulse	1	t		66.0	2.5	/experiments/knapen_AOT/AOT_stimuli/rescaled_final/1719_fw.mp4	0.0	320.2151701450348	
68	294.6356325149536	fix_post	2		12	66.0	2.5	/experiments/knapen_AOT/AOT_stimuli/rescaled_final/1719_fw.mp4	0.0	320.3399796485901	0.09999823570251465
69	294.7356307506561	fix_pre	0		120	67.0	2.5	/experiments/knapen_AOT/AOT_stimuli/rescaled_final/1784_rv.mp4	0.0	320.4399778842926	1.0085208415985107
69	295.74415159225464	movie	1		278	67.0	2.5	/experiments/knapen_AOT/AOT_stimuli/rescaled_final/1784_rv.mp4	0.0	321.4484987258911	2.4920413494110107
69	296.1120500564575	pulse	1	t		67.0	2.5	/experiments/knapen_AOT/AOT_stimuli/rescaled_final/1784_rv.mp4	0.0	321.816397190094	
69	297.7112970352173	pulse	1	t		67.0	2.5	/experiments/knapen_AOT/AOT_stimuli/rescaled_final/1784_rv.mp4	0.0	323.41564416885376	
69	298.23619294166565	fix_post	2		12	67.0	2.5	/experiments/knapen_AOT/AOT_stimuli/rescaled_final/1784_rv.mp4	0.0	323.9405400753021	0.09998655319213867
70	298.3361794948578	fix_pre	0		118	68.0	2.5	/experiments/knapen_AOT/AOT_stimuli/rescaled_final/2042_rv.mp4	0.0	324.04052662849426	0.9918382167816162
70	299.3115921020508	pulse	0	t		68.0	2.5	/experiments/knapen_AOT/AOT_stimuli/rescaled_final/2042_rv.mp4	0.0	325.01593923568726	
70	299.3280177116394	movie	1		284	68.0	2.5	/experiments/knapen_AOT/AOT_stimuli/rescaled_final/2042_rv.mp4	0.0	325.0323648452759	2.5003910064697266
70	300.9109253883362	pulse	1	t		68.0	2.5	/experiments/knapen_AOT/AOT_stimuli/rescaled_final/2042_rv.mp4	0.0	326.61527252197266	
70	301.82840871810913	fix_post	2		12	68.0	2.5	/experiments/knapen_AOT/AOT_stimuli/rescaled_final/2042_rv.mp4	0.0	327.5327558517456	0.10001111030578613
71	301.9284198284149	fix_pre	0		120	69.0	2.5	/experiments/knapen_AOT/AOT_stimuli/rescaled_final/0990_rv.mp4	0.0	327.6327669620514	1.0085186958312988
71	302.5120415687561	pulse	0	t		69.0	2.5	/experiments/knapen_AOT/AOT_stimuli/rescaled_final/0990_rv.mp4	0.0	328.2163887023926	
71	302.9369385242462	movie	1		271	69.0	2.5	/experiments/knapen_AOT/AOT_stimuli/rescaled_final/0990_rv.mp4	0.0	328.6412856578827	2.491971731185913
71	304.1118140220642	pulse	1	t		69.0	2.5	/experiments/knapen_AOT/AOT_stimuli/rescaled_final/0990_rv.mp4	0.0	329.8161611557007	
71	305.42891025543213	fix_post	2		12	69.0	2.5	/experiments/knapen_AOT/AOT_stimuli/rescaled_final/0990_rv.mp4	0.0	331.1332573890686	0.10001850128173828
72	305.52892875671387	fix_pre	0		120	70.0	2.5	blank	1.0	331.23327589035034	1.0001676082611084
72	305.71248865127563	pulse	0	t		70.0	2.5	blank	1.0	331.4168357849121	
72	306.529096364975	movie	1		300	70.0	2.5	blank	1.0	332.23344349861145	2.5004019737243652
72	307.3127369880676	pulse	1	t		70.0	2.5	blank	1.0	333.0170841217041	
72	308.91301703453064	pulse	1	t		70.0	2.5	blank	1.0	334.6173641681671	
72	309.02949833869934	fix_post	2		12	70.0	2.5	blank	1.0	334.7338454723358	0.09992623329162598
73	309.12942457199097	fix_pre	0		120	71.0	2.5	/experiments/knapen_AOT/AOT_stimuli/rescaled_final/1053_rv.mp4	0.0	334.83377170562744	1.008535385131836
73	310.1379599571228	movie	1		276	71.0	2.5	/experiments/knapen_AOT/AOT_stimuli/rescaled_final/1053_rv.mp4	0.0	335.8423070907593	2.492077350616455
73	310.5117473602295	pulse	1	t		71.0	2.5	/experiments/knapen_AOT/AOT_stimuli/rescaled_final/1053_rv.mp4	0.0	336.21609449386597	
73	312.11132884025574	pulse	1	t		71.0	2.5	/experiments/knapen_AOT/AOT_stimuli/rescaled_final/1053_rv.mp4	0.0	337.8156759738922	
73	312.63003730773926	fix_post	2		12	71.0	2.5	/experiments/knapen_AOT/AOT_stimuli/rescaled_final/1053_rv.mp4	0.0	338.33438444137573	0.09997987747192383
74	312.7300171852112	fix_pre	0		119	72.0	2.5	/experiments/knapen_AOT/AOT_stimuli/rescaled_final/1186_fw.mp4	0.0	338.43436431884766	1.0001883506774902
74	313.71382761001587	pulse	0	t		72.0	2.5	/experiments/knapen_AOT/AOT_stimuli/rescaled_final/1186_fw.mp4	0.0	339.41817474365234	
74	313.7302055358887	movie	1		286	72.0	2.5	/experiments/knapen_AOT/AOT_stimuli/rescaled_final/1186_fw.mp4	0.0	339.43455266952515	2.5004279613494873
74	315.312584400177	pulse	1	t		72.0	2.5	/experiments/knapen_AOT/AOT_stimuli/rescaled_final/1186_fw.mp4	0.0	341.0169315338135	
74	316.23063349723816	fix_post	2		12	72.0	2.5	/experiments/knapen_AOT/AOT_stimuli/rescaled_final/1186_fw.mp4	0.0	341.93498063087463	0.09992718696594238
75	316.3305606842041	fix_pre	0		120	73.0	2.5	/experiments/knapen_AOT/AOT_stimuli/rescaled_final/0992_fw.mp4	0.0	342.0349078178406	1.0085210800170898
75	316.9141504764557	pulse	0	t		73.0	2.5	/experiments/knapen_AOT/AOT_stimuli/rescaled_final/0992_fw.mp4	0.0	342.61849761009216	
75	317.3390817642212	movie	1		281	73.0	2.5	/experiments/knapen_AOT/AOT_stimuli/rescaled_final/0992_fw.mp4	0.0	343.04342889785767	2.4919943809509277
75	318.51230120658875	pulse	1	t		73.0	2.5	/experiments/knapen_AOT/AOT_stimuli/rescaled_final/0992_fw.mp4	0.0	344.2166483402252	
75	319.8310761451721	fix_post	2		12	73.0	2.5	/experiments/knapen_AOT/AOT_stimuli/rescaled_final/0992_fw.mp4	0.0	345.5354232788086	0.10002303123474121
76	319.93109917640686	fix_pre	0		120	74.0	2.5	/experiments/knapen_AOT/AOT_stimuli/rescaled_final/1351_fw.mp4	0.0	345.63544631004333	1.0085554122924805
76	320.1146733760834	pulse	0	t		74.0	2.5	/experiments/knapen_AOT/AOT_stimuli/rescaled_final/1351_fw.mp4	0.0	345.81902050971985	
76	320.93965458869934	movie	1		277	74.0	2.5	/experiments/knapen_AOT/AOT_stimuli/rescaled_final/1351_fw.mp4	0.0	346.6440017223358	2.492006540298462
76	321.7128083705902	pulse	1	t		74.0	2.5	/experiments/knapen_AOT/AOT_stimuli/rescaled_final/1351_fw.mp4	0.0	347.4171555042267	
76	323.3131699562073	pulse	1	t		74.0	2.5	/experiments/knapen_AOT/AOT_stimuli/rescaled_final/1351_fw.mp4	0.0	349.01751708984375	
76	323.4316611289978	fix_post	2		12	74.0	2.5	/experiments/knapen_AOT/AOT_stimuli/rescaled_final/1351_fw.mp4	0.0	349.1360082626343	0.1000068187713623
77	323.53166794776917	fix_pre	0		120	75.0	2.5	/experiments/knapen_AOT/AOT_stimuli/rescaled_final/0181_fw.mp4	0.0	349.23601508140564	1.0084662437438965
77	324.54013419151306	movie	1		272	75.0	2.5	/experiments/knapen_AOT/AOT_stimuli/rescaled_final/0181_fw.mp4	0.0	350.24448132514954	2.492030620574951
77	324.9141192436218	pulse	1	t		75.0	2.5	/experiments/knapen_AOT/AOT_stimuli/rescaled_final/0181_fw.mp4	0.0	350.6184663772583	
77	326.5151689052582	pulse	1	t		75.0	2.5	/experiments/knapen_AOT/AOT_stimuli/rescaled_final/0181_fw.mp4	0.0	352.21951603889465	
77	327.032164812088	fix_post	2		12	75.0	2.5	/experiments/knapen_AOT/AOT_stimuli/rescaled_final/0181_fw.mp4	0.0	352.7365119457245	0.1000370979309082
78	327.1322019100189	fix_pre	0		119	76.0	2.5	/experiments/knapen_AOT/AOT_stimuli/rescaled_final/0476_fw.mp4	0.0	352.8365490436554	1.000117540359497
78	328.1159234046936	pulse	0	t		76.0	2.5	/experiments/knapen_AOT/AOT_stimuli/rescaled_final/0476_fw.mp4	0.0	353.8202705383301	
78	328.1323194503784	movie	1		268	76.0	2.5	/experiments/knapen_AOT/AOT_stimuli/rescaled_final/0476_fw.mp4	0.0	353.8366665840149	2.5004353523254395
78	329.71453332901	pulse	1	t		76.0	2.5	/experiments/knapen_AOT/AOT_stimuli/rescaled_final/0476_fw.mp4	0.0	355.4188804626465	
78	330.63275480270386	fix_post	2		12	76.0	2.5	/experiments/knapen_AOT/AOT_stimuli/rescaled_final/0476_fw.mp4	0.0	356.33710193634033	0.10004949569702148
79	330.7328042984009	fix_pre	0		120	77.0	2.5	blank	1.0	356.43715143203735	1.0000829696655273
79	331.316321849823	pulse	0	t		77.0	2.5	blank	1.0	357.0206689834595	
79	331.7328872680664	movie	1		300	77.0	2.5	blank	1.0	357.4372344017029	2.5003557205200195
79	332.9165368080139	pulse	1	t		77.0	2.5	blank	1.0	358.6208839416504	
79	334.2332429885864	fix_post	2		12	77.0	2.5	blank	1.0	359.9375901222229	0.10007381439208984
80	334.3333168029785	fix_pre	0		120	78.0	2.5	/experiments/knapen_AOT/AOT_stimuli/rescaled_final/0542_fw.mp4	0.0	360.037663936615	1.008439302444458
80	334.516765832901	pulse	0	t		78.0	2.5	/experiments/knapen_AOT/AOT_stimuli/rescaled_final/0542_fw.mp4	0.0	360.2211129665375	
80	335.341756105423	movie	1		278	78.0	2.5	/experiments/knapen_AOT/AOT_stimuli/rescaled_final/0542_fw.mp4	0.0	361.04610323905945	2.492079973220825
80	336.11707377433777	pulse	1	t		78.0	2.5	/experiments/knapen_AOT/AOT_stimuli/rescaled_final/0542_fw.mp4	0.0	361.82142090797424	
80	337.7157440185547	pulse	1	t		78.0	2.5	/experiments/knapen_AOT/AOT_stimuli/rescaled_final/0542_fw.mp4	0.0	363.42009115219116	
80	337.8338360786438	fix_post	2		12	78.0	2.5	/experiments/knapen_AOT/AOT_stimuli/rescaled_final/0542_fw.mp4	0.0	363.5381832122803	0.1000056266784668
81	337.93384170532227	fix_pre	0		120	79.0	2.5	/experiments/knapen_AOT/AOT_stimuli/rescaled_final/0337_fw.mp4	0.0	363.63818883895874	1.0084810256958008
81	338.94232273101807	movie	1		269	79.0	2.5	/experiments/knapen_AOT/AOT_stimuli/rescaled_final/0337_fw.mp4	0.0	364.64666986465454	2.492002248764038
81	339.317919254303	pulse	1	t		79.0	2.5	/experiments/knapen_AOT/AOT_stimuli/rescaled_final/0337_fw.mp4	0.0	365.02226638793945	
81	340.915593624115	pulse	1	t		79.0	2.5	/experiments/knapen_AOT/AOT_stimuli/rescaled_final/0337_fw.mp4	0.0	366.61994075775146	
81	341.4343249797821	fix_post	2		12	79.0	2.5	/experiments/knapen_AOT/AOT_stimuli/rescaled_final/0337_fw.mp4	0.0	367.1386721134186	0.10015583038330078
82	341.5344808101654	fix_pre	0		119	80.0	2.5	/experiments/knapen_AOT/AOT_stimuli/rescaled_final/0238_fw.mp4	0.0	367.2388279438019	1.0084350109100342
82	342.5181312561035	pulse	0	t		80.0	2.5	/experiments/knapen_AOT/AOT_stimuli/rescaled_final/0238_fw.mp4	0.0	368.22247838974	
82	342.54291582107544	movie	1		278	80.0	2.5	/experiments/knapen_AOT/AOT_stimuli/rescaled_final/0238_fw.mp4	0.0	368.2472629547119	2.4919872283935547
82	344.1185326576233	pulse	1	t		80.0	2.5	/experiments/knapen_AOT/AOT_stimuli/rescaled_final/0238_fw.mp4	0.0	369.82287979125977	
82	345.034903049469	fix_post	2		12	80.0	2.5	/experiments/knapen_AOT/AOT_stimuli/rescaled_final/0238_fw.mp4	0.0	370.73925018310547	0.10015296936035156
83	345.13505601882935	fix_pre	0		120	81.0	2.5	/experiments/knapen_AOT/AOT_stimuli/rescaled_final/2163_rv.mp4	0.0	370.8394031524658	1.0083255767822266
83	345.7109875679016	pulse	0	t		81.0	2.5	/experiments/knapen_AOT/AOT_stimuli/rescaled_final/2163_rv.mp4	0.0	371.4153347015381	
83	346.1433815956116	movie	1		283	81.0	2.5	/experiments/knapen_AOT/AOT_stimuli/rescaled_final/2163_rv.mp4	0.0	371.84772872924805	2.4920268058776855
83	347.3107433319092	pulse	1	t		81.0	2.5	/experiments/knapen_AOT/AOT_stimuli/rescaled_final/2163_rv.mp4	0.0	373.01509046554565	
83	348.63540840148926	fix_post	2		12	81.0	2.5	/experiments/knapen_AOT/AOT_stimuli/rescaled_final/2163_rv.mp4	0.0	374.33975553512573	0.10003399848937988
84	348.73544239997864	fix_pre	0		120	82.0	2.5	/experiments/knapen_AOT/AOT_stimuli/rescaled_final/0090_fw.mp4	0.0	374.4397895336151	1.0084922313690186
84	348.9108428955078	pulse	0	t		82.0	2.5	/experiments/knapen_AOT/AOT_stimuli/rescaled_final/0090_fw.mp4	0.0	374.6151900291443	
84	349.74393463134766	movie	1		280	82.0	2.5	/experiments/knapen_AOT/AOT_stimuli/rescaled_final/0090_fw.mp4	0.0	375.44828176498413	2.492058753967285
84	350.5109097957611	pulse	1	t		82.0	2.5	/experiments/knapen_AOT/AOT_stimuli/rescaled_final/0090_fw.mp4	0.0	376.2152569293976	
84	352.111115694046	pulse	1	t		82.0	2.5	/experiments/knapen_AOT/AOT_stimuli/rescaled_final/0090_fw.mp4	0.0	377.8154628276825	
84	352.23599338531494	fix_post	2		12	82.0	2.5	/experiments/knapen_AOT/AOT_stimuli/rescaled_final/0090_fw.mp4	0.0	377.9403405189514	0.10000467300415039
85	352.3359980583191	fix_pre	0		120	83.0	2.5	blank	1.0	378.04034519195557	1.0001106262207031
85	353.3361086845398	movie	1		300	83.0	2.5	blank	1.0	379.04045581817627	2.5004470348358154
85	353.711462020874	pulse	1	t		83.0	2.5	blank	1.0	379.4158091545105	
85	355.31172823905945	pulse	1	t		83.0	2.5	blank	1.0	381.0160753726959	
85	355.8365557193756	fix_post	2		12	83.0	2.5	blank	1.0	381.5409028530121	0.12497210502624512
87	355.96152782440186	stim	0		1712					381.66587495803833	14.26880693435669
87	356.91187143325806	pulse	0	t						382.61621856689453	
87	358.5121202468872	pulse	0	t						384.2164673805237	
87	360.112548828125	pulse	0	t						385.8168959617615	
87	361.71262407302856	pulse	0	t						387.41697120666504	
87	363.31317687034607	pulse	0	t						389.01752400398254	
87	364.9132294654846	pulse	0	t						390.6175765991211	
87	366.5135929584503	pulse	0	t						392.2179400920868	
87	368.11353373527527	pulse	0	t						393.81788086891174	
87	369.7140555381775	pulse	0	t						395.41840267181396	
