trial_nr	onset	event_type	phase	response	nr_frames	movie_index	movie_duration	movie_file	blank	onset_abs	duration
0	0.16631603240966797	stim	0		1					16.361369132995605	0.00823664665222168
0	0.11082053184509277	response	0	space						16.30587363243103	
1	0.17455267906188965	stim	0		4670					16.369605779647827	38.933825731277466
1	39.098469495773315	pulse	0	t						55.29352259635925	
1	39.108378410339355	stim	1		1716					55.30343151092529	14.307440042495728
1	40.68912148475647	pulse	1	t						56.88417458534241	
1	42.28937101364136	pulse	1	t						58.484424114227295	
1	43.88959765434265	pulse	1	t						60.08465075492859	
1	45.48980498313904	pulse	1	t						61.684858083724976	
1	47.08998394012451	pulse	1	t						63.28503704071045	
1	48.69023036956787	pulse	1	t						64.88528347015381	
1	50.29084920883179	pulse	1	t						66.48590230941772	
1	51.890958309173584	pulse	1	t						68.08601140975952	
2	53.41581845283508	fix_pre	0		10	0.0	2.5	/experiments/knapen_AOT/AOT_stimuli/rescaled_final/1471_fw.mp4	0.0	69.61087155342102	0.10004425048828125
2	53.49099922180176	pulse	0	t		0.0	2.5	/experiments/knapen_AOT/AOT_stimuli/rescaled_final/1471_fw.mp4	0.0	69.6860523223877	
2	53.515862703323364	movie	1		262	0.0	2.5	/experiments/knapen_AOT/AOT_stimuli/rescaled_final/1471_fw.mp4	0.0	69.7109158039093	2.49208664894104
2	55.09078073501587	pulse	1	t		0.0	2.5	/experiments/knapen_AOT/AOT_stimuli/rescaled_final/1471_fw.mp4	0.0	71.2858338356018	
2	56.007949352264404	fix_post	2		12	0.0	2.5	/experiments/knapen_AOT/AOT_stimuli/rescaled_final/1471_fw.mp4	0.0	72.20300245285034	0.10001683235168457
3	56.10796618461609	fix_pre	0		120	1.0	2.5	/experiments/knapen_AOT/AOT_stimuli/rescaled_final/1070_fw.mp4	0.0	72.30301928520203	1.008432388305664
3	56.691580057144165	pulse	0	t		1.0	2.5	/experiments/knapen_AOT/AOT_stimuli/rescaled_final/1070_fw.mp4	0.0	72.8866331577301	
3	57.11639857292175	movie	1		267	1.0	2.5	/experiments/knapen_AOT/AOT_stimuli/rescaled_final/1070_fw.mp4	0.0	73.31145167350769	2.49208927154541
3	58.290239095687866	pulse	1	t		1.0	2.5	/experiments/knapen_AOT/AOT_stimuli/rescaled_final/1070_fw.mp4	0.0	74.4852921962738	
3	59.60848784446716	fix_post	2		12	1.0	2.5	/experiments/knapen_AOT/AOT_stimuli/rescaled_final/1070_fw.mp4	0.0	75.8035409450531	0.09993553161621094
4	59.708423376083374	fix_pre	0		120	2.0	2.5	/experiments/knapen_AOT/AOT_stimuli/rescaled_final/1767_rv.mp4	0.0	75.90347647666931	1.0085253715515137
4	59.89206600189209	pulse	0	t		2.0	2.5	/experiments/knapen_AOT/AOT_stimuli/rescaled_final/1767_rv.mp4	0.0	76.08711910247803	
4	60.71694874763489	movie	1		271	2.0	2.5	/experiments/knapen_AOT/AOT_stimuli/rescaled_final/1767_rv.mp4	0.0	76.91200184822083	2.4921793937683105
4	61.49066209793091	pulse	1	t		2.0	2.5	/experiments/knapen_AOT/AOT_stimuli/rescaled_final/1767_rv.mp4	0.0	77.68571519851685	
4	63.09257936477661	pulse	1	t		2.0	2.5	/experiments/knapen_AOT/AOT_stimuli/rescaled_final/1767_rv.mp4	0.0	79.28763246536255	
4	63.2091281414032	fix_post	2		12	2.0	2.5	/experiments/knapen_AOT/AOT_stimuli/rescaled_final/1767_rv.mp4	0.0	79.40418124198914	0.10007333755493164
5	63.30920147895813	fix_pre	0		120	3.0	2.5	/experiments/knapen_AOT/AOT_stimuli/rescaled_final/0716_rv.mp4	0.0	79.50425457954407	1.0082974433898926
5	64.31749892234802	movie	1		274	3.0	2.5	/experiments/knapen_AOT/AOT_stimuli/rescaled_final/0716_rv.mp4	0.0	80.51255202293396	2.4920125007629395
5	64.69075083732605	pulse	1	t		3.0	2.5	/experiments/knapen_AOT/AOT_stimuli/rescaled_final/0716_rv.mp4	0.0	80.88580393791199	
5	66.2905285358429	pulse	1	t		3.0	2.5	/experiments/knapen_AOT/AOT_stimuli/rescaled_final/0716_rv.mp4	0.0	82.48558163642883	
5	66.80951142311096	fix_post	2		12	3.0	2.5	/experiments/knapen_AOT/AOT_stimuli/rescaled_final/0716_rv.mp4	0.0	83.0045645236969	0.10000467300415039
6	66.90951609611511	fix_pre	0		119	4.0	2.5	/experiments/knapen_AOT/AOT_stimuli/rescaled_final/0070_rv.mp4	0.0	83.10456919670105	1.0001721382141113
6	67.89319777488708	pulse	0	t		4.0	2.5	/experiments/knapen_AOT/AOT_stimuli/rescaled_final/0070_rv.mp4	0.0	84.08825087547302	
6	67.90968823432922	movie	1		281	4.0	2.5	/experiments/knapen_AOT/AOT_stimuli/rescaled_final/0070_rv.mp4	0.0	84.10474133491516	2.500371217727661
6	69.49221849441528	pulse	1	t		4.0	2.5	/experiments/knapen_AOT/AOT_stimuli/rescaled_final/0070_rv.mp4	0.0	85.68727159500122	
6	70.41005945205688	fix_post	2		12	4.0	2.5	/experiments/knapen_AOT/AOT_stimuli/rescaled_final/0070_rv.mp4	0.0	86.60511255264282	0.10008955001831055
7	70.5101490020752	fix_pre	0		120	5.0	2.5	blank	1.0	86.70520210266113	1.0000700950622559
7	71.09369134902954	pulse	0	t		5.0	2.5	blank	1.0	87.28874444961548	
7	71.51021909713745	movie	1		300	5.0	2.5	blank	1.0	87.70527219772339	2.5003554821014404
7	72.6938705444336	pulse	1	t		5.0	2.5	blank	1.0	88.88892364501953	
7	74.01057457923889	fix_post	2		12	5.0	2.5	blank	1.0	90.20562767982483	0.10002970695495605
8	74.11060428619385	fix_pre	0		120	6.0	2.5	/experiments/knapen_AOT/AOT_stimuli/rescaled_final/2031_rv.mp4	0.0	90.30565738677979	1.0086536407470703
8	74.29412341117859	pulse	0	t		6.0	2.5	/experiments/knapen_AOT/AOT_stimuli/rescaled_final/2031_rv.mp4	0.0	90.48917651176453	
8	75.11925792694092	movie	1		263	6.0	2.5	/experiments/knapen_AOT/AOT_stimuli/rescaled_final/2031_rv.mp4	0.0	91.31431102752686	2.491856575012207
8	75.89243650436401	pulse	1	t		6.0	2.5	/experiments/knapen_AOT/AOT_stimuli/rescaled_final/2031_rv.mp4	0.0	92.08748960494995	
8	77.4925012588501	pulse	1	t		6.0	2.5	/experiments/knapen_AOT/AOT_stimuli/rescaled_final/2031_rv.mp4	0.0	93.68755435943604	
8	77.61111450195312	fix_post	2		12	6.0	2.5	/experiments/knapen_AOT/AOT_stimuli/rescaled_final/2031_rv.mp4	0.0	93.80616760253906	0.10010766983032227
9	77.71122217178345	fix_pre	0		120	7.0	2.5	/experiments/knapen_AOT/AOT_stimuli/rescaled_final/1703_rv.mp4	0.0	93.90627527236938	1.0084795951843262
9	78.71970176696777	movie	1		267	7.0	2.5	/experiments/knapen_AOT/AOT_stimuli/rescaled_final/1703_rv.mp4	0.0	94.91475486755371	2.4919610023498535
9	79.09316968917847	pulse	1	t		7.0	2.5	/experiments/knapen_AOT/AOT_stimuli/rescaled_final/1703_rv.mp4	0.0	95.2882227897644	
9	80.69518041610718	pulse	1	t		7.0	2.5	/experiments/knapen_AOT/AOT_stimuli/rescaled_final/1703_rv.mp4	0.0	96.89023351669312	
9	81.21166276931763	fix_post	2		12	7.0	2.5	/experiments/knapen_AOT/AOT_stimuli/rescaled_final/1703_rv.mp4	0.0	97.40671586990356	0.10001611709594727
10	81.31167888641357	fix_pre	0		119	8.0	2.5	/experiments/knapen_AOT/AOT_stimuli/rescaled_final/0977_rv.mp4	0.0	97.50673198699951	1.000152826309204
10	82.29529047012329	pulse	0	t		8.0	2.5	/experiments/knapen_AOT/AOT_stimuli/rescaled_final/0977_rv.mp4	0.0	98.49034357070923	
10	82.31183171272278	movie	1		272	8.0	2.5	/experiments/knapen_AOT/AOT_stimuli/rescaled_final/0977_rv.mp4	0.0	98.50688481330872	2.5087318420410156
10	83.89431405067444	pulse	1	t		8.0	2.5	/experiments/knapen_AOT/AOT_stimuli/rescaled_final/0977_rv.mp4	0.0	100.08936715126038	
10	84.8205635547638	fix_post	2		11	8.0	2.5	/experiments/knapen_AOT/AOT_stimuli/rescaled_final/0977_rv.mp4	0.0	101.01561665534973	0.0917348861694336
11	84.91229844093323	fix_pre	0		120	9.0	2.5	/experiments/knapen_AOT/AOT_stimuli/rescaled_final/1555_fw.mp4	0.0	101.10735154151917	1.0084614753723145
11	85.48815727233887	pulse	0	t		9.0	2.5	/experiments/knapen_AOT/AOT_stimuli/rescaled_final/1555_fw.mp4	0.0	101.6832103729248	
11	85.92075991630554	movie	1		272	9.0	2.5	/experiments/knapen_AOT/AOT_stimuli/rescaled_final/1555_fw.mp4	0.0	102.11581301689148	2.4919872283935547
11	87.09439873695374	pulse	1	t		9.0	2.5	/experiments/knapen_AOT/AOT_stimuli/rescaled_final/1555_fw.mp4	0.0	103.28945183753967	
11	88.4127471446991	fix_post	2		12	9.0	2.5	/experiments/knapen_AOT/AOT_stimuli/rescaled_final/1555_fw.mp4	0.0	104.60780024528503	0.1000220775604248
12	88.51276922225952	fix_pre	0		120	10.0	2.5	/experiments/knapen_AOT/AOT_stimuli/rescaled_final/1537_fw.mp4	0.0	104.70782232284546	1.0085012912750244
12	88.68833255767822	pulse	0	t		10.0	2.5	/experiments/knapen_AOT/AOT_stimuli/rescaled_final/1537_fw.mp4	0.0	104.88338565826416	
12	89.52127051353455	movie	1		266	10.0	2.5	/experiments/knapen_AOT/AOT_stimuli/rescaled_final/1537_fw.mp4	0.0	105.71632361412048	2.4920737743377686
12	90.28818535804749	pulse	1	t		10.0	2.5	/experiments/knapen_AOT/AOT_stimuli/rescaled_final/1537_fw.mp4	0.0	106.48323845863342	
12	91.88864040374756	pulse	1	t		10.0	2.5	/experiments/knapen_AOT/AOT_stimuli/rescaled_final/1537_fw.mp4	0.0	108.0836935043335	
12	92.01334428787231	fix_post	2		12	10.0	2.5	/experiments/knapen_AOT/AOT_stimuli/rescaled_final/1537_fw.mp4	0.0	108.20839738845825	0.10007643699645996
13	92.11342072486877	fix_pre	0		120	11.0	2.5	/experiments/knapen_AOT/AOT_stimuli/rescaled_final/0108_fw.mp4	0.0	108.30847382545471	1.0084173679351807
13	93.12183809280396	movie	1		274	11.0	2.5	/experiments/knapen_AOT/AOT_stimuli/rescaled_final/0108_fw.mp4	0.0	109.31689119338989	2.4920313358306885
13	93.48866438865662	pulse	1	t		11.0	2.5	/experiments/knapen_AOT/AOT_stimuli/rescaled_final/0108_fw.mp4	0.0	109.68371748924255	
13	95.08894777297974	pulse	1	t		11.0	2.5	/experiments/knapen_AOT/AOT_stimuli/rescaled_final/0108_fw.mp4	0.0	111.28400087356567	
13	95.61386942863464	fix_post	2		12	11.0	2.5	/experiments/knapen_AOT/AOT_stimuli/rescaled_final/0108_fw.mp4	0.0	111.80892252922058	0.09998178482055664
14	95.7138512134552	fix_pre	0		118	12.0	2.5	/experiments/knapen_AOT/AOT_stimuli/rescaled_final/0043_fw.mp4	0.0	111.90890431404114	0.991854190826416
14	96.68930625915527	pulse	0	t		12.0	2.5	/experiments/knapen_AOT/AOT_stimuli/rescaled_final/0043_fw.mp4	0.0	112.88435935974121	
14	96.70570540428162	movie	1		258	12.0	2.5	/experiments/knapen_AOT/AOT_stimuli/rescaled_final/0043_fw.mp4	0.0	112.90075850486755	2.5003745555877686
14	98.28811550140381	pulse	1	t		12.0	2.5	/experiments/knapen_AOT/AOT_stimuli/rescaled_final/0043_fw.mp4	0.0	114.48316860198975	
14	99.20607995986938	fix_post	2		12	12.0	2.5	/experiments/knapen_AOT/AOT_stimuli/rescaled_final/0043_fw.mp4	0.0	115.40113306045532	0.0999915599822998
15	99.30607151985168	fix_pre	0		120	13.0	2.5	/experiments/knapen_AOT/AOT_stimuli/rescaled_final/1435_fw.mp4	0.0	115.50112462043762	1.008481502532959
15	99.8896381855011	pulse	0	t		13.0	2.5	/experiments/knapen_AOT/AOT_stimuli/rescaled_final/1435_fw.mp4	0.0	116.08469128608704	
15	100.31455302238464	movie	1		281	13.0	2.5	/experiments/knapen_AOT/AOT_stimuli/rescaled_final/1435_fw.mp4	0.0	116.50960612297058	2.492053270339966
15	101.4898853302002	pulse	1	t		13.0	2.5	/experiments/knapen_AOT/AOT_stimuli/rescaled_final/1435_fw.mp4	0.0	117.68493843078613	
15	102.80660629272461	fix_post	2		12	13.0	2.5	/experiments/knapen_AOT/AOT_stimuli/rescaled_final/1435_fw.mp4	0.0	119.00165939331055	0.10018157958984375
16	102.90678787231445	fix_pre	0		120	14.0	2.5	blank	1.0	119.10184097290039	0.999948263168335
16	103.09010434150696	pulse	0	t		14.0	2.5	blank	1.0	119.2851574420929	
16	103.90673613548279	movie	1		300	14.0	2.5	blank	1.0	120.10178923606873	2.5004336833953857
16	104.69039726257324	pulse	1	t		14.0	2.5	blank	1.0	120.88545036315918	
16	106.29056596755981	pulse	1	t		14.0	2.5	blank	1.0	122.48561906814575	
16	106.40716981887817	fix_post	2		12	14.0	2.5	blank	1.0	122.60222291946411	0.0999612808227539
17	106.50713109970093	fix_pre	0		120	15.0	2.5	/experiments/knapen_AOT/AOT_stimuli/rescaled_final/0821_fw.mp4	0.0	122.70218420028687	1.0085842609405518
17	107.51571536064148	movie	1		277	15.0	2.5	/experiments/knapen_AOT/AOT_stimuli/rescaled_final/0821_fw.mp4	0.0	123.71076846122742	2.491950273513794
17	107.8903579711914	pulse	1	t		15.0	2.5	/experiments/knapen_AOT/AOT_stimuli/rescaled_final/0821_fw.mp4	0.0	124.08541107177734	
17	109.48888111114502	pulse	1	t		15.0	2.5	/experiments/knapen_AOT/AOT_stimuli/rescaled_final/0821_fw.mp4	0.0	125.68393421173096	
17	110.00766563415527	fix_post	2		12	15.0	2.5	/experiments/knapen_AOT/AOT_stimuli/rescaled_final/0821_fw.mp4	0.0	126.20271873474121	0.10004973411560059
18	110.10771536827087	fix_pre	0		119	16.0	2.5	/experiments/knapen_AOT/AOT_stimuli/rescaled_final/0690_rv.mp4	0.0	126.30276846885681	1.0001184940338135
18	111.09137535095215	pulse	0	t		16.0	2.5	/experiments/knapen_AOT/AOT_stimuli/rescaled_final/0690_rv.mp4	0.0	127.28642845153809	
18	111.10783386230469	movie	1		267	16.0	2.5	/experiments/knapen_AOT/AOT_stimuli/rescaled_final/0690_rv.mp4	0.0	127.30288696289062	2.5003695487976074
18	112.69151401519775	pulse	1	t		16.0	2.5	/experiments/knapen_AOT/AOT_stimuli/rescaled_final/0690_rv.mp4	0.0	128.8865671157837	
18	113.6082034111023	fix_post	2		12	16.0	2.5	/experiments/knapen_AOT/AOT_stimuli/rescaled_final/0690_rv.mp4	0.0	129.80325651168823	0.10007190704345703
19	113.70827531814575	fix_pre	0		120	17.0	2.5	/experiments/knapen_AOT/AOT_stimuli/rescaled_final/0559_fw.mp4	0.0	129.9033284187317	1.0085322856903076
19	114.29178762435913	pulse	0	t		17.0	2.5	/experiments/knapen_AOT/AOT_stimuli/rescaled_final/0559_fw.mp4	0.0	130.48684072494507	
19	114.71680760383606	movie	1		282	17.0	2.5	/experiments/knapen_AOT/AOT_stimuli/rescaled_final/0559_fw.mp4	0.0	130.911860704422	2.4919447898864746
19	115.89074110984802	pulse	1	t		17.0	2.5	/experiments/knapen_AOT/AOT_stimuli/rescaled_final/0559_fw.mp4	0.0	132.08579421043396	
19	117.20875239372253	fix_post	2		12	17.0	2.5	/experiments/knapen_AOT/AOT_stimuli/rescaled_final/0559_fw.mp4	0.0	133.40380549430847	0.10002803802490234
20	117.30878043174744	fix_pre	0		120	18.0	2.5	/experiments/knapen_AOT/AOT_stimuli/rescaled_final/1282_fw.mp4	0.0	133.50383353233337	1.0084710121154785
20	117.49229836463928	pulse	0	t		18.0	2.5	/experiments/knapen_AOT/AOT_stimuli/rescaled_final/1282_fw.mp4	0.0	133.68735146522522	
20	118.31725144386292	movie	1		255	18.0	2.5	/experiments/knapen_AOT/AOT_stimuli/rescaled_final/1282_fw.mp4	0.0	134.51230454444885	2.4920766353607178
20	119.09283471107483	pulse	1	t		18.0	2.5	/experiments/knapen_AOT/AOT_stimuli/rescaled_final/1282_fw.mp4	0.0	135.28788781166077	
20	120.6918637752533	pulse	1	t		18.0	2.5	/experiments/knapen_AOT/AOT_stimuli/rescaled_final/1282_fw.mp4	0.0	136.88691687583923	
20	120.80932807922363	fix_post	2		12	18.0	2.5	/experiments/knapen_AOT/AOT_stimuli/rescaled_final/1282_fw.mp4	0.0	137.00438117980957	0.0999906063079834
21	120.90931868553162	fix_pre	0		120	19.0	2.5	/experiments/knapen_AOT/AOT_stimuli/rescaled_final/2067_fw.mp4	0.0	137.10437178611755	1.0084805488586426
21	121.91779923439026	movie	1		272	19.0	2.5	/experiments/knapen_AOT/AOT_stimuli/rescaled_final/2067_fw.mp4	0.0	138.1128523349762	2.492027759552002
21	122.29325938224792	pulse	1	t		19.0	2.5	/experiments/knapen_AOT/AOT_stimuli/rescaled_final/2067_fw.mp4	0.0	138.48831248283386	
21	123.89260530471802	pulse	1	t		19.0	2.5	/experiments/knapen_AOT/AOT_stimuli/rescaled_final/2067_fw.mp4	0.0	140.08765840530396	
21	124.40982699394226	fix_post	2		12	19.0	2.5	/experiments/knapen_AOT/AOT_stimuli/rescaled_final/2067_fw.mp4	0.0	140.6048800945282	0.10001778602600098
22	124.50984477996826	fix_pre	0		119	20.0	2.5	blank	1.0	140.7048978805542	0.9918065071105957
22	125.49345636367798	pulse	0	t		20.0	2.5	blank	1.0	141.68850946426392	
22	125.50165128707886	movie	1		301	20.0	2.5	blank	1.0	141.6967043876648	2.5087475776672363
22	127.09370446205139	pulse	1	t		20.0	2.5	blank	1.0	143.28875756263733	
22	128.0103988647461	fix_post	2		12	20.0	2.5	blank	1.0	144.20545196533203	0.10001206398010254
23	128.1104109287262	fix_pre	0		120	21.0	2.5	/experiments/knapen_AOT/AOT_stimuli/rescaled_final/0858_rv.mp4	0.0	144.30546402931213	1.0084624290466309
23	128.69417643547058	pulse	0	t		21.0	2.5	/experiments/knapen_AOT/AOT_stimuli/rescaled_final/0858_rv.mp4	0.0	144.88922953605652	
23	129.11887335777283	movie	1		277	21.0	2.5	/experiments/knapen_AOT/AOT_stimuli/rescaled_final/0858_rv.mp4	0.0	145.31392645835876	2.492067337036133
23	130.29233813285828	pulse	1	t		21.0	2.5	/experiments/knapen_AOT/AOT_stimuli/rescaled_final/0858_rv.mp4	0.0	146.4873912334442	
23	131.61094069480896	fix_post	2		12	21.0	2.5	/experiments/knapen_AOT/AOT_stimuli/rescaled_final/0858_rv.mp4	0.0	147.8059937953949	0.10001730918884277
24	131.7109580039978	fix_pre	0		120	22.0	2.5	/experiments/knapen_AOT/AOT_stimuli/rescaled_final/0129_rv.mp4	0.0	147.90601110458374	1.0085172653198242
24	131.89443802833557	pulse	0	t		22.0	2.5	/experiments/knapen_AOT/AOT_stimuli/rescaled_final/0129_rv.mp4	0.0	148.0894911289215	
24	132.71947526931763	movie	1		263	22.0	2.5	/experiments/knapen_AOT/AOT_stimuli/rescaled_final/0129_rv.mp4	0.0	148.91452836990356	2.4919607639312744
24	133.49407839775085	pulse	1	t		22.0	2.5	/experiments/knapen_AOT/AOT_stimuli/rescaled_final/0129_rv.mp4	0.0	149.6891314983368	
24	135.0926992893219	pulse	1	t		22.0	2.5	/experiments/knapen_AOT/AOT_stimuli/rescaled_final/0129_rv.mp4	0.0	151.28775238990784	
24	135.2114360332489	fix_post	2		12	22.0	2.5	/experiments/knapen_AOT/AOT_stimuli/rescaled_final/0129_rv.mp4	0.0	151.40648913383484	0.10016965866088867
25	135.3116056919098	fix_pre	0		120	23.0	2.5	/experiments/knapen_AOT/AOT_stimuli/rescaled_final/0670_rv.mp4	0.0	151.50665879249573	1.0083584785461426
25	136.31996417045593	movie	1		267	23.0	2.5	/experiments/knapen_AOT/AOT_stimuli/rescaled_final/0670_rv.mp4	0.0	152.51501727104187	2.5003626346588135
25	136.69561457633972	pulse	1	t		23.0	2.5	/experiments/knapen_AOT/AOT_stimuli/rescaled_final/0670_rv.mp4	0.0	152.89066767692566	
25	138.29370498657227	pulse	1	t		23.0	2.5	/experiments/knapen_AOT/AOT_stimuli/rescaled_final/0670_rv.mp4	0.0	154.4887580871582	
25	138.82032680511475	fix_post	2		11	23.0	2.5	/experiments/knapen_AOT/AOT_stimuli/rescaled_final/0670_rv.mp4	0.0	155.01537990570068	0.09173035621643066
26	138.91205716133118	fix_pre	0		118	24.0	2.5	/experiments/knapen_AOT/AOT_stimuli/rescaled_final/0105_fw.mp4	0.0	155.10711026191711	0.9917745590209961
26	139.8877353668213	pulse	0	t		24.0	2.5	/experiments/knapen_AOT/AOT_stimuli/rescaled_final/0105_fw.mp4	0.0	156.08278846740723	
26	139.90383172035217	movie	1		275	24.0	2.5	/experiments/knapen_AOT/AOT_stimuli/rescaled_final/0105_fw.mp4	0.0	156.0988848209381	2.500382661819458
26	141.4874930381775	pulse	1	t		24.0	2.5	/experiments/knapen_AOT/AOT_stimuli/rescaled_final/0105_fw.mp4	0.0	157.68254613876343	
26	142.40421438217163	fix_post	2		12	24.0	2.5	/experiments/knapen_AOT/AOT_stimuli/rescaled_final/0105_fw.mp4	0.0	158.59926748275757	0.0999901294708252
27	142.50420451164246	fix_pre	0		120	25.0	2.5	/experiments/knapen_AOT/AOT_stimuli/rescaled_final/0178_fw.mp4	0.0	158.6992576122284	1.0085036754608154
27	143.0877878665924	pulse	0	t		25.0	2.5	/experiments/knapen_AOT/AOT_stimuli/rescaled_final/0178_fw.mp4	0.0	159.28284096717834	
27	143.51270818710327	movie	1		274	25.0	2.5	/experiments/knapen_AOT/AOT_stimuli/rescaled_final/0178_fw.mp4	0.0	159.7077612876892	2.492072343826294
27	144.68828773498535	pulse	1	t		25.0	2.5	/experiments/knapen_AOT/AOT_stimuli/rescaled_final/0178_fw.mp4	0.0	160.8833408355713	
27	146.00478053092957	fix_post	2		12	25.0	2.5	/experiments/knapen_AOT/AOT_stimuli/rescaled_final/0178_fw.mp4	0.0	162.1998336315155	0.09998869895935059
28	146.10476922988892	fix_pre	0		120	26.0	2.5	blank	1.0	162.29982233047485	1.0001466274261475
28	146.28826808929443	pulse	0	t		26.0	2.5	blank	1.0	162.48332118988037	
28	147.10491585731506	movie	1		300	26.0	2.5	blank	1.0	163.299968957901	2.5003957748413086
28	147.88858270645142	pulse	1	t		26.0	2.5	blank	1.0	164.08363580703735	
28	149.48911356925964	pulse	1	t		26.0	2.5	blank	1.0	165.68416666984558	
28	149.60531163215637	fix_post	2		12	26.0	2.5	blank	1.0	165.8003647327423	0.09999275207519531
29	149.70530438423157	fix_pre	0		120	27.0	2.5	/experiments/knapen_AOT/AOT_stimuli/rescaled_final/0966_fw.mp4	0.0	165.9003574848175	1.0084991455078125
29	150.71380352973938	movie	1		278	27.0	2.5	/experiments/knapen_AOT/AOT_stimuli/rescaled_final/0966_fw.mp4	0.0	166.90885663032532	2.492075204849243
29	151.08836197853088	pulse	1	t		27.0	2.5	/experiments/knapen_AOT/AOT_stimuli/rescaled_final/0966_fw.mp4	0.0	167.28341507911682	
29	152.68933725357056	pulse	1	t		27.0	2.5	/experiments/knapen_AOT/AOT_stimuli/rescaled_final/0966_fw.mp4	0.0	168.8843903541565	
29	153.20587873458862	fix_post	2		12	27.0	2.5	/experiments/knapen_AOT/AOT_stimuli/rescaled_final/0966_fw.mp4	0.0	169.40093183517456	0.09995627403259277
30	153.30583500862122	fix_pre	0		119	28.0	2.5	/experiments/knapen_AOT/AOT_stimuli/rescaled_final/1139_fw.mp4	0.0	169.50088810920715	1.0002343654632568
30	154.28950428962708	pulse	0	t		28.0	2.5	/experiments/knapen_AOT/AOT_stimuli/rescaled_final/1139_fw.mp4	0.0	170.484557390213	
30	154.30606937408447	movie	1		266	28.0	2.5	/experiments/knapen_AOT/AOT_stimuli/rescaled_final/1139_fw.mp4	0.0	170.5011224746704	2.5002763271331787
30	155.88801288604736	pulse	1	t		28.0	2.5	/experiments/knapen_AOT/AOT_stimuli/rescaled_final/1139_fw.mp4	0.0	172.0830659866333	
30	156.80634570121765	fix_post	2		12	28.0	2.5	/experiments/knapen_AOT/AOT_stimuli/rescaled_final/1139_fw.mp4	0.0	173.0013988018036	0.10011744499206543
31	156.90646314620972	fix_pre	0		120	29.0	2.5	/experiments/knapen_AOT/AOT_stimuli/rescaled_final/1812_fw.mp4	0.0	173.10151624679565	1.0084245204925537
31	157.48994755744934	pulse	0	t		29.0	2.5	/experiments/knapen_AOT/AOT_stimuli/rescaled_final/1812_fw.mp4	0.0	173.68500065803528	
31	157.91488766670227	movie	1		278	29.0	2.5	/experiments/knapen_AOT/AOT_stimuli/rescaled_final/1812_fw.mp4	0.0	174.1099407672882	2.492079496383667
31	159.08917689323425	pulse	1	t		29.0	2.5	/experiments/knapen_AOT/AOT_stimuli/rescaled_final/1812_fw.mp4	0.0	175.2842299938202	
31	160.40696716308594	fix_post	2		12	29.0	2.5	/experiments/knapen_AOT/AOT_stimuli/rescaled_final/1812_fw.mp4	0.0	176.60202026367188	0.09997081756591797
32	160.50693798065186	fix_pre	0		120	30.0	2.5	/experiments/knapen_AOT/AOT_stimuli/rescaled_final/2009_fw.mp4	0.0	176.7019910812378	1.0084669589996338
32	160.69050979614258	pulse	0	t		30.0	2.5	/experiments/knapen_AOT/AOT_stimuli/rescaled_final/2009_fw.mp4	0.0	176.88556289672852	
32	161.5154049396515	movie	1		267	30.0	2.5	/experiments/knapen_AOT/AOT_stimuli/rescaled_final/2009_fw.mp4	0.0	177.71045804023743	2.4920291900634766
32	162.28849530220032	pulse	1	t		30.0	2.5	/experiments/knapen_AOT/AOT_stimuli/rescaled_final/2009_fw.mp4	0.0	178.48354840278625	
32	163.89166975021362	pulse	1	t		30.0	2.5	/experiments/knapen_AOT/AOT_stimuli/rescaled_final/2009_fw.mp4	0.0	180.08672285079956	
32	164.00743412971497	fix_post	2		12	30.0	2.5	/experiments/knapen_AOT/AOT_stimuli/rescaled_final/2009_fw.mp4	0.0	180.2024872303009	0.10004019737243652
33	164.1074743270874	fix_pre	0		120	31.0	2.5	/experiments/knapen_AOT/AOT_stimuli/rescaled_final/0752_rv.mp4	0.0	180.30252742767334	1.0084991455078125
33	165.11597347259521	movie	1		292	31.0	2.5	/experiments/knapen_AOT/AOT_stimuli/rescaled_final/0752_rv.mp4	0.0	181.31102657318115	2.492041826248169
33	165.48959159851074	pulse	1	t		31.0	2.5	/experiments/knapen_AOT/AOT_stimuli/rescaled_final/0752_rv.mp4	0.0	181.68464469909668	
33	167.08938598632812	pulse	1	t		31.0	2.5	/experiments/knapen_AOT/AOT_stimuli/rescaled_final/0752_rv.mp4	0.0	183.28443908691406	
33	167.60801529884338	fix_post	2		12	31.0	2.5	/experiments/knapen_AOT/AOT_stimuli/rescaled_final/0752_rv.mp4	0.0	183.80306839942932	0.10005831718444824
34	167.70807361602783	fix_pre	0		119	32.0	2.5	/experiments/knapen_AOT/AOT_stimuli/rescaled_final/0129_rv.mp4	0.0	183.90312671661377	1.000087022781372
34	168.69166898727417	pulse	0	t		32.0	2.5	/experiments/knapen_AOT/AOT_stimuli/rescaled_final/0129_rv.mp4	0.0	184.8867220878601	
34	168.7081606388092	movie	1		285	32.0	2.5	/experiments/knapen_AOT/AOT_stimuli/rescaled_final/0129_rv.mp4	0.0	184.90321373939514	2.5003645420074463
34	170.29050302505493	pulse	1	t		32.0	2.5	/experiments/knapen_AOT/AOT_stimuli/rescaled_final/0129_rv.mp4	0.0	186.48555612564087	
34	171.20852518081665	fix_post	2		12	32.0	2.5	/experiments/knapen_AOT/AOT_stimuli/rescaled_final/0129_rv.mp4	0.0	187.4035782814026	0.10002899169921875
35	171.30855417251587	fix_pre	0		120	33.0	2.5	blank	1.0	187.5036072731018	1.0001587867736816
35	171.89237117767334	pulse	0	t		33.0	2.5	blank	1.0	188.08742427825928	
35	172.30871295928955	movie	1		300	33.0	2.5	blank	1.0	188.5037660598755	2.5003693103790283
35	173.49239587783813	pulse	1	t		33.0	2.5	blank	1.0	189.68744897842407	
35	174.80908226966858	fix_post	2		12	33.0	2.5	blank	1.0	191.00413537025452	0.10004973411560059
36	174.90913200378418	fix_pre	0		120	34.0	2.5	/experiments/knapen_AOT/AOT_stimuli/rescaled_final/0105_rv.mp4	0.0	191.10418510437012	1.0084662437438965
36	175.09260058403015	pulse	0	t		34.0	2.5	/experiments/knapen_AOT/AOT_stimuli/rescaled_final/0105_rv.mp4	0.0	191.2876536846161	
36	175.91759824752808	movie	1		281	34.0	2.5	/experiments/knapen_AOT/AOT_stimuli/rescaled_final/0105_rv.mp4	0.0	192.112651348114	2.4920125007629395
36	176.69065880775452	pulse	1	t		34.0	2.5	/experiments/knapen_AOT/AOT_stimuli/rescaled_final/0105_rv.mp4	0.0	192.88571190834045	
36	178.29093217849731	pulse	1	t		34.0	2.5	/experiments/knapen_AOT/AOT_stimuli/rescaled_final/0105_rv.mp4	0.0	194.48598527908325	
36	178.40961074829102	fix_post	2		12	34.0	2.5	/experiments/knapen_AOT/AOT_stimuli/rescaled_final/0105_rv.mp4	0.0	194.60466384887695	0.10001945495605469
37	178.50963020324707	fix_pre	0		120	35.0	2.5	/experiments/knapen_AOT/AOT_stimuli/rescaled_final/0367_rv.mp4	0.0	194.704683303833	1.0086348056793213
37	179.5182650089264	movie	1		278	35.0	2.5	/experiments/knapen_AOT/AOT_stimuli/rescaled_final/0367_rv.mp4	0.0	195.71331810951233	2.491899251937866
37	179.89162230491638	pulse	1	t		35.0	2.5	/experiments/knapen_AOT/AOT_stimuli/rescaled_final/0367_rv.mp4	0.0	196.08667540550232	
37	181.4917209148407	pulse	1	t		35.0	2.5	/experiments/knapen_AOT/AOT_stimuli/rescaled_final/0367_rv.mp4	0.0	197.68677401542664	
37	182.01016426086426	fix_post	2		12	35.0	2.5	/experiments/knapen_AOT/AOT_stimuli/rescaled_final/0367_rv.mp4	0.0	198.2052173614502	0.10001564025878906
38	182.11017990112305	fix_pre	0		119	36.0	2.5	/experiments/knapen_AOT/AOT_stimuli/rescaled_final/1634_rv.mp4	0.0	198.30523300170898	1.000166654586792
38	183.0937774181366	pulse	0	t		36.0	2.5	/experiments/knapen_AOT/AOT_stimuli/rescaled_final/1634_rv.mp4	0.0	199.28883051872253	
38	183.11034655570984	movie	1		295	36.0	2.5	/experiments/knapen_AOT/AOT_stimuli/rescaled_final/1634_rv.mp4	0.0	199.30539965629578	2.5004429817199707
38	184.69232368469238	pulse	1	t		36.0	2.5	/experiments/knapen_AOT/AOT_stimuli/rescaled_final/1634_rv.mp4	0.0	200.88737678527832	
38	185.6107895374298	fix_post	2		12	36.0	2.5	/experiments/knapen_AOT/AOT_stimuli/rescaled_final/1634_rv.mp4	0.0	201.80584263801575	0.09994935989379883
39	185.7107388973236	fix_pre	0		120	37.0	2.5	/experiments/knapen_AOT/AOT_stimuli/rescaled_final/0739_rv.mp4	0.0	201.90579199790955	1.008460521697998
39	186.2942831516266	pulse	0	t		37.0	2.5	/experiments/knapen_AOT/AOT_stimuli/rescaled_final/0739_rv.mp4	0.0	202.48933625221252	
39	186.7191994190216	movie	1		270	37.0	2.5	/experiments/knapen_AOT/AOT_stimuli/rescaled_final/0739_rv.mp4	0.0	202.91425251960754	2.4920382499694824
39	187.89472341537476	pulse	1	t		37.0	2.5	/experiments/knapen_AOT/AOT_stimuli/rescaled_final/0739_rv.mp4	0.0	204.0897765159607	
39	189.2112376689911	fix_post	2		12	37.0	2.5	/experiments/knapen_AOT/AOT_stimuli/rescaled_final/0739_rv.mp4	0.0	205.40629076957703	0.10004234313964844
40	189.31128001213074	fix_pre	0		120	38.0	2.5	/experiments/knapen_AOT/AOT_stimuli/rescaled_final/1089_fw.mp4	0.0	205.50633311271667	1.0084936618804932
40	189.49474716186523	pulse	0	t		38.0	2.5	/experiments/knapen_AOT/AOT_stimuli/rescaled_final/1089_fw.mp4	0.0	205.68980026245117	
40	190.31977367401123	movie	1		284	38.0	2.5	/experiments/knapen_AOT/AOT_stimuli/rescaled_final/1089_fw.mp4	0.0	206.51482677459717	2.4920291900634766
40	191.09439945220947	pulse	1	t		38.0	2.5	/experiments/knapen_AOT/AOT_stimuli/rescaled_final/1089_fw.mp4	0.0	207.2894525527954	
40	192.69321870803833	pulse	1	t		38.0	2.5	/experiments/knapen_AOT/AOT_stimuli/rescaled_final/1089_fw.mp4	0.0	208.88827180862427	
40	192.8118028640747	fix_post	2		12	38.0	2.5	/experiments/knapen_AOT/AOT_stimuli/rescaled_final/1089_fw.mp4	0.0	209.00685596466064	0.09998774528503418
41	192.91179060935974	fix_pre	0		120	39.0	2.5	/experiments/knapen_AOT/AOT_stimuli/rescaled_final/2057_fw.mp4	0.0	209.10684370994568	1.0085132122039795
41	193.92030382156372	movie	1		276	39.0	2.5	/experiments/knapen_AOT/AOT_stimuli/rescaled_final/2057_fw.mp4	0.0	210.11535692214966	2.492015838623047
41	194.29352498054504	pulse	1	t		39.0	2.5	/experiments/knapen_AOT/AOT_stimuli/rescaled_final/2057_fw.mp4	0.0	210.48857808113098	
41	195.89388227462769	pulse	1	t		39.0	2.5	/experiments/knapen_AOT/AOT_stimuli/rescaled_final/2057_fw.mp4	0.0	212.08893537521362	
41	196.41231966018677	fix_post	2		12	39.0	2.5	/experiments/knapen_AOT/AOT_stimuli/rescaled_final/2057_fw.mp4	0.0	212.6073727607727	0.10013294219970703
42	196.51245260238647	fix_pre	0		118	40.0	2.5	blank	1.0	212.7075057029724	0.9833707809448242
42	197.48800444602966	pulse	0	t		40.0	2.5	blank	1.0	213.6830575466156	
42	197.4958233833313	movie	1		301	40.0	2.5	blank	1.0	213.69087648391724	2.50871205329895
42	199.0879135131836	pulse	1	t		40.0	2.5	blank	1.0	215.28296661376953	
42	200.00453543663025	fix_post	2		12	40.0	2.5	blank	1.0	216.1995885372162	0.10001397132873535
43	200.10454940795898	fix_pre	0		120	41.0	2.5	/experiments/knapen_AOT/AOT_stimuli/rescaled_final/1261_rv.mp4	0.0	216.29960250854492	1.0085294246673584
43	200.6881263256073	pulse	0	t		41.0	2.5	/experiments/knapen_AOT/AOT_stimuli/rescaled_final/1261_rv.mp4	0.0	216.88317942619324	
43	201.11307883262634	movie	1		277	41.0	2.5	/experiments/knapen_AOT/AOT_stimuli/rescaled_final/1261_rv.mp4	0.0	217.30813193321228	2.4921391010284424
43	202.28836131095886	pulse	1	t		41.0	2.5	/experiments/knapen_AOT/AOT_stimuli/rescaled_final/1261_rv.mp4	0.0	218.4834144115448	
43	203.60521793365479	fix_post	2		12	41.0	2.5	/experiments/knapen_AOT/AOT_stimuli/rescaled_final/1261_rv.mp4	0.0	219.80027103424072	0.09989643096923828
44	203.70511436462402	fix_pre	0		120	42.0	2.5	/experiments/knapen_AOT/AOT_stimuli/rescaled_final/0783_fw.mp4	0.0	219.90016746520996	1.008474588394165
44	203.88864636421204	pulse	0	t		42.0	2.5	/experiments/knapen_AOT/AOT_stimuli/rescaled_final/0783_fw.mp4	0.0	220.08369946479797	
44	204.7135889530182	movie	1		265	42.0	2.5	/experiments/knapen_AOT/AOT_stimuli/rescaled_final/0783_fw.mp4	0.0	220.90864205360413	2.492034912109375
44	205.48882174491882	pulse	1	t		42.0	2.5	/experiments/knapen_AOT/AOT_stimuli/rescaled_final/0783_fw.mp4	0.0	221.68387484550476	
44	207.08853340148926	pulse	1	t		42.0	2.5	/experiments/knapen_AOT/AOT_stimuli/rescaled_final/0783_fw.mp4	0.0	223.2835865020752	
44	207.20562386512756	fix_post	2		12	42.0	2.5	/experiments/knapen_AOT/AOT_stimuli/rescaled_final/0783_fw.mp4	0.0	223.4006769657135	0.10000729560852051
45	207.30563116073608	fix_pre	0		120	43.0	2.5	/experiments/knapen_AOT/AOT_stimuli/rescaled_final/1435_fw.mp4	0.0	223.50068426132202	1.0085229873657227
45	208.3141541481018	movie	1		280	43.0	2.5	/experiments/knapen_AOT/AOT_stimuli/rescaled_final/1435_fw.mp4	0.0	224.50920724868774	2.4920077323913574
45	208.6880443096161	pulse	1	t		43.0	2.5	/experiments/knapen_AOT/AOT_stimuli/rescaled_final/1435_fw.mp4	0.0	224.88309741020203	
45	210.28959560394287	pulse	1	t		43.0	2.5	/experiments/knapen_AOT/AOT_stimuli/rescaled_final/1435_fw.mp4	0.0	226.4846487045288	
45	210.80616188049316	fix_post	2		12	43.0	2.5	/experiments/knapen_AOT/AOT_stimuli/rescaled_final/1435_fw.mp4	0.0	227.0012149810791	0.10002970695495605
46	210.90619158744812	fix_pre	0		119	44.0	2.5	/experiments/knapen_AOT/AOT_stimuli/rescaled_final/0898_fw.mp4	0.0	227.10124468803406	1.0001308917999268
46	211.88980436325073	pulse	0	t		44.0	2.5	/experiments/knapen_AOT/AOT_stimuli/rescaled_final/0898_fw.mp4	0.0	228.08485746383667	
46	211.90632247924805	movie	1		275	44.0	2.5	/experiments/knapen_AOT/AOT_stimuli/rescaled_final/0898_fw.mp4	0.0	228.10137557983398	2.5003724098205566
46	213.48878240585327	pulse	1	t		44.0	2.5	/experiments/knapen_AOT/AOT_stimuli/rescaled_final/0898_fw.mp4	0.0	229.6838355064392	
46	214.4066948890686	fix_post	2		12	44.0	2.5	/experiments/knapen_AOT/AOT_stimuli/rescaled_final/0898_fw.mp4	0.0	230.60174798965454	0.10001945495605469
47	214.50671434402466	fix_pre	0		120	45.0	2.5	/experiments/knapen_AOT/AOT_stimuli/rescaled_final/2077_rv.mp4	0.0	230.7017674446106	1.0085101127624512
47	215.09027647972107	pulse	0	t		45.0	2.5	/experiments/knapen_AOT/AOT_stimuli/rescaled_final/2077_rv.mp4	0.0	231.285329580307	
47	215.5152244567871	movie	1		289	45.0	2.5	/experiments/knapen_AOT/AOT_stimuli/rescaled_final/2077_rv.mp4	0.0	231.71027755737305	2.4920036792755127
47	216.68864917755127	pulse	1	t		45.0	2.5	/experiments/knapen_AOT/AOT_stimuli/rescaled_final/2077_rv.mp4	0.0	232.8837022781372	
47	218.00722813606262	fix_post	2		12	45.0	2.5	/experiments/knapen_AOT/AOT_stimuli/rescaled_final/2077_rv.mp4	0.0	234.20228123664856	0.10003972053527832
48	218.1072678565979	fix_pre	0		120	46.0	2.5	/experiments/knapen_AOT/AOT_stimuli/rescaled_final/1723_rv.mp4	0.0	234.30232095718384	1.0084831714630127
48	218.2908375263214	pulse	0	t		46.0	2.5	/experiments/knapen_AOT/AOT_stimuli/rescaled_final/1723_rv.mp4	0.0	234.48589062690735	
48	219.1157510280609	movie	1		276	46.0	2.5	/experiments/knapen_AOT/AOT_stimuli/rescaled_final/1723_rv.mp4	0.0	235.31080412864685	2.492309808731079
48	219.8888075351715	pulse	1	t		46.0	2.5	/experiments/knapen_AOT/AOT_stimuli/rescaled_final/1723_rv.mp4	0.0	236.08386063575745	
48	221.4894576072693	pulse	1	t		46.0	2.5	/experiments/knapen_AOT/AOT_stimuli/rescaled_final/1723_rv.mp4	0.0	237.68451070785522	
48	221.608060836792	fix_post	2		12	46.0	2.5	/experiments/knapen_AOT/AOT_stimuli/rescaled_final/1723_rv.mp4	0.0	237.80311393737793	0.09972262382507324
49	221.70778346061707	fix_pre	0		105	47.0	2.5	blank	1.0	237.902836561203	1.0001609325408936
49	222.70794439315796	movie	1		300	47.0	2.5	blank	1.0	238.9029974937439	2.5003862380981445
49	223.09152483940125	pulse	1	t		47.0	2.5	blank	1.0	239.28657793998718	
49	224.69185256958008	pulse	1	t		47.0	2.5	blank	1.0	240.88690567016602	
49	225.2083306312561	fix_post	2		12	47.0	2.5	blank	1.0	241.40338373184204	0.09999895095825195
50	225.30832958221436	fix_pre	0		119	48.0	2.5	/experiments/knapen_AOT/AOT_stimuli/rescaled_final/1258_rv.mp4	0.0	241.5033826828003	1.0001678466796875
50	226.29205441474915	pulse	0	t		48.0	2.5	/experiments/knapen_AOT/AOT_stimuli/rescaled_final/1258_rv.mp4	0.0	242.48710751533508	
50	226.30849742889404	movie	1		276	48.0	2.5	/experiments/knapen_AOT/AOT_stimuli/rescaled_final/1258_rv.mp4	0.0	242.50355052947998	2.500399112701416
50	227.89094018936157	pulse	1	t		48.0	2.5	/experiments/knapen_AOT/AOT_stimuli/rescaled_final/1258_rv.mp4	0.0	244.0859932899475	
50	228.80889654159546	fix_post	2		12	48.0	2.5	/experiments/knapen_AOT/AOT_stimuli/rescaled_final/1258_rv.mp4	0.0	245.0039496421814	0.09998202323913574
51	228.9088785648346	fix_pre	0		120	49.0	2.5	/experiments/knapen_AOT/AOT_stimuli/rescaled_final/1188_rv.mp4	0.0	245.10393166542053	1.0085220336914062
51	229.49252247810364	pulse	0	t		49.0	2.5	/experiments/knapen_AOT/AOT_stimuli/rescaled_final/1188_rv.mp4	0.0	245.68757557868958	
51	229.917400598526	movie	1		275	49.0	2.5	/experiments/knapen_AOT/AOT_stimuli/rescaled_final/1188_rv.mp4	0.0	246.11245369911194	2.492042303085327
51	231.09247374534607	pulse	1	t		49.0	2.5	/experiments/knapen_AOT/AOT_stimuli/rescaled_final/1188_rv.mp4	0.0	247.287526845932	
51	232.40944290161133	fix_post	2		12	49.0	2.5	/experiments/knapen_AOT/AOT_stimuli/rescaled_final/1188_rv.mp4	0.0	248.60449600219727	0.09997320175170898
52	232.50941610336304	fix_pre	0		120	50.0	2.5	/experiments/knapen_AOT/AOT_stimuli/rescaled_final/0930_rv.mp4	0.0	248.70446920394897	1.0085270404815674
52	232.69314575195312	pulse	0	t		50.0	2.5	/experiments/knapen_AOT/AOT_stimuli/rescaled_final/0930_rv.mp4	0.0	248.88819885253906	
52	233.5179431438446	movie	1		274	50.0	2.5	/experiments/knapen_AOT/AOT_stimuli/rescaled_final/0930_rv.mp4	0.0	249.71299624443054	2.492096424102783
52	234.29346251487732	pulse	1	t		50.0	2.5	/experiments/knapen_AOT/AOT_stimuli/rescaled_final/0930_rv.mp4	0.0	250.48851561546326	
52	235.89163851737976	pulse	1	t		50.0	2.5	/experiments/knapen_AOT/AOT_stimuli/rescaled_final/0930_rv.mp4	0.0	252.0866916179657	
52	236.0100395679474	fix_post	2		12	50.0	2.5	/experiments/knapen_AOT/AOT_stimuli/rescaled_final/0930_rv.mp4	0.0	252.20509266853333	0.09993100166320801
53	236.1099705696106	fix_pre	0		120	51.0	2.5	/experiments/knapen_AOT/AOT_stimuli/rescaled_final/0321_fw.mp4	0.0	252.30502367019653	1.008575439453125
53	237.11854600906372	movie	1		271	51.0	2.5	/experiments/knapen_AOT/AOT_stimuli/rescaled_final/0321_fw.mp4	0.0	253.31359910964966	2.491950750350952
53	237.49208879470825	pulse	1	t		51.0	2.5	/experiments/knapen_AOT/AOT_stimuli/rescaled_final/0321_fw.mp4	0.0	253.6871418952942	
53	239.09416937828064	pulse	1	t		51.0	2.5	/experiments/knapen_AOT/AOT_stimuli/rescaled_final/0321_fw.mp4	0.0	255.28922247886658	
53	239.61049675941467	fix_post	2		12	51.0	2.5	/experiments/knapen_AOT/AOT_stimuli/rescaled_final/0321_fw.mp4	0.0	255.8055498600006	0.09999394416809082
54	239.71049070358276	fix_pre	0		119	52.0	2.5	/experiments/knapen_AOT/AOT_stimuli/rescaled_final/1685_fw.mp4	0.0	255.9055438041687	1.0001590251922607
54	240.69434452056885	pulse	0	t		52.0	2.5	/experiments/knapen_AOT/AOT_stimuli/rescaled_final/1685_fw.mp4	0.0	256.8893976211548	
54	240.71064972877502	movie	1		266	52.0	2.5	/experiments/knapen_AOT/AOT_stimuli/rescaled_final/1685_fw.mp4	0.0	256.90570282936096	2.5003724098205566
54	242.29268789291382	pulse	1	t		52.0	2.5	/experiments/knapen_AOT/AOT_stimuli/rescaled_final/1685_fw.mp4	0.0	258.48774099349976	
54	243.21102213859558	fix_post	2		12	52.0	2.5	/experiments/knapen_AOT/AOT_stimuli/rescaled_final/1685_fw.mp4	0.0	259.4060752391815	0.10004711151123047
55	243.3110692501068	fix_pre	0		120	53.0	2.5	/experiments/knapen_AOT/AOT_stimuli/rescaled_final/0317_rv.mp4	0.0	259.50612235069275	1.0084707736968994
55	243.8946988582611	pulse	0	t		53.0	2.5	/experiments/knapen_AOT/AOT_stimuli/rescaled_final/0317_rv.mp4	0.0	260.08975195884705	
55	244.3195400238037	movie	1		270	53.0	2.5	/experiments/knapen_AOT/AOT_stimuli/rescaled_final/0317_rv.mp4	0.0	260.51459312438965	2.4920296669006348
55	245.49330186843872	pulse	1	t		53.0	2.5	/experiments/knapen_AOT/AOT_stimuli/rescaled_final/0317_rv.mp4	0.0	261.68835496902466	
55	246.81156969070435	fix_post	2		12	53.0	2.5	/experiments/knapen_AOT/AOT_stimuli/rescaled_final/0317_rv.mp4	0.0	263.0066227912903	0.1000065803527832
56	246.91157627105713	fix_pre	0		120	54.0	2.5	/experiments/knapen_AOT/AOT_stimuli/rescaled_final/0870_rv.mp4	0.0	263.10662937164307	1.0085055828094482
56	247.08908700942993	pulse	0	t		54.0	2.5	/experiments/knapen_AOT/AOT_stimuli/rescaled_final/0870_rv.mp4	0.0	263.28414011001587	
56	247.92008185386658	movie	1		277	54.0	2.5	/experiments/knapen_AOT/AOT_stimuli/rescaled_final/0870_rv.mp4	0.0	264.1151349544525	2.4920201301574707
56	248.69382500648499	pulse	1	t		54.0	2.5	/experiments/knapen_AOT/AOT_stimuli/rescaled_final/0870_rv.mp4	0.0	264.8888781070709	
56	250.293696641922	pulse	1	t		54.0	2.5	/experiments/knapen_AOT/AOT_stimuli/rescaled_final/0870_rv.mp4	0.0	266.48874974250793	
56	250.41210198402405	fix_post	2		12	54.0	2.5	/experiments/knapen_AOT/AOT_stimuli/rescaled_final/0870_rv.mp4	0.0	266.60715508461	0.1000208854675293
57	250.51212286949158	fix_pre	0		120	55.0	2.5	blank	1.0	266.7071759700775	1.0001499652862549
57	251.51227283477783	movie	1		300	55.0	2.5	blank	1.0	267.70732593536377	2.50036358833313
57	251.89611387252808	pulse	1	t		55.0	2.5	blank	1.0	268.091166973114	
57	253.4882595539093	pulse	1	t		55.0	2.5	blank	1.0	269.68331265449524	
57	254.01263642311096	fix_post	2		12	55.0	2.5	blank	1.0	270.2076895236969	0.10002708435058594
58	254.11266350746155	fix_pre	0		118	56.0	2.5	/experiments/knapen_AOT/AOT_stimuli/rescaled_final/0417_fw.mp4	0.0	270.3077166080475	0.9918220043182373
58	255.0884006023407	pulse	0	t		56.0	2.5	/experiments/knapen_AOT/AOT_stimuli/rescaled_final/0417_fw.mp4	0.0	271.28345370292664	
58	255.10448551177979	movie	1		281	56.0	2.5	/experiments/knapen_AOT/AOT_stimuli/rescaled_final/0417_fw.mp4	0.0	271.2995386123657	2.500667095184326
58	256.69681906700134	pulse	1	t		56.0	2.5	/experiments/knapen_AOT/AOT_stimuli/rescaled_final/0417_fw.mp4	0.0	272.8918721675873	
58	257.6051526069641	fix_post	2		12	56.0	2.5	/experiments/knapen_AOT/AOT_stimuli/rescaled_final/0417_fw.mp4	0.0	273.80020570755005	0.09970951080322266
59	257.70486211776733	fix_pre	0		120	57.0	2.5	/experiments/knapen_AOT/AOT_stimuli/rescaled_final/1430_fw.mp4	0.0	273.89991521835327	1.0084986686706543
59	258.28884100914	pulse	0	t		57.0	2.5	/experiments/knapen_AOT/AOT_stimuli/rescaled_final/1430_fw.mp4	0.0	274.48389410972595	
59	258.713360786438	movie	1		265	57.0	2.5	/experiments/knapen_AOT/AOT_stimuli/rescaled_final/1430_fw.mp4	0.0	274.9084138870239	2.492032051086426
59	259.8891820907593	pulse	1	t		57.0	2.5	/experiments/knapen_AOT/AOT_stimuli/rescaled_final/1430_fw.mp4	0.0	276.0842351913452	
59	261.2053928375244	fix_post	2		12	57.0	2.5	/experiments/knapen_AOT/AOT_stimuli/rescaled_final/1430_fw.mp4	0.0	277.40044593811035	0.10015988349914551
60	261.30555272102356	fix_pre	0		120	58.0	2.5	/experiments/knapen_AOT/AOT_stimuli/rescaled_final/1856_rv.mp4	0.0	277.5006058216095	1.0084185600280762
60	261.4892544746399	pulse	0	t		58.0	2.5	/experiments/knapen_AOT/AOT_stimuli/rescaled_final/1856_rv.mp4	0.0	277.68430757522583	
60	262.31397128105164	movie	1		287	58.0	2.5	/experiments/knapen_AOT/AOT_stimuli/rescaled_final/1856_rv.mp4	0.0	278.5090243816376	2.5003092288970947
60	263.08935022354126	pulse	1	t		58.0	2.5	/experiments/knapen_AOT/AOT_stimuli/rescaled_final/1856_rv.mp4	0.0	279.2844033241272	
60	264.6898970603943	pulse	1	t		58.0	2.5	/experiments/knapen_AOT/AOT_stimuli/rescaled_final/1856_rv.mp4	0.0	280.8849501609802	
60	264.81428050994873	fix_post	2		11	58.0	2.5	/experiments/knapen_AOT/AOT_stimuli/rescaled_final/1856_rv.mp4	0.0	281.00933361053467	0.09168243408203125
61	264.90596294403076	fix_pre	0		120	59.0	2.5	/experiments/knapen_AOT/AOT_stimuli/rescaled_final/1758_rv.mp4	0.0	281.1010160446167	1.0084764957427979
61	265.91443943977356	movie	1		280	59.0	2.5	/experiments/knapen_AOT/AOT_stimuli/rescaled_final/1758_rv.mp4	0.0	282.1094925403595	2.4920363426208496
61	266.2883348464966	pulse	1	t		59.0	2.5	/experiments/knapen_AOT/AOT_stimuli/rescaled_final/1758_rv.mp4	0.0	282.4833879470825	
61	267.88996839523315	pulse	1	t		59.0	2.5	/experiments/knapen_AOT/AOT_stimuli/rescaled_final/1758_rv.mp4	0.0	284.0850214958191	
61	268.4064757823944	fix_post	2		12	59.0	2.5	/experiments/knapen_AOT/AOT_stimuli/rescaled_final/1758_rv.mp4	0.0	284.60152888298035	0.10003066062927246
62	268.5065064430237	fix_pre	0		119	60.0	2.5	/experiments/knapen_AOT/AOT_stimuli/rescaled_final/0920_fw.mp4	0.0	284.7015595436096	1.0001366138458252
62	269.4902060031891	pulse	0	t		60.0	2.5	/experiments/knapen_AOT/AOT_stimuli/rescaled_final/0920_fw.mp4	0.0	285.685259103775	
62	269.5066430568695	movie	1		278	60.0	2.5	/experiments/knapen_AOT/AOT_stimuli/rescaled_final/0920_fw.mp4	0.0	285.70169615745544	2.500352144241333
62	271.0901789665222	pulse	1	t		60.0	2.5	/experiments/knapen_AOT/AOT_stimuli/rescaled_final/0920_fw.mp4	0.0	287.28523206710815	
62	272.00699520111084	fix_post	2		12	60.0	2.5	/experiments/knapen_AOT/AOT_stimuli/rescaled_final/0920_fw.mp4	0.0	288.2020483016968	0.10010290145874023
63	272.1070981025696	fix_pre	0		120	61.0	2.5	/experiments/knapen_AOT/AOT_stimuli/rescaled_final/0801_fw.mp4	0.0	288.3021512031555	1.0084164142608643
63	272.69098377227783	pulse	0	t		61.0	2.5	/experiments/knapen_AOT/AOT_stimuli/rescaled_final/0801_fw.mp4	0.0	288.88603687286377	
63	273.11551451683044	movie	1		290	61.0	2.5	/experiments/knapen_AOT/AOT_stimuli/rescaled_final/0801_fw.mp4	0.0	289.3105676174164	2.492042303085327
63	274.28942346572876	pulse	1	t		61.0	2.5	/experiments/knapen_AOT/AOT_stimuli/rescaled_final/0801_fw.mp4	0.0	290.4844765663147	
63	275.60755681991577	fix_post	2		12	61.0	2.5	/experiments/knapen_AOT/AOT_stimuli/rescaled_final/0801_fw.mp4	0.0	291.8026099205017	0.10006046295166016
64	275.70761728286743	fix_pre	0		120	62.0	2.5	blank	1.0	291.90267038345337	1.0000975131988525
64	275.8911757469177	pulse	0	t		62.0	2.5	blank	1.0	292.08622884750366	
64	276.7077147960663	movie	1		300	62.0	2.5	blank	1.0	292.9027678966522	2.5004117488861084
64	277.49136900901794	pulse	1	t		62.0	2.5	blank	1.0	293.6864221096039	
64	279.09168124198914	pulse	1	t		62.0	2.5	blank	1.0	295.2867343425751	
64	279.2081265449524	fix_post	2		12	62.0	2.5	blank	1.0	295.40317964553833	0.09998321533203125
65	279.3081097602844	fix_pre	0		120	63.0	2.5	/experiments/knapen_AOT/AOT_stimuli/rescaled_final/1557_rv.mp4	0.0	295.50316286087036	1.0085103511810303
65	280.31662011146545	movie	1		280	63.0	2.5	/experiments/knapen_AOT/AOT_stimuli/rescaled_final/1557_rv.mp4	0.0	296.5116732120514	2.4920029640197754
65	280.69172167778015	pulse	1	t		63.0	2.5	/experiments/knapen_AOT/AOT_stimuli/rescaled_final/1557_rv.mp4	0.0	296.8867747783661	
65	282.29186153411865	pulse	1	t		63.0	2.5	/experiments/knapen_AOT/AOT_stimuli/rescaled_final/1557_rv.mp4	0.0	298.4869146347046	
65	282.80862307548523	fix_post	2		12	63.0	2.5	/experiments/knapen_AOT/AOT_stimuli/rescaled_final/1557_rv.mp4	0.0	299.00367617607117	0.10004591941833496
66	282.90866899490356	fix_pre	0		119	64.0	2.5	/experiments/knapen_AOT/AOT_stimuli/rescaled_final/1812_rv.mp4	0.0	299.1037220954895	1.0001838207244873
66	283.8924741744995	pulse	0	t		64.0	2.5	/experiments/knapen_AOT/AOT_stimuli/rescaled_final/1812_rv.mp4	0.0	300.08752727508545	
66	283.90885281562805	movie	1		292	64.0	2.5	/experiments/knapen_AOT/AOT_stimuli/rescaled_final/1812_rv.mp4	0.0	300.103905916214	2.500422239303589
66	285.4908232688904	pulse	1	t		64.0	2.5	/experiments/knapen_AOT/AOT_stimuli/rescaled_final/1812_rv.mp4	0.0	301.6858763694763	
66	286.40927505493164	fix_post	2		12	64.0	2.5	/experiments/knapen_AOT/AOT_stimuli/rescaled_final/1812_rv.mp4	0.0	302.6043281555176	0.09992599487304688
67	286.5092010498047	fix_pre	0		120	65.0	2.5	/experiments/knapen_AOT/AOT_stimuli/rescaled_final/2077_fw.mp4	0.0	302.7042541503906	1.008514642715454
67	287.09294986724854	pulse	0	t		65.0	2.5	/experiments/knapen_AOT/AOT_stimuli/rescaled_final/2077_fw.mp4	0.0	303.2880029678345	
67	287.51771569252014	movie	1		283	65.0	2.5	/experiments/knapen_AOT/AOT_stimuli/rescaled_final/2077_fw.mp4	0.0	303.7127687931061	2.492035150527954
67	288.6912941932678	pulse	1	t		65.0	2.5	/experiments/knapen_AOT/AOT_stimuli/rescaled_final/2077_fw.mp4	0.0	304.88634729385376	
67	290.0097508430481	fix_post	2		12	65.0	2.5	/experiments/knapen_AOT/AOT_stimuli/rescaled_final/2077_fw.mp4	0.0	306.20480394363403	0.10004711151123047
68	290.1097979545593	fix_pre	0		120	66.0	2.5	/experiments/knapen_AOT/AOT_stimuli/rescaled_final/1471_rv.mp4	0.0	306.30485105514526	1.0084686279296875
68	290.29333114624023	pulse	0	t		66.0	2.5	/experiments/knapen_AOT/AOT_stimuli/rescaled_final/1471_rv.mp4	0.0	306.4883842468262	
68	291.118266582489	movie	1		268	66.0	2.5	/experiments/knapen_AOT/AOT_stimuli/rescaled_final/1471_rv.mp4	0.0	307.31331968307495	2.5003392696380615
68	291.8932993412018	pulse	1	t		66.0	2.5	/experiments/knapen_AOT/AOT_stimuli/rescaled_final/1471_rv.mp4	0.0	308.0883524417877	
68	293.49201798439026	pulse	1	t		66.0	2.5	/experiments/knapen_AOT/AOT_stimuli/rescaled_final/1471_rv.mp4	0.0	309.6870710849762	
68	293.6186058521271	fix_post	2		11	66.0	2.5	/experiments/knapen_AOT/AOT_stimuli/rescaled_final/1471_rv.mp4	0.0	309.813658952713	0.09163284301757812
69	293.71023869514465	fix_pre	0		120	67.0	2.5	/experiments/knapen_AOT/AOT_stimuli/rescaled_final/2084_rv.mp4	0.0	309.9052917957306	1.0085711479187012
69	294.71880984306335	movie	1		282	67.0	2.5	/experiments/knapen_AOT/AOT_stimuli/rescaled_final/2084_rv.mp4	0.0	310.9138629436493	2.491989850997925
69	295.0929160118103	pulse	1	t		67.0	2.5	/experiments/knapen_AOT/AOT_stimuli/rescaled_final/2084_rv.mp4	0.0	311.28796911239624	
69	296.69223952293396	pulse	1	t		67.0	2.5	/experiments/knapen_AOT/AOT_stimuli/rescaled_final/2084_rv.mp4	0.0	312.8872926235199	
69	297.2107996940613	fix_post	2		12	67.0	2.5	/experiments/knapen_AOT/AOT_stimuli/rescaled_final/2084_rv.mp4	0.0	313.4058527946472	0.10003995895385742
70	297.31083965301514	fix_pre	0		119	68.0	2.5	blank	1.0	313.5058927536011	0.9917840957641602
70	298.2946639060974	pulse	0	t		68.0	2.5	blank	1.0	314.48971700668335	
70	298.3026237487793	movie	1		301	68.0	2.5	blank	1.0	314.49767684936523	2.508735179901123
70	299.8951904773712	pulse	1	t		68.0	2.5	blank	1.0	316.09024357795715	
70	300.8113589286804	fix_post	2		12	68.0	2.5	blank	1.0	317.00641202926636	0.10000872611999512
71	300.9113676548004	fix_pre	0		120	69.0	2.5	/experiments/knapen_AOT/AOT_stimuli/rescaled_final/0845_fw.mp4	0.0	317.10642075538635	1.0085241794586182
71	301.48814940452576	pulse	0	t		69.0	2.5	/experiments/knapen_AOT/AOT_stimuli/rescaled_final/0845_fw.mp4	0.0	317.6832025051117	
71	301.91989183425903	movie	1		276	69.0	2.5	/experiments/knapen_AOT/AOT_stimuli/rescaled_final/0845_fw.mp4	0.0	318.11494493484497	2.4920194149017334
71	303.09438252449036	pulse	1	t		69.0	2.5	/experiments/knapen_AOT/AOT_stimuli/rescaled_final/0845_fw.mp4	0.0	319.2894356250763	
71	304.41191124916077	fix_post	2		12	69.0	2.5	/experiments/knapen_AOT/AOT_stimuli/rescaled_final/0845_fw.mp4	0.0	320.6069643497467	0.09998774528503418
72	304.5118989944458	fix_pre	0		120	70.0	2.5	/experiments/knapen_AOT/AOT_stimuli/rescaled_final/1164_fw.mp4	0.0	320.70695209503174	1.0085408687591553
72	304.695454120636	pulse	0	t		70.0	2.5	/experiments/knapen_AOT/AOT_stimuli/rescaled_final/1164_fw.mp4	0.0	320.8905072212219	
72	305.52043986320496	movie	1		280	70.0	2.5	/experiments/knapen_AOT/AOT_stimuli/rescaled_final/1164_fw.mp4	0.0	321.7154929637909	2.491987943649292
72	306.2901704311371	pulse	1	t		70.0	2.5	/experiments/knapen_AOT/AOT_stimuli/rescaled_final/1164_fw.mp4	0.0	322.485223531723	
72	307.8878757953644	pulse	1	t		70.0	2.5	/experiments/knapen_AOT/AOT_stimuli/rescaled_final/1164_fw.mp4	0.0	324.0829288959503	
72	308.01242780685425	fix_post	2		12	70.0	2.5	/experiments/knapen_AOT/AOT_stimuli/rescaled_final/1164_fw.mp4	0.0	324.2074809074402	0.10003352165222168
73	308.11246132850647	fix_pre	0		120	71.0	2.5	/experiments/knapen_AOT/AOT_stimuli/rescaled_final/2123_rv.mp4	0.0	324.3075144290924	1.0084798336029053
73	309.1209411621094	movie	1		276	71.0	2.5	/experiments/knapen_AOT/AOT_stimuli/rescaled_final/2123_rv.mp4	0.0	325.3159942626953	2.4920597076416016
73	309.48804807662964	pulse	1	t		71.0	2.5	/experiments/knapen_AOT/AOT_stimuli/rescaled_final/2123_rv.mp4	0.0	325.6831011772156	
73	311.08811020851135	pulse	1	t		71.0	2.5	/experiments/knapen_AOT/AOT_stimuli/rescaled_final/2123_rv.mp4	0.0	327.2831633090973	
73	311.613000869751	fix_post	2		12	71.0	2.5	/experiments/knapen_AOT/AOT_stimuli/rescaled_final/2123_rv.mp4	0.0	327.8080539703369	0.10000729560852051
74	311.7130081653595	fix_pre	0		118	72.0	2.5	/experiments/knapen_AOT/AOT_stimuli/rescaled_final/0743_fw.mp4	0.0	327.90806126594543	0.9919900894165039
74	312.68836641311646	pulse	0	t		72.0	2.5	/experiments/knapen_AOT/AOT_stimuli/rescaled_final/0743_fw.mp4	0.0	328.8834195137024	
74	312.704998254776	movie	1		279	72.0	2.5	/experiments/knapen_AOT/AOT_stimuli/rescaled_final/0743_fw.mp4	0.0	328.90005135536194	2.5001766681671143
74	314.28870725631714	pulse	1	t		72.0	2.5	/experiments/knapen_AOT/AOT_stimuli/rescaled_final/0743_fw.mp4	0.0	330.4837603569031	
74	315.2051749229431	fix_post	2		12	72.0	2.5	/experiments/knapen_AOT/AOT_stimuli/rescaled_final/0743_fw.mp4	0.0	331.40022802352905	0.10002398490905762
75	315.3051989078522	fix_pre	0		120	73.0	2.5	/experiments/knapen_AOT/AOT_stimuli/rescaled_final/1862_rv.mp4	0.0	331.5002520084381	1.0085704326629639
75	315.88889241218567	pulse	0	t		73.0	2.5	/experiments/knapen_AOT/AOT_stimuli/rescaled_final/1862_rv.mp4	0.0	332.0839455127716	
75	316.31376934051514	movie	1		278	73.0	2.5	/experiments/knapen_AOT/AOT_stimuli/rescaled_final/1862_rv.mp4	0.0	332.5088224411011	2.491987705230713
75	317.4878764152527	pulse	1	t		73.0	2.5	/experiments/knapen_AOT/AOT_stimuli/rescaled_final/1862_rv.mp4	0.0	333.6829295158386	
75	318.80575704574585	fix_post	2		12	73.0	2.5	/experiments/knapen_AOT/AOT_stimuli/rescaled_final/1862_rv.mp4	0.0	335.0008101463318	0.10004496574401855
76	318.90580201148987	fix_pre	0		120	74.0	2.5	/experiments/knapen_AOT/AOT_stimuli/rescaled_final/1902_rv.mp4	0.0	335.1008551120758	1.0084476470947266
76	319.0893144607544	pulse	0	t		74.0	2.5	/experiments/knapen_AOT/AOT_stimuli/rescaled_final/1902_rv.mp4	0.0	335.28436756134033	
76	319.9142496585846	movie	1		279	74.0	2.5	/experiments/knapen_AOT/AOT_stimuli/rescaled_final/1902_rv.mp4	0.0	336.10930275917053	2.492009162902832
76	320.6881079673767	pulse	1	t		74.0	2.5	/experiments/knapen_AOT/AOT_stimuli/rescaled_final/1902_rv.mp4	0.0	336.88316106796265	
76	322.2888238430023	pulse	1	t		74.0	2.5	/experiments/knapen_AOT/AOT_stimuli/rescaled_final/1902_rv.mp4	0.0	338.48387694358826	
76	322.4062588214874	fix_post	2		12	74.0	2.5	/experiments/knapen_AOT/AOT_stimuli/rescaled_final/1902_rv.mp4	0.0	338.60131192207336	0.10002827644348145
77	322.5062870979309	fix_pre	0		120	75.0	2.5	/experiments/knapen_AOT/AOT_stimuli/rescaled_final/1039_fw.mp4	0.0	338.70134019851685	1.008545160293579
77	323.5148322582245	movie	1		279	75.0	2.5	/experiments/knapen_AOT/AOT_stimuli/rescaled_final/1039_fw.mp4	0.0	339.7098853588104	2.492034673690796
77	323.88890981674194	pulse	1	t		75.0	2.5	/experiments/knapen_AOT/AOT_stimuli/rescaled_final/1039_fw.mp4	0.0	340.0839629173279	
77	325.4882092475891	pulse	1	t		75.0	2.5	/experiments/knapen_AOT/AOT_stimuli/rescaled_final/1039_fw.mp4	0.0	341.68326234817505	
77	326.0068669319153	fix_post	2		12	75.0	2.5	/experiments/knapen_AOT/AOT_stimuli/rescaled_final/1039_fw.mp4	0.0	342.2019200325012	0.09996247291564941
78	326.10682940483093	fix_pre	0		119	76.0	2.5	blank	1.0	342.30188250541687	0.9917733669281006
78	327.0905840396881	pulse	0	t		76.0	2.5	blank	1.0	343.28563714027405	
78	327.09860277175903	movie	1		301	76.0	2.5	blank	1.0	343.29365587234497	2.5087461471557617
78	328.69082522392273	pulse	1	t		76.0	2.5	blank	1.0	344.88587832450867	
78	329.6073489189148	fix_post	2		12	76.0	2.5	blank	1.0	345.80240201950073	0.10000348091125488
79	329.70735239982605	fix_pre	0		120	77.0	2.5	/experiments/knapen_AOT/AOT_stimuli/rescaled_final/1548_fw.mp4	0.0	345.902405500412	1.008488655090332
79	330.29102516174316	pulse	0	t		77.0	2.5	/experiments/knapen_AOT/AOT_stimuli/rescaled_final/1548_fw.mp4	0.0	346.4860782623291	
79	330.7158410549164	movie	1		276	77.0	2.5	/experiments/knapen_AOT/AOT_stimuli/rescaled_final/1548_fw.mp4	0.0	346.9108941555023	2.492047071456909
79	331.8890914916992	pulse	1	t		77.0	2.5	/experiments/knapen_AOT/AOT_stimuli/rescaled_final/1548_fw.mp4	0.0	348.08414459228516	
79	333.2078881263733	fix_post	2		12	77.0	2.5	/experiments/knapen_AOT/AOT_stimuli/rescaled_final/1548_fw.mp4	0.0	349.40294122695923	0.10001492500305176
80	333.30790305137634	fix_pre	0		120	78.0	2.5	/experiments/knapen_AOT/AOT_stimuli/rescaled_final/0065_rv.mp4	0.0	349.5029561519623	1.0084855556488037
80	333.4915075302124	pulse	0	t		78.0	2.5	/experiments/knapen_AOT/AOT_stimuli/rescaled_final/0065_rv.mp4	0.0	349.68656063079834	
80	334.31638860702515	movie	1		275	78.0	2.5	/experiments/knapen_AOT/AOT_stimuli/rescaled_final/0065_rv.mp4	0.0	350.5114417076111	2.4920573234558105
80	335.0898280143738	pulse	1	t		78.0	2.5	/experiments/knapen_AOT/AOT_stimuli/rescaled_final/0065_rv.mp4	0.0	351.2848811149597	
80	336.6902265548706	pulse	1	t		78.0	2.5	/experiments/knapen_AOT/AOT_stimuli/rescaled_final/0065_rv.mp4	0.0	352.88527965545654	
80	336.80844593048096	fix_post	2		12	78.0	2.5	/experiments/knapen_AOT/AOT_stimuli/rescaled_final/0065_rv.mp4	0.0	353.0034990310669	0.09999895095825195
81	336.9084448814392	fix_pre	0		120	79.0	2.5	/experiments/knapen_AOT/AOT_stimuli/rescaled_final/1358_rv.mp4	0.0	353.10349798202515	1.008514165878296
81	337.9169590473175	movie	1		260	79.0	2.5	/experiments/knapen_AOT/AOT_stimuli/rescaled_final/1358_rv.mp4	0.0	354.11201214790344	2.4921047687530518
81	338.29150319099426	pulse	1	t		79.0	2.5	/experiments/knapen_AOT/AOT_stimuli/rescaled_final/1358_rv.mp4	0.0	354.4865562915802	
81	339.8904585838318	pulse	1	t		79.0	2.5	/experiments/knapen_AOT/AOT_stimuli/rescaled_final/1358_rv.mp4	0.0	356.0855116844177	
81	340.40906381607056	fix_post	2		12	79.0	2.5	/experiments/knapen_AOT/AOT_stimuli/rescaled_final/1358_rv.mp4	0.0	356.6041169166565	0.09993410110473633
82	340.5089979171753	fix_pre	0		119	80.0	2.5	/experiments/knapen_AOT/AOT_stimuli/rescaled_final/0621_fw.mp4	0.0	356.70405101776123	1.0085594654083252
82	341.4930317401886	pulse	0	t		80.0	2.5	/experiments/knapen_AOT/AOT_stimuli/rescaled_final/0621_fw.mp4	0.0	357.68808484077454	
82	341.5175573825836	movie	1		284	80.0	2.5	/experiments/knapen_AOT/AOT_stimuli/rescaled_final/0621_fw.mp4	0.0	357.71261048316956	2.4919564723968506
82	343.09159231185913	pulse	1	t		80.0	2.5	/experiments/knapen_AOT/AOT_stimuli/rescaled_final/0621_fw.mp4	0.0	359.28664541244507	
82	344.00951385498047	fix_post	2		12	80.0	2.5	/experiments/knapen_AOT/AOT_stimuli/rescaled_final/0621_fw.mp4	0.0	360.2045669555664	0.10001468658447266
83	344.10952854156494	fix_pre	0		120	81.0	2.5	/experiments/knapen_AOT/AOT_stimuli/rescaled_final/1555_rv.mp4	0.0	360.3045816421509	1.0084788799285889
83	344.6931622028351	pulse	0	t		81.0	2.5	/experiments/knapen_AOT/AOT_stimuli/rescaled_final/1555_rv.mp4	0.0	360.888215303421	
83	345.11800742149353	movie	1		275	81.0	2.5	/experiments/knapen_AOT/AOT_stimuli/rescaled_final/1555_rv.mp4	0.0	361.31306052207947	2.492074489593506
83	346.2916977405548	pulse	1	t		81.0	2.5	/experiments/knapen_AOT/AOT_stimuli/rescaled_final/1555_rv.mp4	0.0	362.48675084114075	
83	347.61008191108704	fix_post	2		12	81.0	2.5	/experiments/knapen_AOT/AOT_stimuli/rescaled_final/1555_rv.mp4	0.0	363.805135011673	0.09998250007629395
84	347.71006441116333	fix_pre	0		120	82.0	2.5	blank	1.0	363.90511751174927	1.0002150535583496
84	347.89363980293274	pulse	0	t		82.0	2.5	blank	1.0	364.0886929035187	
84	348.7102794647217	movie	1		300	82.0	2.5	blank	1.0	364.9053325653076	2.5003304481506348
84	349.4938733577728	pulse	1	t		82.0	2.5	blank	1.0	365.68892645835876	
84	351.0942385196686	pulse	1	t		82.0	2.5	blank	1.0	367.2892916202545	
84	351.2106099128723	fix_post	2		12	82.0	2.5	blank	1.0	367.40566301345825	0.10001540184020996
85	351.3106253147125	fix_pre	0		120	83.0	2.5	/experiments/knapen_AOT/AOT_stimuli/rescaled_final/1352_fw.mp4	0.0	367.50567841529846	1.0085139274597168
85	352.31913924217224	movie	1		256	83.0	2.5	/experiments/knapen_AOT/AOT_stimuli/rescaled_final/1352_fw.mp4	0.0	368.5141923427582	2.4920036792755127
85	352.6927590370178	pulse	1	t		83.0	2.5	/experiments/knapen_AOT/AOT_stimuli/rescaled_final/1352_fw.mp4	0.0	368.88781213760376	
85	354.2929050922394	pulse	1	t		83.0	2.5	/experiments/knapen_AOT/AOT_stimuli/rescaled_final/1352_fw.mp4	0.0	370.4879581928253	
85	354.81114292144775	fix_post	2		12	83.0	2.5	/experiments/knapen_AOT/AOT_stimuli/rescaled_final/1352_fw.mp4	0.0	371.0061960220337	0.10000753402709961
87	354.91115045547485	stim	0		1716					371.1062035560608	14.302155256271362
87	355.89490723609924	pulse	0	t						372.0899603366852	
87	357.49548625946045	pulse	0	t						373.6905393600464	
87	359.0954375267029	pulse	0	t						375.2904906272888	
87	360.69583463668823	pulse	0	t						376.89088773727417	
87	362.2879922389984	pulse	0	t						378.48304533958435	
87	363.88840198516846	pulse	0	t						380.0834550857544	
87	365.48821902275085	pulse	0	t						381.6832721233368	
87	367.08835887908936	pulse	0	t						383.2834119796753	
87	368.6885859966278	pulse	0	t						384.88363909721375	
