trial_nr	onset	event_type	phase	response	nr_frames	movie_index	movie_duration	movie_file	blank	onset_abs	duration
0	0.13335514068603516	stim	0		239					26.432449102401733	1.9915568828582764
0	2.1169419288635254	response	0	space						28.416035890579224	
1	2.1249120235443115	stim	0		4650					28.42400598526001	38.749776124954224
1	40.86819815635681	pulse	0	t						67.16729211807251	
1	40.874688148498535	stim	1		1717					67.17378211021423	14.308250904083252
1	42.466562032699585	pulse	1	t						68.76565599441528	
1	44.066158056259155	pulse	1	t						70.36525201797485	
1	45.66626715660095	pulse	1	t						71.96536111831665	
1	47.26655411720276	pulse	1	t						73.56564807891846	
1	48.86654496192932	pulse	1	t						75.16563892364502	
1	50.4665801525116	pulse	1	t						76.7656741142273	
1	52.06641507148743	pulse	1	t						78.36550903320312	
1	53.66651892662048	pulse	1	t						79.96561288833618	
2	55.18293905258179	fix_pre	0		11	0.0	2.5	/experiments/AOT/AOT_stimuli/rescaled_final/0260_fw.mp4	0.0	81.48203301429749	0.09171009063720703
2	55.266446113586426	pulse	0	t		0.0	2.5	/experiments/AOT/AOT_stimuli/rescaled_final/0260_fw.mp4	0.0	81.56554007530212	
2	55.274649143218994	movie	1		246	0.0	2.5	/experiments/AOT/AOT_stimuli/rescaled_final/0260_fw.mp4	0.0	81.57374310493469	2.5082859992980957
2	56.86611008644104	pulse	1	t		0.0	2.5	/experiments/AOT/AOT_stimuli/rescaled_final/0260_fw.mp4	0.0	83.16520404815674	
2	57.78293514251709	fix_post	2		12	0.0	2.5	/experiments/AOT/AOT_stimuli/rescaled_final/0260_fw.mp4	0.0	84.08202910423279	0.10003995895385742
3	57.88297510147095	fix_pre	0		120	1.0	2.5	/experiments/AOT/AOT_stimuli/rescaled_final/0232_fw.mp4	0.0	84.18206906318665	0.9999608993530273
3	58.46783900260925	pulse	0	t		1.0	2.5	/experiments/AOT/AOT_stimuli/rescaled_final/0232_fw.mp4	0.0	84.76693296432495	
3	58.882936000823975	movie	1		245	1.0	2.5	/experiments/AOT/AOT_stimuli/rescaled_final/0232_fw.mp4	0.0	85.18202996253967	2.4999630451202393
3	60.06651210784912	pulse	1	t		1.0	2.5	/experiments/AOT/AOT_stimuli/rescaled_final/0232_fw.mp4	0.0	86.36560606956482	
3	61.382899045944214	fix_post	2		12	1.0	2.5	/experiments/AOT/AOT_stimuli/rescaled_final/0232_fw.mp4	0.0	87.68199300765991	0.10001111030578613
4	61.48291015625	fix_pre	0		120	2.0	2.5	/experiments/AOT/AOT_stimuli/rescaled_final/1863_rv.mp4	0.0	87.7820041179657	1.0000319480895996
4	61.666463136672974	pulse	0	t		2.0	2.5	/experiments/AOT/AOT_stimuli/rescaled_final/1863_rv.mp4	0.0	87.96555709838867	
4	62.4829421043396	movie	1		247	2.0	2.5	/experiments/AOT/AOT_stimuli/rescaled_final/1863_rv.mp4	0.0	88.7820360660553	2.499969959259033
4	63.26644802093506	pulse	1	t		2.0	2.5	/experiments/AOT/AOT_stimuli/rescaled_final/1863_rv.mp4	0.0	89.56554198265076	
4	64.86249494552612	pulse	1	t		2.0	2.5	/experiments/AOT/AOT_stimuli/rescaled_final/1863_rv.mp4	0.0	91.16158890724182	
4	64.98291206359863	fix_post	2		12	2.0	2.5	/experiments/AOT/AOT_stimuli/rescaled_final/1863_rv.mp4	0.0	91.28200602531433	0.09997391700744629
5	65.08288598060608	fix_pre	0		120	3.0	2.5	/experiments/AOT/AOT_stimuli/rescaled_final/0505_rv.mp4	0.0	91.38197994232178	1.0000550746917725
5	66.08294105529785	movie	1		245	3.0	2.5	/experiments/AOT/AOT_stimuli/rescaled_final/0505_rv.mp4	0.0	92.38203501701355	2.500035047531128
5	66.46609401702881	pulse	1	t		3.0	2.5	/experiments/AOT/AOT_stimuli/rescaled_final/0505_rv.mp4	0.0	92.7651879787445	
5	68.06645894050598	pulse	1	t		3.0	2.5	/experiments/AOT/AOT_stimuli/rescaled_final/0505_rv.mp4	0.0	94.36555290222168	
5	68.58297610282898	fix_post	2		12	3.0	2.5	/experiments/AOT/AOT_stimuli/rescaled_final/0505_rv.mp4	0.0	94.88207006454468	0.0999288558959961
6	68.68290495872498	fix_pre	0		119	4.0	2.5	/experiments/AOT/AOT_stimuli/rescaled_final/0360_rv.mp4	0.0	94.98199892044067	0.9916629791259766
6	69.66636610031128	pulse	0	t		4.0	2.5	/experiments/AOT/AOT_stimuli/rescaled_final/0360_rv.mp4	0.0	95.96546006202698	
6	69.67456793785095	movie	1		248	4.0	2.5	/experiments/AOT/AOT_stimuli/rescaled_final/0360_rv.mp4	0.0	95.97366189956665	2.5078861713409424
6	71.26602506637573	pulse	1	t		4.0	2.5	/experiments/AOT/AOT_stimuli/rescaled_final/0360_rv.mp4	0.0	97.56511902809143	
6	72.1824541091919	fix_post	2		12	4.0	2.5	/experiments/AOT/AOT_stimuli/rescaled_final/0360_rv.mp4	0.0	98.48154807090759	0.10045289993286133
7	72.28290700912476	fix_pre	0		120	5.0	2.5	blank	1.0	98.58200097084045	1.0000009536743164
7	72.866455078125	pulse	0	t		5.0	2.5	blank	1.0	99.1655490398407	
7	73.28290796279907	movie	1		300	5.0	2.5	blank	1.0	99.58200192451477	2.499588966369629
7	74.46654415130615	pulse	1	t		5.0	2.5	blank	1.0	100.76563811302185	
7	75.7824969291687	fix_post	2		12	5.0	2.5	blank	1.0	102.0815908908844	0.10041618347167969
8	75.88291311264038	fix_pre	0		120	6.0	2.5	/experiments/AOT/AOT_stimuli/rescaled_final/0280_rv.mp4	0.0	102.18200707435608	0.9999799728393555
8	76.06641411781311	pulse	0	t		6.0	2.5	/experiments/AOT/AOT_stimuli/rescaled_final/0280_rv.mp4	0.0	102.36550807952881	
8	76.88289308547974	movie	1		244	6.0	2.5	/experiments/AOT/AOT_stimuli/rescaled_final/0280_rv.mp4	0.0	103.18198704719543	2.499943971633911
8	77.66642308235168	pulse	1	t		6.0	2.5	/experiments/AOT/AOT_stimuli/rescaled_final/0280_rv.mp4	0.0	103.96551704406738	
8	79.26500391960144	pulse	1	t		6.0	2.5	/experiments/AOT/AOT_stimuli/rescaled_final/0280_rv.mp4	0.0	105.56409788131714	
8	79.38283705711365	fix_post	2		12	6.0	2.5	/experiments/AOT/AOT_stimuli/rescaled_final/0280_rv.mp4	0.0	105.68193101882935	0.10003304481506348
9	79.48287010192871	fix_pre	0		120	7.0	2.5	/experiments/AOT/AOT_stimuli/rescaled_final/2127_fw.mp4	0.0	105.78196406364441	0.9999918937683105
9	80.48286199569702	movie	1		251	7.0	2.5	/experiments/AOT/AOT_stimuli/rescaled_final/2127_fw.mp4	0.0	106.78195595741272	2.4999630451202393
9	80.86596202850342	pulse	1	t		7.0	2.5	/experiments/AOT/AOT_stimuli/rescaled_final/2127_fw.mp4	0.0	107.16505599021912	
9	82.46637105941772	pulse	1	t		7.0	2.5	/experiments/AOT/AOT_stimuli/rescaled_final/2127_fw.mp4	0.0	108.76546502113342	
9	82.98282504081726	fix_post	2		12	7.0	2.5	/experiments/AOT/AOT_stimuli/rescaled_final/2127_fw.mp4	0.0	109.28191900253296	0.10003900527954102
10	83.0828640460968	fix_pre	0		119	8.0	2.5	/experiments/AOT/AOT_stimuli/rescaled_final/1665_fw.mp4	0.0	109.3819580078125	0.9915769100189209
10	84.06638407707214	pulse	0	t		8.0	2.5	/experiments/AOT/AOT_stimuli/rescaled_final/1665_fw.mp4	0.0	110.36547803878784	
10	84.07444095611572	movie	1		247	8.0	2.5	/experiments/AOT/AOT_stimuli/rescaled_final/1665_fw.mp4	0.0	110.37353491783142	2.50858998298645
10	85.66597104072571	pulse	1	t		8.0	2.5	/experiments/AOT/AOT_stimuli/rescaled_final/1665_fw.mp4	0.0	111.9650650024414	
10	86.58303093910217	fix_post	2		12	8.0	2.5	/experiments/AOT/AOT_stimuli/rescaled_final/1665_fw.mp4	0.0	112.88212490081787	0.09976816177368164
11	86.68279910087585	fix_pre	0		120	9.0	2.5	/experiments/AOT/AOT_stimuli/rescaled_final/1468_fw.mp4	0.0	112.98189306259155	1.0000410079956055
11	87.26627707481384	pulse	0	t		9.0	2.5	/experiments/AOT/AOT_stimuli/rescaled_final/1468_fw.mp4	0.0	113.56537103652954	
11	87.68284010887146	movie	1		243	9.0	2.5	/experiments/AOT/AOT_stimuli/rescaled_final/1468_fw.mp4	0.0	113.98193407058716	2.4999430179595947
11	88.86639308929443	pulse	1	t		9.0	2.5	/experiments/AOT/AOT_stimuli/rescaled_final/1468_fw.mp4	0.0	115.16548705101013	
11	90.18278312683105	fix_post	2		12	9.0	2.5	/experiments/AOT/AOT_stimuli/rescaled_final/1468_fw.mp4	0.0	116.48187708854675	0.10000181198120117
12	90.28278493881226	fix_pre	0		120	10.0	2.5	/experiments/AOT/AOT_stimuli/rescaled_final/0737_fw.mp4	0.0	116.58187890052795	1.0000481605529785
12	90.46634411811829	pulse	0	t		10.0	2.5	/experiments/AOT/AOT_stimuli/rescaled_final/0737_fw.mp4	0.0	116.76543807983398	
12	91.28283309936523	movie	1		246	10.0	2.5	/experiments/AOT/AOT_stimuli/rescaled_final/0737_fw.mp4	0.0	117.58192706108093	2.499953031539917
12	92.06632208824158	pulse	1	t		10.0	2.5	/experiments/AOT/AOT_stimuli/rescaled_final/0737_fw.mp4	0.0	118.36541604995728	
12	93.66222405433655	pulse	1	t		10.0	2.5	/experiments/AOT/AOT_stimuli/rescaled_final/0737_fw.mp4	0.0	119.96131801605225	
12	93.78278613090515	fix_post	2		12	10.0	2.5	/experiments/AOT/AOT_stimuli/rescaled_final/0737_fw.mp4	0.0	120.08188009262085	0.10004091262817383
13	93.88282704353333	fix_pre	0		120	11.0	2.5	/experiments/AOT/AOT_stimuli/rescaled_final/1665_rv.mp4	0.0	120.18192100524902	0.9999709129333496
13	94.88279795646667	movie	1		243	11.0	2.5	/experiments/AOT/AOT_stimuli/rescaled_final/1665_rv.mp4	0.0	121.18189191818237	2.50016713142395
13	95.26599502563477	pulse	1	t		11.0	2.5	/experiments/AOT/AOT_stimuli/rescaled_final/1665_rv.mp4	0.0	121.56508898735046	
13	96.86639499664307	pulse	1	t		11.0	2.5	/experiments/AOT/AOT_stimuli/rescaled_final/1665_rv.mp4	0.0	123.16548895835876	
13	97.38296508789062	fix_post	2		12	11.0	2.5	/experiments/AOT/AOT_stimuli/rescaled_final/1665_rv.mp4	0.0	123.68205904960632	0.09988903999328613
14	97.48285412788391	fix_pre	0		119	12.0	2.5	/experiments/AOT/AOT_stimuli/rescaled_final/1822_rv.mp4	0.0	123.78194808959961	0.9916319847106934
14	98.46632313728333	pulse	0	t		12.0	2.5	/experiments/AOT/AOT_stimuli/rescaled_final/1822_rv.mp4	0.0	124.76541709899902	
14	98.4744861125946	movie	1		247	12.0	2.5	/experiments/AOT/AOT_stimuli/rescaled_final/1822_rv.mp4	0.0	124.7735800743103	2.5079689025878906
14	100.06578397750854	pulse	1	t		12.0	2.5	/experiments/AOT/AOT_stimuli/rescaled_final/1822_rv.mp4	0.0	126.36487793922424	
14	100.9824550151825	fix_post	2		12	12.0	2.5	/experiments/AOT/AOT_stimuli/rescaled_final/1822_rv.mp4	0.0	127.2815489768982	0.10007190704345703
15	101.08252692222595	fix_pre	0		120	13.0	2.5	blank	1.0	127.38162088394165	1.0004851818084717
15	101.66647100448608	pulse	0	t		13.0	2.5	blank	1.0	127.96556496620178	
15	102.08301210403442	movie	1		300	13.0	2.5	blank	1.0	128.38210606575012	2.499685049057007
15	103.26625514030457	pulse	1	t		13.0	2.5	blank	1.0	129.56534910202026	
15	104.58269715309143	fix_post	2		12	13.0	2.5	blank	1.0	130.88179111480713	0.09966588020324707
16	104.68236303329468	fix_pre	0		120	14.0	2.5	/experiments/AOT/AOT_stimuli/rescaled_final/1315_fw.mp4	0.0	130.98145699501038	1.0004069805145264
16	104.86627697944641	pulse	0	t		14.0	2.5	/experiments/AOT/AOT_stimuli/rescaled_final/1315_fw.mp4	0.0	131.1653709411621	
16	105.6827700138092	movie	1		246	14.0	2.5	/experiments/AOT/AOT_stimuli/rescaled_final/1315_fw.mp4	0.0	131.9818639755249	2.499505043029785
16	106.46622610092163	pulse	1	t		14.0	2.5	/experiments/AOT/AOT_stimuli/rescaled_final/1315_fw.mp4	0.0	132.76532006263733	
16	108.06236004829407	pulse	1	t		14.0	2.5	/experiments/AOT/AOT_stimuli/rescaled_final/1315_fw.mp4	0.0	134.36145401000977	
16	108.18227505683899	fix_post	2		12	14.0	2.5	/experiments/AOT/AOT_stimuli/rescaled_final/1315_fw.mp4	0.0	134.4813690185547	0.10037803649902344
17	108.28265309333801	fix_pre	0		120	15.0	2.5	/experiments/AOT/AOT_stimuli/rescaled_final/2127_fw.mp4	0.0	134.5817470550537	1.0000488758087158
17	109.28270196914673	movie	1		249	15.0	2.5	/experiments/AOT/AOT_stimuli/rescaled_final/2127_fw.mp4	0.0	135.58179593086243	2.499974012374878
17	109.66578602790833	pulse	1	t		15.0	2.5	/experiments/AOT/AOT_stimuli/rescaled_final/2127_fw.mp4	0.0	135.96487998962402	
17	111.26614308357239	pulse	1	t		15.0	2.5	/experiments/AOT/AOT_stimuli/rescaled_final/2127_fw.mp4	0.0	137.5652370452881	
17	111.7826759815216	fix_post	2		12	15.0	2.5	/experiments/AOT/AOT_stimuli/rescaled_final/2127_fw.mp4	0.0	138.0817699432373	0.09999608993530273
18	111.88267207145691	fix_pre	0		119	16.0	2.5	/experiments/AOT/AOT_stimuli/rescaled_final/1835_fw.mp4	0.0	138.1817660331726	0.9917700290679932
18	112.86623215675354	pulse	0	t		16.0	2.5	/experiments/AOT/AOT_stimuli/rescaled_final/1835_fw.mp4	0.0	139.16532611846924	
18	112.8744421005249	movie	1		246	16.0	2.5	/experiments/AOT/AOT_stimuli/rescaled_final/1835_fw.mp4	0.0	139.1735360622406	2.508297920227051
18	114.46737909317017	pulse	1	t		16.0	2.5	/experiments/AOT/AOT_stimuli/rescaled_final/1835_fw.mp4	0.0	140.76647305488586	
18	115.38274002075195	fix_post	2		12	16.0	2.5	/experiments/AOT/AOT_stimuli/rescaled_final/1835_fw.mp4	0.0	141.68183398246765	0.09990406036376953
19	115.48264408111572	fix_pre	0		120	17.0	2.5	/experiments/AOT/AOT_stimuli/rescaled_final/2089_fw.mp4	0.0	141.78173804283142	1.0000810623168945
19	116.06629705429077	pulse	0	t		17.0	2.5	/experiments/AOT/AOT_stimuli/rescaled_final/2089_fw.mp4	0.0	142.36539101600647	
19	116.48272514343262	movie	1		243	17.0	2.5	/experiments/AOT/AOT_stimuli/rescaled_final/2089_fw.mp4	0.0	142.78181910514832	2.499854803085327
19	117.66619610786438	pulse	1	t		17.0	2.5	/experiments/AOT/AOT_stimuli/rescaled_final/2089_fw.mp4	0.0	143.96529006958008	
19	118.98257994651794	fix_post	2		12	17.0	2.5	/experiments/AOT/AOT_stimuli/rescaled_final/2089_fw.mp4	0.0	145.28167390823364	0.1000511646270752
20	119.08263111114502	fix_pre	0		120	18.0	2.5	/experiments/AOT/AOT_stimuli/rescaled_final/2061_rv.mp4	0.0	145.38172507286072	1.000133991241455
20	119.2662079334259	pulse	0	t		18.0	2.5	/experiments/AOT/AOT_stimuli/rescaled_final/2061_rv.mp4	0.0	145.5653018951416	
20	120.08276510238647	movie	1		243	18.0	2.5	/experiments/AOT/AOT_stimuli/rescaled_final/2061_rv.mp4	0.0	146.38185906410217	2.499945878982544
20	120.86616802215576	pulse	1	t		18.0	2.5	/experiments/AOT/AOT_stimuli/rescaled_final/2061_rv.mp4	0.0	147.16526198387146	
20	122.46465301513672	pulse	1	t		18.0	2.5	/experiments/AOT/AOT_stimuli/rescaled_final/2061_rv.mp4	0.0	148.76374697685242	
20	122.58271098136902	fix_post	2		12	18.0	2.5	/experiments/AOT/AOT_stimuli/rescaled_final/2061_rv.mp4	0.0	148.88180494308472	0.10001015663146973
21	122.68272113800049	fix_pre	0		120	19.0	2.5	blank	1.0	148.9818150997162	0.99993896484375
21	123.68266010284424	movie	1		300	19.0	2.5	blank	1.0	149.98175406455994	2.499985933303833
21	124.06619501113892	pulse	1	t		19.0	2.5	blank	1.0	150.36528897285461	
21	125.66613411903381	pulse	1	t		19.0	2.5	blank	1.0	151.9652280807495	
21	126.18264603614807	fix_post	2		12	19.0	2.5	blank	1.0	152.48173999786377	0.10007190704345703
22	126.28271794319153	fix_pre	0		119	20.0	2.5	/experiments/AOT/AOT_stimuli/rescaled_final/0099_fw.mp4	0.0	152.58181190490723	0.9915421009063721
22	127.26608610153198	pulse	0	t		20.0	2.5	/experiments/AOT/AOT_stimuli/rescaled_final/0099_fw.mp4	0.0	153.56518006324768	
22	127.2742600440979	movie	1		248	20.0	2.5	/experiments/AOT/AOT_stimuli/rescaled_final/0099_fw.mp4	0.0	153.5733540058136	2.50838303565979
22	128.8657510280609	pulse	1	t		20.0	2.5	/experiments/AOT/AOT_stimuli/rescaled_final/0099_fw.mp4	0.0	155.1648449897766	
22	129.7826430797577	fix_post	2		12	20.0	2.5	/experiments/AOT/AOT_stimuli/rescaled_final/0099_fw.mp4	0.0	156.0817370414734	0.09991288185119629
23	129.8825559616089	fix_pre	0		120	21.0	2.5	/experiments/AOT/AOT_stimuli/rescaled_final/0814_fw.mp4	0.0	156.18164992332458	0.9996511936187744
23	130.46613192558289	pulse	0	t		21.0	2.5	/experiments/AOT/AOT_stimuli/rescaled_final/0814_fw.mp4	0.0	156.76522588729858	
23	130.88220715522766	movie	1		247	21.0	2.5	/experiments/AOT/AOT_stimuli/rescaled_final/0814_fw.mp4	0.0	157.18130111694336	2.5003349781036377
23	132.06617403030396	pulse	1	t		21.0	2.5	/experiments/AOT/AOT_stimuli/rescaled_final/0814_fw.mp4	0.0	158.36526799201965	
23	133.3825421333313	fix_post	2		12	21.0	2.5	/experiments/AOT/AOT_stimuli/rescaled_final/0814_fw.mp4	0.0	159.681636095047	0.09999895095825195
24	133.48254108428955	fix_pre	0		120	22.0	2.5	/experiments/AOT/AOT_stimuli/rescaled_final/1234_rv.mp4	0.0	159.78163504600525	1.0000689029693604
24	133.6660931110382	pulse	0	t		22.0	2.5	/experiments/AOT/AOT_stimuli/rescaled_final/1234_rv.mp4	0.0	159.9651870727539	
24	134.4826099872589	movie	1		245	22.0	2.5	/experiments/AOT/AOT_stimuli/rescaled_final/1234_rv.mp4	0.0	160.7817039489746	2.4999921321868896
24	135.2660710811615	pulse	1	t		22.0	2.5	/experiments/AOT/AOT_stimuli/rescaled_final/1234_rv.mp4	0.0	161.5651650428772	
24	136.8647539615631	pulse	1	t		22.0	2.5	/experiments/AOT/AOT_stimuli/rescaled_final/1234_rv.mp4	0.0	163.1638479232788	
24	136.9826021194458	fix_post	2		12	22.0	2.5	/experiments/AOT/AOT_stimuli/rescaled_final/1234_rv.mp4	0.0	163.2816960811615	0.09994101524353027
25	137.08254313468933	fix_pre	0		120	23.0	2.5	/experiments/AOT/AOT_stimuli/rescaled_final/1844_fw.mp4	0.0	163.38163709640503	1.00016188621521
25	138.08270502090454	movie	1		248	23.0	2.5	/experiments/AOT/AOT_stimuli/rescaled_final/1844_fw.mp4	0.0	164.38179898262024	2.4994759559631348
25	138.46581292152405	pulse	1	t		23.0	2.5	/experiments/AOT/AOT_stimuli/rescaled_final/1844_fw.mp4	0.0	164.76490688323975	
25	140.06610107421875	pulse	1	t		23.0	2.5	/experiments/AOT/AOT_stimuli/rescaled_final/1844_fw.mp4	0.0	166.36519503593445	
25	140.58218097686768	fix_post	2		12	23.0	2.5	/experiments/AOT/AOT_stimuli/rescaled_final/1844_fw.mp4	0.0	166.88127493858337	0.10043501853942871
26	140.6826159954071	fix_pre	0		119	24.0	2.5	/experiments/AOT/AOT_stimuli/rescaled_final/0616_rv.mp4	0.0	166.9817099571228	0.991671085357666
26	141.66611909866333	pulse	0	t		24.0	2.5	/experiments/AOT/AOT_stimuli/rescaled_final/0616_rv.mp4	0.0	167.96521306037903	
26	141.67428708076477	movie	1		245	24.0	2.5	/experiments/AOT/AOT_stimuli/rescaled_final/0616_rv.mp4	0.0	167.97338104248047	2.5082709789276123
26	143.26609992980957	pulse	1	t		24.0	2.5	/experiments/AOT/AOT_stimuli/rescaled_final/0616_rv.mp4	0.0	169.56519389152527	
26	144.18255805969238	fix_post	2		12	24.0	2.5	/experiments/AOT/AOT_stimuli/rescaled_final/0616_rv.mp4	0.0	170.48165202140808	0.09997797012329102
27	144.28253602981567	fix_pre	0		120	25.0	2.5	/experiments/AOT/AOT_stimuli/rescaled_final/2173_rv.mp4	0.0	170.58162999153137	1.0001089572906494
27	144.86603999137878	pulse	0	t		25.0	2.5	/experiments/AOT/AOT_stimuli/rescaled_final/2173_rv.mp4	0.0	171.16513395309448	
27	145.28264498710632	movie	1		246	25.0	2.5	/experiments/AOT/AOT_stimuli/rescaled_final/2173_rv.mp4	0.0	171.58173894882202	2.499861001968384
27	146.46615505218506	pulse	1	t		25.0	2.5	/experiments/AOT/AOT_stimuli/rescaled_final/2173_rv.mp4	0.0	172.76524901390076	
27	147.7825059890747	fix_post	2		12	25.0	2.5	/experiments/AOT/AOT_stimuli/rescaled_final/2173_rv.mp4	0.0	174.0815999507904	0.10001993179321289
28	147.88252592086792	fix_pre	0		120	26.0	2.5	/experiments/AOT/AOT_stimuli/rescaled_final/0091_rv.mp4	0.0	174.18161988258362	1.0000250339508057
28	148.06606197357178	pulse	0	t		26.0	2.5	/experiments/AOT/AOT_stimuli/rescaled_final/0091_rv.mp4	0.0	174.36515593528748	
28	148.88255095481873	movie	1		246	26.0	2.5	/experiments/AOT/AOT_stimuli/rescaled_final/0091_rv.mp4	0.0	175.18164491653442	2.4996120929718018
28	149.66603708267212	pulse	1	t		26.0	2.5	/experiments/AOT/AOT_stimuli/rescaled_final/0091_rv.mp4	0.0	175.96513104438782	
28	151.26604104042053	pulse	1	t		26.0	2.5	/experiments/AOT/AOT_stimuli/rescaled_final/0091_rv.mp4	0.0	177.56513500213623	
28	151.38216304779053	fix_post	2		12	26.0	2.5	/experiments/AOT/AOT_stimuli/rescaled_final/0091_rv.mp4	0.0	177.68125700950623	0.10034489631652832
29	151.48250794410706	fix_pre	0		120	27.0	2.5	/experiments/AOT/AOT_stimuli/rescaled_final/1149_rv.mp4	0.0	177.78160190582275	1.000049114227295
29	152.48255705833435	movie	1		244	27.0	2.5	/experiments/AOT/AOT_stimuli/rescaled_final/1149_rv.mp4	0.0	178.78165102005005	2.4999449253082275
29	152.8657169342041	pulse	1	t		27.0	2.5	/experiments/AOT/AOT_stimuli/rescaled_final/1149_rv.mp4	0.0	179.1648108959198	
29	154.4661819934845	pulse	1	t		27.0	2.5	/experiments/AOT/AOT_stimuli/rescaled_final/1149_rv.mp4	0.0	180.7652759552002	
29	154.98250198364258	fix_post	2		12	27.0	2.5	/experiments/AOT/AOT_stimuli/rescaled_final/1149_rv.mp4	0.0	181.28159594535828	0.10004806518554688
30	155.08255004882812	fix_pre	0		119	28.0	2.5	blank	1.0	181.38164401054382	0.9912869930267334
30	156.06563711166382	pulse	0	t		28.0	2.5	blank	1.0	182.36473107337952	
30	156.07383704185486	movie	1		301	28.0	2.5	blank	1.0	182.37293100357056	2.5090320110321045
30	157.6657681465149	pulse	1	t		28.0	2.5	blank	1.0	183.9648621082306	
30	158.58286905288696	fix_post	2		12	28.0	2.5	blank	1.0	184.88196301460266	0.09959292411804199
31	158.682461977005	fix_pre	0		120	29.0	2.5	/experiments/AOT/AOT_stimuli/rescaled_final/0091_fw.mp4	0.0	184.9815559387207	1.0000989437103271
31	159.26609992980957	pulse	0	t		29.0	2.5	/experiments/AOT/AOT_stimuli/rescaled_final/0091_fw.mp4	0.0	185.56519389152527	
31	159.68256092071533	movie	1		248	29.0	2.5	/experiments/AOT/AOT_stimuli/rescaled_final/0091_fw.mp4	0.0	185.98165488243103	2.4999051094055176
31	160.86598896980286	pulse	1	t		29.0	2.5	/experiments/AOT/AOT_stimuli/rescaled_final/0091_fw.mp4	0.0	187.16508293151855	
31	162.18246603012085	fix_post	2		12	29.0	2.5	/experiments/AOT/AOT_stimuli/rescaled_final/0091_fw.mp4	0.0	188.48155999183655	0.10001492500305176
32	162.2824809551239	fix_pre	0		120	30.0	2.5	/experiments/AOT/AOT_stimuli/rescaled_final/1098_fw.mp4	0.0	188.5815749168396	1.0000011920928955
32	162.4660840034485	pulse	0	t		30.0	2.5	/experiments/AOT/AOT_stimuli/rescaled_final/1098_fw.mp4	0.0	188.76517796516418	
32	163.2824821472168	movie	1		247	30.0	2.5	/experiments/AOT/AOT_stimuli/rescaled_final/1098_fw.mp4	0.0	189.5815761089325	2.5000557899475098
32	164.06585907936096	pulse	1	t		30.0	2.5	/experiments/AOT/AOT_stimuli/rescaled_final/1098_fw.mp4	0.0	190.36495304107666	
32	165.66601395606995	pulse	1	t		30.0	2.5	/experiments/AOT/AOT_stimuli/rescaled_final/1098_fw.mp4	0.0	191.96510791778564	
32	165.7825379371643	fix_post	2		12	30.0	2.5	/experiments/AOT/AOT_stimuli/rescaled_final/1098_fw.mp4	0.0	192.08163189888	0.09987211227416992
33	165.88241004943848	fix_pre	0		120	31.0	2.5	/experiments/AOT/AOT_stimuli/rescaled_final/2065_rv.mp4	0.0	192.18150401115417	1.0000379085540771
33	166.88244795799255	movie	1		245	31.0	2.5	/experiments/AOT/AOT_stimuli/rescaled_final/2065_rv.mp4	0.0	193.18154191970825	2.4999771118164062
33	167.26585698127747	pulse	1	t		31.0	2.5	/experiments/AOT/AOT_stimuli/rescaled_final/2065_rv.mp4	0.0	193.56495094299316	
33	168.86579298973083	pulse	1	t		31.0	2.5	/experiments/AOT/AOT_stimuli/rescaled_final/2065_rv.mp4	0.0	195.16488695144653	
33	169.38242506980896	fix_post	2		12	31.0	2.5	/experiments/AOT/AOT_stimuli/rescaled_final/2065_rv.mp4	0.0	195.68151903152466	0.10000085830688477
34	169.48242592811584	fix_pre	0		119	32.0	2.5	/experiments/AOT/AOT_stimuli/rescaled_final/0099_fw.mp4	0.0	195.78151988983154	0.9917910099029541
34	170.4659080505371	pulse	0	t		32.0	2.5	/experiments/AOT/AOT_stimuli/rescaled_final/0099_fw.mp4	0.0	196.7650020122528	
34	170.4742169380188	movie	1		246	32.0	2.5	/experiments/AOT/AOT_stimuli/rescaled_final/0099_fw.mp4	0.0	196.7733108997345	2.5081942081451416
34	172.06567406654358	pulse	1	t		32.0	2.5	/experiments/AOT/AOT_stimuli/rescaled_final/0099_fw.mp4	0.0	198.36476802825928	
34	172.98241114616394	fix_post	2		12	32.0	2.5	/experiments/AOT/AOT_stimuli/rescaled_final/0099_fw.mp4	0.0	199.28150510787964	0.09995794296264648
35	173.0823690891266	fix_pre	0		120	33.0	2.5	/experiments/AOT/AOT_stimuli/rescaled_final/0128_fw.mp4	0.0	199.38146305084229	0.9999909400939941
35	173.6660430431366	pulse	0	t		33.0	2.5	/experiments/AOT/AOT_stimuli/rescaled_final/0128_fw.mp4	0.0	199.9651370048523	
35	174.08236002922058	movie	1		244	33.0	2.5	/experiments/AOT/AOT_stimuli/rescaled_final/0128_fw.mp4	0.0	200.38145399093628	2.4999659061431885
35	175.26599502563477	pulse	1	t		33.0	2.5	/experiments/AOT/AOT_stimuli/rescaled_final/0128_fw.mp4	0.0	201.56508898735046	
35	176.58232593536377	fix_post	2		12	33.0	2.5	/experiments/AOT/AOT_stimuli/rescaled_final/0128_fw.mp4	0.0	202.88141989707947	0.10009121894836426
36	176.68241715431213	fix_pre	0		120	34.0	2.5	/experiments/AOT/AOT_stimuli/rescaled_final/2089_fw.mp4	0.0	202.98151111602783	0.9998788833618164
36	176.8659930229187	pulse	0	t		34.0	2.5	/experiments/AOT/AOT_stimuli/rescaled_final/2089_fw.mp4	0.0	203.1650869846344	
36	177.68229603767395	movie	1		243	34.0	2.5	/experiments/AOT/AOT_stimuli/rescaled_final/2089_fw.mp4	0.0	203.98138999938965	2.5001189708709717
36	178.46600794792175	pulse	1	t		34.0	2.5	/experiments/AOT/AOT_stimuli/rescaled_final/2089_fw.mp4	0.0	204.76510190963745	
36	180.06425595283508	pulse	1	t		34.0	2.5	/experiments/AOT/AOT_stimuli/rescaled_final/2089_fw.mp4	0.0	206.36334991455078	
36	180.18241500854492	fix_post	2		12	34.0	2.5	/experiments/AOT/AOT_stimuli/rescaled_final/2089_fw.mp4	0.0	206.48150897026062	0.09995508193969727
37	180.28237009048462	fix_pre	0		120	35.0	2.5	blank	1.0	206.58146405220032	0.9999978542327881
37	181.2823679447174	movie	1		300	35.0	2.5	blank	1.0	207.5814619064331	2.5001211166381836
37	181.66595911979675	pulse	1	t		35.0	2.5	blank	1.0	207.96505308151245	
37	183.26585006713867	pulse	1	t		35.0	2.5	blank	1.0	209.56494402885437	
37	183.7824890613556	fix_post	2		12	35.0	2.5	blank	1.0	210.0815830230713	0.09981107711791992
38	183.8823001384735	fix_pre	0		119	36.0	2.5	/experiments/AOT/AOT_stimuli/rescaled_final/0076_fw.mp4	0.0	210.1813941001892	0.9917018413543701
38	184.86587595939636	pulse	0	t		36.0	2.5	/experiments/AOT/AOT_stimuli/rescaled_final/0076_fw.mp4	0.0	211.16496992111206	
38	184.87400197982788	movie	1		247	36.0	2.5	/experiments/AOT/AOT_stimuli/rescaled_final/0076_fw.mp4	0.0	211.17309594154358	2.508305072784424
38	186.46582007408142	pulse	1	t		36.0	2.5	/experiments/AOT/AOT_stimuli/rescaled_final/0076_fw.mp4	0.0	212.76491403579712	
38	187.3823070526123	fix_post	2		12	36.0	2.5	/experiments/AOT/AOT_stimuli/rescaled_final/0076_fw.mp4	0.0	213.681401014328	0.09999299049377441
39	187.48230004310608	fix_pre	0		120	37.0	2.5	/experiments/AOT/AOT_stimuli/rescaled_final/1334_fw.mp4	0.0	213.78139400482178	1.0000269412994385
39	188.06588292121887	pulse	0	t		37.0	2.5	/experiments/AOT/AOT_stimuli/rescaled_final/1334_fw.mp4	0.0	214.36497688293457	
39	188.48232698440552	movie	1		244	37.0	2.5	/experiments/AOT/AOT_stimuli/rescaled_final/1334_fw.mp4	0.0	214.78142094612122	2.4995651245117188
39	189.6659390926361	pulse	1	t		37.0	2.5	/experiments/AOT/AOT_stimuli/rescaled_final/1334_fw.mp4	0.0	215.9650330543518	
39	190.98189210891724	fix_post	2		12	37.0	2.5	/experiments/AOT/AOT_stimuli/rescaled_final/1334_fw.mp4	0.0	217.28098607063293	0.1004788875579834
40	191.08237099647522	fix_pre	0		120	38.0	2.5	/experiments/AOT/AOT_stimuli/rescaled_final/1692_rv.mp4	0.0	217.38146495819092	0.9999279975891113
40	191.2658281326294	pulse	0	t		38.0	2.5	/experiments/AOT/AOT_stimuli/rescaled_final/1692_rv.mp4	0.0	217.5649220943451	
40	192.08229899406433	movie	1		243	38.0	2.5	/experiments/AOT/AOT_stimuli/rescaled_final/1692_rv.mp4	0.0	218.38139295578003	2.500096082687378
40	192.86584901809692	pulse	1	t		38.0	2.5	/experiments/AOT/AOT_stimuli/rescaled_final/1692_rv.mp4	0.0	219.16494297981262	
40	194.4643111228943	pulse	1	t		38.0	2.5	/experiments/AOT/AOT_stimuli/rescaled_final/1692_rv.mp4	0.0	220.76340508460999	
40	194.5823950767517	fix_post	2		12	38.0	2.5	/experiments/AOT/AOT_stimuli/rescaled_final/1692_rv.mp4	0.0	220.8814890384674	0.09990406036376953
41	194.68229913711548	fix_pre	0		120	39.0	2.5	/experiments/AOT/AOT_stimuli/rescaled_final/0954_rv.mp4	0.0	220.98139309883118	1.0001428127288818
41	195.68244194984436	movie	1		246	39.0	2.5	/experiments/AOT/AOT_stimuli/rescaled_final/0954_rv.mp4	0.0	221.98153591156006	2.4999032020568848
41	196.06581711769104	pulse	1	t		39.0	2.5	/experiments/AOT/AOT_stimuli/rescaled_final/0954_rv.mp4	0.0	222.36491107940674	
41	197.66589903831482	pulse	1	t		39.0	2.5	/experiments/AOT/AOT_stimuli/rescaled_final/0954_rv.mp4	0.0	223.96499300003052	
41	198.18234515190125	fix_post	2		12	39.0	2.5	/experiments/AOT/AOT_stimuli/rescaled_final/0954_rv.mp4	0.0	224.48143911361694	0.10000896453857422
42	198.28235411643982	fix_pre	0		119	40.0	2.5	/experiments/AOT/AOT_stimuli/rescaled_final/1206_fw.mp4	0.0	224.58144807815552	0.9916038513183594
42	199.2657549381256	pulse	0	t		40.0	2.5	/experiments/AOT/AOT_stimuli/rescaled_final/1206_fw.mp4	0.0	225.5648488998413	
42	199.27395796775818	movie	1		246	40.0	2.5	/experiments/AOT/AOT_stimuli/rescaled_final/1206_fw.mp4	0.0	225.57305192947388	2.5083141326904297
42	200.8654270172119	pulse	1	t		40.0	2.5	/experiments/AOT/AOT_stimuli/rescaled_final/1206_fw.mp4	0.0	227.1645209789276	
42	201.7822721004486	fix_post	2		12	40.0	2.5	/experiments/AOT/AOT_stimuli/rescaled_final/1206_fw.mp4	0.0	228.0813660621643	0.09993290901184082
43	201.88220500946045	fix_pre	0		120	41.0	2.5	/experiments/AOT/AOT_stimuli/rescaled_final/0927_fw.mp4	0.0	228.18129897117615	1.000119924545288
43	202.46582913398743	pulse	0	t		41.0	2.5	/experiments/AOT/AOT_stimuli/rescaled_final/0927_fw.mp4	0.0	228.76492309570312	
43	202.88232493400574	movie	1		243	41.0	2.5	/experiments/AOT/AOT_stimuli/rescaled_final/0927_fw.mp4	0.0	229.18141889572144	2.499981164932251
43	204.06583094596863	pulse	1	t		41.0	2.5	/experiments/AOT/AOT_stimuli/rescaled_final/0927_fw.mp4	0.0	230.36492490768433	
43	205.382306098938	fix_post	2		12	41.0	2.5	/experiments/AOT/AOT_stimuli/rescaled_final/0927_fw.mp4	0.0	231.6814000606537	0.09996604919433594
44	205.48227214813232	fix_pre	0		120	42.0	2.5	blank	1.0	231.78136610984802	1.0000059604644775
44	205.66580200195312	pulse	0	t		42.0	2.5	blank	1.0	231.96489596366882	
44	206.4822781085968	movie	1		300	42.0	2.5	blank	1.0	232.7813720703125	2.5000510215759277
44	207.26580715179443	pulse	1	t		42.0	2.5	blank	1.0	233.56490111351013	
44	208.86582708358765	pulse	1	t		42.0	2.5	blank	1.0	235.16492104530334	
44	208.98232913017273	fix_post	2		12	42.0	2.5	blank	1.0	235.28142309188843	0.1000218391418457
45	209.08235096931458	fix_pre	0		120	43.0	2.5	/experiments/AOT/AOT_stimuli/rescaled_final/1959_fw.mp4	0.0	235.38144493103027	0.9998490810394287
45	210.082200050354	movie	1		246	43.0	2.5	/experiments/AOT/AOT_stimuli/rescaled_final/1959_fw.mp4	0.0	236.3812940120697	2.499692916870117
45	210.46540307998657	pulse	1	t		43.0	2.5	/experiments/AOT/AOT_stimuli/rescaled_final/1959_fw.mp4	0.0	236.76449704170227	
45	212.06526708602905	pulse	1	t		43.0	2.5	/experiments/AOT/AOT_stimuli/rescaled_final/1959_fw.mp4	0.0	238.36436104774475	
45	212.58189296722412	fix_post	2		12	43.0	2.5	/experiments/AOT/AOT_stimuli/rescaled_final/1959_fw.mp4	0.0	238.88098692893982	0.10003399848937988
46	212.6819269657135	fix_pre	0		119	44.0	2.5	/experiments/AOT/AOT_stimuli/rescaled_final/0164_fw.mp4	0.0	238.9810209274292	0.9921691417694092
46	213.66601300239563	pulse	0	t		44.0	2.5	/experiments/AOT/AOT_stimuli/rescaled_final/0164_fw.mp4	0.0	239.96510696411133	
46	213.6740961074829	movie	1		245	44.0	2.5	/experiments/AOT/AOT_stimuli/rescaled_final/0164_fw.mp4	0.0	239.9731900691986	2.5077879428863525
46	215.26539015769958	pulse	1	t		44.0	2.5	/experiments/AOT/AOT_stimuli/rescaled_final/0164_fw.mp4	0.0	241.56448411941528	
46	216.18188405036926	fix_post	2		12	44.0	2.5	/experiments/AOT/AOT_stimuli/rescaled_final/0164_fw.mp4	0.0	242.48097801208496	0.10031700134277344
47	216.28220105171204	fix_pre	0		120	45.0	2.5	/experiments/AOT/AOT_stimuli/rescaled_final/1933_fw.mp4	0.0	242.58129501342773	0.9999699592590332
47	216.86570501327515	pulse	0	t		45.0	2.5	/experiments/AOT/AOT_stimuli/rescaled_final/1933_fw.mp4	0.0	243.16479897499084	
47	217.28217101097107	movie	1		245	45.0	2.5	/experiments/AOT/AOT_stimuli/rescaled_final/1933_fw.mp4	0.0	243.58126497268677	2.499964952468872
47	218.46576309204102	pulse	1	t		45.0	2.5	/experiments/AOT/AOT_stimuli/rescaled_final/1933_fw.mp4	0.0	244.7648570537567	
47	219.78213596343994	fix_post	2		12	45.0	2.5	/experiments/AOT/AOT_stimuli/rescaled_final/1933_fw.mp4	0.0	246.08122992515564	0.09962797164916992
48	219.8817639350891	fix_pre	0		120	46.0	2.5	/experiments/AOT/AOT_stimuli/rescaled_final/0280_rv.mp4	0.0	246.1808578968048	1.0004241466522217
48	220.0656020641327	pulse	0	t		46.0	2.5	/experiments/AOT/AOT_stimuli/rescaled_final/0280_rv.mp4	0.0	246.3646960258484	
48	220.88218808174133	movie	1		245	46.0	2.5	/experiments/AOT/AOT_stimuli/rescaled_final/0280_rv.mp4	0.0	247.18128204345703	2.4999098777770996
48	221.66570615768433	pulse	1	t		46.0	2.5	/experiments/AOT/AOT_stimuli/rescaled_final/0280_rv.mp4	0.0	247.96480011940002	
48	223.2642650604248	pulse	1	t		46.0	2.5	/experiments/AOT/AOT_stimuli/rescaled_final/0280_rv.mp4	0.0	249.5633590221405	
48	223.38209795951843	fix_post	2		12	46.0	2.5	/experiments/AOT/AOT_stimuli/rescaled_final/0280_rv.mp4	0.0	249.68119192123413	0.1000370979309082
49	223.48213505744934	fix_pre	0		120	47.0	2.5	blank	1.0	249.78122901916504	1.000011920928955
49	224.4821469783783	movie	1		300	47.0	2.5	blank	1.0	250.781240940094	2.5000360012054443
49	224.86576104164124	pulse	1	t		47.0	2.5	blank	1.0	251.16485500335693	
49	226.46562600135803	pulse	1	t		47.0	2.5	blank	1.0	252.76471996307373	
49	226.98218297958374	fix_post	2		12	47.0	2.5	blank	1.0	253.28127694129944	0.09990811347961426
50	227.08209109306335	fix_pre	0		119	48.0	2.5	/experiments/AOT/AOT_stimuli/rescaled_final/2085_rv.mp4	0.0	253.38118505477905	0.991696834564209
50	228.06559014320374	pulse	0	t		48.0	2.5	/experiments/AOT/AOT_stimuli/rescaled_final/2085_rv.mp4	0.0	254.36468410491943	
50	228.07378792762756	movie	1		247	48.0	2.5	/experiments/AOT/AOT_stimuli/rescaled_final/2085_rv.mp4	0.0	254.37288188934326	2.5080041885375977
50	229.6651520729065	pulse	1	t		48.0	2.5	/experiments/AOT/AOT_stimuli/rescaled_final/2085_rv.mp4	0.0	255.9642460346222	
50	230.58179211616516	fix_post	2		12	48.0	2.5	/experiments/AOT/AOT_stimuli/rescaled_final/2085_rv.mp4	0.0	256.88088607788086	0.10030388832092285
51	230.68209600448608	fix_pre	0		120	49.0	2.5	/experiments/AOT/AOT_stimuli/rescaled_final/1299_fw.mp4	0.0	256.9811899662018	0.9996211528778076
51	231.2655119895935	pulse	0	t		49.0	2.5	/experiments/AOT/AOT_stimuli/rescaled_final/1299_fw.mp4	0.0	257.5646059513092	
51	231.6817171573639	movie	1		244	49.0	2.5	/experiments/AOT/AOT_stimuli/rescaled_final/1299_fw.mp4	0.0	257.9808111190796	2.5000369548797607
51	232.86574292182922	pulse	1	t		49.0	2.5	/experiments/AOT/AOT_stimuli/rescaled_final/1299_fw.mp4	0.0	259.1648368835449	
51	234.18175411224365	fix_post	2		12	49.0	2.5	/experiments/AOT/AOT_stimuli/rescaled_final/1299_fw.mp4	0.0	260.48084807395935	0.10039496421813965
52	234.2821490764618	fix_pre	0		120	50.0	2.5	/experiments/AOT/AOT_stimuli/rescaled_final/1789_fw.mp4	0.0	260.5812430381775	0.9999709129333496
52	234.4656479358673	pulse	0	t		50.0	2.5	/experiments/AOT/AOT_stimuli/rescaled_final/1789_fw.mp4	0.0	260.764741897583	
52	235.28211998939514	movie	1		246	50.0	2.5	/experiments/AOT/AOT_stimuli/rescaled_final/1789_fw.mp4	0.0	261.58121395111084	2.500044107437134
52	236.0656111240387	pulse	1	t		50.0	2.5	/experiments/AOT/AOT_stimuli/rescaled_final/1789_fw.mp4	0.0	262.3647050857544	
52	237.6652250289917	pulse	1	t		50.0	2.5	/experiments/AOT/AOT_stimuli/rescaled_final/1789_fw.mp4	0.0	263.9643189907074	
52	237.78216409683228	fix_post	2		12	50.0	2.5	/experiments/AOT/AOT_stimuli/rescaled_final/1789_fw.mp4	0.0	264.081258058548	0.09990501403808594
53	237.88206911087036	fix_pre	0		120	51.0	2.5	/experiments/AOT/AOT_stimuli/rescaled_final/1000_rv.mp4	0.0	264.18116307258606	1.0000410079956055
53	238.88211011886597	movie	1		245	51.0	2.5	/experiments/AOT/AOT_stimuli/rescaled_final/1000_rv.mp4	0.0	265.18120408058167	2.49993896484375
53	239.26685309410095	pulse	1	t		51.0	2.5	/experiments/AOT/AOT_stimuli/rescaled_final/1000_rv.mp4	0.0	265.56594705581665	
53	240.86561512947083	pulse	1	t		51.0	2.5	/experiments/AOT/AOT_stimuli/rescaled_final/1000_rv.mp4	0.0	267.1647090911865	
53	241.38204908370972	fix_post	2		12	51.0	2.5	/experiments/AOT/AOT_stimuli/rescaled_final/1000_rv.mp4	0.0	267.6811430454254	0.10002994537353516
54	241.48207902908325	fix_pre	0		119	52.0	2.5	/experiments/AOT/AOT_stimuli/rescaled_final/1789_fw.mp4	0.0	267.78117299079895	0.9917080402374268
54	242.46559309959412	pulse	0	t		52.0	2.5	/experiments/AOT/AOT_stimuli/rescaled_final/1789_fw.mp4	0.0	268.7646870613098	
54	242.47378706932068	movie	1		248	52.0	2.5	/experiments/AOT/AOT_stimuli/rescaled_final/1789_fw.mp4	0.0	268.7728810310364	2.508272886276245
54	244.06537699699402	pulse	1	t		52.0	2.5	/experiments/AOT/AOT_stimuli/rescaled_final/1789_fw.mp4	0.0	270.3644709587097	
54	244.98205995559692	fix_post	2		12	52.0	2.5	/experiments/AOT/AOT_stimuli/rescaled_final/1789_fw.mp4	0.0	271.2811539173126	0.10004305839538574
55	245.0821030139923	fix_pre	0		120	53.0	2.5	/experiments/AOT/AOT_stimuli/rescaled_final/1954_rv.mp4	0.0	271.381196975708	0.999985933303833
55	245.66676902770996	pulse	0	t		53.0	2.5	/experiments/AOT/AOT_stimuli/rescaled_final/1954_rv.mp4	0.0	271.96586298942566	
55	246.08208894729614	movie	1		244	53.0	2.5	/experiments/AOT/AOT_stimuli/rescaled_final/1954_rv.mp4	0.0	272.38118290901184	2.4999990463256836
55	247.26568794250488	pulse	1	t		53.0	2.5	/experiments/AOT/AOT_stimuli/rescaled_final/1954_rv.mp4	0.0	273.5647819042206	
55	248.58208799362183	fix_post	2		12	53.0	2.5	/experiments/AOT/AOT_stimuli/rescaled_final/1954_rv.mp4	0.0	274.8811819553375	0.09958100318908691
56	248.6816689968109	fix_pre	0		120	54.0	2.5	/experiments/AOT/AOT_stimuli/rescaled_final/2105_rv.mp4	0.0	274.9807629585266	1.0001261234283447
56	248.86558198928833	pulse	0	t		54.0	2.5	/experiments/AOT/AOT_stimuli/rescaled_final/2105_rv.mp4	0.0	275.164675951004	
56	249.68179512023926	movie	1		246	54.0	2.5	/experiments/AOT/AOT_stimuli/rescaled_final/2105_rv.mp4	0.0	275.98088908195496	2.5002670288085938
56	250.4655339717865	pulse	1	t		54.0	2.5	/experiments/AOT/AOT_stimuli/rescaled_final/2105_rv.mp4	0.0	276.7646279335022	
56	252.06430912017822	pulse	1	t		54.0	2.5	/experiments/AOT/AOT_stimuli/rescaled_final/2105_rv.mp4	0.0	278.3634030818939	
56	252.18206214904785	fix_post	2		12	54.0	2.5	/experiments/AOT/AOT_stimuli/rescaled_final/2105_rv.mp4	0.0	278.48115611076355	0.1000359058380127
57	252.28209805488586	fix_pre	0		120	55.0	2.5	blank	1.0	278.58119201660156	0.9999809265136719
57	253.28207898139954	movie	1		300	55.0	2.5	blank	1.0	279.58117294311523	2.4999771118164062
57	253.66551208496094	pulse	1	t		55.0	2.5	blank	1.0	279.96460604667664	
57	255.26549315452576	pulse	1	t		55.0	2.5	blank	1.0	281.56458711624146	
57	255.78205609321594	fix_post	2		12	55.0	2.5	blank	1.0	282.08115005493164	0.10001397132873535
58	255.88207006454468	fix_pre	0		119	56.0	2.5	/experiments/AOT/AOT_stimuli/rescaled_final/2054_fw.mp4	0.0	282.1811640262604	0.9916150569915771
58	256.86556601524353	pulse	0	t		56.0	2.5	/experiments/AOT/AOT_stimuli/rescaled_final/2054_fw.mp4	0.0	283.16465997695923	
58	256.87368512153625	movie	1		245	56.0	2.5	/experiments/AOT/AOT_stimuli/rescaled_final/2054_fw.mp4	0.0	283.17277908325195	2.5083529949188232
58	258.46527004241943	pulse	1	t		56.0	2.5	/experiments/AOT/AOT_stimuli/rescaled_final/2054_fw.mp4	0.0	284.76436400413513	
58	259.3820381164551	fix_post	2		12	56.0	2.5	/experiments/AOT/AOT_stimuli/rescaled_final/2054_fw.mp4	0.0	285.6811320781708	0.1000359058380127
59	259.4820740222931	fix_pre	0		120	57.0	2.5	/experiments/AOT/AOT_stimuli/rescaled_final/0629_fw.mp4	0.0	285.7811679840088	0.9995601177215576
59	260.06548714637756	pulse	0	t		57.0	2.5	/experiments/AOT/AOT_stimuli/rescaled_final/0629_fw.mp4	0.0	286.36458110809326	
59	260.48163414001465	movie	1		245	57.0	2.5	/experiments/AOT/AOT_stimuli/rescaled_final/0629_fw.mp4	0.0	286.78072810173035	2.5002598762512207
59	261.66557097435	pulse	1	t		57.0	2.5	/experiments/AOT/AOT_stimuli/rescaled_final/0629_fw.mp4	0.0	287.9646649360657	
59	262.98189401626587	fix_post	2		12	57.0	2.5	/experiments/AOT/AOT_stimuli/rescaled_final/0629_fw.mp4	0.0	289.28098797798157	0.10010194778442383
60	263.0819959640503	fix_pre	0		120	58.0	2.5	/experiments/AOT/AOT_stimuli/rescaled_final/0526_rv.mp4	0.0	289.381089925766	0.99996018409729
60	263.2655041217804	pulse	0	t		58.0	2.5	/experiments/AOT/AOT_stimuli/rescaled_final/0526_rv.mp4	0.0	289.5645980834961	
60	264.0819561481476	movie	1		246	58.0	2.5	/experiments/AOT/AOT_stimuli/rescaled_final/0526_rv.mp4	0.0	290.3810501098633	2.5000410079956055
60	264.86550402641296	pulse	1	t		58.0	2.5	/experiments/AOT/AOT_stimuli/rescaled_final/0526_rv.mp4	0.0	291.16459798812866	
60	266.46576404571533	pulse	1	t		58.0	2.5	/experiments/AOT/AOT_stimuli/rescaled_final/0526_rv.mp4	0.0	292.76485800743103	
60	266.5819971561432	fix_post	2		12	58.0	2.5	/experiments/AOT/AOT_stimuli/rescaled_final/0526_rv.mp4	0.0	292.8810911178589	0.0999917984008789
61	266.68198895454407	fix_pre	0		120	59.0	2.5	/experiments/AOT/AOT_stimuli/rescaled_final/1138_fw.mp4	0.0	292.98108291625977	0.9996070861816406
61	267.6815960407257	movie	1		244	59.0	2.5	/experiments/AOT/AOT_stimuli/rescaled_final/1138_fw.mp4	0.0	293.9806900024414	2.5002191066741943
61	268.06487011909485	pulse	1	t		59.0	2.5	/experiments/AOT/AOT_stimuli/rescaled_final/1138_fw.mp4	0.0	294.36396408081055	
61	269.66572403907776	pulse	1	t		59.0	2.5	/experiments/AOT/AOT_stimuli/rescaled_final/1138_fw.mp4	0.0	295.96481800079346	
61	270.1818151473999	fix_post	2		12	59.0	2.5	/experiments/AOT/AOT_stimuli/rescaled_final/1138_fw.mp4	0.0	296.4809091091156	0.10013389587402344
62	270.2819490432739	fix_pre	0		119	60.0	2.5	/experiments/AOT/AOT_stimuli/rescaled_final/0588_fw.mp4	0.0	296.5810430049896	0.9917700290679932
62	271.2654459476471	pulse	0	t		60.0	2.5	/experiments/AOT/AOT_stimuli/rescaled_final/0588_fw.mp4	0.0	297.5645399093628	
62	271.2737190723419	movie	1		245	60.0	2.5	/experiments/AOT/AOT_stimuli/rescaled_final/0588_fw.mp4	0.0	297.5728130340576	2.508175849914551
62	272.86504006385803	pulse	1	t		60.0	2.5	/experiments/AOT/AOT_stimuli/rescaled_final/0588_fw.mp4	0.0	299.16413402557373	
62	273.78189492225647	fix_post	2		12	60.0	2.5	/experiments/AOT/AOT_stimuli/rescaled_final/0588_fw.mp4	0.0	300.08098888397217	0.10002017021179199
63	273.88191509246826	fix_pre	0		120	61.0	2.5	/experiments/AOT/AOT_stimuli/rescaled_final/1972_rv.mp4	0.0	300.18100905418396	1.0000889301300049
63	274.46549892425537	pulse	0	t		61.0	2.5	/experiments/AOT/AOT_stimuli/rescaled_final/1972_rv.mp4	0.0	300.76459288597107	
63	274.88200402259827	movie	1		248	61.0	2.5	/experiments/AOT/AOT_stimuli/rescaled_final/1972_rv.mp4	0.0	301.18109798431396	2.4999399185180664
63	276.06548595428467	pulse	1	t		61.0	2.5	/experiments/AOT/AOT_stimuli/rescaled_final/1972_rv.mp4	0.0	302.36457991600037	
63	277.38194394111633	fix_post	2		12	61.0	2.5	/experiments/AOT/AOT_stimuli/rescaled_final/1972_rv.mp4	0.0	303.68103790283203	0.1000511646270752
64	277.4819951057434	fix_pre	0		120	62.0	2.5	blank	1.0	303.7810890674591	0.9998738765716553
64	277.6653821468353	pulse	0	t		62.0	2.5	blank	1.0	303.964476108551	
64	278.48186898231506	movie	1		300	62.0	2.5	blank	1.0	304.78096294403076	2.500087022781372
64	279.2653670310974	pulse	1	t		62.0	2.5	blank	1.0	305.5644609928131	
64	280.86534309387207	pulse	1	t		62.0	2.5	blank	1.0	307.16443705558777	
64	280.98195600509644	fix_post	2		12	62.0	2.5	blank	1.0	307.28104996681213	0.09988093376159668
65	281.08183693885803	fix_pre	0		120	63.0	2.5	/experiments/AOT/AOT_stimuli/rescaled_final/1490_rv.mp4	0.0	307.38093090057373	1.0000531673431396
65	282.0818901062012	movie	1		244	63.0	2.5	/experiments/AOT/AOT_stimuli/rescaled_final/1490_rv.mp4	0.0	308.38098406791687	2.500006914138794
65	282.4650311470032	pulse	1	t		63.0	2.5	/experiments/AOT/AOT_stimuli/rescaled_final/1490_rv.mp4	0.0	308.7641251087189	
65	284.0653419494629	pulse	1	t		63.0	2.5	/experiments/AOT/AOT_stimuli/rescaled_final/1490_rv.mp4	0.0	310.3644359111786	
65	284.58189702033997	fix_post	2		12	63.0	2.5	/experiments/AOT/AOT_stimuli/rescaled_final/1490_rv.mp4	0.0	310.88099098205566	0.0999751091003418
66	284.6818721294403	fix_pre	0		119	64.0	2.5	/experiments/AOT/AOT_stimuli/rescaled_final/0123_fw.mp4	0.0	310.980966091156	0.9915788173675537
66	285.6654140949249	pulse	0	t		64.0	2.5	/experiments/AOT/AOT_stimuli/rescaled_final/0123_fw.mp4	0.0	311.9645080566406	
66	285.67345094680786	movie	1		246	64.0	2.5	/experiments/AOT/AOT_stimuli/rescaled_final/0123_fw.mp4	0.0	311.97254490852356	2.507966995239258
66	287.265025138855	pulse	1	t		64.0	2.5	/experiments/AOT/AOT_stimuli/rescaled_final/0123_fw.mp4	0.0	313.5641191005707	
66	288.1814179420471	fix_post	2		12	64.0	2.5	/experiments/AOT/AOT_stimuli/rescaled_final/0123_fw.mp4	0.0	314.4805119037628	0.10042810440063477
67	288.28184604644775	fix_pre	0		120	65.0	2.5	/experiments/AOT/AOT_stimuli/rescaled_final/0287_rv.mp4	0.0	314.58094000816345	1.0000739097595215
67	288.8653700351715	pulse	0	t		65.0	2.5	/experiments/AOT/AOT_stimuli/rescaled_final/0287_rv.mp4	0.0	315.1644639968872	
67	289.2819199562073	movie	1		246	65.0	2.5	/experiments/AOT/AOT_stimuli/rescaled_final/0287_rv.mp4	0.0	315.581013917923	2.499998092651367
67	290.4654059410095	pulse	1	t		65.0	2.5	/experiments/AOT/AOT_stimuli/rescaled_final/0287_rv.mp4	0.0	316.7644999027252	
67	291.78191804885864	fix_post	2		12	65.0	2.5	/experiments/AOT/AOT_stimuli/rescaled_final/0287_rv.mp4	0.0	318.08101201057434	0.09997105598449707
68	291.88188910484314	fix_pre	0		120	66.0	2.5	/experiments/AOT/AOT_stimuli/rescaled_final/1490_fw.mp4	0.0	318.18098306655884	0.999945878982544
68	292.0653691291809	pulse	0	t		66.0	2.5	/experiments/AOT/AOT_stimuli/rescaled_final/1490_fw.mp4	0.0	318.3644630908966	
68	292.8818349838257	movie	1		246	66.0	2.5	/experiments/AOT/AOT_stimuli/rescaled_final/1490_fw.mp4	0.0	319.1809289455414	2.4999849796295166
68	293.6653559207916	pulse	1	t		66.0	2.5	/experiments/AOT/AOT_stimuli/rescaled_final/1490_fw.mp4	0.0	319.9644498825073	
68	295.2637851238251	pulse	1	t		66.0	2.5	/experiments/AOT/AOT_stimuli/rescaled_final/1490_fw.mp4	0.0	321.56287908554077	
68	295.3818199634552	fix_post	2		12	66.0	2.5	/experiments/AOT/AOT_stimuli/rescaled_final/1490_fw.mp4	0.0	321.6809139251709	0.09999418258666992
69	295.48181414604187	fix_pre	0		120	67.0	2.5	/experiments/AOT/AOT_stimuli/rescaled_final/1281_fw.mp4	0.0	321.78090810775757	0.9999489784240723
69	296.48176312446594	movie	1		247	67.0	2.5	/experiments/AOT/AOT_stimuli/rescaled_final/1281_fw.mp4	0.0	322.78085708618164	2.499985933303833
69	296.86495900154114	pulse	1	t		67.0	2.5	/experiments/AOT/AOT_stimuli/rescaled_final/1281_fw.mp4	0.0	323.16405296325684	
69	298.46527194976807	pulse	1	t		67.0	2.5	/experiments/AOT/AOT_stimuli/rescaled_final/1281_fw.mp4	0.0	324.76436591148376	
69	298.9817490577698	fix_post	2		12	67.0	2.5	/experiments/AOT/AOT_stimuli/rescaled_final/1281_fw.mp4	0.0	325.2808430194855	0.09997987747192383
70	299.0817289352417	fix_pre	0		119	68.0	2.5	/experiments/AOT/AOT_stimuli/rescaled_final/1315_fw.mp4	0.0	325.3808228969574	0.9918332099914551
70	300.0653519630432	pulse	0	t		68.0	2.5	/experiments/AOT/AOT_stimuli/rescaled_final/1315_fw.mp4	0.0	326.3644459247589	
70	300.07356214523315	movie	1		248	68.0	2.5	/experiments/AOT/AOT_stimuli/rescaled_final/1315_fw.mp4	0.0	326.37265610694885	2.508246898651123
70	301.6652901172638	pulse	1	t		68.0	2.5	/experiments/AOT/AOT_stimuli/rescaled_final/1315_fw.mp4	0.0	327.9643840789795	
70	302.5818090438843	fix_post	2		12	68.0	2.5	/experiments/AOT/AOT_stimuli/rescaled_final/1315_fw.mp4	0.0	328.8809030056	0.10005903244018555
71	302.68186807632446	fix_pre	0		120	69.0	2.5	/experiments/AOT/AOT_stimuli/rescaled_final/2035_rv.mp4	0.0	328.98096203804016	0.9998948574066162
71	303.26536202430725	pulse	0	t		69.0	2.5	/experiments/AOT/AOT_stimuli/rescaled_final/2035_rv.mp4	0.0	329.56445598602295	
71	303.6817629337311	movie	1		244	69.0	2.5	/experiments/AOT/AOT_stimuli/rescaled_final/2035_rv.mp4	0.0	329.9808568954468	2.4996860027313232
71	304.8652949333191	pulse	1	t		69.0	2.5	/experiments/AOT/AOT_stimuli/rescaled_final/2035_rv.mp4	0.0	331.1643888950348	
71	306.1814489364624	fix_post	2		12	69.0	2.5	/experiments/AOT/AOT_stimuli/rescaled_final/2035_rv.mp4	0.0	332.4805428981781	0.1003119945526123
72	306.281760931015	fix_pre	0		120	70.0	2.5	blank	1.0	332.5808548927307	0.9999260902404785
72	306.46533393859863	pulse	0	t		70.0	2.5	blank	1.0	332.76442790031433	
72	307.2816870212555	movie	1		300	70.0	2.5	blank	1.0	333.5807809829712	2.5000879764556885
72	308.06528401374817	pulse	1	t		70.0	2.5	blank	1.0	334.36437797546387	
72	309.6652150154114	pulse	1	t		70.0	2.5	blank	1.0	335.9643089771271	
72	309.7817749977112	fix_post	2		12	70.0	2.5	blank	1.0	336.0808689594269	0.09949803352355957
73	309.88127303123474	fix_pre	0		120	71.0	2.5	/experiments/AOT/AOT_stimuli/rescaled_final/1363_rv.mp4	0.0	336.18036699295044	1.0000159740447998
73	310.88128900527954	movie	1		244	71.0	2.5	/experiments/AOT/AOT_stimuli/rescaled_final/1363_rv.mp4	0.0	337.18038296699524	2.500481128692627
73	311.26471996307373	pulse	1	t		71.0	2.5	/experiments/AOT/AOT_stimuli/rescaled_final/1363_rv.mp4	0.0	337.56381392478943	
73	312.86522912979126	pulse	1	t		71.0	2.5	/experiments/AOT/AOT_stimuli/rescaled_final/1363_rv.mp4	0.0	339.16432309150696	
73	313.38177013397217	fix_post	2		12	71.0	2.5	/experiments/AOT/AOT_stimuli/rescaled_final/1363_rv.mp4	0.0	339.68086409568787	0.09952187538146973
74	313.48129200935364	fix_pre	0		119	72.0	2.5	/experiments/AOT/AOT_stimuli/rescaled_final/1625_rv.mp4	0.0	339.78038597106934	0.9921951293945312
74	314.46524715423584	pulse	0	t		72.0	2.5	/experiments/AOT/AOT_stimuli/rescaled_final/1625_rv.mp4	0.0	340.76434111595154	
74	314.47348713874817	movie	1		247	72.0	2.5	/experiments/AOT/AOT_stimuli/rescaled_final/1625_rv.mp4	0.0	340.77258110046387	2.5082459449768066
74	316.06481409072876	pulse	1	t		72.0	2.5	/experiments/AOT/AOT_stimuli/rescaled_final/1625_rv.mp4	0.0	342.36390805244446	
74	316.981733083725	fix_post	2		12	72.0	2.5	/experiments/AOT/AOT_stimuli/rescaled_final/1625_rv.mp4	0.0	343.2808270454407	0.10003399848937988
75	317.08176708221436	fix_pre	0		120	73.0	2.5	/experiments/AOT/AOT_stimuli/rescaled_final/1537_fw.mp4	0.0	343.38086104393005	1.0000250339508057
75	317.6664810180664	pulse	0	t		73.0	2.5	/experiments/AOT/AOT_stimuli/rescaled_final/1537_fw.mp4	0.0	343.9655749797821	
75	318.08179211616516	movie	1		244	73.0	2.5	/experiments/AOT/AOT_stimuli/rescaled_final/1537_fw.mp4	0.0	344.38088607788086	2.499910831451416
75	319.26524901390076	pulse	1	t		73.0	2.5	/experiments/AOT/AOT_stimuli/rescaled_final/1537_fw.mp4	0.0	345.56434297561646	
75	320.5817029476166	fix_post	2		12	73.0	2.5	/experiments/AOT/AOT_stimuli/rescaled_final/1537_fw.mp4	0.0	346.8807969093323	0.0999751091003418
76	320.6816780567169	fix_pre	0		120	74.0	2.5	/experiments/AOT/AOT_stimuli/rescaled_final/0846_fw.mp4	0.0	346.9807720184326	1.0000829696655273
76	320.8653099536896	pulse	0	t		74.0	2.5	/experiments/AOT/AOT_stimuli/rescaled_final/0846_fw.mp4	0.0	347.1644039154053	
76	321.68176102638245	movie	1		250	74.0	2.5	/experiments/AOT/AOT_stimuli/rescaled_final/0846_fw.mp4	0.0	347.98085498809814	2.4996531009674072
76	322.4652690887451	pulse	1	t		74.0	2.5	/experiments/AOT/AOT_stimuli/rescaled_final/0846_fw.mp4	0.0	348.7643630504608	
76	324.06475496292114	pulse	1	t		74.0	2.5	/experiments/AOT/AOT_stimuli/rescaled_final/0846_fw.mp4	0.0	350.36384892463684	
76	324.18141412734985	fix_post	2		12	74.0	2.5	/experiments/AOT/AOT_stimuli/rescaled_final/0846_fw.mp4	0.0	350.48050808906555	0.10000085830688477
77	324.28141498565674	fix_pre	0		120	75.0	2.5	blank	1.0	350.58050894737244	1.0001320838928223
77	325.28154706954956	movie	1		300	75.0	2.5	blank	1.0	351.58064103126526	2.500185012817383
77	325.6650159358978	pulse	1	t		75.0	2.5	blank	1.0	351.9641098976135	
77	327.2653350830078	pulse	1	t		75.0	2.5	blank	1.0	353.5644290447235	
77	327.78173208236694	fix_post	2		12	75.0	2.5	blank	1.0	354.08082604408264	0.09992790222167969
78	327.8816599845886	fix_pre	0		119	76.0	2.5	/experiments/AOT/AOT_stimuli/rescaled_final/0817_fw.mp4	0.0	354.1807539463043	0.991811990737915
78	328.86516308784485	pulse	0	t		76.0	2.5	/experiments/AOT/AOT_stimuli/rescaled_final/0817_fw.mp4	0.0	355.16425704956055	
78	328.87347197532654	movie	1		246	76.0	2.5	/experiments/AOT/AOT_stimuli/rescaled_final/0817_fw.mp4	0.0	355.17256593704224	2.508120059967041
78	330.4651861190796	pulse	1	t		76.0	2.5	/experiments/AOT/AOT_stimuli/rescaled_final/0817_fw.mp4	0.0	356.7642800807953	
78	331.3815920352936	fix_post	2		12	76.0	2.5	/experiments/AOT/AOT_stimuli/rescaled_final/0817_fw.mp4	0.0	357.6806859970093	0.09997797012329102
79	331.48157000541687	fix_pre	0		120	77.0	2.5	/experiments/AOT/AOT_stimuli/rescaled_final/1365_fw.mp4	0.0	357.78066396713257	0.9996421337127686
79	332.06515097618103	pulse	0	t		77.0	2.5	/experiments/AOT/AOT_stimuli/rescaled_final/1365_fw.mp4	0.0	358.36424493789673	
79	332.48121213912964	movie	1		246	77.0	2.5	/experiments/AOT/AOT_stimuli/rescaled_final/1365_fw.mp4	0.0	358.78030610084534	2.5003888607025146
79	333.66529607772827	pulse	1	t		77.0	2.5	/experiments/AOT/AOT_stimuli/rescaled_final/1365_fw.mp4	0.0	359.96439003944397	
79	334.98160099983215	fix_post	2		12	77.0	2.5	/experiments/AOT/AOT_stimuli/rescaled_final/1365_fw.mp4	0.0	361.28069496154785	0.10001206398010254
80	335.08161306381226	fix_pre	0		120	78.0	2.5	/experiments/AOT/AOT_stimuli/rescaled_final/0232_rv.mp4	0.0	361.38070702552795	0.9999349117279053
80	335.2651960849762	pulse	0	t		78.0	2.5	/experiments/AOT/AOT_stimuli/rescaled_final/0232_rv.mp4	0.0	361.5642900466919	
80	336.08154797554016	movie	1		246	78.0	2.5	/experiments/AOT/AOT_stimuli/rescaled_final/0232_rv.mp4	0.0	362.38064193725586	2.5000059604644775
80	336.8650710582733	pulse	1	t		78.0	2.5	/experiments/AOT/AOT_stimuli/rescaled_final/0232_rv.mp4	0.0	363.164165019989	
80	338.46366000175476	pulse	1	t		78.0	2.5	/experiments/AOT/AOT_stimuli/rescaled_final/0232_rv.mp4	0.0	364.76275396347046	
80	338.58155393600464	fix_post	2		12	78.0	2.5	/experiments/AOT/AOT_stimuli/rescaled_final/0232_rv.mp4	0.0	364.88064789772034	0.10002613067626953
81	338.6815800666809	fix_pre	0		120	79.0	2.5	/experiments/AOT/AOT_stimuli/rescaled_final/1157_rv.mp4	0.0	364.9806740283966	1.0000920295715332
81	339.68167209625244	movie	1		246	79.0	2.5	/experiments/AOT/AOT_stimuli/rescaled_final/1157_rv.mp4	0.0	365.98076605796814	2.4999380111694336
81	340.06617307662964	pulse	1	t		79.0	2.5	/experiments/AOT/AOT_stimuli/rescaled_final/1157_rv.mp4	0.0	366.36526703834534	
81	341.6651611328125	pulse	1	t		79.0	2.5	/experiments/AOT/AOT_stimuli/rescaled_final/1157_rv.mp4	0.0	367.9642550945282	
81	342.1816101074219	fix_post	2		12	79.0	2.5	/experiments/AOT/AOT_stimuli/rescaled_final/1157_rv.mp4	0.0	368.4807040691376	0.10001683235168457
82	342.28162693977356	fix_pre	0		119	80.0	2.5	/experiments/AOT/AOT_stimuli/rescaled_final/1348_rv.mp4	0.0	368.58072090148926	0.9916801452636719
82	343.26511001586914	pulse	0	t		80.0	2.5	/experiments/AOT/AOT_stimuli/rescaled_final/1348_rv.mp4	0.0	369.56420397758484	
82	343.27330708503723	movie	1		246	80.0	2.5	/experiments/AOT/AOT_stimuli/rescaled_final/1348_rv.mp4	0.0	369.57240104675293	2.5083210468292236
82	344.8651371002197	pulse	1	t		80.0	2.5	/experiments/AOT/AOT_stimuli/rescaled_final/1348_rv.mp4	0.0	371.1642310619354	
82	345.78162813186646	fix_post	2		12	80.0	2.5	/experiments/AOT/AOT_stimuli/rescaled_final/1348_rv.mp4	0.0	372.08072209358215	0.09953880310058594
83	345.88116693496704	fix_pre	0		120	81.0	2.5	/experiments/AOT/AOT_stimuli/rescaled_final/1684_fw.mp4	0.0	372.18026089668274	1.0003950595855713
83	346.4651529788971	pulse	0	t		81.0	2.5	/experiments/AOT/AOT_stimuli/rescaled_final/1684_fw.mp4	0.0	372.7642469406128	
83	346.8815619945526	movie	1		246	81.0	2.5	/experiments/AOT/AOT_stimuli/rescaled_final/1684_fw.mp4	0.0	373.1806559562683	2.499969959259033
83	348.06512904167175	pulse	1	t		81.0	2.5	/experiments/AOT/AOT_stimuli/rescaled_final/1684_fw.mp4	0.0	374.36422300338745	
83	349.38153195381165	fix_post	2		12	81.0	2.5	/experiments/AOT/AOT_stimuli/rescaled_final/1684_fw.mp4	0.0	375.68062591552734	0.10003018379211426
84	349.48156213760376	fix_pre	0		120	82.0	2.5	blank	1.0	375.78065609931946	0.9999768733978271
84	349.665030002594	pulse	0	t		82.0	2.5	blank	1.0	375.9641239643097	
84	350.4815390110016	movie	1		300	82.0	2.5	blank	1.0	376.7806329727173	2.499988079071045
84	351.26495814323425	pulse	1	t		82.0	2.5	blank	1.0	377.56405210494995	
84	352.8650200366974	pulse	1	t		82.0	2.5	blank	1.0	379.1641139984131	
84	352.98152709007263	fix_post	2		12	82.0	2.5	blank	1.0	379.28062105178833	0.10002398490905762
85	353.0815510749817	fix_pre	0		120	83.0	2.5	/experiments/AOT/AOT_stimuli/rescaled_final/0817_rv.mp4	0.0	379.3806450366974	1.000006914138794
85	354.0815579891205	movie	1		245	83.0	2.5	/experiments/AOT/AOT_stimuli/rescaled_final/0817_rv.mp4	0.0	380.3806519508362	2.499575138092041
85	354.4645230770111	pulse	1	t		83.0	2.5	/experiments/AOT/AOT_stimuli/rescaled_final/0817_rv.mp4	0.0	380.7636170387268	
85	356.06507205963135	pulse	1	t		83.0	2.5	/experiments/AOT/AOT_stimuli/rescaled_final/0817_rv.mp4	0.0	382.36416602134705	
85	356.5811331272125	fix_post	2		12	83.0	2.5	/experiments/AOT/AOT_stimuli/rescaled_final/0817_rv.mp4	0.0	382.8802270889282	0.10039591789245605
87	356.681529045105	stim	0		1716					382.9806230068207	14.299976110458374
87	357.6650581359863	pulse	0	t						383.964152097702	
87	359.2650079727173	pulse	0	t						385.564101934433	
87	360.8649709224701	pulse	0	t						387.1640648841858	
87	362.465008020401	pulse	0	t						388.7641019821167	
87	364.0649960041046	pulse	0	t						390.3640899658203	
87	365.664999961853	pulse	0	t						391.9640939235687	
87	367.26507902145386	pulse	0	t						393.56417298316956	
87	368.86496210098267	pulse	0	t						395.16405606269836	
87	370.46485900878906	pulse	0	t						396.76395297050476	
