trial_nr	onset	event_type	phase	response	nr_frames	movie_index	movie_duration	movie_file	blank	onset_abs	duration
0	0.1914680004119873	stim	0		440					39.65102410316467	3.6838219165802
0	3.8632049560546875	response	0	space						43.32276105880737	
1	3.8752899169921875	stim	0		4782					43.33484601974487	39.856022119522095
1	43.723138093948364	pulse	0	t						83.18269419670105	
1	43.73131203651428	stim	1		1714					83.19086813926697	14.302066087722778
1	45.32329297065735	pulse	1	t						84.78284907341003	
1	46.92359399795532	pulse	1	t						86.38315010070801	
1	48.52389311790466	pulse	1	t						87.98344922065735	
1	50.11649513244629	pulse	1	t						89.57605123519897	
1	51.7168710231781	pulse	1	t						91.17642712593079	
1	53.31697702407837	pulse	1	t						92.77653312683105	
1	54.91718411445618	pulse	1	t						94.37674021720886	
1	56.516557931900024	pulse	1	t						95.97611403465271	
2	58.03337812423706	fix_pre	0		11	0.0	2.5	/experiments/knapen_AOT/AOT_stimuli/rescaled_final/1023_rv.mp4	0.0	97.49293422698975	0.09160494804382324
2	58.116997957229614	pulse	0	t		0.0	2.5	/experiments/knapen_AOT/AOT_stimuli/rescaled_final/1023_rv.mp4	0.0	97.5765540599823	
2	58.124983072280884	movie	1		242	0.0	2.5	/experiments/knapen_AOT/AOT_stimuli/rescaled_final/1023_rv.mp4	0.0	97.58453917503357	2.5089879035949707
2	59.71777701377869	pulse	1	t		0.0	2.5	/experiments/knapen_AOT/AOT_stimuli/rescaled_final/1023_rv.mp4	0.0	99.17733311653137	
2	60.633970975875854	fix_post	2		12	0.0	2.5	/experiments/knapen_AOT/AOT_stimuli/rescaled_final/1023_rv.mp4	0.0	100.09352707862854	0.09984397888183594
3	60.73381495475769	fix_pre	0		120	1.0	2.5	/experiments/knapen_AOT/AOT_stimuli/rescaled_final/1643_fw.mp4	0.0	100.19337105751038	1.0002110004425049
3	61.31730890274048	pulse	0	t		1.0	2.5	/experiments/knapen_AOT/AOT_stimuli/rescaled_final/1643_fw.mp4	0.0	100.77686500549316	
3	61.734025955200195	movie	1		242	1.0	2.5	/experiments/knapen_AOT/AOT_stimuli/rescaled_final/1643_fw.mp4	0.0	101.19358205795288	2.500261068344116
3	62.9177680015564	pulse	1	t		1.0	2.5	/experiments/knapen_AOT/AOT_stimuli/rescaled_final/1643_fw.mp4	0.0	102.37732410430908	
3	64.23428702354431	fix_post	2		12	1.0	2.5	/experiments/knapen_AOT/AOT_stimuli/rescaled_final/1643_fw.mp4	0.0	103.693843126297	0.10000205039978027
4	64.33428907394409	fix_pre	0		120	2.0	2.5	/experiments/knapen_AOT/AOT_stimuli/rescaled_final/0915_rv.mp4	0.0	103.79384517669678	1.0002830028533936
4	64.51796913146973	pulse	0	t		2.0	2.5	/experiments/knapen_AOT/AOT_stimuli/rescaled_final/0915_rv.mp4	0.0	103.97752523422241	
4	65.33457207679749	movie	1		242	2.0	2.5	/experiments/knapen_AOT/AOT_stimuli/rescaled_final/0915_rv.mp4	0.0	104.79412817955017	2.5004830360412598
4	66.11815690994263	pulse	1	t		2.0	2.5	/experiments/knapen_AOT/AOT_stimuli/rescaled_final/0915_rv.mp4	0.0	105.57771301269531	
4	67.71809697151184	pulse	1	t		2.0	2.5	/experiments/knapen_AOT/AOT_stimuli/rescaled_final/0915_rv.mp4	0.0	107.17765307426453	
4	67.83505511283875	fix_post	2		12	2.0	2.5	/experiments/knapen_AOT/AOT_stimuli/rescaled_final/0915_rv.mp4	0.0	107.29461121559143	0.09980297088623047
5	67.93485808372498	fix_pre	0		120	3.0	2.5	/experiments/knapen_AOT/AOT_stimuli/rescaled_final/0150_fw.mp4	0.0	107.39441418647766	1.0001068115234375
5	68.93496489524841	movie	1		241	3.0	2.5	/experiments/knapen_AOT/AOT_stimuli/rescaled_final/0150_fw.mp4	0.0	108.3945209980011	2.5003859996795654
5	69.31898903846741	pulse	1	t		3.0	2.5	/experiments/knapen_AOT/AOT_stimuli/rescaled_final/0150_fw.mp4	0.0	108.77854514122009	
5	70.91893792152405	pulse	1	t		3.0	2.5	/experiments/knapen_AOT/AOT_stimuli/rescaled_final/0150_fw.mp4	0.0	110.37849402427673	
5	71.43535089492798	fix_post	2		12	3.0	2.5	/experiments/knapen_AOT/AOT_stimuli/rescaled_final/0150_fw.mp4	0.0	110.89490699768066	0.10007023811340332
6	71.53542113304138	fix_pre	0		119	4.0	2.5	/experiments/knapen_AOT/AOT_stimuli/rescaled_final/0577_rv.mp4	0.0	110.99497723579407	0.9917638301849365
6	72.51917600631714	pulse	0	t		4.0	2.5	/experiments/knapen_AOT/AOT_stimuli/rescaled_final/0577_rv.mp4	0.0	111.97873210906982	
6	72.52718496322632	movie	1		243	4.0	2.5	/experiments/knapen_AOT/AOT_stimuli/rescaled_final/0577_rv.mp4	0.0	111.986741065979	2.508758068084717
6	74.11976504325867	pulse	1	t		4.0	2.5	/experiments/knapen_AOT/AOT_stimuli/rescaled_final/0577_rv.mp4	0.0	113.57932114601135	
6	75.03594303131104	fix_post	2		12	4.0	2.5	/experiments/knapen_AOT/AOT_stimuli/rescaled_final/0577_rv.mp4	0.0	114.49549913406372	0.09998703002929688
7	75.13593006134033	fix_pre	0		120	5.0	2.5	blank	1.0	114.59548616409302	1.0001459121704102
7	75.71948599815369	pulse	0	t		5.0	2.5	blank	1.0	115.17904210090637	
7	76.13607597351074	movie	1		300	5.0	2.5	blank	1.0	115.59563207626343	2.5003700256347656
7	77.3199200630188	pulse	1	t		5.0	2.5	blank	1.0	116.77947616577148	
7	78.63644599914551	fix_post	2		12	5.0	2.5	blank	1.0	118.0960021018982	0.10000109672546387
8	78.73644709587097	fix_pre	0		120	6.0	2.5	/experiments/knapen_AOT/AOT_stimuli/rescaled_final/1444_rv.mp4	0.0	118.19600319862366	1.0002968311309814
8	78.92013907432556	pulse	0	t		6.0	2.5	/experiments/knapen_AOT/AOT_stimuli/rescaled_final/1444_rv.mp4	0.0	118.37969517707825	
8	79.73674392700195	movie	1		242	6.0	2.5	/experiments/knapen_AOT/AOT_stimuli/rescaled_final/1444_rv.mp4	0.0	119.19630002975464	2.500462055206299
8	80.5202751159668	pulse	1	t		6.0	2.5	/experiments/knapen_AOT/AOT_stimuli/rescaled_final/1444_rv.mp4	0.0	119.97983121871948	
8	82.12045001983643	pulse	1	t		6.0	2.5	/experiments/knapen_AOT/AOT_stimuli/rescaled_final/1444_rv.mp4	0.0	121.58000612258911	
8	82.23720598220825	fix_post	2		12	6.0	2.5	/experiments/knapen_AOT/AOT_stimuli/rescaled_final/1444_rv.mp4	0.0	121.69676208496094	0.09983706474304199
9	82.3370430469513	fix_pre	0		120	7.0	2.5	/experiments/knapen_AOT/AOT_stimuli/rescaled_final/0772_rv.mp4	0.0	121.79659914970398	1.0000979900360107
9	83.3371410369873	movie	1		242	7.0	2.5	/experiments/knapen_AOT/AOT_stimuli/rescaled_final/0772_rv.mp4	0.0	122.79669713973999	2.4921929836273193
9	83.72102499008179	pulse	1	t		7.0	2.5	/experiments/knapen_AOT/AOT_stimuli/rescaled_final/0772_rv.mp4	0.0	123.18058109283447	
9	85.32112503051758	pulse	1	t		7.0	2.5	/experiments/knapen_AOT/AOT_stimuli/rescaled_final/0772_rv.mp4	0.0	124.78068113327026	
9	85.82933402061462	fix_post	2		12	7.0	2.5	/experiments/knapen_AOT/AOT_stimuli/rescaled_final/0772_rv.mp4	0.0	125.28889012336731	0.09985709190368652
10	85.92919111251831	fix_pre	0		120	8.0	2.5	/experiments/knapen_AOT/AOT_stimuli/rescaled_final/0495_fw.mp4	0.0	125.388747215271	1.0001349449157715
10	86.92126202583313	pulse	0	t		8.0	2.5	/experiments/knapen_AOT/AOT_stimuli/rescaled_final/0495_fw.mp4	0.0	126.38081812858582	
10	86.92932605743408	movie	1		244	8.0	2.5	/experiments/knapen_AOT/AOT_stimuli/rescaled_final/0495_fw.mp4	0.0	126.38888216018677	2.508755922317505
10	88.52593612670898	pulse	1	t		8.0	2.5	/experiments/knapen_AOT/AOT_stimuli/rescaled_final/0495_fw.mp4	0.0	127.98549222946167	
10	89.43808197975159	fix_post	2		12	8.0	2.5	/experiments/knapen_AOT/AOT_stimuli/rescaled_final/0495_fw.mp4	0.0	128.89763808250427	0.10005593299865723
11	89.53813791275024	fix_pre	0		120	9.0	2.5	/experiments/knapen_AOT/AOT_stimuli/rescaled_final/0579_fw.mp4	0.0	128.99769401550293	1.0001029968261719
11	90.12165713310242	pulse	0	t		9.0	2.5	/experiments/knapen_AOT/AOT_stimuli/rescaled_final/0579_fw.mp4	0.0	129.5812132358551	
11	90.53824090957642	movie	1		242	9.0	2.5	/experiments/knapen_AOT/AOT_stimuli/rescaled_final/0579_fw.mp4	0.0	129.9977970123291	2.5005290508270264
11	91.718022108078	pulse	1	t		9.0	2.5	/experiments/knapen_AOT/AOT_stimuli/rescaled_final/0579_fw.mp4	0.0	131.1775782108307	
11	93.03876996040344	fix_post	2		12	9.0	2.5	/experiments/knapen_AOT/AOT_stimuli/rescaled_final/0579_fw.mp4	0.0	132.49832606315613	0.0998389720916748
12	93.13860893249512	fix_pre	0		120	10.0	2.5	/experiments/knapen_AOT/AOT_stimuli/rescaled_final/0708_fw.mp4	0.0	132.5981650352478	1.0003480911254883
12	93.32226395606995	pulse	0	t		10.0	2.5	/experiments/knapen_AOT/AOT_stimuli/rescaled_final/0708_fw.mp4	0.0	132.78182005882263	
12	94.1389570236206	movie	1		239	10.0	2.5	/experiments/knapen_AOT/AOT_stimuli/rescaled_final/0708_fw.mp4	0.0	133.5985131263733	2.4919240474700928
12	94.92237997055054	pulse	1	t		10.0	2.5	/experiments/knapen_AOT/AOT_stimuli/rescaled_final/0708_fw.mp4	0.0	134.38193607330322	
12	96.52247500419617	pulse	1	t		10.0	2.5	/experiments/knapen_AOT/AOT_stimuli/rescaled_final/0708_fw.mp4	0.0	135.98203110694885	
12	96.6308810710907	fix_post	2		13	10.0	2.5	/experiments/knapen_AOT/AOT_stimuli/rescaled_final/0708_fw.mp4	0.0	136.09043717384338	0.10825991630554199
13	96.73914098739624	fix_pre	0		120	11.0	2.5	/experiments/knapen_AOT/AOT_stimuli/rescaled_final/1276_fw.mp4	0.0	136.19869709014893	1.000157117843628
13	97.73929810523987	movie	1		242	11.0	2.5	/experiments/knapen_AOT/AOT_stimuli/rescaled_final/1276_fw.mp4	0.0	137.19885420799255	2.492128849029541
13	98.12322807312012	pulse	1	t		11.0	2.5	/experiments/knapen_AOT/AOT_stimuli/rescaled_final/1276_fw.mp4	0.0	137.5827841758728	
13	99.72326993942261	pulse	1	t		11.0	2.5	/experiments/knapen_AOT/AOT_stimuli/rescaled_final/1276_fw.mp4	0.0	139.1828260421753	
13	100.23142695426941	fix_post	2		12	11.0	2.5	/experiments/knapen_AOT/AOT_stimuli/rescaled_final/1276_fw.mp4	0.0	139.6909830570221	0.0999140739440918
14	100.3313410282135	fix_pre	0		120	12.0	2.5	/experiments/knapen_AOT/AOT_stimuli/rescaled_final/0245_fw.mp4	0.0	139.7908971309662	1.0002100467681885
14	101.32335805892944	pulse	0	t		12.0	2.5	/experiments/knapen_AOT/AOT_stimuli/rescaled_final/0245_fw.mp4	0.0	140.78291416168213	
14	101.33155107498169	movie	1		244	12.0	2.5	/experiments/knapen_AOT/AOT_stimuli/rescaled_final/0245_fw.mp4	0.0	140.79110717773438	2.508668899536133
14	102.92436909675598	pulse	1	t		12.0	2.5	/experiments/knapen_AOT/AOT_stimuli/rescaled_final/0245_fw.mp4	0.0	142.38392519950867	
14	103.84021997451782	fix_post	2		12	12.0	2.5	/experiments/knapen_AOT/AOT_stimuli/rescaled_final/0245_fw.mp4	0.0	143.2997760772705	0.09998798370361328
15	103.94020795822144	fix_pre	0		120	13.0	2.5	blank	1.0	143.39976406097412	1.0001599788665771
15	104.52386093139648	pulse	0	t		13.0	2.5	blank	1.0	143.98341703414917	
15	104.94036793708801	movie	1		300	13.0	2.5	blank	1.0	144.3999240398407	2.500387191772461
15	106.12423610687256	pulse	1	t		13.0	2.5	blank	1.0	145.58379220962524	
15	107.44075512886047	fix_post	2		12	13.0	2.5	blank	1.0	146.90031123161316	0.10011076927185059
16	107.54086589813232	fix_pre	0		120	14.0	2.5	/experiments/knapen_AOT/AOT_stimuli/rescaled_final/1296_fw.mp4	0.0	147.000422000885	1.0002000331878662
16	107.72434592247009	pulse	0	t		14.0	2.5	/experiments/knapen_AOT/AOT_stimuli/rescaled_final/1296_fw.mp4	0.0	147.18390202522278	
16	108.54106593132019	movie	1		243	14.0	2.5	/experiments/knapen_AOT/AOT_stimuli/rescaled_final/1296_fw.mp4	0.0	148.00062203407288	2.5003421306610107
16	109.317214012146	pulse	1	t		14.0	2.5	/experiments/knapen_AOT/AOT_stimuli/rescaled_final/1296_fw.mp4	0.0	148.77677011489868	
16	110.92482590675354	pulse	1	t		14.0	2.5	/experiments/knapen_AOT/AOT_stimuli/rescaled_final/1296_fw.mp4	0.0	150.38438200950623	
16	111.0414080619812	fix_post	2		12	14.0	2.5	/experiments/knapen_AOT/AOT_stimuli/rescaled_final/1296_fw.mp4	0.0	150.5009641647339	0.09987306594848633
17	111.14128112792969	fix_pre	0		120	15.0	2.5	/experiments/knapen_AOT/AOT_stimuli/rescaled_final/0369_rv.mp4	0.0	150.60083723068237	1.000147819519043
17	112.14142894744873	movie	1		242	15.0	2.5	/experiments/knapen_AOT/AOT_stimuli/rescaled_final/0369_rv.mp4	0.0	151.60098505020142	2.4922800064086914
17	112.52581000328064	pulse	1	t		15.0	2.5	/experiments/knapen_AOT/AOT_stimuli/rescaled_final/0369_rv.mp4	0.0	151.98536610603333	
17	114.11784100532532	pulse	1	t		15.0	2.5	/experiments/knapen_AOT/AOT_stimuli/rescaled_final/0369_rv.mp4	0.0	153.577397108078	
17	114.63370895385742	fix_post	2		12	15.0	2.5	/experiments/knapen_AOT/AOT_stimuli/rescaled_final/0369_rv.mp4	0.0	154.0932650566101	0.09978103637695312
18	114.73348999023438	fix_pre	0		120	16.0	2.5	/experiments/knapen_AOT/AOT_stimuli/rescaled_final/2108_fw.mp4	0.0	154.19304609298706	1.0001730918884277
18	115.71793794631958	pulse	0	t		16.0	2.5	/experiments/knapen_AOT/AOT_stimuli/rescaled_final/2108_fw.mp4	0.0	155.17749404907227	
18	115.7336630821228	movie	1		244	16.0	2.5	/experiments/knapen_AOT/AOT_stimuli/rescaled_final/2108_fw.mp4	0.0	155.1932191848755	2.508786916732788
18	117.31755208969116	pulse	1	t		16.0	2.5	/experiments/knapen_AOT/AOT_stimuli/rescaled_final/2108_fw.mp4	0.0	156.77710819244385	
18	118.24244999885559	fix_post	2		12	16.0	2.5	/experiments/knapen_AOT/AOT_stimuli/rescaled_final/2108_fw.mp4	0.0	157.70200610160828	0.09994006156921387
19	118.3423900604248	fix_pre	0		120	17.0	2.5	/experiments/knapen_AOT/AOT_stimuli/rescaled_final/1208_fw.mp4	0.0	157.8019461631775	1.000119924545288
19	118.91761803627014	pulse	0	t		17.0	2.5	/experiments/knapen_AOT/AOT_stimuli/rescaled_final/1208_fw.mp4	0.0	158.37717413902283	
19	119.34250998497009	movie	1		243	17.0	2.5	/experiments/knapen_AOT/AOT_stimuli/rescaled_final/1208_fw.mp4	0.0	158.80206608772278	2.5005130767822266
19	120.51850509643555	pulse	1	t		17.0	2.5	/experiments/knapen_AOT/AOT_stimuli/rescaled_final/1208_fw.mp4	0.0	159.97806119918823	
19	121.84302306175232	fix_post	2		12	17.0	2.5	/experiments/knapen_AOT/AOT_stimuli/rescaled_final/1208_fw.mp4	0.0	161.302579164505	0.09989094734191895
20	121.94291400909424	fix_pre	0		120	18.0	2.5	/experiments/knapen_AOT/AOT_stimuli/rescaled_final/1183_rv.mp4	0.0	161.40247011184692	1.0002129077911377
20	122.11817598342896	pulse	0	t		18.0	2.5	/experiments/knapen_AOT/AOT_stimuli/rescaled_final/1183_rv.mp4	0.0	161.57773208618164	
20	122.94312691688538	movie	1		242	18.0	2.5	/experiments/knapen_AOT/AOT_stimuli/rescaled_final/1183_rv.mp4	0.0	162.40268301963806	2.4921231269836426
20	123.71837091445923	pulse	1	t		18.0	2.5	/experiments/knapen_AOT/AOT_stimuli/rescaled_final/1183_rv.mp4	0.0	163.1779270172119	
20	125.31861901283264	pulse	1	t		18.0	2.5	/experiments/knapen_AOT/AOT_stimuli/rescaled_final/1183_rv.mp4	0.0	164.77817511558533	
20	125.43525004386902	fix_post	2		13	18.0	2.5	/experiments/knapen_AOT/AOT_stimuli/rescaled_final/1183_rv.mp4	0.0	164.8948061466217	0.10816597938537598
21	125.5434160232544	fix_pre	0		119	19.0	2.5	blank	1.0	165.00297212600708	0.9918229579925537
21	126.53523898124695	movie	1		300	19.0	2.5	blank	1.0	165.99479508399963	2.5005059242248535
21	126.91881799697876	pulse	1	t		19.0	2.5	blank	1.0	166.37837409973145	
21	128.51907896995544	pulse	1	t		19.0	2.5	blank	1.0	167.97863507270813	
21	129.0357449054718	fix_post	2		12	19.0	2.5	blank	1.0	168.4953010082245	0.09992218017578125
22	129.13566708564758	fix_pre	0		119	20.0	2.5	/experiments/knapen_AOT/AOT_stimuli/rescaled_final/1454_fw.mp4	0.0	168.59522318840027	0.9917948246002197
22	130.1193070411682	pulse	0	t		20.0	2.5	/experiments/knapen_AOT/AOT_stimuli/rescaled_final/1454_fw.mp4	0.0	169.5788631439209	
22	130.1274619102478	movie	1		244	20.0	2.5	/experiments/knapen_AOT/AOT_stimuli/rescaled_final/1454_fw.mp4	0.0	169.5870180130005	2.508761167526245
22	131.7202639579773	pulse	1	t		20.0	2.5	/experiments/knapen_AOT/AOT_stimuli/rescaled_final/1454_fw.mp4	0.0	171.17982006072998	
22	132.63622307777405	fix_post	2		12	20.0	2.5	/experiments/knapen_AOT/AOT_stimuli/rescaled_final/1454_fw.mp4	0.0	172.09577918052673	0.10000085830688477
23	132.73622393608093	fix_pre	0		120	21.0	2.5	/experiments/knapen_AOT/AOT_stimuli/rescaled_final/1168_fw.mp4	0.0	172.19578003883362	1.0001311302185059
23	133.3198459148407	pulse	0	t		21.0	2.5	/experiments/knapen_AOT/AOT_stimuli/rescaled_final/1168_fw.mp4	0.0	172.77940201759338	
23	133.73635506629944	movie	1		243	21.0	2.5	/experiments/knapen_AOT/AOT_stimuli/rescaled_final/1168_fw.mp4	0.0	173.19591116905212	2.500386953353882
23	134.92020893096924	pulse	1	t		21.0	2.5	/experiments/knapen_AOT/AOT_stimuli/rescaled_final/1168_fw.mp4	0.0	174.37976503372192	
23	136.23674201965332	fix_post	2		12	21.0	2.5	/experiments/knapen_AOT/AOT_stimuli/rescaled_final/1168_fw.mp4	0.0	175.696298122406	0.10000491142272949
24	136.33674693107605	fix_pre	0		120	22.0	2.5	/experiments/knapen_AOT/AOT_stimuli/rescaled_final/1913_fw.mp4	0.0	175.79630303382874	1.0001380443572998
24	136.5202920436859	pulse	0	t		22.0	2.5	/experiments/knapen_AOT/AOT_stimuli/rescaled_final/1913_fw.mp4	0.0	175.9798481464386	
24	137.33688497543335	movie	1		243	22.0	2.5	/experiments/knapen_AOT/AOT_stimuli/rescaled_final/1913_fw.mp4	0.0	176.79644107818604	2.50051212310791
24	138.12046909332275	pulse	1	t		22.0	2.5	/experiments/knapen_AOT/AOT_stimuli/rescaled_final/1913_fw.mp4	0.0	177.58002519607544	
24	139.72045302391052	pulse	1	t		22.0	2.5	/experiments/knapen_AOT/AOT_stimuli/rescaled_final/1913_fw.mp4	0.0	179.1800091266632	
24	139.83739709854126	fix_post	2		12	22.0	2.5	/experiments/knapen_AOT/AOT_stimuli/rescaled_final/1913_fw.mp4	0.0	179.29695320129395	0.09991002082824707
25	139.9373071193695	fix_pre	0		120	23.0	2.5	/experiments/knapen_AOT/AOT_stimuli/rescaled_final/0918_fw.mp4	0.0	179.3968632221222	1.0001018047332764
25	140.93740892410278	movie	1		242	23.0	2.5	/experiments/knapen_AOT/AOT_stimuli/rescaled_final/0918_fw.mp4	0.0	180.39696502685547	2.492002010345459
25	141.3217580318451	pulse	1	t		23.0	2.5	/experiments/knapen_AOT/AOT_stimuli/rescaled_final/0918_fw.mp4	0.0	180.78131413459778	
25	142.9212930202484	pulse	1	t		23.0	2.5	/experiments/knapen_AOT/AOT_stimuli/rescaled_final/0918_fw.mp4	0.0	182.3808491230011	
25	143.42941093444824	fix_post	2		12	23.0	2.5	/experiments/knapen_AOT/AOT_stimuli/rescaled_final/0918_fw.mp4	0.0	182.88896703720093	0.10004305839538574
26	143.52945399284363	fix_pre	0		120	24.0	2.5	/experiments/knapen_AOT/AOT_stimuli/rescaled_final/0243_rv.mp4	0.0	182.9890100955963	1.0001370906829834
26	144.5214240550995	pulse	0	t		24.0	2.5	/experiments/knapen_AOT/AOT_stimuli/rescaled_final/0243_rv.mp4	0.0	183.98098015785217	
26	144.5295910835266	movie	1		244	24.0	2.5	/experiments/knapen_AOT/AOT_stimuli/rescaled_final/0243_rv.mp4	0.0	183.9891471862793	2.508788824081421
26	146.1222949028015	pulse	1	t		24.0	2.5	/experiments/knapen_AOT/AOT_stimuli/rescaled_final/0243_rv.mp4	0.0	185.5818510055542	
26	147.03837990760803	fix_post	2		12	24.0	2.5	/experiments/knapen_AOT/AOT_stimuli/rescaled_final/0243_rv.mp4	0.0	186.49793601036072	0.09995698928833008
27	147.13833689689636	fix_pre	0		120	25.0	2.5	/experiments/knapen_AOT/AOT_stimuli/rescaled_final/0803_rv.mp4	0.0	186.59789299964905	1.000195026397705
27	147.72209310531616	pulse	0	t		25.0	2.5	/experiments/knapen_AOT/AOT_stimuli/rescaled_final/0803_rv.mp4	0.0	187.18164920806885	
27	148.13853192329407	movie	1		242	25.0	2.5	/experiments/knapen_AOT/AOT_stimuli/rescaled_final/0803_rv.mp4	0.0	187.59808802604675	2.500521183013916
27	149.3178141117096	pulse	1	t		25.0	2.5	/experiments/knapen_AOT/AOT_stimuli/rescaled_final/0803_rv.mp4	0.0	188.77737021446228	
27	150.63905310630798	fix_post	2		12	25.0	2.5	/experiments/knapen_AOT/AOT_stimuli/rescaled_final/0803_rv.mp4	0.0	190.09860920906067	0.09980893135070801
28	150.7388620376587	fix_pre	0		120	26.0	2.5	/experiments/knapen_AOT/AOT_stimuli/rescaled_final/1251_rv.mp4	0.0	190.19841814041138	1.0001749992370605
28	150.9223759174347	pulse	0	t		26.0	2.5	/experiments/knapen_AOT/AOT_stimuli/rescaled_final/1251_rv.mp4	0.0	190.38193202018738	
28	151.73903703689575	movie	1		243	26.0	2.5	/experiments/knapen_AOT/AOT_stimuli/rescaled_final/1251_rv.mp4	0.0	191.19859313964844	2.5005509853363037
28	152.5227711200714	pulse	1	t		26.0	2.5	/experiments/knapen_AOT/AOT_stimuli/rescaled_final/1251_rv.mp4	0.0	191.9823272228241	
28	154.12435698509216	pulse	1	t		26.0	2.5	/experiments/knapen_AOT/AOT_stimuli/rescaled_final/1251_rv.mp4	0.0	193.58391308784485	
28	154.23958802223206	fix_post	2		12	26.0	2.5	/experiments/knapen_AOT/AOT_stimuli/rescaled_final/1251_rv.mp4	0.0	193.69914412498474	0.09981703758239746
29	154.33940505981445	fix_pre	0		119	27.0	2.5	blank	1.0	193.79896116256714	0.9918339252471924
29	155.33123898506165	movie	1		300	27.0	2.5	blank	1.0	194.79079508781433	2.500361919403076
29	155.723247051239	pulse	1	t		27.0	2.5	blank	1.0	195.1828031539917	
29	157.32329607009888	pulse	1	t		27.0	2.5	blank	1.0	196.78285217285156	
29	157.83160090446472	fix_post	2		12	27.0	2.5	blank	1.0	197.2911570072174	0.10004711151123047
30	157.93164801597595	fix_pre	0		120	28.0	2.5	/experiments/knapen_AOT/AOT_stimuli/rescaled_final/0030_fw.mp4	0.0	197.39120411872864	1.0001840591430664
30	158.92362213134766	pulse	0	t		28.0	2.5	/experiments/knapen_AOT/AOT_stimuli/rescaled_final/0030_fw.mp4	0.0	198.38317823410034	
30	158.93183207511902	movie	1		241	28.0	2.5	/experiments/knapen_AOT/AOT_stimuli/rescaled_final/0030_fw.mp4	0.0	198.3913881778717	2.5086119174957275
30	160.52506804466248	pulse	1	t		28.0	2.5	/experiments/knapen_AOT/AOT_stimuli/rescaled_final/0030_fw.mp4	0.0	199.98462414741516	
30	161.44044399261475	fix_post	2		12	28.0	2.5	/experiments/knapen_AOT/AOT_stimuli/rescaled_final/0030_fw.mp4	0.0	200.90000009536743	0.10002899169921875
31	161.54047298431396	fix_pre	0		120	29.0	2.5	/experiments/knapen_AOT/AOT_stimuli/rescaled_final/0799_rv.mp4	0.0	201.00002908706665	1.000154972076416
31	162.1242299079895	pulse	0	t		29.0	2.5	/experiments/knapen_AOT/AOT_stimuli/rescaled_final/0799_rv.mp4	0.0	201.5837860107422	
31	162.54062795639038	movie	1		242	29.0	2.5	/experiments/knapen_AOT/AOT_stimuli/rescaled_final/0799_rv.mp4	0.0	202.00018405914307	2.5006041526794434
31	163.72451305389404	pulse	1	t		29.0	2.5	/experiments/knapen_AOT/AOT_stimuli/rescaled_final/0799_rv.mp4	0.0	203.18406915664673	
31	165.04123210906982	fix_post	2		12	29.0	2.5	/experiments/knapen_AOT/AOT_stimuli/rescaled_final/0799_rv.mp4	0.0	204.5007882118225	0.09982800483703613
32	165.14106011390686	fix_pre	0		120	30.0	2.5	/experiments/knapen_AOT/AOT_stimuli/rescaled_final/0259_fw.mp4	0.0	204.60061621665955	1.0001130104064941
32	165.31708312034607	pulse	0	t		30.0	2.5	/experiments/knapen_AOT/AOT_stimuli/rescaled_final/0259_fw.mp4	0.0	204.77663922309875	
32	166.14117312431335	movie	1		242	30.0	2.5	/experiments/knapen_AOT/AOT_stimuli/rescaled_final/0259_fw.mp4	0.0	205.60072922706604	2.500523805618286
32	166.91749906539917	pulse	1	t		30.0	2.5	/experiments/knapen_AOT/AOT_stimuli/rescaled_final/0259_fw.mp4	0.0	206.37705516815186	
32	168.52553391456604	pulse	1	t		30.0	2.5	/experiments/knapen_AOT/AOT_stimuli/rescaled_final/0259_fw.mp4	0.0	207.98509001731873	
32	168.64169692993164	fix_post	2		12	30.0	2.5	/experiments/knapen_AOT/AOT_stimuli/rescaled_final/0259_fw.mp4	0.0	208.10125303268433	0.09987902641296387
33	168.7415759563446	fix_pre	0		120	31.0	2.5	/experiments/knapen_AOT/AOT_stimuli/rescaled_final/2074_rv.mp4	0.0	208.2011320590973	1.0001139640808105
33	169.74168992042542	movie	1		241	31.0	2.5	/experiments/knapen_AOT/AOT_stimuli/rescaled_final/2074_rv.mp4	0.0	209.2012460231781	2.492302179336548
33	170.12973594665527	pulse	1	t		31.0	2.5	/experiments/knapen_AOT/AOT_stimuli/rescaled_final/2074_rv.mp4	0.0	209.58929204940796	
33	171.71726894378662	pulse	1	t		31.0	2.5	/experiments/knapen_AOT/AOT_stimuli/rescaled_final/2074_rv.mp4	0.0	211.1768250465393	
33	172.23399209976196	fix_post	2		12	31.0	2.5	/experiments/knapen_AOT/AOT_stimuli/rescaled_final/2074_rv.mp4	0.0	211.69354820251465	0.099761962890625
34	172.3337540626526	fix_pre	0		119	32.0	2.5	/experiments/knapen_AOT/AOT_stimuli/rescaled_final/0239_fw.mp4	0.0	211.79331016540527	0.9919259548187256
34	173.31735491752625	pulse	0	t		32.0	2.5	/experiments/knapen_AOT/AOT_stimuli/rescaled_final/0239_fw.mp4	0.0	212.77691102027893	
34	173.3256800174713	movie	1		244	32.0	2.5	/experiments/knapen_AOT/AOT_stimuli/rescaled_final/0239_fw.mp4	0.0	212.785236120224	2.5086441040039062
34	174.91830205917358	pulse	1	t		32.0	2.5	/experiments/knapen_AOT/AOT_stimuli/rescaled_final/0239_fw.mp4	0.0	214.37785816192627	
34	175.83432412147522	fix_post	2		12	32.0	2.5	/experiments/knapen_AOT/AOT_stimuli/rescaled_final/0239_fw.mp4	0.0	215.2938802242279	0.09993791580200195
35	175.93426203727722	fix_pre	0		120	33.0	2.5	blank	1.0	215.3938181400299	1.0001978874206543
35	176.51806712150574	pulse	0	t		33.0	2.5	blank	1.0	215.97762322425842	
35	176.93445992469788	movie	1		300	33.0	2.5	blank	1.0	216.39401602745056	2.5003550052642822
35	178.11831402778625	pulse	1	t		33.0	2.5	blank	1.0	217.57787013053894	
35	179.43481492996216	fix_post	2		12	33.0	2.5	blank	1.0	218.89437103271484	0.1000821590423584
36	179.53489708900452	fix_pre	0		120	34.0	2.5	/experiments/knapen_AOT/AOT_stimuli/rescaled_final/1396_fw.mp4	0.0	218.9944531917572	1.0000858306884766
36	179.71836304664612	pulse	0	t		34.0	2.5	/experiments/knapen_AOT/AOT_stimuli/rescaled_final/1396_fw.mp4	0.0	219.1779191493988	
36	180.534982919693	movie	1		246	34.0	2.5	/experiments/knapen_AOT/AOT_stimuli/rescaled_final/1396_fw.mp4	0.0	219.99453902244568	2.5003671646118164
36	181.3186011314392	pulse	1	t		34.0	2.5	/experiments/knapen_AOT/AOT_stimuli/rescaled_final/1396_fw.mp4	0.0	220.7781572341919	
36	182.9189760684967	pulse	1	t		34.0	2.5	/experiments/knapen_AOT/AOT_stimuli/rescaled_final/1396_fw.mp4	0.0	222.3785321712494	
36	183.0353500843048	fix_post	2		11	34.0	2.5	/experiments/knapen_AOT/AOT_stimuli/rescaled_final/1396_fw.mp4	0.0	222.4949061870575	0.09173202514648438
37	183.1270821094513	fix_pre	0		120	35.0	2.5	/experiments/knapen_AOT/AOT_stimuli/rescaled_final/1666_fw.mp4	0.0	222.58663821220398	1.0001189708709717
37	184.12720108032227	movie	1		242	35.0	2.5	/experiments/knapen_AOT/AOT_stimuli/rescaled_final/1666_fw.mp4	0.0	223.58675718307495	2.500493049621582
37	184.51930689811707	pulse	1	t		35.0	2.5	/experiments/knapen_AOT/AOT_stimuli/rescaled_final/1666_fw.mp4	0.0	223.97886300086975	
37	186.11940097808838	pulse	1	t		35.0	2.5	/experiments/knapen_AOT/AOT_stimuli/rescaled_final/1666_fw.mp4	0.0	225.57895708084106	
37	186.62769412994385	fix_post	2		12	35.0	2.5	/experiments/knapen_AOT/AOT_stimuli/rescaled_final/1666_fw.mp4	0.0	226.08725023269653	0.09992694854736328
38	186.7276210784912	fix_pre	0		120	36.0	2.5	/experiments/knapen_AOT/AOT_stimuli/rescaled_final/0208_fw.mp4	0.0	226.1871771812439	1.0001380443572998
38	187.71963906288147	pulse	0	t		36.0	2.5	/experiments/knapen_AOT/AOT_stimuli/rescaled_final/0208_fw.mp4	0.0	227.17919516563416	
38	187.7277591228485	movie	1		245	36.0	2.5	/experiments/knapen_AOT/AOT_stimuli/rescaled_final/0208_fw.mp4	0.0	227.1873152256012	2.5086729526519775
38	189.32017707824707	pulse	1	t		36.0	2.5	/experiments/knapen_AOT/AOT_stimuli/rescaled_final/0208_fw.mp4	0.0	228.77973318099976	
38	190.2364320755005	fix_post	2		12	36.0	2.5	/experiments/knapen_AOT/AOT_stimuli/rescaled_final/0208_fw.mp4	0.0	229.69598817825317	0.09998393058776855
39	190.33641600608826	fix_pre	0		120	37.0	2.5	/experiments/knapen_AOT/AOT_stimuli/rescaled_final/1643_rv.mp4	0.0	229.79597210884094	1.0001990795135498
39	190.9200620651245	pulse	0	t		37.0	2.5	/experiments/knapen_AOT/AOT_stimuli/rescaled_final/1643_rv.mp4	0.0	230.3796181678772	
39	191.3366150856018	movie	1		242	37.0	2.5	/experiments/knapen_AOT/AOT_stimuli/rescaled_final/1643_rv.mp4	0.0	230.7961711883545	2.5005249977111816
39	192.52034401893616	pulse	1	t		37.0	2.5	/experiments/knapen_AOT/AOT_stimuli/rescaled_final/1643_rv.mp4	0.0	231.97990012168884	
39	193.837140083313	fix_post	2		12	37.0	2.5	/experiments/knapen_AOT/AOT_stimuli/rescaled_final/1643_rv.mp4	0.0	233.29669618606567	0.09997797012329102
40	193.93711805343628	fix_pre	0		120	38.0	2.5	/experiments/knapen_AOT/AOT_stimuli/rescaled_final/0998_rv.mp4	0.0	233.39667415618896	1.0000050067901611
40	194.12051010131836	pulse	0	t		38.0	2.5	/experiments/knapen_AOT/AOT_stimuli/rescaled_final/0998_rv.mp4	0.0	233.58006620407104	
40	194.93712306022644	movie	1		243	38.0	2.5	/experiments/knapen_AOT/AOT_stimuli/rescaled_final/0998_rv.mp4	0.0	234.39667916297913	2.500635862350464
40	195.7207760810852	pulse	1	t		38.0	2.5	/experiments/knapen_AOT/AOT_stimuli/rescaled_final/0998_rv.mp4	0.0	235.1803321838379	
40	197.3210859298706	pulse	1	t		38.0	2.5	/experiments/knapen_AOT/AOT_stimuli/rescaled_final/0998_rv.mp4	0.0	236.7806420326233	
40	197.4377589225769	fix_post	2		12	38.0	2.5	/experiments/knapen_AOT/AOT_stimuli/rescaled_final/0998_rv.mp4	0.0	236.8973150253296	0.09973907470703125
41	197.53749799728394	fix_pre	0		120	39.0	2.5	/experiments/knapen_AOT/AOT_stimuli/rescaled_final/1063_rv.mp4	0.0	236.99705410003662	1.0001590251922607
41	198.5376570224762	movie	1		242	39.0	2.5	/experiments/knapen_AOT/AOT_stimuli/rescaled_final/1063_rv.mp4	0.0	237.99721312522888	2.4922170639038086
41	198.92587399482727	pulse	1	t		39.0	2.5	/experiments/knapen_AOT/AOT_stimuli/rescaled_final/1063_rv.mp4	0.0	238.38543009757996	
41	200.52155804634094	pulse	1	t		39.0	2.5	/experiments/knapen_AOT/AOT_stimuli/rescaled_final/1063_rv.mp4	0.0	239.98111414909363	
41	201.02987408638	fix_post	2		12	39.0	2.5	/experiments/knapen_AOT/AOT_stimuli/rescaled_final/1063_rv.mp4	0.0	240.4894301891327	0.09985089302062988
42	201.12972497940063	fix_pre	0		120	40.0	2.5	/experiments/knapen_AOT/AOT_stimuli/rescaled_final/1183_rv.mp4	0.0	240.58928108215332	1.0002131462097168
42	202.12181091308594	pulse	0	t		40.0	2.5	/experiments/knapen_AOT/AOT_stimuli/rescaled_final/1183_rv.mp4	0.0	241.58136701583862	
42	202.12993812561035	movie	1		244	40.0	2.5	/experiments/knapen_AOT/AOT_stimuli/rescaled_final/1183_rv.mp4	0.0	241.58949422836304	2.508780002593994
42	203.726704120636	pulse	1	t		40.0	2.5	/experiments/knapen_AOT/AOT_stimuli/rescaled_final/1183_rv.mp4	0.0	243.18626022338867	
42	204.63871812820435	fix_post	2		12	40.0	2.5	/experiments/knapen_AOT/AOT_stimuli/rescaled_final/1183_rv.mp4	0.0	244.09827423095703	0.09987378120422363
43	204.73859190940857	fix_pre	0		120	41.0	2.5	blank	1.0	244.19814801216125	1.0001490116119385
43	205.32219791412354	pulse	0	t		41.0	2.5	blank	1.0	244.78175401687622	
43	205.7387409210205	movie	1		300	41.0	2.5	blank	1.0	245.1982970237732	2.500397205352783
43	206.92249011993408	pulse	1	t		41.0	2.5	blank	1.0	246.38204622268677	
43	208.2391381263733	fix_post	2		12	41.0	2.5	blank	1.0	247.69869422912598	0.0999898910522461
44	208.33912801742554	fix_pre	0		120	42.0	2.5	/experiments/knapen_AOT/AOT_stimuli/rescaled_final/1208_rv.mp4	0.0	247.79868412017822	1.0001459121704102
44	208.52279496192932	pulse	0	t		42.0	2.5	/experiments/knapen_AOT/AOT_stimuli/rescaled_final/1208_rv.mp4	0.0	247.982351064682	
44	209.33927392959595	movie	1		243	42.0	2.5	/experiments/knapen_AOT/AOT_stimuli/rescaled_final/1208_rv.mp4	0.0	248.79883003234863	2.5006091594696045
44	210.12294006347656	pulse	1	t		42.0	2.5	/experiments/knapen_AOT/AOT_stimuli/rescaled_final/1208_rv.mp4	0.0	249.58249616622925	
44	211.72303295135498	pulse	1	t		42.0	2.5	/experiments/knapen_AOT/AOT_stimuli/rescaled_final/1208_rv.mp4	0.0	251.18258905410767	
44	211.83988308906555	fix_post	2		12	42.0	2.5	/experiments/knapen_AOT/AOT_stimuli/rescaled_final/1208_rv.mp4	0.0	251.29943919181824	0.09980201721191406
45	211.93968510627747	fix_pre	0		120	43.0	2.5	/experiments/knapen_AOT/AOT_stimuli/rescaled_final/0951_fw.mp4	0.0	251.39924120903015	1.0001637935638428
45	212.9398488998413	movie	1		243	43.0	2.5	/experiments/knapen_AOT/AOT_stimuli/rescaled_final/0951_fw.mp4	0.0	252.399405002594	2.4920101165771484
45	213.32472896575928	pulse	1	t		43.0	2.5	/experiments/knapen_AOT/AOT_stimuli/rescaled_final/0951_fw.mp4	0.0	252.78428506851196	
45	214.92373609542847	pulse	1	t		43.0	2.5	/experiments/knapen_AOT/AOT_stimuli/rescaled_final/0951_fw.mp4	0.0	254.38329219818115	
45	215.43185901641846	fix_post	2		12	43.0	2.5	/experiments/knapen_AOT/AOT_stimuli/rescaled_final/0951_fw.mp4	0.0	254.89141511917114	0.10000300407409668
46	215.53186202049255	fix_pre	0		120	44.0	2.5	/experiments/knapen_AOT/AOT_stimuli/rescaled_final/1251_fw.mp4	0.0	254.99141812324524	1.000251054763794
46	216.5240089893341	pulse	0	t		44.0	2.5	/experiments/knapen_AOT/AOT_stimuli/rescaled_final/1251_fw.mp4	0.0	255.9835650920868	
46	216.53211307525635	movie	1		243	44.0	2.5	/experiments/knapen_AOT/AOT_stimuli/rescaled_final/1251_fw.mp4	0.0	255.99166917800903	2.508730888366699
46	218.12496995925903	pulse	1	t		44.0	2.5	/experiments/knapen_AOT/AOT_stimuli/rescaled_final/1251_fw.mp4	0.0	257.5845260620117	
46	219.04084396362305	fix_post	2		12	44.0	2.5	/experiments/knapen_AOT/AOT_stimuli/rescaled_final/1251_fw.mp4	0.0	258.50040006637573	0.0999000072479248
47	219.14074397087097	fix_pre	0		120	45.0	2.5	/experiments/knapen_AOT/AOT_stimuli/rescaled_final/1952_fw.mp4	0.0	258.60030007362366	1.0001890659332275
47	219.72433400154114	pulse	0	t		45.0	2.5	/experiments/knapen_AOT/AOT_stimuli/rescaled_final/1952_fw.mp4	0.0	259.1838901042938	
47	220.1409330368042	movie	1		244	45.0	2.5	/experiments/knapen_AOT/AOT_stimuli/rescaled_final/1952_fw.mp4	0.0	259.6004891395569	2.50034499168396
47	221.32469511032104	pulse	1	t		45.0	2.5	/experiments/knapen_AOT/AOT_stimuli/rescaled_final/1952_fw.mp4	0.0	260.78425121307373	
47	222.64127802848816	fix_post	2		12	45.0	2.5	/experiments/knapen_AOT/AOT_stimuli/rescaled_final/1952_fw.mp4	0.0	262.10083413124084	0.10000991821289062
48	222.74128794670105	fix_pre	0		117	46.0	2.5	/experiments/knapen_AOT/AOT_stimuli/rescaled_final/1931_rv.mp4	0.0	262.20084404945374	1.0001661777496338
48	222.92493104934692	pulse	0	t		46.0	2.5	/experiments/knapen_AOT/AOT_stimuli/rescaled_final/1931_rv.mp4	0.0	262.3844871520996	
48	223.74145412445068	movie	1		243	46.0	2.5	/experiments/knapen_AOT/AOT_stimuli/rescaled_final/1931_rv.mp4	0.0	263.20101022720337	2.5004379749298096
48	224.5176661014557	pulse	1	t		46.0	2.5	/experiments/knapen_AOT/AOT_stimuli/rescaled_final/1931_rv.mp4	0.0	263.9772222042084	
48	226.12530398368835	pulse	1	t		46.0	2.5	/experiments/knapen_AOT/AOT_stimuli/rescaled_final/1931_rv.mp4	0.0	265.58486008644104	
48	226.2418920993805	fix_post	2		12	46.0	2.5	/experiments/knapen_AOT/AOT_stimuli/rescaled_final/1931_rv.mp4	0.0	265.7014482021332	0.09995794296264648
49	226.34185004234314	fix_pre	0		120	47.0	2.5	blank	1.0	265.8014061450958	1.000119924545288
49	227.34196996688843	movie	1		299	47.0	2.5	blank	1.0	266.8015260696411	2.492089033126831
49	227.71796798706055	pulse	1	t		47.0	2.5	blank	1.0	267.17752408981323	
49	229.3181791305542	pulse	1	t		47.0	2.5	blank	1.0	268.7777352333069	
49	229.83405900001526	fix_post	2		12	47.0	2.5	blank	1.0	269.29361510276794	0.10000300407409668
50	229.93406200408936	fix_pre	0		119	48.0	2.5	/experiments/knapen_AOT/AOT_stimuli/rescaled_final/1151_rv.mp4	0.0	269.39361810684204	0.991858959197998
50	230.91767597198486	pulse	0	t		48.0	2.5	/experiments/knapen_AOT/AOT_stimuli/rescaled_final/1151_rv.mp4	0.0	270.37723207473755	
50	230.92592096328735	movie	1		244	48.0	2.5	/experiments/knapen_AOT/AOT_stimuli/rescaled_final/1151_rv.mp4	0.0	270.38547706604004	2.508653163909912
50	232.51837491989136	pulse	1	t		48.0	2.5	/experiments/knapen_AOT/AOT_stimuli/rescaled_final/1151_rv.mp4	0.0	271.97793102264404	
50	233.43457412719727	fix_post	2		12	48.0	2.5	/experiments/knapen_AOT/AOT_stimuli/rescaled_final/1151_rv.mp4	0.0	272.89413022994995	0.09998583793640137
51	233.53455996513367	fix_pre	0		120	49.0	2.5	/experiments/knapen_AOT/AOT_stimuli/rescaled_final/1792_fw.mp4	0.0	272.99411606788635	1.0001709461212158
51	234.118173122406	pulse	0	t		49.0	2.5	/experiments/knapen_AOT/AOT_stimuli/rescaled_final/1792_fw.mp4	0.0	273.5777292251587	
51	234.53473091125488	movie	1		243	49.0	2.5	/experiments/knapen_AOT/AOT_stimuli/rescaled_final/1792_fw.mp4	0.0	273.99428701400757	2.5003600120544434
51	235.71848893165588	pulse	1	t		49.0	2.5	/experiments/knapen_AOT/AOT_stimuli/rescaled_final/1792_fw.mp4	0.0	275.17804503440857	
51	237.03509092330933	fix_post	2		12	49.0	2.5	/experiments/knapen_AOT/AOT_stimuli/rescaled_final/1792_fw.mp4	0.0	276.494647026062	0.10001420974731445
52	237.13510513305664	fix_pre	0		120	50.0	2.5	/experiments/knapen_AOT/AOT_stimuli/rescaled_final/1378_fw.mp4	0.0	276.5946612358093	1.000135898590088
52	237.31874704360962	pulse	0	t		50.0	2.5	/experiments/knapen_AOT/AOT_stimuli/rescaled_final/1378_fw.mp4	0.0	276.7783031463623	
52	238.13524103164673	movie	1		244	50.0	2.5	/experiments/knapen_AOT/AOT_stimuli/rescaled_final/1378_fw.mp4	0.0	277.5947971343994	2.5003650188446045
52	238.91907501220703	pulse	1	t		50.0	2.5	/experiments/knapen_AOT/AOT_stimuli/rescaled_final/1378_fw.mp4	0.0	278.3786311149597	
52	240.5191569328308	pulse	1	t		50.0	2.5	/experiments/knapen_AOT/AOT_stimuli/rescaled_final/1378_fw.mp4	0.0	279.9787130355835	
52	240.63560605049133	fix_post	2		12	50.0	2.5	/experiments/knapen_AOT/AOT_stimuli/rescaled_final/1378_fw.mp4	0.0	280.095162153244	0.10006403923034668
53	240.73567008972168	fix_pre	0		120	51.0	2.5	/experiments/knapen_AOT/AOT_stimuli/rescaled_final/1078_fw.mp4	0.0	280.19522619247437	1.0001089572906494
53	241.73577904701233	movie	1		241	51.0	2.5	/experiments/knapen_AOT/AOT_stimuli/rescaled_final/1078_fw.mp4	0.0	281.195335149765	2.4922239780426025
53	242.12006211280823	pulse	1	t		51.0	2.5	/experiments/knapen_AOT/AOT_stimuli/rescaled_final/1078_fw.mp4	0.0	281.5796182155609	
53	243.71957302093506	pulse	1	t		51.0	2.5	/experiments/knapen_AOT/AOT_stimuli/rescaled_final/1078_fw.mp4	0.0	283.17912912368774	
53	244.22800302505493	fix_post	2		12	51.0	2.5	/experiments/knapen_AOT/AOT_stimuli/rescaled_final/1078_fw.mp4	0.0	283.6875591278076	0.09985494613647461
54	244.3278579711914	fix_pre	0		120	52.0	2.5	/experiments/knapen_AOT/AOT_stimuli/rescaled_final/1396_rv.mp4	0.0	283.7874140739441	1.0001699924468994
54	245.31993889808655	pulse	0	t		52.0	2.5	/experiments/knapen_AOT/AOT_stimuli/rescaled_final/1396_rv.mp4	0.0	284.77949500083923	
54	245.3280279636383	movie	1		245	52.0	2.5	/experiments/knapen_AOT/AOT_stimuli/rescaled_final/1396_rv.mp4	0.0	284.787584066391	2.5086450576782227
54	246.920814037323	pulse	1	t		52.0	2.5	/experiments/knapen_AOT/AOT_stimuli/rescaled_final/1396_rv.mp4	0.0	286.3803701400757	
54	247.83667302131653	fix_post	2		12	52.0	2.5	/experiments/knapen_AOT/AOT_stimuli/rescaled_final/1396_rv.mp4	0.0	287.2962291240692	0.10003995895385742
55	247.93671298027039	fix_pre	0		120	53.0	2.5	/experiments/knapen_AOT/AOT_stimuli/rescaled_final/1271_rv.mp4	0.0	287.39626908302307	1.0001499652862549
55	248.52036094665527	pulse	0	t		53.0	2.5	/experiments/knapen_AOT/AOT_stimuli/rescaled_final/1271_rv.mp4	0.0	287.97991704940796	
55	248.93686294555664	movie	1		244	53.0	2.5	/experiments/knapen_AOT/AOT_stimuli/rescaled_final/1271_rv.mp4	0.0	288.3964190483093	2.500347137451172
55	250.12063598632812	pulse	1	t		53.0	2.5	/experiments/knapen_AOT/AOT_stimuli/rescaled_final/1271_rv.mp4	0.0	289.5801920890808	
55	251.4372100830078	fix_post	2		12	53.0	2.5	/experiments/knapen_AOT/AOT_stimuli/rescaled_final/1271_rv.mp4	0.0	290.8967661857605	0.10004401206970215
56	251.53725409507751	fix_pre	0		120	54.0	2.5	blank	1.0	290.9968101978302	1.000168800354004
56	251.7209279537201	pulse	0	t		54.0	2.5	blank	1.0	291.1804840564728	
56	252.53742289543152	movie	1		300	54.0	2.5	blank	1.0	291.9969789981842	2.5003721714019775
56	253.32108211517334	pulse	1	t		54.0	2.5	blank	1.0	292.780638217926	
56	254.92131090164185	pulse	1	t		54.0	2.5	blank	1.0	294.38086700439453	
56	255.0377950668335	fix_post	2		12	54.0	2.5	blank	1.0	294.4973511695862	0.09999489784240723
57	255.1377899646759	fix_pre	0		120	55.0	2.5	/experiments/knapen_AOT/AOT_stimuli/rescaled_final/1350_rv.mp4	0.0	294.5973460674286	1.0001790523529053
57	256.1379690170288	movie	1		243	55.0	2.5	/experiments/knapen_AOT/AOT_stimuli/rescaled_final/1350_rv.mp4	0.0	295.5975251197815	2.492029905319214
57	256.52203702926636	pulse	1	t		55.0	2.5	/experiments/knapen_AOT/AOT_stimuli/rescaled_final/1350_rv.mp4	0.0	295.98159313201904	
57	258.12179708480835	pulse	1	t		55.0	2.5	/experiments/knapen_AOT/AOT_stimuli/rescaled_final/1350_rv.mp4	0.0	297.58135318756104	
57	258.629998922348	fix_post	2		12	55.0	2.5	/experiments/knapen_AOT/AOT_stimuli/rescaled_final/1350_rv.mp4	0.0	298.0895550251007	0.10001111030578613
58	258.7300100326538	fix_pre	0		120	56.0	2.5	/experiments/knapen_AOT/AOT_stimuli/rescaled_final/1368_fw.mp4	0.0	298.1895661354065	1.0001270771026611
58	259.7220950126648	pulse	0	t		56.0	2.5	/experiments/knapen_AOT/AOT_stimuli/rescaled_final/1368_fw.mp4	0.0	299.1816511154175	
58	259.73013710975647	movie	1		243	56.0	2.5	/experiments/knapen_AOT/AOT_stimuli/rescaled_final/1368_fw.mp4	0.0	299.18969321250916	2.508819818496704
58	261.3229010105133	pulse	1	t		56.0	2.5	/experiments/knapen_AOT/AOT_stimuli/rescaled_final/1368_fw.mp4	0.0	300.782457113266	
58	262.2389569282532	fix_post	2		12	56.0	2.5	/experiments/knapen_AOT/AOT_stimuli/rescaled_final/1368_fw.mp4	0.0	301.69851303100586	0.09997200965881348
59	262.338928937912	fix_pre	0		120	57.0	2.5	/experiments/knapen_AOT/AOT_stimuli/rescaled_final/0567_rv.mp4	0.0	301.7984850406647	1.0001749992370605
59	262.92247009277344	pulse	0	t		57.0	2.5	/experiments/knapen_AOT/AOT_stimuli/rescaled_final/0567_rv.mp4	0.0	302.3820261955261	
59	263.33910393714905	movie	1		243	57.0	2.5	/experiments/knapen_AOT/AOT_stimuli/rescaled_final/0567_rv.mp4	0.0	302.79866003990173	2.5002801418304443
59	264.5228319168091	pulse	1	t		57.0	2.5	/experiments/knapen_AOT/AOT_stimuli/rescaled_final/0567_rv.mp4	0.0	303.98238801956177	
59	265.8393840789795	fix_post	2		12	57.0	2.5	/experiments/knapen_AOT/AOT_stimuli/rescaled_final/0567_rv.mp4	0.0	305.2989401817322	0.10000300407409668
60	265.9393870830536	fix_pre	0		120	58.0	2.5	/experiments/knapen_AOT/AOT_stimuli/rescaled_final/0442_rv.mp4	0.0	305.3989431858063	1.000154972076416
60	266.12302803993225	pulse	0	t		58.0	2.5	/experiments/knapen_AOT/AOT_stimuli/rescaled_final/0442_rv.mp4	0.0	305.58258414268494	
60	266.93954205513	movie	1		244	58.0	2.5	/experiments/knapen_AOT/AOT_stimuli/rescaled_final/0442_rv.mp4	0.0	306.3990981578827	2.500372886657715
60	267.7231969833374	pulse	1	t		58.0	2.5	/experiments/knapen_AOT/AOT_stimuli/rescaled_final/0442_rv.mp4	0.0	307.1827530860901	
60	269.325758934021	pulse	1	t		58.0	2.5	/experiments/knapen_AOT/AOT_stimuli/rescaled_final/0442_rv.mp4	0.0	308.7853150367737	
60	269.4399149417877	fix_post	2		12	58.0	2.5	/experiments/knapen_AOT/AOT_stimuli/rescaled_final/0442_rv.mp4	0.0	308.8994710445404	0.10004806518554688
61	269.53996300697327	fix_pre	0		120	59.0	2.5	/experiments/knapen_AOT/AOT_stimuli/rescaled_final/2004_fw.mp4	0.0	308.99951910972595	1.0001709461212158
61	270.5401339530945	movie	1		242	59.0	2.5	/experiments/knapen_AOT/AOT_stimuli/rescaled_final/2004_fw.mp4	0.0	309.99969005584717	2.4919919967651367
61	270.9280960559845	pulse	1	t		59.0	2.5	/experiments/knapen_AOT/AOT_stimuli/rescaled_final/2004_fw.mp4	0.0	310.3876521587372	
61	272.523973941803	pulse	1	t		59.0	2.5	/experiments/knapen_AOT/AOT_stimuli/rescaled_final/2004_fw.mp4	0.0	311.98353004455566	
61	273.0321259498596	fix_post	2		12	59.0	2.5	/experiments/knapen_AOT/AOT_stimuli/rescaled_final/2004_fw.mp4	0.0	312.4916820526123	0.10009908676147461
62	273.1322250366211	fix_pre	0		120	60.0	2.5	/experiments/knapen_AOT/AOT_stimuli/rescaled_final/1193_fw.mp4	0.0	312.5917811393738	1.0000879764556885
62	274.1241910457611	pulse	0	t		60.0	2.5	/experiments/knapen_AOT/AOT_stimuli/rescaled_final/1193_fw.mp4	0.0	313.5837471485138	
62	274.1323130130768	movie	1		244	60.0	2.5	/experiments/knapen_AOT/AOT_stimuli/rescaled_final/1193_fw.mp4	0.0	313.59186911582947	2.5087499618530273
62	275.7250521183014	pulse	1	t		60.0	2.5	/experiments/knapen_AOT/AOT_stimuli/rescaled_final/1193_fw.mp4	0.0	315.1846082210541	
62	276.6410629749298	fix_post	2		12	60.0	2.5	/experiments/knapen_AOT/AOT_stimuli/rescaled_final/1193_fw.mp4	0.0	316.1006190776825	0.09995603561401367
63	276.7410190105438	fix_pre	0		120	61.0	2.5	/experiments/knapen_AOT/AOT_stimuli/rescaled_final/0889_fw.mp4	0.0	316.2005751132965	1.0001471042633057
63	277.31730008125305	pulse	0	t		61.0	2.5	/experiments/knapen_AOT/AOT_stimuli/rescaled_final/0889_fw.mp4	0.0	316.77685618400574	
63	277.74116611480713	movie	1		243	61.0	2.5	/experiments/knapen_AOT/AOT_stimuli/rescaled_final/0889_fw.mp4	0.0	317.2007222175598	2.5003819465637207
63	278.91808104515076	pulse	1	t		61.0	2.5	/experiments/knapen_AOT/AOT_stimuli/rescaled_final/0889_fw.mp4	0.0	318.37763714790344	
63	280.24154806137085	fix_post	2		12	61.0	2.5	/experiments/knapen_AOT/AOT_stimuli/rescaled_final/0889_fw.mp4	0.0	319.70110416412354	0.1000518798828125
64	280.34159994125366	fix_pre	0		120	62.0	2.5	blank	1.0	319.80115604400635	1.0001189708709717
64	280.5176649093628	pulse	0	t		62.0	2.5	blank	1.0	319.9772210121155	
64	281.34171891212463	movie	1		297	62.0	2.5	blank	1.0	320.8012750148773	2.5003809928894043
64	282.11798095703125	pulse	1	t		62.0	2.5	blank	1.0	321.57753705978394	
64	283.7180509567261	pulse	1	t		62.0	2.5	blank	1.0	323.17760705947876	
64	283.84209990501404	fix_post	2		12	62.0	2.5	blank	1.0	323.3016560077667	0.10001802444458008
65	283.9421179294586	fix_pre	0		120	63.0	2.5	/experiments/knapen_AOT/AOT_stimuli/rescaled_final/1990_rv.mp4	0.0	323.4016740322113	1.0001301765441895
65	284.9422481060028	movie	1		243	63.0	2.5	/experiments/knapen_AOT/AOT_stimuli/rescaled_final/1990_rv.mp4	0.0	324.4018042087555	2.4919989109039307
65	285.317538022995	pulse	1	t		63.0	2.5	/experiments/knapen_AOT/AOT_stimuli/rescaled_final/1990_rv.mp4	0.0	324.7770941257477	
65	286.91774797439575	pulse	1	t		63.0	2.5	/experiments/knapen_AOT/AOT_stimuli/rescaled_final/1990_rv.mp4	0.0	326.37730407714844	
65	287.43424701690674	fix_post	2		12	63.0	2.5	/experiments/knapen_AOT/AOT_stimuli/rescaled_final/1990_rv.mp4	0.0	326.8938031196594	0.10003995895385742
66	287.5342869758606	fix_pre	0		119	64.0	2.5	/experiments/knapen_AOT/AOT_stimuli/rescaled_final/0949_fw.mp4	0.0	326.9938430786133	0.9918029308319092
66	288.51792311668396	pulse	0	t		64.0	2.5	/experiments/knapen_AOT/AOT_stimuli/rescaled_final/0949_fw.mp4	0.0	327.97747921943665	
66	288.5260899066925	movie	1		245	64.0	2.5	/experiments/knapen_AOT/AOT_stimuli/rescaled_final/0949_fw.mp4	0.0	327.9856460094452	2.508737087249756
66	290.11972403526306	pulse	1	t		64.0	2.5	/experiments/knapen_AOT/AOT_stimuli/rescaled_final/0949_fw.mp4	0.0	329.57928013801575	
66	291.03482699394226	fix_post	2		12	64.0	2.5	/experiments/knapen_AOT/AOT_stimuli/rescaled_final/0949_fw.mp4	0.0	330.49438309669495	0.10004901885986328
67	291.1348760128021	fix_pre	0		120	65.0	2.5	/experiments/knapen_AOT/AOT_stimuli/rescaled_final/0438_rv.mp4	0.0	330.5944321155548	1.0000839233398438
67	291.71837401390076	pulse	0	t		65.0	2.5	/experiments/knapen_AOT/AOT_stimuli/rescaled_final/0438_rv.mp4	0.0	331.17793011665344	
67	292.13495993614197	movie	1		244	65.0	2.5	/experiments/knapen_AOT/AOT_stimuli/rescaled_final/0438_rv.mp4	0.0	331.59451603889465	2.5003859996795654
67	293.31884503364563	pulse	1	t		65.0	2.5	/experiments/knapen_AOT/AOT_stimuli/rescaled_final/0438_rv.mp4	0.0	332.7784011363983	
67	294.63534593582153	fix_post	2		12	65.0	2.5	/experiments/knapen_AOT/AOT_stimuli/rescaled_final/0438_rv.mp4	0.0	334.0949020385742	0.10000419616699219
68	294.7353501319885	fix_pre	0		120	66.0	2.5	/experiments/knapen_AOT/AOT_stimuli/rescaled_final/1321_rv.mp4	0.0	334.1949062347412	1.0001888275146484
68	294.91885590553284	pulse	0	t		66.0	2.5	/experiments/knapen_AOT/AOT_stimuli/rescaled_final/1321_rv.mp4	0.0	334.3784120082855	
68	295.7355389595032	movie	1		244	66.0	2.5	/experiments/knapen_AOT/AOT_stimuli/rescaled_final/1321_rv.mp4	0.0	335.19509506225586	2.5003509521484375
68	296.5193510055542	pulse	1	t		66.0	2.5	/experiments/knapen_AOT/AOT_stimuli/rescaled_final/1321_rv.mp4	0.0	335.9789071083069	
68	298.1194739341736	pulse	1	t		66.0	2.5	/experiments/knapen_AOT/AOT_stimuli/rescaled_final/1321_rv.mp4	0.0	337.57903003692627	
68	298.2358899116516	fix_post	2		12	66.0	2.5	/experiments/knapen_AOT/AOT_stimuli/rescaled_final/1321_rv.mp4	0.0	337.6954460144043	0.10001301765441895
69	298.33590292930603	fix_pre	0		120	67.0	2.5	/experiments/knapen_AOT/AOT_stimuli/rescaled_final/1913_fw.mp4	0.0	337.7954590320587	1.0001401901245117
69	299.33604311943054	movie	1		243	67.0	2.5	/experiments/knapen_AOT/AOT_stimuli/rescaled_final/1913_fw.mp4	0.0	338.7955992221832	2.4920639991760254
69	299.72041392326355	pulse	1	t		67.0	2.5	/experiments/knapen_AOT/AOT_stimuli/rescaled_final/1913_fw.mp4	0.0	339.17997002601624	
69	301.31999111175537	pulse	1	t		67.0	2.5	/experiments/knapen_AOT/AOT_stimuli/rescaled_final/1913_fw.mp4	0.0	340.77954721450806	
69	301.82810711860657	fix_post	2		12	67.0	2.5	/experiments/knapen_AOT/AOT_stimuli/rescaled_final/1913_fw.mp4	0.0	341.28766322135925	0.10001087188720703
70	301.9281179904938	fix_pre	0		120	68.0	2.5	/experiments/knapen_AOT/AOT_stimuli/rescaled_final/1913_rv.mp4	0.0	341.38767409324646	1.0001509189605713
70	302.92007994651794	pulse	0	t		68.0	2.5	/experiments/knapen_AOT/AOT_stimuli/rescaled_final/1913_rv.mp4	0.0	342.37963604927063	
70	302.92826890945435	movie	1		245	68.0	2.5	/experiments/knapen_AOT/AOT_stimuli/rescaled_final/1913_rv.mp4	0.0	342.38782501220703	2.5087411403656006
70	304.5210280418396	pulse	1	t		68.0	2.5	/experiments/knapen_AOT/AOT_stimuli/rescaled_final/1913_rv.mp4	0.0	343.9805841445923	
70	305.43701004981995	fix_post	2		12	68.0	2.5	/experiments/knapen_AOT/AOT_stimuli/rescaled_final/1913_rv.mp4	0.0	344.89656615257263	0.09996891021728516
71	305.53697896003723	fix_pre	0		120	69.0	2.5	/experiments/knapen_AOT/AOT_stimuli/rescaled_final/1601_fw.mp4	0.0	344.9965350627899	1.0001189708709717
71	306.12059903144836	pulse	0	t		69.0	2.5	/experiments/knapen_AOT/AOT_stimuli/rescaled_final/1601_fw.mp4	0.0	345.58015513420105	
71	306.5370979309082	movie	1		243	69.0	2.5	/experiments/knapen_AOT/AOT_stimuli/rescaled_final/1601_fw.mp4	0.0	345.9966540336609	2.5004241466522217
71	307.7210259437561	pulse	1	t		69.0	2.5	/experiments/knapen_AOT/AOT_stimuli/rescaled_final/1601_fw.mp4	0.0	347.1805820465088	
71	309.0375220775604	fix_post	2		12	69.0	2.5	/experiments/knapen_AOT/AOT_stimuli/rescaled_final/1601_fw.mp4	0.0	348.4970781803131	0.10007882118225098
72	309.1376008987427	fix_pre	0		120	70.0	2.5	blank	1.0	348.59715700149536	1.0001070499420166
72	309.32110595703125	pulse	0	t		70.0	2.5	blank	1.0	348.78066205978394	
72	310.1377079486847	movie	1		300	70.0	2.5	blank	1.0	349.5972640514374	2.500368118286133
72	310.92139196395874	pulse	1	t		70.0	2.5	blank	1.0	350.3809480667114	
72	312.5215210914612	pulse	1	t		70.0	2.5	blank	1.0	351.98107719421387	
72	312.6380760669708	fix_post	2		12	70.0	2.5	blank	1.0	352.0976321697235	0.09995794296264648
73	312.7380340099335	fix_pre	0		119	71.0	2.5	/experiments/knapen_AOT/AOT_stimuli/rescaled_final/0319_fw.mp4	0.0	352.19759011268616	0.9918560981750488
73	313.7298901081085	movie	1		243	71.0	2.5	/experiments/knapen_AOT/AOT_stimuli/rescaled_final/0319_fw.mp4	0.0	353.1894462108612	2.500324010848999
73	314.12193298339844	pulse	1	t		71.0	2.5	/experiments/knapen_AOT/AOT_stimuli/rescaled_final/0319_fw.mp4	0.0	353.5814890861511	
73	315.7221119403839	pulse	1	t		71.0	2.5	/experiments/knapen_AOT/AOT_stimuli/rescaled_final/0319_fw.mp4	0.0	355.1816680431366	
73	316.2302141189575	fix_post	2		12	71.0	2.5	/experiments/knapen_AOT/AOT_stimuli/rescaled_final/0319_fw.mp4	0.0	355.6897702217102	0.10002994537353516
74	316.33024406433105	fix_pre	0		120	72.0	2.5	/experiments/knapen_AOT/AOT_stimuli/rescaled_final/1396_rv.mp4	0.0	355.78980016708374	1.0002548694610596
74	317.3222620487213	pulse	0	t		72.0	2.5	/experiments/knapen_AOT/AOT_stimuli/rescaled_final/1396_rv.mp4	0.0	356.781818151474	
74	317.3304989337921	movie	1		245	72.0	2.5	/experiments/knapen_AOT/AOT_stimuli/rescaled_final/1396_rv.mp4	0.0	356.7900550365448	2.5086441040039062
74	318.92314195632935	pulse	1	t		72.0	2.5	/experiments/knapen_AOT/AOT_stimuli/rescaled_final/1396_rv.mp4	0.0	358.38269805908203	
74	319.839143037796	fix_post	2		12	72.0	2.5	/experiments/knapen_AOT/AOT_stimuli/rescaled_final/1396_rv.mp4	0.0	359.2986991405487	0.0999910831451416
75	319.93913412094116	fix_pre	0		120	73.0	2.5	/experiments/knapen_AOT/AOT_stimuli/rescaled_final/1532_rv.mp4	0.0	359.39869022369385	1.0001518726348877
75	320.52284693717957	pulse	0	t		73.0	2.5	/experiments/knapen_AOT/AOT_stimuli/rescaled_final/1532_rv.mp4	0.0	359.98240303993225	
75	320.93928599357605	movie	1		243	73.0	2.5	/experiments/knapen_AOT/AOT_stimuli/rescaled_final/1532_rv.mp4	0.0	360.39884209632874	2.500368118286133
75	322.1231789588928	pulse	1	t		73.0	2.5	/experiments/knapen_AOT/AOT_stimuli/rescaled_final/1532_rv.mp4	0.0	361.5827350616455	
75	323.4396541118622	fix_post	2		12	73.0	2.5	/experiments/knapen_AOT/AOT_stimuli/rescaled_final/1532_rv.mp4	0.0	362.89921021461487	0.0999898910522461
76	323.53964400291443	fix_pre	0		120	74.0	2.5	/experiments/knapen_AOT/AOT_stimuli/rescaled_final/1413_fw.mp4	0.0	362.9992001056671	1.0001881122589111
76	323.7232940196991	pulse	0	t		74.0	2.5	/experiments/knapen_AOT/AOT_stimuli/rescaled_final/1413_fw.mp4	0.0	363.1828501224518	
76	324.53983211517334	movie	1		245	74.0	2.5	/experiments/knapen_AOT/AOT_stimuli/rescaled_final/1413_fw.mp4	0.0	363.999388217926	2.5003418922424316
76	325.32352089881897	pulse	1	t		74.0	2.5	/experiments/knapen_AOT/AOT_stimuli/rescaled_final/1413_fw.mp4	0.0	364.78307700157166	
76	326.9211881160736	pulse	1	t		74.0	2.5	/experiments/knapen_AOT/AOT_stimuli/rescaled_final/1413_fw.mp4	0.0	366.3807442188263	
76	327.04017400741577	fix_post	2		12	74.0	2.5	/experiments/knapen_AOT/AOT_stimuli/rescaled_final/1413_fw.mp4	0.0	366.49973011016846	0.10005807876586914
77	327.14023208618164	fix_pre	0		119	75.0	2.5	/experiments/knapen_AOT/AOT_stimuli/rescaled_final/0110_fw.mp4	0.0	366.5997881889343	0.9918129444122314
77	328.1320450305939	movie	1		243	75.0	2.5	/experiments/knapen_AOT/AOT_stimuli/rescaled_final/0110_fw.mp4	0.0	367.59160113334656	2.500312089920044
77	328.52414202690125	pulse	1	t		75.0	2.5	/experiments/knapen_AOT/AOT_stimuli/rescaled_final/0110_fw.mp4	0.0	367.98369812965393	
77	330.11686992645264	pulse	1	t		75.0	2.5	/experiments/knapen_AOT/AOT_stimuli/rescaled_final/0110_fw.mp4	0.0	369.5764260292053	
77	330.6323571205139	fix_post	2		12	75.0	2.5	/experiments/knapen_AOT/AOT_stimuli/rescaled_final/0110_fw.mp4	0.0	370.0919132232666	0.10006189346313477
78	330.73241901397705	fix_pre	0		120	76.0	2.5	/experiments/knapen_AOT/AOT_stimuli/rescaled_final/1616_rv.mp4	0.0	370.19197511672974	1.0001800060272217
78	331.7169189453125	pulse	0	t		76.0	2.5	/experiments/knapen_AOT/AOT_stimuli/rescaled_final/1616_rv.mp4	0.0	371.1764750480652	
78	331.7325990200043	movie	1		244	76.0	2.5	/experiments/knapen_AOT/AOT_stimuli/rescaled_final/1616_rv.mp4	0.0	371.19215512275696	2.5086820125579834
78	333.32516503334045	pulse	1	t		76.0	2.5	/experiments/knapen_AOT/AOT_stimuli/rescaled_final/1616_rv.mp4	0.0	372.78472113609314	
78	334.24128103256226	fix_post	2		12	76.0	2.5	/experiments/knapen_AOT/AOT_stimuli/rescaled_final/1616_rv.mp4	0.0	373.70083713531494	0.09999203681945801
79	334.3412730693817	fix_pre	0		120	77.0	2.5	blank	1.0	373.8008291721344	1.000269889831543
79	334.91741490364075	pulse	0	t		77.0	2.5	blank	1.0	374.37697100639343	
79	335.34154295921326	movie	1		300	77.0	2.5	blank	1.0	374.80109906196594	2.500278949737549
79	336.5176839828491	pulse	1	t		77.0	2.5	blank	1.0	375.9772400856018	
79	337.8418219089508	fix_post	2		12	77.0	2.5	blank	1.0	377.3013780117035	0.10000300407409668
80	337.9418249130249	fix_pre	0		120	78.0	2.5	/experiments/knapen_AOT/AOT_stimuli/rescaled_final/2109_rv.mp4	0.0	377.4013810157776	1.0001862049102783
80	338.11774492263794	pulse	0	t		78.0	2.5	/experiments/knapen_AOT/AOT_stimuli/rescaled_final/2109_rv.mp4	0.0	377.5773010253906	
80	338.9420111179352	movie	1		242	78.0	2.5	/experiments/knapen_AOT/AOT_stimuli/rescaled_final/2109_rv.mp4	0.0	378.40156722068787	2.49202299118042
80	339.71723794937134	pulse	1	t		78.0	2.5	/experiments/knapen_AOT/AOT_stimuli/rescaled_final/2109_rv.mp4	0.0	379.176794052124	
80	341.3174788951874	pulse	1	t		78.0	2.5	/experiments/knapen_AOT/AOT_stimuli/rescaled_final/2109_rv.mp4	0.0	380.77703499794006	
80	341.4340341091156	fix_post	2		12	78.0	2.5	/experiments/knapen_AOT/AOT_stimuli/rescaled_final/2109_rv.mp4	0.0	380.8935902118683	0.10000300407409668
81	341.5340371131897	fix_pre	0		117	79.0	2.5	/experiments/knapen_AOT/AOT_stimuli/rescaled_final/0817_rv.mp4	0.0	380.9935932159424	1.0001418590545654
81	342.53417897224426	movie	1		243	79.0	2.5	/experiments/knapen_AOT/AOT_stimuli/rescaled_final/0817_rv.mp4	0.0	381.99373507499695	2.500354051589966
81	342.9189200401306	pulse	1	t		79.0	2.5	/experiments/knapen_AOT/AOT_stimuli/rescaled_final/0817_rv.mp4	0.0	382.3784761428833	
81	344.5180721282959	pulse	1	t		79.0	2.5	/experiments/knapen_AOT/AOT_stimuli/rescaled_final/0817_rv.mp4	0.0	383.9776282310486	
81	345.03453302383423	fix_post	2		12	79.0	2.5	/experiments/knapen_AOT/AOT_stimuli/rescaled_final/0817_rv.mp4	0.0	384.4940891265869	0.10005903244018555
82	345.1345920562744	fix_pre	0		119	80.0	2.5	/experiments/knapen_AOT/AOT_stimuli/rescaled_final/1785_fw.mp4	0.0	384.5941481590271	0.9918079376220703
82	346.1182270050049	pulse	0	t		80.0	2.5	/experiments/knapen_AOT/AOT_stimuli/rescaled_final/1785_fw.mp4	0.0	385.57778310775757	
82	346.1263999938965	movie	1		244	80.0	2.5	/experiments/knapen_AOT/AOT_stimuli/rescaled_final/1785_fw.mp4	0.0	385.58595609664917	2.508700132369995
82	347.7192769050598	pulse	1	t		80.0	2.5	/experiments/knapen_AOT/AOT_stimuli/rescaled_final/1785_fw.mp4	0.0	387.1788330078125	
82	348.6351001262665	fix_post	2		12	80.0	2.5	/experiments/knapen_AOT/AOT_stimuli/rescaled_final/1785_fw.mp4	0.0	388.09465622901917	0.09998798370361328
83	348.7350881099701	fix_pre	0		120	81.0	2.5	/experiments/knapen_AOT/AOT_stimuli/rescaled_final/0798_rv.mp4	0.0	388.1946442127228	1.0001540184020996
83	349.31870198249817	pulse	0	t		81.0	2.5	/experiments/knapen_AOT/AOT_stimuli/rescaled_final/0798_rv.mp4	0.0	388.77825808525085	
83	349.7352421283722	movie	1		244	81.0	2.5	/experiments/knapen_AOT/AOT_stimuli/rescaled_final/0798_rv.mp4	0.0	389.1947982311249	2.500412940979004
83	350.91907691955566	pulse	1	t		81.0	2.5	/experiments/knapen_AOT/AOT_stimuli/rescaled_final/0798_rv.mp4	0.0	390.37863302230835	
83	352.2356550693512	fix_post	2		12	81.0	2.5	/experiments/knapen_AOT/AOT_stimuli/rescaled_final/0798_rv.mp4	0.0	391.6952111721039	0.0999748706817627
84	352.33562994003296	fix_pre	0		120	82.0	2.5	blank	1.0	391.79518604278564	1.0001511573791504
84	352.5192680358887	pulse	0	t		82.0	2.5	blank	1.0	391.97882413864136	
84	353.3357810974121	movie	1		300	82.0	2.5	blank	1.0	392.7953372001648	2.50040602684021
84	354.1193940639496	pulse	1	t		82.0	2.5	blank	1.0	393.57895016670227	
84	355.7197439670563	pulse	1	t		82.0	2.5	blank	1.0	395.17930006980896	
84	355.8361871242523	fix_post	2		12	82.0	2.5	blank	1.0	395.295743227005	0.09996700286865234
85	355.936154127121	fix_pre	0		120	83.0	2.5	/experiments/knapen_AOT/AOT_stimuli/rescaled_final/1427_rv.mp4	0.0	395.39571022987366	1.0001378059387207
85	356.9362919330597	movie	1		246	83.0	2.5	/experiments/knapen_AOT/AOT_stimuli/rescaled_final/1427_rv.mp4	0.0	396.3958480358124	2.4920411109924316
85	357.3210680484772	pulse	1	t		83.0	2.5	/experiments/knapen_AOT/AOT_stimuli/rescaled_final/1427_rv.mp4	0.0	396.78062415122986	
85	358.9202289581299	pulse	1	t		83.0	2.5	/experiments/knapen_AOT/AOT_stimuli/rescaled_final/1427_rv.mp4	0.0	398.37978506088257	
85	359.4283330440521	fix_post	2		12	83.0	2.5	/experiments/knapen_AOT/AOT_stimuli/rescaled_final/1427_rv.mp4	0.0	398.8878891468048	0.10003304481506348
87	359.5283660888672	stim	0		1716					398.9879221916199	14.30221700668335
87	360.52038311958313	pulse	0	t						399.9799392223358	
87	362.12058091163635	pulse	0	t						401.58013701438904	
87	363.72097301483154	pulse	0	t						403.18052911758423	
87	365.321161031723	pulse	0	t						404.7807171344757	
87	366.9213070869446	pulse	0	t						406.38086318969727	
87	368.5214800834656	pulse	0	t						407.98103618621826	
87	370.1217761039734	pulse	0	t						409.5813322067261	
87	371.7220220565796	pulse	0	t						411.1815781593323	
87	373.32226300239563	pulse	0	t						412.7818191051483	
